Channel1	Channel2	Channel3	Channel4	Channel5	Channel6	Channel7	Channel8	FilteredChannel1	FilteredChannel2	FilteredChannel3	FilteredChannel4	FilteredChannel5	FilteredChannel6	FilteredChannel7	FilteredChannel8	GyroX	GyroY	GyroZ	AccX	AccY	AccZ	PPG1	PPG2	rawPPG1	rawPPG2	rawPPG3	Hr	Hrv	Battery	Trigger	PhysicalTrigger	AutoTrigger	NumMeasurements	Timestamp
92592.495000	8506.845000	80983.080000	51183.270000	30768.345000	28618.290000	70185.285000	86306.265000	8.459181	5.665532	4.517543	6.578285	7.598915	14.179009	5.764373	7.598094	-0.671440	0.976640	1.434440	-0.638243	0.036194	0.757322	-1.000000	-1.000000	-1.000000	-1.000000	-1.000000	-1.000000	-1.000000	65.000000	0.000000	-1.000000	-1.000000	751457.000000	1775723107.624481
92587.545000	8499.510000	80975.430000	51178.545000	30764.160000	28625.760000	70176.420000	86298.345000	6.697957	2.576725	2.828511	4.668728	4.783069	6.149813	4.053128	5.852839	-0.671440	0.976640	1.434440	-0.638243	0.036194	0.757322	-1.000000	-1.000000	-1.000000	-1.000000	-1.000000	-1.000000	-1.000000	65.000000	0.000000	-1.000000	-1.000000	751458.000000	1775723107.624500
92586.555000	8497.620000	80972.685000	51178.860000	30762.495000	28627.020000	70172.415000	86293.665000	0.664749	-2.689328	-0.793394	0.893231	0.633357	-1.136469	-0.535717	0.146796	-0.671440	0.976640	1.434440	-0.638243	0.036194	0.757322	-1.000000	-1.000000	-1.000000	-1.000000	-1.000000	-1.000000	-1.000000	65.000000	0.000000	-1.000000	-1.000000	751459.000000	1775723107.624521
92587.365000	8505.135000	80974.395000	51184.530000	30766.680000	28605.465000	70168.365000	86289.030000	-5.422979	-6.532098	-3.733659	-2.203960	-2.539532	-5.083562	-4.909576	-5.877640	-0.671440	0.976640	1.434440	-0.638243	0.036194	0.757322	-1.000000	-1.000000	-1.000000	-1.000000	-1.000000	-1.000000	-1.000000	65.000000	0.000000	-1.000000	-1.000000	751460.000000	1775723107.624530
92594.745000	8507.655000	80976.510000	51189.615000	30781.710000	28624.815000	70194.150000	86302.980000	-7.837859	-6.291327	-3.983842	-2.820321	-3.129833	-6.410873	-5.962646	-8.492209	-1.846460	0.991900	0.503580	-0.635069	0.036255	0.759703	-1.000000	-1.000000	-1.000000	-1.000000	-1.000000	-1.000000	-1.000000	65.000000	0.000000	-1.000000	-1.000000	751461.000000	1775723107.633003
92585.115000	8495.550000	80968.500000	51186.510000	30792.825000	28651.185000	70195.230000	86305.095000	-5.772468	-2.493978	-1.606688	-1.058480	-0.685192	-5.171244	-2.238667	-5.936959	-1.846460	0.991900	0.503580	-0.635069	0.036255	0.759703	-1.000000	-1.000000	-1.000000	-1.000000	-1.000000	-1.000000	-1.000000	65.000000	0.000000	-1.000000	-1.000000	751462.000000	1775723107.633022
92589.570000	8505.630000	80980.065000	51201.270000	30805.830000	28646.910000	70188.480000	86296.365000	-1.457164	1.789299	1.587601	1.428691	3.396663	-0.771517	3.916420	-0.009406	-1.846460	0.991900	0.503580	-0.635069	0.036255	0.759703	-1.000000	-1.000000	-1.000000	-1.000000	-1.000000	-1.000000	-1.000000	65.000000	0.000000	-1.000000	-1.000000	751463.000000	1775723107.633047
92588.895000	8508.195000	80980.830000	51203.070000	30802.995000	28642.545000	70189.155000	86289.480000	2.325897	4.409763	4.079677	3.268318	6.261501	4.049273	7.570198	4.856299	-1.846460	0.991900	0.503580	-0.635069	0.036255	0.759703	-1.000000	-1.000000	-1.000000	-1.000000	-1.000000	-1.000000	-1.000000	65.000000	0.000000	-1.000000	-1.000000	751464.000000	1775723107.633057
92584.395000	8510.130000	80974.935000	51198.750000	30793.905000	28634.850000	70189.380000	86289.030000	4.180362	5.238375	5.064794	3.650713	5.191370	4.836202	6.192197	5.639572	-1.846460	0.991900	0.503580	-0.635069	0.036255	0.759703	-1.000000	-1.000000	-1.000000	-1.000000	-1.000000	-1.000000	-1.000000	65.000000	0.000000	-1.000000	-1.000000	751465.000000	1775723107.640867
92597.895000	8520.480000	80990.235000	51214.905000	30808.710000	28649.385000	70206.210000	86306.895000	4.140538	4.724077	4.141022	2.216709	0.041065	0.903440	1.779816	3.458131	-1.846460	0.991900	0.503580	-0.635069	0.036255	0.759703	-1.000000	-1.000000	-1.000000	-1.000000	-1.000000	-1.000000	-1.000000	65.000000	0.000000	-1.000000	-1.000000	751466.000000	1775723107.640889
92603.025000	8518.815000	80990.370000	51215.625000	30802.635000	28650.960000	70214.580000	86322.690000	3.409572	3.331906	2.124730	-0.019663	-5.890711	-3.953008	-1.742236	1.901184	-1.846460	0.991900	0.503580	-0.635069	0.036255	0.759703	-1.000000	-1.000000	-1.000000	-1.000000	-1.000000	-1.000000	-1.000000	65.000000	0.000000	-1.000000	-1.000000	751467.000000	1775723107.640913
92599.875000	8508.645000	80976.780000	51201.630000	30781.395000	28634.445000	70210.170000	86325.930000	2.867654	1.090080	-0.089194	-2.012502	-9.463285	-6.305995	-2.517447	2.796821	-1.846460	0.991900	0.503580	-0.635069	0.036255	0.759703	-1.000000	-1.000000	-1.000000	-1.000000	-1.000000	-1.000000	-1.000000	65.000000	0.000000	-1.000000	-1.000000	751468.000000	1775723107.640922
92599.830000	8500.995000	80966.430000	51195.420000	30782.385000	28608.210000	70201.170000	86324.085000	1.872350	-2.330921	-2.940729	-4.173184	-10.333582	-6.715502	-2.187411	4.175276	-1.846460	0.991900	0.503580	-0.635069	0.036255	0.759703	-1.000000	-1.000000	-1.000000	-1.000000	-1.000000	-1.000000	-1.000000	65.000000	0.000000	-1.000000	-1.000000	751469.000000	1775723107.707964
92597.895000	8502.300000	80966.070000	51197.580000	30795.435000	28607.445000	70197.705000	86315.940000	-0.270548	-6.057691	-6.279343	-6.364826	-8.398154	-7.076487	-3.061786	2.836361	-1.846460	0.991900	0.503580	-0.635069	0.036255	0.759703	-1.000000	-1.000000	-1.000000	-1.000000	-1.000000	-1.000000	-1.000000	65.000000	0.000000	-1.000000	-1.000000	751470.000000	1775723107.707984
92587.095000	8498.430000	80959.500000	51192.540000	30798.135000	28625.310000	70192.080000	86304.105000	-3.118385	-7.861831	-8.122803	-6.852467	-2.889685	-6.223325	-5.084379	-2.127746	-1.098720	1.892240	-1.144500	-0.633299	0.036743	0.762754	-1.000000	-1.000000	-1.000000	-1.000000	-1.000000	-1.000000	-1.000000	65.000000	0.000000	-1.000000	-1.000000	751471.000000	1775723107.708006
92574.855000	8490.240000	80948.250000	51186.780000	30797.325000	28639.485000	70191.045000	86296.185000	-5.816142	-6.477847	-6.954387	-4.636930	4.694272	-1.176190	-6.295557	-8.529049	-1.098720	1.892240	-1.144500	-0.633299	0.036743	0.762754	-1.000000	-1.000000	-1.000000	-1.000000	-1.000000	-1.000000	-1.000000	65.000000	0.000000	-1.000000	-1.000000	751472.000000	1775723107.708014
92575.800000	8486.325000	80947.665000	51186.420000	30790.665000	28633.005000	70197.930000	86302.035000	-7.350460	-2.904311	-3.374743	-0.718610	10.327100	7.424395	-4.921003	-12.478944	-1.098720	1.892240	-1.144500	-0.633299	0.036743	0.762754	-1.000000	-1.000000	-1.000000	-1.000000	-1.000000	-1.000000	-1.000000	65.000000	0.000000	-1.000000	-1.000000	751473.000000	1775723107.708026
92586.870000	8497.755000	80958.285000	51197.130000	30795.480000	28649.115000	70208.055000	86313.555000	-6.150503	1.245163	1.349061	3.450596	11.020946	14.479083	-0.580749	-10.701295	-1.098720	1.892240	-1.144500	-0.633299	0.036743	0.762754	-1.000000	-1.000000	-1.000000	-1.000000	-1.000000	-1.000000	-1.000000	65.000000	0.000000	-1.000000	-1.000000	751474.000000	1775723107.708035
92593.935000	8507.655000	80966.160000	51206.760000	30801.330000	28640.880000	70195.410000	86311.845000	-1.291775	5.351631	6.427730	7.166489	7.437275	15.533528	4.948379	-3.224459	-1.098720	1.892240	-1.144500	-0.633299	0.036743	0.762754	-1.000000	-1.000000	-1.000000	-1.000000	-1.000000	-1.000000	-1.000000	65.000000	0.000000	-1.000000	-1.000000	751475.000000	1775723107.708044
92580.885000	8494.830000	80952.120000	51194.565000	30784.005000	28589.445000	70183.530000	86298.480000	5.230691	8.545789	10.259074	9.419946	2.274117	9.075288	8.022846	5.593978	-1.098720	1.892240	-1.144500	-0.633299	0.036743	0.762754	-1.000000	-1.000000	-1.000000	-1.000000	-1.000000	-1.000000	-1.000000	65.000000	0.000000	-1.000000	-1.000000	751476.000000	1775723107.708052
92580.345000	8495.055000	80953.155000	51195.960000	30776.895000	28541.025000	70172.010000	86286.015000	9.150401	8.727449	10.272214	8.402869	-2.799894	-4.422209	6.120207	10.073323	-1.098720	1.892240	-1.144500	-0.633299	0.036743	0.762754	-1.000000	-1.000000	-1.000000	-1.000000	-1.000000	-1.000000	-1.000000	65.000000	0.000000	-1.000000	-1.000000	751477.000000	1775723107.708062
92591.235000	8508.780000	80964.495000	51207.615000	30794.220000	28581.525000	70175.970000	86287.185000	8.298917	5.307964	6.087476	4.045592	-6.477785	-19.205592	0.753126	8.178735	-1.098720	1.892240	-1.144500	-0.633299	0.036743	0.762754	-1.000000	-1.000000	-1.000000	-1.000000	-1.000000	-1.000000	-1.000000	65.000000	0.000000	-1.000000	-1.000000	751478.000000	1775723107.708070
92604.015000	8523.045000	80977.005000	51223.770000	30834.225000	28716.525000	70213.140000	86305.995000	4.794054	1.020988	0.864038	-0.637664	-5.905311	-21.622655	-3.065991	3.288803	-1.098720	1.892240	-1.144500	-0.633299	0.036743	0.762754	-1.000000	-1.000000	-1.000000	-1.000000	-1.000000	-1.000000	-1.000000	65.000000	0.000000	-1.000000	-1.000000	751479.000000	1775723107.708079
92607.390000	8527.995000	80982.495000	51234.165000	30847.320000	28718.370000	70221.780000	86317.335000	1.831784	-1.210007	-2.134900	-2.579933	0.526562	-2.470958	-1.060163	0.632201	-1.098720	1.892240	-1.144500	-0.633299	0.036743	0.762754	-1.000000	-1.000000	-1.000000	-1.000000	-1.000000	-1.000000	-1.000000	65.000000	0.000000	-1.000000	-1.000000	751480.000000	1775723107.708087
92603.025000	8521.020000	80973.810000	51227.280000	30833.055000	28672.695000	70211.610000	86317.380000	0.076487	-1.615959	-2.850095	-1.983889	8.611871	25.229755	4.994026	1.878524	-0.244160	2.746800	-2.014320	-0.631163	0.036682	0.763609	-1.000000	-1.000000	-1.000000	-1.000000	-1.000000	-1.000000	-1.000000	65.000000	0.000000	-1.000000	-1.000000	751481.000000	1775723107.708098
92600.370000	8506.305000	80954.145000	51209.685000	30815.955000	28654.335000	70209.765000	86321.790000	-1.856082	-2.735713	-3.832234	-1.973044	10.465934	35.366651	8.341436	4.100356	-0.244160	2.746800	-2.014320	-0.631163	0.036682	0.763609	-1.000000	-1.000000	-1.000000	-1.000000	-1.000000	-1.000000	-1.000000	65.000000	0.000000	-1.000000	-1.000000	751482.000000	1775723107.708105
92599.380000	8499.015000	80943.120000	51199.020000	30805.875000	28645.695000	70213.590000	86322.645000	-4.598159	-5.988103	-6.895840	-4.955923	2.711967	17.904625	5.059454	3.860542	-0.244160	2.746800	-2.014320	-0.631163	0.036682	0.763609	-1.000000	-1.000000	-1.000000	-1.000000	-1.000000	-1.000000	-1.000000	65.000000	0.000000	-1.000000	-1.000000	751483.000000	1775723107.708115
92593.575000	8500.590000	80943.660000	51200.370000	30803.400000	28637.505000	70212.105000	86313.870000	-7.048236	-9.544343	-10.418776	-9.403014	-9.644145	-12.980935	-2.338034	0.348435	-0.244160	2.746800	-2.014320	-0.631163	0.036682	0.763609	-1.000000	-1.000000	-1.000000	-1.000000	-1.000000	-1.000000	-1.000000	65.000000	0.000000	-1.000000	-1.000000	751484.000000	1775723107.708123
92589.030000	8503.920000	80946.810000	51206.580000	30804.210000	28626.615000	70209.135000	86309.145000	-7.805910	-9.877622	-10.553432	-10.926312	-17.902145	-36.134632	-8.849528	-4.971406	-0.244160	2.746800	-2.014320	-0.631163	0.036682	0.763609	-1.000000	-1.000000	-1.000000	-1.000000	-1.000000	-1.000000	-1.000000	65.000000	0.000000	-1.000000	-1.000000	751485.000000	1775723107.708133
92593.980000	8508.510000	80949.960000	51211.485000	30804.480000	28618.425000	70207.020000	86313.780000	-6.226693	-5.337095	-5.311660	-6.708950	-16.813906	-40.000080	-11.358289	-9.371829	-0.244160	2.746800	-2.014320	-0.631163	0.036682	0.763609	-1.000000	-1.000000	-1.000000	-1.000000	-1.000000	-1.000000	-1.000000	65.000000	0.000000	-1.000000	-1.000000	751486.000000	1775723107.708141
92597.175000	8511.435000	80951.580000	51214.185000	30806.145000	28627.425000	70200.945000	86312.700000	-2.387725	2.218544	3.242585	1.662030	-7.592304	-25.929155	-9.610483	-10.146463	-0.244160	2.746800	-2.014320	-0.631163	0.036682	0.763609	-1.000000	-1.000000	-1.000000	-1.000000	-1.000000	-1.000000	-1.000000	65.000000	0.000000	-1.000000	-1.000000	751487.000000	1775723107.708151
92600.190000	8516.565000	80955.585000	51219.630000	30821.355000	28642.905000	70201.980000	86314.770000	2.643993	9.002134	10.754529	9.668560	4.493623	-2.649045	-5.179275	-6.667257	-0.244160	2.746800	-2.014320	-0.631163	0.036682	0.763609	-1.000000	-1.000000	-1.000000	-1.000000	-1.000000	-1.000000	-1.000000	65.000000	0.000000	-1.000000	-1.000000	751488.000000	1775723107.708159
92591.235000	8506.755000	80945.820000	51212.610000	30825.225000	28650.690000	70207.650000	86311.620000	6.652138	11.758901	13.602632	13.255699	14.174105	19.628881	0.124775	-0.928666	-0.244160	2.746800	-2.014320	-0.631163	0.036682	0.763609	-1.000000	-1.000000	-1.000000	-1.000000	-1.000000	-1.000000	-1.000000	65.000000	0.000000	-1.000000	-1.000000	751489.000000	1775723107.708948
92592.675000	8509.320000	80948.205000	51218.730000	30828.285000	28650.105000	70207.920000	86313.330000	7.522708	9.337803	10.711134	11.075926	18.027785	32.468007	4.967148	4.149125	-0.244160	2.746800	-2.014320	-0.631163	0.036682	0.763609	-1.000000	-1.000000	-1.000000	-1.000000	-1.000000	-1.000000	-1.000000	65.000000	0.000000	-1.000000	-1.000000	751490.000000	1775723107.708961
92593.080000	8508.015000	80947.170000	51222.285000	30833.055000	28651.275000	70206.660000	86312.295000	5.172126	3.418535	4.081876	5.062861	15.080980	31.811692	8.033147	6.669014	-0.808780	3.250380	-2.594200	-0.628294	0.036621	0.765440	-1.000000	-1.000000	-1.000000	-1.000000	-1.000000	-1.000000	-1.000000	65.000000	0.000000	-1.000000	-1.000000	751491.000000	1775723107.709015
92594.610000	8505.945000	80943.660000	51219.090000	30827.925000	28648.395000	70207.020000	86313.375000	1.583546	-2.637241	-2.659748	-1.282576	7.130838	19.680498	8.246379	6.420149	-0.808780	3.250380	-2.594200	-0.628294	0.036621	0.765440	-1.000000	-1.000000	-1.000000	-1.000000	-1.000000	-1.000000	-1.000000	65.000000	0.000000	-1.000000	-1.000000	751492.000000	1775723107.709024
92594.655000	8504.370000	80939.745000	51213.465000	30816.045000	28637.550000	70205.670000	86312.880000	-1.177554	-6.264274	-6.892369	-5.705208	-2.588490	2.497765	5.732295	4.334779	-0.808780	3.250380	-2.594200	-0.628294	0.036621	0.765440	-1.000000	-1.000000	-1.000000	-1.000000	-1.000000	-1.000000	-1.000000	65.000000	0.000000	-1.000000	-1.000000	751493.000000	1775723107.709038
92593.575000	8503.785000	80938.035000	51214.770000	30817.755000	28633.590000	70206.750000	86312.520000	-2.345228	-6.747257	-7.921180	-7.700640	-10.826317	-12.711906	1.860615	1.650882	-0.808780	3.250380	-2.594200	-0.628294	0.036621	0.765440	-1.000000	-1.000000	-1.000000	-1.000000	-1.000000	-1.000000	-1.000000	65.000000	0.000000	-1.000000	-1.000000	751494.000000	1775723107.709045
92594.070000	8504.235000	80936.595000	51216.480000	30822.525000	28633.275000	70207.695000	86313.465000	-2.278845	-4.738222	-6.277673	-7.243422	-14.546491	-20.893330	-1.621070	-0.635074	-0.808780	3.250380	-2.594200	-0.628294	0.036621	0.765440	-1.000000	-1.000000	-1.000000	-1.000000	-1.000000	-1.000000	-1.000000	65.000000	0.000000	-1.000000	-1.000000	751495.000000	1775723107.709056
92590.560000	8502.705000	80933.715000	51215.445000	30823.920000	28633.410000	70206.030000	86310.450000	-1.699879	-1.578723	-3.109860	-4.610925	-12.178082	-20.181273	-3.543675	-2.006634	-0.808780	3.250380	-2.594200	-0.628294	0.036621	0.765440	-1.000000	-1.000000	-1.000000	-1.000000	-1.000000	-1.000000	-1.000000	65.000000	0.000000	-1.000000	-1.000000	751496.000000	1775723107.709064
92589.705000	8505.855000	80933.625000	51217.065000	30826.935000	28635.705000	70204.815000	86308.245000	-1.180433	1.351662	0.223318	-0.908008	-5.246223	-12.370994	-3.812813	-2.506688	-0.808780	3.250380	-2.594200	-0.628294	0.036621	0.765440	-1.000000	-1.000000	-1.000000	-1.000000	-1.000000	-1.000000	-1.000000	65.000000	0.000000	-1.000000	-1.000000	751497.000000	1775723107.709073
92591.595000	8509.005000	80934.345000	51217.965000	30824.325000	28625.895000	70203.420000	86306.670000	-0.831077	3.257185	2.714306	2.383228	2.450093	-1.961181	-3.043270	-2.442996	-0.808780	3.250380	-2.594200	-0.628294	0.036621	0.765440	-1.000000	-1.000000	-1.000000	-1.000000	-1.000000	-1.000000	-1.000000	65.000000	0.000000	-1.000000	-1.000000	751498.000000	1775723107.709080
92591.820000	8512.380000	80934.975000	51219.585000	30816.135000	28597.860000	70203.555000	86305.680000	-0.339267	4.005164	3.983319	4.254692	7.205481	5.695419	-1.855652	-1.961257	-0.808780	3.250380	-2.594200	-0.628294	0.036621	0.765440	-1.000000	-1.000000	-1.000000	-1.000000	-1.000000	-1.000000	-1.000000	65.000000	0.000000	-1.000000	-1.000000	751499.000000	1775723107.709090
92595.870000	8516.430000	80936.640000	51225.660000	30822.255000	28602.180000	70206.345000	86307.615000	0.495787	3.731057	4.069423	4.532409	7.502118	7.407891	-0.539243	-1.032986	-0.808780	3.250380	-2.594200	-0.628294	0.036621	0.765440	-1.000000	-1.000000	-1.000000	-1.000000	-1.000000	-1.000000	-1.000000	65.000000	0.000000	-1.000000	-1.000000	751500.000000	1775723107.709098
92597.940000	8518.680000	80937.990000	51229.305000	30837.735000	28653.525000	70209.000000	86306.895000	1.488552	2.633649	3.226322	3.742202	5.065381	5.851385	0.838485	0.265601	-2.014320	3.769220	-2.945180	-0.628050	0.035583	0.766050	-1.000000	-1.000000	-1.000000	-1.000000	-1.000000	-1.000000	-1.000000	65.000000	0.000000	-1.000000	-1.000000	751501.000000	1775723107.709107
92594.205000	8514.180000	80934.885000	51230.700000	30848.535000	28675.755000	70213.860000	86306.760000	2.086951	0.854692	1.748542	2.447321	3.127378	7.276206	2.126244	1.517221	-2.014320	3.769220	-2.945180	-0.628050	0.035583	0.766050	-1.000000	-1.000000	-1.000000	-1.000000	-1.000000	-1.000000	-1.000000	65.000000	0.000000	-1.000000	-1.000000	751502.000000	1775723107.709115
92598.345000	8517.555000	80937.630000	51234.030000	30845.295000	28656.135000	70217.820000	86314.770000	1.719443	-1.393357	-0.065644	0.849952	2.819508	12.223273	2.994576	2.300858	-2.014320	3.769220	-2.945180	-0.628050	0.035583	0.766050	-1.000000	-1.000000	-1.000000	-1.000000	-1.000000	-1.000000	-1.000000	65.000000	0.000000	-1.000000	-1.000000	751503.000000	1775723107.716111
92594.475000	8517.870000	80932.410000	51231.195000	30842.280000	28647.945000	70212.195000	86312.385000	0.470638	-3.357136	-1.767247	-0.931262	2.283538	13.376496	2.924054	2.564966	-2.014320	3.769220	-2.945180	-0.628050	0.035583	0.766050	-1.000000	-1.000000	-1.000000	-1.000000	-1.000000	-1.000000	-1.000000	65.000000	0.000000	-1.000000	-1.000000	751504.000000	1775723107.716128
92594.835000	8514.360000	80930.835000	51228.945000	30838.995000	28643.850000	70212.870000	86314.545000	-1.023932	-4.164927	-2.956855	-2.698660	-0.358276	5.559571	1.442646	2.207667	-2.014320	3.769220	-2.945180	-0.628050	0.035583	0.766050	-1.000000	-1.000000	-1.000000	-1.000000	-1.000000	-1.000000	-1.000000	65.000000	0.000000	-1.000000	-1.000000	751505.000000	1775723107.716145
92594.970000	8512.650000	80928.675000	51227.595000	30837.195000	28641.555000	70215.930000	86316.345000	-2.103333	-3.735939	-3.421098	-4.094709	-4.484947	-7.529801	-0.980476	1.099616	-2.014320	3.769220	-2.945180	-0.628050	0.035583	0.766050	-1.000000	-1.000000	-1.000000	-1.000000	-1.000000	-1.000000	-1.000000	65.000000	0.000000	-1.000000	-1.000000	751506.000000	1775723107.716155
92595.420000	8513.820000	80929.845000	51232.005000	30841.020000	28634.805000	70216.515000	86316.255000	-2.280204	-2.506465	-2.953225	-4.437500	-7.611140	-17.880373	-2.892210	-0.410720	-2.014320	3.769220	-2.945180	-0.628050	0.035583	0.766050	-1.000000	-1.000000	-1.000000	-1.000000	-1.000000	-1.000000	-1.000000	65.000000	0.000000	-1.000000	-1.000000	751507.000000	1775723107.721113
92597.400000	8516.160000	80932.770000	51237.315000	30849.255000	28634.400000	70219.035000	86317.020000	-1.480248	-0.751728	-1.459547	-3.067696	-7.472129	-20.238415	-3.235243	-1.746847	-2.014320	3.769220	-2.945180	-0.628050	0.035583	0.766050	-1.000000	-1.000000	-1.000000	-1.000000	-1.000000	-1.000000	-1.000000	65.000000	0.000000	-1.000000	-1.000000	751508.000000	1775723107.721131
92592.855000	8510.760000	80927.595000	51233.895000	30844.620000	28620.495000	70216.200000	86311.980000	-0.198312	1.151303	0.606330	-0.291329	-3.870963	-14.690713	-2.191000	-2.592292	-2.014320	3.769220	-2.945180	-0.628050	0.035583	0.766050	-1.000000	-1.000000	-1.000000	-1.000000	-1.000000	-1.000000	-1.000000	65.000000	0.000000	-1.000000	-1.000000	751509.000000	1775723107.724550
92589.570000	8508.060000	80923.905000	51231.600000	30836.115000	28601.100000	70206.885000	86306.130000	0.691377	2.365485	2.112787	2.290558	0.742277	-5.505590	-0.917842	-3.034770	-2.014320	3.769220	-2.945180	-0.628050	0.035583	0.766050	-1.000000	-1.000000	-1.000000	-1.000000	-1.000000	-1.000000	-1.000000	65.000000	0.000000	-1.000000	-1.000000	751510.000000	1775723107.724568
92581.200000	8507.520000	80915.580000	51226.110000	30838.410000	28642.635000	70199.640000	86298.435000	0.532009	2.326570	2.058989	3.050513	3.406722	3.202686	-0.640055	-3.297154	-3.494540	4.104940	-2.609460	-0.630186	0.034424	0.764891	-1.000000	-1.000000	-1.000000	-1.000000	-1.000000	-1.000000	-1.000000	65.000000	0.000000	-1.000000	-1.000000	751511.000000	1775723107.727583
92583.450000	8508.555000	80915.715000	51224.310000	30837.870000	28657.935000	70201.890000	86303.160000	-0.442374	1.492493	0.600619	1.787770	3.485983	11.083998	-1.313738	-3.110344	-3.494540	4.104940	-2.609460	-0.630186	0.034424	0.764891	-1.000000	-1.000000	-1.000000	-1.000000	-1.000000	-1.000000	-1.000000	65.000000	0.000000	-1.000000	-1.000000	751512.000000	1775723107.727594
92587.995000	8508.420000	80914.140000	51222.150000	30841.650000	28659.060000	70211.610000	86306.940000	-1.013368	0.777064	-0.943945	-0.266842	2.457742	17.924485	-1.316664	-1.624914	-3.494540	4.104940	-2.609460	-0.630186	0.034424	0.764891	-1.000000	-1.000000	-1.000000	-1.000000	-1.000000	-1.000000	-1.000000	65.000000	0.000000	-1.000000	-1.000000	751513.000000	1775723107.734282
92584.530000	8506.665000	80912.790000	51228.000000	30853.305000	28633.320000	70199.550000	86295.105000	-0.168525	0.560089	-1.287083	-1.461487	1.958904	19.509501	0.489366	1.162249	-3.494540	4.104940	-2.609460	-0.630186	0.034424	0.764891	-1.000000	-1.000000	-1.000000	-1.000000	-1.000000	-1.000000	-1.000000	65.000000	0.000000	-1.000000	-1.000000	751514.000000	1775723107.734299
92583.360000	8505.495000	80911.665000	51228.855000	30854.430000	28640.655000	70198.155000	86291.550000	1.523084	0.538786	-0.303093	-0.846652	2.582644	12.188502	2.820686	3.487676	-3.494540	4.104940	-2.609460	-0.630186	0.034424	0.764891	-1.000000	-1.000000	-1.000000	-1.000000	-1.000000	-1.000000	-1.000000	65.000000	0.000000	-1.000000	-1.000000	751515.000000	1775723107.738777
92594.205000	8514.450000	80918.730000	51238.485000	30867.570000	28656.765000	70212.105000	86303.880000	2.815649	0.499313	1.303887	1.236929	3.590658	-0.614831	3.939666	4.037509	-3.494540	4.104940	-2.609460	-0.630186	0.034424	0.764891	-1.000000	-1.000000	-1.000000	-1.000000	-1.000000	-1.000000	-1.000000	65.000000	0.000000	-1.000000	-1.000000	751516.000000	1775723107.738793
92614.275000	8530.920000	80932.365000	51252.030000	30875.040000	28659.780000	70233.480000	86330.295000	3.696362	0.994661	3.071878	3.732281	3.894489	-10.731374	4.407548	4.127053	-3.494540	4.104940	-2.609460	-0.630186	0.034424	0.764891	-1.000000	-1.000000	-1.000000	-1.000000	-1.000000	-1.000000	-1.000000	65.000000	0.000000	-1.000000	-1.000000	751517.000000	1775723107.747016
92623.770000	8536.230000	80934.345000	51252.255000	30869.955000	28655.460000	70233.210000	86339.970000	4.840809	2.489278	4.688701	5.475204	2.776169	-13.529735	5.359784	5.619002	-3.494540	4.104940	-2.609460	-0.630186	0.034424	0.764891	-1.000000	-1.000000	-1.000000	-1.000000	-1.000000	-1.000000	-1.000000	65.000000	0.000000	-1.000000	-1.000000	751518.000000	1775723107.747032
92584.980000	8512.650000	80899.335000	51224.130000	30852.945000	28628.055000	70202.160000	86294.385000	4.786470	3.424856	4.454205	4.589353	-0.496063	-11.146654	5.029486	6.587615	-3.494540	4.104940	-2.609460	-0.630186	0.034424	0.764891	-1.000000	-1.000000	-1.000000	-1.000000	-1.000000	-1.000000	-1.000000	65.000000	0.000000	-1.000000	-1.000000	751519.000000	1775723107.747051
92562.120000	8504.100000	80884.035000	51214.455000	30847.770000	28616.760000	70188.660000	86267.790000	0.073507	0.973275	-0.069237	-0.568831	-5.787355	-8.366464	0.199566	1.985478	-3.494540	4.104940	-2.609460	-0.630186	0.034424	0.764891	-1.000000	-1.000000	-1.000000	-1.000000	-1.000000	-1.000000	-1.000000	65.000000	0.000000	-1.000000	-1.000000	751520.000000	1775723107.747059
92589.525000	8516.970000	80915.715000	51242.310000	30871.395000	28635.570000	70218.225000	86298.300000	-8.538096	-4.501631	-7.107212	-7.541679	-10.166851	-6.616983	-7.627416	-8.014507	-3.876040	5.127360	-2.136400	-0.634703	0.031616	0.760862	-1.000000	-1.000000	-1.000000	-1.000000	-1.000000	-1.000000	-1.000000	65.000000	0.000000	-1.000000	-1.000000	751521.000000	1775723107.750961
92602.485000	8530.605000	80930.655000	51262.695000	30898.350000	28671.930000	70243.425000	86322.600000	-13.553406	-8.176557	-9.785411	-9.840211	-8.978368	-2.535366	-11.224586	-14.528181	-3.876040	5.127360	-2.136400	-0.634703	0.031616	0.760862	-1.000000	-1.000000	-1.000000	-1.000000	-1.000000	-1.000000	-1.000000	65.000000	0.000000	-1.000000	-1.000000	751522.000000	1775723107.750978
92618.685000	8544.825000	80942.670000	51274.980000	30911.760000	28688.895000	70253.460000	86342.445000	-9.091224	-6.000121	-4.170069	-4.114721	-0.902893	6.448839	-5.956373	-9.931479	-3.876040	5.127360	-2.136400	-0.634703	0.031616	0.760862	-1.000000	-1.000000	-1.000000	-1.000000	-1.000000	-1.000000	-1.000000	65.000000	0.000000	-1.000000	-1.000000	751523.000000	1775723107.752527
92610.360000	8528.265000	80921.295000	51248.790000	30875.535000	28649.295000	70235.820000	86334.255000	1.878617	0.454102	5.133199	4.889033	8.427177	15.815331	3.795214	2.658602	-3.876040	5.127360	-2.136400	-0.634703	0.031616	0.760862	-1.000000	-1.000000	-1.000000	-1.000000	-1.000000	-1.000000	-1.000000	65.000000	0.000000	-1.000000	-1.000000	751524.000000	1775723107.752546
92608.065000	8521.695000	80911.980000	51237.000000	30855.780000	28623.150000	70227.360000	86328.810000	10.878462	5.375018	9.696716	8.689545	10.305946	16.354470	9.088415	12.819844	-3.876040	5.127360	-2.136400	-0.634703	0.031616	0.760862	-1.000000	-1.000000	-1.000000	-1.000000	-1.000000	-1.000000	-1.000000	65.000000	0.000000	-1.000000	-1.000000	751525.000000	1775723107.758353
92608.830000	8526.150000	80916.930000	51245.820000	30866.130000	28626.885000	70230.780000	86325.705000	12.042897	4.947194	6.023356	4.157878	2.521664	5.129121	5.872230	13.114530	-3.876040	5.127360	-2.136400	-0.634703	0.031616	0.760862	-1.000000	-1.000000	-1.000000	-1.000000	-1.000000	-1.000000	-1.000000	65.000000	0.000000	-1.000000	-1.000000	751526.000000	1775723107.758371
92607.300000	8524.395000	80914.815000	51247.980000	30876.255000	28645.110000	70235.595000	86324.490000	6.173752	0.886498	-1.727831	-3.556171	-7.345565	-9.255726	-1.819593	4.671441	-3.876040	5.127360	-2.136400	-0.634703	0.031616	0.760862	-1.000000	-1.000000	-1.000000	-1.000000	-1.000000	-1.000000	-1.000000	65.000000	0.000000	-1.000000	-1.000000	751527.000000	1775723107.762081
92598.660000	8512.515000	80900.595000	51238.080000	30875.310000	28654.020000	70236.630000	86321.250000	-1.969386	-2.988985	-7.535886	-7.855977	-10.556371	-15.359575	-7.326703	-5.813192	-3.876040	5.127360	-2.136400	-0.634703	0.031616	0.760862	-1.000000	-1.000000	-1.000000	-1.000000	-1.000000	-1.000000	-1.000000	65.000000	0.000000	-1.000000	-1.000000	751528.000000	1775723107.762096
92597.445000	8508.105000	80894.970000	51235.605000	30871.080000	28625.310000	70235.595000	86322.150000	-8.071247	-4.841126	-9.048500	-7.058703	-5.874172	-10.556173	-7.551335	-12.131535	-3.876040	5.127360	-2.136400	-0.634703	0.031616	0.760862	-1.000000	-1.000000	-1.000000	-1.000000	-1.000000	-1.000000	-1.000000	65.000000	0.000000	-1.000000	-1.000000	751529.000000	1775723107.763026
92604.240000	8516.520000	80904.780000	51246.495000	30878.595000	28616.580000	70223.850000	86321.070000	-9.756665	-4.362686	-6.720819	-3.048072	1.791823	-1.894582	-4.057977	-11.899508	-3.876040	5.127360	-2.136400	-0.634703	0.031616	0.760862	-1.000000	-1.000000	-1.000000	-1.000000	-1.000000	-1.000000	-1.000000	65.000000	0.000000	-1.000000	-1.000000	751530.000000	1775723107.763038
92606.130000	8518.050000	80904.690000	51246.135000	30876.840000	28629.045000	70224.930000	86319.720000	-6.647061	-1.463303	-1.522870	2.096696	7.483865	3.594832	-0.230080	-6.596294	-2.777320	5.081580	-1.388660	-0.640257	0.028809	0.757200	-1.000000	-1.000000	-1.000000	-1.000000	-1.000000	-1.000000	-1.000000	65.000000	0.000000	-1.000000	-1.000000	751531.000000	1775723107.852494
92602.170000	8520.975000	80904.060000	51250.140000	30892.500000	28659.015000	70227.270000	86315.130000	-0.768379	2.893352	4.586937	6.438532	9.277028	5.917676	2.124065	0.220330	-2.777320	5.081580	-1.388660	-0.640257	0.028809	0.757200	-1.000000	-1.000000	-1.000000	-1.000000	-1.000000	-1.000000	-1.000000	65.000000	0.000000	-1.000000	-1.000000	751532.000000	1775723107.852512
92594.160000	8513.190000	80896.005000	51244.830000	30895.245000	28656.180000	70229.070000	86309.235000	4.246418	6.302356	8.547357	8.076092	7.900416	8.197308	3.382744	5.165877	-2.777320	5.081580	-1.388660	-0.640257	0.028809	0.757200	-1.000000	-1.000000	-1.000000	-1.000000	-1.000000	-1.000000	-1.000000	65.000000	0.000000	-1.000000	-1.000000	751533.000000	1775723107.852532
92586.195000	8500.995000	80883.810000	51233.130000	30880.305000	28639.260000	70225.875000	86307.795000	5.657256	6.385341	8.121397	6.029573	4.489250	9.695042	4.132009	6.696773	-2.777320	5.081580	-1.388660	-0.640257	0.028809	0.757200	-1.000000	-1.000000	-1.000000	-1.000000	-1.000000	-1.000000	-1.000000	65.000000	0.000000	-1.000000	-1.000000	751534.000000	1775723107.852541
92590.245000	8500.635000	80880.705000	51231.060000	30875.985000	28624.635000	70225.245000	86314.005000	3.623576	2.792963	3.647083	1.026809	-0.685990	6.597319	4.101746	5.619233	-2.777320	5.081580	-1.388660	-0.640257	0.028809	0.757200	-1.000000	-1.000000	-1.000000	-1.000000	-1.000000	-1.000000	-1.000000	65.000000	0.000000	-1.000000	-1.000000	751535.000000	1775723107.852642
92603.610000	8513.145000	80891.865000	51244.965000	30891.060000	28636.470000	70229.250000	86320.485000	0.997287	-1.773452	-1.687870	-4.006331	-6.118769	-1.314629	3.063165	4.042128	-2.777320	5.081580	-1.388660	-0.640257	0.028809	0.757200	-1.000000	-1.000000	-1.000000	-1.000000	-1.000000	-1.000000	-1.000000	65.000000	0.000000	-1.000000	-1.000000	751536.000000	1775723107.852652
92611.215000	8523.855000	80899.425000	51252.120000	30898.035000	28655.010000	70243.290000	86323.905000	0.679097	-3.480778	-3.937272	-5.477258	-8.384567	-8.484467	1.784699	3.336825	-2.777320	5.081580	-1.388660	-0.640257	0.028809	0.757200	-1.000000	-1.000000	-1.000000	-1.000000	-1.000000	-1.000000	-1.000000	65.000000	0.000000	-1.000000	-1.000000	751537.000000	1775723107.852664
92611.440000	8532.855000	80909.010000	51263.325000	30905.415000	28663.650000	70244.730000	86324.805000	2.668127	-1.048453	-1.785419	-2.426487	-5.754249	-9.242367	1.309955	3.095864	-2.777320	5.081580	-1.388660	-0.640257	0.028809	0.757200	-1.000000	-1.000000	-1.000000	-1.000000	-1.000000	-1.000000	-1.000000	65.000000	0.000000	-1.000000	-1.000000	751538.000000	1775723107.852669
92604.555000	8529.345000	80906.760000	51265.305000	30903.030000	28651.860000	70231.005000	86322.285000	4.139460	2.998561	2.391269	2.544230	-0.442915	-4.048147	1.095598	2.038334	-2.777320	5.081580	-1.388660	-0.640257	0.028809	0.757200	-1.000000	-1.000000	-1.000000	-1.000000	-1.000000	-1.000000	-1.000000	65.000000	0.000000	-1.000000	-1.000000	751539.000000	1775723107.852675
92611.980000	8533.620000	80908.920000	51271.155000	30906.585000	28644.345000	70228.845000	86324.670000	2.738684	4.846126	4.817621	5.708041	3.648465	1.370145	-0.628041	-0.370208	-2.777320	5.081580	-1.388660	-0.640257	0.028809	0.757200	-1.000000	-1.000000	-1.000000	-1.000000	-1.000000	-1.000000	-1.000000	65.000000	0.000000	-1.000000	-1.000000	751540.000000	1775723107.852679
92610.630000	8530.380000	80903.250000	51267.555000	30902.670000	28623.870000	70228.395000	86321.430000	-0.873567	2.838811	3.424683	4.982376	4.261097	2.168061	-3.894497	-3.293722	-0.595140	3.921820	-1.358140	-0.642271	0.023071	0.755064	-1.000000	-1.000000	-1.000000	-1.000000	-1.000000	-1.000000	-1.000000	65.000000	0.000000	-1.000000	-1.000000	751541.000000	1775723107.852686
92609.010000	8528.535000	80897.805000	51262.650000	30898.305000	28611.495000	70225.515000	86314.455000	-4.320040	-1.697581	-1.041630	0.767636	1.736363	-1.797846	-6.421542	-5.494923	-0.595140	3.921820	-1.358140	-0.642271	0.023071	0.755064	-1.000000	-1.000000	-1.000000	-1.000000	-1.000000	-1.000000	-1.000000	65.000000	0.000000	-1.000000	-1.000000	751542.000000	1775723107.852690
92607.525000	8531.460000	80900.460000	51269.850000	30912.255000	28642.140000	70231.545000	86308.965000	-6.021944	-6.032563	-5.945234	-4.579599	-1.725001	-6.127933	-6.163813	-6.381733	-0.595140	3.921820	-1.358140	-0.642271	0.023071	0.755064	-1.000000	-1.000000	-1.000000	-1.000000	-1.000000	-1.000000	-1.000000	65.000000	0.000000	-1.000000	-1.000000	751543.000000	1775723107.852695
92606.220000	8530.155000	80896.950000	51267.330000	30917.610000	28687.185000	70243.785000	86314.815000	-5.689573	-7.797868	-8.412351	-7.957936	-3.290758	-4.461850	-2.743314	-5.655899	-0.595140	3.921820	-1.358140	-0.642271	0.023071	0.755064	-1.000000	-1.000000	-1.000000	-1.000000	-1.000000	-1.000000	-1.000000	65.000000	0.000000	-1.000000	-1.000000	751544.000000	1775723107.852700
92609.685000	8537.760000	80903.295000	51274.845000	30925.575000	28682.685000	70251.300000	86324.760000	-3.705912	-6.201501	-7.099802	-7.576098	-1.743748	5.008189	2.641245	-2.814743	-0.595140	3.921820	-1.358140	-0.642271	0.023071	0.755064	-1.000000	-1.000000	-1.000000	-1.000000	-1.000000	-1.000000	-1.000000	65.000000	0.000000	-1.000000	-1.000000	751545.000000	1775723107.852705
92614.050000	8545.005000	80910.135000	51284.520000	30939.480000	28705.005000	70255.260000	86334.750000	-0.690844	-2.063502	-2.680552	-3.820504	1.610136	15.595466	7.435248	2.002366	-0.595140	3.921820	-1.358140	-0.642271	0.023071	0.755064	-1.000000	-1.000000	-1.000000	-1.000000	-1.000000	-1.000000	-1.000000	65.000000	0.000000	-1.000000	-1.000000	751546.000000	1775723107.852710
92598.255000	8540.685000	80887.230000	51268.770000	30922.695000	28682.910000	70237.485000	86326.965000	2.187069	2.664441	2.388191	1.127291	4.168042	18.304540	8.594803	6.794199	-0.595140	3.921820	-1.358140	-0.642271	0.023071	0.755064	-1.000000	-1.000000	-1.000000	-1.000000	-1.000000	-1.000000	-1.000000	65.000000	0.000000	-1.000000	-1.000000	751547.000000	1775723107.852715
92597.580000	8528.535000	80872.965000	51255.585000	30904.605000	28650.555000	70231.230000	86326.830000	3.241114	5.285155	4.543671	3.876059	3.131788	9.286034	4.506218	8.451389	-0.595140	3.921820	-1.358140	-0.642271	0.023071	0.755064	-1.000000	-1.000000	-1.000000	-1.000000	-1.000000	-1.000000	-1.000000	65.000000	0.000000	-1.000000	-1.000000	751548.000000	1775723107.852720
92582.325000	8522.460000	80859.780000	51248.205000	30897.810000	28637.010000	70222.005000	86308.560000	1.859149	4.031627	2.178658	2.473400	-2.172167	-8.073040	-3.041073	5.366925	-0.595140	3.921820	-1.358140	-0.642271	0.023071	0.755064	-1.000000	-1.000000	-1.000000	-1.000000	-1.000000	-1.000000	-1.000000	65.000000	0.000000	-1.000000	-1.000000	751549.000000	1775723107.852725
92572.380000	8521.155000	80852.805000	51245.505000	30898.305000	28638.045000	70217.280000	86299.470000	-0.886868	0.042821	-2.283619	-1.249073	-8.251170	-24.073144	-9.594846	-1.211144	-0.595140	3.921820	-1.358140	-0.642271	0.023071	0.755064	-1.000000	-1.000000	-1.000000	-1.000000	-1.000000	-1.000000	-1.000000	65.000000	0.000000	-1.000000	-1.000000	751550.000000	1775723107.852729
92573.100000	8521.875000	80854.650000	51250.320000	30910.905000	28628.010000	70216.740000	86300.595000	-3.109585	-3.376350	-4.671469	-3.449803	-9.906849	-28.802584	-11.354168	-7.711687	0.747740	2.655240	1.129240	-0.641905	0.021057	0.753355	-1.000000	-1.000000	-1.000000	-1.000000	-1.000000	-1.000000	-1.000000	65.000000	0.000000	-1.000000	-1.000000	751551.000000	1775723107.852734
92597.265000	8527.905000	80877.285000	51266.880000	30922.920000	28627.785000	70234.425000	86322.060000	-2.486692	-3.603381	-2.192169	-1.563837	-4.774885	-19.846852	-7.172203	-9.696180	0.747740	2.655240	1.129240	-0.641905	0.021057	0.753355	-1.000000	-1.000000	-1.000000	-1.000000	-1.000000	-1.000000	-1.000000	65.000000	0.000000	-1.000000	-1.000000	751552.000000	1775723107.852739
92607.885000	8530.200000	80886.600000	51274.395000	30928.005000	28638.585000	70246.125000	86331.870000	2.296617	-0.531196	4.885679	3.978273	4.609403	-2.677028	1.443345	-4.871217	0.747740	2.655240	1.129240	-0.641905	0.021057	0.753355	-1.000000	-1.000000	-1.000000	-1.000000	-1.000000	-1.000000	-1.000000	65.000000	0.000000	-1.000000	-1.000000	751553.000000	1775723107.852744
92606.985000	8529.435000	80884.575000	51273.360000	30928.770000	28659.825000	70248.105000	86332.275000	8.917126	3.630186	12.494950	9.684716	12.517752	14.895824	10.518435	4.062533	0.747740	2.655240	1.129240	-0.641905	0.021057	0.753355	-1.000000	-1.000000	-1.000000	-1.000000	-1.000000	-1.000000	-1.000000	65.000000	0.000000	-1.000000	-1.000000	751554.000000	1775723107.852749
92601.180000	8524.125000	80877.960000	51270.165000	30929.715000	28677.150000	70247.835000	86329.665000	12.126535	5.963711	14.889224	11.190357	14.220524	26.844065	15.036879	10.853278	0.747740	2.655240	1.129240	-0.641905	0.021057	0.753355	-1.000000	-1.000000	-1.000000	-1.000000	-1.000000	-1.000000	-1.000000	65.000000	0.000000	-1.000000	-1.000000	751555.000000	1775723107.852754
92600.145000	8523.585000	80877.465000	51273.450000	30930.435000	28659.555000	70245.540000	86327.910000	8.602715	4.937612	9.482067	6.902011	9.163688	29.271668	12.299627	10.954546	0.747740	2.655240	1.129240	-0.641905	0.021057	0.753355	-1.000000	-1.000000	-1.000000	-1.000000	-1.000000	-1.000000	-1.000000	65.000000	0.000000	-1.000000	-1.000000	751556.000000	1775723107.852758
92603.295000	8529.840000	80882.775000	51280.605000	30935.295000	28657.350000	70243.605000	86328.585000	0.197547	1.569937	-0.678952	-0.541245	0.714378	20.595482	3.919203	4.897578	0.747740	2.655240	1.129240	-0.641905	0.021057	0.753355	-1.000000	-1.000000	-1.000000	-1.000000	-1.000000	-1.000000	-1.000000	65.000000	0.000000	-1.000000	-1.000000	751557.000000	1775723107.852764
92606.085000	8534.610000	80887.095000	51286.905000	30940.785000	28661.220000	70246.260000	86328.945000	-7.929678	-1.526302	-9.576908	-6.652247	-6.522798	4.143045	-5.520773	-3.044071	0.747740	2.655240	1.129240	-0.641905	0.021057	0.753355	-1.000000	-1.000000	-1.000000	-1.000000	-1.000000	-1.000000	-1.000000	65.000000	0.000000	-1.000000	-1.000000	751558.000000	1775723107.852768
92604.915000	8531.730000	80883.000000	51283.845000	30936.555000	28655.460000	70248.420000	86328.045000	-11.650668	-2.648138	-13.088020	-8.796391	-9.688369	-12.165959	-11.434802	-8.494921	0.747740	2.655240	1.129240	-0.641905	0.021057	0.753355	-1.000000	-1.000000	-1.000000	-1.000000	-1.000000	-1.000000	-1.000000	65.000000	0.000000	-1.000000	-1.000000	751559.000000	1775723107.852774
92603.295000	8527.590000	80876.070000	51279.255000	30931.380000	28646.820000	70248.645000	86329.080000	-10.344634	-2.330656	-11.389473	-7.639574	-9.033809	-21.536279	-11.784025	-9.510749	0.747740	2.655240	1.129240	-0.641905	0.021057	0.753355	-1.000000	-1.000000	-1.000000	-1.000000	-1.000000	-1.000000	-1.000000	65.000000	0.000000	-1.000000	-1.000000	751560.000000	1775723107.852778
92598.930000	8521.110000	80866.620000	51271.560000	30923.280000	28636.965000	70247.655000	86326.920000	-6.116003	-2.096609	-7.369143	-5.471787	-6.649091	-22.225475	-7.740738	-6.766388	-0.747740	1.342880	0.885080	-0.642515	0.026306	0.752928	-1.000000	-1.000000	-1.000000	-1.000000	-1.000000	-1.000000	-1.000000	65.000000	0.000000	-1.000000	-1.000000	751561.000000	1775723107.852784
92598.255000	8518.590000	80863.335000	51269.670000	30918.780000	28633.860000	70245.585000	86321.610000	-1.573168	-2.578310	-3.558982	-3.762455	-4.208404	-16.324776	-2.239710	-2.467083	-0.747740	1.342880	0.885080	-0.642515	0.026306	0.752928	-1.000000	-1.000000	-1.000000	-1.000000	-1.000000	-1.000000	-1.000000	65.000000	0.000000	-1.000000	-1.000000	751562.000000	1775723107.852788
92601.495000	8521.560000	80865.900000	51275.385000	30923.910000	28639.575000	70244.145000	86321.790000	1.838728	-2.985275	-0.518100	-2.206352	-1.880112	-6.934419	2.092048	1.151920	-0.747740	1.342880	0.885080	-0.642515	0.026306	0.752928	-1.000000	-1.000000	-1.000000	-1.000000	-1.000000	-1.000000	-1.000000	65.000000	0.000000	-1.000000	-1.000000	751563.000000	1775723107.852794
92606.625000	8528.130000	80871.705000	51283.305000	30933.990000	28657.080000	70242.885000	86322.060000	4.061650	-1.994006	2.518069	0.357541	1.202622	3.441865	4.116422	3.144292	-0.747740	1.342880	0.885080	-0.642515	0.026306	0.752928	-1.000000	-1.000000	-1.000000	-1.000000	-1.000000	-1.000000	-1.000000	65.000000	0.000000	-1.000000	-1.000000	751564.000000	1775723107.852798
92613.150000	8536.410000	80877.825000	51289.110000	30934.080000	28661.445000	70246.710000	86327.955000	5.492522	0.850478	5.902469	4.126310	5.206392	12.577632	4.206296	3.920724	-0.747740	1.342880	0.885080	-0.642515	0.026306	0.752928	-1.000000	-1.000000	-1.000000	-1.000000	-1.000000	-1.000000	-1.000000	65.000000	0.000000	-1.000000	-1.000000	751565.000000	1775723107.852803
92619.360000	8542.440000	80882.145000	51292.035000	30935.835000	28653.255000	70254.855000	86337.630000	6.162224	4.461695	8.696465	7.556703	8.447633	17.453369	3.600925	4.353481	-0.747740	1.342880	0.885080	-0.642515	0.026306	0.752928	-1.000000	-1.000000	-1.000000	-1.000000	-1.000000	-1.000000	-1.000000	65.000000	0.000000	-1.000000	-1.000000	751566.000000	1775723107.852808
92614.770000	8539.020000	80878.185000	51297.345000	30957.660000	28653.435000	70254.135000	86334.075000	5.550308	6.698663	9.228930	8.604851	9.173359	15.462419	3.258219	4.695797	-0.747740	1.342880	0.885080	-0.642515	0.026306	0.752928	-1.000000	-1.000000	-1.000000	-1.000000	-1.000000	-1.000000	-1.000000	65.000000	0.000000	-1.000000	-1.000000	751567.000000	1775723107.852813
92606.625000	8532.270000	80873.145000	51297.030000	30960.135000	28651.185000	70248.510000	86329.260000	2.909896	5.639516	6.363353	6.469218	7.572516	7.412870	2.807121	3.996706	-0.747740	1.342880	0.885080	-0.642515	0.026306	0.752928	-1.000000	-1.000000	-1.000000	-1.000000	-1.000000	-1.000000	-1.000000	65.000000	0.000000	-1.000000	-1.000000	751568.000000	1775723107.852818
92605.410000	8530.020000	80869.500000	51293.115000	30953.205000	28643.940000	70242.930000	86332.410000	-1.567820	1.203347	0.720815	1.916455	4.284949	-2.536020	1.153198	1.426802	-0.747740	1.342880	0.885080	-0.642515	0.026306	0.752928	-1.000000	-1.000000	-1.000000	-1.000000	-1.000000	-1.000000	-1.000000	65.000000	0.000000	-1.000000	-1.000000	751569.000000	1775723107.852823
92604.105000	8525.115000	80864.280000	51289.200000	30946.995000	28640.250000	70241.625000	86328.720000	-5.918746	-4.334486	-5.283562	-3.417065	-0.856190	-10.062626	-1.718204	-2.098297	-0.747740	1.342880	0.885080	-0.642515	0.026306	0.752928	-1.000000	-1.000000	-1.000000	-1.000000	-1.000000	-1.000000	-1.000000	65.000000	0.000000	-1.000000	-1.000000	751570.000000	1775723107.852828
92617.245000	8536.995000	80873.235000	51296.175000	30948.435000	28643.760000	70260.210000	86330.385000	-7.469762	-7.727119	-8.761117	-7.424903	-6.919911	-12.664204	-3.924955	-4.728626	-3.036740	0.640920	1.968540	-0.641722	0.027771	0.753965	-1.000000	-1.000000	-1.000000	-1.000000	-1.000000	-1.000000	-1.000000	65.000000	0.000000	-1.000000	-1.000000	751571.000000	1775723107.852833
92619.720000	8546.805000	80880.255000	51302.835000	30954.735000	28625.940000	70259.265000	86326.470000	-4.928292	-6.700183	-7.844683	-8.093681	-10.986517	-10.285483	-3.284875	-5.350509	-3.036740	0.640920	1.968540	-0.641722	0.027771	0.753965	-1.000000	-1.000000	-1.000000	-1.000000	-1.000000	-1.000000	-1.000000	65.000000	0.000000	-1.000000	-1.000000	751572.000000	1775723107.852838
92617.155000	8550.855000	80883.045000	51308.595000	30969.135000	28641.060000	70263.315000	86330.430000	0.132973	-1.655541	-3.033459	-4.947875	-10.271726	-5.011214	-0.121539	-4.010217	-3.036740	0.640920	1.968540	-0.641722	0.027771	0.753965	-1.000000	-1.000000	-1.000000	-1.000000	-1.000000	-1.000000	-1.000000	65.000000	0.000000	-1.000000	-1.000000	751573.000000	1775723107.852843
92614.050000	8552.295000	80882.460000	51312.645000	30978.495000	28682.235000	70269.075000	86339.835000	4.188587	4.125576	2.655824	0.177598	-4.595845	1.754029	2.959860	-1.284793	-3.036740	0.640920	1.968540	-0.641722	0.027771	0.753965	-1.000000	-1.000000	-1.000000	-1.000000	-1.000000	-1.000000	-1.000000	65.000000	0.000000	-1.000000	-1.000000	751574.000000	1775723107.852847
92606.715000	8540.775000	80870.940000	51304.185000	30974.535000	28717.335000	70267.860000	86342.535000	4.726702	6.754993	5.640842	4.201142	2.876461	10.212999	3.914068	2.079748	-3.036740	0.640920	1.968540	-0.641722	0.027771	0.753965	-1.000000	-1.000000	-1.000000	-1.000000	-1.000000	-1.000000	-1.000000	65.000000	0.000000	-1.000000	-1.000000	751575.000000	1775723107.868174
92607.885000	8530.830000	80861.625000	51292.440000	30954.195000	28665.315000	70257.780000	86344.470000	2.045878	4.399892	4.146519	4.598777	7.183254	17.138013	2.200689	4.761653	-3.036740	0.640920	1.968540	-0.641722	0.027771	0.753965	-1.000000	-1.000000	-1.000000	-1.000000	-1.000000	-1.000000	-1.000000	65.000000	0.000000	-1.000000	-1.000000	751576.000000	1775723107.868196
92610.450000	8528.400000	80856.720000	51286.365000	30938.805000	28603.035000	70254.495000	86341.770000	-1.340374	-1.402640	-0.577236	1.148003	5.095438	13.948711	-1.564033	5.236747	-3.036740	0.640920	1.968540	-0.641722	0.027771	0.753965	-1.000000	-1.000000	-1.000000	-1.000000	-1.000000	-1.000000	-1.000000	65.000000	0.000000	-1.000000	-1.000000	751577.000000	1775723107.868217
92607.480000	8530.470000	80859.285000	51292.035000	30952.395000	28628.775000	70262.370000	86337.630000	-2.930283	-6.557237	-4.971317	-3.382497	-1.435898	-2.353433	-5.269637	2.988450	-3.036740	0.640920	1.968540	-0.641722	0.027771	0.753965	-1.000000	-1.000000	-1.000000	-1.000000	-1.000000	-1.000000	-1.000000	65.000000	0.000000	-1.000000	-1.000000	751578.000000	1775723107.868226
92602.755000	8526.555000	80856.270000	51294.645000	30974.220000	28695.555000	70268.445000	86338.080000	-2.293846	-7.577333	-5.866423	-5.182004	-5.929258	-19.111770	-6.112852	-0.905616	-3.036740	0.640920	1.968540	-0.641722	0.027771	0.753965	-1.000000	-1.000000	-1.000000	-1.000000	-1.000000	-1.000000	-1.000000	65.000000	0.000000	-1.000000	-1.000000	751579.000000	1775723107.868238
92607.885000	8530.560000	80859.960000	51299.460000	30978.090000	28692.180000	70265.520000	86340.420000	-0.612833	-4.181421	-2.847542	-2.706748	-3.586697	-20.034643	-3.254551	-4.247116	-3.036740	0.640920	1.968540	-0.641722	0.027771	0.753965	-1.000000	-1.000000	-1.000000	-1.000000	-1.000000	-1.000000	-1.000000	65.000000	0.000000	-1.000000	-1.000000	751580.000000	1775723107.868247
92613.105000	8534.205000	80863.560000	51303.645000	30975.030000	28678.365000	70262.370000	86337.765000	1.219778	1.354553	2.064208	2.280849	3.439550	-5.444703	1.045673	-5.234825	-3.784480	1.129240	3.296160	-0.640318	0.026855	0.755918	-1.000000	-1.000000	-1.000000	-1.000000	-1.000000	-1.000000	-1.000000	65.000000	0.000000	-1.000000	-1.000000	751581.000000	1775723107.873157
92610.495000	8535.330000	80864.685000	51309.045000	30979.980000	28673.595000	70264.260000	86333.220000	2.810382	6.231046	6.243844	6.632252	8.810001	9.706314	3.808738	-3.876208	-3.784480	1.129240	3.296160	-0.640318	0.026855	0.755918	-1.000000	-1.000000	-1.000000	-1.000000	-1.000000	-1.000000	-1.000000	65.000000	0.000000	-1.000000	-1.000000	751582.000000	1775723107.873174
92608.785000	8537.490000	80864.865000	51311.430000	30984.750000	28673.910000	70265.880000	86332.140000	3.390375	8.371885	7.742916	8.070433	8.749399	14.044781	4.053985	-1.567104	-3.784480	1.129240	3.296160	-0.640318	0.026855	0.755918	-1.000000	-1.000000	-1.000000	-1.000000	-1.000000	-1.000000	-1.000000	65.000000	0.000000	-1.000000	-1.000000	751583.000000	1775723107.873195
92616.255000	8540.505000	80864.280000	51310.755000	30985.245000	28669.860000	70270.470000	86344.155000	2.480623	7.199327	6.010834	6.062839	4.231248	7.973484	2.795319	0.710130	-3.784480	1.129240	3.296160	-0.640318	0.026855	0.755918	-1.000000	-1.000000	-1.000000	-1.000000	-1.000000	-1.000000	-1.000000	65.000000	0.000000	-1.000000	-1.000000	751584.000000	1775723107.873204
92620.980000	8538.525000	80860.230000	51307.335000	30981.465000	28664.730000	70271.730000	86348.295000	0.899596	3.664289	1.996555	1.563670	-1.711716	-1.646626	1.406918	3.010465	-3.784480	1.129240	3.296160	-0.640318	0.026855	0.755918	-1.000000	-1.000000	-1.000000	-1.000000	-1.000000	-1.000000	-1.000000	65.000000	0.000000	-1.000000	-1.000000	751585.000000	1775723107.885466
92615.670000	8533.305000	80854.290000	51300.720000	30970.710000	28659.060000	70268.895000	86343.210000	-0.339755	-0.740650	-2.603631	-3.659376	-6.690761	-8.580502	0.403625	4.922387	-3.784480	1.129240	3.296160	-0.640318	0.026855	0.755918	-1.000000	-1.000000	-1.000000	-1.000000	-1.000000	-1.000000	-1.000000	65.000000	0.000000	-1.000000	-1.000000	751586.000000	1775723107.885486
92612.160000	8531.550000	80850.420000	51297.120000	30960.810000	28653.255000	70268.580000	86341.005000	-1.387685	-4.673942	-6.150391	-7.704290	-9.620907	-10.207721	-0.521463	4.959422	-3.784480	1.129240	3.296160	-0.640318	0.026855	0.755918	-1.000000	-1.000000	-1.000000	-1.000000	-1.000000	-1.000000	-1.000000	65.000000	0.000000	-1.000000	-1.000000	751587.000000	1775723107.885507
92612.700000	8536.185000	80851.725000	51300.090000	30962.565000	28645.695000	70268.355000	86342.310000	-2.649993	-6.810852	-7.377563	-8.976361	-9.912340	-7.251299	-1.532463	2.501216	-3.784480	1.129240	3.296160	-0.640318	0.026855	0.755918	-1.000000	-1.000000	-1.000000	-1.000000	-1.000000	-1.000000	-1.000000	65.000000	0.000000	-1.000000	-1.000000	751588.000000	1775723107.885517
92617.470000	8544.195000	80859.195000	51311.340000	30976.920000	28638.900000	70259.085000	86341.680000	-3.483905	-6.038799	-5.606618	-6.563060	-6.725713	-2.188357	-2.390377	-1.040139	-3.784480	1.129240	3.296160	-0.640318	0.026855	0.755918	-1.000000	-1.000000	-1.000000	-1.000000	-1.000000	-1.000000	-1.000000	65.000000	0.000000	-1.000000	-1.000000	751589.000000	1775723107.885528
92614.500000	8541.585000	80857.305000	51317.055000	30992.310000	28662.480000	70271.055000	86340.735000	-2.941527	-2.596487	-1.384205	-0.992419	0.149268	3.024731	-2.699817	-3.649762	-3.784480	1.129240	3.296160	-0.640318	0.026855	0.755918	-1.000000	-1.000000	-1.000000	-1.000000	-1.000000	-1.000000	-1.000000	65.000000	0.000000	-1.000000	-1.000000	751590.000000	1775723107.885536
92611.710000	8538.615000	80852.670000	51315.345000	30992.220000	28669.275000	70278.120000	86341.680000	-1.258428	1.354840	3.080916	5.160435	8.435275	8.016411	-1.660310	-4.300930	-1.938020	1.541260	2.365300	-0.640501	0.027039	0.756529	-1.000000	-1.000000	-1.000000	-1.000000	-1.000000	-1.000000	-1.000000	65.000000	0.000000	-1.000000	-1.000000	751591.000000	1775723107.888670
92613.465000	8542.935000	80853.120000	51316.380000	30988.530000	28661.400000	70274.115000	86342.580000	0.433539	3.456508	5.273155	8.482404	13.536550	11.746118	0.876019	-3.127974	-1.938020	1.541260	2.365300	-0.640501	0.027039	0.756529	-1.000000	-1.000000	-1.000000	-1.000000	-1.000000	-1.000000	-1.000000	65.000000	0.000000	-1.000000	-1.000000	751592.000000	1775723107.888686
92614.410000	8544.600000	80853.660000	51316.245000	30986.595000	28656.405000	70273.620000	86343.030000	1.498255	3.279460	4.539011	7.362113	12.024208	11.400581	3.187530	-0.972197	-1.938020	1.541260	2.365300	-0.640501	0.027039	0.756529	-1.000000	-1.000000	-1.000000	-1.000000	-1.000000	-1.000000	-1.000000	65.000000	0.000000	-1.000000	-1.000000	751593.000000	1775723107.894492
92614.185000	8543.295000	80851.230000	51315.210000	30985.965000	28655.820000	70273.215000	86342.670000	1.987374	1.894594	2.145885	3.003919	4.792393	5.834858	3.409799	1.079367	-1.938020	1.541260	2.365300	-0.640501	0.027039	0.756529	-1.000000	-1.000000	-1.000000	-1.000000	-1.000000	-1.000000	-1.000000	65.000000	0.000000	-1.000000	-1.000000	751594.000000	1775723107.894508
92615.355000	8541.945000	80848.080000	51314.895000	30987.135000	28657.170000	70275.240000	86344.110000	2.012422	0.257016	-0.382154	-1.966607	-3.799991	-2.155701	1.608445	2.221233	-1.938020	1.541260	2.365300	-0.640501	0.027039	0.756529	-1.000000	-1.000000	-1.000000	-1.000000	-1.000000	-1.000000	-1.000000	65.000000	0.000000	-1.000000	-1.000000	751595.000000	1775723107.899705
92612.205000	8539.605000	80845.785000	51313.095000	30987.765000	28655.505000	70274.970000	86341.770000	1.569127	-1.182548	-2.178367	-5.287629	-9.346953	-8.262320	-0.710454	2.238940	-1.938020	1.541260	2.365300	-0.640501	0.027039	0.756529	-1.000000	-1.000000	-1.000000	-1.000000	-1.000000	-1.000000	-1.000000	65.000000	0.000000	-1.000000	-1.000000	751596.000000	1775723107.899723
92609.865000	8538.300000	80844.210000	51313.770000	30991.185000	28655.010000	70274.655000	86340.960000	0.636360	-2.126088	-2.883576	-5.982720	-9.922653	-10.047268	-2.200088	1.361749	-1.938020	1.541260	2.365300	-0.640501	0.027039	0.756529	-1.000000	-1.000000	-1.000000	-1.000000	-1.000000	-1.000000	-1.000000	65.000000	0.000000	-1.000000	-1.000000	751597.000000	1775723107.899743
92610.810000	8540.325000	80846.190000	51316.695000	30991.455000	28651.050000	70277.220000	86343.300000	-0.552639	-2.260180	-2.400360	-4.297460	-6.406276	-7.899428	-2.409835	0.138836	-1.938020	1.541260	2.365300	-0.640501	0.027039	0.756529	-1.000000	-1.000000	-1.000000	-1.000000	-1.000000	-1.000000	-1.000000	65.000000	0.000000	-1.000000	-1.000000	751598.000000	1775723107.899752
92608.110000	8542.260000	80843.265000	51314.625000	30982.275000	28637.730000	70275.960000	86341.455000	-1.420472	-1.374026	-0.972959	-1.280044	-1.505059	-4.072067	-1.585098	-0.736473	-1.938020	1.541260	2.365300	-0.640501	0.027039	0.756529	-1.000000	-1.000000	-1.000000	-1.000000	-1.000000	-1.000000	-1.000000	65.000000	0.000000	-1.000000	-1.000000	751599.000000	1775723107.972656
92602.080000	8542.530000	80837.595000	51311.745000	30980.295000	28618.020000	70269.750000	86335.155000	-1.662772	0.265861	0.577597	1.531485	1.913649	-1.256301	-0.490934	-1.075231	-1.938020	1.541260	2.365300	-0.640501	0.027039	0.756529	-1.000000	-1.000000	-1.000000	-1.000000	-1.000000	-1.000000	-1.000000	65.000000	0.000000	-1.000000	-1.000000	751600.000000	1775723107.972675
92603.745000	8543.160000	80838.945000	51318.720000	31000.905000	28635.210000	70271.190000	86336.325000	-1.460555	1.831765	1.340021	3.006500	3.175512	-0.310454	0.048900	-1.223628	-0.015260	2.701020	0.793520	-0.638853	0.027222	0.757444	-1.000000	-1.000000	-1.000000	-1.000000	-1.000000	-1.000000	-1.000000	65.000000	0.000000	-1.000000	-1.000000	751601.000000	1775723107.972696
92612.385000	8545.185000	80844.120000	51324.165000	31000.995000	28648.215000	70276.545000	86343.750000	-0.694032	2.539677	1.369582	3.329802	3.939097	1.049152	0.132107	-1.060170	-0.015260	2.701020	0.793520	-0.638853	0.027222	0.757444	-1.000000	-1.000000	-1.000000	-1.000000	-1.000000	-1.000000	-1.000000	65.000000	0.000000	-1.000000	-1.000000	751602.000000	1775723107.972706
92611.800000	8542.305000	80843.085000	51331.770000	31018.185000	28670.895000	70276.680000	86344.830000	0.949871	2.154844	1.427598	3.337491	5.220007	5.245395	0.559178	-0.008178	-0.015260	2.701020	0.793520	-0.638853	0.027222	0.757444	-1.000000	-1.000000	-1.000000	-1.000000	-1.000000	-1.000000	-1.000000	65.000000	0.000000	-1.000000	-1.000000	751603.000000	1775723107.972762
92614.500000	8542.710000	80842.770000	51333.750000	31012.200000	28651.635000	70271.730000	86346.990000	2.832756	0.903262	1.643650	3.234079	5.994373	10.571451	1.347597	1.677670	-0.015260	2.701020	0.793520	-0.638853	0.027222	0.757444	-1.000000	-1.000000	-1.000000	-1.000000	-1.000000	-1.000000	-1.000000	65.000000	0.000000	-1.000000	-1.000000	751604.000000	1775723107.972771
92607.480000	8534.205000	80830.305000	51317.820000	30984.840000	28617.930000	70266.105000	86335.335000	3.508140	-0.779792	1.229733	2.146323	4.048501	11.316846	1.485549	2.603798	-0.015260	2.701020	0.793520	-0.638853	0.027222	0.757444	-1.000000	-1.000000	-1.000000	-1.000000	-1.000000	-1.000000	-1.000000	65.000000	0.000000	-1.000000	-1.000000	751605.000000	1775723107.972784
92601.855000	8531.235000	80825.715000	51316.695000	30990.645000	28631.655000	70267.635000	86321.250000	2.024014	-2.434265	-0.504344	-0.885430	-1.740148	4.140942	0.444411	1.299271	-0.015260	2.701020	0.793520	-0.638853	0.027222	0.757444	-1.000000	-1.000000	-1.000000	-1.000000	-1.000000	-1.000000	-1.000000	65.000000	0.000000	-1.000000	-1.000000	751606.000000	1775723107.972792
92596.410000	8531.415000	80827.065000	51323.715000	31014.360000	28696.410000	70274.295000	86317.695000	-1.163292	-3.416197	-2.857010	-4.733837	-7.990097	-5.144408	-0.792641	-2.149821	-0.015260	2.701020	0.793520	-0.638853	0.027222	0.757444	-1.000000	-1.000000	-1.000000	-1.000000	-1.000000	-1.000000	-1.000000	65.000000	0.000000	-1.000000	-1.000000	751607.000000	1775723107.972803
92598.975000	8539.875000	80836.695000	51333.930000	31026.555000	28694.745000	70279.110000	86327.370000	-4.186962	-2.798116	-3.745980	-6.283308	-8.862230	-6.874796	-0.737075	-5.167436	-0.015260	2.701020	0.793520	-0.638853	0.027222	0.757444	-1.000000	-1.000000	-1.000000	-1.000000	-1.000000	-1.000000	-1.000000	65.000000	0.000000	-1.000000	-1.000000	751608.000000	1775723107.972812
92606.445000	8547.795000	80843.670000	51339.330000	31028.715000	28685.430000	70285.410000	86340.780000	-4.848525	-0.117448	-1.676077	-3.770017	-3.133370	-0.739599	0.869744	-4.445398	-0.015260	2.701020	0.793520	-0.638853	0.027222	0.757444	-1.000000	-1.000000	-1.000000	-1.000000	-1.000000	-1.000000	-1.000000	65.000000	0.000000	-1.000000	-1.000000	751609.000000	1775723107.972822
92610.360000	8550.045000	80839.845000	51335.100000	31020.570000	28675.305000	70286.490000	86347.485000	-2.305221	3.623446	2.311179	1.042141	4.083243	4.127893	2.768700	0.647868	-0.015260	2.701020	0.793520	-0.638853	0.027222	0.757444	-1.000000	-1.000000	-1.000000	-1.000000	-1.000000	-1.000000	-1.000000	65.000000	0.000000	-1.000000	-1.000000	751610.000000	1775723107.972830
92596.185000	8550.630000	80815.950000	51320.520000	31010.310000	28670.850000	70271.640000	86334.885000	1.684947	6.144955	4.767016	4.237972	6.726915	1.486331	3.046201	6.632431	1.770160	3.204600	0.869820	-0.638975	0.029175	0.758177	-1.000000	-1.000000	-1.000000	-1.000000	-1.000000	-1.000000	-1.000000	65.000000	0.000000	-1.000000	-1.000000	751611.000000	1775723107.972840
92581.290000	8545.995000	80800.560000	51312.555000	31004.055000	28657.125000	70262.955000	86320.755000	3.637270	5.546157	2.620501	3.144680	3.112167	-6.459022	0.402106	8.400868	1.770160	3.204600	0.869820	-0.638975	0.029175	0.758177	-1.000000	-1.000000	-1.000000	-1.000000	-1.000000	-1.000000	-1.000000	65.000000	0.000000	-1.000000	-1.000000	751612.000000	1775723107.972848
92587.365000	8547.615000	80804.430000	51318.945000	31010.805000	28656.045000	70269.615000	86329.260000	1.911542	1.888465	-3.094663	-1.015844	-3.250739	-13.448424	-4.003672	4.195840	1.770160	3.204600	0.869820	-0.638975	0.029175	0.758177	-1.000000	-1.000000	-1.000000	-1.000000	-1.000000	-1.000000	-1.000000	65.000000	0.000000	-1.000000	-1.000000	751613.000000	1775723107.972858
92605.770000	8547.660000	80820.720000	51330.330000	31021.425000	28663.425000	70285.005000	86343.930000	-0.846757	-2.736779	-7.086691	-3.986798	-6.891455	-14.374120	-6.437104	-2.082065	1.770160	3.204600	0.869820	-0.638975	0.029175	0.758177	-1.000000	-1.000000	-1.000000	-1.000000	-1.000000	-1.000000	-1.000000	65.000000	0.000000	-1.000000	-1.000000	751614.000000	1775723107.972865
92613.285000	8545.635000	80827.020000	51330.285000	31017.060000	28666.485000	70289.955000	86350.095000	-0.678105	-5.829974	-4.904493	-2.741425	-5.077911	-7.943920	-4.092756	-4.985387	1.770160	3.204600	0.869820	-0.638975	0.029175	0.758177	-1.000000	-1.000000	-1.000000	-1.000000	-1.000000	-1.000000	-1.000000	65.000000	0.000000	-1.000000	-1.000000	751615.000000	1775723107.972875
92612.205000	8544.465000	80824.905000	51328.170000	31009.275000	28661.220000	70288.965000	86349.735000	2.640323	-6.264130	2.200225	1.447043	-0.051373	2.505802	1.543685	-3.222226	1.770160	3.204600	0.869820	-0.638975	0.029175	0.758177	-1.000000	-1.000000	-1.000000	-1.000000	-1.000000	-1.000000	-1.000000	65.000000	0.000000	-1.000000	-1.000000	751616.000000	1775723107.972882
92613.510000	8546.580000	80824.500000	51331.995000	31017.195000	28661.355000	70291.800000	86351.400000	5.498240	-4.425870	8.587723	4.888621	3.965926	11.196804	6.108501	0.142979	1.770160	3.204600	0.869820	-0.638975	0.029175	0.758177	-1.000000	-1.000000	-1.000000	-1.000000	-1.000000	-1.000000	-1.000000	65.000000	0.000000	-1.000000	-1.000000	751617.000000	1775723107.972892
92611.665000	8545.680000	80823.465000	51334.245000	31028.850000	28657.395000	70290.630000	86349.240000	4.814999	-1.392223	9.762164	5.398276	5.359497	14.131017	6.613773	1.753267	1.770160	3.204600	0.869820	-0.638975	0.029175	0.758177	-1.000000	-1.000000	-1.000000	-1.000000	-1.000000	-1.000000	-1.000000	65.000000	0.000000	-1.000000	-1.000000	751618.000000	1775723107.972899
92612.340000	8548.785000	80826.120000	51337.485000	31025.340000	28651.815000	70290.045000	86349.735000	0.760094	1.614301	5.644061	3.401969	5.106459	11.104974	3.322006	0.683235	1.770160	3.204600	0.869820	-0.638975	0.029175	0.758177	-1.000000	-1.000000	-1.000000	-1.000000	-1.000000	-1.000000	-1.000000	65.000000	0.000000	-1.000000	-1.000000	751619.000000	1775723107.972909
92611.395000	8547.930000	80825.220000	51339.150000	31027.005000	28657.980000	70291.350000	86349.960000	-4.131587	3.611221	-0.601468	0.492328	3.811953	4.811274	-1.393080	-1.757027	1.770160	3.204600	0.869820	-0.638975	0.029175	0.758177	-1.000000	-1.000000	-1.000000	-1.000000	-1.000000	-1.000000	-1.000000	65.000000	0.000000	-1.000000	-1.000000	751620.000000	1775723107.972916
92605.230000	8538.930000	80816.580000	51333.840000	31025.025000	28658.430000	70290.135000	86347.485000	-7.309199	3.935612	-5.717438	-2.079275	1.365049	-1.026648	-4.923500	-3.647547	-0.946120	3.082520	-0.289940	-0.638914	0.034241	0.757261	-1.000000	-1.000000	-1.000000	-1.000000	-1.000000	-1.000000	-1.000000	65.000000	0.000000	-1.000000	-1.000000	751621.000000	1775723107.972926
92599.155000	8533.350000	80809.560000	51330.870000	31024.620000	28662.075000	70287.075000	86342.535000	-7.835453	2.298236	-8.331922	-3.922944	-1.710823	-3.925971	-5.943358	-4.009221	-0.946120	3.082520	-0.289940	-0.638914	0.034241	0.757261	-1.000000	-1.000000	-1.000000	-1.000000	-1.000000	-1.000000	-1.000000	65.000000	0.000000	-1.000000	-1.000000	751622.000000	1775723107.972933
92599.020000	8535.060000	80810.235000	51334.110000	31026.510000	28662.885000	70283.430000	86337.135000	-6.115830	-0.472847	-8.375101	-4.823751	-4.187171	-3.830382	-4.786247	-3.113479	-0.946120	3.082520	-0.289940	-0.638914	0.034241	0.757261	-1.000000	-1.000000	-1.000000	-1.000000	-1.000000	-1.000000	-1.000000	65.000000	0.000000	-1.000000	-1.000000	751623.000000	1775723107.972943
92601.630000	8538.930000	80810.910000	51337.260000	31030.785000	28666.305000	70285.275000	86335.560000	-2.783175	-2.374482	-5.923663	-4.191912	-4.881626	-2.211003	-2.509856	-1.637379	-0.946120	3.082520	-0.289940	-0.638914	0.034241	0.757261	-1.000000	-1.000000	-1.000000	-1.000000	-1.000000	-1.000000	-1.000000	65.000000	0.000000	-1.000000	-1.000000	751624.000000	1775723107.972950
92611.575000	8550.135000	80818.920000	51345.405000	31032.630000	28666.980000	70292.835000	86346.045000	1.591323	-1.760497	-1.396549	-1.746917	-3.458355	-0.613328	0.216267	0.290198	-0.946120	3.082520	-0.289940	-0.638914	0.034241	0.757261	-1.000000	-1.000000	-1.000000	-1.000000	-1.000000	-1.000000	-1.000000	65.000000	0.000000	-1.000000	-1.000000	751625.000000	1775723107.972960
92618.370000	8557.470000	80826.030000	51353.010000	31037.310000	28670.445000	70305.345000	86358.870000	6.089526	1.253626	3.963582	1.811201	-0.748711	0.139508	3.258299	3.104358	-0.946120	3.082520	-0.289940	-0.638914	0.034241	0.757261	-1.000000	-1.000000	-1.000000	-1.000000	-1.000000	-1.000000	-1.000000	65.000000	0.000000	-1.000000	-1.000000	751626.000000	1775723107.972967
92613.195000	8550.315000	80816.805000	51345.630000	31027.635000	28647.270000	70305.570000	86360.310000	9.010759	4.514299	8.015242	4.767388	1.645710	-0.390982	6.079596	6.435406	-0.946120	3.082520	-0.289940	-0.638914	0.034241	0.757261	-1.000000	-1.000000	-1.000000	-1.000000	-1.000000	-1.000000	-1.000000	65.000000	0.000000	-1.000000	-1.000000	751627.000000	1775723107.972977
92609.910000	8547.570000	80812.305000	51343.380000	31023.225000	28614.645000	70299.180000	86351.895000	8.408924	5.098879	8.389367	5.088465	2.158410	-3.063958	7.010951	8.099289	-0.946120	3.082520	-0.289940	-0.638914	0.034241	0.757261	-1.000000	-1.000000	-1.000000	-1.000000	-1.000000	-1.000000	-1.000000	65.000000	0.000000	-1.000000	-1.000000	751628.000000	1775723107.972984
92611.665000	8550.000000	80816.310000	51350.220000	31035.555000	28635.750000	70297.605000	86347.350000	4.064003	2.079760	4.695464	2.424698	0.823089	-7.171590	4.552693	5.808792	-0.946120	3.082520	-0.289940	-0.638914	0.034241	0.757261	-1.000000	-1.000000	-1.000000	-1.000000	-1.000000	-1.000000	-1.000000	65.000000	0.000000	-1.000000	-1.000000	751629.000000	1775723107.972994
92609.010000	8546.175000	80812.080000	51348.690000	31046.940000	28696.320000	70294.050000	86343.930000	-1.710136	-2.478757	-0.570212	-1.139285	-0.165407	-7.352669	-0.524287	0.005264	-0.946120	3.082520	-0.289940	-0.638914	0.034241	0.757261	-1.000000	-1.000000	-1.000000	-1.000000	-1.000000	-1.000000	-1.000000	65.000000	0.000000	-1.000000	-1.000000	751630.000000	1775723107.973002
92619.270000	8553.060000	80815.995000	51351.255000	31042.530000	28677.645000	70288.245000	86342.310000	-5.797853	-5.653988	-4.359799	-3.323882	0.796182	0.945011	-5.547958	-6.071177	-3.219860	3.280900	-0.518840	-0.639708	0.038818	0.756102	-1.000000	-1.000000	-1.000000	-1.000000	-1.000000	-1.000000	-1.000000	65.000000	0.000000	-1.000000	-1.000000	751631.000000	1775723107.973011
92621.295000	8555.040000	80815.860000	51356.205000	31052.925000	28680.750000	70295.355000	86337.495000	-6.313528	-5.764433	-5.230277	-3.380049	2.572048	12.488979	-7.961313	-9.134663	-3.219860	3.280900	-0.518840	-0.639708	0.038818	0.756102	-1.000000	-1.000000	-1.000000	-1.000000	-1.000000	-1.000000	-1.000000	65.000000	0.000000	-1.000000	-1.000000	751632.000000	1775723107.973019
92614.995000	8555.760000	80813.340000	51359.310000	31067.055000	28716.435000	70302.105000	86336.100000	-3.838101	-3.129130	-3.630251	-1.753333	3.485131	17.764467	-6.440011	-8.110806	-3.219860	3.280900	-0.518840	-0.639708	0.038818	0.756102	-1.000000	-1.000000	-1.000000	-1.000000	-1.000000	-1.000000	-1.000000	65.000000	0.000000	-1.000000	-1.000000	751633.000000	1775723107.973028
92609.235000	8564.130000	80813.475000	51363.225000	31064.580000	28695.420000	70301.070000	86339.385000	-0.999742	0.460826	-1.180440	0.472927	3.176141	13.937570	-1.688885	-4.032803	-3.219860	3.280900	-0.518840	-0.639708	0.038818	0.756102	-1.000000	-1.000000	-1.000000	-1.000000	-1.000000	-1.000000	-1.000000	65.000000	0.000000	-1.000000	-1.000000	751634.000000	1775723107.973036
92620.620000	8563.230000	80820.045000	51367.275000	31060.935000	28678.095000	70311.060000	86359.095000	0.341512	3.237619	0.818918	2.129204	1.407829	3.370752	3.635867	1.523597	-3.219860	3.280900	-0.518840	-0.639708	0.038818	0.756102	-1.000000	-1.000000	-1.000000	-1.000000	-1.000000	-1.000000	-1.000000	65.000000	0.000000	-1.000000	-1.000000	751635.000000	1775723107.989220
92619.405000	8552.025000	80809.110000	51355.395000	31043.700000	28656.360000	70311.690000	86362.875000	0.753764	3.924125	1.908653	2.314894	-2.251872	-10.443527	6.911200	7.104480	-3.219860	3.280900	-0.518840	-0.639708	0.038818	0.756102	-1.000000	-1.000000	-1.000000	-1.000000	-1.000000	-1.000000	-1.000000	65.000000	0.000000	-1.000000	-1.000000	751636.000000	1775723107.989239
92630.925000	8557.875000	80813.880000	51359.490000	31044.015000	28657.575000	70311.735000	86369.760000	1.472758	2.061461	1.821354	0.664691	-6.963889	-21.895751	6.942397	10.663104	-3.219860	3.280900	-0.518840	-0.639708	0.038818	0.756102	-1.000000	-1.000000	-1.000000	-1.000000	-1.000000	-1.000000	-1.000000	65.000000	0.000000	-1.000000	-1.000000	751637.000000	1775723107.989261
92618.955000	8553.780000	80809.470000	51357.465000	31051.710000	28684.260000	70309.080000	86357.115000	2.418559	-0.997365	0.764206	-1.841903	-9.879085	-24.247226	3.926148	9.902678	-3.219860	3.280900	-0.518840	-0.639708	0.038818	0.756102	-1.000000	-1.000000	-1.000000	-1.000000	-1.000000	-1.000000	-1.000000	65.000000	0.000000	-1.000000	-1.000000	751638.000000	1775723107.989270
92616.435000	8552.205000	80806.230000	51357.915000	31062.690000	28716.120000	70314.795000	86359.185000	2.266962	-3.126759	-0.483253	-3.372249	-7.967431	-14.006135	-0.568467	4.267115	-3.219860	3.280900	-0.518840	-0.639708	0.038818	0.756102	-1.000000	-1.000000	-1.000000	-1.000000	-1.000000	-1.000000	-1.000000	65.000000	0.000000	-1.000000	-1.000000	751639.000000	1775723107.989282
92614.995000	8547.075000	80799.570000	51354.270000	31052.520000	28694.025000	70312.275000	86358.330000	0.317222	-3.441670	-1.433072	-3.048457	-1.507546	4.292113	-4.237532	-3.669515	-3.219860	3.280900	-0.518840	-0.639708	0.038818	0.756102	-1.000000	-1.000000	-1.000000	-1.000000	-1.000000	-1.000000	-1.000000	65.000000	0.000000	-1.000000	-1.000000	751640.000000	1775723107.989290
92612.520000	8547.570000	80801.595000	51360.030000	31059.945000	28689.660000	70313.130000	86356.980000	-2.226922	-2.327661	-1.873862	-1.298957	5.464130	19.018766	-5.622223	-9.684214	-5.020540	2.350040	-1.358140	-0.641722	0.037720	0.754942	-1.000000	-1.000000	-1.000000	-1.000000	-1.000000	-1.000000	-1.000000	65.000000	0.000000	-1.000000	-1.000000	751641.000000	1775723107.990831
92614.140000	8550.630000	80802.405000	51362.820000	31064.130000	28690.290000	70315.695000	86359.230000	-3.529606	-0.399734	-1.403080	1.088227	9.170189	21.308133	-4.740641	-11.066163	-5.020540	2.350040	-1.358140	-0.641722	0.037720	0.754942	-1.000000	-1.000000	-1.000000	-1.000000	-1.000000	-1.000000	-1.000000	65.000000	0.000000	-1.000000	-1.000000	751642.000000	1775723107.990846
92607.930000	8548.335000	80792.325000	51355.755000	31058.100000	28679.715000	70310.655000	86353.605000	-2.866702	1.787405	-0.061093	3.134610	8.730396	12.286610	-2.519803	-8.019616	-5.020540	2.350040	-1.358140	-0.641722	0.037720	0.754942	-1.000000	-1.000000	-1.000000	-1.000000	-1.000000	-1.000000	-1.000000	65.000000	0.000000	-1.000000	-1.000000	751643.000000	1775723107.994963
92607.435000	8545.545000	80788.950000	51353.730000	31057.920000	28679.715000	70310.835000	86353.335000	-0.958990	3.363186	1.109191	3.598784	5.080819	-0.594912	-0.250969	-2.859326	-5.020540	2.350040	-1.358140	-0.641722	0.037720	0.754942	-1.000000	-1.000000	-1.000000	-1.000000	-1.000000	-1.000000	-1.000000	65.000000	0.000000	-1.000000	-1.000000	751644.000000	1775723107.994978
92609.685000	8550.585000	80792.280000	51357.510000	31062.105000	28680.030000	70309.935000	86353.560000	1.057580	3.599908	1.370516	2.208016	0.161223	-10.045038	1.176084	1.873338	-5.020540	2.350040	-1.358140	-0.641722	0.037720	0.754942	-1.000000	-1.000000	-1.000000	-1.000000	-1.000000	-1.000000	-1.000000	65.000000	0.000000	-1.000000	-1.000000	751645.000000	1775723107.997574
92618.280000	8555.445000	80800.290000	51365.250000	31064.445000	28682.010000	70314.885000	86359.725000	2.758530	2.829391	1.438465	0.399901	-3.538566	-12.315251	1.834082	4.946394	-5.020540	2.350040	-1.358140	-0.641722	0.037720	0.754942	-1.000000	-1.000000	-1.000000	-1.000000	-1.000000	-1.000000	-1.000000	65.000000	0.000000	-1.000000	-1.000000	751646.000000	1775723107.997591
92615.355000	8554.095000	80798.175000	51365.655000	31062.060000	28678.635000	70313.625000	86357.385000	4.059529	1.859156	2.173808	-0.248614	-4.648333	-8.184806	2.225281	6.261613	-5.020540	2.350040	-1.358140	-0.641722	0.037720	0.754942	-1.000000	-1.000000	-1.000000	-1.000000	-1.000000	-1.000000	-1.000000	65.000000	0.000000	-1.000000	-1.000000	751647.000000	1775723108.003842
92615.535000	8554.050000	80797.185000	51366.870000	31065.345000	28678.950000	70314.660000	86356.710000	4.315419	0.817054	2.979006	0.228302	-3.664674	-1.451235	2.433355	5.851263	-5.020540	2.350040	-1.358140	-0.641722	0.037720	0.754942	-1.000000	-1.000000	-1.000000	-1.000000	-1.000000	-1.000000	-1.000000	65.000000	0.000000	-1.000000	-1.000000	751648.000000	1775723108.003862
92612.610000	8549.370000	80788.770000	51361.920000	31065.795000	28682.550000	70315.290000	86355.405000	2.840117	-0.622222	2.430053	0.541691	-1.817479	4.125745	2.156438	3.809296	-5.020540	2.350040	-1.358140	-0.641722	0.037720	0.754942	-1.000000	-1.000000	-1.000000	-1.000000	-1.000000	-1.000000	-1.000000	65.000000	0.000000	-1.000000	-1.000000	751649.000000	1775723108.005855
92610.945000	8548.290000	80783.685000	51357.060000	31060.170000	28682.595000	70311.735000	86351.535000	-0.012521	-2.385366	-0.017699	-0.341418	-0.182975	6.779519	1.246892	0.800510	-5.020540	2.350040	-1.358140	-0.641722	0.037720	0.754942	-1.000000	-1.000000	-1.000000	-1.000000	-1.000000	-1.000000	-1.000000	65.000000	0.000000	-1.000000	-1.000000	751650.000000	1775723108.005870
92613.870000	8554.905000	80787.330000	51357.960000	31052.520000	28681.650000	70312.680000	86352.930000	-2.861882	-3.628245	-3.164445	-2.174631	0.346083	6.462723	-0.115774	-2.045798	-2.548420	2.029580	-1.541260	-0.640562	0.031067	0.755064	-1.000000	-1.000000	-1.000000	-1.000000	-1.000000	-1.000000	-1.000000	65.000000	0.000000	-1.000000	-1.000000	751651.000000	1775723108.011950
92616.255000	8560.260000	80792.685000	51366.510000	31061.025000	28681.335000	70318.980000	86357.160000	-4.171935	-3.192446	-4.706428	-3.391341	-0.231240	3.985612	-1.274970	-3.530758	-2.548420	2.029580	-1.541260	-0.640562	0.031067	0.755064	-1.000000	-1.000000	-1.000000	-1.000000	-1.000000	-1.000000	-1.000000	65.000000	0.000000	-1.000000	-1.000000	751652.000000	1775723108.011966
92611.845000	8555.310000	80789.985000	51372.855000	31086.585000	28681.695000	70321.770000	86355.000000	-3.457507	-1.052269	-3.380061	-2.408511	-0.138290	0.669556	-1.370792	-3.065284	-2.548420	2.029580	-1.541260	-0.640562	0.031067	0.755064	-1.000000	-1.000000	-1.000000	-1.000000	-1.000000	-1.000000	-1.000000	65.000000	0.000000	-1.000000	-1.000000	751653.000000	1775723108.016591
92609.820000	8553.150000	80788.320000	51374.430000	31097.385000	28692.720000	70321.995000	86353.875000	-1.724667	1.126236	-0.373310	0.573685	2.526137	-1.894110	-0.382620	-1.358656	-2.548420	2.029580	-1.541260	-0.640562	0.031067	0.755064	-1.000000	-1.000000	-1.000000	-1.000000	-1.000000	-1.000000	-1.000000	65.000000	0.000000	-1.000000	-1.000000	751654.000000	1775723108.016610
92615.535000	8558.235000	80791.605000	51374.880000	31087.755000	28688.175000	70317.720000	86357.655000	-0.167795	1.834188	2.107376	3.461447	6.336030	-2.624671	0.584568	0.292771	-2.548420	2.029580	-1.541260	-0.640562	0.031067	0.755064	-1.000000	-1.000000	-1.000000	-1.000000	-1.000000	-1.000000	-1.000000	65.000000	0.000000	-1.000000	-1.000000	751655.000000	1775723108.016645
92619.765000	8563.860000	80796.780000	51381.945000	31086.810000	28683.135000	70314.660000	86359.770000	1.066576	1.400093	3.073739	4.310597	7.041246	-2.076816	0.394451	1.288937	-2.548420	2.029580	-1.541260	-0.640562	0.031067	0.755064	-1.000000	-1.000000	-1.000000	-1.000000	-1.000000	-1.000000	-1.000000	65.000000	0.000000	-1.000000	-1.000000	751656.000000	1775723108.016654
92623.905000	8568.720000	80798.895000	51385.185000	31085.865000	28685.205000	70323.570000	86367.240000	2.253002	1.056284	2.897687	3.022223	2.668065	-1.710241	-0.768488	1.791323	-2.548420	2.029580	-1.541260	-0.640562	0.031067	0.755064	-1.000000	-1.000000	-1.000000	-1.000000	-1.000000	-1.000000	-1.000000	65.000000	0.000000	-1.000000	-1.000000	751657.000000	1775723108.021099
92623.185000	8567.145000	80796.510000	51384.555000	31091.130000	28685.880000	70327.035000	86368.545000	3.047399	1.157140	2.014031	0.705319	-4.065978	-1.848938	-1.417441	2.029340	-2.548420	2.029580	-1.541260	-0.640562	0.031067	0.755064	-1.000000	-1.000000	-1.000000	-1.000000	-1.000000	-1.000000	-1.000000	65.000000	0.000000	-1.000000	-1.000000	751658.000000	1775723108.021118
92618.955000	8560.125000	80789.535000	51377.670000	31084.245000	28672.560000	70322.760000	86364.495000	2.623814	0.850720	0.341312	-1.811423	-8.860176	-1.965781	-0.719467	1.729872	-2.548420	2.029580	-1.541260	-0.640562	0.031067	0.755064	-1.000000	-1.000000	-1.000000	-1.000000	-1.000000	-1.000000	-1.000000	65.000000	0.000000	-1.000000	-1.000000	751659.000000	1775723108.035862
92616.390000	8558.190000	80787.645000	51377.220000	31081.005000	28656.585000	70316.415000	86360.085000	0.620698	-0.672613	-2.045016	-4.106005	-9.665753	-2.302806	0.268849	0.305789	-2.548420	2.029580	-1.541260	-0.640562	0.031067	0.755064	-1.000000	-1.000000	-1.000000	-1.000000	-1.000000	-1.000000	-1.000000	65.000000	0.000000	-1.000000	-1.000000	751660.000000	1775723108.035876
92613.555000	8556.885000	80785.395000	51379.470000	31088.745000	28678.140000	70316.370000	86358.150000	-2.169140	-2.840599	-4.186594	-5.366122	-6.972715	-2.748637	0.183977	-2.091334	1.129240	1.129240	-3.357200	-0.637755	0.026611	0.757566	-1.000000	-1.000000	-1.000000	-1.000000	-1.000000	-1.000000	-1.000000	65.000000	0.000000	-1.000000	-1.000000	751661.000000	1775723108.082026
92611.890000	8558.280000	80781.075000	51377.490000	31083.975000	28693.260000	70315.020000	86357.835000	-4.233288	-4.043825	-4.836990	-4.671376	-2.196764	-1.169311	-0.797780	-4.168783	1.129240	1.129240	-3.357200	-0.637755	0.026611	0.757566	-1.000000	-1.000000	-1.000000	-1.000000	-1.000000	-1.000000	-1.000000	65.000000	0.000000	-1.000000	-1.000000	751662.000000	1775723108.082040
92624.355000	8562.015000	80784.540000	51378.165000	31088.610000	28706.535000	70331.220000	86372.055000	-4.214084	-3.148266	-3.533881	-2.163932	2.776663	3.816740	-1.170121	-4.257780	1.129240	1.129240	-3.357200	-0.637755	0.026611	0.757566	-1.000000	-1.000000	-1.000000	-1.000000	-1.000000	-1.000000	-1.000000	65.000000	0.000000	-1.000000	-1.000000	751663.000000	1775723108.082083
92617.470000	8552.745000	80776.665000	51372.450000	31085.775000	28661.310000	70320.690000	86364.585000	-1.782224	-0.598167	-0.857115	0.839393	6.072142	8.759230	0.099848	-1.757706	1.129240	1.129240	-3.357200	-0.637755	0.026611	0.757566	-1.000000	-1.000000	-1.000000	-1.000000	-1.000000	-1.000000	-1.000000	65.000000	0.000000	-1.000000	-1.000000	751664.000000	1775723108.082093
92610.990000	8548.920000	80774.550000	51374.025000	31085.145000	28658.970000	70310.025000	86349.285000	1.410302	1.748937	1.813508	2.908539	6.745625	7.680657	1.735799	1.414128	1.129240	1.129240	-3.357200	-0.637755	0.026611	0.757566	-1.000000	-1.000000	-1.000000	-1.000000	-1.000000	-1.000000	-1.000000	65.000000	0.000000	-1.000000	-1.000000	751665.000000	1775723108.082106
92610.855000	8552.475000	80776.980000	51377.985000	31093.335000	28706.220000	70312.005000	86342.535000	2.948147	2.522491	3.321216	3.620178	5.187561	0.822497	1.573243	2.247783	1.129240	1.129240	-3.357200	-0.637755	0.026611	0.757566	-1.000000	-1.000000	-1.000000	-1.000000	-1.000000	-1.000000	-1.000000	65.000000	0.000000	-1.000000	-1.000000	751666.000000	1775723108.082110
92612.205000	8556.525000	80782.875000	51388.335000	31112.910000	28735.695000	70327.125000	86347.305000	2.330419	2.262087	3.774648	3.704161	3.179139	-3.564227	0.068682	0.421778	1.129240	1.129240	-3.357200	-0.637755	0.026611	0.757566	-1.000000	-1.000000	-1.000000	-1.000000	-1.000000	-1.000000	-1.000000	65.000000	0.000000	-1.000000	-1.000000	751667.000000	1775723108.082116
92611.845000	8560.800000	80788.590000	51400.440000	31127.895000	28740.465000	70340.400000	86353.830000	0.967252	2.217018	3.939540	4.061165	2.650508	-0.308328	-0.080088	-1.212652	1.129240	1.129240	-3.357200	-0.637755	0.026611	0.757566	-1.000000	-1.000000	-1.000000	-1.000000	-1.000000	-1.000000	-1.000000	65.000000	0.000000	-1.000000	-1.000000	751668.000000	1775723108.082121
92616.705000	8561.025000	80786.790000	51399.540000	31121.370000	28726.470000	70336.440000	86360.805000	0.220868	2.612758	3.911652	4.552061	3.288413	5.540883	2.039126	-0.160201	1.129240	1.129240	-3.357200	-0.637755	0.026611	0.757566	-1.000000	-1.000000	-1.000000	-1.000000	-1.000000	-1.000000	-1.000000	65.000000	0.000000	-1.000000	-1.000000	751669.000000	1775723108.082126
92620.755000	8556.885000	80777.520000	51387.030000	31106.430000	28708.245000	70330.095000	86365.620000	0.520573	2.537516	2.775830	3.576213	2.172408	5.444274	3.891601	3.145648	1.129240	1.129240	-3.357200	-0.637755	0.026611	0.757566	-1.000000	-1.000000	-1.000000	-1.000000	-1.000000	-1.000000	-1.000000	65.000000	0.000000	-1.000000	-1.000000	751670.000000	1775723108.082131
92625.165000	8559.270000	80775.045000	51383.430000	31098.375000	28701.810000	70332.435000	86369.670000	1.470017	1.177111	-0.180632	-0.257597	-2.788957	-2.908514	2.699851	6.143800	0.549360	1.373400	-4.120200	-0.634825	0.027466	0.760069	-1.000000	-1.000000	-1.000000	-1.000000	-1.000000	-1.000000	-1.000000	65.000000	0.000000	-1.000000	-1.000000	751671.000000	1775723108.082136
92627.865000	8567.055000	80781.345000	51394.230000	31109.535000	28713.240000	70347.825000	86377.455000	2.196728	-0.892671	-3.809583	-5.460603	-9.312287	-13.438912	-0.819197	6.621498	0.549360	1.373400	-4.120200	-0.634825	0.027466	0.760069	-1.000000	-1.000000	-1.000000	-1.000000	-1.000000	-1.000000	-1.000000	65.000000	0.000000	-1.000000	-1.000000	751672.000000	1775723108.082140
92622.330000	8563.635000	80774.820000	51389.055000	31106.385000	28707.210000	70343.505000	86376.780000	1.806417	-2.259560	-5.771326	-8.397688	-12.345326	-17.803836	-3.544464	4.204798	0.549360	1.373400	-4.120200	-0.634825	0.027466	0.760069	-1.000000	-1.000000	-1.000000	-1.000000	-1.000000	-1.000000	-1.000000	65.000000	0.000000	-1.000000	-1.000000	751673.000000	1775723108.082146
92609.595000	8560.620000	80762.085000	51379.785000	31096.260000	28705.365000	70330.230000	86361.165000	-0.299789	-2.534197	-5.319236	-7.442675	-9.588232	-13.110522	-4.241743	-0.340588	0.549360	1.373400	-4.120200	-0.634825	0.027466	0.760069	-1.000000	-1.000000	-1.000000	-1.000000	-1.000000	-1.000000	-1.000000	65.000000	0.000000	-1.000000	-1.000000	751674.000000	1775723108.082150
92582.145000	8560.170000	80739.540000	51366.960000	31083.435000	28695.375000	70308.405000	86333.310000	-4.195402	-2.415734	-4.103754	-4.430644	-3.638288	-3.219450	-4.634333	-6.324996	0.549360	1.373400	-4.120200	-0.634825	0.027466	0.760069	-1.000000	-1.000000	-1.000000	-1.000000	-1.000000	-1.000000	-1.000000	65.000000	0.000000	-1.000000	-1.000000	751675.000000	1775723108.082155
92582.280000	8559.360000	80739.720000	51371.640000	31097.070000	28692.900000	70308.360000	86332.635000	-8.611224	-2.255323	-3.601985	-1.614019	1.880227	5.929991	-5.970535	-12.257597	0.549360	1.373400	-4.120200	-0.634825	0.027466	0.760069	-1.000000	-1.000000	-1.000000	-1.000000	-1.000000	-1.000000	-1.000000	65.000000	0.000000	-1.000000	-1.000000	751676.000000	1775723108.082160
92597.445000	8561.250000	80749.215000	51380.010000	31113.675000	28690.110000	70320.060000	86345.325000	-10.074905	-1.747007	-2.665349	0.958939	6.225362	10.755858	-6.313089	-14.385033	0.549360	1.373400	-4.120200	-0.634825	0.027466	0.760069	-1.000000	-1.000000	-1.000000	-1.000000	-1.000000	-1.000000	-1.000000	65.000000	0.000000	-1.000000	-1.000000	751677.000000	1775723108.082165
92625.165000	8562.420000	80769.735000	51393.330000	31116.510000	28695.645000	70339.860000	86369.895000	-4.966878	-0.611528	1.173184	4.390249	10.070096	11.190451	-2.493236	-8.928782	0.549360	1.373400	-4.120200	-0.634825	0.027466	0.760069	-1.000000	-1.000000	-1.000000	-1.000000	-1.000000	-1.000000	-1.000000	65.000000	0.000000	-1.000000	-1.000000	751678.000000	1775723108.082169
92630.430000	8562.195000	80771.310000	51396.075000	31112.730000	28687.455000	70338.645000	86374.395000	5.935075	0.909146	7.857065	8.324564	12.097507	8.989747	5.372881	3.173277	0.549360	1.373400	-4.120200	-0.634825	0.027466	0.760069	-1.000000	-1.000000	-1.000000	-1.000000	-1.000000	-1.000000	-1.000000	65.000000	0.000000	-1.000000	-1.000000	751679.000000	1775723108.082175
92624.355000	8556.255000	80765.145000	51394.410000	31111.695000	28677.870000	70328.790000	86364.045000	16.067613	2.010428	13.296937	10.362927	9.919841	5.412539	12.394362	15.009726	0.549360	1.373400	-4.120200	-0.634825	0.027466	0.760069	-1.000000	-1.000000	-1.000000	-1.000000	-1.000000	-1.000000	-1.000000	65.000000	0.000000	-1.000000	-1.000000	751680.000000	1775723108.082180
92619.675000	8555.580000	80763.165000	51395.760000	31115.610000	28676.250000	70322.895000	86349.645000	18.026502	1.931271	12.796856	8.288844	3.630841	1.065105	13.058329	18.547136	-1.342880	1.846460	-2.853620	-0.633665	0.029968	0.762754	-1.000000	-1.000000	-1.000000	-1.000000	-1.000000	-1.000000	-1.000000	65.000000	0.000000	-1.000000	-1.000000	751681.000000	1775723108.082185
92608.650000	8547.345000	80753.085000	51388.290000	31112.145000	28679.625000	70318.440000	86338.260000	9.999376	0.698544	5.668996	2.398169	-3.707760	-2.693763	6.592890	11.335819	-1.342880	1.846460	-2.853620	-0.633665	0.029968	0.762754	-1.000000	-1.000000	-1.000000	-1.000000	-1.000000	-1.000000	-1.000000	65.000000	0.000000	-1.000000	-1.000000	751682.000000	1775723108.082189
92609.010000	8551.440000	80755.965000	51396.615000	31124.880000	28690.155000	70329.240000	86344.560000	-3.151942	-0.834282	-4.255592	-4.547341	-8.580046	-3.949045	-2.442703	-1.469698	-1.342880	1.846460	-2.853620	-0.633665	0.029968	0.762754	-1.000000	-1.000000	-1.000000	-1.000000	-1.000000	-1.000000	-1.000000	65.000000	0.000000	-1.000000	-1.000000	751683.000000	1775723108.082194
92620.575000	8562.915000	80764.605000	51405.030000	31127.355000	28682.235000	70346.880000	86365.755000	-13.693166	-1.274035	-11.463175	-8.916203	-9.055888	-2.274080	-7.952685	-11.030869	-1.342880	1.846460	-2.853620	-0.633665	0.029968	0.762754	-1.000000	-1.000000	-1.000000	-1.000000	-1.000000	-1.000000	-1.000000	65.000000	0.000000	-1.000000	-1.000000	751684.000000	1775723108.082199
92652.930000	8594.685000	80794.035000	51432.255000	31152.150000	28720.575000	70365.870000	86393.880000	-15.532381	0.845254	-11.823145	-8.137636	-5.356650	0.983832	-6.686407	-11.089176	-1.342880	1.846460	-2.853620	-0.633665	0.029968	0.762754	-1.000000	-1.000000	-1.000000	-1.000000	-1.000000	-1.000000	-1.000000	65.000000	0.000000	-1.000000	-1.000000	751685.000000	1775723108.082204
92632.635000	8571.960000	80764.875000	51404.220000	31130.640000	28725.030000	70347.960000	86377.635000	-8.381372	4.927809	-5.773761	-3.151977	0.080510	4.589783	-0.890152	-2.884264	-1.342880	1.846460	-2.853620	-0.633665	0.029968	0.762754	-1.000000	-1.000000	-1.000000	-1.000000	-1.000000	-1.000000	-1.000000	65.000000	0.000000	-1.000000	-1.000000	751686.000000	1775723108.082209
92629.530000	8561.295000	80751.555000	51392.385000	31111.065000	28677.195000	70340.895000	86375.070000	1.151773	6.741724	0.713300	1.000395	2.922649	6.023983	3.245184	5.549732	-1.342880	1.846460	-2.853620	-0.633665	0.029968	0.762754	-1.000000	-1.000000	-1.000000	-1.000000	-1.000000	-1.000000	-1.000000	65.000000	0.000000	-1.000000	-1.000000	751687.000000	1775723108.082214
92636.415000	8569.755000	80763.255000	51407.235000	31122.720000	28652.175000	70351.470000	86383.035000	5.928148	2.980911	2.279183	0.606243	0.670709	0.935769	1.949858	7.338169	-1.342880	1.846460	-2.853620	-0.633665	0.029968	0.762754	-1.000000	-1.000000	-1.000000	-1.000000	-1.000000	-1.000000	-1.000000	65.000000	0.000000	-1.000000	-1.000000	751688.000000	1775723108.082218
92643.255000	8581.995000	80776.305000	51425.640000	31153.860000	28702.710000	70349.400000	86387.085000	5.070362	-3.512343	0.457084	-1.663841	-3.039732	-9.106648	-2.423929	2.953676	-1.342880	1.846460	-2.853620	-0.633665	0.029968	0.762754	-1.000000	-1.000000	-1.000000	-1.000000	-1.000000	-1.000000	-1.000000	65.000000	0.000000	-1.000000	-1.000000	751689.000000	1775723108.093455
92631.105000	8567.685000	80762.760000	51415.920000	31156.155000	28784.070000	70349.355000	86376.330000	1.855375	-7.468532	-0.338970	-1.350074	-2.430699	-12.910396	-5.500511	-2.977663	-1.342880	1.846460	-2.853620	-0.633665	0.029968	0.762754	-1.000000	-1.000000	-1.000000	-1.000000	-1.000000	-1.000000	-1.000000	65.000000	0.000000	-1.000000	-1.000000	751690.000000	1775723108.093474
92624.220000	8560.305000	80756.505000	51411.690000	31147.875000	28740.105000	70348.230000	86371.425000	-1.458772	-7.576278	0.505990	1.228311	2.418499	-3.263124	-5.480605	-7.243940	-4.822160	3.662400	-3.906560	-0.630308	0.031738	0.764769	-1.000000	-1.000000	-1.000000	-1.000000	-1.000000	-1.000000	-1.000000	65.000000	0.000000	-1.000000	-1.000000	751691.000000	1775723108.093495
92623.950000	8564.940000	80759.925000	51416.685000	31154.580000	28722.330000	70349.355000	86373.000000	-4.018436	-5.657492	1.029512	2.854604	6.170812	10.197592	-3.074099	-8.695713	-4.822160	3.662400	-3.906560	-0.630308	0.031738	0.764769	-1.000000	-1.000000	-1.000000	-1.000000	-1.000000	-1.000000	-1.000000	65.000000	0.000000	-1.000000	-1.000000	751692.000000	1775723108.093505
92625.930000	8567.955000	80760.465000	51417.000000	31149.000000	28720.305000	70349.895000	86377.410000	-4.719644	-2.726076	0.807021	2.392550	5.348360	12.743879	0.169292	-6.834087	-4.822160	3.662400	-3.906560	-0.630308	0.031738	0.764769	-1.000000	-1.000000	-1.000000	-1.000000	-1.000000	-1.000000	-1.000000	65.000000	0.000000	-1.000000	-1.000000	751693.000000	1775723108.096068
92628.945000	8569.755000	80760.510000	51420.240000	31152.060000	28717.470000	70349.085000	86377.950000	-2.751907	1.034325	0.754392	1.008254	0.988828	2.797280	2.841874	-2.125671	-4.822160	3.662400	-3.906560	-0.630308	0.031738	0.764769	-1.000000	-1.000000	-1.000000	-1.000000	-1.000000	-1.000000	-1.000000	65.000000	0.000000	-1.000000	-1.000000	751694.000000	1775723108.096082
92627.730000	8570.295000	80760.735000	51424.335000	31156.875000	28715.085000	70351.155000	86377.950000	1.077043	4.609964	1.177236	0.000700	-3.633908	-9.885808	4.119885	3.372237	-4.822160	3.662400	-3.906560	-0.630308	0.031738	0.764769	-1.000000	-1.000000	-1.000000	-1.000000	-1.000000	-1.000000	-1.000000	65.000000	0.000000	-1.000000	-1.000000	751695.000000	1775723108.099937
92624.805000	8570.880000	80756.145000	51421.230000	31152.285000	28686.735000	70348.860000	86374.620000	4.576171	6.491518	1.539814	-0.223641	-5.779167	-16.611288	3.908052	7.026276	-4.822160	3.662400	-3.906560	-0.630308	0.031738	0.764769	-1.000000	-1.000000	-1.000000	-1.000000	-1.000000	-1.000000	-1.000000	65.000000	0.000000	-1.000000	-1.000000	751696.000000	1775723108.099968
92620.260000	8569.665000	80750.160000	51416.820000	31145.445000	28655.235000	70345.125000	86371.020000	5.722803	5.908035	1.118765	-0.262187	-5.150275	-15.999570	2.538456	7.307054	-4.822160	3.662400	-3.906560	-0.630308	0.031738	0.764769	-1.000000	-1.000000	-1.000000	-1.000000	-1.000000	-1.000000	-1.000000	65.000000	0.000000	-1.000000	-1.000000	751697.000000	1775723108.111549
92626.965000	8572.230000	80756.820000	51423.840000	31153.680000	28678.275000	70351.560000	86377.455000	4.247190	3.354927	-0.085516	-0.689106	-3.094036	-10.583088	0.662924	4.749312	-4.822160	3.662400	-3.906560	-0.630308	0.031738	0.764769	-1.000000	-1.000000	-1.000000	-1.000000	-1.000000	-1.000000	-1.000000	65.000000	0.000000	-1.000000	-1.000000	751698.000000	1775723108.111566
92617.740000	8561.835000	80747.370000	51418.845000	31164.345000	28760.085000	70358.625000	86374.530000	1.563887	0.041167	-1.157438	-1.124975	-0.275742	0.057835	-0.553741	1.418817	-4.822160	3.662400	-3.906560	-0.630308	0.031738	0.764769	-1.000000	-1.000000	-1.000000	-1.000000	-1.000000	-1.000000	-1.000000	65.000000	0.000000	-1.000000	-1.000000	751699.000000	1775723108.111705
92614.365000	8557.020000	80742.870000	51412.860000	31156.560000	28743.030000	70359.030000	86375.610000	-0.997308	-3.079963	-1.591730	-1.206187	2.975434	16.453401	-0.332243	-0.961344	-4.822160	3.662400	-3.906560	-0.630308	0.031738	0.764769	-1.000000	-1.000000	-1.000000	-1.000000	-1.000000	-1.000000	-1.000000	65.000000	0.000000	-1.000000	-1.000000	751700.000000	1775723108.111717
92620.035000	8562.555000	80748.045000	51416.955000	31156.785000	28716.075000	70360.335000	86379.075000	-2.725482	-5.106495	-1.526993	-1.131869	5.094316	29.965840	0.635895	-1.928935	-4.516960	4.028640	-1.587040	-0.629332	0.027954	0.765257	-1.000000	-1.000000	-1.000000	-1.000000	-1.000000	-1.000000	-1.000000	65.000000	0.000000	-1.000000	-1.000000	751701.000000	1775723108.111997
92622.195000	8566.020000	80751.735000	51421.950000	31161.600000	28712.655000	70358.580000	86376.555000	-2.838773	-4.803387	-0.671372	-0.647078	4.717993	28.317758	0.954180	-1.765433	-4.516960	4.028640	-1.587040	-0.629332	0.027954	0.765257	-1.000000	-1.000000	-1.000000	-1.000000	-1.000000	-1.000000	-1.000000	65.000000	0.000000	-1.000000	-1.000000	751702.000000	1775723108.112009
92623.140000	8568.135000	80752.680000	51424.875000	31160.880000	28710.810000	70354.395000	86372.955000	-1.207174	-1.911612	1.129175	0.738613	2.515754	10.896907	-0.066335	-1.227193	-4.516960	4.028640	-1.587040	-0.629332	0.027954	0.765257	-1.000000	-1.000000	-1.000000	-1.000000	-1.000000	-1.000000	-1.000000	65.000000	0.000000	-1.000000	-1.000000	751703.000000	1775723108.126315
92622.150000	8565.795000	80747.775000	51422.805000	31154.895000	28703.835000	70349.175000	86369.805000	0.953717	1.889794	2.827574	2.484664	-0.073431	-10.724634	-2.063101	-1.119804	-4.516960	4.028640	-1.587040	-0.629332	0.027954	0.765257	-1.000000	-1.000000	-1.000000	-1.000000	-1.000000	-1.000000	-1.000000	65.000000	0.000000	-1.000000	-1.000000	751704.000000	1775723108.126332
92624.220000	8567.235000	80747.505000	51425.820000	31164.840000	28712.115000	70348.815000	86370.210000	2.160474	4.276427	2.987825	3.294237	-2.091605	-24.386124	-3.923956	-1.480608	-4.516960	4.028640	-1.587040	-0.629332	0.027954	0.765257	-1.000000	-1.000000	-1.000000	-1.000000	-1.000000	-1.000000	-1.000000	65.000000	0.000000	-1.000000	-1.000000	751705.000000	1775723108.126352
92630.250000	8574.480000	80752.230000	51429.555000	31168.710000	28707.795000	70348.320000	86373.855000	2.013129	4.314634	1.474993	2.617925	-2.640494	-24.963939	-4.351288	-1.527837	-4.516960	4.028640	-1.587040	-0.629332	0.027954	0.765257	-1.000000	-1.000000	-1.000000	-1.000000	-1.000000	-1.000000	-1.000000	65.000000	0.000000	-1.000000	-1.000000	751706.000000	1775723108.126361
92629.935000	8574.030000	80749.665000	51427.305000	31159.755000	28684.305000	70353.765000	86375.385000	1.147401	2.813640	-0.448101	1.011119	-1.610997	-15.602132	-2.681240	-0.562752	-4.516960	4.028640	-1.587040	-0.629332	0.027954	0.765257	-1.000000	-1.000000	-1.000000	-1.000000	-1.000000	-1.000000	-1.000000	65.000000	0.000000	-1.000000	-1.000000	751707.000000	1775723108.126371
92631.105000	8575.695000	80749.980000	51430.320000	31162.410000	28693.215000	70360.020000	86379.210000	0.134854	0.871865	-1.700535	-0.758668	-0.386065	-3.782772	0.672630	1.196069	-4.516960	4.028640	-1.587040	-0.629332	0.027954	0.765257	-1.000000	-1.000000	-1.000000	-1.000000	-1.000000	-1.000000	-1.000000	65.000000	0.000000	-1.000000	-1.000000	751708.000000	1775723108.126379
92629.980000	8573.130000	80746.155000	51431.670000	31178.520000	28743.885000	70363.080000	86378.760000	-0.915898	-1.015775	-2.164586	-2.069015	0.237643	6.231727	4.334595	2.752907	-4.516960	4.028640	-1.587040	-0.629332	0.027954	0.765257	-1.000000	-1.000000	-1.000000	-1.000000	-1.000000	-1.000000	-1.000000	65.000000	0.000000	-1.000000	-1.000000	751709.000000	1775723108.126389
92622.960000	8572.770000	80737.785000	51428.070000	31170.240000	28712.430000	70355.970000	86370.705000	-2.029995	-2.618001	-2.284750	-2.563964	0.903434	14.213165	6.330856	2.958748	-4.516960	4.028640	-1.587040	-0.629332	0.027954	0.765257	-1.000000	-1.000000	-1.000000	-1.000000	-1.000000	-1.000000	-1.000000	65.000000	0.000000	-1.000000	-1.000000	751710.000000	1775723108.126397
92616.345000	8572.095000	80732.745000	51425.595000	31162.725000	28690.335000	70351.560000	86364.810000	-3.209757	-3.589395	-2.508930	-2.469241	1.332214	17.208816	5.113331	1.182918	-3.967600	4.837420	-1.342880	-0.632201	0.025024	0.762266	-1.000000	-1.000000	-1.000000	-1.000000	-1.000000	-1.000000	-1.000000	65.000000	0.000000	-1.000000	-1.000000	751711.000000	1775723108.128803
92626.470000	8576.055000	80743.275000	51435.135000	31174.560000	28710.360000	70359.165000	86372.910000	-3.882058	-3.478931	-2.432556	-1.977695	0.546221	11.739106	1.234169	-1.670575	-3.967600	4.837420	-1.342880	-0.632201	0.025024	0.762266	-1.000000	-1.000000	-1.000000	-1.000000	-1.000000	-1.000000	-1.000000	65.000000	0.000000	-1.000000	-1.000000	751712.000000	1775723108.128822
92625.570000	8573.895000	80744.040000	51441.210000	31191.390000	28741.050000	70364.385000	86373.270000	-2.851772	-2.152583	-0.922459	-0.643840	-0.413873	2.070987	-2.518563	-3.345264	-3.967600	4.837420	-1.342880	-0.632201	0.025024	0.762266	-1.000000	-1.000000	-1.000000	-1.000000	-1.000000	-1.000000	-1.000000	65.000000	0.000000	-1.000000	-1.000000	751713.000000	1775723108.189356
92627.145000	8576.460000	80744.580000	51444.405000	31194.900000	28747.170000	70367.580000	86377.365000	0.019911	-0.184088	1.988454	1.590207	0.337672	-3.637429	-3.702075	-2.483462	-3.967600	4.837420	-1.342880	-0.632201	0.025024	0.762266	-1.000000	-1.000000	-1.000000	-1.000000	-1.000000	-1.000000	-1.000000	65.000000	0.000000	-1.000000	-1.000000	751714.000000	1775723108.189377
92624.130000	8577.180000	80738.685000	51441.660000	31190.940000	28734.030000	70364.070000	86375.745000	3.065209	1.542118	4.405661	3.451115	2.148781	-3.565385	-2.462810	0.034919	-3.967600	4.837420	-1.342880	-0.632201	0.025024	0.762266	-1.000000	-1.000000	-1.000000	-1.000000	-1.000000	-1.000000	-1.000000	65.000000	0.000000	-1.000000	-1.000000	751715.000000	1775723108.189399
92626.380000	8574.570000	80736.795000	51440.220000	31189.590000	28729.260000	70365.195000	86378.625000	4.463781	2.395204	4.447524	3.362336	2.414513	-2.539941	-0.747687	2.268100	-3.967600	4.837420	-1.342880	-0.632201	0.025024	0.762266	-1.000000	-1.000000	-1.000000	-1.000000	-1.000000	-1.000000	-1.000000	65.000000	0.000000	-1.000000	-1.000000	751716.000000	1775723108.189409
92626.695000	8571.510000	80735.040000	51440.580000	31189.275000	28725.255000	70366.050000	86379.795000	3.802675	2.065773	2.090130	1.137417	0.034651	-4.314890	0.007926	2.961694	-3.967600	4.837420	-1.342880	-0.632201	0.025024	0.762266	-1.000000	-1.000000	-1.000000	-1.000000	-1.000000	-1.000000	-1.000000	65.000000	0.000000	-1.000000	-1.000000	751717.000000	1775723108.189422
92626.155000	8570.565000	80731.755000	51438.645000	31184.280000	28720.170000	70365.600000	86379.660000	1.912221	0.751423	-1.035822	-1.803739	-3.516423	-7.764829	-0.178213	2.110070	-3.967600	4.837420	-1.342880	-0.632201	0.025024	0.762266	-1.000000	-1.000000	-1.000000	-1.000000	-1.000000	-1.000000	-1.000000	65.000000	0.000000	-1.000000	-1.000000	751718.000000	1775723108.189431
92629.035000	8573.040000	80731.035000	51438.330000	31180.545000	28712.835000	70365.240000	86380.515000	-0.098148	-0.666291	-3.181310	-3.761867	-6.062114	-9.696431	-0.638599	0.422183	-3.967600	4.837420	-1.342880	-0.632201	0.025024	0.762266	-1.000000	-1.000000	-1.000000	-1.000000	-1.000000	-1.000000	-1.000000	65.000000	0.000000	-1.000000	-1.000000	751719.000000	1775723108.189442
92629.575000	8572.995000	80729.460000	51438.420000	31180.995000	28712.880000	70366.005000	86378.085000	-1.401428	-1.193405	-3.516279	-3.891713	-6.285748	-8.216424	-0.847824	-1.288269	-3.967600	4.837420	-1.342880	-0.632201	0.025024	0.762266	-1.000000	-1.000000	-1.000000	-1.000000	-1.000000	-1.000000	-1.000000	65.000000	0.000000	-1.000000	-1.000000	751720.000000	1775723108.189451
92627.010000	8571.375000	80728.380000	51438.960000	31176.180000	28708.155000	70364.385000	86375.025000	-1.791501	-0.648480	-2.253405	-2.360850	-4.071594	-3.568596	-0.618872	-2.490575	-4.425400	5.630940	-0.122080	-0.639647	0.023865	0.756956	-1.000000	-1.000000	-1.000000	-1.000000	-1.000000	-1.000000	-1.000000	65.000000	0.000000	-1.000000	-1.000000	751721.000000	1775723108.189462
92628.135000	8573.535000	80730.675000	51441.930000	31174.380000	28690.605000	70365.780000	86376.195000	-1.661870	0.308144	-0.233747	0.013110	-0.494258	2.079619	-0.084797	-2.941890	-4.425400	5.630940	-0.122080	-0.639647	0.023865	0.756956	-1.000000	-1.000000	-1.000000	-1.000000	-1.000000	-1.000000	-1.000000	65.000000	0.000000	-1.000000	-1.000000	751722.000000	1775723108.189470
92630.340000	8576.505000	80734.005000	51448.725000	31187.070000	28683.585000	70366.860000	86378.490000	-1.316553	1.073625	1.735193	2.356948	3.117318	5.808148	0.540490	-2.399508	-4.425400	5.630940	-0.122080	-0.639647	0.023865	0.756956	-1.000000	-1.000000	-1.000000	-1.000000	-1.000000	-1.000000	-1.000000	65.000000	0.000000	-1.000000	-1.000000	751723.000000	1775723108.189480
92630.745000	8576.955000	80732.610000	51448.500000	31193.010000	28710.720000	70368.570000	86379.660000	-0.716102	1.474869	3.055661	3.993085	6.199489	6.989312	1.122879	-0.830820	-4.425400	5.630940	-0.122080	-0.639647	0.023865	0.756956	-1.000000	-1.000000	-1.000000	-1.000000	-1.000000	-1.000000	-1.000000	65.000000	0.000000	-1.000000	-1.000000	751724.000000	1775723108.189489
92631.645000	8578.260000	80732.790000	51449.625000	31193.460000	28737.225000	70373.430000	86381.100000	0.057385	1.417104	3.190720	4.261714	8.149908	8.328514	1.578855	1.170311	-4.425400	5.630940	-0.122080	-0.639647	0.023865	0.756956	-1.000000	-1.000000	-1.000000	-1.000000	-1.000000	-1.000000	-1.000000	65.000000	0.000000	-1.000000	-1.000000	751725.000000	1775723108.189499
92633.805000	8578.575000	80731.260000	51447.555000	31187.970000	28731.240000	70374.420000	86383.665000	0.705753	0.832904	1.981261	2.814836	7.608202	11.241513	1.831149	2.683588	-4.425400	5.630940	-0.122080	-0.639647	0.023865	0.756956	-1.000000	-1.000000	-1.000000	-1.000000	-1.000000	-1.000000	-1.000000	65.000000	0.000000	-1.000000	-1.000000	751726.000000	1775723108.189507
92629.665000	8571.285000	80724.060000	51445.800000	31195.395000	28736.235000	70375.005000	86381.370000	0.936483	-0.250529	-0.153656	0.123380	4.023423	12.423166	1.660539	3.057674	-4.425400	5.630940	-0.122080	-0.639647	0.023865	0.756956	-1.000000	-1.000000	-1.000000	-1.000000	-1.000000	-1.000000	-1.000000	65.000000	0.000000	-1.000000	-1.000000	751727.000000	1775723108.189517
92627.505000	8569.575000	80723.295000	51450.840000	31206.825000	28726.695000	70375.545000	86383.260000	0.504262	-1.724846	-2.461425	-2.550630	-0.736640	7.996906	0.833514	2.164244	-4.425400	5.630940	-0.122080	-0.639647	0.023865	0.756956	-1.000000	-1.000000	-1.000000	-1.000000	-1.000000	-1.000000	-1.000000	65.000000	0.000000	-1.000000	-1.000000	751728.000000	1775723108.189525
92621.340000	8563.860000	80716.680000	51445.620000	31199.130000	28715.985000	70364.520000	86383.485000	-0.575494	-3.108460	-4.023120	-3.885787	-4.019191	-1.696827	-0.684116	0.508986	-4.425400	5.630940	-0.122080	-0.639647	0.023865	0.756956	-1.000000	-1.000000	-1.000000	-1.000000	-1.000000	-1.000000	-1.000000	65.000000	0.000000	-1.000000	-1.000000	751729.000000	1775723108.189536
92611.665000	8555.715000	80708.355000	51440.085000	31198.860000	28704.060000	70341.795000	86364.360000	-1.943120	-3.740217	-4.277359	-3.673804	-5.234691	-12.569863	-3.056548	-1.386441	-4.425400	5.630940	-0.122080	-0.639647	0.023865	0.756956	-1.000000	-1.000000	-1.000000	-1.000000	-1.000000	-1.000000	-1.000000	65.000000	0.000000	-1.000000	-1.000000	751730.000000	1775723108.189544
92609.235000	8558.145000	80712.135000	51445.620000	31206.780000	28710.810000	70341.570000	86341.725000	-3.026189	-3.237283	-3.244027	-2.601716	-5.180001	-19.350605	-5.977283	-3.859531	-3.509800	5.279960	0.763000	-0.645323	0.021545	0.752928	-1.000000	-1.000000	-1.000000	-1.000000	-1.000000	-1.000000	-1.000000	65.000000	0.000000	-1.000000	-1.000000	751731.000000	1775723108.189555
92618.055000	8572.410000	80723.610000	51457.455000	31219.155000	28734.165000	70373.295000	86346.720000	-2.818247	-1.133662	-0.783943	-0.758534	-3.819535	-17.865785	-6.808926	-6.641254	-3.509800	5.279960	0.763000	-0.645323	0.021545	0.752928	-1.000000	-1.000000	-1.000000	-1.000000	-1.000000	-1.000000	-1.000000	65.000000	0.000000	-1.000000	-1.000000	751732.000000	1775723108.189562
92609.865000	8568.765000	80717.355000	51450.795000	31212.720000	28741.365000	70380.405000	86354.865000	-0.602363	2.609199	2.894265	1.899001	-1.107992	-7.743958	-2.250365	-7.061954	-3.509800	5.279960	0.763000	-0.645323	0.021545	0.752928	-1.000000	-1.000000	-1.000000	-1.000000	-1.000000	-1.000000	-1.000000	65.000000	0.000000	-1.000000	-1.000000	751733.000000	1775723108.189573
92623.230000	8583.165000	80729.325000	51461.685000	31216.230000	28719.675000	70383.960000	86379.660000	2.786252	6.431625	6.162597	4.193612	1.460596	5.420237	6.348160	-2.323802	-3.509800	5.279960	0.763000	-0.645323	0.021545	0.752928	-1.000000	-1.000000	-1.000000	-1.000000	-1.000000	-1.000000	-1.000000	65.000000	0.000000	-1.000000	-1.000000	751734.000000	1775723108.189581
92627.145000	8578.530000	80721.270000	51450.120000	31195.305000	28673.325000	70376.175000	86393.925000	5.773973	8.136213	7.124919	4.613786	1.894785	12.406343	12.724021	6.787143	-3.509800	5.279960	0.763000	-0.645323	0.021545	0.752928	-1.000000	-1.000000	-1.000000	-1.000000	-1.000000	-1.000000	-1.000000	65.000000	0.000000	-1.000000	-1.000000	751735.000000	1775723108.189591
92628.540000	8565.435000	80704.665000	51434.820000	31186.530000	28683.675000	70368.975000	86397.795000	7.131939	6.244484	4.749115	2.339315	-0.534327	8.508490	11.733591	15.342178	-3.509800	5.279960	0.763000	-0.645323	0.021545	0.752928	-1.000000	-1.000000	-1.000000	-1.000000	-1.000000	-1.000000	-1.000000	65.000000	0.000000	-1.000000	-1.000000	751736.000000	1775723108.189600
92621.745000	8556.705000	80699.085000	51438.960000	31213.395000	28759.860000	70369.470000	86380.290000	5.827743	0.636855	-0.709089	-2.070276	-3.741032	0.512051	3.847735	17.156072	-3.509800	5.279960	0.763000	-0.645323	0.021545	0.752928	-1.000000	-1.000000	-1.000000	-1.000000	-1.000000	-1.000000	-1.000000	65.000000	0.000000	-1.000000	-1.000000	751737.000000	1775723108.189610
92614.860000	8555.625000	80698.995000	51442.155000	31210.920000	28749.375000	70366.005000	86366.160000	1.618004	-6.321647	-6.629294	-5.778887	-3.686953	-0.179869	-5.760191	9.303610	-3.509800	5.279960	0.763000	-0.645323	0.021545	0.752928	-1.000000	-1.000000	-1.000000	-1.000000	-1.000000	-1.000000	-1.000000	65.000000	0.000000	-1.000000	-1.000000	751738.000000	1775723108.189618
92625.885000	8566.785000	80705.520000	51448.635000	31213.530000	28727.415000	70372.170000	86374.665000	-3.769425	-10.378639	-9.106571	-5.703331	0.615097	6.627228	-11.537242	-4.582770	-3.509800	5.279960	0.763000	-0.645323	0.021545	0.752928	-1.000000	-1.000000	-1.000000	-1.000000	-1.000000	-1.000000	-1.000000	65.000000	0.000000	-1.000000	-1.000000	751739.000000	1775723108.189627
92636.820000	8579.430000	80714.655000	51459.930000	31228.290000	28741.815000	70387.695000	86388.885000	-6.950847	-8.447572	-6.162377	-1.529246	5.852527	10.648172	-10.790878	-15.831524	-3.509800	5.279960	0.763000	-0.645323	0.021545	0.752928	-1.000000	-1.000000	-1.000000	-1.000000	-1.000000	-1.000000	-1.000000	65.000000	0.000000	-1.000000	-1.000000	751740.000000	1775723108.189635
92644.020000	8580.825000	80718.705000	51461.685000	31224.195000	28739.205000	70405.335000	86410.035000	-5.703326	-1.408096	0.604484	4.220530	8.620570	6.470176	-4.214578	-17.280460	-2.990960	4.471180	1.953280	-0.646971	0.019043	0.751768	-1.000000	-1.000000	-1.000000	-1.000000	-1.000000	-1.000000	-1.000000	65.000000	0.000000	-1.000000	-1.000000	751741.000000	1775723108.189645
92633.985000	8569.440000	80706.735000	51450.750000	31212.675000	28715.445000	70398.630000	86407.695000	-1.551781	5.898927	6.876833	7.777088	7.209156	-2.724751	4.346023	-9.042323	-2.990960	4.471180	1.953280	-0.646971	0.019043	0.751768	-1.000000	-1.000000	-1.000000	-1.000000	-1.000000	-1.000000	-1.000000	65.000000	0.000000	-1.000000	-1.000000	751742.000000	1775723108.189653
92628.045000	8567.235000	80705.205000	51453.315000	31215.195000	28712.520000	70391.745000	86393.025000	1.510187	8.397508	8.510527	6.543140	1.775150	-11.876259	9.312868	1.741171	-2.990960	4.471180	1.953280	-0.646971	0.019043	0.751768	-1.000000	-1.000000	-1.000000	-1.000000	-1.000000	-1.000000	-1.000000	65.000000	0.000000	-1.000000	-1.000000	751743.000000	1775723108.204843
92640.735000	8585.280000	80721.585000	51471.315000	31233.915000	28745.010000	70394.580000	86395.095000	1.355515	5.482348	5.221937	1.798753	-4.454385	-16.108056	7.504383	7.257081	-2.990960	4.471180	1.953280	-0.646971	0.019043	0.751768	-1.000000	-1.000000	-1.000000	-1.000000	-1.000000	-1.000000	-1.000000	65.000000	0.000000	-1.000000	-1.000000	751744.000000	1775723108.204860
92643.795000	8584.605000	80719.020000	51470.910000	31236.840000	28758.645000	70398.405000	86399.505000	-0.272172	1.015115	0.606970	-2.371891	-7.060254	-11.552651	1.092419	5.751678	-2.990960	4.471180	1.953280	-0.646971	0.019043	0.751768	-1.000000	-1.000000	-1.000000	-1.000000	-1.000000	-1.000000	-1.000000	65.000000	0.000000	-1.000000	-1.000000	751745.000000	1775723108.204881
92634.120000	8572.815000	80702.865000	51459.345000	31224.690000	28734.930000	70394.715000	86395.230000	-1.054586	-1.914061	-2.619880	-3.935166	-5.204688	-0.396513	-4.998971	1.130496	-2.990960	4.471180	1.953280	-0.646971	0.019043	0.751768	-1.000000	-1.000000	-1.000000	-1.000000	-1.000000	-1.000000	-1.000000	65.000000	0.000000	-1.000000	-1.000000	751746.000000	1775723108.204890
92626.020000	8569.125000	80696.655000	51457.410000	31221.540000	28719.495000	70391.295000	86389.695000	-1.192916	-3.612211	-4.866444	-4.289102	-2.234306	8.674291	-7.677736	-2.562787	-2.990960	4.471180	1.953280	-0.646971	0.019043	0.751768	-1.000000	-1.000000	-1.000000	-1.000000	-1.000000	-1.000000	-1.000000	65.000000	0.000000	-1.000000	-1.000000	751747.000000	1775723108.204902
92632.815000	8571.285000	80701.920000	51461.730000	31220.145000	28701.270000	70391.565000	86393.970000	-1.605910	-4.843530	-6.487062	-4.622248	-1.024347	8.952846	-6.818589	-3.792912	-2.990960	4.471180	1.953280	-0.646971	0.019043	0.751768	-1.000000	-1.000000	-1.000000	-1.000000	-1.000000	-1.000000	-1.000000	65.000000	0.000000	-1.000000	-1.000000	751748.000000	1775723108.204911
92641.095000	8583.660000	80713.530000	51475.995000	31230.180000	28701.405000	70384.590000	86393.250000	-1.486912	-4.625318	-5.858220	-3.889827	-1.083506	2.028150	-3.809272	-2.580541	-2.990960	4.471180	1.953280	-0.646971	0.019043	0.751768	-1.000000	-1.000000	-1.000000	-1.000000	-1.000000	-1.000000	-1.000000	65.000000	0.000000	-1.000000	-1.000000	751749.000000	1775723108.219625
92639.745000	8582.085000	80712.360000	51475.410000	31233.960000	28730.520000	70393.815000	86393.430000	0.285836	-1.946714	-1.923774	-0.977438	-0.330901	-4.484602	-0.190086	0.144767	-2.990960	4.471180	1.953280	-0.646971	0.019043	0.751768	-1.000000	-1.000000	-1.000000	-1.000000	-1.000000	-1.000000	-1.000000	65.000000	0.000000	-1.000000	-1.000000	751750.000000	1775723108.219644
92633.310000	8574.165000	80704.170000	51470.370000	31239.360000	28774.485000	70397.595000	86391.360000	2.721749	1.839770	3.226216	2.769652	1.947326	-3.260157	3.205804	2.771926	-2.197440	4.516960	3.036740	-0.648253	0.019409	0.750486	-1.000000	-1.000000	-1.000000	-1.000000	-1.000000	-1.000000	-1.000000	65.000000	0.000000	-1.000000	-1.000000	751751.000000	1775723108.219665
92630.565000	8569.485000	80699.085000	51467.175000	31235.760000	28765.305000	70396.110000	86390.190000	3.589822	3.842460	5.905405	4.515438	4.310695	6.012269	5.819532	3.946100	-2.197440	4.516960	3.036740	-0.648253	0.019409	0.750486	-1.000000	-1.000000	-1.000000	-1.000000	-1.000000	-1.000000	-1.000000	65.000000	0.000000	-1.000000	-1.000000	751752.000000	1775723108.219674
92621.610000	8559.945000	80686.125000	51453.360000	31217.040000	28730.880000	70390.035000	86384.880000	1.991720	2.677169	4.392468	2.879155	4.423061	14.337026	6.508171	3.282107	-2.197440	4.516960	3.036740	-0.648253	0.019409	0.750486	-1.000000	-1.000000	-1.000000	-1.000000	-1.000000	-1.000000	-1.000000	65.000000	0.000000	-1.000000	-1.000000	751753.000000	1775723108.219684
92607.300000	8553.195000	80674.425000	51449.265000	31219.335000	28731.600000	70378.785000	86371.920000	-1.198748	-0.516123	-0.067786	-1.068148	1.230253	11.932434	4.313034	1.121242	-2.197440	4.516960	3.036740	-0.648253	0.019409	0.750486	-1.000000	-1.000000	-1.000000	-1.000000	-1.000000	-1.000000	-1.000000	65.000000	0.000000	-1.000000	-1.000000	751754.000000	1775723108.219692
92616.255000	8565.030000	80686.890000	51462.990000	31231.935000	28717.965000	70380.720000	86378.085000	-4.115438	-3.124785	-4.308239	-4.383298	-3.007963	-0.699440	-0.040809	-1.586818	-2.197440	4.516960	3.036740	-0.648253	0.019409	0.750486	-1.000000	-1.000000	-1.000000	-1.000000	-1.000000	-1.000000	-1.000000	65.000000	0.000000	-1.000000	-1.000000	751755.000000	1775723108.222878
92638.530000	8584.425000	80706.105000	51482.835000	31247.685000	28690.605000	70397.820000	86398.020000	-4.077723	-2.389288	-4.602600	-3.715942	-4.154363	-14.663462	-3.667015	-2.732402	-2.197440	4.516960	3.036740	-0.648253	0.019409	0.750486	-1.000000	-1.000000	-1.000000	-1.000000	-1.000000	-1.000000	-1.000000	65.000000	0.000000	-1.000000	-1.000000	751756.000000	1775723108.222896
92645.595000	8592.930000	80712.630000	51490.260000	31253.805000	28723.635000	70398.855000	86401.080000	0.449858	2.333657	0.363632	1.615735	-0.693102	-21.429249	-3.632505	-0.483114	-2.197440	4.516960	3.036740	-0.648253	0.019409	0.750486	-1.000000	-1.000000	-1.000000	-1.000000	-1.000000	-1.000000	-1.000000	65.000000	0.000000	-1.000000	-1.000000	751757.000000	1775723108.222916
92632.545000	8578.845000	80698.410000	51479.505000	31253.805000	28798.605000	70396.515000	86391.585000	6.688194	7.673228	6.943384	7.754182	4.428957	-15.340334	-0.365076	3.572426	-2.197440	4.516960	3.036740	-0.648253	0.019409	0.750486	-1.000000	-1.000000	-1.000000	-1.000000	-1.000000	-1.000000	-1.000000	65.000000	0.000000	-1.000000	-1.000000	751758.000000	1775723108.222925
92632.950000	8577.495000	80694.945000	51475.995000	31248.945000	28775.520000	70390.935000	86389.470000	9.167557	8.558845	9.219470	9.232678	6.666469	2.842841	2.625884	5.303999	-2.197440	4.516960	3.036740	-0.648253	0.019409	0.750486	-1.000000	-1.000000	-1.000000	-1.000000	-1.000000	-1.000000	-1.000000	65.000000	0.000000	-1.000000	-1.000000	751759.000000	1775723108.234516
92637.000000	8583.480000	80699.130000	51482.250000	31252.590000	28752.435000	70391.160000	86388.255000	5.686114	3.653612	5.126487	4.504619	4.040703	20.727000	2.664063	2.789738	-2.197440	4.516960	3.036740	-0.648253	0.019409	0.750486	-1.000000	-1.000000	-1.000000	-1.000000	-1.000000	-1.000000	-1.000000	65.000000	0.000000	-1.000000	-1.000000	751760.000000	1775723108.234533
92638.890000	8583.615000	80696.925000	51481.080000	31250.880000	28754.145000	70398.045000	86392.260000	-0.749754	-3.296007	-1.870829	-2.739744	-1.481003	23.840357	0.318455	-1.864254	-2.411080	4.410140	3.158820	-0.649840	0.023498	0.749815	-1.000000	-1.000000	-1.000000	-1.000000	-1.000000	-1.000000	-1.000000	65.000000	0.000000	-1.000000	-1.000000	751761.000000	1775723108.234554
92636.055000	8581.500000	80693.190000	51478.335000	31249.485000	28751.220000	70398.495000	86392.305000	-5.886775	-7.869236	-7.136203	-7.873158	-6.313033	11.058641	-1.894536	-5.193983	-2.411080	4.410140	3.158820	-0.649840	0.023498	0.749815	-1.000000	-1.000000	-1.000000	-1.000000	-1.000000	-1.000000	-1.000000	65.000000	0.000000	-1.000000	-1.000000	751762.000000	1775723108.234574
92635.380000	8582.085000	80693.910000	51481.260000	31251.915000	28749.735000	70400.520000	86392.710000	-7.748516	-8.486101	-8.553999	-8.921417	-8.072274	-6.669587	-2.365702	-5.453954	-2.411080	4.410140	3.158820	-0.649840	0.023498	0.749815	-1.000000	-1.000000	-1.000000	-1.000000	-1.000000	-1.000000	-1.000000	65.000000	0.000000	-1.000000	-1.000000	751763.000000	1775723108.234594
92638.305000	8584.875000	80696.115000	51485.265000	31252.860000	28740.060000	70403.985000	86396.895000	-6.574851	-5.946526	-6.407528	-6.314640	-6.362163	-18.374834	-1.360906	-3.214830	-2.411080	4.410140	3.158820	-0.649840	0.023498	0.749815	-1.000000	-1.000000	-1.000000	-1.000000	-1.000000	-1.000000	-1.000000	65.000000	0.000000	-1.000000	-1.000000	751764.000000	1775723108.234603
92638.215000	8584.470000	80692.695000	51483.465000	31248.945000	28727.280000	70403.670000	86396.985000	-3.500308	-1.921676	-2.268868	-1.752083	-2.485219	-20.072715	0.041577	-0.093560	-2.411080	4.410140	3.158820	-0.649840	0.023498	0.749815	-1.000000	-1.000000	-1.000000	-1.000000	-1.000000	-1.000000	-1.000000	65.000000	0.000000	-1.000000	-1.000000	751765.000000	1775723108.248340
92636.100000	8583.255000	80689.410000	51482.295000	31251.330000	28739.745000	70403.535000	86396.355000	-0.013155	1.774031	1.676065	2.441816	1.428719	-13.721070	0.861751	2.311861	-2.411080	4.410140	3.158820	-0.649840	0.023498	0.749815	-1.000000	-1.000000	-1.000000	-1.000000	-1.000000	-1.000000	-1.000000	65.000000	0.000000	-1.000000	-1.000000	751766.000000	1775723108.248359
92636.100000	8584.335000	80689.275000	51485.985000	31260.060000	28761.435000	70404.930000	86396.760000	2.453535	3.815658	3.757140	4.560027	4.044877	-2.743271	0.699934	3.028200	-2.411080	4.410140	3.158820	-0.649840	0.023498	0.749815	-1.000000	-1.000000	-1.000000	-1.000000	-1.000000	-1.000000	-1.000000	65.000000	0.000000	-1.000000	-1.000000	751767.000000	1775723108.313848
92636.370000	8587.485000	80689.680000	51488.505000	31258.755000	28752.885000	70404.120000	86395.140000	3.291485	4.023302	3.817751	4.539309	5.282074	9.162917	-0.091966	2.122848	-2.411080	4.410140	3.158820	-0.649840	0.023498	0.749815	-1.000000	-1.000000	-1.000000	-1.000000	-1.000000	-1.000000	-1.000000	65.000000	0.000000	-1.000000	-1.000000	751768.000000	1775723108.313869
92629.665000	8581.050000	80680.545000	51481.035000	31252.545000	28752.345000	70401.105000	86389.785000	2.742271	3.009387	2.639208	3.186635	5.024929	16.864884	-0.933888	0.342707	-2.411080	4.410140	3.158820	-0.649840	0.023498	0.749815	-1.000000	-1.000000	-1.000000	-1.000000	-1.000000	-1.000000	-1.000000	65.000000	0.000000	-1.000000	-1.000000	751769.000000	1775723108.313966
92630.385000	8577.180000	80679.555000	51484.905000	31266.135000	28747.845000	70401.915000	86392.260000	1.339403	1.238790	0.873739	1.123647	3.173023	16.495966	-1.467949	-1.424415	-2.411080	4.410140	3.158820	-0.649840	0.023498	0.749815	-1.000000	-1.000000	-1.000000	-1.000000	-1.000000	-1.000000	-1.000000	65.000000	0.000000	-1.000000	-1.000000	751770.000000	1775723108.313979
92630.610000	8578.035000	80679.330000	51487.020000	31271.310000	28738.305000	70399.800000	86393.610000	-0.107820	-0.815323	-0.779522	-0.834833	0.938752	8.876588	-1.470953	-2.230066	-2.166920	3.418240	2.105880	-0.647764	0.025574	0.751097	-1.000000	-1.000000	-1.000000	-1.000000	-1.000000	-1.000000	-1.000000	65.000000	0.000000	-1.000000	-1.000000	751771.000000	1775723108.313997
92623.635000	8571.600000	80673.660000	51483.555000	31273.065000	28749.960000	70391.520000	86381.055000	-0.855666	-2.280224	-1.523714	-1.784682	-0.272677	-1.265970	-1.038008	-1.783056	-2.166920	3.418240	2.105880	-0.647764	0.025574	0.751097	-1.000000	-1.000000	-1.000000	-1.000000	-1.000000	-1.000000	-1.000000	65.000000	0.000000	-1.000000	-1.000000	751772.000000	1775723108.314006
92617.875000	8566.830000	80667.090000	51475.185000	31257.360000	28728.495000	70381.395000	86367.105000	-1.013722	-2.648694	-1.344385	-1.853818	-0.948612	-8.737650	-0.789925	-1.206249	-2.166920	3.418240	2.105880	-0.647764	0.025574	0.751097	-1.000000	-1.000000	-1.000000	-1.000000	-1.000000	-1.000000	-1.000000	65.000000	0.000000	-1.000000	-1.000000	751773.000000	1775723108.314017
