Channel1	Channel2	Channel3	Channel4	Channel5	Channel6	Channel7	Channel8	FilteredChannel1	FilteredChannel2	FilteredChannel3	FilteredChannel4	FilteredChannel5	FilteredChannel6	FilteredChannel7	FilteredChannel8	GyroX	GyroY	GyroZ	AccX	AccY	AccZ	PPG1	PPG2	rawPPG1	rawPPG2	rawPPG3	Hr	Hrv	Battery	Trigger	PhysicalTrigger	AutoTrigger	NumMeasurements	Timestamp
-13507.470000	-3531.780000	566.955000	-6434.820000	-24006.780000	-34652.430000	36411.075000	58027.230000	-3.815231	-3.020238	-0.720419	2.379469	12.147481	31.881469	1.431847	-1.574847	-1.464960	2.517900	-1.510740	-0.567503	0.153503	0.793394	-1.000000	-1.000000	-1.000000	-1.000000	-1.000000	-1.000000	-1.000000	64.000000	0.000000	-1.000000	-1.000000	525695.000000	1775713974.858037
-13512.555000	-3540.915000	555.930000	-6445.935000	-24017.580000	-34607.700000	36410.400000	58023.855000	0.536164	1.670040	3.558321	5.012979	10.352908	27.504766	-0.125083	1.180035	-1.464960	2.517900	-1.510740	-0.567503	0.153503	0.793394	-1.000000	-1.000000	-1.000000	-1.000000	-1.000000	-1.000000	-1.000000	64.000000	0.000000	-1.000000	-1.000000	525696.000000	1775713974.858064
-13504.545000	-3529.620000	567.450000	-6432.570000	-23995.530000	-34551.225000	36412.020000	58029.795000	4.879752	5.535682	6.035871	5.078794	2.858793	14.721362	-1.288953	3.773150	-1.464960	2.517900	-1.510740	-0.567503	0.153503	0.793394	-1.000000	-1.000000	-1.000000	-1.000000	-1.000000	-1.000000	-1.000000	64.000000	0.000000	-1.000000	-1.000000	525697.000000	1775713974.858092
-13493.475000	-3513.375000	582.885000	-6418.080000	-23986.305000	-34547.670000	36414.630000	58035.510000	7.669620	7.793235	6.778733	4.353887	-3.449716	5.357865	-1.714421	5.121152	-1.464960	2.517900	-1.510740	-0.567503	0.153503	0.793394	-1.000000	-1.000000	-1.000000	-1.000000	-1.000000	-1.000000	-1.000000	64.000000	0.000000	-1.000000	-1.000000	525698.000000	1775713974.858103
-13489.515000	-3511.620000	582.660000	-6418.395000	-23992.380000	-34607.565000	36412.920000	58035.240000	8.702214	8.980108	7.083272	4.762792	-4.319679	-1.075012	-1.379870	5.137258	-1.464960	2.517900	-1.510740	-0.567503	0.153503	0.793394	-1.000000	-1.000000	-1.000000	-1.000000	-1.000000	-1.000000	-1.000000	64.000000	0.000000	-1.000000	-1.000000	525699.000000	1775713974.858773
-13507.920000	-3534.255000	558.945000	-6444.540000	-24027.165000	-34708.545000	36405.540000	58027.455000	7.347667	8.093164	6.159935	4.958285	-2.281367	-13.581938	-0.877658	3.614924	-1.464960	2.517900	-1.510740	-0.567503	0.153503	0.793394	-1.000000	-1.000000	-1.000000	-1.000000	-1.000000	-1.000000	-1.000000	64.000000	0.000000	-1.000000	-1.000000	525700.000000	1775713974.858789
-13512.555000	-3536.100000	559.755000	-6441.255000	-24012.405000	-34658.595000	36402.120000	58021.875000	2.591822	3.217084	1.950394	2.000594	-2.102947	-33.301760	-0.996702	0.320375	-0.396760	1.770160	0.595140	-0.567198	0.153930	0.794432	-1.000000	-1.000000	-1.000000	-1.000000	-1.000000	-1.000000	-1.000000	64.000000	0.000000	-1.000000	-1.000000	525701.000000	1775713974.862207
-13505.535000	-3528.945000	567.630000	-6429.960000	-23992.740000	-34682.310000	36399.735000	58026.735000	-4.175070	-4.264161	-4.355628	-3.323692	-3.419423	-45.606896	-1.698303	-3.702100	-0.396760	1.770160	0.595140	-0.567198	0.153930	0.794432	-1.000000	-1.000000	-1.000000	-1.000000	-1.000000	-1.000000	-1.000000	64.000000	0.000000	-1.000000	-1.000000	525702.000000	1775713974.862233
-13505.895000	-3532.815000	560.925000	-6437.655000	-24008.265000	-34693.470000	36402.345000	58028.310000	-8.905028	-9.659501	-8.513720	-6.788039	-2.449904	-36.913565	-1.984773	-6.122143	-0.396760	1.770160	0.595140	-0.567198	0.153930	0.794432	-1.000000	-1.000000	-1.000000	-1.000000	-1.000000	-1.000000	-1.000000	64.000000	0.000000	-1.000000	-1.000000	525703.000000	1775713974.865765
-13515.975000	-3542.625000	551.430000	-6446.700000	-24019.110000	-34604.370000	36404.145000	58020.795000	-9.065791	-10.149043	-8.397992	-6.469286	0.636601	-9.266147	-0.944827	-5.590397	-0.396760	1.770160	0.595140	-0.567198	0.153930	0.794432	-1.000000	-1.000000	-1.000000	-1.000000	-1.000000	-1.000000	-1.000000	64.000000	0.000000	-1.000000	-1.000000	525704.000000	1775713974.865789
-13512.330000	-3541.140000	551.250000	-6444.495000	-24006.960000	-34582.140000	36407.790000	58023.900000	-5.786303	-6.880070	-5.458297	-4.016390	2.616987	26.015276	1.294057	-3.057498	-0.396760	1.770160	0.595140	-0.567198	0.153930	0.794432	-1.000000	-1.000000	-1.000000	-1.000000	-1.000000	-1.000000	-1.000000	64.000000	0.000000	-1.000000	-1.000000	525705.000000	1775713974.871913
-13509.630000	-3539.565000	550.305000	-6445.665000	-24007.095000	-34602.120000	36412.785000	58027.095000	-1.363594	-2.180987	-1.715657	-1.202292	2.793082	53.324747	3.665690	-0.128045	-0.396760	1.770160	0.595140	-0.567198	0.153930	0.794432	-1.000000	-1.000000	-1.000000	-1.000000	-1.000000	-1.000000	-1.000000	64.000000	0.000000	-1.000000	-1.000000	525706.000000	1775713974.871938
-13507.155000	-3534.345000	556.245000	-6438.690000	-24004.890000	-34600.050000	36415.890000	58029.435000	2.727661	2.446907	1.885340	1.462046	2.500106	57.144086	4.986677	2.355924	-0.396760	1.770160	0.595140	-0.567198	0.153930	0.794432	-1.000000	-1.000000	-1.000000	-1.000000	-1.000000	-1.000000	-1.000000	64.000000	0.000000	-1.000000	-1.000000	525707.000000	1775713974.881040
-13506.525000	-3533.130000	556.020000	-6440.670000	-24011.505000	-34618.365000	36411.885000	58028.670000	5.453798	5.975496	4.853846	3.734110	2.082153	34.603850	4.457532	3.848794	-0.396760	1.770160	0.595140	-0.567198	0.153930	0.794432	-1.000000	-1.000000	-1.000000	-1.000000	-1.000000	-1.000000	-1.000000	64.000000	0.000000	-1.000000	-1.000000	525708.000000	1775713974.881067
-13509.990000	-3538.440000	549.180000	-6445.485000	-24011.685000	-34622.505000	36413.775000	58026.330000	5.969104	7.318949	6.307983	4.826891	0.976213	-1.392369	1.964234	3.786969	-0.396760	1.770160	0.595140	-0.567198	0.153930	0.794432	-1.000000	-1.000000	-1.000000	-1.000000	-1.000000	-1.000000	-1.000000	64.000000	0.000000	-1.000000	-1.000000	525709.000000	1775713974.881095
-13503.780000	-3532.320000	552.870000	-6438.825000	-24004.620000	-34622.415000	36411.255000	58031.820000	4.246367	5.907619	5.397186	4.036445	-0.639628	-32.376762	-1.526977	2.231921	-0.396760	1.770160	0.595140	-0.567198	0.153930	0.794432	-1.000000	-1.000000	-1.000000	-1.000000	-1.000000	-1.000000	-1.000000	64.000000	0.000000	-1.000000	-1.000000	525710.000000	1775713974.881107
-13503.420000	-3531.465000	551.430000	-6438.915000	-24004.665000	-34622.820000	36405.900000	58027.005000	1.457093	2.670721	2.614486	1.956973	-1.618081	-45.338038	-4.510264	0.115361	0.076300	1.083460	0.274680	-0.569762	0.152160	0.793882	-1.000000	-1.000000	-1.000000	-1.000000	-1.000000	-1.000000	-1.000000	64.000000	0.000000	-1.000000	-1.000000	525711.000000	1775713974.887029
-13507.110000	-3534.525000	548.460000	-6440.805000	-24007.680000	-34635.510000	36403.065000	58020.525000	-1.038964	-0.677097	-0.506365	-0.175866	-1.457678	-38.523533	-5.989632	-1.766177	0.076300	1.083460	0.274680	-0.569762	0.152160	0.793882	-1.000000	-1.000000	-1.000000	-1.000000	-1.000000	-1.000000	-1.000000	64.000000	0.000000	-1.000000	-1.000000	525712.000000	1775713974.887058
-13507.785000	-3532.365000	552.375000	-6438.150000	-24014.475000	-34655.265000	36405.675000	58024.170000	-2.760994	-3.082474	-2.716791	-1.731694	-1.033298	-20.120498	-5.544986	-3.115185	0.076300	1.083460	0.274680	-0.569762	0.152160	0.793882	-1.000000	-1.000000	-1.000000	-1.000000	-1.000000	-1.000000	-1.000000	64.000000	0.000000	-1.000000	-1.000000	525713.000000	1775713974.887087
-13496.490000	-3520.305000	563.805000	-6430.005000	-24005.475000	-34607.160000	36409.275000	58027.860000	-3.434149	-3.928498	-3.166428	-2.348632	-1.083782	-0.135438	-3.100918	-3.309650	0.076300	1.083460	0.274680	-0.569762	0.152160	0.793882	-1.000000	-1.000000	-1.000000	-1.000000	-1.000000	-1.000000	-1.000000	64.000000	0.000000	-1.000000	-1.000000	525714.000000	1775713974.887100
-13489.245000	-3511.260000	573.930000	-6419.025000	-23981.940000	-34567.155000	36408.375000	58033.215000	-2.418087	-2.668843	-1.447224	-1.565947	-0.624059	17.034103	0.616830	-1.750802	0.076300	1.083460	0.274680	-0.569762	0.152160	0.793882	-1.000000	-1.000000	-1.000000	-1.000000	-1.000000	-1.000000	-1.000000	64.000000	0.000000	-1.000000	-1.000000	525715.000000	1775713974.889532
-13487.985000	-3507.480000	581.625000	-6408.315000	-23971.455000	-34647.255000	36398.475000	58031.055000	0.074631	0.144259	1.595460	0.530261	1.844373	28.279782	3.763532	0.928211	0.076300	1.083460	0.274680	-0.569762	0.152160	0.793882	-1.000000	-1.000000	-1.000000	-1.000000	-1.000000	-1.000000	-1.000000	64.000000	0.000000	-1.000000	-1.000000	525716.000000	1775713974.889555
-13500.810000	-3525.885000	562.140000	-6429.330000	-24004.800000	-34733.655000	36405.135000	58028.985000	2.063309	2.168040	3.509880	2.326420	4.690209	25.057279	4.633505	2.958528	0.076300	1.083460	0.274680	-0.569762	0.152160	0.793882	-1.000000	-1.000000	-1.000000	-1.000000	-1.000000	-1.000000	-1.000000	64.000000	0.000000	-1.000000	-1.000000	525717.000000	1775713974.893576
-13518.990000	-3550.005000	534.105000	-6460.920000	-24033.915000	-34678.440000	36406.935000	58014.495000	1.140191	0.587489	1.323948	0.790667	3.081915	5.078926	3.487251	2.724813	0.076300	1.083460	0.274680	-0.569762	0.152160	0.793882	-1.000000	-1.000000	-1.000000	-1.000000	-1.000000	-1.000000	-1.000000	64.000000	0.000000	-1.000000	-1.000000	525718.000000	1775713974.893603
-13523.760000	-3552.840000	534.195000	-6458.355000	-24021.900000	-34600.230000	36407.115000	58009.860000	-2.889328	-4.710791	-5.156395	-4.996126	-4.271395	-14.555181	1.902240	0.007427	0.076300	1.083460	0.274680	-0.569762	0.152160	0.793882	-1.000000	-1.000000	-1.000000	-1.000000	-1.000000	-1.000000	-1.000000	64.000000	0.000000	-1.000000	-1.000000	525719.000000	1775713974.899123
-13506.210000	-3534.705000	551.160000	-6439.320000	-24002.415000	-34602.390000	36409.500000	58020.480000	-6.618886	-9.263158	-10.935254	-10.333022	-10.921336	-14.221367	0.776926	-3.224519	0.076300	1.083460	0.274680	-0.569762	0.152160	0.793882	-1.000000	-1.000000	-1.000000	-1.000000	-1.000000	-1.000000	-1.000000	64.000000	0.000000	-1.000000	-1.000000	525720.000000	1775713974.899146
-13502.205000	-3534.570000	547.695000	-6442.470000	-24003.495000	-34622.640000	36417.870000	58023.810000	-5.686583	-7.762266	-10.039634	-9.054526	-9.635552	3.046926	0.224144	-3.903821	-1.495480	2.334780	-1.281840	-0.568846	0.152893	0.794248	-1.000000	-1.000000	-1.000000	-1.000000	-1.000000	-1.000000	-1.000000	64.000000	0.000000	-1.000000	-1.000000	525721.000000	1775713974.911556
-13506.840000	-3541.770000	539.910000	-6451.875000	-24017.310000	-34636.635000	36408.420000	58019.220000	0.173804	-0.316245	-2.502989	-1.262355	-1.295857	17.244344	0.018268	-1.176881	-1.495480	2.334780	-1.281840	-0.568846	0.152893	0.794248	-1.000000	-1.000000	-1.000000	-1.000000	-1.000000	-1.000000	-1.000000	64.000000	0.000000	-1.000000	-1.000000	525722.000000	1775713974.911581
-13513.725000	-3549.870000	531.720000	-6457.995000	-24021.405000	-34620.030000	36402.165000	58013.730000	6.393801	7.425098	5.838745	6.904635	6.806460	15.814833	-0.698266	2.427964	-1.495480	2.334780	-1.281840	-0.568846	0.152893	0.794248	-1.000000	-1.000000	-1.000000	-1.000000	-1.000000	-1.000000	-1.000000	64.000000	0.000000	-1.000000	-1.000000	525723.000000	1775713974.911606
-13513.095000	-3547.395000	536.580000	-6449.940000	-24010.470000	-34610.895000	36407.610000	58012.875000	8.476745	10.399364	9.868905	10.416585	9.570320	3.136874	-2.329890	3.956243	-1.495480	2.334780	-1.281840	-0.568846	0.152893	0.794248	-1.000000	-1.000000	-1.000000	-1.000000	-1.000000	-1.000000	-1.000000	64.000000	0.000000	-1.000000	-1.000000	525724.000000	1775713974.911618
-13509.045000	-3543.885000	540.720000	-6447.060000	-24009.030000	-34621.470000	36408.690000	58015.305000	6.030446	8.313741	9.151776	9.232173	7.768326	-9.567007	-3.588198	2.918328	-1.495480	2.334780	-1.281840	-0.568846	0.152893	0.794248	-1.000000	-1.000000	-1.000000	-1.000000	-1.000000	-1.000000	-1.000000	64.000000	0.000000	-1.000000	-1.000000	525725.000000	1775713974.912039
-13505.940000	-3540.915000	542.205000	-6447.015000	-24008.940000	-34622.145000	36404.190000	58016.295000	1.896024	4.160988	6.177463	5.898926	4.426013	-15.843176	-3.130475	0.936406	-1.495480	2.334780	-1.281840	-0.568846	0.152893	0.794248	-1.000000	-1.000000	-1.000000	-1.000000	-1.000000	-1.000000	-1.000000	64.000000	0.000000	-1.000000	-1.000000	525726.000000	1775713974.912058
-13505.805000	-3541.230000	541.035000	-6449.220000	-24010.425000	-34621.155000	36403.200000	58017.600000	-1.195094	0.621793	2.969389	2.215151	1.186304	-15.312403	-1.372829	-0.389307	-1.495480	2.334780	-1.281840	-0.568846	0.152893	0.794248	-1.000000	-1.000000	-1.000000	-1.000000	-1.000000	-1.000000	-1.000000	64.000000	0.000000	-1.000000	-1.000000	525727.000000	1775713974.913464
-13504.230000	-3541.860000	539.685000	-6453.135000	-24017.895000	-34646.490000	36407.745000	58020.030000	-2.451814	-1.536089	0.085019	-1.246496	-1.704659	-10.492906	0.523081	-0.632218	-1.495480	2.334780	-1.281840	-0.568846	0.152893	0.794248	-1.000000	-1.000000	-1.000000	-1.000000	-1.000000	-1.000000	-1.000000	64.000000	0.000000	-1.000000	-1.000000	525728.000000	1775713974.913480
-13504.680000	-3543.705000	538.920000	-6453.990000	-24020.505000	-34651.080000	36408.195000	58018.185000	-2.471059	-2.747563	-2.416678	-4.119294	-4.216433	-4.964081	2.026281	-0.277432	-1.495480	2.334780	-1.281840	-0.568846	0.152893	0.794248	-1.000000	-1.000000	-1.000000	-1.000000	-1.000000	-1.000000	-1.000000	64.000000	0.000000	-1.000000	-1.000000	525729.000000	1775713974.921008
-13503.825000	-3542.040000	542.205000	-6449.670000	-24015.105000	-34647.705000	36402.435000	58014.945000	-2.069069	-3.427409	-4.138208	-5.636667	-5.663027	-0.637096	2.815317	-0.140246	-1.495480	2.334780	-1.281840	-0.568846	0.152893	0.794248	-1.000000	-1.000000	-1.000000	-1.000000	-1.000000	-1.000000	-1.000000	64.000000	0.000000	-1.000000	-1.000000	525730.000000	1775713974.921035
-13509.945000	-3545.325000	539.055000	-6451.965000	-24015.555000	-34653.330000	36396.135000	58008.645000	-1.788831	-3.555431	-4.553580	-5.118077	-4.990867	3.175495	2.286239	-0.796523	-1.297100	2.868880	0.488320	-0.568724	0.152588	0.793455	-1.000000	-1.000000	-1.000000	-1.000000	-1.000000	-1.000000	-1.000000	64.000000	0.000000	-1.000000	-1.000000	525731.000000	1775713974.927030
-13509.765000	-3541.455000	543.060000	-6446.790000	-24011.280000	-34649.955000	36396.495000	58007.295000	-1.839699	-2.999909	-3.662301	-2.868858	-2.201264	6.977747	0.436883	-2.057854	-1.297100	2.868880	0.488320	-0.568724	0.152588	0.793455	-1.000000	-1.000000	-1.000000	-1.000000	-1.000000	-1.000000	-1.000000	64.000000	0.000000	-1.000000	-1.000000	525732.000000	1775713974.927054
-13508.280000	-3538.845000	545.130000	-6443.415000	-24005.745000	-34635.240000	36398.970000	58008.690000	-1.875615	-1.708637	-1.920372	0.033857	1.391169	10.098933	-1.447798	-2.910264	-1.297100	2.868880	0.488320	-0.568724	0.152588	0.793455	-1.000000	-1.000000	-1.000000	-1.000000	-1.000000	-1.000000	-1.000000	64.000000	0.000000	-1.000000	-1.000000	525733.000000	1775713974.942192
-13513.410000	-3544.605000	540.045000	-6448.635000	-24009.705000	-34630.155000	36398.430000	58004.955000	-1.336402	-0.019758	-0.037716	2.345009	4.104027	11.831221	-1.895660	-2.392012	-1.297100	2.868880	0.488320	-0.568724	0.152588	0.793455	-1.000000	-1.000000	-1.000000	-1.000000	-1.000000	-1.000000	-1.000000	64.000000	0.000000	-1.000000	-1.000000	525734.000000	1775713974.942225
-13508.955000	-3544.965000	537.930000	-6449.670000	-24010.020000	-34623.990000	36401.805000	58012.740000	-0.210522	1.143683	1.025755	2.930609	4.585618	11.344354	-0.704034	-0.506311	-1.297100	2.868880	0.488320	-0.568724	0.152588	0.793455	-1.000000	-1.000000	-1.000000	-1.000000	-1.000000	-1.000000	-1.000000	64.000000	0.000000	-1.000000	-1.000000	525735.000000	1775713974.942254
-13504.095000	-3544.740000	535.185000	-6452.505000	-24010.650000	-34616.745000	36399.825000	58014.270000	1.235044	1.224107	0.804506	1.585929	2.658327	7.956502	1.104451	2.019837	-1.297100	2.868880	0.488320	-0.568724	0.152588	0.793455	-1.000000	-1.000000	-1.000000	-1.000000	-1.000000	-1.000000	-1.000000	64.000000	0.000000	-1.000000	-1.000000	525736.000000	1775713974.942267
-13502.520000	-3541.140000	540.045000	-6446.745000	-24001.965000	-34624.755000	36404.820000	58018.545000	2.750313	0.747077	-0.028124	-0.491584	-0.214518	2.069622	2.321397	4.169610	-1.297100	2.868880	0.488320	-0.568724	0.152588	0.793455	-1.000000	-1.000000	-1.000000	-1.000000	-1.000000	-1.000000	-1.000000	64.000000	0.000000	-1.000000	-1.000000	525737.000000	1775713974.942282
-13499.280000	-3538.170000	542.880000	-6448.320000	-24008.175000	-34654.950000	36399.555000	58020.705000	3.723333	0.595410	-0.252102	-1.677275	-2.162057	-5.459405	2.319888	4.919212	-1.297100	2.868880	0.488320	-0.568724	0.152588	0.793455	-1.000000	-1.000000	-1.000000	-1.000000	-1.000000	-1.000000	-1.000000	64.000000	0.000000	-1.000000	-1.000000	525738.000000	1775713974.942293
-13490.640000	-3533.400000	545.625000	-6450.480000	-24019.785000	-34667.550000	36394.245000	58026.240000	3.617243	1.082733	0.656279	-1.434480	-2.875972	-13.496825	0.999816	3.906610	-1.297100	2.868880	0.488320	-0.568724	0.152588	0.793455	-1.000000	-1.000000	-1.000000	-1.000000	-1.000000	-1.000000	-1.000000	64.000000	0.000000	-1.000000	-1.000000	525739.000000	1775713974.943365
-13498.290000	-3542.715000	534.285000	-6463.305000	-24046.065000	-34810.605000	36387.540000	58021.335000	2.405819	1.589714	1.784681	-0.745458	-3.774287	-21.433904	-1.327160	1.556246	-1.297100	2.868880	0.488320	-0.568724	0.152588	0.793455	-1.000000	-1.000000	-1.000000	-1.000000	-1.000000	-1.000000	-1.000000	64.000000	0.000000	-1.000000	-1.000000	525740.000000	1775713974.943385
-13506.165000	-3542.040000	545.310000	-6445.395000	-24015.015000	-34782.525000	36398.070000	58013.910000	-0.006101	1.043668	1.811623	-0.481569	-5.057992	-28.572732	-3.431344	-1.577644	-1.632820	2.731540	-0.518840	-0.567931	0.152832	0.793028	-1.000000	-1.000000	-1.000000	-1.000000	-1.000000	-1.000000	-1.000000	64.000000	0.000000	-1.000000	-1.000000	525741.000000	1775713974.943410
-13505.265000	-3541.680000	545.895000	-6447.195000	-24017.940000	-34651.755000	36396.090000	58014.360000	-3.335596	-0.641241	0.882868	0.067482	-3.994705	-25.770246	-3.570316	-4.777271	-1.632820	2.731540	-0.518840	-0.567931	0.152832	0.793028	-1.000000	-1.000000	-1.000000	-1.000000	-1.000000	-1.000000	-1.000000	64.000000	0.000000	-1.000000	-1.000000	525742.000000	1775713974.943422
-13499.145000	-3535.605000	551.565000	-6439.320000	-24009.795000	-34629.435000	36392.535000	58018.545000	-5.823952	-2.102756	0.188375	1.625389	0.935691	-0.887047	-1.501446	-6.563334	-1.632820	2.731540	-0.518840	-0.567931	0.152832	0.793028	-1.000000	-1.000000	-1.000000	-1.000000	-1.000000	-1.000000	-1.000000	64.000000	0.000000	-1.000000	-1.000000	525743.000000	1775713974.945381
-13501.890000	-3542.175000	546.300000	-6439.680000	-23993.280000	-34561.125000	36398.430000	58016.745000	-5.534922	-2.164831	0.057292	3.310327	7.192265	38.786175	1.136689	-5.604405	-1.632820	2.731540	-0.518840	-0.567931	0.152832	0.793028	-1.000000	-1.000000	-1.000000	-1.000000	-1.000000	-1.000000	-1.000000	64.000000	0.000000	-1.000000	-1.000000	525744.000000	1775713974.945397
-13529.835000	-3577.140000	510.705000	-6473.115000	-24010.740000	-34493.850000	36396.225000	57996.675000	-3.138128	-1.810000	-0.845824	3.062783	10.855393	68.765283	2.842887	-2.696093	-1.632820	2.731540	-0.518840	-0.567931	0.152832	0.793028	-1.000000	-1.000000	-1.000000	-1.000000	-1.000000	-1.000000	-1.000000	64.000000	0.000000	-1.000000	-1.000000	525745.000000	1775713974.949526
-13532.220000	-3583.395000	503.865000	-6486.210000	-24047.190000	-34638.930000	36406.215000	57996.495000	-1.422005	-3.153857	-4.065178	-0.895507	8.458367	67.792159	3.281174	-0.279005	-1.632820	2.731540	-0.518840	-0.567931	0.152832	0.793028	-1.000000	-1.000000	-1.000000	-1.000000	-1.000000	-1.000000	-1.000000	64.000000	0.000000	-1.000000	-1.000000	525746.000000	1775713974.949544
-13523.490000	-3572.370000	516.735000	-6474.285000	-24041.610000	-34647.705000	36395.550000	57998.565000	-1.054280	-5.287575	-7.762110	-6.772150	-0.509281	28.610923	2.654738	0.736002	-1.632820	2.731540	-0.518840	-0.567931	0.152832	0.793028	-1.000000	-1.000000	-1.000000	-1.000000	-1.000000	-1.000000	-1.000000	64.000000	0.000000	-1.000000	-1.000000	525747.000000	1775713974.954479
-13522.995000	-3567.465000	526.905000	-6456.915000	-24006.780000	-34605.765000	36381.780000	57992.670000	0.254134	-4.224482	-7.113716	-8.865142	-9.855297	-30.982632	0.739250	1.545125	-1.632820	2.731540	-0.518840	-0.567931	0.152832	0.793028	-1.000000	-1.000000	-1.000000	-1.000000	-1.000000	-1.000000	-1.000000	64.000000	0.000000	-1.000000	-1.000000	525748.000000	1775713974.954503
-13516.155000	-3562.380000	532.440000	-6449.580000	-23995.530000	-34597.395000	36387.360000	57999.375000	3.673253	1.564627	-0.320448	-3.625675	-11.002012	-73.999436	-2.410288	2.950639	-1.632820	2.731540	-0.518840	-0.567931	0.152832	0.793028	-1.000000	-1.000000	-1.000000	-1.000000	-1.000000	-1.000000	-1.000000	64.000000	0.000000	-1.000000	-1.000000	525749.000000	1775713974.958299
-13523.985000	-3578.490000	510.930000	-6472.530000	-24021.360000	-34632.360000	36399.555000	57998.295000	7.340534	8.502848	8.239110	5.379994	-3.370035	-77.488894	-4.685395	4.562339	-1.632820	2.731540	-0.518840	-0.567931	0.152832	0.793028	-1.000000	-1.000000	-1.000000	-1.000000	-1.000000	-1.000000	-1.000000	64.000000	0.000000	-1.000000	-1.000000	525750.000000	1775713974.958320
-13531.725000	-3586.095000	505.035000	-6476.085000	-24020.370000	-34622.190000	36391.275000	57991.185000	8.255078	11.230785	11.900280	10.592694	4.759903	-48.833590	-3.757352	5.329036	-0.793520	1.724380	1.113980	-0.567931	0.153137	0.795530	-1.000000	-1.000000	-1.000000	-1.000000	-1.000000	-1.000000	-1.000000	64.000000	0.000000	-1.000000	-1.000000	525751.000000	1775713974.961378
-13527.990000	-3582.495000	506.925000	-6477.255000	-24033.960000	-34638.345000	36391.680000	57995.775000	5.205744	7.840323	8.343372	8.374609	6.468845	-9.722858	-0.459808	4.263845	-0.793520	1.724380	1.113980	-0.567931	0.153137	0.795530	-1.000000	-1.000000	-1.000000	-1.000000	-1.000000	-1.000000	-1.000000	64.000000	0.000000	-1.000000	-1.000000	525752.000000	1775713974.961399
-13526.100000	-3578.940000	509.220000	-6475.545000	-24033.780000	-34641.540000	36390.060000	57998.250000	0.207395	1.522021	1.378511	1.844486	2.186618	21.750631	2.384291	1.785459	-0.793520	1.724380	1.113980	-0.567931	0.153137	0.795530	-1.000000	-1.000000	-1.000000	-1.000000	-1.000000	-1.000000	-1.000000	64.000000	0.000000	-1.000000	-1.000000	525753.000000	1775713974.966165
-13524.210000	-3573.315000	517.725000	-6466.095000	-24024.870000	-34642.305000	36384.210000	57996.900000	-3.538479	-3.113102	-3.633837	-3.517185	-3.092286	37.105942	3.101748	-0.637741	-0.793520	1.724380	1.113980	-0.567931	0.153137	0.795530	-1.000000	-1.000000	-1.000000	-1.000000	-1.000000	-1.000000	-1.000000	64.000000	0.000000	-1.000000	-1.000000	525754.000000	1775713974.966191
-13516.380000	-3565.125000	526.860000	-6458.265000	-24016.590000	-34639.695000	36389.520000	58001.085000	-4.403119	-3.948507	-4.145294	-4.499506	-4.614133	37.097211	1.923491	-2.103068	-0.793520	1.724380	1.113980	-0.567931	0.153137	0.795530	-1.000000	-1.000000	-1.000000	-1.000000	-1.000000	-1.000000	-1.000000	64.000000	0.000000	-1.000000	-1.000000	525755.000000	1775713974.971589
-13515.525000	-3561.615000	532.800000	-6447.690000	-23998.860000	-34633.530000	36389.745000	57999.735000	-2.808204	-1.890929	-1.152123	-1.508037	-1.139268	27.702917	0.312765	-2.548230	-0.793520	1.724380	1.113980	-0.567931	0.153137	0.795530	-1.000000	-1.000000	-1.000000	-1.000000	-1.000000	-1.000000	-1.000000	64.000000	0.000000	-1.000000	-1.000000	525756.000000	1775713974.971617
-13518.405000	-3568.545000	524.520000	-6451.830000	-24005.385000	-34645.320000	36385.920000	57999.870000	-0.540952	0.429128	2.091353	2.436709	4.574677	15.091279	-0.504525	-2.350085	-0.793520	1.724380	1.113980	-0.567931	0.153137	0.795530	-1.000000	-1.000000	-1.000000	-1.000000	-1.000000	-1.000000	-1.000000	64.000000	0.000000	-1.000000	-1.000000	525757.000000	1775713974.974541
-13524.570000	-3581.010000	508.230000	-6470.820000	-24026.895000	-34661.880000	36382.275000	57991.905000	0.388250	0.388589	2.181966	3.608689	7.509948	2.721054	-0.656577	-2.128502	-0.793520	1.724380	1.113980	-0.567931	0.153137	0.795530	-1.000000	-1.000000	-1.000000	-1.000000	-1.000000	-1.000000	-1.000000	64.000000	0.000000	-1.000000	-1.000000	525758.000000	1775713974.974564
-13519.890000	-3576.240000	512.190000	-6468.165000	-24028.470000	-34657.155000	36383.580000	57995.460000	-0.597310	-2.457074	-1.663571	0.274656	4.264679	-7.667307	-0.761932	-2.226490	-0.793520	1.724380	1.113980	-0.567931	0.153137	0.795530	-1.000000	-1.000000	-1.000000	-1.000000	-1.000000	-1.000000	-1.000000	64.000000	0.000000	-1.000000	-1.000000	525759.000000	1775713974.977504
-13520.295000	-3574.980000	515.430000	-6460.650000	-24013.080000	-34607.970000	36381.105000	57993.705000	-2.133417	-5.551909	-6.287552	-4.992160	-2.794079	-12.846692	-0.843539	-2.203924	-0.793520	1.724380	1.113980	-0.567931	0.153137	0.795530	-1.000000	-1.000000	-1.000000	-1.000000	-1.000000	-1.000000	-1.000000	64.000000	0.000000	-1.000000	-1.000000	525760.000000	1775713974.977523
-13522.500000	-3577.770000	511.560000	-6465.060000	-24018.525000	-34619.085000	36392.130000	57994.605000	-2.611168	-5.967399	-7.653474	-7.601797	-7.595219	-9.874363	-0.444269	-1.412827	-0.152600	1.312360	1.098720	-0.568419	0.148437	0.793516	-1.000000	-1.000000	-1.000000	-1.000000	-1.000000	-1.000000	-1.000000	64.000000	0.000000	-1.000000	-1.000000	525761.000000	1775713974.981065
-13528.440000	-3586.995000	500.220000	-6474.690000	-24030.765000	-34650.405000	36391.995000	57992.580000	-1.880630	-3.534255	-5.109677	-6.018936	-7.314657	-2.570961	0.765215	0.055262	-0.152600	1.312360	1.098720	-0.568419	0.148437	0.793516	-1.000000	-1.000000	-1.000000	-1.000000	-1.000000	-1.000000	-1.000000	64.000000	0.000000	-1.000000	-1.000000	525762.000000	1775713974.981083
-13519.980000	-3575.115000	512.595000	-6460.605000	-24020.955000	-34653.915000	36395.955000	57999.870000	-0.641446	-0.095879	-0.902556	-2.116853	-3.940856	0.673086	2.274154	1.606214	-0.152600	1.312360	1.098720	-0.568419	0.148437	0.793516	-1.000000	-1.000000	-1.000000	-1.000000	-1.000000	-1.000000	-1.000000	64.000000	0.000000	-1.000000	-1.000000	525763.000000	1775713975.004104
-13512.015000	-3562.155000	524.205000	-6452.010000	-24017.490000	-34661.790000	36391.410000	58002.705000	1.001121	3.318877	3.363351	2.354279	0.122428	-2.774896	2.833379	2.870713	-0.152600	1.312360	1.098720	-0.568419	0.148437	0.793516	-1.000000	-1.000000	-1.000000	-1.000000	-1.000000	-1.000000	-1.000000	64.000000	0.000000	-1.000000	-1.000000	525764.000000	1775713975.004133
-13521.465000	-3571.965000	512.910000	-6461.370000	-24019.245000	-34622.865000	36382.050000	57996.270000	2.891423	6.261909	6.888368	6.181234	3.714385	-7.240005	1.461535	3.423292	-0.152600	1.312360	1.098720	-0.568419	0.148437	0.793516	-1.000000	-1.000000	-1.000000	-1.000000	-1.000000	-1.000000	-1.000000	64.000000	0.000000	-1.000000	-1.000000	525765.000000	1775713975.004161
-13518.540000	-3570.840000	513.225000	-6464.205000	-24025.905000	-34641.990000	36382.545000	57999.105000	3.742107	7.111365	7.900140	7.333489	5.528176	-6.300735	-1.589752	2.595064	-0.152600	1.312360	1.098720	-0.568419	0.148437	0.793516	-1.000000	-1.000000	-1.000000	-1.000000	-1.000000	-1.000000	-1.000000	64.000000	0.000000	-1.000000	-1.000000	525766.000000	1775713975.004173
-13516.290000	-3569.580000	516.555000	-6456.240000	-24007.770000	-34634.655000	36386.820000	58000.680000	2.710833	4.726958	5.393364	4.918836	4.918287	-0.230399	-4.405381	0.575825	-0.152600	1.312360	1.098720	-0.568419	0.148437	0.793516	-1.000000	-1.000000	-1.000000	-1.000000	-1.000000	-1.000000	-1.000000	64.000000	0.000000	-1.000000	-1.000000	525767.000000	1775713975.004188
-13524.435000	-3579.390000	508.230000	-6461.055000	-24004.620000	-34630.245000	36388.710000	57996.135000	0.525680	0.263508	0.876122	0.810619	3.232909	5.760011	-4.754899	-1.483126	-0.152600	1.312360	1.098720	-0.568419	0.148437	0.793516	-1.000000	-1.000000	-1.000000	-1.000000	-1.000000	-1.000000	-1.000000	64.000000	0.000000	-1.000000	-1.000000	525768.000000	1775713975.004199
-13531.095000	-3589.785000	495.765000	-6478.380000	-24034.005000	-34684.695000	36394.200000	57992.310000	-1.888138	-4.346745	-3.605641	-2.894110	1.383020	7.149788	-2.226937	-2.835037	-0.152600	1.312360	1.098720	-0.568419	0.148437	0.793516	-1.000000	-1.000000	-1.000000	-1.000000	-1.000000	-1.000000	-1.000000	64.000000	0.000000	-1.000000	-1.000000	525769.000000	1775713975.004212
-13528.395000	-3585.330000	501.210000	-6474.780000	-24033.015000	-34675.380000	36380.160000	57989.475000	-3.800729	-7.445224	-6.703282	-5.561740	-1.756555	2.253480	1.295489	-3.403095	-0.152600	1.312360	1.098720	-0.568419	0.148437	0.793516	-1.000000	-1.000000	-1.000000	-1.000000	-1.000000	-1.000000	-1.000000	64.000000	0.000000	-1.000000	-1.000000	525770.000000	1775713975.004223
-13526.820000	-3580.920000	508.770000	-6464.340000	-24014.700000	-34658.145000	36384.075000	57988.935000	-4.098937	-7.347974	-6.908114	-6.216053	-5.449188	-4.936273	3.193786	-3.109190	0.518840	2.105880	-0.442540	-0.567931	0.150024	0.794920	-1.000000	-1.000000	-1.000000	-1.000000	-1.000000	-1.000000	-1.000000	64.000000	0.000000	-1.000000	-1.000000	525771.000000	1775713975.004237
-13526.145000	-3579.615000	510.660000	-6464.295000	-24016.590000	-34702.830000	36393.570000	57991.185000	-2.207269	-3.554625	-3.464003	-3.605548	-6.136437	-7.808212	2.821236	-1.786909	0.518840	2.105880	-0.442540	-0.567931	0.150024	0.794920	-1.000000	-1.000000	-1.000000	-1.000000	-1.000000	-1.000000	-1.000000	64.000000	0.000000	-1.000000	-1.000000	525772.000000	1775713975.004247
-13526.820000	-3579.840000	508.320000	-6470.865000	-24034.140000	-34740.315000	36385.695000	57990.735000	0.893301	1.976278	1.813732	1.094289	-3.024184	-6.272464	1.690124	0.374518	0.518840	2.105880	-0.442540	-0.567931	0.150024	0.794920	-1.000000	-1.000000	-1.000000	-1.000000	-1.000000	-1.000000	-1.000000	64.000000	0.000000	-1.000000	-1.000000	525773.000000	1775713975.017793
-13530.420000	-3584.340000	503.370000	-6478.560000	-24039.270000	-34683.255000	36369.630000	57982.770000	3.340227	6.057787	5.531495	4.507143	0.373964	-3.580853	0.427900	2.411965	0.518840	2.105880	-0.442540	-0.567931	0.150024	0.794920	-1.000000	-1.000000	-1.000000	-1.000000	-1.000000	-1.000000	-1.000000	64.000000	0.000000	-1.000000	-1.000000	525774.000000	1775713975.017817
-13527.045000	-3583.035000	506.205000	-6472.530000	-24029.685000	-34666.065000	36374.895000	57986.910000	3.903905	6.691650	5.671737	4.595024	1.548890	2.180524	-1.493428	3.162310	0.518840	2.105880	-0.442540	-0.567931	0.150024	0.794920	-1.000000	-1.000000	-1.000000	-1.000000	-1.000000	-1.000000	-1.000000	64.000000	0.000000	-1.000000	-1.000000	525775.000000	1775713975.017866
-13529.295000	-3588.120000	502.335000	-6476.895000	-24036.840000	-34643.070000	36384.480000	57987.945000	2.783037	4.208415	2.963681	2.408587	1.523146	12.647660	-3.011667	2.596459	0.518840	2.105880	-0.442540	-0.567931	0.150024	0.794920	-1.000000	-1.000000	-1.000000	-1.000000	-1.000000	-1.000000	-1.000000	64.000000	0.000000	-1.000000	-1.000000	525776.000000	1775713975.017877
-13534.920000	-3595.455000	495.000000	-6481.395000	-24022.440000	-34613.190000	36385.335000	57983.535000	0.868611	0.325444	-0.580955	0.017954	1.979542	22.616526	-2.128414	1.566315	0.518840	2.105880	-0.442540	-0.567931	0.150024	0.794920	-1.000000	-1.000000	-1.000000	-1.000000	-1.000000	-1.000000	-1.000000	64.000000	0.000000	-1.000000	-1.000000	525777.000000	1775713975.017894
-13541.535000	-3599.640000	490.635000	-6481.305000	-24013.440000	-34609.140000	36379.755000	57978.225000	-1.244953	-3.245766	-3.464020	-1.535930	3.432578	24.977650	0.793674	0.408555	0.518840	2.105880	-0.442540	-0.567931	0.150024	0.794920	-1.000000	-1.000000	-1.000000	-1.000000	-1.000000	-1.000000	-1.000000	64.000000	0.000000	-1.000000	-1.000000	525778.000000	1775713975.017904
-13537.980000	-3593.565000	493.245000	-6480.810000	-24017.175000	-34604.730000	36378.405000	57977.010000	-2.951402	-5.017997	-4.720994	-1.935398	5.120743	16.536283	3.121543	-0.931956	0.518840	2.105880	-0.442540	-0.567931	0.150024	0.794920	-1.000000	-1.000000	-1.000000	-1.000000	-1.000000	-1.000000	-1.000000	64.000000	0.000000	-1.000000	-1.000000	525779.000000	1775713975.018874
-13533.255000	-3594.240000	490.050000	-6487.155000	-24033.105000	-34624.620000	36378.180000	57976.515000	-3.177999	-4.008174	-3.774017	-1.294095	4.825264	-0.581845	3.092246	-1.999774	0.518840	2.105880	-0.442540	-0.567931	0.150024	0.794920	-1.000000	-1.000000	-1.000000	-1.000000	-1.000000	-1.000000	-1.000000	64.000000	0.000000	-1.000000	-1.000000	525780.000000	1775713975.018888
-13531.455000	-3591.630000	494.595000	-6484.185000	-24030.495000	-34637.445000	36375.210000	57975.930000	-1.348304	-0.767764	-1.036616	-0.273062	1.020850	-20.036256	1.198175	-2.091498	-1.281840	1.861720	0.885080	-0.570006	0.152282	0.794981	-1.000000	-1.000000	-1.000000	-1.000000	-1.000000	-1.000000	-1.000000	64.000000	0.000000	-1.000000	-1.000000	525781.000000	1775713975.021676
-13529.295000	-3590.505000	494.370000	-6486.930000	-24036.120000	-34659.315000	36374.310000	57981.015000	1.554780	2.753647	2.184325	0.567751	-4.508813	-34.186921	-1.041548	-0.998306	-1.281840	1.861720	0.885080	-0.570006	0.152282	0.794981	-1.000000	-1.000000	-1.000000	-1.000000	-1.000000	-1.000000	-1.000000	64.000000	0.000000	-1.000000	-1.000000	525782.000000	1775713975.021701
-13530.555000	-3592.800000	492.660000	-6487.605000	-24037.965000	-34662.555000	36377.505000	57983.445000	3.651434	4.650134	4.398740	1.051561	-8.198583	-37.312889	-2.328645	0.878597	-1.281840	1.861720	0.885080	-0.570006	0.152282	0.794981	-1.000000	-1.000000	-1.000000	-1.000000	-1.000000	-1.000000	-1.000000	64.000000	0.000000	-1.000000	-1.000000	525783.000000	1775713975.026932
-13539.240000	-3603.060000	483.660000	-6492.645000	-24034.680000	-34651.485000	36377.280000	57978.585000	3.514670	3.925447	4.432116	1.028415	-7.955041	-27.642037	-2.062318	2.544699	-1.281840	1.861720	0.885080	-0.570006	0.152282	0.794981	-1.000000	-1.000000	-1.000000	-1.000000	-1.000000	-1.000000	-1.000000	64.000000	0.000000	-1.000000	-1.000000	525784.000000	1775713975.026956
-13531.545000	-3595.680000	488.250000	-6487.965000	-24031.170000	-34658.460000	36375.570000	57983.490000	1.175423	1.009903	2.224651	0.541824	-4.035185	-8.387463	-0.680991	2.870257	-1.281840	1.861720	0.885080	-0.570006	0.152282	0.794981	-1.000000	-1.000000	-1.000000	-1.000000	-1.000000	-1.000000	-1.000000	64.000000	0.000000	-1.000000	-1.000000	525785.000000	1775713975.036110
-13525.830000	-3589.695000	493.830000	-6482.025000	-24022.080000	-34655.940000	36382.860000	57989.385000	-1.485892	-1.924055	-0.557921	0.218893	1.680201	12.553073	0.811880	1.840104	-1.281840	1.861720	0.885080	-0.570006	0.152282	0.794981	-1.000000	-1.000000	-1.000000	-1.000000	-1.000000	-1.000000	-1.000000	64.000000	0.000000	-1.000000	-1.000000	525786.000000	1775713975.036134
-13520.340000	-3583.485000	499.140000	-6478.470000	-24025.095000	-34671.690000	36394.695000	57996.720000	-2.318843	-2.598268	-1.777317	0.703528	6.593361	26.402698	2.043186	0.620187	-1.281840	1.861720	0.885080	-0.570006	0.152282	0.794981	-1.000000	-1.000000	-1.000000	-1.000000	-1.000000	-1.000000	-1.000000	64.000000	0.000000	-1.000000	-1.000000	525787.000000	1775713975.036184
-13518.765000	-3582.990000	496.305000	-6485.130000	-24042.015000	-34703.415000	36383.985000	57994.245000	-1.095921	-0.929167	-1.018865	1.506736	8.061586	27.998421	2.901052	-0.031723	-1.281840	1.861720	0.885080	-0.570006	0.152282	0.794981	-1.000000	-1.000000	-1.000000	-1.000000	-1.000000	-1.000000	-1.000000	64.000000	0.000000	-1.000000	-1.000000	525788.000000	1775713975.036195
-13525.155000	-3587.355000	494.235000	-6480.630000	-24023.925000	-34661.475000	36377.370000	57985.200000	0.471384	1.045316	0.166186	1.370239	5.163882	18.929630	2.295478	-0.739628	-1.281840	1.861720	0.885080	-0.570006	0.152282	0.794981	-1.000000	-1.000000	-1.000000	-1.000000	-1.000000	-1.000000	-1.000000	64.000000	0.000000	-1.000000	-1.000000	525789.000000	1775713975.052050
-13526.595000	-3585.420000	497.295000	-6474.420000	-24016.815000	-34639.515000	36378.900000	57984.525000	0.544528	1.338089	0.272833	0.129983	0.608943	7.870549	-0.446802	-2.390410	-1.281840	1.861720	0.885080	-0.570006	0.152282	0.794981	-1.000000	-1.000000	-1.000000	-1.000000	-1.000000	-1.000000	-1.000000	64.000000	0.000000	-1.000000	-1.000000	525790.000000	1775713975.052077
-13525.830000	-3586.590000	497.160000	-6479.640000	-24030.180000	-34637.175000	36382.995000	57987.270000	-1.017408	-0.166856	-0.626438	-1.176388	-2.212568	2.560056	-3.626455	-4.323042	-1.678600	2.243220	-0.091560	-0.570982	0.153198	0.793394	-1.000000	-1.000000	-1.000000	-1.000000	-1.000000	-1.000000	-1.000000	64.000000	0.000000	-1.000000	-1.000000	525791.000000	1775713975.052123
-13525.155000	-3585.915000	499.410000	-6480.945000	-24032.430000	-34615.215000	36381.060000	57985.695000	-2.655035	-2.065646	-1.517576	-2.041338	-3.240284	2.403136	-4.770541	-4.783176	-1.678600	2.243220	-0.091560	-0.570982	0.153198	0.793394	-1.000000	-1.000000	-1.000000	-1.000000	-1.000000	-1.000000	-1.000000	64.000000	0.000000	-1.000000	-1.000000	525792.000000	1775713975.052136
-13525.335000	-3582.765000	503.730000	-6471.315000	-24009.030000	-34604.145000	36387.270000	57981.960000	-2.891560	-2.944358	-1.627247	-2.436061	-3.448857	2.599348	-3.212463	-3.144135	-1.678600	2.243220	-0.091560	-0.570982	0.153198	0.793394	-1.000000	-1.000000	-1.000000	-1.000000	-1.000000	-1.000000	-1.000000	64.000000	0.000000	-1.000000	-1.000000	525793.000000	1775713975.052186
-13530.825000	-3591.405000	493.335000	-6480.675000	-24019.875000	-34656.255000	36383.805000	57974.355000	-1.679649	-2.422469	-1.034962	-2.072523	-2.292653	-0.796336	-0.189033	-0.595522	-1.678600	2.243220	-0.091560	-0.570982	0.153198	0.793394	-1.000000	-1.000000	-1.000000	-1.000000	-1.000000	-1.000000	-1.000000	64.000000	0.000000	-1.000000	-1.000000	525794.000000	1775713975.052198
-13535.640000	-3599.280000	482.265000	-6490.440000	-24031.305000	-34683.570000	36379.035000	57977.010000	-0.151991	-1.426590	-0.836181	-1.422480	-0.406619	-10.126042	2.299180	1.365974	-1.678600	2.243220	-0.091560	-0.570982	0.153198	0.793394	-1.000000	-1.000000	-1.000000	-1.000000	-1.000000	-1.000000	-1.000000	64.000000	0.000000	-1.000000	-1.000000	525795.000000	1775713975.052213
-13535.415000	-3594.105000	489.735000	-6478.425000	-24011.730000	-34649.460000	36372.420000	57974.040000	0.725987	-0.873752	-1.635089	-1.234602	0.352210	-21.713086	2.691060	2.371102	-1.678600	2.243220	-0.091560	-0.570982	0.153198	0.793394	-1.000000	-1.000000	-1.000000	-1.000000	-1.000000	-1.000000	-1.000000	64.000000	0.000000	-1.000000	-1.000000	525796.000000	1775713975.052223
-13533.120000	-3590.415000	492.660000	-6477.525000	-24012.945000	-34633.890000	36377.280000	57977.460000	1.106327	-0.229160	-2.061217	-0.765209	0.319547	-25.175047	1.137425	2.867479	-1.678600	2.243220	-0.091560	-0.570982	0.153198	0.793394	-1.000000	-1.000000	-1.000000	-1.000000	-1.000000	-1.000000	-1.000000	64.000000	0.000000	-1.000000	-1.000000	525797.000000	1775713975.055198
-13537.485000	-3595.140000	485.865000	-6484.545000	-24019.695000	-34651.080000	36379.035000	57975.345000	1.570529	1.262334	-0.723689	0.718900	0.628053	-15.049406	-0.532814	3.140900	-1.678600	2.243220	-0.091560	-0.570982	0.153198	0.793394	-1.000000	-1.000000	-1.000000	-1.000000	-1.000000	-1.000000	-1.000000	64.000000	0.000000	-1.000000	-1.000000	525798.000000	1775713975.055224
-13538.205000	-3596.445000	484.020000	-6487.425000	-24024.870000	-34642.710000	36375.930000	57973.635000	2.024624	2.873305	1.512227	2.101372	0.589933	1.951017	-0.797149	2.986580	-1.678600	2.243220	-0.091560	-0.570982	0.153198	0.793394	-1.000000	-1.000000	-1.000000	-1.000000	-1.000000	-1.000000	-1.000000	64.000000	0.000000	-1.000000	-1.000000	525799.000000	1775713975.067134
-13536.315000	-3590.055000	492.480000	-6477.750000	-24012.900000	-34628.220000	36370.260000	57973.545000	2.045348	3.470442	3.066887	2.309228	-0.330579	15.533069	-0.013932	2.087734	-1.678600	2.243220	-0.091560	-0.570982	0.153198	0.793394	-1.000000	-1.000000	-1.000000	-1.000000	-1.000000	-1.000000	-1.000000	64.000000	0.000000	-1.000000	-1.000000	525800.000000	1775713975.067160
-13532.715000	-3584.295000	498.240000	-6470.145000	-24007.770000	-34644.645000	36375.345000	57975.975000	1.726274	3.142068	3.757026	2.070851	-0.827435	20.554161	0.625582	0.671740	-0.213640	2.319520	0.137340	-0.569273	0.153503	0.792662	-1.000000	-1.000000	-1.000000	-1.000000	-1.000000	-1.000000	-1.000000	64.000000	0.000000	-1.000000	-1.000000	525801.000000	1775713975.081951
-13539.195000	-3596.940000	482.040000	-6486.480000	-24029.730000	-34668.045000	36376.605000	57972.555000	1.290668	2.305642	3.673309	2.043609	-0.223156	16.225495	0.863451	-0.623974	-0.213640	2.319520	0.137340	-0.569273	0.153503	0.792662	-1.000000	-1.000000	-1.000000	-1.000000	-1.000000	-1.000000	-1.000000	64.000000	0.000000	-1.000000	-1.000000	525802.000000	1775713975.081991
-13542.795000	-3605.535000	471.060000	-6495.750000	-24034.365000	-34660.125000	36375.210000	57971.970000	0.426421	0.411474	1.796315	1.032771	-0.180235	5.118717	1.056934	-1.485014	-0.213640	2.319520	0.137340	-0.569273	0.153503	0.792662	-1.000000	-1.000000	-1.000000	-1.000000	-1.000000	-1.000000	-1.000000	64.000000	0.000000	-1.000000	-1.000000	525803.000000	1775713975.082012
-13542.255000	-3607.830000	466.155000	-6501.330000	-24035.985000	-34652.385000	36375.660000	57973.410000	-1.021811	-2.700978	-2.128584	-1.846509	-1.687182	-6.028299	1.109525	-1.891221	-0.213640	2.319520	0.137340	-0.569273	0.153503	0.792662	-1.000000	-1.000000	-1.000000	-1.000000	-1.000000	-1.000000	-1.000000	64.000000	0.000000	-1.000000	-1.000000	525804.000000	1775713975.082019
-13535.730000	-3601.755000	471.960000	-6494.760000	-24023.295000	-34644.375000	36376.740000	57973.410000	-2.160927	-5.223411	-5.734956	-4.800213	-2.798472	-10.468067	0.754678	-1.735671	-0.213640	2.319520	0.137340	-0.569273	0.153503	0.792662	-1.000000	-1.000000	-1.000000	-1.000000	-1.000000	-1.000000	-1.000000	64.000000	0.000000	-1.000000	-1.000000	525805.000000	1775713975.082026
-13539.330000	-3601.845000	474.570000	-6492.285000	-24020.640000	-34643.475000	36381.015000	57974.580000	-1.945721	-4.910630	-5.942268	-4.963053	-1.154109	-7.095939	0.181089	-1.032207	-0.213640	2.319520	0.137340	-0.569273	0.153503	0.792662	-1.000000	-1.000000	-1.000000	-1.000000	-1.000000	-1.000000	-1.000000	64.000000	0.000000	-1.000000	-1.000000	525806.000000	1775713975.082033
-13539.105000	-3600.315000	475.830000	-6492.690000	-24026.355000	-34641.360000	36378.900000	57977.235000	-0.650854	-1.669600	-2.198138	-1.655158	2.682118	-0.253004	-0.239561	-0.065166	-0.213640	2.319520	0.137340	-0.569273	0.153503	0.792662	-1.000000	-1.000000	-1.000000	-1.000000	-1.000000	-1.000000	-1.000000	64.000000	0.000000	-1.000000	-1.000000	525807.000000	1775713975.082040
-13534.965000	-3596.580000	478.980000	-6491.970000	-24031.395000	-34666.605000	36376.065000	57978.360000	0.620371	2.433540	3.041470	2.893476	5.494083	4.381152	-0.574746	0.818901	-0.213640	2.319520	0.137340	-0.569273	0.153503	0.792662	-1.000000	-1.000000	-1.000000	-1.000000	-1.000000	-1.000000	-1.000000	64.000000	0.000000	-1.000000	-1.000000	525808.000000	1775713975.082047
-13538.520000	-3600.270000	473.850000	-6497.955000	-24033.420000	-34663.140000	36374.940000	57975.615000	1.234227	5.096951	6.545608	5.705149	4.904578	3.632288	-1.147806	1.227463	-0.213640	2.319520	0.137340	-0.569273	0.153503	0.792662	-1.000000	-1.000000	-1.000000	-1.000000	-1.000000	-1.000000	-1.000000	64.000000	0.000000	-1.000000	-1.000000	525809.000000	1775713975.082055
-13538.925000	-3600.450000	473.940000	-6494.850000	-24024.645000	-34632.585000	36378.405000	57975.705000	1.022689	5.075627	6.470782	5.344507	1.755078	-0.270632	-1.743777	0.830364	-0.213640	2.319520	0.137340	-0.569273	0.153503	0.792662	-1.000000	-1.000000	-1.000000	-1.000000	-1.000000	-1.000000	-1.000000	64.000000	0.000000	-1.000000	-1.000000	525810.000000	1775713975.082062
-13539.015000	-3600.810000	472.770000	-6496.200000	-24031.980000	-34652.205000	36373.770000	57972.870000	0.126751	2.671346	3.270995	2.628734	-1.299602	-2.216718	-1.761033	-0.237854	0.778260	1.510740	1.098720	-0.568846	0.151733	0.793028	-1.000000	-1.000000	-1.000000	-1.000000	-1.000000	-1.000000	-1.000000	64.000000	0.000000	-1.000000	-1.000000	525811.000000	1775713975.097848
-13536.630000	-3597.795000	477.900000	-6491.385000	-24028.965000	-34680.060000	36370.845000	57972.645000	-0.815145	-0.485121	-0.808878	-0.402341	-2.716317	-1.613989	-1.183827	-1.370679	0.778260	1.510740	1.098720	-0.568846	0.151733	0.793028	-1.000000	-1.000000	-1.000000	-1.000000	-1.000000	-1.000000	-1.000000	64.000000	0.000000	-1.000000	-1.000000	525812.000000	1775713975.097869
-13535.910000	-3598.785000	477.135000	-6491.790000	-24028.605000	-34672.410000	36376.605000	57974.220000	-1.109196	-2.657794	-3.464718	-2.157758	-2.609893	-1.929269	-0.411123	-1.875453	0.778260	1.510740	1.098720	-0.568846	0.151733	0.793028	-1.000000	-1.000000	-1.000000	-1.000000	-1.000000	-1.000000	-1.000000	64.000000	0.000000	-1.000000	-1.000000	525813.000000	1775713975.097888
-13536.585000	-3599.325000	473.850000	-6493.950000	-24035.535000	-34690.455000	36381.240000	57977.370000	-0.667885	-3.193634	-3.961569	-2.409645	-1.719230	-3.725553	0.634994	-1.316466	0.778260	1.510740	1.098720	-0.568846	0.151733	0.793028	-1.000000	-1.000000	-1.000000	-1.000000	-1.000000	-1.000000	-1.000000	64.000000	0.000000	-1.000000	-1.000000	525814.000000	1775713975.097895
-13522.320000	-3582.405000	489.195000	-6477.795000	-24023.835000	-34709.985000	36379.485000	57983.625000	0.240819	-2.234754	-2.858187	-1.673748	-0.740217	-4.926813	1.987059	0.232053	0.778260	1.510740	1.098720	-0.568846	0.151733	0.793028	-1.000000	-1.000000	-1.000000	-1.000000	-1.000000	-1.000000	-1.000000	64.000000	0.000000	-1.000000	-1.000000	525815.000000	1775713975.097903
-13511.880000	-3566.745000	506.070000	-6459.210000	-24008.985000	-34709.985000	36369.630000	57988.845000	1.680605	0.237993	-0.417762	0.132432	0.569683	-4.453927	2.658844	2.171505	0.778260	1.510740	1.098720	-0.568846	0.151733	0.793028	-1.000000	-1.000000	-1.000000	-1.000000	-1.000000	-1.000000	-1.000000	64.000000	0.000000	-1.000000	-1.000000	525816.000000	1775713975.097910
-13522.005000	-3578.085000	495.900000	-6468.570000	-24018.930000	-34736.355000	36366.030000	57983.535000	3.145013	3.338541	2.721122	2.695438	2.471648	-2.219555	1.490397	3.416915	0.778260	1.510740	1.098720	-0.568846	0.151733	0.793028	-1.000000	-1.000000	-1.000000	-1.000000	-1.000000	-1.000000	-1.000000	64.000000	0.000000	-1.000000	-1.000000	525817.000000	1775713975.097917
-13520.115000	-3573.900000	500.355000	-6465.195000	-24013.980000	-34715.835000	36368.955000	57977.370000	2.890214	4.434983	4.236475	3.795617	3.516569	1.399002	-1.016487	2.712402	0.778260	1.510740	1.098720	-0.568846	0.151733	0.793028	-1.000000	-1.000000	-1.000000	-1.000000	-1.000000	-1.000000	-1.000000	64.000000	0.000000	-1.000000	-1.000000	525818.000000	1775713975.097924
-13535.865000	-3589.020000	483.345000	-6479.280000	-24022.755000	-34660.620000	36376.020000	57968.325000	-0.087920	1.764083	2.189610	1.449728	2.146119	7.064325	-2.680519	-0.268585	0.778260	1.510740	1.098720	-0.568846	0.151733	0.793028	-1.000000	-1.000000	-1.000000	-1.000000	-1.000000	-1.000000	-1.000000	64.000000	0.000000	-1.000000	-1.000000	525819.000000	1775713975.113660
-13560.570000	-3619.620000	448.830000	-6514.875000	-24050.655000	-34624.890000	36386.010000	57957.255000	-4.999188	-3.999427	-3.302056	-4.181745	-1.697625	15.921400	-1.739803	-4.274202	0.778260	1.510740	1.098720	-0.568846	0.151733	0.793028	-1.000000	-1.000000	-1.000000	-1.000000	-1.000000	-1.000000	-1.000000	64.000000	0.000000	-1.000000	-1.000000	525820.000000	1775713975.113687
-13552.200000	-3611.745000	455.355000	-6510.645000	-24050.880000	-34657.965000	36382.545000	57962.430000	-9.612878	-10.272344	-9.998113	-10.873049	-6.779948	23.702977	1.278918	-7.013088	0.412020	1.861720	0.396760	-0.568114	0.153198	0.792478	-1.000000	-1.000000	-1.000000	-1.000000	-1.000000	-1.000000	-1.000000	64.000000	0.000000	-1.000000	-1.000000	525821.000000	1775713975.113745
-13558.590000	-3619.710000	446.130000	-6516.900000	-24042.465000	-34625.745000	36367.560000	57955.230000	-10.512307	-12.820901	-13.346780	-14.185108	-9.872080	21.715040	3.540229	-6.460201	0.412020	1.861720	0.396760	-0.568114	0.153198	0.792478	-1.000000	-1.000000	-1.000000	-1.000000	-1.000000	-1.000000	-1.000000	64.000000	0.000000	-1.000000	-1.000000	525822.000000	1775713975.113845
-13560.795000	-3623.220000	443.070000	-6516.810000	-24029.505000	-34605.765000	36373.050000	57956.715000	-5.943562	-8.906839	-9.895262	-10.489580	-7.294634	8.308611	2.561890	-2.582238	0.412020	1.861720	0.396760	-0.568114	0.153198	0.792478	-1.000000	-1.000000	-1.000000	-1.000000	-1.000000	-1.000000	-1.000000	64.000000	0.000000	-1.000000	-1.000000	525823.000000	1775713975.113868
-13560.255000	-3624.210000	442.620000	-6515.730000	-24025.365000	-34578.495000	36375.480000	57957.705000	1.910631	-0.351974	-1.010191	-0.902372	0.859117	-8.111478	-0.725289	2.603545	0.412020	1.861720	0.396760	-0.568114	0.153198	0.792478	-1.000000	-1.000000	-1.000000	-1.000000	-1.000000	-1.000000	-1.000000	64.000000	0.000000	-1.000000	-1.000000	525824.000000	1775713975.113880
-13553.370000	-3618.270000	449.955000	-6510.960000	-24031.575000	-34584.120000	36374.850000	57962.295000	9.201557	8.547039	8.883457	9.820899	9.722301	-19.050083	-3.222290	6.825346	0.412020	1.861720	0.396760	-0.568114	0.153198	0.792478	-1.000000	-1.000000	-1.000000	-1.000000	-1.000000	-1.000000	-1.000000	64.000000	0.000000	-1.000000	-1.000000	525825.000000	1775713975.113894
-13550.265000	-3616.605000	450.630000	-6514.830000	-24048.135000	-34642.350000	36376.245000	57965.490000	13.220470	14.281202	15.687649	16.773609	13.248465	-23.739486	-3.286553	8.715468	0.412020	1.861720	0.396760	-0.568114	0.153198	0.792478	-1.000000	-1.000000	-1.000000	-1.000000	-1.000000	-1.000000	-1.000000	64.000000	0.000000	-1.000000	-1.000000	525826.000000	1775713975.113905
-13549.410000	-3614.670000	452.115000	-6514.290000	-24055.065000	-34703.685000	36377.235000	57964.410000	12.924020	15.163975	17.035733	17.205605	8.948643	-27.255440	-1.511491	7.851553	0.412020	1.861720	0.396760	-0.568114	0.153198	0.792478	-1.000000	-1.000000	-1.000000	-1.000000	-1.000000	-1.000000	-1.000000	64.000000	0.000000	-1.000000	-1.000000	525827.000000	1775713975.128134
-13545.315000	-3610.440000	455.940000	-6508.755000	-24042.015000	-34672.230000	36374.760000	57962.295000	8.735847	11.404648	12.835042	11.706084	0.211797	-30.562744	0.613038	4.537674	0.412020	1.861720	0.396760	-0.568114	0.153198	0.792478	-1.000000	-1.000000	-1.000000	-1.000000	-1.000000	-1.000000	-1.000000	64.000000	0.000000	-1.000000	-1.000000	525828.000000	1775713975.128160
-13549.140000	-3611.070000	456.435000	-6505.875000	-24031.980000	-34640.055000	36368.505000	57961.935000	2.348116	4.838974	5.231701	3.626311	-6.270768	-25.337447	1.695478	-0.144277	0.412020	1.861720	0.396760	-0.568114	0.153198	0.792478	-1.000000	-1.000000	-1.000000	-1.000000	-1.000000	-1.000000	-1.000000	64.000000	0.000000	-1.000000	-1.000000	525829.000000	1775713975.128186
-13559.130000	-3620.745000	449.145000	-6510.240000	-24032.070000	-34630.065000	36364.905000	57953.925000	-4.232896	-2.276852	-2.836677	-3.537433	-6.544634	-5.185083	1.130082	-4.566717	0.412020	1.861720	0.396760	-0.568114	0.153198	0.792478	-1.000000	-1.000000	-1.000000	-1.000000	-1.000000	-1.000000	-1.000000	64.000000	0.000000	-1.000000	-1.000000	525830.000000	1775713975.128224
-13561.200000	-3620.745000	449.685000	-6508.980000	-24030.945000	-34651.170000	36364.455000	57950.640000	-9.402956	-8.197399	-9.107554	-8.091853	-2.403346	21.942716	-0.423874	-7.390633	-1.266580	1.007160	1.175020	-0.568846	0.153564	0.792539	-1.000000	-1.000000	-1.000000	-1.000000	-1.000000	-1.000000	-1.000000	64.000000	0.000000	-1.000000	-1.000000	525831.000000	1775713975.128240
-13551.840000	-3610.755000	459.315000	-6502.770000	-24026.400000	-34664.175000	36364.050000	57955.275000	-11.477936	-11.184192	-11.896405	-9.605715	1.777191	39.424060	-1.525005	-7.781065	-1.266580	1.007160	1.175020	-0.568846	0.153564	0.792539	-1.000000	-1.000000	-1.000000	-1.000000	-1.000000	-1.000000	-1.000000	64.000000	0.000000	-1.000000	-1.000000	525832.000000	1775713975.128250
-13544.505000	-3604.860000	464.490000	-6501.780000	-24035.355000	-34655.985000	36367.155000	57961.260000	-9.062480	-9.767394	-10.205864	-8.143931	3.146026	37.886386	-1.173814	-5.283500	-1.266580	1.007160	1.175020	-0.568846	0.153564	0.792539	-1.000000	-1.000000	-1.000000	-1.000000	-1.000000	-1.000000	-1.000000	64.000000	0.000000	-1.000000	-1.000000	525833.000000	1775713975.128263
-13539.195000	-3597.345000	474.030000	-6489.630000	-24022.665000	-34642.845000	36371.835000	57964.950000	-2.875040	-4.509617	-4.906488	-4.511236	1.548724	22.124228	0.560436	-0.550954	-1.266580	1.007160	1.175020	-0.568846	0.153564	0.792539	-1.000000	-1.000000	-1.000000	-1.000000	-1.000000	-1.000000	-1.000000	64.000000	0.000000	-1.000000	-1.000000	525834.000000	1775713975.128273
-13531.140000	-3588.795000	480.240000	-6485.040000	-24021.450000	-34670.880000	36372.060000	57971.385000	3.994369	1.827207	1.326003	-0.111033	-1.000682	3.318580	2.708462	4.366157	-1.266580	1.007160	1.175020	-0.568846	0.153564	0.792539	-1.000000	-1.000000	-1.000000	-1.000000	-1.000000	-1.000000	-1.000000	64.000000	0.000000	-1.000000	-1.000000	525835.000000	1775713975.133181
-13534.965000	-3594.195000	475.020000	-6485.445000	-24012.450000	-34680.915000	36374.580000	57971.790000	8.123092	6.054131	5.456921	3.341210	-2.257410	-11.356011	3.933412	7.192661	-1.266580	1.007160	1.175020	-0.568846	0.153564	0.792539	-1.000000	-1.000000	-1.000000	-1.000000	-1.000000	-1.000000	-1.000000	64.000000	0.000000	-1.000000	-1.000000	525836.000000	1775713975.133202
-13539.555000	-3603.645000	464.085000	-6494.490000	-24018.930000	-34639.290000	36378.585000	57968.505000	7.592034	5.988186	5.359790	4.098392	-1.827334	-18.755666	3.485954	6.644836	-1.266580	1.007160	1.175020	-0.568846	0.153564	0.792539	-1.000000	-1.000000	-1.000000	-1.000000	-1.000000	-1.000000	-1.000000	64.000000	0.000000	-1.000000	-1.000000	525837.000000	1775713975.133279
-13546.980000	-3614.535000	450.720000	-6509.385000	-24041.475000	-34642.755000	36381.105000	57963.555000	2.829548	1.549525	0.972101	1.393269	-1.435027	-16.619298	1.738624	2.922211	-1.266580	1.007160	1.175020	-0.568846	0.153564	0.792539	-1.000000	-1.000000	-1.000000	-1.000000	-1.000000	-1.000000	-1.000000	64.000000	0.000000	-1.000000	-1.000000	525838.000000	1775713975.133291
-13553.730000	-3623.490000	440.595000	-6518.655000	-24045.345000	-34662.555000	36374.130000	57958.740000	-3.560516	-4.761358	-5.234579	-3.578580	-2.926051	-7.521752	-0.545533	-2.290271	-1.266580	1.007160	1.175020	-0.568846	0.153564	0.792539	-1.000000	-1.000000	-1.000000	-1.000000	-1.000000	-1.000000	-1.000000	64.000000	0.000000	-1.000000	-1.000000	525839.000000	1775713975.147923
-13549.635000	-3618.990000	444.780000	-6515.145000	-24041.970000	-34682.895000	36376.830000	57962.925000	-8.129289	-9.046440	-9.325957	-7.662807	-5.279284	0.392832	-2.850703	-6.426307	-1.266580	1.007160	1.175020	-0.568846	0.153564	0.792539	-1.000000	-1.000000	-1.000000	-1.000000	-1.000000	-1.000000	-1.000000	64.000000	0.000000	-1.000000	-1.000000	525840.000000	1775713975.147948
-13543.605000	-3612.105000	452.070000	-6509.925000	-24041.790000	-34696.530000	36378.090000	57967.695000	-8.260750	-8.219880	-8.090096	-7.468550	-5.267780	1.494798	-4.431393	-7.235560	-2.075360	2.060100	-0.457800	-0.569090	0.151916	0.792295	-1.000000	-1.000000	-1.000000	-1.000000	-1.000000	-1.000000	-1.000000	64.000000	0.000000	-1.000000	-1.000000	525841.000000	1775713975.147972
-13548.690000	-3617.865000	444.825000	-6516.450000	-24043.905000	-34670.970000	36368.145000	57962.160000	-3.917255	-2.362230	-1.636606	-2.393552	-1.582286	-1.890332	-4.599422	-4.420135	-2.075360	2.060100	-0.457800	-0.569090	0.151916	0.792295	-1.000000	-1.000000	-1.000000	-1.000000	-1.000000	-1.000000	-1.000000	64.000000	0.000000	-1.000000	-1.000000	525842.000000	1775713975.147984
-13545.045000	-3608.325000	456.075000	-6499.395000	-24019.920000	-34643.205000	36372.780000	57963.195000	2.043093	5.030776	6.280052	4.707588	4.159061	-2.591295	-3.561625	-0.105210	-2.075360	2.060100	-0.457800	-0.569090	0.151916	0.792295	-1.000000	-1.000000	-1.000000	-1.000000	-1.000000	-1.000000	-1.000000	64.000000	0.000000	-1.000000	-1.000000	525843.000000	1775713975.147998
-13540.500000	-3604.230000	457.380000	-6500.880000	-24035.265000	-34704.450000	36373.815000	57966.210000	6.373522	10.121863	11.549661	10.299100	9.312027	2.037087	-1.730197	3.210338	-2.075360	2.060100	-0.457800	-0.569090	0.151916	0.792295	-1.000000	-1.000000	-1.000000	-1.000000	-1.000000	-1.000000	-1.000000	64.000000	0.000000	-1.000000	-1.000000	525844.000000	1775713975.148008
-13539.060000	-3601.800000	462.645000	-6493.365000	-24024.735000	-34722.810000	36371.295000	57965.670000	7.699133	11.150225	12.312816	12.127953	11.073409	5.587352	0.617464	4.542264	-2.075360	2.060100	-0.457800	-0.569090	0.151916	0.792295	-1.000000	-1.000000	-1.000000	-1.000000	-1.000000	-1.000000	-1.000000	64.000000	0.000000	-1.000000	-1.000000	525845.000000	1775713975.154330
-13532.670000	-3598.065000	465.975000	-6493.140000	-24017.490000	-34681.050000	36369.000000	57970.035000	6.337003	8.278608	8.910915	9.577915	8.364582	3.254619	2.635237	4.152473	-2.075360	2.060100	-0.457800	-0.569090	0.151916	0.792295	-1.000000	-1.000000	-1.000000	-1.000000	-1.000000	-1.000000	-1.000000	64.000000	0.000000	-1.000000	-1.000000	525846.000000	1775713975.154356
-13537.710000	-3605.130000	459.090000	-6498.450000	-24020.865000	-34660.755000	36370.935000	57966.750000	3.309127	2.874315	2.986725	3.733373	3.010010	0.395814	3.438787	2.703188	-2.075360	2.060100	-0.457800	-0.569090	0.151916	0.792295	-1.000000	-1.000000	-1.000000	-1.000000	-1.000000	-1.000000	-1.000000	64.000000	0.000000	-1.000000	-1.000000	525847.000000	1775713975.155604
-13545.450000	-3615.705000	446.310000	-6511.815000	-24035.760000	-34672.455000	36371.295000	57956.220000	-0.522186	-3.363048	-3.706538	-3.478717	-2.861613	2.717472	3.054532	0.580848	-2.075360	2.060100	-0.457800	-0.569090	0.151916	0.792295	-1.000000	-1.000000	-1.000000	-1.000000	-1.000000	-1.000000	-1.000000	64.000000	0.000000	-1.000000	-1.000000	525848.000000	1775713975.155618
-13556.745000	-3627.765000	435.510000	-6520.545000	-24038.865000	-34658.010000	36367.785000	57943.080000	-4.580962	-8.887460	-9.667373	-9.972591	-8.155385	7.307603	2.029628	-2.239399	-2.075360	2.060100	-0.457800	-0.569090	0.151916	0.792295	-1.000000	-1.000000	-1.000000	-1.000000	-1.000000	-1.000000	-1.000000	64.000000	0.000000	-1.000000	-1.000000	525849.000000	1775713975.163194
-13562.460000	-3629.565000	436.005000	-6517.665000	-24030.405000	-34600.905000	36362.115000	57941.595000	-7.863407	-11.981288	-12.990438	-13.364197	-11.169875	9.527337	0.627951	-5.148430	-2.075360	2.060100	-0.457800	-0.569090	0.151916	0.792295	-1.000000	-1.000000	-1.000000	-1.000000	-1.000000	-1.000000	-1.000000	64.000000	0.000000	-1.000000	-1.000000	525850.000000	1775713975.163220
-13550.985000	-3618.945000	445.455000	-6509.115000	-24030.225000	-34658.145000	36360.990000	57951.090000	-8.570705	-10.793354	-11.582746	-11.536101	-9.830896	8.284965	-0.994007	-6.154407	-1.266580	2.075360	-0.747740	-0.568175	0.152893	0.794065	-1.000000	-1.000000	-1.000000	-1.000000	-1.000000	-1.000000	-1.000000	64.000000	0.000000	-1.000000	-1.000000	525851.000000	1775713975.163280
-13545.360000	-3614.850000	449.505000	-6506.370000	-24030.135000	-34667.685000	36364.050000	57955.905000	-5.160518	-4.734925	-5.019931	-4.545359	-4.379716	1.723812	-2.154054	-3.427306	-1.266580	2.075360	-0.747740	-0.568175	0.152893	0.794065	-1.000000	-1.000000	-1.000000	-1.000000	-1.000000	-1.000000	-1.000000	64.000000	0.000000	-1.000000	-1.000000	525852.000000	1775713975.163298
-13542.075000	-3610.710000	453.330000	-6501.825000	-24025.095000	-34617.690000	36367.470000	57958.740000	1.481018	3.883597	3.970711	4.390225	2.253069	-9.287687	-1.938507	2.202053	-1.266580	2.075360	-0.747740	-0.568175	0.152893	0.794065	-1.000000	-1.000000	-1.000000	-1.000000	-1.000000	-1.000000	-1.000000	64.000000	0.000000	-1.000000	-1.000000	525853.000000	1775713975.167353
-13543.110000	-3613.455000	447.660000	-6506.910000	-24028.470000	-34622.505000	36365.940000	57957.030000	7.746449	10.678987	10.774596	10.731453	6.928503	-16.547110	-0.322997	7.323830	-1.266580	2.075360	-0.747740	-0.568175	0.152893	0.794065	-1.000000	-1.000000	-1.000000	-1.000000	-1.000000	-1.000000	-1.000000	64.000000	0.000000	-1.000000	-1.000000	525854.000000	1775713975.167373
-13546.800000	-3621.420000	437.985000	-6514.515000	-24029.955000	-34636.140000	36370.305000	57956.400000	9.999210	12.103851	11.852941	11.428897	7.967873	-14.775614	1.577488	8.749141	-1.266580	2.075360	-0.747740	-0.568175	0.152893	0.794065	-1.000000	-1.000000	-1.000000	-1.000000	-1.000000	-1.000000	-1.000000	64.000000	0.000000	-1.000000	-1.000000	525855.000000	1775713975.170276
-13548.465000	-3625.290000	432.360000	-6522.660000	-24043.230000	-34682.805000	36372.510000	57958.110000	7.229350	7.680677	6.957131	6.525605	5.338727	-8.835654	2.638340	5.914537	-1.266580	2.075360	-0.747740	-0.568175	0.152893	0.794065	-1.000000	-1.000000	-1.000000	-1.000000	-1.000000	-1.000000	-1.000000	64.000000	0.000000	-1.000000	-1.000000	525856.000000	1775713975.170300
-13548.915000	-3623.805000	435.510000	-6515.955000	-24036.210000	-34683.300000	36367.920000	57957.930000	1.459116	0.318104	-0.579289	-0.771862	0.630959	-5.686761	2.394109	0.865198	-1.266580	2.075360	-0.747740	-0.568175	0.152893	0.794065	-1.000000	-1.000000	-1.000000	-1.000000	-1.000000	-1.000000	-1.000000	64.000000	0.000000	-1.000000	-1.000000	525857.000000	1775713975.173818
-13552.470000	-3626.640000	432.810000	-6518.880000	-24036.795000	-34659.630000	36360.090000	57950.370000	-4.010912	-5.711000	-6.141494	-6.033625	-3.307753	-4.937132	0.708090	-3.796829	-1.266580	2.075360	-0.747740	-0.568175	0.152893	0.794065	-1.000000	-1.000000	-1.000000	-1.000000	-1.000000	-1.000000	-1.000000	64.000000	0.000000	-1.000000	-1.000000	525858.000000	1775713975.173841
-13554.000000	-3627.810000	431.550000	-6522.885000	-24038.955000	-34643.520000	36362.070000	57946.545000	-6.853595	-7.798702	-7.249612	-6.941630	-4.323193	-0.664829	-1.936583	-6.644437	-1.266580	2.075360	-0.747740	-0.568175	0.152893	0.794065	-1.000000	-1.000000	-1.000000	-1.000000	-1.000000	-1.000000	-1.000000	64.000000	0.000000	-1.000000	-1.000000	525859.000000	1775713975.178995
-13553.685000	-3627.900000	431.685000	-6521.130000	-24038.055000	-34660.170000	36364.410000	57948.660000	-6.533388	-6.098045	-4.636297	-4.445822	-2.679701	8.595615	-3.951415	-7.201673	-1.266580	2.075360	-0.747740	-0.568175	0.152893	0.794065	-1.000000	-1.000000	-1.000000	-1.000000	-1.000000	-1.000000	-1.000000	64.000000	0.000000	-1.000000	-1.000000	525860.000000	1775713975.179020
-13553.820000	-3628.080000	430.335000	-6521.805000	-24040.440000	-34667.505000	36365.130000	57950.235000	-3.836752	-2.392037	-0.633808	-0.774487	-0.128410	16.525364	-3.795255	-5.297384	0.045780	0.793520	0.946120	-0.567931	0.152343	0.794248	-1.000000	-1.000000	-1.000000	-1.000000	-1.000000	-1.000000	-1.000000	64.000000	0.000000	-1.000000	-1.000000	525861.000000	1775713975.182436
-13551.210000	-3622.320000	435.690000	-6514.920000	-24030.855000	-34660.710000	36368.190000	57954.105000	-0.197740	1.406439	2.690135	2.409406	1.927949	16.909120	-1.523612	-1.464644	0.045780	0.793520	0.946120	-0.567931	0.152343	0.794248	-1.000000	-1.000000	-1.000000	-1.000000	-1.000000	-1.000000	-1.000000	64.000000	0.000000	-1.000000	-1.000000	525862.000000	1775713975.182453
-13552.200000	-3624.165000	432.360000	-6518.475000	-24036.165000	-34677.675000	36365.175000	57955.095000	2.908071	4.023057	4.321319	4.253390	3.004404	10.021652	1.354135	2.776625	0.045780	0.793520	0.946120	-0.567931	0.152343	0.794248	-1.000000	-1.000000	-1.000000	-1.000000	-1.000000	-1.000000	-1.000000	64.000000	0.000000	-1.000000	-1.000000	525863.000000	1775713975.188305
-13547.970000	-3622.140000	433.080000	-6517.710000	-24039.540000	-34708.185000	36356.985000	57956.220000	4.487993	4.785728	4.051649	4.309982	2.800376	-0.251204	2.964999	5.603252	0.045780	0.793520	0.946120	-0.567931	0.152343	0.794248	-1.000000	-1.000000	-1.000000	-1.000000	-1.000000	-1.000000	-1.000000	64.000000	0.000000	-1.000000	-1.000000	525864.000000	1775713975.188329
-13542.795000	-3618.180000	436.545000	-6513.570000	-24035.040000	-34692.030000	36356.670000	57959.685000	4.440332	3.730087	2.333497	2.721273	1.229897	-9.763313	2.317639	5.971435	0.045780	0.793520	0.946120	-0.567931	0.152343	0.794248	-1.000000	-1.000000	-1.000000	-1.000000	-1.000000	-1.000000	-1.000000	64.000000	0.000000	-1.000000	-1.000000	525865.000000	1775713975.191683
-13537.980000	-3609.765000	445.860000	-6497.280000	-24003.315000	-34618.590000	36363.870000	57956.805000	3.400096	1.833017	0.404883	0.780707	-0.188312	-12.485377	0.379766	4.104411	0.045780	0.793520	0.946120	-0.567931	0.152343	0.794248	-1.000000	-1.000000	-1.000000	-1.000000	-1.000000	-1.000000	-1.000000	64.000000	0.000000	-1.000000	-1.000000	525866.000000	1775713975.191699
-13543.200000	-3616.380000	436.680000	-6507.540000	-24016.545000	-34633.620000	36361.215000	57954.780000	1.835413	0.115844	-0.742100	-0.214513	0.405191	-4.231775	-0.824673	0.961970	0.045780	0.793520	0.946120	-0.567931	0.152343	0.794248	-1.000000	-1.000000	-1.000000	-1.000000	-1.000000	-1.000000	-1.000000	64.000000	0.000000	-1.000000	-1.000000	525867.000000	1775713975.194702
-13539.600000	-3616.920000	432.405000	-6518.970000	-24043.860000	-34683.210000	36364.635000	57956.040000	-0.253017	-1.415752	-1.559340	-0.977051	1.286532	7.984259	-0.489060	-2.240684	0.045780	0.793520	0.946120	-0.567931	0.152343	0.794248	-1.000000	-1.000000	-1.000000	-1.000000	-1.000000	-1.000000	-1.000000	64.000000	0.000000	-1.000000	-1.000000	525868.000000	1775713975.194721
-13529.700000	-3605.805000	446.355000	-6504.930000	-24020.505000	-34653.780000	36362.880000	57963.060000	-2.304081	-2.810469	-2.555710	-2.714442	-0.760734	11.452469	0.576219	-4.095923	0.045780	0.793520	0.946120	-0.567931	0.152343	0.794248	-1.000000	-1.000000	-1.000000	-1.000000	-1.000000	-1.000000	-1.000000	64.000000	0.000000	-1.000000	-1.000000	525869.000000	1775713975.200407
-13549.230000	-3625.515000	428.760000	-6518.565000	-24024.555000	-34636.725000	36351.540000	57948.750000	-3.473898	-3.542384	-3.055698	-4.483073	-4.366056	4.538662	1.029731	-3.964447	0.045780	0.793520	0.946120	-0.567931	0.152343	0.794248	-1.000000	-1.000000	-1.000000	-1.000000	-1.000000	-1.000000	-1.000000	64.000000	0.000000	-1.000000	-1.000000	525870.000000	1775713975.200513
-13553.325000	-3630.645000	423.000000	-6524.955000	-24034.140000	-34649.820000	36361.530000	57947.175000	-4.193754	-3.898585	-2.993252	-4.978081	-5.872989	-4.015682	0.197822	-2.872852	0.045780	1.907500	-0.457800	-0.566405	0.152954	0.795347	-1.000000	-1.000000	-1.000000	-1.000000	-1.000000	-1.000000	-1.000000	64.000000	0.000000	-1.000000	-1.000000	525871.000000	1775713975.203090
-13552.560000	-3632.130000	420.930000	-6528.285000	-24043.815000	-34689.915000	36362.295000	57949.020000	-4.916093	-4.318248	-3.010911	-4.303954	-4.898176	-9.210993	-0.934149	-1.940616	0.045780	1.907500	-0.457800	-0.566405	0.152954	0.795347	-1.000000	-1.000000	-1.000000	-1.000000	-1.000000	-1.000000	-1.000000	64.000000	0.000000	-1.000000	-1.000000	525872.000000	1775713975.203115
-13552.470000	-3630.330000	424.845000	-6521.490000	-24030.720000	-34671.420000	36359.235000	57947.580000	-4.497479	-3.791945	-2.544559	-2.519045	-2.824389	-11.921470	-1.045517	-0.912217	0.045780	1.907500	-0.457800	-0.566405	0.152954	0.795347	-1.000000	-1.000000	-1.000000	-1.000000	-1.000000	-1.000000	-1.000000	64.000000	0.000000	-1.000000	-1.000000	525873.000000	1775713975.209622
-13549.410000	-3627.180000	427.230000	-6519.375000	-24028.470000	-34655.220000	36359.730000	57948.795000	-1.907516	-1.215815	-0.523119	0.665080	0.194550	-11.257402	-0.338168	0.658319	0.045780	1.907500	-0.457800	-0.566405	0.152954	0.795347	-1.000000	-1.000000	-1.000000	-1.000000	-1.000000	-1.000000	-1.000000	64.000000	0.000000	-1.000000	-1.000000	525874.000000	1775713975.209645
-13555.215000	-3635.820000	416.880000	-6529.320000	-24035.490000	-34652.430000	36364.635000	57946.095000	2.010495	2.665933	2.552608	4.304750	3.808443	-4.876507	0.364296	2.343348	0.045780	1.907500	-0.457800	-0.566405	0.152954	0.795347	-1.000000	-1.000000	-1.000000	-1.000000	-1.000000	-1.000000	-1.000000	64.000000	0.000000	-1.000000	-1.000000	525875.000000	1775713975.219109
-13553.370000	-3632.940000	418.275000	-6528.555000	-24034.365000	-34673.715000	36366.435000	57948.255000	5.167044	5.645350	4.672092	6.224741	6.107240	4.574160	0.873544	3.340715	0.045780	1.907500	-0.457800	-0.566405	0.152954	0.795347	-1.000000	-1.000000	-1.000000	-1.000000	-1.000000	-1.000000	-1.000000	64.000000	0.000000	-1.000000	-1.000000	525876.000000	1775713975.219137
-13550.850000	-3628.395000	423.540000	-6519.780000	-24022.440000	-34680.960000	36363.015000	57948.795000	6.148400	6.337235	4.716866	5.527055	5.926948	10.416810	1.121458	3.281048	0.045780	1.907500	-0.457800	-0.566405	0.152954	0.795347	-1.000000	-1.000000	-1.000000	-1.000000	-1.000000	-1.000000	-1.000000	64.000000	0.000000	-1.000000	-1.000000	525877.000000	1775713975.219168
-13556.160000	-3632.715000	418.725000	-6523.380000	-24026.895000	-34680.420000	36351.495000	57943.260000	5.029702	5.106396	3.407367	3.480355	4.177067	9.322379	0.520496	2.281762	0.045780	1.907500	-0.457800	-0.566405	0.152954	0.795347	-1.000000	-1.000000	-1.000000	-1.000000	-1.000000	-1.000000	-1.000000	64.000000	0.000000	-1.000000	-1.000000	525878.000000	1775713975.219181
-13555.305000	-3631.095000	420.030000	-6522.840000	-24028.560000	-34698.780000	36351.405000	57943.395000	2.552090	2.773915	1.661288	1.350268	1.838876	3.779573	-1.268602	0.586572	0.045780	1.907500	-0.457800	-0.566405	0.152954	0.795347	-1.000000	-1.000000	-1.000000	-1.000000	-1.000000	-1.000000	-1.000000	64.000000	0.000000	-1.000000	-1.000000	525879.000000	1775713975.219198
-13550.895000	-3624.885000	426.645000	-6515.820000	-24023.610000	-34705.305000	36350.955000	57945.105000	-0.192047	0.194643	0.031161	-0.457416	-0.767804	-2.076406	-3.179088	-1.182989	0.045780	1.907500	-0.457800	-0.566405	0.152954	0.795347	-1.000000	-1.000000	-1.000000	-1.000000	-1.000000	-1.000000	-1.000000	64.000000	0.000000	-1.000000	-1.000000	525880.000000	1775713975.219209
-13553.010000	-3624.840000	428.400000	-6511.770000	-24014.880000	-34664.310000	36347.490000	57940.470000	-1.978227	-1.600709	-0.850750	-1.499683	-2.746879	-4.654553	-3.548724	-2.181883	-0.824040	2.563680	1.175020	-0.566954	0.153259	0.794371	-1.000000	-1.000000	-1.000000	-1.000000	-1.000000	-1.000000	-1.000000	64.000000	0.000000	-1.000000	-1.000000	525881.000000	1775713975.223410
-13553.595000	-3624.570000	428.985000	-6509.835000	-24009.345000	-34643.385000	36349.785000	57941.280000	-2.451854	-2.262588	-0.892328	-1.566623	-2.981142	-1.012839	-1.923294	-2.181743	-0.824040	2.563680	1.175020	-0.566954	0.153259	0.794371	-1.000000	-1.000000	-1.000000	-1.000000	-1.000000	-1.000000	-1.000000	64.000000	0.000000	-1.000000	-1.000000	525882.000000	1775713975.223428
-13558.860000	-3630.555000	421.830000	-6520.680000	-24028.740000	-34660.440000	36351.810000	57941.010000	-2.253468	-2.419309	-0.912910	-1.435729	-2.012614	7.010390	0.856186	-1.493055	-0.824040	2.563680	1.175020	-0.566954	0.153259	0.794371	-1.000000	-1.000000	-1.000000	-1.000000	-1.000000	-1.000000	-1.000000	64.000000	0.000000	-1.000000	-1.000000	525883.000000	1775713975.228942
-13562.955000	-3634.110000	421.740000	-6519.915000	-24020.730000	-34658.505000	36355.275000	57937.860000	-2.123091	-2.809135	-1.702187	-2.164071	-1.764856	11.884257	3.568901	-0.506431	-0.824040	2.563680	1.175020	-0.566954	0.153259	0.794371	-1.000000	-1.000000	-1.000000	-1.000000	-1.000000	-1.000000	-1.000000	64.000000	0.000000	-1.000000	-1.000000	525884.000000	1775713975.228965
-13553.955000	-3626.595000	430.785000	-6510.915000	-24008.940000	-34690.455000	36360.765000	57944.655000	-2.006714	-3.236120	-2.753447	-3.327918	-2.359043	7.882856	5.192777	0.444942	-0.824040	2.563680	1.175020	-0.566954	0.153259	0.794371	-1.000000	-1.000000	-1.000000	-1.000000	-1.000000	-1.000000	-1.000000	64.000000	0.000000	-1.000000	-1.000000	525885.000000	1775713975.230947
-13532.535000	-3609.270000	445.680000	-6499.800000	-24002.190000	-34747.020000	36360.045000	57956.850000	-0.703015	-2.327260	-2.368153	-3.008350	-1.737589	-4.443204	5.168963	1.518122	-0.824040	2.563680	1.175020	-0.566954	0.153259	0.794371	-1.000000	-1.000000	-1.000000	-1.000000	-1.000000	-1.000000	-1.000000	64.000000	0.000000	-1.000000	-1.000000	525886.000000	1775713975.230973
-13527.000000	-3603.825000	448.875000	-6500.790000	-24013.350000	-34734.780000	36357.615000	57962.430000	2.613148	0.828435	0.253896	-0.390099	0.530290	-19.111950	3.335586	3.020438	-0.824040	2.563680	1.175020	-0.566954	0.153259	0.794371	-1.000000	-1.000000	-1.000000	-1.000000	-1.000000	-1.000000	-1.000000	64.000000	0.000000	-1.000000	-1.000000	525887.000000	1775713975.237374
-13537.530000	-3613.545000	438.975000	-6507.855000	-24016.455000	-34660.980000	36357.660000	57956.805000	5.976265	4.480561	3.222557	2.595946	2.120835	-24.885409	0.104655	4.094992	-0.824040	2.563680	1.175020	-0.566954	0.153259	0.794371	-1.000000	-1.000000	-1.000000	-1.000000	-1.000000	-1.000000	-1.000000	64.000000	0.000000	-1.000000	-1.000000	525888.000000	1775713975.237401
-13547.070000	-3628.260000	421.605000	-6521.445000	-24021.270000	-34637.445000	36353.565000	57949.605000	5.649251	5.024085	3.217180	3.028096	1.245329	-12.590048	-3.324885	2.947039	-0.824040	2.563680	1.175020	-0.566954	0.153259	0.794371	-1.000000	-1.000000	-1.000000	-1.000000	-1.000000	-1.000000	-1.000000	64.000000	0.000000	-1.000000	-1.000000	525889.000000	1775713975.251241
-13553.055000	-3637.170000	412.605000	-6528.600000	-24019.155000	-34644.555000	36361.395000	57946.410000	0.454325	0.843771	-0.982193	0.023409	-1.143361	12.000855	-5.422916	-0.914033	-0.824040	2.563680	1.175020	-0.566954	0.153259	0.794371	-1.000000	-1.000000	-1.000000	-1.000000	-1.000000	-1.000000	-1.000000	64.000000	0.000000	-1.000000	-1.000000	525890.000000	1775713975.251270
-13564.035000	-3646.935000	405.540000	-6533.685000	-24020.820000	-34665.840000	36357.885000	57937.680000	-6.600330	-5.574709	-6.699343	-4.240755	-2.738051	30.269803	-5.178881	-5.604821	-1.251320	2.289000	0.137340	-0.568724	0.153320	0.793943	-1.000000	-1.000000	-1.000000	-1.000000	-1.000000	-1.000000	-1.000000	64.000000	0.000000	-1.000000	-1.000000	525891.000000	1775713975.256165
-13562.190000	-3643.020000	407.070000	-6538.770000	-24044.895000	-34678.845000	36355.365000	57937.770000	-11.074338	-9.673319	-9.509161	-6.465592	-2.668974	28.464640	-3.026577	-8.405695	-1.251320	2.289000	0.137340	-0.568724	0.153320	0.793943	-1.000000	-1.000000	-1.000000	-1.000000	-1.000000	-1.000000	-1.000000	64.000000	0.000000	-1.000000	-1.000000	525892.000000	1775713975.256192
-13547.790000	-3628.665000	420.120000	-6526.530000	-24033.555000	-34702.740000	36354.330000	57947.715000	-9.927653	-8.074840	-6.666792	-4.725249	-1.882888	8.772836	-0.553558	-7.436401	-1.251320	2.289000	0.137340	-0.568724	0.153320	0.793943	-1.000000	-1.000000	-1.000000	-1.000000	-1.000000	-1.000000	-1.000000	64.000000	0.000000	-1.000000	-1.000000	525893.000000	1775713975.256221
-13560.930000	-3645.360000	400.860000	-6544.170000	-24038.865000	-34681.005000	36354.330000	57939.705000	-3.352187	-1.193146	0.663271	0.286744	-0.660367	-14.840799	1.084485	-2.750903	-1.251320	2.289000	0.137340	-0.568724	0.153320	0.793943	-1.000000	-1.000000	-1.000000	-1.000000	-1.000000	-1.000000	-1.000000	64.000000	0.000000	-1.000000	-1.000000	525894.000000	1775713975.256233
-13564.530000	-3644.775000	403.155000	-6539.355000	-24027.255000	-34627.545000	36347.535000	57934.125000	4.519626	6.351480	7.736019	5.436625	1.673605	-26.641742	1.673905	2.948351	-1.251320	2.289000	0.137340	-0.568724	0.153320	0.793943	-1.000000	-1.000000	-1.000000	-1.000000	-1.000000	-1.000000	-1.000000	64.000000	0.000000	-1.000000	-1.000000	525895.000000	1775713975.256248
-13566.195000	-3646.305000	403.560000	-6536.520000	-24019.020000	-34570.080000	36345.420000	57932.010000	8.921964	9.885349	10.498160	7.935371	4.962758	-18.521204	1.353751	6.252203	-1.251320	2.289000	0.137340	-0.568724	0.153320	0.793943	-1.000000	-1.000000	-1.000000	-1.000000	-1.000000	-1.000000	-1.000000	64.000000	0.000000	-1.000000	-1.000000	525896.000000	1775713975.256259
-13572.900000	-3651.705000	398.745000	-6539.670000	-24024.600000	-34605.450000	36352.980000	57929.535000	8.450059	8.522120	8.749286	7.487950	7.685381	2.839773	0.723241	6.064171	-1.251320	2.289000	0.137340	-0.568724	0.153320	0.793943	-1.000000	-1.000000	-1.000000	-1.000000	-1.000000	-1.000000	-1.000000	64.000000	0.000000	-1.000000	-1.000000	525897.000000	1775713975.257432
-13567.275000	-3645.450000	405.810000	-6533.595000	-24021.315000	-34652.970000	36356.040000	57934.530000	4.907578	4.341998	4.647842	5.113704	7.684201	18.535558	0.840593	3.820676	-1.251320	2.289000	0.137340	-0.568724	0.153320	0.793943	-1.000000	-1.000000	-1.000000	-1.000000	-1.000000	-1.000000	-1.000000	64.000000	0.000000	-1.000000	-1.000000	525898.000000	1775713975.257457
-13562.415000	-3644.865000	403.650000	-6538.230000	-24024.690000	-34664.490000	36352.260000	57937.095000	1.246839	0.208465	0.596211	1.954242	4.188374	14.370710	1.872388	1.671989	-1.251320	2.289000	0.137340	-0.568724	0.153320	0.793943	-1.000000	-1.000000	-1.000000	-1.000000	-1.000000	-1.000000	-1.000000	64.000000	0.000000	-1.000000	-1.000000	525899.000000	1775713975.258746
-13554.765000	-3638.250000	410.175000	-6531.615000	-24017.940000	-34649.370000	36352.710000	57940.020000	-0.366947	-1.938560	-1.908865	-0.994259	-1.097278	-4.491007	2.579233	0.774733	-1.251320	2.289000	0.137340	-0.568724	0.153320	0.793943	-1.000000	-1.000000	-1.000000	-1.000000	-1.000000	-1.000000	-1.000000	64.000000	0.000000	-1.000000	-1.000000	525900.000000	1775713975.258763
-13557.195000	-3640.140000	407.205000	-6535.530000	-24022.890000	-34660.530000	36350.190000	57936.375000	0.037528	-2.023623	-2.741187	-3.055819	-5.476751	-20.596303	1.891901	0.693053	-0.900340	2.029580	0.564620	-0.569396	0.151367	0.793028	-1.000000	-1.000000	-1.000000	-1.000000	-1.000000	-1.000000	-1.000000	64.000000	0.000000	-1.000000	-1.000000	525901.000000	1775713975.268030
-13559.175000	-3641.580000	406.620000	-6534.225000	-24022.890000	-34681.590000	36351.405000	57936.465000	0.627702	-1.364887	-2.712233	-4.011840	-7.354367	-22.865714	0.076914	0.268214	-0.900340	2.029580	0.564620	-0.569396	0.151367	0.793028	-1.000000	-1.000000	-1.000000	-1.000000	-1.000000	-1.000000	-1.000000	64.000000	0.000000	-1.000000	-1.000000	525902.000000	1775713975.268057
-13558.905000	-3642.300000	407.565000	-6533.190000	-24018.570000	-34672.815000	36351.180000	57936.960000	-0.185958	-1.300620	-2.658152	-4.011843	-6.662360	-13.060042	-1.731637	-0.955880	-0.900340	2.029580	0.564620	-0.569396	0.151367	0.793028	-1.000000	-1.000000	-1.000000	-1.000000	-1.000000	-1.000000	-1.000000	64.000000	0.000000	-1.000000	-1.000000	525903.000000	1775713975.268208
-13558.365000	-3645.675000	400.815000	-6542.550000	-24026.805000	-34673.400000	36348.660000	57938.130000	-2.181820	-2.077479	-2.793659	-3.389372	-4.191130	1.564628	-2.604420	-2.315457	-0.900340	2.029580	0.564620	-0.569396	0.151367	0.793028	-1.000000	-1.000000	-1.000000	-1.000000	-1.000000	-1.000000	-1.000000	64.000000	0.000000	-1.000000	-1.000000	525904.000000	1775713975.268334
-13557.420000	-3644.730000	401.715000	-6542.505000	-24026.220000	-34673.400000	36351.270000	57939.615000	-3.896468	-2.979383	-2.928029	-2.679951	-1.327145	14.435003	-2.372902	-2.887712	-0.900340	2.029580	0.564620	-0.569396	0.151367	0.793028	-1.000000	-1.000000	-1.000000	-1.000000	-1.000000	-1.000000	-1.000000	64.000000	0.000000	-1.000000	-1.000000	525905.000000	1775713975.282927
-13557.105000	-3642.345000	407.520000	-6535.845000	-24018.570000	-34671.330000	36347.985000	57936.510000	-4.177209	-3.049280	-2.530852	-1.883450	0.937161	21.044138	-1.384276	-2.420365	-0.900340	2.029580	0.564620	-0.569396	0.151367	0.793028	-1.000000	-1.000000	-1.000000	-1.000000	-1.000000	-1.000000	-1.000000	64.000000	0.000000	-1.000000	-1.000000	525906.000000	1775713975.282954
-13557.825000	-3641.040000	411.120000	-6531.930000	-24017.580000	-34675.470000	36344.385000	57934.215000	-2.967193	-1.790663	-0.951632	-0.259688	2.714022	19.916045	-0.282391	-1.473168	-0.900340	2.029580	0.564620	-0.569396	0.151367	0.793028	-1.000000	-1.000000	-1.000000	-1.000000	-1.000000	-1.000000	-1.000000	64.000000	0.000000	-1.000000	-1.000000	525907.000000	1775713975.282985
-13553.415000	-3633.165000	419.490000	-6525.090000	-24014.430000	-34679.970000	36341.235000	57935.250000	-0.977380	0.453475	1.651226	2.298046	4.068662	12.614171	0.270156	-0.683835	-0.900340	2.029580	0.564620	-0.569396	0.151367	0.793028	-1.000000	-1.000000	-1.000000	-1.000000	-1.000000	-1.000000	-1.000000	64.000000	0.000000	-1.000000	-1.000000	525908.000000	1775713975.282997
-13553.055000	-3633.705000	417.150000	-6527.565000	-24013.665000	-34681.320000	36342.315000	57932.595000	1.025516	2.748728	4.041722	4.577326	4.427935	2.589509	0.227980	-0.143031	-0.900340	2.029580	0.564620	-0.569396	0.151367	0.793028	-1.000000	-1.000000	-1.000000	-1.000000	-1.000000	-1.000000	-1.000000	64.000000	0.000000	-1.000000	-1.000000	525909.000000	1775713975.283012
-13553.370000	-3639.600000	407.565000	-6535.980000	-24023.340000	-34707.465000	36343.305000	57936.330000	2.388084	3.809178	4.471723	4.805890	3.194467	-6.608603	0.209920	0.372039	-0.900340	2.029580	0.564620	-0.569396	0.151367	0.793028	-1.000000	-1.000000	-1.000000	-1.000000	-1.000000	-1.000000	-1.000000	64.000000	0.000000	-1.000000	-1.000000	525910.000000	1775713975.283087
-13550.805000	-3635.505000	412.470000	-6531.300000	-24020.685000	-34682.445000	36347.985000	57938.805000	2.657701	2.764619	2.119225	2.283083	0.407807	-12.361378	0.782654	1.070907	1.281840	1.556520	-0.396760	-0.569396	0.150512	0.791380	-1.000000	-1.000000	-1.000000	-1.000000	-1.000000	-1.000000	-1.000000	64.000000	0.000000	-1.000000	-1.000000	525911.000000	1775713975.284426
-13540.230000	-3623.085000	423.810000	-6519.015000	-24000.705000	-34631.100000	36354.330000	57948.075000	2.130070	0.550834	-1.317102	-1.208610	-2.282989	-11.531026	1.957117	2.049329	1.281840	1.556520	-0.396760	-0.569396	0.150512	0.791380	-1.000000	-1.000000	-1.000000	-1.000000	-1.000000	-1.000000	-1.000000	64.000000	0.000000	-1.000000	-1.000000	525912.000000	1775713975.284455
-13533.345000	-3617.100000	428.445000	-6512.310000	-23990.760000	-34639.830000	36355.950000	57954.195000	1.730186	-0.709276	-2.923123	-2.775232	-2.342459	-2.831600	3.148732	3.145560	1.281840	1.556520	-0.396760	-0.569396	0.150512	0.791380	-1.000000	-1.000000	-1.000000	-1.000000	-1.000000	-1.000000	-1.000000	64.000000	0.000000	-1.000000	-1.000000	525913.000000	1775713975.289279
-13547.070000	-3634.965000	407.745000	-6531.615000	-24012.090000	-34647.840000	36357.660000	57941.685000	1.499188	-0.619800	-2.232687	-1.973440	0.036438	7.637043	3.402897	3.486062	1.281840	1.556520	-0.396760	-0.569396	0.150512	0.791380	-1.000000	-1.000000	-1.000000	-1.000000	-1.000000	-1.000000	-1.000000	64.000000	0.000000	-1.000000	-1.000000	525914.000000	1775713975.289305
-13560.840000	-3650.355000	389.295000	-6551.100000	-24045.525000	-34734.240000	36353.205000	57929.535000	-0.062963	-1.339678	-1.955163	-1.631200	0.679549	9.283596	2.020826	1.558504	1.281840	1.556520	-0.396760	-0.569396	0.150512	0.791380	-1.000000	-1.000000	-1.000000	-1.000000	-1.000000	-1.000000	-1.000000	64.000000	0.000000	-1.000000	-1.000000	525915.000000	1775713975.299627
-13564.890000	-3652.650000	388.530000	-6551.370000	-24040.890000	-34773.705000	36347.760000	57930.570000	-3.653454	-4.146991	-3.874777	-3.754414	-3.262731	-3.060034	-0.874858	-2.717821	1.281840	1.556520	-0.396760	-0.569396	0.150512	0.791380	-1.000000	-1.000000	-1.000000	-1.000000	-1.000000	-1.000000	-1.000000	64.000000	0.000000	-1.000000	-1.000000	525916.000000	1775713975.299653
-13565.790000	-3653.640000	387.495000	-6549.165000	-24029.460000	-34736.715000	36346.500000	57930.210000	-7.117304	-6.852997	-5.855233	-6.171420	-8.151670	-21.130787	-4.187912	-6.635102	1.281840	1.556520	-0.396760	-0.569396	0.150512	0.791380	-1.000000	-1.000000	-1.000000	-1.000000	-1.000000	-1.000000	-1.000000	64.000000	0.000000	-1.000000	-1.000000	525917.000000	1775713975.299682
-13563.225000	-3648.780000	393.435000	-6538.815000	-24008.445000	-34650.945000	36344.160000	57931.065000	-7.324373	-6.199556	-4.542907	-5.085939	-7.467439	-26.219771	-6.224857	-7.134436	1.281840	1.556520	-0.396760	-0.569396	0.150512	0.791380	-1.000000	-1.000000	-1.000000	-1.000000	-1.000000	-1.000000	-1.000000	64.000000	0.000000	-1.000000	-1.000000	525918.000000	1775713975.299694
-13567.590000	-3650.805000	392.085000	-6537.465000	-24005.205000	-34630.470000	36332.910000	57922.650000	-3.451714	-1.523941	0.583362	0.371494	0.397899	-7.439096	-5.991295	-3.932921	1.281840	1.556520	-0.396760	-0.569396	0.150512	0.791380	-1.000000	-1.000000	-1.000000	-1.000000	-1.000000	-1.000000	-1.000000	64.000000	0.000000	-1.000000	-1.000000	525919.000000	1775713975.299708
-13572.450000	-3654.405000	388.530000	-6544.800000	-24016.365000	-34639.155000	36337.095000	57923.280000	2.200984	4.558783	6.639364	6.969870	9.946602	23.522684	-3.880350	0.606601	1.281840	1.556520	-0.396760	-0.569396	0.150512	0.791380	-1.000000	-1.000000	-1.000000	-1.000000	-1.000000	-1.000000	-1.000000	64.000000	0.000000	-1.000000	-1.000000	525920.000000	1775713975.299719
-13568.670000	-3651.255000	390.780000	-6544.080000	-24017.580000	-34642.395000	36343.395000	57927.780000	6.451594	8.544483	9.970420	10.228751	13.793678	42.491083	-0.552449	4.146642	-0.885080	1.968540	-0.549360	-0.569334	0.154541	0.791502	-1.000000	-1.000000	-1.000000	-1.000000	-1.000000	-1.000000	-1.000000	64.000000	0.000000	-1.000000	-1.000000	525921.000000	1775713975.304791
-13564.305000	-3648.555000	392.895000	-6538.950000	-24011.145000	-34634.925000	36337.860000	57919.455000	7.910141	8.895376	9.155193	8.517895	9.658649	36.172591	3.325079	5.782997	-0.885080	1.968540	-0.549360	-0.569334	0.154541	0.791502	-1.000000	-1.000000	-1.000000	-1.000000	-1.000000	-1.000000	-1.000000	64.000000	0.000000	-1.000000	-1.000000	525922.000000	1775713975.304817
-13562.730000	-3648.735000	391.005000	-6538.995000	-24008.535000	-34644.240000	36333.585000	57913.560000	7.086082	6.379128	5.347616	3.850902	1.527677	10.908068	6.106139	5.198444	-0.885080	1.968540	-0.549360	-0.569334	0.154541	0.791502	-1.000000	-1.000000	-1.000000	-1.000000	-1.000000	-1.000000	-1.000000	64.000000	0.000000	-1.000000	-1.000000	525923.000000	1775713975.317249
-13568.175000	-3652.920000	385.605000	-6547.230000	-24023.070000	-34689.510000	36337.275000	57923.775000	4.728449	2.453679	0.463043	-1.040193	-5.521755	-18.018440	6.258951	2.831967	-0.885080	1.968540	-0.549360	-0.569334	0.154541	0.791502	-1.000000	-1.000000	-1.000000	-1.000000	-1.000000	-1.000000	-1.000000	64.000000	0.000000	-1.000000	-1.000000	525924.000000	1775713975.317278
-13567.320000	-3652.380000	387.135000	-6546.015000	-24019.425000	-34679.745000	36339.345000	57927.915000	1.278376	-1.626986	-3.892179	-4.727968	-9.271310	-38.084779	4.213221	0.554235	-0.885080	1.968540	-0.549360	-0.569334	0.154541	0.791502	-1.000000	-1.000000	-1.000000	-1.000000	-1.000000	-1.000000	-1.000000	64.000000	0.000000	-1.000000	-1.000000	525925.000000	1775713975.317308
-13568.895000	-3651.795000	388.800000	-6545.790000	-24019.380000	-34680.690000	36338.985000	57929.310000	-2.382552	-4.647385	-6.336889	-6.472136	-9.424796	-41.963854	1.607403	-0.122635	-0.885080	1.968540	-0.549360	-0.569334	0.154541	0.791502	-1.000000	-1.000000	-1.000000	-1.000000	-1.000000	-1.000000	-1.000000	64.000000	0.000000	-1.000000	-1.000000	525926.000000	1775713975.317320
-13567.365000	-3648.240000	392.400000	-6544.440000	-24018.930000	-34684.605000	36338.805000	57929.670000	-4.903207	-5.597544	-6.058433	-5.807806	-6.338455	-28.863026	-0.490740	0.275111	-0.885080	1.968540	-0.549360	-0.569334	0.154541	0.791502	-1.000000	-1.000000	-1.000000	-1.000000	-1.000000	-1.000000	-1.000000	64.000000	0.000000	-1.000000	-1.000000	525927.000000	1775713975.317336
-13564.485000	-3642.795000	397.800000	-6539.445000	-24015.060000	-34683.255000	36338.535000	57930.705000	-5.340990	-4.258056	-3.436417	-3.104976	-1.406879	-6.134408	-1.867766	0.325482	-0.885080	1.968540	-0.549360	-0.569334	0.154541	0.791502	-1.000000	-1.000000	-1.000000	-1.000000	-1.000000	-1.000000	-1.000000	64.000000	0.000000	-1.000000	-1.000000	525928.000000	1775713975.317347
-13564.710000	-3642.255000	399.600000	-6537.060000	-24013.890000	-34684.515000	36336.375000	57928.455000	-3.770457	-1.463287	0.095333	0.450781	3.344238	15.306206	-2.614914	-0.627261	-0.885080	1.968540	-0.549360	-0.569334	0.154541	0.791502	-1.000000	-1.000000	-1.000000	-1.000000	-1.000000	-1.000000	-1.000000	64.000000	0.000000	-1.000000	-1.000000	525929.000000	1775713975.318397
-13569.840000	-3649.275000	393.975000	-6541.425000	-24012.450000	-34678.440000	36339.435000	57927.330000	-1.369386	1.054246	2.640686	3.250474	6.220225	27.573168	-2.777213	-2.227814	-0.885080	1.968540	-0.549360	-0.569334	0.154541	0.791502	-1.000000	-1.000000	-1.000000	-1.000000	-1.000000	-1.000000	-1.000000	64.000000	0.000000	-1.000000	-1.000000	525930.000000	1775713975.318413
-13568.490000	-3648.240000	395.595000	-6541.155000	-24011.370000	-34695.765000	36339.075000	57928.050000	0.381681	1.715547	2.843239	3.919694	6.445861	28.219866	-2.270975	-3.573908	-2.853620	1.358140	0.427280	-0.569579	0.156494	0.791807	-1.000000	-1.000000	-1.000000	-1.000000	-1.000000	-1.000000	-1.000000	64.000000	0.000000	-1.000000	-1.000000	525931.000000	1775713975.321153
-13553.865000	-3628.215000	419.040000	-6516.090000	-23978.655000	-34733.295000	36339.615000	57934.620000	1.234167	0.932365	1.442955	2.846359	4.971289	18.606446	-1.195179	-3.671721	-2.853620	1.358140	0.427280	-0.569579	0.156494	0.791807	-1.000000	-1.000000	-1.000000	-1.000000	-1.000000	-1.000000	-1.000000	64.000000	0.000000	-1.000000	-1.000000	525932.000000	1775713975.321176
-13529.970000	-3602.205000	446.580000	-6488.460000	-23951.160000	-34749.495000	36340.470000	57951.315000	2.534218	1.193023	1.221312	2.536819	4.351982	2.648011	0.000293	-1.811872	-2.853620	1.358140	0.427280	-0.569579	0.156494	0.791807	-1.000000	-1.000000	-1.000000	-1.000000	-1.000000	-1.000000	-1.000000	64.000000	0.000000	-1.000000	-1.000000	525933.000000	1775713975.326986
-13533.570000	-3608.505000	435.870000	-6502.725000	-23977.890000	-34628.805000	36342.360000	57949.110000	4.915687	3.616713	3.292829	4.060334	5.013078	-10.308741	0.887515	1.625677	-2.853620	1.358140	0.427280	-0.569579	0.156494	0.791807	-1.000000	-1.000000	-1.000000	-1.000000	-1.000000	-1.000000	-1.000000	64.000000	0.000000	-1.000000	-1.000000	525934.000000	1775713975.327009
-13566.780000	-3649.455000	386.955000	-6556.365000	-24041.835000	-34592.805000	36336.735000	57924.270000	5.634546	4.696842	3.685244	3.430265	2.040776	-8.356770	1.194496	4.042458	-2.853620	1.358140	0.427280	-0.569579	0.156494	0.791807	-1.000000	-1.000000	-1.000000	-1.000000	-1.000000	-1.000000	-1.000000	64.000000	0.000000	-1.000000	-1.000000	525935.000000	1775713975.333283
-13575.735000	-3664.530000	371.115000	-6565.815000	-24034.095000	-34641.585000	36340.560000	57921.210000	1.023634	-0.273365	-2.525830	-3.937532	-8.389079	6.900465	0.793816	2.378549	-2.853620	1.358140	0.427280	-0.569579	0.156494	0.791807	-1.000000	-1.000000	-1.000000	-1.000000	-1.000000	-1.000000	-1.000000	64.000000	0.000000	-1.000000	-1.000000	525936.000000	1775713975.333313
-13586.220000	-3676.365000	358.695000	-6573.375000	-24040.305000	-34731.180000	36345.510000	57913.875000	-7.616835	-9.926786	-13.159095	-14.864575	-20.219999	15.598362	0.152312	-2.713686	-2.853620	1.358140	0.427280	-0.569579	0.156494	0.791807	-1.000000	-1.000000	-1.000000	-1.000000	-1.000000	-1.000000	-1.000000	64.000000	0.000000	-1.000000	-1.000000	525937.000000	1775713975.337657
-13577.265000	-3664.215000	372.375000	-6559.560000	-24021.000000	-34719.435000	36349.470000	57918.960000	-13.902791	-16.583988	-19.359187	-19.918821	-22.498508	2.849840	0.111745	-6.898944	-2.853620	1.358140	0.427280	-0.569579	0.156494	0.791807	-1.000000	-1.000000	-1.000000	-1.000000	-1.000000	-1.000000	-1.000000	64.000000	0.000000	-1.000000	-1.000000	525938.000000	1775713975.337684
-13568.715000	-3653.550000	385.920000	-6544.440000	-23994.720000	-34685.055000	36332.415000	57922.200000	-12.344118	-13.589907	-14.218660	-13.053938	-10.919671	-20.941313	0.457956	-6.492054	-2.853620	1.358140	0.427280	-0.569579	0.156494	0.791807	-1.000000	-1.000000	-1.000000	-1.000000	-1.000000	-1.000000	-1.000000	64.000000	0.000000	-1.000000	-1.000000	525939.000000	1775713975.348848
-13569.840000	-3657.465000	382.005000	-6551.685000	-24005.115000	-34644.420000	36339.345000	57922.335000	-3.146327	-1.546049	0.699496	2.708222	8.562566	-32.044089	-0.025888	-1.482309	-2.853620	1.358140	0.427280	-0.569579	0.156494	0.791807	-1.000000	-1.000000	-1.000000	-1.000000	-1.000000	-1.000000	-1.000000	64.000000	0.000000	-1.000000	-1.000000	525940.000000	1775713975.348874
-13578.615000	-3666.600000	373.635000	-6560.325000	-24021.000000	-34603.515000	36344.835000	57915.270000	7.832649	11.906225	16.237420	17.515140	23.754356	-19.242598	-1.193552	4.712182	-2.716280	0.793520	-0.518840	-0.569823	0.155456	0.794554	-1.000000	-1.000000	-1.000000	-1.000000	-1.000000	-1.000000	-1.000000	64.000000	0.000000	-1.000000	-1.000000	525941.000000	1775713975.348902
-13579.470000	-3667.140000	375.120000	-6558.705000	-24020.325000	-34621.875000	36344.385000	57912.930000	13.890883	18.582851	23.189638	22.699560	25.395782	7.327521	-1.445392	8.090514	-2.716280	0.793520	-0.518840	-0.569823	0.155456	0.794554	-1.000000	-1.000000	-1.000000	-1.000000	-1.000000	-1.000000	-1.000000	64.000000	0.000000	-1.000000	-1.000000	525942.000000	1775713975.348914
-13575.645000	-3667.185000	374.850000	-6558.885000	-24017.400000	-34639.245000	36346.320000	57917.205000	12.756116	16.102780	19.260791	17.216213	14.603024	26.969455	-0.314374	7.267660	-2.716280	0.793520	-0.518840	-0.569823	0.155456	0.794554	-1.000000	-1.000000	-1.000000	-1.000000	-1.000000	-1.000000	-1.000000	64.000000	0.000000	-1.000000	-1.000000	525943.000000	1775713975.348928
-13579.740000	-3674.790000	365.175000	-6569.865000	-24035.940000	-34682.355000	36331.830000	57913.020000	6.984173	7.823511	8.600276	6.109186	-0.264457	25.600197	0.866345	3.863170	-2.716280	0.793520	-0.518840	-0.569823	0.155456	0.794554	-1.000000	-1.000000	-1.000000	-1.000000	-1.000000	-1.000000	-1.000000	64.000000	0.000000	-1.000000	-1.000000	525944.000000	1775713975.348940
-13579.020000	-3672.810000	368.055000	-6565.185000	-24026.670000	-34672.365000	36327.645000	57912.030000	0.430715	-1.265194	-2.888320	-4.680581	-11.549613	5.954582	0.515722	0.158254	-2.716280	0.793520	-0.518840	-0.569823	0.155456	0.794554	-1.000000	-1.000000	-1.000000	-1.000000	-1.000000	-1.000000	-1.000000	64.000000	0.000000	-1.000000	-1.000000	525945.000000	1775713975.356932
-13572.945000	-3662.145000	383.130000	-6548.940000	-24005.655000	-34657.290000	36333.405000	57917.430000	-4.153597	-7.150818	-10.262978	-10.680613	-14.996101	-15.887759	-1.178526	-2.395277	-2.716280	0.793520	-0.518840	-0.569823	0.155456	0.794554	-1.000000	-1.000000	-1.000000	-1.000000	-1.000000	-1.000000	-1.000000	64.000000	0.000000	-1.000000	-1.000000	525946.000000	1775713975.356959
-13569.165000	-3660.705000	386.190000	-6546.915000	-24002.505000	-34656.885000	36330.390000	57915.630000	-5.496519	-7.929783	-10.970455	-9.972473	-9.971450	-24.389066	-2.186698	-3.131089	-2.716280	0.793520	-0.518840	-0.569823	0.155456	0.794554	-1.000000	-1.000000	-1.000000	-1.000000	-1.000000	-1.000000	-1.000000	64.000000	0.000000	-1.000000	-1.000000	525947.000000	1775713975.363044
-13573.440000	-3665.430000	380.430000	-6556.005000	-24015.015000	-34665.840000	36325.980000	57914.460000	-4.157069	-4.901463	-6.598124	-4.849406	-0.899866	-16.813577	-1.332359	-2.413824	-2.716280	0.793520	-0.518840	-0.569823	0.155456	0.794554	-1.000000	-1.000000	-1.000000	-1.000000	-1.000000	-1.000000	-1.000000	64.000000	0.000000	-1.000000	-1.000000	525948.000000	1775713975.363068
-13582.665000	-3675.285000	371.160000	-6563.205000	-24020.190000	-34675.200000	36328.635000	57911.310000	-2.292298	-1.614610	-1.801050	-0.318212	5.235036	-2.086101	0.553166	-1.402885	-2.716280	0.793520	-0.518840	-0.569823	0.155456	0.794554	-1.000000	-1.000000	-1.000000	-1.000000	-1.000000	-1.000000	-1.000000	64.000000	0.000000	-1.000000	-1.000000	525949.000000	1775713975.380203
-13579.920000	-3674.790000	370.620000	-6563.565000	-24022.530000	-34678.305000	36331.560000	57915.090000	-1.695087	-0.637462	-0.055846	0.576693	5.020161	9.493595	2.314015	-0.851036	-2.716280	0.793520	-0.518840	-0.569823	0.155456	0.794554	-1.000000	-1.000000	-1.000000	-1.000000	-1.000000	-1.000000	-1.000000	64.000000	0.000000	-1.000000	-1.000000	525950.000000	1775713975.380231
-13577.490000	-3672.495000	372.870000	-6561.315000	-24023.160000	-34681.005000	36329.580000	57915.405000	-1.991796	-1.479902	-0.995890	-1.054561	0.677777	13.463096	3.372880	-0.554010	-1.403920	1.281840	0.259420	-0.569090	0.149597	0.794493	-1.000000	-1.000000	-1.000000	-1.000000	-1.000000	-1.000000	-1.000000	64.000000	0.000000	-1.000000	-1.000000	525951.000000	1775713975.380258
-13575.105000	-3672.000000	374.355000	-6559.515000	-24018.840000	-34679.250000	36329.085000	57915.720000	-1.599310	-1.946865	-1.964715	-2.247744	-3.307312	11.253992	3.305287	-0.092530	-1.403920	1.281840	0.259420	-0.569090	0.149597	0.794493	-1.000000	-1.000000	-1.000000	-1.000000	-1.000000	-1.000000	-1.000000	64.000000	0.000000	-1.000000	-1.000000	525952.000000	1775713975.380270
-13574.520000	-3672.495000	372.780000	-6558.480000	-24016.680000	-34679.925000	36329.220000	57916.170000	0.042401	-0.884369	-1.249519	-1.387930	-4.012053	6.590894	2.007923	0.458230	-1.403920	1.281840	0.259420	-0.569090	0.149597	0.794493	-1.000000	-1.000000	-1.000000	-1.000000	-1.000000	-1.000000	-1.000000	64.000000	0.000000	-1.000000	-1.000000	525953.000000	1775713975.380285
-13574.385000	-3673.845000	372.555000	-6556.320000	-24015.870000	-34684.245000	36329.310000	57917.970000	2.008554	1.022624	0.702741	0.934734	-1.539751	2.295531	0.078401	0.797191	-1.403920	1.281840	0.259420	-0.569090	0.149597	0.794493	-1.000000	-1.000000	-1.000000	-1.000000	-1.000000	-1.000000	-1.000000	64.000000	0.000000	-1.000000	-1.000000	525954.000000	1775713975.380296
-13568.355000	-3666.465000	378.360000	-6554.250000	-24015.690000	-34686.315000	36326.430000	57921.210000	3.149285	2.583531	2.583244	3.144965	1.865366	-0.729924	-1.635818	0.867112	-1.403920	1.281840	0.259420	-0.569090	0.149597	0.794493	-1.000000	-1.000000	-1.000000	-1.000000	-1.000000	-1.000000	-1.000000	64.000000	0.000000	-1.000000	-1.000000	525955.000000	1775713975.380309
-13571.145000	-3667.140000	378.270000	-6555.780000	-24013.620000	-34680.420000	36324.270000	57916.305000	3.063850	3.284604	3.617666	3.988948	3.941656	-2.447743	-2.668840	0.696172	-1.403920	1.281840	0.259420	-0.569090	0.149597	0.794493	-1.000000	-1.000000	-1.000000	-1.000000	-1.000000	-1.000000	-1.000000	64.000000	0.000000	-1.000000	-1.000000	525956.000000	1775713975.380320
-13578.615000	-3671.955000	376.425000	-6552.540000	-24005.475000	-34679.790000	36322.065000	57908.835000	1.732292	2.924739	3.485859	3.114162	4.002077	-2.724771	-2.944231	-0.019773	-1.403920	1.281840	0.259420	-0.569090	0.149597	0.794493	-1.000000	-1.000000	-1.000000	-1.000000	-1.000000	-1.000000	-1.000000	64.000000	0.000000	-1.000000	-1.000000	525957.000000	1775713975.380333
-13578.705000	-3673.440000	374.625000	-6555.780000	-24013.350000	-34698.870000	36318.510000	57906.900000	-0.654506	1.280329	2.045122	1.092110	2.644565	-2.175018	-2.541490	-1.457669	-1.403920	1.281840	0.259420	-0.569090	0.149597	0.794493	-1.000000	-1.000000	-1.000000	-1.000000	-1.000000	-1.000000	-1.000000	64.000000	0.000000	-1.000000	-1.000000	525958.000000	1775713975.380344
-13570.470000	-3664.530000	383.310000	-6548.130000	-24005.475000	-34684.065000	36325.260000	57912.615000	-2.872053	-0.964818	-0.086968	-0.999869	0.566765	-2.044087	-1.499472	-2.710286	-1.403920	1.281840	0.259420	-0.569090	0.149597	0.794493	-1.000000	-1.000000	-1.000000	-1.000000	-1.000000	-1.000000	-1.000000	64.000000	0.000000	-1.000000	-1.000000	525959.000000	1775713975.380357
-13562.190000	-3658.365000	388.890000	-6540.075000	-23996.115000	-34687.620000	36322.245000	57919.095000	-3.060924	-2.132351	-1.478706	-1.984794	-1.286295	-2.117360	0.167122	-2.246226	-1.403920	1.281840	0.259420	-0.569090	0.149597	0.794493	-1.000000	-1.000000	-1.000000	-1.000000	-1.000000	-1.000000	-1.000000	64.000000	0.000000	-1.000000	-1.000000	525960.000000	1775713975.380368
-13564.035000	-3665.385000	375.705000	-6556.455000	-24020.595000	-34712.190000	36313.560000	57918.825000	-0.840274	-1.518655	-1.565755	-1.653923	-2.276728	-1.778703	1.767632	0.244171	2.182180	2.350040	-1.907500	-0.566344	0.149475	0.794798	-1.000000	-1.000000	-1.000000	-1.000000	-1.000000	-1.000000	-1.000000	64.000000	0.000000	-1.000000	-1.000000	525961.000000	1775713975.393946
-13568.130000	-3667.500000	374.220000	-6554.790000	-24013.530000	-34669.530000	36328.185000	57918.510000	1.795804	-0.472078	-1.559642	-1.395942	-3.187120	-1.186186	2.381906	3.087966	2.182180	2.350040	-1.907500	-0.566344	0.149475	0.794798	-1.000000	-1.000000	-1.000000	-1.000000	-1.000000	-1.000000	-1.000000	64.000000	0.000000	-1.000000	-1.000000	525962.000000	1775713975.393972
-13562.460000	-3664.980000	374.940000	-6553.440000	-24009.975000	-34713.990000	36335.385000	57924.270000	2.600781	-0.416598	-2.315131	-2.018759	-4.103275	0.037719	2.482274	4.303053	2.182180	2.350040	-1.907500	-0.566344	0.149475	0.794798	-1.000000	-1.000000	-1.000000	-1.000000	-1.000000	-1.000000	-1.000000	64.000000	0.000000	-1.000000	-1.000000	525963.000000	1775713975.393997
-13572.990000	-3677.670000	360.495000	-6563.835000	-24005.070000	-34679.565000	36332.100000	57915.675000	1.244845	-1.280743	-3.142627	-2.620300	-3.414845	1.516090	2.865937	3.288086	2.182180	2.350040	-1.907500	-0.566344	0.149475	0.794798	-1.000000	-1.000000	-1.000000	-1.000000	-1.000000	-1.000000	-1.000000	64.000000	0.000000	-1.000000	-1.000000	525964.000000	1775713975.394008
-13582.440000	-3685.005000	355.950000	-6568.605000	-24009.120000	-34654.545000	36329.895000	57908.970000	-1.379681	-2.504777	-3.398895	-2.534427	-0.666312	3.095396	2.700993	0.472377	2.182180	2.350040	-1.907500	-0.566344	0.149475	0.794798	-1.000000	-1.000000	-1.000000	-1.000000	-1.000000	-1.000000	-1.000000	64.000000	0.000000	-1.000000	-1.000000	525965.000000	1775713975.394022
-13570.740000	-3673.080000	370.080000	-6555.780000	-24001.560000	-34681.680000	36322.920000	57913.335000	-3.864840	-3.233422	-2.561214	-1.585207	2.513854	5.267021	0.766744	-2.960041	2.182180	2.350040	-1.907500	-0.566344	0.149475	0.794798	-1.000000	-1.000000	-1.000000	-1.000000	-1.000000	-1.000000	-1.000000	64.000000	0.000000	-1.000000	-1.000000	525966.000000	1775713975.394033
-13565.205000	-3668.355000	375.300000	-6551.460000	-23995.890000	-34675.290000	36321.030000	57920.085000	-4.083137	-1.918932	0.337258	0.801999	4.536070	5.582480	-2.581879	-4.856764	2.182180	2.350040	-1.907500	-0.566344	0.149475	0.794798	-1.000000	-1.000000	-1.000000	-1.000000	-1.000000	-1.000000	-1.000000	64.000000	0.000000	-1.000000	-1.000000	525967.000000	1775713975.403150
-13574.340000	-3677.895000	365.580000	-6555.015000	-23979.645000	-34614.765000	36330.120000	57910.680000	-1.323975	1.528688	4.600865	4.152101	5.196845	2.889285	-5.312050	-3.877868	2.182180	2.350040	-1.907500	-0.566344	0.149475	0.794798	-1.000000	-1.000000	-1.000000	-1.000000	-1.000000	-1.000000	-1.000000	64.000000	0.000000	-1.000000	-1.000000	525968.000000	1775713975.403178
-13576.635000	-3680.145000	362.880000	-6557.670000	-23986.980000	-34636.455000	36344.160000	57912.435000	2.101630	4.544569	7.146242	6.177690	4.771323	0.716475	-5.028034	-1.193995	2.182180	2.350040	-1.907500	-0.566344	0.149475	0.794798	-1.000000	-1.000000	-1.000000	-1.000000	-1.000000	-1.000000	-1.000000	64.000000	0.000000	-1.000000	-1.000000	525969.000000	1775713975.403206
-13590.090000	-3694.995000	343.530000	-6583.545000	-24041.115000	-34657.065000	36331.605000	57904.785000	3.334212	4.579794	5.546732	4.681114	1.836713	-0.479024	-1.497641	1.029586	2.182180	2.350040	-1.907500	-0.566344	0.149475	0.794798	-1.000000	-1.000000	-1.000000	-1.000000	-1.000000	-1.000000	-1.000000	64.000000	0.000000	-1.000000	-1.000000	525970.000000	1775713975.403219
-13590.315000	-3691.755000	346.590000	-6583.005000	-24044.625000	-34692.705000	36318.465000	57901.905000	1.755127	1.659989	0.491794	-0.358588	-5.368258	-4.980717	2.073080	1.691826	-0.274680	2.701020	0.289940	-0.566405	0.155639	0.795591	-1.000000	-1.000000	-1.000000	-1.000000	-1.000000	-1.000000	-1.000000	64.000000	0.000000	-1.000000	-1.000000	525971.000000	1775713975.403233
-13583.070000	-3682.125000	356.805000	-6571.080000	-24026.940000	-34700.940000	36316.035000	57906.135000	-0.669940	-1.556307	-4.350588	-5.610282	-13.190845	-13.411058	2.311227	1.178201	-0.274680	2.701020	0.289940	-0.566405	0.155639	0.795591	-1.000000	-1.000000	-1.000000	-1.000000	-1.000000	-1.000000	-1.000000	64.000000	0.000000	-1.000000	-1.000000	525972.000000	1775713975.403244
-13578.885000	-3679.785000	357.390000	-6571.530000	-24025.275000	-34739.235000	36320.355000	57910.185000	-1.223865	-2.111061	-5.192256	-6.618924	-13.913148	-20.395078	-0.227412	0.834699	-0.274680	2.701020	0.289940	-0.566405	0.155639	0.795591	-1.000000	-1.000000	-1.000000	-1.000000	-1.000000	-1.000000	-1.000000	64.000000	0.000000	-1.000000	-1.000000	525973.000000	1775713975.409611
-13588.605000	-3689.910000	351.045000	-6573.555000	-24014.925000	-34667.055000	36322.380000	57902.580000	0.577409	-0.008757	-1.988236	-2.673435	-5.081642	-19.018591	-2.147508	1.354407	-0.274680	2.701020	0.289940	-0.566405	0.155639	0.795591	-1.000000	-1.000000	-1.000000	-1.000000	-1.000000	-1.000000	-1.000000	64.000000	0.000000	-1.000000	-1.000000	525974.000000	1775713975.409655
-13587.660000	-3689.460000	350.010000	-6573.195000	-24012.180000	-34593.435000	36328.860000	57904.830000	2.532697	1.970320	1.846644	2.717797	7.798830	-4.059825	-1.252739	1.907021	-0.274680	2.701020	0.289940	-0.566405	0.155639	0.795591	-1.000000	-1.000000	-1.000000	-1.000000	-1.000000	-1.000000	-1.000000	64.000000	0.000000	-1.000000	-1.000000	525975.000000	1775713975.420149
-13579.785000	-3681.180000	358.380000	-6567.795000	-24014.250000	-34627.500000	36325.485000	57908.745000	2.877645	2.049426	3.592039	5.990693	16.882330	20.809735	1.718390	1.690115	-0.274680	2.701020	0.289940	-0.566405	0.155639	0.795591	-1.000000	-1.000000	-1.000000	-1.000000	-1.000000	-1.000000	-1.000000	64.000000	0.000000	-1.000000	-1.000000	525976.000000	1775713975.420175
-13582.395000	-3682.035000	359.595000	-6565.005000	-24007.365000	-34659.630000	36321.570000	57905.100000	2.006597	1.032512	3.304492	6.150675	17.614224	38.327158	4.191246	0.946063	-0.274680	2.701020	0.289940	-0.566405	0.155639	0.795591	-1.000000	-1.000000	-1.000000	-1.000000	-1.000000	-1.000000	-1.000000	64.000000	0.000000	-1.000000	-1.000000	525977.000000	1775713975.420203
-13592.520000	-3692.160000	349.200000	-6574.455000	-24011.505000	-34660.440000	36320.265000	57898.620000	0.596772	-0.080511	1.917324	3.878363	10.820217	32.956656	4.111737	-0.089884	-0.274680	2.701020	0.289940	-0.566405	0.155639	0.795591	-1.000000	-1.000000	-1.000000	-1.000000	-1.000000	-1.000000	-1.000000	64.000000	0.000000	-1.000000	-1.000000	525978.000000	1775713975.420215
-13587.840000	-3686.040000	354.600000	-6571.350000	-24016.995000	-34686.585000	36320.535000	57901.230000	-1.312113	-1.335493	-0.245838	0.163672	0.673173	8.033226	1.677777	-1.419796	-0.274680	2.701020	0.289940	-0.566405	0.155639	0.795591	-1.000000	-1.000000	-1.000000	-1.000000	-1.000000	-1.000000	-1.000000	64.000000	0.000000	-1.000000	-1.000000	525979.000000	1775713975.420230
-13582.035000	-3677.670000	363.645000	-6561.405000	-24006.420000	-34679.565000	36318.510000	57903.570000	-2.875187	-2.212962	-2.256848	-3.299868	-8.223904	-19.486365	-1.259861	-2.368843	-0.274680	2.701020	0.289940	-0.566405	0.155639	0.795591	-1.000000	-1.000000	-1.000000	-1.000000	-1.000000	-1.000000	-1.000000	64.000000	0.000000	-1.000000	-1.000000	525980.000000	1775713975.420241
-13587.930000	-3683.340000	360.405000	-6561.765000	-23999.400000	-34676.820000	36327.600000	57904.605000	-2.863699	-1.751428	-2.687526	-4.520257	-12.214073	-33.916933	-2.881447	-2.045725	-3.006220	2.395820	1.083460	-0.568602	0.157043	0.794004	-1.000000	-1.000000	-1.000000	-1.000000	-1.000000	-1.000000	-1.000000	64.000000	0.000000	-1.000000	-1.000000	525981.000000	1775713975.425246
-13590.990000	-3691.215000	352.215000	-6571.395000	-24014.385000	-34708.815000	36326.205000	57906.630000	-1.619069	-0.586248	-1.794954	-3.470665	-10.571213	-30.308097	-2.401655	-0.543542	-3.006220	2.395820	1.083460	-0.568602	0.157043	0.794004	-1.000000	-1.000000	-1.000000	-1.000000	-1.000000	-1.000000	-1.000000	64.000000	0.000000	-1.000000	-1.000000	525982.000000	1775713975.425274
-13587.255000	-3688.740000	352.305000	-6571.890000	-24015.825000	-34703.235000	36319.050000	57906.630000	-0.412788	-0.233896	-1.204959	-2.104833	-6.257354	-15.185847	-0.697347	1.139266	-3.006220	2.395820	1.083460	-0.568602	0.157043	0.794004	-1.000000	-1.000000	-1.000000	-1.000000	-1.000000	-1.000000	-1.000000	64.000000	0.000000	-1.000000	-1.000000	525983.000000	1775713975.428048
-13585.770000	-3685.905000	354.150000	-6569.595000	-24010.245000	-34677.405000	36324.810000	57906.945000	0.390012	-0.682945	-1.398297	-1.556470	-2.391750	2.237446	0.482983	1.996492	-3.006220	2.395820	1.083460	-0.568602	0.157043	0.794004	-1.000000	-1.000000	-1.000000	-1.000000	-1.000000	-1.000000	-1.000000	64.000000	0.000000	-1.000000	-1.000000	525984.000000	1775713975.428071
-13579.920000	-3679.560000	359.370000	-6568.470000	-24024.465000	-34698.915000	36335.070000	57913.470000	1.163622	-0.602079	-1.301276	-1.140454	0.249797	16.299196	0.761160	1.767577	-3.006220	2.395820	1.083460	-0.568602	0.157043	0.794004	-1.000000	-1.000000	-1.000000	-1.000000	-1.000000	-1.000000	-1.000000	64.000000	0.000000	-1.000000	-1.000000	525985.000000	1775713975.433905
-13575.240000	-3673.710000	366.345000	-6560.145000	-24017.940000	-34652.565000	36338.445000	57912.795000	2.056554	0.739780	0.037186	0.073585	1.811168	23.664482	1.151112	0.983339	-3.006220	2.395820	1.083460	-0.568602	0.157043	0.794004	-1.000000	-1.000000	-1.000000	-1.000000	-1.000000	-1.000000	-1.000000	64.000000	0.000000	-1.000000	-1.000000	525986.000000	1775713975.433934
-13572.090000	-3667.230000	373.410000	-6551.865000	-24002.730000	-34689.240000	36326.295000	57914.370000	2.725264	2.734318	2.364194	2.188927	2.962829	23.055322	1.631756	0.140814	-3.006220	2.395820	1.083460	-0.568602	0.157043	0.794004	-1.000000	-1.000000	-1.000000	-1.000000	-1.000000	-1.000000	-1.000000	64.000000	0.000000	-1.000000	-1.000000	525987.000000	1775713975.433958
-13587.075000	-3683.115000	357.930000	-6562.845000	-24005.385000	-34750.080000	36306.675000	57904.020000	2.268016	3.716542	4.066526	4.128537	4.676429	13.727769	0.482879	-0.863159	-3.006220	2.395820	1.083460	-0.568602	0.157043	0.794004	-1.000000	-1.000000	-1.000000	-1.000000	-1.000000	-1.000000	-1.000000	64.000000	0.000000	-1.000000	-1.000000	525988.000000	1775713975.433966
-13583.610000	-3682.035000	359.550000	-6561.045000	-24001.110000	-34734.285000	36301.185000	57906.990000	-0.057243	2.066888	3.180600	4.046812	6.265455	-3.230634	-3.138983	-2.209755	-3.006220	2.395820	1.083460	-0.568602	0.157043	0.794004	-1.000000	-1.000000	-1.000000	-1.000000	-1.000000	-1.000000	-1.000000	64.000000	0.000000	-1.000000	-1.000000	525989.000000	1775713975.439626
-13586.805000	-3684.240000	356.895000	-6561.135000	-23985.135000	-34623.855000	36302.265000	57901.185000	-3.280047	-1.711529	-0.227984	1.469375	6.225014	-17.168100	-6.920870	-3.355284	-3.006220	2.395820	1.083460	-0.568602	0.157043	0.794004	-1.000000	-1.000000	-1.000000	-1.000000	-1.000000	-1.000000	-1.000000	64.000000	0.000000	-1.000000	-1.000000	525990.000000	1775713975.439653
-13596.435000	-3695.940000	344.970000	-6570.270000	-23991.120000	-34606.215000	36317.610000	57896.415000	-5.359762	-5.179098	-3.934684	-2.018755	4.358370	-14.021116	-6.963996	-3.506172	-3.937080	2.960440	-0.335720	-0.568480	0.153930	0.794554	-1.000000	-1.000000	-1.000000	-1.000000	-1.000000	-1.000000	-1.000000	64.000000	0.000000	-1.000000	-1.000000	525991.000000	1775713975.443330
-13599.315000	-3704.040000	333.585000	-6583.365000	-24006.600000	-34654.770000	36319.410000	57893.265000	-5.383160	-6.643616	-6.178236	-4.862485	0.768623	3.328417	-1.726638	-2.554806	-3.937080	2.960440	-0.335720	-0.568480	0.153930	0.794554	-1.000000	-1.000000	-1.000000	-1.000000	-1.000000	-1.000000	-1.000000	64.000000	0.000000	-1.000000	-1.000000	525992.000000	1775713975.443353
-13593.690000	-3696.975000	341.370000	-6578.865000	-24004.125000	-34660.215000	36321.705000	57897.720000	-3.473153	-5.678294	-6.230313	-6.246872	-4.374036	15.262612	5.939193	-0.750844	-3.937080	2.960440	-0.335720	-0.568480	0.153930	0.794554	-1.000000	-1.000000	-1.000000	-1.000000	-1.000000	-1.000000	-1.000000	64.000000	0.000000	-1.000000	-1.000000	525993.000000	1775713975.452699
-13597.470000	-3697.155000	343.530000	-6577.875000	-24009.165000	-34676.460000	36316.710000	57896.640000	-0.036931	-2.190222	-3.442525	-5.192431	-9.016183	9.457841	10.973811	1.659826	-3.937080	2.960440	-0.335720	-0.568480	0.153930	0.794554	-1.000000	-1.000000	-1.000000	-1.000000	-1.000000	-1.000000	-1.000000	64.000000	0.000000	-1.000000	-1.000000	525994.000000	1775713975.452726
-13596.480000	-3696.165000	344.565000	-6576.750000	-24004.980000	-34659.090000	36312.435000	57897.270000	3.684472	2.838637	1.707023	-1.403955	-10.242503	-7.462823	10.208835	3.960593	-3.937080	2.960440	-0.335720	-0.568480	0.153930	0.794554	-1.000000	-1.000000	-1.000000	-1.000000	-1.000000	-1.000000	-1.000000	64.000000	0.000000	-1.000000	-1.000000	525995.000000	1775713975.452760
-13598.415000	-3701.385000	337.545000	-6580.980000	-24004.080000	-34642.440000	36310.590000	57892.590000	5.967365	6.982166	6.635287	3.418743	-7.031158	-20.374252	4.403843	4.998786	-3.937080	2.960440	-0.335720	-0.568480	0.153930	0.794554	-1.000000	-1.000000	-1.000000	-1.000000	-1.000000	-1.000000	-1.000000	64.000000	0.000000	-1.000000	-1.000000	525996.000000	1775713975.452773
-13595.580000	-3696.570000	343.125000	-6575.040000	-23997.915000	-34636.230000	36312.030000	57896.865000	5.967175	8.145780	8.550419	6.742475	-0.893844	-19.873011	-2.743187	4.169678	-3.937080	2.960440	-0.335720	-0.568480	0.153930	0.794554	-1.000000	-1.000000	-1.000000	-1.000000	-1.000000	-1.000000	-1.000000	64.000000	0.000000	-1.000000	-1.000000	525997.000000	1775713975.455420
-13596.030000	-3697.470000	343.845000	-6575.580000	-24003.180000	-34663.545000	36312.435000	57897.090000	4.136568	6.251765	6.955101	7.323413	5.183456	-8.729280	-7.346254	2.106803	-3.937080	2.960440	-0.335720	-0.568480	0.153930	0.794554	-1.000000	-1.000000	-1.000000	-1.000000	-1.000000	-1.000000	-1.000000	64.000000	0.000000	-1.000000	-1.000000	525998.000000	1775713975.455445
-13601.160000	-3702.645000	338.805000	-6581.070000	-24012.630000	-34694.595000	36315.135000	57892.320000	1.441688	2.666368	3.329943	5.386523	8.160694	2.413545	-7.701302	-0.086030	-3.937080	2.960440	-0.335720	-0.568480	0.153930	0.794554	-1.000000	-1.000000	-1.000000	-1.000000	-1.000000	-1.000000	-1.000000	64.000000	0.000000	-1.000000	-1.000000	525999.000000	1775713975.459779
-13596.840000	-3699.720000	341.055000	-6581.925000	-24017.265000	-34702.650000	36315.585000	57895.785000	-1.253671	-1.142975	-0.676036	1.764526	6.653555	5.759665	-4.677201	-1.802760	-3.937080	2.960440	-0.335720	-0.568480	0.153930	0.794554	-1.000000	-1.000000	-1.000000	-1.000000	-1.000000	-1.000000	-1.000000	64.000000	0.000000	-1.000000	-1.000000	526000.000000	1775713975.459805
-13595.670000	-3699.090000	341.145000	-6582.555000	-24017.535000	-34717.095000	36315.495000	57898.890000	-3.015617	-3.833001	-3.710652	-2.134157	2.164268	2.555889	-0.565881	-2.619709	-0.366240	2.289000	0.305200	-0.568785	0.150756	0.793943	-1.000000	-1.000000	-1.000000	-1.000000	-1.000000	-1.000000	-1.000000	64.000000	0.000000	-1.000000	-1.000000	526001.000000	1775713975.469026
-13591.890000	-3695.265000	343.755000	-6577.695000	-24008.670000	-34710.165000	36312.705000	57901.815000	-3.154649	-4.468684	-4.815510	-4.560302	-1.858770	-0.701065	2.401098	-2.183214	-0.366240	2.289000	0.305200	-0.568785	0.150756	0.793943	-1.000000	-1.000000	-1.000000	-1.000000	-1.000000	-1.000000	-1.000000	64.000000	0.000000	-1.000000	-1.000000	526002.000000	1775713975.469055
-13594.860000	-3697.245000	342.540000	-6577.965000	-24006.915000	-34673.670000	36314.955000	57899.565000	-1.985699	-3.229199	-3.990340	-4.522019	-2.746604	1.385866	3.197227	-0.899012	-0.366240	2.289000	0.305200	-0.568785	0.150756	0.793943	-1.000000	-1.000000	-1.000000	-1.000000	-1.000000	-1.000000	-1.000000	64.000000	0.000000	-1.000000	-1.000000	526003.000000	1775713975.471457
-13604.940000	-3707.280000	332.550000	-6586.965000	-24012.945000	-34650.315000	36309.645000	57891.510000	-0.824741	-1.485787	-2.345925	-2.728387	-0.806278	9.901942	2.209237	0.021356	-0.366240	2.289000	0.305200	-0.568785	0.150756	0.793943	-1.000000	-1.000000	-1.000000	-1.000000	-1.000000	-1.000000	-1.000000	64.000000	0.000000	-1.000000	-1.000000	526004.000000	1775713975.471479
-13601.295000	-3703.185000	335.475000	-6582.600000	-24007.995000	-34661.970000	36308.700000	57892.275000	-0.781353	-0.658174	-1.220145	-0.913719	1.435040	19.700534	0.436875	-0.331175	-0.366240	2.289000	0.305200	-0.568785	0.150756	0.793943	-1.000000	-1.000000	-1.000000	-1.000000	-1.000000	-1.000000	-1.000000	64.000000	0.000000	-1.000000	-1.000000	526005.000000	1775713975.471504
-13595.400000	-3696.435000	339.345000	-6578.190000	-24005.475000	-34671.285000	36310.185000	57895.965000	-1.271155	-0.545961	-0.683611	0.193019	2.217533	21.881363	-1.100344	-1.354845	-0.366240	2.289000	0.305200	-0.568785	0.150756	0.793943	-1.000000	-1.000000	-1.000000	-1.000000	-1.000000	-1.000000	-1.000000	64.000000	0.000000	-1.000000	-1.000000	526006.000000	1775713975.471516
-13594.815000	-3695.805000	337.545000	-6580.080000	-24008.625000	-34684.335000	36307.575000	57895.245000	-0.797260	0.132822	0.158970	1.054509	1.566611	11.959329	-1.619690	-1.578236	-0.366240	2.289000	0.305200	-0.568785	0.150756	0.793943	-1.000000	-1.000000	-1.000000	-1.000000	-1.000000	-1.000000	-1.000000	64.000000	0.000000	-1.000000	-1.000000	526007.000000	1775713975.487437
-13598.415000	-3700.935000	330.705000	-6587.505000	-24019.245000	-34699.905000	36311.355000	57893.985000	0.747279	1.444888	1.291556	1.597036	-0.122594	-5.655783	-1.007023	-0.543971	-0.366240	2.289000	0.305200	-0.568785	0.150756	0.793943	-1.000000	-1.000000	-1.000000	-1.000000	-1.000000	-1.000000	-1.000000	64.000000	0.000000	-1.000000	-1.000000	526008.000000	1775713975.487468
-13598.505000	-3700.845000	330.435000	-6584.940000	-24010.695000	-34703.415000	36310.410000	57893.355000	1.982026	2.098835	1.739164	1.188427	-2.326076	-21.547664	0.247345	0.872915	-0.366240	2.289000	0.305200	-0.568785	0.150756	0.793943	-1.000000	-1.000000	-1.000000	-1.000000	-1.000000	-1.000000	-1.000000	64.000000	0.000000	-1.000000	-1.000000	526009.000000	1775713975.487494
