Channel1	Channel2	Channel3	Channel4	Channel5	Channel6	Channel7	Channel8	FilteredChannel1	FilteredChannel2	FilteredChannel3	FilteredChannel4	FilteredChannel5	FilteredChannel6	FilteredChannel7	FilteredChannel8	GyroX	GyroY	GyroZ	AccX	AccY	AccZ	PPG1	PPG2	rawPPG1	rawPPG2	rawPPG3	Hr	Hrv	Battery	Trigger	PhysicalTrigger	AutoTrigger	NumMeasurements	Timestamp
8842.680000	4229.145000	32390.595000	51269.670000	34287.345000	19928.160000	-9834.255000	728.595000	-1.999033	0.624713	2.980595	5.260739	6.994209	-3.055614	1.114016	-0.024172	41.980260	-0.061040	7.034860	-0.756163	-0.069214	0.644469	-1.000000	-1.000000	-1.000000	-1.000000	-1.000000	-1.000000	-1.000000	59.000000	0.000000	-1.000000	-1.000000	1776983.000000	1776579956.029855
8850.735000	4231.305000	32388.795000	51265.935000	34281.540000	19920.780000	-9832.410000	740.610000	-7.232911	-3.633401	0.468154	0.034158	4.222191	6.287387	-0.867167	-4.456096	41.980260	-0.061040	7.034860	-0.756163	-0.069214	0.644469	-1.000000	-1.000000	-1.000000	-1.000000	-1.000000	-1.000000	-1.000000	59.000000	0.000000	-1.000000	-1.000000	1776984.000000	1776579956.029880
8856.180000	4230.315000	32382.630000	51257.790000	34272.270000	19905.345000	-9832.770000	747.990000	-8.496763	-6.023309	-2.321422	-4.725971	-1.126942	8.610027	-2.604184	-5.872394	41.980260	-0.061040	7.034860	-0.756163	-0.069214	0.644469	-1.000000	-1.000000	-1.000000	-1.000000	-1.000000	-1.000000	-1.000000	59.000000	0.000000	-1.000000	-1.000000	1776985.000000	1776579956.033630
8859.915000	4238.280000	32392.845000	51271.605000	34285.905000	19912.050000	-9830.880000	750.870000	-4.244894	-4.246514	-2.834413	-6.326082	-6.284443	4.344797	-3.103556	-2.503230	41.980260	-0.061040	7.034860	-0.756163	-0.069214	0.644469	-1.000000	-1.000000	-1.000000	-1.000000	-1.000000	-1.000000	-1.000000	59.000000	0.000000	-1.000000	-1.000000	1776986.000000	1776579956.033654
8859.105000	4239.270000	32396.220000	51274.485000	34287.705000	19928.340000	-9831.195000	748.620000	2.547247	0.517167	-0.666701	-4.115868	-7.955360	-0.739737	-2.138118	2.928347	41.980260	-0.061040	7.034860	-0.756163	-0.069214	0.644469	-1.000000	-1.000000	-1.000000	-1.000000	-1.000000	-1.000000	-1.000000	59.000000	0.000000	-1.000000	-1.000000	1776987.000000	1776579956.037715
8859.915000	4240.080000	32395.005000	51267.465000	34276.140000	19913.940000	-9832.140000	747.180000	7.458508	5.274440	2.852224	0.409463	-5.366286	-1.801967	-0.406763	6.230848	41.980260	-0.061040	7.034860	-0.756163	-0.069214	0.644469	-1.000000	-1.000000	-1.000000	-1.000000	-1.000000	-1.000000	-1.000000	59.000000	0.000000	-1.000000	-1.000000	1776988.000000	1776579956.037735
8861.580000	4242.735000	32399.415000	51272.145000	34274.385000	19889.640000	-9836.055000	746.595000	8.078487	7.334418	5.322609	4.054778	-1.282827	0.123847	1.006117	5.432710	41.980260	-0.061040	7.034860	-0.756163	-0.069214	0.644469	-1.000000	-1.000000	-1.000000	-1.000000	-1.000000	-1.000000	-1.000000	59.000000	0.000000	-1.000000	-1.000000	1776989.000000	1776579956.041783
8863.740000	4251.105000	32412.240000	51287.040000	34283.610000	19892.070000	-9833.985000	748.440000	5.052077	6.113112	5.443616	5.074891	1.596334	0.842165	1.440750	1.734544	41.980260	-0.061040	7.034860	-0.756163	-0.069214	0.644469	-1.000000	-1.000000	-1.000000	-1.000000	-1.000000	-1.000000	-1.000000	59.000000	0.000000	-1.000000	-1.000000	1776990.000000	1776579956.041798
8870.310000	4255.470000	32415.480000	51294.105000	34301.880000	19928.610000	-9832.410000	751.770000	0.814474	3.078999	3.885064	4.455877	3.455206	0.167684	1.174279	-2.098105	42.468580	-0.137340	5.127360	-0.752562	-0.049194	0.646605	-1.000000	-1.000000	-1.000000	-1.000000	-1.000000	-1.000000	-1.000000	59.000000	0.000000	-1.000000	-1.000000	1776991.000000	1776579956.045900
8862.120000	4243.185000	32398.740000	51277.140000	34298.505000	19959.390000	-9826.110000	750.735000	-2.495797	-0.292196	1.281761	3.027650	5.328901	2.247715	1.016420	-3.978354	42.468580	-0.137340	5.127360	-0.752562	-0.049194	0.646605	-1.000000	-1.000000	-1.000000	-1.000000	-1.000000	-1.000000	-1.000000	59.000000	0.000000	-1.000000	-1.000000	1776992.000000	1776579956.045915
8851.455000	4236.165000	32397.210000	51276.780000	34297.155000	19957.005000	-9825.660000	748.170000	-4.513786	-3.779420	-2.641853	0.010744	6.227244	8.108973	1.378170	-3.707722	42.468580	-0.137340	5.127360	-0.752562	-0.049194	0.646605	-1.000000	-1.000000	-1.000000	-1.000000	-1.000000	-1.000000	-1.000000	59.000000	0.000000	-1.000000	-1.000000	1776993.000000	1776579956.049667
8850.960000	4228.020000	32387.895000	51267.420000	34281.630000	19933.560000	-9829.170000	746.055000	-5.802188	-7.134453	-7.087543	-4.460279	4.075997	11.849118	1.721780	-2.426007	42.468580	-0.137340	5.127360	-0.752562	-0.049194	0.646605	-1.000000	-1.000000	-1.000000	-1.000000	-1.000000	-1.000000	-1.000000	59.000000	0.000000	-1.000000	-1.000000	1776994.000000	1776579956.049677
8866.440000	4237.695000	32389.110000	51266.520000	34277.625000	19931.130000	-9830.700000	749.880000	-5.685441	-8.737040	-9.673525	-8.150107	-1.318745	7.110947	1.109139	-1.107450	42.468580	-0.137340	5.127360	-0.752562	-0.049194	0.646605	-1.000000	-1.000000	-1.000000	-1.000000	-1.000000	-1.000000	-1.000000	59.000000	0.000000	-1.000000	-1.000000	1776995.000000	1776579956.053720
8862.255000	4235.310000	32387.805000	51266.610000	34279.245000	19927.170000	-9839.700000	742.275000	-2.879735	-6.753814	-8.488066	-8.684064	-7.152289	-4.726399	-0.703254	-0.027700	42.468580	-0.137340	5.127360	-0.752562	-0.049194	0.646605	-1.000000	-1.000000	-1.000000	-1.000000	-1.000000	-1.000000	-1.000000	59.000000	0.000000	-1.000000	-1.000000	1776996.000000	1776579956.053726
8857.035000	4234.545000	32391.630000	51274.575000	34292.385000	19932.930000	-9836.145000	741.915000	1.569273	-1.580183	-3.648788	-5.266107	-9.341555	-15.665301	-2.882988	0.618568	42.468580	-0.137340	5.127360	-0.752562	-0.049194	0.646605	-1.000000	-1.000000	-1.000000	-1.000000	-1.000000	-1.000000	-1.000000	59.000000	0.000000	-1.000000	-1.000000	1776997.000000	1776579956.057762
8859.825000	4240.125000	32397.615000	51278.805000	34294.320000	19935.135000	-9831.690000	744.660000	4.701376	4.094687	2.843210	0.874396	-5.937524	-18.711392	-3.848360	0.813158	42.468580	-0.137340	5.127360	-0.752562	-0.049194	0.646605	-1.000000	-1.000000	-1.000000	-1.000000	-1.000000	-1.000000	-1.000000	59.000000	0.000000	-1.000000	-1.000000	1776998.000000	1776579956.057772
8869.005000	4245.930000	32403.735000	51285.105000	34299.630000	19940.985000	-9822.555000	752.895000	5.188372	7.830659	8.382542	7.002302	0.930927	-12.765771	-2.352892	1.185409	42.468580	-0.137340	5.127360	-0.752562	-0.049194	0.646605	-1.000000	-1.000000	-1.000000	-1.000000	-1.000000	-1.000000	-1.000000	59.000000	0.000000	-1.000000	-1.000000	1776999.000000	1776579956.061969
8876.700000	4249.980000	32402.520000	51283.350000	34292.160000	19935.810000	-9818.370000	760.545000	4.201551	8.758751	10.847055	10.247979	6.741346	-2.128330	1.173663	2.334490	42.468580	-0.137340	5.127360	-0.752562	-0.049194	0.646605	-1.000000	-1.000000	-1.000000	-1.000000	-1.000000	-1.000000	-1.000000	59.000000	0.000000	-1.000000	-1.000000	1777000.000000	1776579956.062005
8876.160000	4248.630000	32397.840000	51278.130000	34280.595000	19928.790000	-9825.480000	756.855000	3.035904	6.973015	9.139763	9.005975	7.852782	7.007717	4.457305	3.710302	33.282060	-1.800680	11.994360	-0.754271	-0.021728	0.646788	-1.000000	-1.000000	-1.000000	-1.000000	-1.000000	-1.000000	-1.000000	59.000000	0.000000	-1.000000	-1.000000	1777001.000000	1776579956.065810
8866.485000	4242.060000	32394.870000	51278.760000	34290.000000	19940.625000	-9829.170000	749.835000	1.424750	2.964997	3.810307	3.857303	4.051144	10.788094	4.905192	3.617261	33.282060	-1.800680	11.994360	-0.754271	-0.021728	0.646788	-1.000000	-1.000000	-1.000000	-1.000000	-1.000000	-1.000000	-1.000000	59.000000	0.000000	-1.000000	-1.000000	1777002.000000	1776579956.065830
8863.200000	4246.110000	32410.710000	51285.600000	34297.920000	19945.215000	-9828.135000	749.970000	-1.448841	-2.089393	-2.448045	-2.338838	-1.051248	9.816954	2.017824	1.032131	33.282060	-1.800680	11.994360	-0.754271	-0.021728	0.646788	-1.000000	-1.000000	-1.000000	-1.000000	-1.000000	-1.000000	-1.000000	59.000000	0.000000	-1.000000	-1.000000	1777003.000000	1776579956.069868
8853.660000	4240.530000	32409.855000	51290.865000	34297.110000	19931.850000	-9832.545000	748.125000	-5.064425	-6.190239	-6.115119	-6.121895	-3.475267	6.569266	-2.087215	-2.801860	33.282060	-1.800680	11.994360	-0.754271	-0.021728	0.646788	-1.000000	-1.000000	-1.000000	-1.000000	-1.000000	-1.000000	-1.000000	59.000000	0.000000	-1.000000	-1.000000	1777004.000000	1776579956.069881
8857.620000	4251.195000	32419.980000	51303.105000	34292.610000	19898.370000	-9832.365000	756.135000	-7.491290	-7.536340	-5.774730	-5.838591	-2.738899	1.676309	-4.836044	-5.312858	33.282060	-1.800680	11.994360	-0.754271	-0.021728	0.646788	-1.000000	-1.000000	-1.000000	-1.000000	-1.000000	-1.000000	-1.000000	59.000000	0.000000	-1.000000	-1.000000	1777005.000000	1776579956.073809
8864.235000	4248.360000	32410.755000	51289.110000	34287.345000	19885.095000	-9833.895000	758.160000	-6.742889	-5.645839	-3.065651	-2.760268	-1.179391	-5.087924	-5.022608	-4.783302	33.282060	-1.800680	11.994360	-0.754271	-0.021728	0.646788	-1.000000	-1.000000	-1.000000	-1.000000	-1.000000	-1.000000	-1.000000	59.000000	0.000000	-1.000000	-1.000000	1777006.000000	1776579956.073818
8881.785000	4251.690000	32404.500000	51279.480000	34284.510000	19901.475000	-9830.925000	758.835000	-2.151098	-1.765147	-0.919885	-0.270843	-0.718916	-10.850449	-2.924354	-1.710365	33.282060	-1.800680	11.994360	-0.754271	-0.021728	0.646788	-1.000000	-1.000000	-1.000000	-1.000000	-1.000000	-1.000000	-1.000000	59.000000	0.000000	-1.000000	-1.000000	1777007.000000	1776579956.079148
8889.120000	4256.955000	32408.370000	51282.135000	34290.045000	19931.805000	-9820.440000	761.175000	4.718036	1.997454	-0.925637	-0.605735	-1.179201	-9.976505	0.454887	1.721249	33.282060	-1.800680	11.994360	-0.754271	-0.021728	0.646788	-1.000000	-1.000000	-1.000000	-1.000000	-1.000000	-1.000000	-1.000000	59.000000	0.000000	-1.000000	-1.000000	1777008.000000	1776579956.079174
8879.535000	4250.610000	32416.380000	51284.835000	34293.240000	19961.685000	-9820.665000	754.650000	10.086210	4.079307	-1.832084	-2.351823	-1.072354	-0.009090	3.907760	3.448669	33.282060	-1.800680	11.994360	-0.754271	-0.021728	0.646788	-1.000000	-1.000000	-1.000000	-1.000000	-1.000000	-1.000000	-1.000000	59.000000	0.000000	-1.000000	-1.000000	1777009.000000	1776579956.081834
8878.995000	4252.545000	32398.155000	51282.810000	34303.050000	19982.115000	-9813.195000	757.845000	10.115674	3.832424	-1.763492	-2.703112	0.525272	14.265546	6.015545	2.782260	33.282060	-1.800680	11.994360	-0.754271	-0.021728	0.646788	-1.000000	-1.000000	-1.000000	-1.000000	-1.000000	-1.000000	-1.000000	59.000000	0.000000	-1.000000	-1.000000	1777010.000000	1776579956.081841
8883.180000	4261.410000	32395.005000	51288.705000	34313.310000	19993.860000	-9803.025000	763.245000	4.563465	1.929942	-1.034103	-0.776570	3.158217	23.769897	5.936339	0.776459	22.798440	-3.509800	19.471760	-0.759459	0.002991	0.642699	-1.000000	-1.000000	-1.000000	-1.000000	-1.000000	-1.000000	-1.000000	59.000000	0.000000	-1.000000	-1.000000	1777011.000000	1776579956.085893
8879.670000	4262.085000	32410.755000	51302.250000	34312.995000	19969.785000	-9809.280000	759.510000	-2.811999	0.133151	-0.371296	2.529128	5.336822	21.364309	3.905270	-0.805051	22.798440	-3.509800	19.471760	-0.759459	0.002991	0.642699	-1.000000	-1.000000	-1.000000	-1.000000	-1.000000	-1.000000	-1.000000	59.000000	0.000000	-1.000000	-1.000000	1777012.000000	1776579956.085908
8877.645000	4257.900000	32407.110000	51294.510000	34296.930000	19939.410000	-9814.635000	758.475000	-7.979369	-0.669340	1.055793	5.648795	4.969523	5.924530	0.302922	-1.334749	22.798440	-3.509800	19.471760	-0.759459	0.002991	0.642699	-1.000000	-1.000000	-1.000000	-1.000000	-1.000000	-1.000000	-1.000000	59.000000	0.000000	-1.000000	-1.000000	1777013.000000	1776579956.090042
8873.595000	4252.545000	32406.210000	51291.585000	34298.370000	19946.880000	-9821.160000	754.830000	-9.309284	-1.186541	3.307621	6.465504	0.953719	-15.864129	-4.274454	-1.361689	22.798440	-3.509800	19.471760	-0.759459	0.002991	0.642699	-1.000000	-1.000000	-1.000000	-1.000000	-1.000000	-1.000000	-1.000000	59.000000	0.000000	-1.000000	-1.000000	1777014.000000	1776579956.090088
8868.420000	4245.030000	32401.305000	51292.260000	34307.145000	19960.920000	-9820.530000	753.480000	-7.371840	-2.231971	4.588557	3.855016	-4.564166	-31.471283	-8.108842	-1.367807	22.798440	-3.509800	19.471760	-0.759459	0.002991	0.642699	-1.000000	-1.000000	-1.000000	-1.000000	-1.000000	-1.000000	-1.000000	59.000000	0.000000	-1.000000	-1.000000	1777015.000000	1776579956.093817
8874.225000	4252.635000	32408.325000	51289.965000	34303.005000	19938.285000	-9817.740000	757.080000	-3.602507	-3.344344	3.741074	-0.709131	-7.588012	-31.744572	-8.991253	-1.201987	22.798440	-3.509800	19.471760	-0.759459	0.002991	0.642699	-1.000000	-1.000000	-1.000000	-1.000000	-1.000000	-1.000000	-1.000000	59.000000	0.000000	-1.000000	-1.000000	1777016.000000	1776579956.093837
8879.265000	4255.470000	32405.535000	51276.420000	34287.660000	19935.720000	-9819.225000	757.260000	0.872579	-3.014286	1.571038	-4.773375	-6.762005	-18.750891	-6.063573	-0.416630	22.798440	-3.509800	19.471760	-0.759459	0.002991	0.642699	-1.000000	-1.000000	-1.000000	-1.000000	-1.000000	-1.000000	-1.000000	59.000000	0.000000	-1.000000	-1.000000	1777017.000000	1776579956.097875
8884.980000	4263.480000	32414.310000	51276.735000	34280.865000	19926.630000	-9819.585000	759.960000	5.154329	-0.445513	-0.389910	-6.950087	-4.211697	-1.689286	-0.814048	0.960740	22.798440	-3.509800	19.471760	-0.759459	0.002991	0.642699	-1.000000	-1.000000	-1.000000	-1.000000	-1.000000	-1.000000	-1.000000	59.000000	0.000000	-1.000000	-1.000000	1777018.000000	1776579956.097891
8884.305000	4264.740000	32419.575000	51290.685000	34293.060000	19936.485000	-9810.855000	762.660000	7.928684	3.235074	-1.129084	-6.345200	-1.704419	11.858639	4.221123	2.297190	22.798440	-3.509800	19.471760	-0.759459	0.002991	0.642699	-1.000000	-1.000000	-1.000000	-1.000000	-1.000000	-1.000000	-1.000000	59.000000	0.000000	-1.000000	-1.000000	1777019.000000	1776579956.101980
8884.215000	4264.785000	32421.690000	51298.515000	34301.520000	19938.015000	-9807.795000	762.840000	7.872971	5.753095	-0.626772	-2.302748	1.381404	19.085619	7.390704	2.904706	22.798440	-3.509800	19.471760	-0.759459	0.002991	0.642699	-1.000000	-1.000000	-1.000000	-1.000000	-1.000000	-1.000000	-1.000000	59.000000	0.000000	-1.000000	-1.000000	1777020.000000	1776579956.102022
8883.765000	4261.860000	32418.855000	51300.450000	34311.735000	19941.975000	-9813.285000	762.525000	4.823608	5.389502	0.041742	3.772593	5.627385	20.244028	7.955200	2.386846	5.402040	-1.022420	12.940480	-0.759336	0.016296	0.639891	-1.000000	-1.000000	-1.000000	-1.000000	-1.000000	-1.000000	-1.000000	59.000000	0.000000	-1.000000	-1.000000	1777021.000000	1776579956.105939
8884.485000	4263.840000	32418.315000	51295.185000	34307.100000	19946.340000	-9824.490000	759.600000	0.221641	2.277613	-0.331387	8.216505	9.298073	16.580858	5.426050	0.797447	5.402040	-1.022420	12.940480	-0.759336	0.016296	0.639891	-1.000000	-1.000000	-1.000000	-1.000000	-1.000000	-1.000000	-1.000000	59.000000	0.000000	-1.000000	-1.000000	1777022.000000	1776579956.105951
8891.550000	4271.805000	32424.660000	51299.235000	34302.060000	19927.350000	-9831.600000	763.380000	-3.667888	-1.553327	-1.670729	8.122476	9.460117	9.478420	0.279962	-1.206998	5.402040	-1.022420	12.940480	-0.759336	0.016296	0.639891	-1.000000	-1.000000	-1.000000	-1.000000	-1.000000	-1.000000	-1.000000	59.000000	0.000000	-1.000000	-1.000000	1777023.000000	1776579956.110042
8897.670000	4276.980000	32430.735000	51306.795000	34311.915000	19940.445000	-9824.445000	770.220000	-5.032410	-3.663363	-2.580915	4.069314	5.182070	0.635384	-5.033305	-2.443109	5.402040	-1.022420	12.940480	-0.759336	0.016296	0.639891	-1.000000	-1.000000	-1.000000	-1.000000	-1.000000	-1.000000	-1.000000	59.000000	0.000000	-1.000000	-1.000000	1777024.000000	1776579956.110059
8894.970000	4272.480000	32428.755000	51309.180000	34323.705000	19971.810000	-9812.970000	770.040000	-3.757658	-3.322948	-2.052573	-0.790371	-0.790564	-6.392432	-7.008352	-2.075511	5.402040	-1.022420	12.940480	-0.759336	0.016296	0.639891	-1.000000	-1.000000	-1.000000	-1.000000	-1.000000	-1.000000	-1.000000	59.000000	0.000000	-1.000000	-1.000000	1777025.000000	1776579956.113862
8883.765000	4257.810000	32412.600000	51292.575000	34302.645000	19959.480000	-9809.100000	762.480000	-1.746082	-2.196655	-0.987575	-4.241018	-5.093933	-8.028964	-4.060941	-0.779421	5.402040	-1.022420	12.940480	-0.759336	0.016296	0.639891	-1.000000	-1.000000	-1.000000	-1.000000	-1.000000	-1.000000	-1.000000	59.000000	0.000000	-1.000000	-1.000000	1777026.000000	1776579956.113873
8880.525000	4252.680000	32404.635000	51281.100000	34295.220000	19953.270000	-9808.920000	760.545000	-1.161539	-2.349451	-1.224881	-6.539923	-7.429647	-5.668848	1.571106	-0.162166	5.402040	-1.022420	12.940480	-0.759336	0.016296	0.639891	-1.000000	-1.000000	-1.000000	-1.000000	-1.000000	-1.000000	-1.000000	59.000000	0.000000	-1.000000	-1.000000	1777027.000000	1776579956.118055
8881.605000	4257.180000	32412.465000	51291.585000	34309.890000	19965.870000	-9809.190000	761.985000	-2.053514	-3.525436	-2.695053	-7.920957	-8.447546	-3.670404	5.725301	-0.721748	5.402040	-1.022420	12.940480	-0.759336	0.016296	0.639891	-1.000000	-1.000000	-1.000000	-1.000000	-1.000000	-1.000000	-1.000000	59.000000	0.000000	-1.000000	-1.000000	1777028.000000	1776579956.118072
8878.815000	4255.695000	32413.410000	51295.005000	34310.205000	19958.130000	-9815.130000	758.925000	-2.594113	-3.466030	-2.970096	-6.752473	-6.925125	-3.472336	5.774866	-1.433013	5.402040	-1.022420	12.940480	-0.759336	0.016296	0.639891	-1.000000	-1.000000	-1.000000	-1.000000	-1.000000	-1.000000	-1.000000	59.000000	0.000000	-1.000000	-1.000000	1777029.000000	1776579956.121967
8882.010000	4256.280000	32414.355000	51295.320000	34310.430000	19955.520000	-9815.265000	759.870000	-1.440957	-0.982608	-0.513490	-2.146191	-2.372268	-3.996842	2.109054	-1.303538	5.402040	-1.022420	12.940480	-0.759336	0.016296	0.639891	-1.000000	-1.000000	-1.000000	-1.000000	-1.000000	-1.000000	-1.000000	59.000000	0.000000	-1.000000	-1.000000	1777030.000000	1776579956.121979
8888.310000	4261.860000	32416.920000	51295.635000	34308.495000	19954.170000	-9813.060000	762.615000	1.251476	2.833479	3.392640	3.760464	2.882129	-4.268123	-2.593791	-0.198581	1.571780	2.365300	4.928980	-0.756773	0.018677	0.643248	-1.000000	-1.000000	-1.000000	-1.000000	-1.000000	-1.000000	-1.000000	59.000000	0.000000	-1.000000	-1.000000	1777031.000000	1776579956.126047
8897.670000	4272.120000	32426.235000	51303.195000	34311.825000	19955.655000	-9807.165000	769.680000	4.481724	6.232803	6.461815	7.834121	6.041232	-3.523074	-5.274321	1.548141	1.571780	2.365300	4.928980	-0.756773	0.018677	0.643248	-1.000000	-1.000000	-1.000000	-1.000000	-1.000000	-1.000000	-1.000000	59.000000	0.000000	-1.000000	-1.000000	1777032.000000	1776579956.126064
8899.155000	4274.235000	32431.590000	51311.340000	34318.710000	19954.260000	-9806.670000	771.345000	6.870122	7.990230	7.461673	8.746391	6.324637	-1.412803	-4.587910	3.329153	1.571780	2.365300	4.928980	-0.756773	0.018677	0.643248	-1.000000	-1.000000	-1.000000	-1.000000	-1.000000	-1.000000	-1.000000	59.000000	0.000000	-1.000000	-1.000000	1777033.000000	1776579956.129877
8896.095000	4270.410000	32428.485000	51308.865000	34322.310000	19963.350000	-9809.640000	767.295000	6.889150	7.174617	6.132930	6.949375	4.802512	1.596680	-1.702581	4.103017	1.571780	2.365300	4.928980	-0.756773	0.018677	0.643248	-1.000000	-1.000000	-1.000000	-1.000000	-1.000000	-1.000000	-1.000000	59.000000	0.000000	-1.000000	-1.000000	1777034.000000	1776579956.129889
8887.140000	4260.870000	32418.045000	51297.525000	34316.280000	19961.010000	-9817.830000	758.070000	3.678959	3.296760	2.429592	3.032413	2.565794	4.531467	0.854996	2.776234	1.571780	2.365300	4.928980	-0.756773	0.018677	0.643248	-1.000000	-1.000000	-1.000000	-1.000000	-1.000000	-1.000000	-1.000000	59.000000	0.000000	-1.000000	-1.000000	1777035.000000	1776579956.133837
8880.480000	4251.240000	32408.955000	51291.045000	34311.645000	19957.140000	-9816.795000	755.235000	-1.939464	-2.786168	-3.087514	-2.432502	-0.218340	6.051566	1.416277	-0.620095	1.571780	2.365300	4.928980	-0.756773	0.018677	0.643248	-1.000000	-1.000000	-1.000000	-1.000000	-1.000000	-1.000000	-1.000000	59.000000	0.000000	-1.000000	-1.000000	1777036.000000	1776579956.133856
8889.615000	4263.660000	32422.725000	51304.410000	34312.995000	19945.620000	-9813.330000	763.920000	-7.201682	-8.305102	-8.122480	-7.390457	-3.239668	4.915593	0.539109	-4.113873	1.571780	2.365300	4.928980	-0.756773	0.018677	0.643248	-1.000000	-1.000000	-1.000000	-1.000000	-1.000000	-1.000000	-1.000000	59.000000	0.000000	-1.000000	-1.000000	1777037.000000	1776579956.137872
8895.420000	4273.470000	32432.085000	51308.775000	34312.860000	19943.010000	-9817.380000	764.370000	-8.746161	-9.624895	-9.211142	-8.662004	-5.213645	1.256437	-0.107725	-5.063377	1.571780	2.365300	4.928980	-0.756773	0.018677	0.643248	-1.000000	-1.000000	-1.000000	-1.000000	-1.000000	-1.000000	-1.000000	59.000000	0.000000	-1.000000	-1.000000	1777038.000000	1776579956.137884
8895.195000	4270.950000	32427.270000	51303.600000	34310.205000	19947.240000	-9814.950000	764.505000	-5.500841	-5.538869	-5.190827	-5.340601	-5.034053	-2.765116	0.184982	-2.837948	1.571780	2.365300	4.928980	-0.756773	0.018677	0.643248	-1.000000	-1.000000	-1.000000	-1.000000	-1.000000	-1.000000	-1.000000	59.000000	0.000000	-1.000000	-1.000000	1777039.000000	1776579956.141955
8893.080000	4268.700000	32425.155000	51302.520000	34308.360000	19953.405000	-9814.140000	763.515000	0.033795	0.863270	0.834214	-0.235880	-3.003807	-4.293858	1.013655	0.628268	1.571780	2.365300	4.928980	-0.756773	0.018677	0.643248	-1.000000	-1.000000	-1.000000	-1.000000	-1.000000	-1.000000	-1.000000	59.000000	0.000000	-1.000000	-1.000000	1777040.000000	1776579956.141965
8887.815000	4266.180000	32425.560000	51304.680000	34309.260000	19954.710000	-9814.140000	759.780000	4.086755	5.123031	4.686694	3.272989	-0.328493	-2.307705	1.767034	2.919811	5.371520	-0.625660	7.019600	-0.755491	0.012695	0.648497	-1.000000	-1.000000	-1.000000	-1.000000	-1.000000	-1.000000	-1.000000	59.000000	0.000000	-1.000000	-1.000000	1777041.000000	1776579956.145852
8893.440000	4268.160000	32424.795000	51303.555000	34314.255000	19954.575000	-9811.485000	764.505000	4.791722	5.358250	4.893351	4.106166	2.059474	1.416230	1.990682	3.053359	5.371520	-0.625660	7.019600	-0.755491	0.012695	0.648497	-1.000000	-1.000000	-1.000000	-1.000000	-1.000000	-1.000000	-1.000000	59.000000	0.000000	-1.000000	-1.000000	1777042.000000	1776579956.145860
8903.385000	4271.310000	32422.635000	51301.980000	34318.035000	19955.295000	-9807.570000	772.785000	3.274791	2.897213	2.644947	3.002253	3.819999	4.054505	1.641705	1.940726	5.371520	-0.625660	7.019600	-0.755491	0.012695	0.648497	-1.000000	-1.000000	-1.000000	-1.000000	-1.000000	-1.000000	-1.000000	59.000000	0.000000	-1.000000	-1.000000	1777043.000000	1776579956.150046
8891.055000	4261.905000	32417.280000	51301.305000	34319.610000	19952.010000	-9817.695000	762.930000	1.578476	0.025735	-0.206256	1.115965	4.692090	4.022170	0.819936	0.918328	5.371520	-0.625660	7.019600	-0.755491	0.012695	0.648497	-1.000000	-1.000000	-1.000000	-1.000000	-1.000000	-1.000000	-1.000000	59.000000	0.000000	-1.000000	-1.000000	1777044.000000	1776579956.150058
8889.615000	4260.870000	32417.370000	51299.820000	34314.345000	19959.390000	-9815.805000	761.985000	0.067200	-2.105552	-2.319866	-0.564800	4.145306	1.782544	-0.609852	-0.019743	5.371520	-0.625660	7.019600	-0.755491	0.012695	0.648497	-1.000000	-1.000000	-1.000000	-1.000000	-1.000000	-1.000000	-1.000000	59.000000	0.000000	-1.000000	-1.000000	1777045.000000	1776579956.153923
8898.210000	4270.005000	32425.830000	51304.680000	34321.185000	19979.055000	-9807.390000	766.575000	-1.504983	-3.008246	-2.774794	-1.352032	2.016279	-0.498765	-2.100375	-1.240249	5.371520	-0.625660	7.019600	-0.755491	0.012695	0.648497	-1.000000	-1.000000	-1.000000	-1.000000	-1.000000	-1.000000	-1.000000	59.000000	0.000000	-1.000000	-1.000000	1777046.000000	1776579956.153957
8906.715000	4279.905000	32433.435000	51310.710000	34325.190000	19962.855000	-9810.495000	769.230000	-2.084705	-1.908101	-1.059070	-0.868738	-0.627268	-1.079688	-2.383497	-2.001249	5.371520	-0.625660	7.019600	-0.755491	0.012695	0.648497	-1.000000	-1.000000	-1.000000	-1.000000	-1.000000	-1.000000	-1.000000	59.000000	0.000000	-1.000000	-1.000000	1777047.000000	1776579956.158185
8907.165000	4281.705000	32436.585000	51312.285000	34323.660000	19956.330000	-9809.685000	771.435000	-0.820518	1.073091	2.106046	0.650114	-2.336679	-1.097492	-1.296377	-1.511548	5.371520	-0.625660	7.019600	-0.755491	0.012695	0.648497	-1.000000	-1.000000	-1.000000	-1.000000	-1.000000	-1.000000	-1.000000	59.000000	0.000000	-1.000000	-1.000000	1777048.000000	1776579956.158205
8905.905000	4281.255000	32441.760000	51320.430000	34321.095000	19952.550000	-9803.925000	776.655000	1.140064	3.937501	4.727462	2.233599	-2.864454	-2.565869	0.141298	-0.065987	5.371520	-0.625660	7.019600	-0.755491	0.012695	0.648497	-1.000000	-1.000000	-1.000000	-1.000000	-1.000000	-1.000000	-1.000000	59.000000	0.000000	-1.000000	-1.000000	1777049.000000	1776579956.162038
8892.630000	4268.025000	32432.085000	51315.030000	34325.235000	19975.995000	-9799.605000	769.410000	1.629019	4.169561	4.866983	2.779783	-2.785468	-4.448783	1.276080	1.262926	5.371520	-0.625660	7.019600	-0.755491	0.012695	0.648497	-1.000000	-1.000000	-1.000000	-1.000000	-1.000000	-1.000000	-1.000000	59.000000	0.000000	-1.000000	-1.000000	1777050.000000	1776579956.162052
8901.135000	4270.320000	32429.160000	51306.345000	34314.570000	19971.765000	-9801.000000	772.470000	-0.181841	1.023936	1.873563	1.461404	-2.466480	-3.804258	1.883584	1.394069	8.530340	-1.419180	8.988140	-0.751951	0.006042	0.648497	-1.000000	-1.000000	-1.000000	-1.000000	-1.000000	-1.000000	-1.000000	59.000000	0.000000	-1.000000	-1.000000	1777051.000000	1776579956.165943
8927.640000	4293.225000	32443.785000	51315.165000	34316.595000	19956.105000	-9801.585000	787.320000	-2.123668	-2.986579	-2.604830	-1.486261	-2.130691	-0.655910	1.569646	0.540052	8.530340	-1.419180	8.988140	-0.751951	0.006042	0.648497	-1.000000	-1.000000	-1.000000	-1.000000	-1.000000	-1.000000	-1.000000	59.000000	0.000000	-1.000000	-1.000000	1777052.000000	1776579956.165948
8935.605000	4304.700000	32454.810000	51326.280000	34328.070000	19944.000000	-9804.825000	794.835000	-1.016394	-3.819674	-5.102454	-3.868606	-1.453224	1.448658	0.167443	0.279940	8.530340	-1.419180	8.988140	-0.751951	0.006042	0.648497	-1.000000	-1.000000	-1.000000	-1.000000	-1.000000	-1.000000	-1.000000	59.000000	0.000000	-1.000000	-1.000000	1777053.000000	1776579956.170135
8923.590000	4297.095000	32453.820000	51330.195000	34336.845000	19960.020000	-9804.330000	788.355000	2.562839	-0.720510	-3.761701	-3.402820	0.521333	0.720290	-1.733887	1.076043	8.530340	-1.419180	8.988140	-0.751951	0.006042	0.648497	-1.000000	-1.000000	-1.000000	-1.000000	-1.000000	-1.000000	-1.000000	59.000000	0.000000	-1.000000	-1.000000	1777054.000000	1776579956.170149
8902.800000	4276.485000	32437.035000	51319.980000	34337.430000	19991.925000	-9798.390000	772.470000	3.926697	2.207412	-0.776717	-0.737938	3.579870	0.130166	-2.932525	1.003285	8.530340	-1.419180	8.988140	-0.751951	0.006042	0.648497	-1.000000	-1.000000	-1.000000	-1.000000	-1.000000	-1.000000	-1.000000	59.000000	0.000000	-1.000000	-1.000000	1777055.000000	1776579956.174001
8894.250000	4265.415000	32424.165000	51310.755000	34330.455000	19997.505000	-9795.015000	762.930000	-0.060155	0.731699	-0.010360	1.039185	5.517295	3.105189	-2.400674	-1.751074	8.530340	-1.419180	8.988140	-0.751951	0.006042	0.648497	-1.000000	-1.000000	-1.000000	-1.000000	-1.000000	-1.000000	-1.000000	59.000000	0.000000	-1.000000	-1.000000	1777056.000000	1776579956.174014
8903.205000	4273.740000	32432.040000	51319.485000	34335.900000	19978.605000	-9793.980000	768.645000	-6.668966	-4.249902	-2.296982	0.245712	4.366633	7.575172	-0.336461	-5.839629	8.530340	-1.419180	8.988140	-0.751951	0.006042	0.648497	-1.000000	-1.000000	-1.000000	-1.000000	-1.000000	-1.000000	-1.000000	59.000000	0.000000	-1.000000	-1.000000	1777057.000000	1776579956.183304
8904.105000	4277.025000	32434.200000	51314.355000	34325.640000	19975.005000	-9796.230000	772.110000	-9.873999	-7.528643	-4.372782	-1.537741	0.603669	7.713124	1.771427	-7.463901	8.530340	-1.419180	8.988140	-0.751951	0.006042	0.648497	-1.000000	-1.000000	-1.000000	-1.000000	-1.000000	-1.000000	-1.000000	59.000000	0.000000	-1.000000	-1.000000	1777058.000000	1776579956.183323
8900.685000	4271.445000	32428.260000	51308.100000	34316.820000	19964.160000	-9801.405000	770.445000	-6.740702	-5.587722	-3.206166	-2.228077	-3.794594	1.428764	2.355419	-4.481247	8.530340	-1.419180	8.988140	-0.751951	0.006042	0.648497	-1.000000	-1.000000	-1.000000	-1.000000	-1.000000	-1.000000	-1.000000	59.000000	0.000000	-1.000000	-1.000000	1777059.000000	1776579956.183344
8904.285000	4274.280000	32425.290000	51305.985000	34315.245000	19959.570000	-9799.020000	773.910000	0.293649	0.065421	0.482611	-1.624098	-6.965487	-7.361732	1.097479	1.380215	8.530340	-1.419180	8.988140	-0.751951	0.006042	0.648497	-1.000000	-1.000000	-1.000000	-1.000000	-1.000000	-1.000000	-1.000000	59.000000	0.000000	-1.000000	-1.000000	1777060.000000	1776579956.183348
8907.435000	4282.605000	32432.895000	51313.860000	34325.910000	19971.135000	-9797.040000	772.020000	6.871707	5.740278	4.098291	-0.218624	-7.171022	-12.741271	-0.748089	6.568177	8.087800	-0.900340	6.271860	-0.752012	0.005920	0.644713	-1.000000	-1.000000	-1.000000	-1.000000	-1.000000	-1.000000	-1.000000	59.000000	0.000000	-1.000000	-1.000000	1777061.000000	1776579956.185977
8917.335000	4297.095000	32449.680000	51330.555000	34344.135000	19988.595000	-9786.825000	782.235000	10.278667	9.237336	6.465679	2.145685	-3.247227	-10.806729	-1.429729	8.702552	8.087800	-0.900340	6.271860	-0.752012	0.005920	0.644713	-1.000000	-1.000000	-1.000000	-1.000000	-1.000000	-1.000000	-1.000000	59.000000	0.000000	-1.000000	-1.000000	1777062.000000	1776579956.185988
8914.995000	4292.550000	32446.035000	51323.535000	34341.210000	19999.755000	-9785.115000	784.440000	9.974328	9.932674	7.649432	5.167231	3.596430	-2.099188	-0.242180	7.692230	8.087800	-0.900340	6.271860	-0.752012	0.005920	0.644713	-1.000000	-1.000000	-1.000000	-1.000000	-1.000000	-1.000000	-1.000000	59.000000	0.000000	-1.000000	-1.000000	1777063.000000	1776579956.189926
8905.680000	4276.080000	32429.070000	51301.395000	34321.410000	19983.960000	-9793.665000	778.005000	6.350729	7.097165	6.637244	6.381804	8.901998	7.920181	1.599930	4.566699	8.087800	-0.900340	6.271860	-0.752012	0.005920	0.644713	-1.000000	-1.000000	-1.000000	-1.000000	-1.000000	-1.000000	-1.000000	59.000000	0.000000	-1.000000	-1.000000	1777064.000000	1776579956.189946
8915.940000	4285.170000	32438.070000	51309.270000	34319.745000	19961.145000	-9800.055000	782.145000	0.568224	0.765952	2.274255	3.373778	8.235667	11.991162	1.861845	0.280609	8.087800	-0.900340	6.271860	-0.752012	0.005920	0.644713	-1.000000	-1.000000	-1.000000	-1.000000	-1.000000	-1.000000	-1.000000	59.000000	0.000000	-1.000000	-1.000000	1777065.000000	1776579956.194180
8920.890000	4290.030000	32440.770000	51314.895000	34320.105000	19952.145000	-9803.745000	781.785000	-4.655648	-6.000368	-3.525575	-2.026609	2.146835	6.955854	-0.257171	-3.807478	8.087800	-0.900340	6.271860	-0.752012	0.005920	0.644713	-1.000000	-1.000000	-1.000000	-1.000000	-1.000000	-1.000000	-1.000000	59.000000	0.000000	-1.000000	-1.000000	1777066.000000	1776579956.194188
8921.205000	4290.570000	32440.995000	51313.185000	34322.490000	19962.720000	-9799.515000	783.000000	-6.739862	-9.136241	-7.066242	-5.396190	-4.324642	-2.785675	-3.031109	-6.107754	8.087800	-0.900340	6.271860	-0.752012	0.005920	0.644713	-1.000000	-1.000000	-1.000000	-1.000000	-1.000000	-1.000000	-1.000000	59.000000	0.000000	-1.000000	-1.000000	1777067.000000	1776579956.198029
8916.570000	4291.020000	32443.470000	51315.075000	34326.225000	19987.110000	-9796.815000	781.695000	-5.755891	-7.631953	-6.812212	-4.875771	-6.782322	-8.732772	-3.897070	-6.026138	8.087800	-0.900340	6.271860	-0.752012	0.005920	0.644713	-1.000000	-1.000000	-1.000000	-1.000000	-1.000000	-1.000000	-1.000000	59.000000	0.000000	-1.000000	-1.000000	1777068.000000	1776579956.198044
8910.990000	4288.095000	32443.875000	51321.960000	34346.205000	20022.075000	-9786.825000	779.760000	-3.783610	-3.651574	-3.923231	-1.821322	-4.236660	-5.430691	-1.773722	-4.219181	8.087800	-0.900340	6.271860	-0.752012	0.005920	0.644713	-1.000000	-1.000000	-1.000000	-1.000000	-1.000000	-1.000000	-1.000000	59.000000	0.000000	-1.000000	-1.000000	1777069.000000	1776579956.202146
8902.710000	4283.010000	32440.680000	51321.690000	34337.295000	19978.020000	-9796.050000	773.730000	-2.574220	-0.028524	-0.551057	1.602318	1.249526	4.138590	2.004647	-1.954699	8.087800	-0.900340	6.271860	-0.752012	0.005920	0.644713	-1.000000	-1.000000	-1.000000	-1.000000	-1.000000	-1.000000	-1.000000	59.000000	0.000000	-1.000000	-1.000000	1777070.000000	1776579956.202160
8914.770000	4288.005000	32440.635000	51315.480000	34324.245000	19962.270000	-9795.825000	782.595000	-2.073334	1.753240	1.556710	3.491650	5.386698	9.938756	4.595377	-0.092920	6.607580	-0.045780	4.227020	-0.756468	0.006531	0.640501	-1.000000	-1.000000	-1.000000	-1.000000	-1.000000	-1.000000	-1.000000	59.000000	0.000000	-1.000000	-1.000000	1777071.000000	1776579956.206169
8927.910000	4296.105000	32447.160000	51322.995000	34328.430000	19962.540000	-9794.880000	791.370000	-0.561215	2.265323	2.068964	2.926938	4.743791	5.598444	4.221715	1.657801	6.607580	-0.045780	4.227020	-0.756468	0.006531	0.640501	-1.000000	-1.000000	-1.000000	-1.000000	-1.000000	-1.000000	-1.000000	59.000000	0.000000	-1.000000	-1.000000	1777072.000000	1776579956.206224
8933.355000	4300.110000	32448.330000	51334.875000	34345.080000	19972.710000	-9788.490000	796.365000	2.997781	2.846087	1.901784	1.054380	0.683975	-4.164177	1.808919	3.783483	6.607580	-0.045780	4.227020	-0.756468	0.006531	0.640501	-1.000000	-1.000000	-1.000000	-1.000000	-1.000000	-1.000000	-1.000000	59.000000	0.000000	-1.000000	-1.000000	1777073.000000	1776579956.209935
8927.280000	4288.680000	32424.255000	51310.710000	34330.005000	19978.785000	-9782.550000	792.675000	6.725904	3.432752	1.331978	-0.518965	-2.631968	-10.059829	-0.383015	5.407421	6.607580	-0.045780	4.227020	-0.756468	0.006531	0.640501	-1.000000	-1.000000	-1.000000	-1.000000	-1.000000	-1.000000	-1.000000	59.000000	0.000000	-1.000000	-1.000000	1777074.000000	1776579956.209960
8918.280000	4280.040000	32415.930000	51296.310000	34314.660000	19970.910000	-9788.130000	783.900000	7.207815	2.464479	-0.651590	-2.373765	-3.893820	-8.160006	-1.182497	4.720863	6.607580	-0.045780	4.227020	-0.756468	0.006531	0.640501	-1.000000	-1.000000	-1.000000	-1.000000	-1.000000	-1.000000	-1.000000	59.000000	0.000000	-1.000000	-1.000000	1777075.000000	1776579956.213904
8912.430000	4278.735000	32430.330000	51304.365000	34317.990000	19971.540000	-9796.455000	777.420000	3.099657	-0.610297	-3.469753	-5.089345	-4.504934	-1.696484	-1.415818	1.035596	6.607580	-0.045780	4.227020	-0.756468	0.006531	0.640501	-1.000000	-1.000000	-1.000000	-1.000000	-1.000000	-1.000000	-1.000000	59.000000	0.000000	-1.000000	-1.000000	1777076.000000	1776579956.213919
8914.815000	4287.600000	32451.165000	51316.425000	34321.410000	19959.660000	-9806.265000	777.420000	-3.195721	-3.712980	-3.648223	-6.138498	-4.401209	3.868520	-2.466525	-3.920231	6.607580	-0.045780	4.227020	-0.756468	0.006531	0.640501	-1.000000	-1.000000	-1.000000	-1.000000	-1.000000	-1.000000	-1.000000	59.000000	0.000000	-1.000000	-1.000000	1777077.000000	1776579956.218058
8912.205000	4283.685000	32443.110000	51316.245000	34323.885000	19962.945000	-9796.680000	777.285000	-7.534541	-4.163918	0.701533	-2.921000	-2.220475	5.545327	-4.039732	-7.040877	6.607580	-0.045780	4.227020	-0.756468	0.006531	0.640501	-1.000000	-1.000000	-1.000000	-1.000000	-1.000000	-1.000000	-1.000000	59.000000	0.000000	-1.000000	-1.000000	1777078.000000	1776579956.218074
8911.080000	4280.670000	32437.485000	51317.280000	34337.745000	19986.165000	-9793.395000	776.970000	-7.555509	-1.812229	6.162616	3.065087	1.997459	4.400870	-4.052761	-6.396998	6.607580	-0.045780	4.227020	-0.756468	0.006531	0.640501	-1.000000	-1.000000	-1.000000	-1.000000	-1.000000	-1.000000	-1.000000	59.000000	0.000000	-1.000000	-1.000000	1777079.000000	1776579956.221998
8914.050000	4284.135000	32439.060000	51316.695000	34331.895000	19969.785000	-9801.945000	777.060000	-3.934465	1.221347	7.746877	7.676764	6.391245	3.270410	-1.484644	-2.622853	6.607580	-0.045780	4.227020	-0.756468	0.006531	0.640501	-1.000000	-1.000000	-1.000000	-1.000000	-1.000000	-1.000000	-1.000000	59.000000	0.000000	-1.000000	-1.000000	1777080.000000	1776579956.222006
8917.875000	4288.230000	32441.355000	51314.535000	34322.400000	19970.235000	-9797.085000	780.885000	1.093955	3.256597	4.515261	8.146422	8.126467	2.535552	1.982115	2.046906	6.958560	-1.602300	8.026760	-0.761656	0.003418	0.637938	-1.000000	-1.000000	-1.000000	-1.000000	-1.000000	-1.000000	-1.000000	59.000000	0.000000	-1.000000	-1.000000	1777081.000000	1776579956.226138
8914.905000	4283.145000	32433.660000	51307.515000	34326.135000	19994.085000	-9792.315000	779.445000	5.212532	3.845756	-0.727172	4.588417	5.521509	1.218730	4.318976	5.461774	6.958560	-1.602300	8.026760	-0.761656	0.003418	0.637938	-1.000000	-1.000000	-1.000000	-1.000000	-1.000000	-1.000000	-1.000000	59.000000	0.000000	-1.000000	-1.000000	1777082.000000	1776579956.226147
8916.030000	4284.540000	32436.045000	51313.320000	34331.310000	20007.720000	-9787.230000	780.210000	6.721555	2.927939	-4.998375	-0.729404	0.331718	0.442484	5.095213	6.396866	6.958560	-1.602300	8.026760	-0.761656	0.003418	0.637938	-1.000000	-1.000000	-1.000000	-1.000000	-1.000000	-1.000000	-1.000000	59.000000	0.000000	-1.000000	-1.000000	1777083.000000	1776579956.230203
8916.615000	4286.430000	32440.185000	51322.455000	34333.560000	19978.695000	-9791.595000	779.355000	5.328270	0.959228	-6.547511	-4.586700	-3.780496	0.676931	4.501031	4.818224	6.958560	-1.602300	8.026760	-0.761656	0.003418	0.637938	-1.000000	-1.000000	-1.000000	-1.000000	-1.000000	-1.000000	-1.000000	59.000000	0.000000	-1.000000	-1.000000	1777084.000000	1776579956.230216
8922.015000	4292.685000	32449.995000	51330.510000	34336.440000	19968.255000	-9791.955000	783.855000	2.330457	-0.855379	-4.792503	-4.735485	-4.797175	-0.877741	2.486155	1.848035	6.958560	-1.602300	8.026760	-0.761656	0.003418	0.637938	-1.000000	-1.000000	-1.000000	-1.000000	-1.000000	-1.000000	-1.000000	59.000000	0.000000	-1.000000	-1.000000	1777085.000000	1776579956.234012
8920.260000	4294.170000	32453.775000	51328.170000	34330.680000	19961.280000	-9797.670000	782.100000	-0.509733	-1.496636	-0.652527	-1.794659	-3.425863	-5.676522	-0.645563	-0.957993	6.958560	-1.602300	8.026760	-0.761656	0.003418	0.637938	-1.000000	-1.000000	-1.000000	-1.000000	-1.000000	-1.000000	-1.000000	59.000000	0.000000	-1.000000	-1.000000	1777086.000000	1776579956.234018
8921.520000	4297.275000	32453.820000	51327.945000	34332.435000	19959.885000	-9798.210000	784.530000	-2.274108	-1.031826	3.502244	1.285199	-1.623120	-10.427942	-3.795244	-2.629422	6.958560	-1.602300	8.026760	-0.761656	0.003418	0.637938	-1.000000	-1.000000	-1.000000	-1.000000	-1.000000	-1.000000	-1.000000	59.000000	0.000000	-1.000000	-1.000000	1777087.000000	1776579956.237999
8926.110000	4305.195000	32459.130000	51327.810000	34340.355000	19977.165000	-9791.505000	787.005000	-2.895624	-0.197111	5.294301	2.055522	-0.449967	-10.431890	-5.414677	-2.999202	6.958560	-1.602300	8.026760	-0.761656	0.003418	0.637938	-1.000000	-1.000000	-1.000000	-1.000000	-1.000000	-1.000000	-1.000000	59.000000	0.000000	-1.000000	-1.000000	1777088.000000	1776579956.238017
8927.685000	4305.060000	32457.555000	51331.095000	34349.670000	20001.555000	-9786.105000	787.680000	-2.501421	0.432457	4.064470	0.524795	0.593966	-3.681065	-4.339683	-2.342062	6.958560	-1.602300	8.026760	-0.761656	0.003418	0.637938	-1.000000	-1.000000	-1.000000	-1.000000	-1.000000	-1.000000	-1.000000	59.000000	0.000000	-1.000000	-1.000000	1777089.000000	1776579956.241955
8920.080000	4296.420000	32452.110000	51327.585000	34346.250000	20009.835000	-9784.395000	783.810000	-1.614108	0.257635	0.778530	-1.637336	1.924002	7.338279	-0.973915	-1.320905	6.958560	-1.602300	8.026760	-0.761656	0.003418	0.637938	-1.000000	-1.000000	-1.000000	-1.000000	-1.000000	-1.000000	-1.000000	59.000000	0.000000	-1.000000	-1.000000	1777090.000000	1776579956.241974
8921.835000	4297.770000	32452.110000	51323.310000	34336.845000	20010.240000	-9780.255000	786.825000	-1.133161	-1.192806	-3.011814	-3.077216	2.438770	16.275141	2.661755	-0.653509	5.875100	-1.098720	7.172200	-0.763365	-0.001770	0.637877	-1.000000	-1.000000	-1.000000	-1.000000	-1.000000	-1.000000	-1.000000	59.000000	0.000000	-1.000000	-1.000000	1777091.000000	1776579956.246184
8925.570000	4295.880000	32449.770000	51323.220000	34343.685000	20010.735000	-9779.445000	789.030000	-1.151198	-3.172859	-5.609276	-3.417753	0.987354	17.222780	4.539126	-0.372200	5.875100	-1.098720	7.172200	-0.763365	-0.001770	0.637877	-1.000000	-1.000000	-1.000000	-1.000000	-1.000000	-1.000000	-1.000000	59.000000	0.000000	-1.000000	-1.000000	1777092.000000	1776579956.246192
8924.130000	4294.350000	32446.710000	51324.165000	34341.570000	19976.985000	-9788.850000	786.330000	-0.864920	-4.126718	-5.881542	-2.605945	-1.498441	8.858600	3.749709	-0.070394	5.875100	-1.098720	7.172200	-0.763365	-0.001770	0.637877	-1.000000	-1.000000	-1.000000	-1.000000	-1.000000	-1.000000	-1.000000	59.000000	0.000000	-1.000000	-1.000000	1777093.000000	1776579956.250015
8920.620000	4292.730000	32445.315000	51317.595000	34328.295000	19970.730000	-9792.360000	782.730000	-0.045787	-3.295466	-3.969256	-0.865789	-3.298309	-5.253951	0.576617	0.188182	5.875100	-1.098720	7.172200	-0.763365	-0.001770	0.637877	-1.000000	-1.000000	-1.000000	-1.000000	-1.000000	-1.000000	-1.000000	59.000000	0.000000	-1.000000	-1.000000	1777094.000000	1776579956.250026
8913.510000	4285.395000	32443.020000	51317.505000	34328.745000	19966.185000	-9792.270000	780.480000	0.549377	-1.247151	-0.939216	0.978235	-3.960100	-17.994197	-3.319386	0.027508	5.875100	-1.098720	7.172200	-0.763365	-0.001770	0.637877	-1.000000	-1.000000	-1.000000	-1.000000	-1.000000	-1.000000	-1.000000	59.000000	0.000000	-1.000000	-1.000000	1777095.000000	1776579956.254158
8919.810000	4285.575000	32440.860000	51316.380000	34329.780000	19971.270000	-9794.880000	782.370000	0.446016	0.831141	1.952097	2.180421	-3.412284	-22.091914	-5.566288	-0.402280	5.875100	-1.098720	7.172200	-0.763365	-0.001770	0.637877	-1.000000	-1.000000	-1.000000	-1.000000	-1.000000	-1.000000	-1.000000	59.000000	0.000000	-1.000000	-1.000000	1777096.000000	1776579956.254183
8934.525000	4299.390000	32448.150000	51321.105000	34332.075000	19973.610000	-9792.405000	786.555000	0.553554	2.506794	3.926562	2.751209	-1.289093	-15.242967	-4.870425	-0.369884	5.875100	-1.098720	7.172200	-0.763365	-0.001770	0.637877	-1.000000	-1.000000	-1.000000	-1.000000	-1.000000	-1.000000	-1.000000	59.000000	0.000000	-1.000000	-1.000000	1777097.000000	1776579956.257946
8943.570000	4304.880000	32451.795000	51319.845000	34317.315000	19952.280000	-9791.955000	793.845000	2.151487	4.339032	5.006198	3.024848	1.692504	-2.030341	-1.761797	0.685477	5.875100	-1.098720	7.172200	-0.763365	-0.001770	0.637877	-1.000000	-1.000000	-1.000000	-1.000000	-1.000000	-1.000000	-1.000000	59.000000	0.000000	-1.000000	-1.000000	1777098.000000	1776579956.257965
8932.995000	4297.455000	32449.545000	51318.360000	34313.310000	19943.235000	-9794.610000	790.110000	4.429657	5.955598	5.249323	2.912843	3.532657	9.391584	1.997371	2.335728	5.875100	-1.098720	7.172200	-0.763365	-0.001770	0.637877	-1.000000	-1.000000	-1.000000	-1.000000	-1.000000	-1.000000	-1.000000	59.000000	0.000000	-1.000000	-1.000000	1777099.000000	1776579956.262044
8916.705000	4291.560000	32452.695000	51327.720000	34341.030000	19983.960000	-9787.635000	783.765000	4.329737	5.432439	4.229265	2.201466	3.699923	14.485633	4.590905	3.066470	5.875100	-1.098720	7.172200	-0.763365	-0.001770	0.637877	-1.000000	-1.000000	-1.000000	-1.000000	-1.000000	-1.000000	-1.000000	59.000000	0.000000	-1.000000	-1.000000	1777100.000000	1776579956.262061
8910.630000	4286.835000	32450.220000	51326.145000	34345.125000	20001.555000	-9780.795000	781.560000	0.070692	1.795449	1.870161	1.221675	4.191657	15.562997	5.425894	1.669101	3.815000	-2.914660	1.297100	-0.760984	-0.005493	0.642027	-1.000000	-1.000000	-1.000000	-1.000000	-1.000000	-1.000000	-1.000000	59.000000	0.000000	-1.000000	-1.000000	1777101.000000	1776579956.266019
8918.595000	4282.380000	32439.780000	51314.130000	34328.205000	19985.535000	-9788.130000	778.680000	-5.830071	-3.295238	-1.275448	0.034747	5.402699	15.208817	4.775934	-1.219579	3.815000	-2.914660	1.297100	-0.760984	-0.005493	0.642027	-1.000000	-1.000000	-1.000000	-1.000000	-1.000000	-1.000000	-1.000000	59.000000	0.000000	-1.000000	-1.000000	1777102.000000	1776579956.266034
8944.335000	4305.510000	32453.235000	51325.920000	34332.570000	19969.695000	-9788.940000	789.885000	-8.127608	-6.518314	-4.173866	-1.668730	4.590638	11.069142	2.622841	-3.443904	3.815000	-2.914660	1.297100	-0.760984	-0.005493	0.642027	-1.000000	-1.000000	-1.000000	-1.000000	-1.000000	-1.000000	-1.000000	59.000000	0.000000	-1.000000	-1.000000	1777103.000000	1776579956.270168
8945.775000	4311.090000	32461.065000	51332.760000	34342.290000	19973.385000	-9791.100000	790.740000	-3.950834	-5.161599	-5.027867	-2.920806	0.807724	1.240028	-0.725846	-3.135570	3.815000	-2.914660	1.297100	-0.760984	-0.005493	0.642027	-1.000000	-1.000000	-1.000000	-1.000000	-1.000000	-1.000000	-1.000000	59.000000	0.000000	-1.000000	-1.000000	1777104.000000	1776579956.270193
8933.490000	4301.505000	32454.450000	51326.190000	34343.145000	19988.550000	-9791.145000	783.585000	3.465263	-0.182469	-3.004829	-2.458327	-3.238546	-9.971491	-3.874072	-0.674532	3.815000	-2.914660	1.297100	-0.760984	-0.005493	0.642027	-1.000000	-1.000000	-1.000000	-1.000000	-1.000000	-1.000000	-1.000000	59.000000	0.000000	-1.000000	-1.000000	1777105.000000	1776579956.274175
8931.330000	4301.280000	32454.855000	51325.155000	34343.460000	19993.905000	-9790.380000	780.570000	7.631555	3.931792	0.014315	-1.047655	-5.107597	-15.602447	-5.275165	1.502492	3.815000	-2.914660	1.297100	-0.760984	-0.005493	0.642027	-1.000000	-1.000000	-1.000000	-1.000000	-1.000000	-1.000000	-1.000000	59.000000	0.000000	-1.000000	-1.000000	1777106.000000	1776579956.274189
8927.730000	4298.535000	32452.245000	51324.210000	34339.185000	19985.355000	-9791.325000	778.140000	5.578888	3.986934	1.555863	-0.282245	-4.890073	-13.339899	-4.404661	1.655659	3.815000	-2.914660	1.297100	-0.760984	-0.005493	0.642027	-1.000000	-1.000000	-1.000000	-1.000000	-1.000000	-1.000000	-1.000000	59.000000	0.000000	-1.000000	-1.000000	1777107.000000	1776579956.277999
8936.145000	4302.315000	32453.460000	51323.085000	34334.370000	19985.895000	-9786.870000	787.095000	0.007892	0.877358	1.106073	-0.465338	-3.937683	-6.861064	-1.921040	0.452573	3.815000	-2.914660	1.297100	-0.760984	-0.005493	0.642027	-1.000000	-1.000000	-1.000000	-1.000000	-1.000000	-1.000000	-1.000000	59.000000	0.000000	-1.000000	-1.000000	1777108.000000	1776579956.278016
8939.745000	4304.115000	32455.755000	51326.100000	34335.630000	19980.360000	-9786.645000	790.245000	-4.292679	-2.353538	-0.146488	-0.816122	-3.096792	-0.992166	0.974859	-0.188091	3.815000	-2.914660	1.297100	-0.760984	-0.005493	0.642027	-1.000000	-1.000000	-1.000000	-1.000000	-1.000000	-1.000000	-1.000000	59.000000	0.000000	-1.000000	-1.000000	1777109.000000	1776579956.284278
8941.320000	4308.435000	32462.055000	51333.030000	34336.260000	19965.825000	-9792.900000	789.480000	-4.720041	-3.422084	-0.723619	-0.431927	-2.094871	1.828056	2.972748	0.548939	3.815000	-2.914660	1.297100	-0.760984	-0.005493	0.642027	-1.000000	-1.000000	-1.000000	-1.000000	-1.000000	-1.000000	-1.000000	59.000000	0.000000	-1.000000	-1.000000	1777110.000000	1776579956.284296
8949.060000	4317.885000	32470.605000	51341.625000	34346.610000	19967.130000	-9789.525000	796.995000	-2.073829	-1.971020	0.106067	1.080811	-0.233877	1.663239	3.143555	1.740129	1.968540	-4.532220	-2.227960	-0.756651	-0.006653	0.645567	-1.000000	-1.000000	-1.000000	-1.000000	-1.000000	-1.000000	-1.000000	59.000000	0.000000	-1.000000	-1.000000	1777111.000000	1776579956.286177
8949.825000	4317.750000	32465.430000	51332.985000	34349.265000	19983.375000	-9779.265000	801.900000	1.284205	0.822003	1.744291	2.918064	2.555823	0.825438	2.011536	2.339323	1.968540	-4.532220	-2.227960	-0.756651	-0.006653	0.645567	-1.000000	-1.000000	-1.000000	-1.000000	-1.000000	-1.000000	-1.000000	59.000000	0.000000	-1.000000	-1.000000	1777112.000000	1776579956.286188
8938.395000	4306.410000	32454.945000	51320.970000	34341.030000	19994.760000	-9783.630000	791.235000	3.055563	2.773971	2.329712	3.065339	4.966437	2.243454	1.026461	1.830969	1.968540	-4.532220	-2.227960	-0.756651	-0.006653	0.645567	-1.000000	-1.000000	-1.000000	-1.000000	-1.000000	-1.000000	-1.000000	59.000000	0.000000	-1.000000	-1.000000	1777113.000000	1776579956.290136
8931.915000	4297.320000	32448.510000	51318.135000	34333.290000	19992.375000	-9785.565000	785.115000	1.826548	1.877965	0.398934	0.336654	4.902639	5.976601	0.497207	-0.274061	1.968540	-4.532220	-2.227960	-0.756651	-0.006653	0.645567	-1.000000	-1.000000	-1.000000	-1.000000	-1.000000	-1.000000	-1.000000	59.000000	0.000000	-1.000000	-1.000000	1777114.000000	1776579956.290152
8933.715000	4298.805000	32448.330000	51316.920000	34326.630000	19977.525000	-9788.445000	785.070000	-1.595638	-1.546946	-3.098571	-3.621336	1.702581	8.379039	-0.365516	-3.509021	1.968540	-4.532220	-2.227960	-0.756651	-0.006653	0.645567	-1.000000	-1.000000	-1.000000	-1.000000	-1.000000	-1.000000	-1.000000	59.000000	0.000000	-1.000000	-1.000000	1777115.000000	1776579956.295594
8941.410000	4307.265000	32457.555000	51323.355000	34324.560000	19944.135000	-9793.170000	791.595000	-4.219439	-4.466942	-5.213372	-5.598844	-2.737850	5.436769	-1.798989	-5.712054	1.968540	-4.532220	-2.227960	-0.756651	-0.006653	0.645567	-1.000000	-1.000000	-1.000000	-1.000000	-1.000000	-1.000000	-1.000000	59.000000	0.000000	-1.000000	-1.000000	1777116.000000	1776579956.295618
8943.615000	4307.670000	32456.565000	51323.040000	34334.595000	19979.685000	-9783.855000	795.015000	-3.551270	-4.002634	-3.776240	-3.860192	-5.286521	-2.229590	-2.951572	-4.809548	1.968540	-4.532220	-2.227960	-0.756651	-0.006653	0.645567	-1.000000	-1.000000	-1.000000	-1.000000	-1.000000	-1.000000	-1.000000	59.000000	0.000000	-1.000000	-1.000000	1777117.000000	1776579956.298218
8932.635000	4300.065000	32449.095000	51322.590000	34344.045000	19998.945000	-9781.740000	785.745000	-0.235894	-0.542598	0.221485	0.393746	-3.801434	-7.822791	-2.551331	-1.233501	1.968540	-4.532220	-2.227960	-0.756651	-0.006653	0.645567	-1.000000	-1.000000	-1.000000	-1.000000	-1.000000	-1.000000	-1.000000	59.000000	0.000000	-1.000000	-1.000000	1777118.000000	1776579956.298236
8931.285000	4299.615000	32449.320000	51320.745000	34332.210000	19997.190000	-9770.400000	785.790000	2.674749	2.885141	3.629909	4.251817	0.781418	-5.724133	-0.223999	2.299441	1.968540	-4.532220	-2.227960	-0.756651	-0.006653	0.645567	-1.000000	-1.000000	-1.000000	-1.000000	-1.000000	-1.000000	-1.000000	59.000000	0.000000	-1.000000	-1.000000	1777119.000000	1776579956.302166
8940.105000	4307.895000	32456.070000	51321.510000	34323.210000	19997.730000	-9761.715000	794.745000	3.346137	4.205422	4.612603	5.575070	4.530306	1.295157	3.008008	3.856733	1.968540	-4.532220	-2.227960	-0.756651	-0.006653	0.645567	-1.000000	-1.000000	-1.000000	-1.000000	-1.000000	-1.000000	-1.000000	59.000000	0.000000	-1.000000	-1.000000	1777120.000000	1776579956.302178
8945.505000	4312.080000	32460.885000	51331.410000	34342.470000	20004.435000	-9763.335000	800.010000	2.774849	3.902863	3.910094	4.433145	4.689561	6.399201	5.328042	3.946487	7.462140	-6.714400	-1.297100	-0.752806	-0.005310	0.651976	-1.000000	-1.000000	-1.000000	-1.000000	-1.000000	-1.000000	-1.000000	59.000000	0.000000	-1.000000	-1.000000	1777121.000000	1776579956.306081
8936.955000	4303.755000	32456.025000	51334.155000	34360.740000	20010.150000	-9780.705000	790.335000	2.262925	2.967579	2.747468	2.460277	3.019779	6.345251	4.663127	3.451842	7.462140	-6.714400	-1.297100	-0.752806	-0.005310	0.651976	-1.000000	-1.000000	-1.000000	-1.000000	-1.000000	-1.000000	-1.000000	59.000000	0.000000	-1.000000	-1.000000	1777122.000000	1776579956.306093
8943.525000	4311.855000	32461.830000	51334.245000	34349.490000	19998.945000	-9785.430000	794.655000	1.552251	1.431807	1.323314	0.844423	2.305259	2.241779	0.143332	2.078386	7.462140	-6.714400	-1.297100	-0.752806	-0.005310	0.651976	-1.000000	-1.000000	-1.000000	-1.000000	-1.000000	-1.000000	-1.000000	59.000000	0.000000	-1.000000	-1.000000	1777123.000000	1776579956.310146
8936.235000	4303.710000	32452.695000	51323.940000	34336.530000	19995.120000	-9785.205000	789.435000	0.174908	-0.585149	-0.482981	-0.726162	1.620586	-3.491764	-5.970739	-0.247198	7.462140	-6.714400	-1.297100	-0.752806	-0.005310	0.651976	-1.000000	-1.000000	-1.000000	-1.000000	-1.000000	-1.000000	-1.000000	59.000000	0.000000	-1.000000	-1.000000	1777124.000000	1776579956.310161
8930.160000	4295.655000	32443.335000	51314.580000	34334.370000	19995.435000	-9785.700000	787.140000	-1.680462	-2.644604	-2.652341	-3.070015	-1.385292	-8.299979	-9.457849	-2.619237	7.462140	-6.714400	-1.297100	-0.752806	-0.005310	0.651976	-1.000000	-1.000000	-1.000000	-1.000000	-1.000000	-1.000000	-1.000000	59.000000	0.000000	-1.000000	-1.000000	1777125.000000	1776579956.314092
8944.110000	4312.575000	32461.155000	51327.630000	34339.680000	19992.150000	-9779.085000	795.870000	-3.223162	-4.070994	-4.494517	-5.566166	-5.723634	-9.822117	-7.810744	-3.862207	7.462140	-6.714400	-1.297100	-0.752806	-0.005310	0.651976	-1.000000	-1.000000	-1.000000	-1.000000	-1.000000	-1.000000	-1.000000	59.000000	0.000000	-1.000000	-1.000000	1777126.000000	1776579956.314108
8946.630000	4315.995000	32468.760000	51340.680000	34356.510000	19990.710000	-9775.215000	797.355000	-3.013270	-3.458812	-4.101712	-5.700299	-7.571075	-7.363700	-1.925915	-3.072253	7.462140	-6.714400	-1.297100	-0.752806	-0.005310	0.651976	-1.000000	-1.000000	-1.000000	-1.000000	-1.000000	-1.000000	-1.000000	59.000000	0.000000	-1.000000	-1.000000	1777127.000000	1776579956.318188
8947.080000	4317.345000	32467.680000	51338.745000	34352.685000	19990.980000	-9776.655000	797.445000	-0.696351	-0.485824	-0.766756	-2.082928	-4.713475	-2.339381	4.875871	-0.593388	7.462140	-6.714400	-1.297100	-0.752806	-0.005310	0.651976	-1.000000	-1.000000	-1.000000	-1.000000	-1.000000	-1.000000	-1.000000	59.000000	0.000000	-1.000000	-1.000000	1777128.000000	1776579956.318208
8948.025000	4318.605000	32468.490000	51337.035000	34349.805000	19998.405000	-9777.240000	797.085000	1.958553	2.768128	3.107837	2.918108	0.701348	3.116513	8.926352	1.842830	7.462140	-6.714400	-1.297100	-0.752806	-0.005310	0.651976	-1.000000	-1.000000	-1.000000	-1.000000	-1.000000	-1.000000	-1.000000	59.000000	0.000000	-1.000000	-1.000000	1777129.000000	1776579956.322133
8951.175000	4319.910000	32468.085000	51337.890000	34349.580000	19985.535000	-9780.345000	798.570000	3.056361	4.005358	4.562916	5.546772	4.475368	7.065609	8.445239	2.744707	7.462140	-6.714400	-1.297100	-0.752806	-0.005310	0.651976	-1.000000	-1.000000	-1.000000	-1.000000	-1.000000	-1.000000	-1.000000	59.000000	0.000000	-1.000000	-1.000000	1777130.000000	1776579956.322145
8952.210000	4321.260000	32470.290000	51340.365000	34349.535000	19974.870000	-9779.310000	799.650000	2.278542	2.760050	2.962946	4.514222	4.619818	7.717130	4.386765	2.011571	12.055400	-9.079700	2.838360	-0.748472	-0.004272	0.655394	-1.000000	-1.000000	-1.000000	-1.000000	-1.000000	-1.000000	-1.000000	59.000000	0.000000	-1.000000	-1.000000	1777131.000000	1776579956.326198
8955.270000	4323.240000	32470.965000	51339.285000	34345.080000	19975.410000	-9772.785000	804.960000	0.513309	0.194509	-0.135354	1.330285	2.139152	4.696434	-0.482897	0.605059	12.055400	-9.079700	2.838360	-0.748472	-0.004272	0.655394	-1.000000	-1.000000	-1.000000	-1.000000	-1.000000	-1.000000	-1.000000	59.000000	0.000000	-1.000000	-1.000000	1777132.000000	1776579956.326207
8953.830000	4316.580000	32462.235000	51331.005000	34345.530000	19995.570000	-9772.290000	803.835000	-1.187201	-2.238339	-2.887536	-1.974693	-0.902536	0.687171	-3.493352	-0.452474	12.055400	-9.079700	2.838360	-0.748472	-0.004272	0.655394	-1.000000	-1.000000	-1.000000	-1.000000	-1.000000	-1.000000	-1.000000	59.000000	0.000000	-1.000000	-1.000000	1777133.000000	1776579956.330081
8945.010000	4310.010000	32457.510000	51328.575000	34344.810000	20007.675000	-9776.385000	794.205000	-2.419474	-3.898069	-4.538503	-4.304613	-2.792894	-0.453395	-3.943063	-1.078346	12.055400	-9.079700	2.838360	-0.748472	-0.004272	0.655394	-1.000000	-1.000000	-1.000000	-1.000000	-1.000000	-1.000000	-1.000000	59.000000	0.000000	-1.000000	-1.000000	1777134.000000	1776579956.330094
8940.240000	4309.560000	32459.580000	51333.480000	34346.385000	19995.705000	-9781.290000	789.030000	-3.408143	-4.650163	-4.881195	-4.988530	-2.755820	1.755459	-3.129042	-1.984130	12.055400	-9.079700	2.838360	-0.748472	-0.004272	0.655394	-1.000000	-1.000000	-1.000000	-1.000000	-1.000000	-1.000000	-1.000000	59.000000	0.000000	-1.000000	-1.000000	1777135.000000	1776579956.334110
8938.935000	4310.010000	32460.345000	51331.635000	34348.095000	19998.135000	-9779.265000	790.200000	-4.017029	-4.052345	-3.495721	-3.494892	-1.107398	3.639078	-2.400818	-3.149104	12.055400	-9.079700	2.838360	-0.748472	-0.004272	0.655394	-1.000000	-1.000000	-1.000000	-1.000000	-1.000000	-1.000000	-1.000000	59.000000	0.000000	-1.000000	-1.000000	1777136.000000	1776579956.334136
8944.920000	4315.005000	32463.945000	51334.290000	34350.345000	20002.635000	-9775.755000	793.530000	-3.325206	-1.713584	-0.436814	-0.350356	1.132233	2.296087	-1.743292	-3.290313	12.055400	-9.079700	2.838360	-0.748472	-0.004272	0.655394	-1.000000	-1.000000	-1.000000	-1.000000	-1.000000	-1.000000	-1.000000	59.000000	0.000000	-1.000000	-1.000000	1777137.000000	1776579956.338037
8947.980000	4317.570000	32465.700000	51337.260000	34352.010000	19998.045000	-9778.590000	792.135000	-0.673173	1.852004	3.172470	2.921716	2.851425	-1.368496	-0.568647	-1.481652	12.055400	-9.079700	2.838360	-0.748472	-0.004272	0.655394	-1.000000	-1.000000	-1.000000	-1.000000	-1.000000	-1.000000	-1.000000	59.000000	0.000000	-1.000000	-1.000000	1777138.000000	1776579956.338044
8948.430000	4322.655000	32472.540000	51344.010000	34354.800000	19993.005000	-9783.090000	791.010000	3.093929	5.211605	5.813075	5.045953	3.359201	-5.011051	0.823463	1.457904	12.055400	-9.079700	2.838360	-0.748472	-0.004272	0.655394	-1.000000	-1.000000	-1.000000	-1.000000	-1.000000	-1.000000	-1.000000	59.000000	0.000000	-1.000000	-1.000000	1777139.000000	1776579956.342033
8945.280000	4322.835000	32467.545000	51341.670000	34345.395000	19974.645000	-9788.175000	790.515000	5.846421	6.813404	6.400886	5.451793	2.427926	-7.385943	1.441698	3.739517	12.055400	-9.079700	2.838360	-0.748472	-0.004272	0.655394	-1.000000	-1.000000	-1.000000	-1.000000	-1.000000	-1.000000	-1.000000	59.000000	0.000000	-1.000000	-1.000000	1777140.000000	1776579956.342050
8953.290000	4326.030000	32464.305000	51342.840000	34344.810000	19958.985000	-9787.095000	800.955000	6.027937	5.890404	4.485919	3.979957	0.171769	-8.467930	0.969367	4.437937	14.023940	-10.208940	6.271860	-0.741819	0.000671	0.660704	-1.000000	-1.000000	-1.000000	-1.000000	-1.000000	-1.000000	-1.000000	59.000000	0.000000	-1.000000	-1.000000	1777141.000000	1776579956.346052
8957.295000	4321.890000	32458.140000	51334.785000	34341.570000	19964.205000	-9781.740000	804.780000	4.085075	2.820800	0.543215	0.931726	-2.528730	-7.978281	0.311524	4.050673	14.023940	-10.208940	6.271860	-0.741819	0.000671	0.660704	-1.000000	-1.000000	-1.000000	-1.000000	-1.000000	-1.000000	-1.000000	59.000000	0.000000	-1.000000	-1.000000	1777142.000000	1776579956.346063
8950.725000	4315.725000	32463.855000	51330.330000	34349.895000	20003.130000	-9767.205000	799.830000	1.388763	-1.295721	-3.647149	-2.794295	-4.030552	-3.964902	0.808668	3.084506	14.023940	-10.208940	6.271860	-0.741819	0.000671	0.660704	-1.000000	-1.000000	-1.000000	-1.000000	-1.000000	-1.000000	-1.000000	59.000000	0.000000	-1.000000	-1.000000	1777143.000000	1776579956.350112
8941.095000	4315.815000	32472.720000	51334.875000	34355.970000	20022.120000	-9765.765000	792.540000	-1.563456	-5.068617	-5.609815	-5.674324	-3.034330	5.129370	2.770023	1.066163	14.023940	-10.208940	6.271860	-0.741819	0.000671	0.660704	-1.000000	-1.000000	-1.000000	-1.000000	-1.000000	-1.000000	-1.000000	59.000000	0.000000	-1.000000	-1.000000	1777144.000000	1776579956.350122
8939.880000	4314.060000	32470.245000	51339.420000	34361.640000	20034.945000	-9764.190000	796.230000	-4.608731	-6.972062	-4.141404	-5.963051	0.186448	16.126901	4.623205	-2.089566	14.023940	-10.208940	6.271860	-0.741819	0.000671	0.660704	-1.000000	-1.000000	-1.000000	-1.000000	-1.000000	-1.000000	-1.000000	59.000000	0.000000	-1.000000	-1.000000	1777145.000000	1776579956.354230
8938.710000	4310.640000	32465.880000	51338.970000	34360.605000	20026.170000	-9766.755000	796.725000	-6.572809	-6.186471	-0.806732	-3.214344	3.616962	21.642038	4.204458	-4.836356	14.023940	-10.208940	6.271860	-0.741819	0.000671	0.660704	-1.000000	-1.000000	-1.000000	-1.000000	-1.000000	-1.000000	-1.000000	59.000000	0.000000	-1.000000	-1.000000	1777146.000000	1776579956.354241
8947.080000	4319.055000	32473.125000	51348.645000	34359.705000	19994.985000	-9771.570000	799.785000	-5.880905	-3.159478	1.732289	1.027408	4.890729	15.889946	0.914954	-5.345728	14.023940	-10.208940	6.271860	-0.741819	0.000671	0.660704	-1.000000	-1.000000	-1.000000	-1.000000	-1.000000	-1.000000	-1.000000	59.000000	0.000000	-1.000000	-1.000000	1777147.000000	1776579956.358241
8957.745000	4322.880000	32466.330000	51339.195000	34340.175000	19972.260000	-9777.465000	801.135000	-2.064553	1.029528	2.357396	4.429077	2.809775	-0.445553	-3.838040	-3.355192	14.023940	-10.208940	6.271860	-0.741819	0.000671	0.660704	-1.000000	-1.000000	-1.000000	-1.000000	-1.000000	-1.000000	-1.000000	59.000000	0.000000	-1.000000	-1.000000	1777148.000000	1776579956.358257
8965.530000	4328.730000	32463.450000	51330.735000	34338.195000	19985.895000	-9778.185000	802.080000	3.521677	5.004462	1.367046	4.976926	-1.976877	-18.967574	-7.661694	-0.191192	14.023940	-10.208940	6.271860	-0.741819	0.000671	0.660704	-1.000000	-1.000000	-1.000000	-1.000000	-1.000000	-1.000000	-1.000000	59.000000	0.000000	-1.000000	-1.000000	1777149.000000	1776579956.362313
8958.735000	4325.130000	32464.485000	51334.785000	34361.145000	20017.395000	-9772.380000	799.335000	7.899000	7.099010	-0.428189	2.302511	-6.269373	-27.605385	-8.379030	2.333583	14.023940	-10.208940	6.271860	-0.741819	0.000671	0.660704	-1.000000	-1.000000	-1.000000	-1.000000	-1.000000	-1.000000	-1.000000	59.000000	0.000000	-1.000000	-1.000000	1777150.000000	1776579956.362324
8952.210000	4321.755000	32471.055000	51335.595000	34359.165000	19998.225000	-9773.685000	797.355000	8.016861	6.073058	-1.664767	-1.371966	-6.081054	-20.441113	-5.312893	3.011543	13.337240	-10.636220	5.463080	-0.736631	0.008301	0.666746	-1.000000	-1.000000	-1.000000	-1.000000	-1.000000	-1.000000	-1.000000	59.000000	0.000000	-1.000000	-1.000000	1777151.000000	1776579956.366150
8958.330000	4326.660000	32472.855000	51336.765000	34350.075000	19978.200000	-9770.445000	803.385000	3.496000	2.311148	-1.219479	-3.255005	-1.474649	-4.182938	-0.024605	2.005456	13.337240	-10.636220	5.463080	-0.736631	0.008301	0.666746	-1.000000	-1.000000	-1.000000	-1.000000	-1.000000	-1.000000	-1.000000	59.000000	0.000000	-1.000000	-1.000000	1777152.000000	1776579956.366158
8964.855000	4334.400000	32479.110000	51342.345000	34347.960000	19989.495000	-9765.495000	807.795000	-2.408885	-1.844845	0.654033	-2.462620	3.153600	9.171345	4.840754	0.698506	13.337240	-10.636220	5.463080	-0.736631	0.008301	0.666746	-1.000000	-1.000000	-1.000000	-1.000000	-1.000000	-1.000000	-1.000000	59.000000	0.000000	-1.000000	-1.000000	1777153.000000	1776579956.370164
8956.755000	4326.345000	32470.695000	51333.390000	34340.940000	20000.385000	-9770.715000	797.670000	-5.948247	-4.090265	2.436474	-0.167949	4.335767	14.402735	7.280783	0.050847	13.337240	-10.636220	5.463080	-0.736631	0.008301	0.666746	-1.000000	-1.000000	-1.000000	-1.000000	-1.000000	-1.000000	-1.000000	59.000000	0.000000	-1.000000	-1.000000	1777154.000000	1776579956.370175
8953.200000	4324.905000	32472.990000	51341.085000	34358.490000	20009.160000	-9780.885000	793.170000	-6.317302	-4.318379	2.527847	1.687035	2.595977	13.911551	6.308940	-0.524655	13.337240	-10.636220	5.463080	-0.736631	0.008301	0.666746	-1.000000	-1.000000	-1.000000	-1.000000	-1.000000	-1.000000	-1.000000	59.000000	0.000000	-1.000000	-1.000000	1777155.000000	1776579956.374279
8958.915000	4331.160000	32478.570000	51348.105000	34364.610000	20003.400000	-9780.525000	797.805000	-4.762281	-3.554990	0.869795	2.301793	0.978870	10.872043	2.341460	-1.574891	13.337240	-10.636220	5.463080	-0.736631	0.008301	0.666746	-1.000000	-1.000000	-1.000000	-1.000000	-1.000000	-1.000000	-1.000000	59.000000	0.000000	-1.000000	-1.000000	1777156.000000	1776579956.374292
8961.345000	4332.420000	32477.580000	51344.550000	34357.905000	20004.165000	-9774.315000	801.585000	-2.134476	-2.085642	-0.993644	2.180145	1.174121	6.170794	-2.166649	-2.129829	13.337240	-10.636220	5.463080	-0.736631	0.008301	0.666746	-1.000000	-1.000000	-1.000000	-1.000000	-1.000000	-1.000000	-1.000000	59.000000	0.000000	-1.000000	-1.000000	1777157.000000	1776579956.378264
8956.755000	4327.650000	32475.375000	51342.030000	34353.540000	19995.210000	-9776.790000	797.670000	0.905448	-0.142698	-1.923507	1.423676	1.639109	0.122310	-4.294355	-1.221008	13.337240	-10.636220	5.463080	-0.736631	0.008301	0.666746	-1.000000	-1.000000	-1.000000	-1.000000	-1.000000	-1.000000	-1.000000	59.000000	0.000000	-1.000000	-1.000000	1777158.000000	1776579956.378272
8956.620000	4327.470000	32475.960000	51345.405000	34353.495000	19978.200000	-9778.905000	797.535000	3.082536	1.297765	-2.031365	-0.152278	0.433851	-6.189995	-3.382527	0.486880	13.337240	-10.636220	5.463080	-0.736631	0.008301	0.666746	-1.000000	-1.000000	-1.000000	-1.000000	-1.000000	-1.000000	-1.000000	59.000000	0.000000	-1.000000	-1.000000	1777159.000000	1776579956.382097
8956.350000	4325.670000	32471.010000	51334.335000	34339.725000	19975.545000	-9776.520000	799.605000	3.516442	1.564043	-1.780570	-2.044285	-2.243060	-11.104017	-1.021077	1.705380	13.337240	-10.636220	5.463080	-0.736631	0.008301	0.666746	-1.000000	-1.000000	-1.000000	-1.000000	-1.000000	-1.000000	-1.000000	59.000000	0.000000	-1.000000	-1.000000	1777160.000000	1776579956.382106
8952.570000	4322.790000	32467.185000	51330.105000	34341.525000	19979.955000	-9781.155000	792.855000	2.491824	0.940080	-1.505694	-3.644432	-4.862358	-12.401080	1.025311	1.859716	10.956680	-10.651480	4.394880	-0.733458	0.013000	0.669371	-1.000000	-1.000000	-1.000000	-1.000000	-1.000000	-1.000000	-1.000000	59.000000	0.000000	-1.000000	-1.000000	1777161.000000	1776579956.386218
8958.870000	4328.325000	32473.035000	51339.465000	34353.360000	20005.155000	-9774.405000	798.300000	0.968105	0.213877	-1.161678	-4.256683	-5.468969	-8.139816	1.949698	1.085966	10.956680	-10.651480	4.394880	-0.733458	0.013000	0.669371	-1.000000	-1.000000	-1.000000	-1.000000	-1.000000	-1.000000	-1.000000	59.000000	0.000000	-1.000000	-1.000000	1777162.000000	1776579956.386235
8965.980000	4335.525000	32479.830000	51344.730000	34362.135000	20028.195000	-9762.525000	807.345000	0.119456	0.286010	-0.106943	-2.758736	-2.584676	1.388588	2.174940	0.265241	10.956680	-10.651480	4.394880	-0.733458	0.013000	0.669371	-1.000000	-1.000000	-1.000000	-1.000000	-1.000000	-1.000000	-1.000000	59.000000	0.000000	-1.000000	-1.000000	1777163.000000	1776579956.390256
8962.155000	4329.180000	32472.495000	51338.880000	34355.430000	20007.855000	-9763.830000	807.210000	0.458569	1.315545	1.780467	0.715123	2.654882	11.766957	2.514322	0.394109	10.956680	-10.651480	4.394880	-0.733458	0.013000	0.669371	-1.000000	-1.000000	-1.000000	-1.000000	-1.000000	-1.000000	-1.000000	59.000000	0.000000	-1.000000	-1.000000	1777164.000000	1776579956.390265
8957.295000	4324.230000	32466.735000	51334.695000	34351.785000	20004.795000	-9762.705000	804.195000	0.964058	2.015994	3.075735	3.823495	6.502804	15.846010	2.613193	1.078920	10.956680	-10.651480	4.394880	-0.733458	0.013000	0.669371	-1.000000	-1.000000	-1.000000	-1.000000	-1.000000	-1.000000	-1.000000	59.000000	0.000000	-1.000000	-1.000000	1777165.000000	1776579956.395576
8964.045000	4333.005000	32476.680000	51344.550000	34360.470000	20011.320000	-9759.960000	809.910000	0.422888	1.275264	2.565040	4.542654	6.333829	10.454607	1.512823	1.056171	10.956680	-10.651480	4.394880	-0.733458	0.013000	0.669371	-1.000000	-1.000000	-1.000000	-1.000000	-1.000000	-1.000000	-1.000000	59.000000	0.000000	-1.000000	-1.000000	1777166.000000	1776579956.395585
8963.280000	4331.880000	32475.960000	51344.865000	34360.470000	20010.555000	-9762.390000	807.795000	-0.797123	-0.151421	1.103452	3.337685	3.152633	-0.043456	-0.727348	0.034436	10.956680	-10.651480	4.394880	-0.733458	0.013000	0.669371	-1.000000	-1.000000	-1.000000	-1.000000	-1.000000	-1.000000	-1.000000	59.000000	0.000000	-1.000000	-1.000000	1777167.000000	1776579956.398286
8968.635000	4339.170000	32480.055000	51344.235000	34355.205000	20001.195000	-9761.400000	812.160000	-1.517509	-0.884307	0.150185	1.650067	-0.544725	-8.978221	-3.120615	-1.254130	10.956680	-10.651480	4.394880	-0.733458	0.013000	0.669371	-1.000000	-1.000000	-1.000000	-1.000000	-1.000000	-1.000000	-1.000000	59.000000	0.000000	-1.000000	-1.000000	1777168.000000	1776579956.398298
8964.900000	4332.960000	32474.700000	51340.545000	34351.245000	19985.670000	-9766.215000	808.020000	-1.321349	-0.673894	-0.120647	-0.025615	-3.432035	-13.145079	-4.662826	-2.104993	10.956680	-10.651480	4.394880	-0.733458	0.013000	0.669371	-1.000000	-1.000000	-1.000000	-1.000000	-1.000000	-1.000000	-1.000000	59.000000	0.000000	-1.000000	-1.000000	1777169.000000	1776579956.402218
8972.370000	4343.085000	32486.400000	51353.550000	34369.785000	20016.585000	-9757.215000	813.105000	-0.630678	-0.195117	-0.244412	-1.476665	-4.743877	-12.193415	-4.680604	-2.258665	10.956680	-10.651480	4.394880	-0.733458	0.013000	0.669371	-1.000000	-1.000000	-1.000000	-1.000000	-1.000000	-1.000000	-1.000000	59.000000	0.000000	-1.000000	-1.000000	1777170.000000	1776579956.402234
8972.280000	4348.170000	32494.005000	51362.460000	34382.655000	20029.545000	-9760.815000	810.720000	0.102879	0.217960	-0.118491	-1.777692	-3.286355	-5.936250	-2.960385	-1.742033	12.208000	-9.369640	8.133580	-0.732725	0.015808	0.670103	-1.000000	-1.000000	-1.000000	-1.000000	-1.000000	-1.000000	-1.000000	59.000000	0.000000	-1.000000	-1.000000	1777171.000000	1776579956.406466
8964.810000	4340.160000	32484.375000	51349.950000	34364.295000	20005.695000	-9765.945000	805.050000	0.455449	0.508314	0.363089	-0.735604	0.392452	3.394012	-0.346689	-0.931261	12.208000	-9.369640	8.133580	-0.732725	0.015808	0.670103	-1.000000	-1.000000	-1.000000	-1.000000	-1.000000	-1.000000	-1.000000	59.000000	0.000000	-1.000000	-1.000000	1777172.000000	1776579956.406490
8968.860000	4343.085000	32486.130000	51350.130000	34364.160000	20015.100000	-9759.465000	809.955000	-0.028515	0.100785	0.213608	-0.063493	2.836293	9.846991	1.690513	-0.353931	12.208000	-9.369640	8.133580	-0.732725	0.015808	0.670103	-1.000000	-1.000000	-1.000000	-1.000000	-1.000000	-1.000000	-1.000000	59.000000	0.000000	-1.000000	-1.000000	1777173.000000	1776579956.410432
8976.240000	4347.720000	32490.630000	51352.470000	34362.855000	20019.285000	-9754.920000	816.930000	-0.834282	-1.039262	-1.067527	-0.970694	1.701686	9.864875	2.737568	0.210990	12.208000	-9.369640	8.133580	-0.732725	0.015808	0.670103	-1.000000	-1.000000	-1.000000	-1.000000	-1.000000	-1.000000	-1.000000	59.000000	0.000000	-1.000000	-1.000000	1777174.000000	1776579956.410444
8979.795000	4351.860000	32494.680000	51355.035000	34356.735000	20015.640000	-9752.400000	819.135000	-0.701017	-1.771153	-2.276605	-2.329983	-1.550408	5.452207	3.304190	1.374432	12.208000	-9.369640	8.133580	-0.732725	0.015808	0.670103	-1.000000	-1.000000	-1.000000	-1.000000	-1.000000	-1.000000	-1.000000	59.000000	0.000000	-1.000000	-1.000000	1777175.000000	1776579956.414400
8981.235000	4354.470000	32498.910000	51360.885000	34365.195000	20017.620000	-9746.865000	820.845000	0.566569	-1.281322	-2.136972	-2.419465	-3.980151	0.177120	3.500105	2.772964	12.208000	-9.369640	8.133580	-0.732725	0.015808	0.670103	-1.000000	-1.000000	-1.000000	-1.000000	-1.000000	-1.000000	-1.000000	59.000000	0.000000	-1.000000	-1.000000	1777176.000000	1776579956.414408
8962.515000	4335.210000	32482.035000	51351.255000	34370.775000	20010.645000	-9764.505000	802.980000	1.445109	-0.377939	-1.062227	-1.028378	-3.557288	-3.743963	2.687766	2.937722	12.208000	-9.369640	8.133580	-0.732725	0.015808	0.670103	-1.000000	-1.000000	-1.000000	-1.000000	-1.000000	-1.000000	-1.000000	59.000000	0.000000	-1.000000	-1.000000	1777177.000000	1776579956.418282
8958.690000	4331.835000	32477.490000	51348.510000	34366.815000	19986.480000	-9785.565000	794.970000	0.182506	-0.752648	-0.778973	0.398345	-0.406724	-5.959374	-0.243485	0.586951	12.208000	-9.369640	8.133580	-0.732725	0.015808	0.670103	-1.000000	-1.000000	-1.000000	-1.000000	-1.000000	-1.000000	-1.000000	59.000000	0.000000	-1.000000	-1.000000	1777178.000000	1776579956.418296
8968.230000	4337.640000	32480.415000	51346.620000	34363.035000	20010.645000	-9768.240000	805.545000	-2.553907	-2.343930	-1.789211	0.609983	3.006283	-6.752490	-4.751165	-3.218835	12.208000	-9.369640	8.133580	-0.732725	0.015808	0.670103	-1.000000	-1.000000	-1.000000	-1.000000	-1.000000	-1.000000	-1.000000	59.000000	0.000000	-1.000000	-1.000000	1777179.000000	1776579956.422454
8965.575000	4333.770000	32477.670000	51345.585000	34365.780000	20030.670000	-9756.945000	805.815000	-3.806990	-2.921729	-2.413400	-0.023808	4.232443	-4.596931	-6.985093	-5.116342	12.208000	-9.369640	8.133580	-0.732725	0.015808	0.670103	-1.000000	-1.000000	-1.000000	-1.000000	-1.000000	-1.000000	-1.000000	59.000000	0.000000	-1.000000	-1.000000	1777180.000000	1776579956.422481
8962.020000	4332.195000	32476.860000	51344.955000	34363.080000	20022.345000	-9760.680000	801.585000	-2.138707	-1.238879	-1.250805	-0.378172	3.051089	1.426783	-3.922558	-3.283288	12.742100	-7.431620	8.072540	-0.730467	0.017151	0.672301	-1.000000	-1.000000	-1.000000	-1.000000	-1.000000	-1.000000	-1.000000	59.000000	0.000000	-1.000000	-1.000000	1777181.000000	1776579956.426430
8965.890000	4336.470000	32480.235000	51347.070000	34361.685000	20014.110000	-9760.725000	806.130000	0.976838	1.698255	1.282069	0.154852	0.794890	7.526765	2.204509	0.623090	12.742100	-7.431620	8.072540	-0.730467	0.017151	0.672301	-1.000000	-1.000000	-1.000000	-1.000000	-1.000000	-1.000000	-1.000000	59.000000	0.000000	-1.000000	-1.000000	1777182.000000	1776579956.426444
8973.000000	4343.355000	32486.580000	51354.090000	34365.870000	20013.210000	-9757.215000	812.430000	3.674338	4.435972	3.994522	1.503611	-1.119101	8.641653	6.696885	4.077264	12.742100	-7.431620	8.072540	-0.730467	0.017151	0.672301	-1.000000	-1.000000	-1.000000	-1.000000	-1.000000	-1.000000	-1.000000	59.000000	0.000000	-1.000000	-1.000000	1777183.000000	1776579956.430237
8972.775000	4346.010000	32489.955000	51359.130000	34367.670000	20008.260000	-9756.540000	812.295000	5.129947	6.083753	5.864925	3.190716	-1.723315	4.220344	7.207033	5.768966	12.742100	-7.431620	8.072540	-0.730467	0.017151	0.672301	-1.000000	-1.000000	-1.000000	-1.000000	-1.000000	-1.000000	-1.000000	59.000000	0.000000	-1.000000	-1.000000	1777184.000000	1776579956.430251
8972.055000	4347.045000	32491.080000	51358.095000	34362.855000	20001.645000	-9758.025000	811.665000	4.884586	5.983804	6.074077	4.298902	-1.051497	-2.244920	4.375287	5.231891	12.742100	-7.431620	8.072540	-0.730467	0.017151	0.672301	-1.000000	-1.000000	-1.000000	-1.000000	-1.000000	-1.000000	-1.000000	59.000000	0.000000	-1.000000	-1.000000	1777185.000000	1776579956.434321
8962.740000	4340.070000	32485.995000	51352.605000	34363.980000	20005.650000	-9765.000000	802.395000	2.621282	3.706244	4.112848	3.640175	-0.145180	-6.849423	0.015842	2.481093	12.742100	-7.431620	8.072540	-0.730467	0.017151	0.672301	-1.000000	-1.000000	-1.000000	-1.000000	-1.000000	-1.000000	-1.000000	59.000000	0.000000	-1.000000	-1.000000	1777186.000000	1776579956.434340
8964.405000	4342.185000	32488.155000	51356.070000	34374.150000	20016.090000	-9768.015000	800.280000	-1.110501	-0.310968	0.353613	0.894292	0.378046	-7.160482	-4.115934	-1.659062	12.742100	-7.431620	8.072540	-0.730467	0.017151	0.672301	-1.000000	-1.000000	-1.000000	-1.000000	-1.000000	-1.000000	-1.000000	59.000000	0.000000	-1.000000	-1.000000	1777187.000000	1776579956.438385
8969.805000	4345.605000	32489.550000	51359.130000	34376.535000	20015.235000	-9763.920000	804.510000	-4.408908	-4.289940	-3.589016	-2.484782	0.949760	-3.154365	-6.443683	-5.272870	12.742100	-7.431620	8.072540	-0.730467	0.017151	0.672301	-1.000000	-1.000000	-1.000000	-1.000000	-1.000000	-1.000000	-1.000000	59.000000	0.000000	-1.000000	-1.000000	1777188.000000	1776579956.438401
8973.765000	4353.930000	32499.495000	51368.490000	34381.620000	20017.395000	-9758.430000	809.595000	-5.132159	-5.987516	-5.625927	-4.274386	1.758270	2.426054	-5.763492	-6.146808	12.742100	-7.431620	8.072540	-0.730467	0.017151	0.672301	-1.000000	-1.000000	-1.000000	-1.000000	-1.000000	-1.000000	-1.000000	59.000000	0.000000	-1.000000	-1.000000	1777189.000000	1776579956.442264
8972.280000	4349.205000	32493.195000	51357.195000	34373.655000	20027.070000	-9759.195000	806.625000	-2.999792	-4.664368	-4.871402	-3.683601	1.976751	6.219430	-2.300984	-3.744580	12.742100	-7.431620	8.072540	-0.730467	0.017151	0.672301	-1.000000	-1.000000	-1.000000	-1.000000	-1.000000	-1.000000	-1.000000	59.000000	0.000000	-1.000000	-1.000000	1777190.000000	1776579956.442286
8975.925000	4341.690000	32479.875000	51340.860000	34353.810000	20011.545000	-9765.270000	806.940000	0.178134	-1.992888	-2.779107	-2.413397	0.319512	6.542429	1.774141	0.071078	10.300500	-5.691980	5.981920	-0.726255	0.016663	0.674193	-1.000000	-1.000000	-1.000000	-1.000000	-1.000000	-1.000000	-1.000000	59.000000	0.000000	-1.000000	-1.000000	1777191.000000	1776579956.446184
8978.400000	4347.135000	32485.050000	51346.530000	34360.020000	20014.965000	-9762.615000	809.415000	2.445395	-0.207836	-1.544644	-2.403454	-3.311556	3.389291	3.961836	2.905716	10.300500	-5.691980	5.981920	-0.726255	0.016663	0.674193	-1.000000	-1.000000	-1.000000	-1.000000	-1.000000	-1.000000	-1.000000	59.000000	0.000000	-1.000000	-1.000000	1777192.000000	1776579956.446195
8977.185000	4349.205000	32487.255000	51346.170000	34358.895000	20014.830000	-9761.760000	809.730000	2.996235	0.364909	-1.228779	-2.883564	-6.411132	-1.471704	3.645017	3.757521	10.300500	-5.691980	5.981920	-0.726255	0.016663	0.674193	-1.000000	-1.000000	-1.000000	-1.000000	-1.000000	-1.000000	-1.000000	59.000000	0.000000	-1.000000	-1.000000	1777193.000000	1776579956.450484
8971.965000	4345.245000	32485.635000	51346.800000	34354.755000	19989.810000	-9767.295000	805.905000	1.863857	0.679827	-0.381742	-1.802006	-6.139161	-5.541860	1.914072	2.872187	10.300500	-5.691980	5.981920	-0.726255	0.016663	0.674193	-1.000000	-1.000000	-1.000000	-1.000000	-1.000000	-1.000000	-1.000000	59.000000	0.000000	-1.000000	-1.000000	1777194.000000	1776579956.450508
8963.910000	4342.455000	32488.290000	51350.985000	34362.405000	20002.410000	-9760.950000	807.885000	-0.518397	0.962083	1.355938	1.140743	-2.408533	-7.540831	0.023015	0.960532	10.300500	-5.691980	5.981920	-0.726255	0.016663	0.674193	-1.000000	-1.000000	-1.000000	-1.000000	-1.000000	-1.000000	-1.000000	59.000000	0.000000	-1.000000	-1.000000	1777195.000000	1776579956.454394
8957.205000	4333.005000	32478.750000	51342.660000	34353.765000	19996.830000	-9767.115000	804.060000	-3.265511	0.696954	2.927388	4.312758	2.580556	-6.682339	-1.165252	-1.022522	10.300500	-5.691980	5.981920	-0.726255	0.016663	0.674193	-1.000000	-1.000000	-1.000000	-1.000000	-1.000000	-1.000000	-1.000000	59.000000	0.000000	-1.000000	-1.000000	1777196.000000	1776579956.454406
8966.880000	4333.500000	32474.880000	51340.185000	34354.620000	19999.665000	-9766.260000	805.005000	-4.833394	-0.246332	3.037399	5.597330	6.110023	-2.757868	-1.454394	-2.246790	10.300500	-5.691980	5.981920	-0.726255	0.016663	0.674193	-1.000000	-1.000000	-1.000000	-1.000000	-1.000000	-1.000000	-1.000000	59.000000	0.000000	-1.000000	-1.000000	1777197.000000	1776579956.458268
8987.580000	4353.345000	32490.135000	51353.055000	34364.520000	20002.950000	-9760.905000	813.735000	-3.282329	-0.707340	1.773105	4.423815	6.805601	2.593514	-1.090627	-2.192839	10.300500	-5.691980	5.981920	-0.726255	0.016663	0.674193	-1.000000	-1.000000	-1.000000	-1.000000	-1.000000	-1.000000	-1.000000	59.000000	0.000000	-1.000000	-1.000000	1777198.000000	1776579956.458285
8978.760000	4349.295000	32489.955000	51351.345000	34360.335000	19997.775000	-9763.650000	809.010000	1.584630	0.808697	0.888012	2.376601	5.398997	6.836988	-0.221539	-0.808380	10.300500	-5.691980	5.981920	-0.726255	0.016663	0.674193	-1.000000	-1.000000	-1.000000	-1.000000	-1.000000	-1.000000	-1.000000	59.000000	0.000000	-1.000000	-1.000000	1777199.000000	1776579956.462282
8974.395000	4345.110000	32486.805000	51348.510000	34359.795000	20000.880000	-9763.515000	807.885000	6.362170	3.402034	1.201103	0.778246	2.968278	8.085902	0.706531	0.894975	10.300500	-5.691980	5.981920	-0.726255	0.016663	0.674193	-1.000000	-1.000000	-1.000000	-1.000000	-1.000000	-1.000000	-1.000000	59.000000	0.000000	-1.000000	-1.000000	1777200.000000	1776579956.462288
8981.910000	4351.680000	32489.865000	51357.870000	34370.325000	20011.455000	-9759.105000	813.285000	7.182202	4.407312	1.507340	-0.449466	0.221631	6.355137	1.113394	1.656352	10.636220	-4.394880	5.066320	-0.724363	0.017761	0.675047	-1.000000	-1.000000	-1.000000	-1.000000	-1.000000	-1.000000	-1.000000	59.000000	0.000000	-1.000000	-1.000000	1777201.000000	1776579956.469105
8983.755000	4352.040000	32482.755000	51354.945000	34372.620000	20033.505000	-9754.605000	812.970000	4.043849	2.929846	0.666854	-1.379038	-1.756494	3.782342	1.090124	1.403350	10.636220	-4.394880	5.066320	-0.724363	0.017761	0.675047	-1.000000	-1.000000	-1.000000	-1.000000	-1.000000	-1.000000	-1.000000	59.000000	0.000000	-1.000000	-1.000000	1777202.000000	1776579956.469127
8984.295000	4355.595000	32488.560000	51355.935000	34377.840000	20037.645000	-9749.340000	817.785000	-0.263219	0.266930	-1.120992	-1.930566	-2.297860	2.407777	1.095408	0.810564	10.636220	-4.394880	5.066320	-0.724363	0.017761	0.675047	-1.000000	-1.000000	-1.000000	-1.000000	-1.000000	-1.000000	-1.000000	59.000000	0.000000	-1.000000	-1.000000	1777203.000000	1776579956.470460
8985.960000	4366.080000	32506.245000	51360.210000	34379.820000	20032.875000	-9745.470000	824.535000	-3.453912	-1.873338	-2.344507	-2.221098	-1.900920	1.641025	1.214263	0.435645	10.636220	-4.394880	5.066320	-0.724363	0.017761	0.675047	-1.000000	-1.000000	-1.000000	-1.000000	-1.000000	-1.000000	-1.000000	59.000000	0.000000	-1.000000	-1.000000	1777204.000000	1776579956.470475
8982.090000	4363.470000	32500.575000	51345.855000	34360.425000	20009.430000	-9749.385000	820.035000	-4.775285	-2.507478	-1.552415	-2.389670	-1.851598	-1.137637	0.979656	0.380727	10.636220	-4.394880	5.066320	-0.724363	0.017761	0.675047	-1.000000	-1.000000	-1.000000	-1.000000	-1.000000	-1.000000	-1.000000	59.000000	0.000000	-1.000000	-1.000000	1777205.000000	1776579956.474370
8980.110000	4356.405000	32496.615000	51352.425000	34353.855000	19988.865000	-9766.260000	809.010000	-4.599365	-2.221206	0.291864	-2.669092	-3.387246	-7.282263	-0.482388	-0.133823	10.636220	-4.394880	5.066320	-0.724363	0.017761	0.675047	-1.000000	-1.000000	-1.000000	-1.000000	-1.000000	-1.000000	-1.000000	59.000000	0.000000	-1.000000	-1.000000	1777206.000000	1776579956.474392
8984.295000	4359.960000	32498.595000	51356.655000	34360.875000	20002.455000	-9761.400000	812.430000	-3.506576	-2.320802	0.853852	-2.595820	-5.733664	-14.005622	-3.352069	-1.796791	10.636220	-4.394880	5.066320	-0.724363	0.017761	0.675047	-1.000000	-1.000000	-1.000000	-1.000000	-1.000000	-1.000000	-1.000000	59.000000	0.000000	-1.000000	-1.000000	1777207.000000	1776579956.478440
8974.890000	4354.020000	32494.680000	51357.735000	34374.060000	20031.210000	-9756.810000	805.635000	-1.849548	-2.921277	-0.434914	-1.211926	-5.785807	-15.044581	-5.703329	-3.704625	10.636220	-4.394880	5.066320	-0.724363	0.017761	0.675047	-1.000000	-1.000000	-1.000000	-1.000000	-1.000000	-1.000000	-1.000000	59.000000	0.000000	-1.000000	-1.000000	1777208.000000	1776579956.478453
8972.955000	4356.495000	32498.730000	51359.715000	34375.185000	20033.460000	-9753.435000	803.160000	-0.256686	-3.112802	-2.213012	1.210053	-1.669876	-6.762709	-4.996815	-4.321310	10.636220	-4.394880	5.066320	-0.724363	0.017761	0.675047	-1.000000	-1.000000	-1.000000	-1.000000	-1.000000	-1.000000	-1.000000	59.000000	0.000000	-1.000000	-1.000000	1777209.000000	1776579956.482771
8974.620000	4362.390000	32506.335000	51365.880000	34375.455000	20026.620000	-9756.270000	803.205000	0.769037	-2.087146	-2.773459	3.340283	4.457672	6.307548	-1.218077	-3.100691	10.636220	-4.394880	5.066320	-0.724363	0.017761	0.675047	-1.000000	-1.000000	-1.000000	-1.000000	-1.000000	-1.000000	-1.000000	59.000000	0.000000	-1.000000	-1.000000	1777210.000000	1776579956.482797
8986.230000	4371.480000	32516.145000	51377.085000	34388.235000	20025.360000	-9747.585000	817.560000	1.741791	0.440556	-1.181264	4.392176	8.658694	15.128510	3.194841	-0.218198	15.610980	-3.067260	3.570840	-0.726988	0.020996	0.673948	-1.000000	-1.000000	-1.000000	-1.000000	-1.000000	-1.000000	-1.000000	59.000000	0.000000	-1.000000	-1.000000	1777211.000000	1776579956.488834
8991.810000	4371.435000	32515.200000	51375.465000	34389.450000	20036.700000	-9747.045000	825.030000	3.430423	3.677648	1.826031	4.307911	9.021402	14.989427	5.972428	3.838550	15.610980	-3.067260	3.570840	-0.726988	0.020996	0.673948	-1.000000	-1.000000	-1.000000	-1.000000	-1.000000	-1.000000	-1.000000	59.000000	0.000000	-1.000000	-1.000000	1777212.000000	1776579956.488849
8994.735000	4368.870000	32509.935000	51369.885000	34384.275000	20036.385000	-9743.850000	829.935000	5.331590	5.680528	3.938490	2.772781	5.886045	8.330941	6.239517	7.603031	15.610980	-3.067260	3.570840	-0.726988	0.020996	0.673948	-1.000000	-1.000000	-1.000000	-1.000000	-1.000000	-1.000000	-1.000000	59.000000	0.000000	-1.000000	-1.000000	1777213.000000	1776579956.490397
8997.885000	4367.340000	32499.135000	51353.775000	34372.170000	20033.730000	-9742.365000	835.380000	5.823656	4.829557	3.042284	-0.723716	0.275483	0.192122	4.243871	8.893239	15.610980	-3.067260	3.570840	-0.726988	0.020996	0.673948	-1.000000	-1.000000	-1.000000	-1.000000	-1.000000	-1.000000	-1.000000	59.000000	0.000000	-1.000000	-1.000000	1777214.000000	1776579956.490406
8988.300000	4356.945000	32486.445000	51341.355000	34362.090000	20024.460000	-9746.685000	826.335000	3.721499	1.288529	-0.922132	-5.668994	-6.202099	-6.182269	0.934997	6.396821	15.610980	-3.067260	3.570840	-0.726988	0.020996	0.673948	-1.000000	-1.000000	-1.000000	-1.000000	-1.000000	-1.000000	-1.000000	59.000000	0.000000	-1.000000	-1.000000	1777215.000000	1776579956.494366
8986.410000	4356.585000	32492.790000	51351.525000	34366.860000	20005.560000	-9750.870000	821.295000	-0.731053	-3.179260	-5.520694	-9.589413	-10.873930	-9.967487	-2.607372	0.555467	15.610980	-3.067260	3.570840	-0.726988	0.020996	0.673948	-1.000000	-1.000000	-1.000000	-1.000000	-1.000000	-1.000000	-1.000000	59.000000	0.000000	-1.000000	-1.000000	1777216.000000	1776579956.494378
8985.240000	4356.540000	32493.420000	51349.320000	34362.900000	20000.745000	-9753.930000	820.395000	-5.628539	-6.163374	-7.196801	-9.186462	-11.019835	-11.336134	-5.376352	-6.297020	15.610980	-3.067260	3.570840	-0.726988	0.020996	0.673948	-1.000000	-1.000000	-1.000000	-1.000000	-1.000000	-1.000000	-1.000000	59.000000	0.000000	-1.000000	-1.000000	1777217.000000	1776579956.498772
8991.000000	4366.755000	32505.030000	51359.580000	34368.165000	20000.430000	-9754.965000	822.465000	-8.222477	-5.764111	-4.103749	-3.592412	-6.182867	-9.864599	-6.392586	-10.705838	15.610980	-3.067260	3.570840	-0.726988	0.020996	0.673948	-1.000000	-1.000000	-1.000000	-1.000000	-1.000000	-1.000000	-1.000000	59.000000	0.000000	-1.000000	-1.000000	1777218.000000	1776579956.498782
8987.580000	4365.675000	32502.690000	51356.655000	34369.605000	20012.670000	-9755.595000	819.450000	-6.995967	-1.968519	2.177170	4.358883	1.252331	-4.733552	-5.144487	-10.422827	15.610980	-3.067260	3.570840	-0.726988	0.020996	0.673948	-1.000000	-1.000000	-1.000000	-1.000000	-1.000000	-1.000000	-1.000000	59.000000	0.000000	-1.000000	-1.000000	1777219.000000	1776579956.502366
8986.770000	4364.595000	32503.095000	51358.905000	34374.555000	20028.060000	-9753.570000	819.540000	-2.989605	2.888481	7.744812	10.315042	7.852035	3.561854	-2.043285	-6.068660	15.610980	-3.067260	3.570840	-0.726988	0.020996	0.673948	-1.000000	-1.000000	-1.000000	-1.000000	-1.000000	-1.000000	-1.000000	59.000000	0.000000	-1.000000	-1.000000	1777220.000000	1776579956.502376
8995.635000	4371.615000	32513.445000	51369.480000	34380.765000	20029.635000	-9743.805000	829.170000	1.458628	5.896136	9.483410	11.593018	11.109289	12.138826	1.867784	-0.050841	11.353440	-1.785420	2.456860	-0.731382	0.026245	0.670958	-1.000000	-1.000000	-1.000000	-1.000000	-1.000000	-1.000000	-1.000000	59.000000	0.000000	-1.000000	-1.000000	1777221.000000	1776579956.506357
8993.430000	4370.985000	32511.735000	51370.470000	34385.040000	20042.190000	-9740.025000	827.100000	4.699121	5.937702	7.250541	8.666012	10.397454	16.792416	5.436683	5.309222	11.353440	-1.785420	2.456860	-0.731382	0.026245	0.670958	-1.000000	-1.000000	-1.000000	-1.000000	-1.000000	-1.000000	-1.000000	59.000000	0.000000	-1.000000	-1.000000	1777222.000000	1776579956.506371
8984.070000	4361.040000	32500.485000	51360.570000	34383.780000	20050.695000	-9738.315000	821.430000	5.709924	3.496881	2.553640	3.396443	6.553132	15.153188	7.380036	8.076625	11.353440	-1.785420	2.456860	-0.731382	0.026245	0.670958	-1.000000	-1.000000	-1.000000	-1.000000	-1.000000	-1.000000	-1.000000	59.000000	0.000000	-1.000000	-1.000000	1777223.000000	1776579956.510427
8985.105000	4359.870000	32497.830000	51355.935000	34373.295000	20032.020000	-9742.365000	823.860000	3.972317	-0.482350	-3.137320	-2.766016	0.847489	7.894989	6.531988	7.179374	11.353440	-1.785420	2.456860	-0.731382	0.026245	0.670958	-1.000000	-1.000000	-1.000000	-1.000000	-1.000000	-1.000000	-1.000000	59.000000	0.000000	-1.000000	-1.000000	1777224.000000	1776579956.510438
8989.605000	4366.080000	32506.020000	51365.610000	34380.045000	20026.530000	-9745.290000	824.490000	0.695395	-4.205186	-7.690158	-7.925547	-5.095625	-2.746022	2.804994	3.619365	11.353440	-1.785420	2.456860	-0.731382	0.026245	0.670958	-1.000000	-1.000000	-1.000000	-1.000000	-1.000000	-1.000000	-1.000000	59.000000	0.000000	-1.000000	-1.000000	1777225.000000	1776579956.514412
8990.730000	4372.650000	32513.040000	51371.505000	34386.165000	20030.400000	-9746.055000	823.185000	-1.720560	-5.350154	-8.503767	-9.484428	-8.818174	-12.950046	-2.253895	-0.268224	11.353440	-1.785420	2.456860	-0.731382	0.026245	0.670958	-1.000000	-1.000000	-1.000000	-1.000000	-1.000000	-1.000000	-1.000000	59.000000	0.000000	-1.000000	-1.000000	1777226.000000	1776579956.514424
8988.480000	4372.560000	32511.825000	51368.310000	34382.205000	20030.310000	-9748.170000	821.700000	-2.091161	-3.204061	-5.022922	-6.626312	-8.512004	-17.884964	-6.213592	-2.816173	11.353440	-1.785420	2.456860	-0.731382	0.026245	0.670958	-1.000000	-1.000000	-1.000000	-1.000000	-1.000000	-1.000000	-1.000000	59.000000	0.000000	-1.000000	-1.000000	1777227.000000	1776579956.518447
8983.890000	4363.605000	32502.780000	51362.550000	34380.225000	20030.085000	-9748.575000	818.100000	-1.248279	0.242778	0.047852	-1.780669	-5.105068	-15.296981	-7.344822	-3.690539	11.353440	-1.785420	2.456860	-0.731382	0.026245	0.670958	-1.000000	-1.000000	-1.000000	-1.000000	-1.000000	-1.000000	-1.000000	59.000000	0.000000	-1.000000	-1.000000	1777228.000000	1776579956.518456
8992.665000	4370.940000	32508.585000	51366.330000	34382.475000	20035.485000	-9743.805000	824.175000	-0.407626	2.276295	3.246249	1.803668	-1.128621	-7.207292	-5.439001	-3.200917	11.353440	-1.785420	2.456860	-0.731382	0.026245	0.670958	-1.000000	-1.000000	-1.000000	-1.000000	-1.000000	-1.000000	-1.000000	59.000000	0.000000	-1.000000	-1.000000	1777229.000000	1776579956.522455
8998.245000	4373.370000	32509.305000	51365.340000	34380.585000	20036.025000	-9743.580000	828.225000	0.373163	2.274615	3.613075	3.006644	1.727618	2.185396	-1.543962	-1.570715	11.353440	-1.785420	2.456860	-0.731382	0.026245	0.670958	-1.000000	-1.000000	-1.000000	-1.000000	-1.000000	-1.000000	-1.000000	59.000000	0.000000	-1.000000	-1.000000	1777230.000000	1776579956.522467
8992.170000	4366.845000	32502.195000	51358.050000	34374.285000	20033.595000	-9748.125000	823.635000	1.310586	1.316642	2.342123	2.502396	2.921355	8.941144	2.406891	0.659154	8.896580	1.037680	2.197440	-0.734861	0.031921	0.665770	-1.000000	-1.000000	-1.000000	-1.000000	-1.000000	-1.000000	-1.000000	59.000000	0.000000	-1.000000	-1.000000	1777231.000000	1776579956.526568
8993.070000	4369.275000	32505.120000	51361.065000	34376.625000	20039.265000	-9746.955000	826.245000	1.638798	0.118223	0.599684	1.181802	2.557936	10.973656	4.486381	2.238250	8.896580	1.037680	2.197440	-0.734861	0.031921	0.665770	-1.000000	-1.000000	-1.000000	-1.000000	-1.000000	-1.000000	-1.000000	59.000000	0.000000	-1.000000	-1.000000	1777232.000000	1776579956.526587
9000.360000	4378.500000	32515.470000	51373.260000	34386.705000	20044.530000	-9738.495000	833.085000	0.855454	-0.776815	-0.574765	0.225513	1.681782	8.907306	4.323837	2.455728	8.896580	1.037680	2.197440	-0.734861	0.031921	0.665770	-1.000000	-1.000000	-1.000000	-1.000000	-1.000000	-1.000000	-1.000000	59.000000	0.000000	-1.000000	-1.000000	1777233.000000	1776579956.530578
8999.055000	4376.970000	32512.770000	51369.885000	34377.570000	20007.360000	-9747.405000	828.180000	-0.251236	-0.629042	-0.291408	0.704286	1.471508	4.306533	2.968759	1.745667	8.896580	1.037680	2.197440	-0.734861	0.031921	0.665770	-1.000000	-1.000000	-1.000000	-1.000000	-1.000000	-1.000000	-1.000000	59.000000	0.000000	-1.000000	-1.000000	1777234.000000	1776579956.530595
8994.420000	4372.245000	32507.595000	51365.835000	34381.395000	20020.005000	-9742.095000	825.345000	-1.015766	0.212510	0.800106	1.910449	1.664978	-1.865862	1.220276	0.487199	8.896580	1.037680	2.197440	-0.734861	0.031921	0.665770	-1.000000	-1.000000	-1.000000	-1.000000	-1.000000	-1.000000	-1.000000	59.000000	0.000000	-1.000000	-1.000000	1777235.000000	1776579956.534595
8988.705000	4369.005000	32505.570000	51364.890000	34380.135000	20029.635000	-9750.555000	820.305000	-1.743415	0.394887	0.999701	1.997582	1.345045	-6.910158	-0.623259	-1.274128	8.896580	1.037680	2.197440	-0.734861	0.031921	0.665770	-1.000000	-1.000000	-1.000000	-1.000000	-1.000000	-1.000000	-1.000000	59.000000	0.000000	-1.000000	-1.000000	1777236.000000	1776579956.534608
8981.190000	4365.270000	32501.790000	51362.145000	34374.195000	20014.425000	-9763.560000	812.790000	-2.745342	-0.644887	-0.266674	0.400665	0.316413	-7.371965	-2.456444	-3.120177	8.896580	1.037680	2.197440	-0.734861	0.031921	0.665770	-1.000000	-1.000000	-1.000000	-1.000000	-1.000000	-1.000000	-1.000000	59.000000	0.000000	-1.000000	-1.000000	1777237.000000	1776579956.538454
8979.660000	4367.835000	32500.845000	51365.205000	34377.300000	20009.655000	-9758.790000	814.455000	-3.564455	-2.010517	-1.997316	-1.709034	-1.056543	-3.876261	-4.079002	-4.192026	8.896580	1.037680	2.197440	-0.734861	0.031921	0.665770	-1.000000	-1.000000	-1.000000	-1.000000	-1.000000	-1.000000	-1.000000	59.000000	0.000000	-1.000000	-1.000000	1777238.000000	1776579956.538466
8988.570000	4370.445000	32502.015000	51367.275000	34377.255000	20004.255000	-9754.155000	822.060000	-3.060375	-2.277733	-2.796365	-2.743557	-2.005639	0.025612	-4.289891	-3.427450	8.896580	1.037680	2.197440	-0.734861	0.031921	0.665770	-1.000000	-1.000000	-1.000000	-1.000000	-1.000000	-1.000000	-1.000000	59.000000	0.000000	-1.000000	-1.000000	1777239.000000	1776579956.542526
8996.895000	4371.795000	32501.385000	51357.060000	34364.205000	20007.990000	-9756.315000	822.555000	-0.285547	-0.848255	-1.969937	-2.222462	-2.083671	2.372707	-2.012005	-0.437278	8.896580	1.037680	2.197440	-0.734861	0.031921	0.665770	-1.000000	-1.000000	-1.000000	-1.000000	-1.000000	-1.000000	-1.000000	59.000000	0.000000	-1.000000	-1.000000	1777240.000000	1776579956.542535
9001.575000	4384.305000	32517.360000	51366.510000	34377.030000	20032.695000	-9748.215000	825.390000	4.092341	1.661029	0.292887	-0.980008	-1.608814	3.911613	1.835794	3.446806	7.172200	2.762060	1.785420	-0.737059	0.036194	0.660338	-1.000000	-1.000000	-1.000000	-1.000000	-1.000000	-1.000000	-1.000000	59.000000	0.000000	-1.000000	-1.000000	1777241.000000	1776579956.546437
8998.515000	4381.335000	32513.760000	51364.260000	34380.540000	20048.355000	-9745.965000	822.735000	7.533075	4.041006	3.202281	0.312768	-0.448104	6.307117	5.216079	5.915468	7.172200	2.762060	1.785420	-0.737059	0.036194	0.660338	-1.000000	-1.000000	-1.000000	-1.000000	-1.000000	-1.000000	-1.000000	59.000000	0.000000	-1.000000	-1.000000	1777242.000000	1776579956.546445
8995.365000	4377.645000	32512.185000	51368.355000	34387.155000	20052.585000	-9741.825000	824.445000	7.447119	4.766102	5.095876	1.518918	1.713954	9.140933	6.592871	5.558380	7.172200	2.762060	1.785420	-0.737059	0.036194	0.660338	-1.000000	-1.000000	-1.000000	-1.000000	-1.000000	-1.000000	-1.000000	59.000000	0.000000	-1.000000	-1.000000	1777243.000000	1776579956.550463
8989.155000	4369.680000	32503.635000	51362.910000	34381.665000	20033.460000	-9748.080000	819.945000	3.380920	2.709131	4.168848	2.215906	3.822583	9.024990	5.304234	2.730581	7.172200	2.762060	1.785420	-0.737059	0.036194	0.660338	-1.000000	-1.000000	-1.000000	-1.000000	-1.000000	-1.000000	-1.000000	59.000000	0.000000	-1.000000	-1.000000	1777244.000000	1776579956.550471
8985.600000	4376.115000	32513.445000	51372.405000	34387.965000	20035.170000	-9746.865000	818.730000	-2.594465	-1.323446	0.618306	2.015617	4.165972	3.215269	1.689742	-1.038130	7.172200	2.762060	1.785420	-0.737059	0.036194	0.660338	-1.000000	-1.000000	-1.000000	-1.000000	-1.000000	-1.000000	-1.000000	59.000000	0.000000	-1.000000	-1.000000	1777245.000000	1776579956.554482
8977.680000	4375.755000	32519.025000	51380.775000	34396.830000	20042.235000	-9744.255000	815.130000	-7.449072	-4.670832	-2.909436	1.427790	2.528735	-6.042126	-2.631896	-4.079181	7.172200	2.762060	1.785420	-0.737059	0.036194	0.660338	-1.000000	-1.000000	-1.000000	-1.000000	-1.000000	-1.000000	-1.000000	59.000000	0.000000	-1.000000	-1.000000	1777246.000000	1776579956.554494
8979.210000	4375.935000	32516.055000	51370.515000	34386.120000	20050.560000	-9741.240000	817.065000	-9.019733	-5.236679	-3.994940	1.033780	0.108555	-12.721197	-5.424232	-5.236040	7.172200	2.762060	1.785420	-0.737059	0.036194	0.660338	-1.000000	-1.000000	-1.000000	-1.000000	-1.000000	-1.000000	-1.000000	59.000000	0.000000	-1.000000	-1.000000	1777247.000000	1776579956.558309
8992.575000	4384.710000	32516.820000	51367.860000	34377.255000	20038.635000	-9740.520000	824.535000	-6.521457	-3.065415	-2.844345	0.160049	-2.539327	-13.059835	-5.496947	-4.045655	7.172200	2.762060	1.785420	-0.737059	0.036194	0.660338	-1.000000	-1.000000	-1.000000	-1.000000	-1.000000	-1.000000	-1.000000	59.000000	0.000000	-1.000000	-1.000000	1777248.000000	1776579956.558324
8996.310000	4378.995000	32510.070000	51364.125000	34369.875000	20010.105000	-9752.805000	822.960000	-0.647808	0.323845	-1.294538	-1.836863	-5.385876	-9.054475	-3.687423	-0.978653	7.172200	2.762060	1.785420	-0.737059	0.036194	0.660338	-1.000000	-1.000000	-1.000000	-1.000000	-1.000000	-1.000000	-1.000000	59.000000	0.000000	-1.000000	-1.000000	1777249.000000	1776579956.562544
9003.690000	4385.655000	32513.670000	51369.435000	34380.090000	20007.585000	-9752.895000	825.795000	5.989476	2.998858	-0.585351	-3.883655	-7.132794	-5.182520	-1.915115	2.347782	7.172200	2.762060	1.785420	-0.737059	0.036194	0.660338	-1.000000	-1.000000	-1.000000	-1.000000	-1.000000	-1.000000	-1.000000	59.000000	0.000000	-1.000000	-1.000000	1777250.000000	1776579956.562558
9017.280000	4399.335000	32524.425000	51378.165000	34387.335000	20022.480000	-9746.730000	836.100000	10.181766	4.041187	-0.318642	-4.035663	-5.643374	-2.453572	-0.896565	4.320732	2.838360	2.792580	1.510740	-0.740843	0.037414	0.658018	-1.000000	-1.000000	-1.000000	-1.000000	-1.000000	-1.000000	-1.000000	59.000000	0.000000	-1.000000	-1.000000	1777251.000000	1776579956.566487
9007.650000	4391.010000	32517.180000	51370.380000	34382.385000	20035.485000	-9746.370000	831.240000	10.116384	3.818528	0.510039	-1.708275	-0.753709	1.809648	0.292087	4.471752	2.838360	2.792580	1.510740	-0.740843	0.037414	0.658018	-1.000000	-1.000000	-1.000000	-1.000000	-1.000000	-1.000000	-1.000000	59.000000	0.000000	-1.000000	-1.000000	1777252.000000	1776579956.566503
9004.635000	4389.345000	32519.070000	51377.130000	34394.760000	20049.930000	-9744.030000	831.285000	5.548194	2.310523	1.580827	1.424789	4.802692	8.670492	2.135215	2.864580	2.838360	2.792580	1.510740	-0.740843	0.037414	0.658018	-1.000000	-1.000000	-1.000000	-1.000000	-1.000000	-1.000000	-1.000000	59.000000	0.000000	-1.000000	-1.000000	1777253.000000	1776579956.570596
9002.565000	4386.600000	32516.460000	51370.875000	34387.380000	20035.125000	-9747.810000	828.765000	-1.902173	-0.647624	1.775039	3.255703	7.974598	14.766311	3.720557	-0.107066	2.838360	2.792580	1.510740	-0.740843	0.037414	0.658018	-1.000000	-1.000000	-1.000000	-1.000000	-1.000000	-1.000000	-1.000000	59.000000	0.000000	-1.000000	-1.000000	1777254.000000	1776579956.570604
8989.965000	4381.695000	32513.985000	51367.860000	34386.165000	20038.050000	-9747.360000	820.440000	-8.898245	-3.972972	0.830751	2.926986	7.322206	15.139900	3.867282	-3.372429	2.838360	2.792580	1.510740	-0.740843	0.037414	0.658018	-1.000000	-1.000000	-1.000000	-1.000000	-1.000000	-1.000000	-1.000000	59.000000	0.000000	-1.000000	-1.000000	1777255.000000	1776579956.574612
8979.705000	4376.880000	32512.545000	51373.170000	34393.635000	20051.460000	-9736.110000	818.910000	-12.655452	-6.052106	-0.628176	1.019870	3.498983	8.763273	2.601171	-5.699233	2.838360	2.792580	1.510740	-0.740843	0.037414	0.658018	-1.000000	-1.000000	-1.000000	-1.000000	-1.000000	-1.000000	-1.000000	59.000000	0.000000	-1.000000	-1.000000	1777256.000000	1776579956.574620
8993.430000	4380.255000	32513.535000	51372.090000	34392.150000	20058.165000	-9729.945000	825.975000	-11.884196	-5.862738	-1.680159	-0.835245	-0.972317	-0.037778	1.283575	-5.938426	2.838360	2.792580	1.510740	-0.740843	0.037414	0.658018	-1.000000	-1.000000	-1.000000	-1.000000	-1.000000	-1.000000	-1.000000	59.000000	0.000000	-1.000000	-1.000000	1777257.000000	1776579956.578442
9004.455000	4383.360000	32510.880000	51364.125000	34383.780000	20048.355000	-9735.120000	829.935000	-6.129194	-3.182358	-1.682840	-1.577963	-3.991004	-6.618929	0.704069	-3.365769	2.838360	2.792580	1.510740	-0.740843	0.037414	0.658018	-1.000000	-1.000000	-1.000000	-1.000000	-1.000000	-1.000000	-1.000000	59.000000	0.000000	-1.000000	-1.000000	1777258.000000	1776579956.578450
9001.440000	4385.250000	32512.185000	51362.910000	34380.945000	20037.285000	-9741.555000	825.705000	2.920145	1.122165	-0.738168	-1.608273	-5.349725	-10.044016	-0.096185	1.052817	2.838360	2.792580	1.510740	-0.740843	0.037414	0.658018	-1.000000	-1.000000	-1.000000	-1.000000	-1.000000	-1.000000	-1.000000	59.000000	0.000000	-1.000000	-1.000000	1777259.000000	1776579956.582494
8996.355000	4385.700000	32515.695000	51367.815000	34381.170000	20035.890000	-9741.510000	824.130000	10.589104	5.118464	0.628682	-1.348366	-5.369446	-11.330551	-2.065201	4.693494	2.838360	2.792580	1.510740	-0.740843	0.037414	0.658018	-1.000000	-1.000000	-1.000000	-1.000000	-1.000000	-1.000000	-1.000000	59.000000	0.000000	-1.000000	-1.000000	1777260.000000	1776579956.582503
8987.580000	4388.895000	32527.170000	51385.140000	34398.630000	20044.935000	-9738.990000	822.150000	12.423736	6.958173	2.124978	-0.150164	-3.610415	-10.306373	-4.272666	5.505210	-0.549360	3.128300	1.358140	-0.744383	0.037170	0.655089	-1.000000	-1.000000	-1.000000	-1.000000	-1.000000	-1.000000	-1.000000	59.000000	0.000000	-1.000000	-1.000000	1777261.000000	1776579956.586602
8983.485000	4388.715000	32531.535000	51393.960000	34411.815000	20051.280000	-9734.490000	824.130000	7.882729	6.079768	3.601758	2.597184	0.478396	-5.965587	-4.793370	3.662147	-0.549360	3.128300	1.358140	-0.744383	0.037170	0.655089	-1.000000	-1.000000	-1.000000	-1.000000	-1.000000	-1.000000	-1.000000	59.000000	0.000000	-1.000000	-1.000000	1777262.000000	1776579956.586611
8990.235000	4389.480000	32529.015000	51386.355000	34404.345000	20057.580000	-9734.355000	826.155000	0.557505	3.221267	4.287580	5.509587	5.524091	0.990983	-2.872103	0.949455	-0.549360	3.128300	1.358140	-0.744383	0.037170	0.655089	-1.000000	-1.000000	-1.000000	-1.000000	-1.000000	-1.000000	-1.000000	59.000000	0.000000	-1.000000	-1.000000	1777263.000000	1776579956.590608
9006.660000	4395.150000	32522.310000	51373.845000	34388.820000	20046.060000	-9738.630000	830.475000	-4.458269	-0.169671	2.909410	5.458458	7.728151	7.360000	0.231749	-0.865034	-0.549360	3.128300	1.358140	-0.744383	0.037170	0.655089	-1.000000	-1.000000	-1.000000	-1.000000	-1.000000	-1.000000	-1.000000	59.000000	0.000000	-1.000000	-1.000000	1777264.000000	1776579956.590616
9015.390000	4392.450000	32512.860000	51362.145000	34375.545000	20032.065000	-9742.140000	834.435000	-4.206844	-2.668199	-0.888925	0.810532	4.239794	9.320097	2.388736	-1.107105	-0.549360	3.128300	1.358140	-0.744383	0.037170	0.655089	-1.000000	-1.000000	-1.000000	-1.000000	-1.000000	-1.000000	-1.000000	59.000000	0.000000	-1.000000	-1.000000	1777265.000000	1776579956.599423
9000.180000	4387.680000	32517.135000	51367.635000	34380.810000	20031.570000	-9742.095000	828.090000	-0.418505	-3.840979	-5.464584	-6.024938	-3.087759	5.723435	2.532699	-0.428506	-0.549360	3.128300	1.358140	-0.744383	0.037170	0.655089	-1.000000	-1.000000	-1.000000	-1.000000	-1.000000	-1.000000	-1.000000	59.000000	0.000000	-1.000000	-1.000000	1777266.000000	1776579956.599440
9003.915000	4392.135000	32522.580000	51376.095000	34388.820000	20034.810000	-9738.540000	831.330000	2.201517	-4.066361	-7.796091	-10.003478	-8.597570	-0.282267	1.422084	-0.118775	-0.549360	3.128300	1.358140	-0.744383	0.037170	0.655089	-1.000000	-1.000000	-1.000000	-1.000000	-1.000000	-1.000000	-1.000000	59.000000	0.000000	-1.000000	-1.000000	1777267.000000	1776579956.601923
9012.240000	4402.305000	32532.300000	51387.615000	34395.885000	20043.720000	-9733.365000	839.430000	1.327462	-3.237455	-5.815242	-7.729712	-7.914255	-3.914406	0.618096	-0.518841	-0.549360	3.128300	1.358140	-0.744383	0.037170	0.655089	-1.000000	-1.000000	-1.000000	-1.000000	-1.000000	-1.000000	-1.000000	59.000000	0.000000	-1.000000	-1.000000	1777268.000000	1776579956.601945
9014.805000	4408.335000	32539.680000	51395.400000	34401.060000	20041.290000	-9732.510000	840.195000	-1.150747	-0.924870	-0.310420	-0.373641	-1.692443	-3.029248	0.899922	-0.755975	-0.549360	3.128300	1.358140	-0.744383	0.037170	0.655089	-1.000000	-1.000000	-1.000000	-1.000000	-1.000000	-1.000000	-1.000000	59.000000	0.000000	-1.000000	-1.000000	1777269.000000	1776579956.602604
9014.805000	4402.035000	32530.095000	51379.785000	34390.800000	20037.735000	-9735.615000	834.120000	-2.728369	1.994583	5.337096	7.082754	5.351767	0.467523	1.590696	-0.533093	-0.549360	3.128300	1.358140	-0.744383	0.037170	0.655089	-1.000000	-1.000000	-1.000000	-1.000000	-1.000000	-1.000000	-1.000000	59.000000	0.000000	-1.000000	-1.000000	1777270.000000	1776579956.602613
9008.235000	4397.760000	32520.780000	51365.115000	34384.545000	20044.710000	-9739.755000	827.325000	-2.989812	3.315022	7.220159	9.197817	8.254018	3.225218	1.380859	-0.750451	-3.097780	3.280900	-0.274680	-0.747679	0.037414	0.650511	-1.000000	-1.000000	-1.000000	-1.000000	-1.000000	-1.000000	-1.000000	59.000000	0.000000	-1.000000	-1.000000	1777271.000000	1776579956.606539
9011.970000	4406.985000	32537.970000	51391.530000	34410.645000	20055.060000	-9742.185000	828.270000	-2.727997	2.028526	4.368641	4.992509	6.026954	3.912521	-0.205948	-1.865865	-3.097780	3.280900	-0.274680	-0.747679	0.037414	0.650511	-1.000000	-1.000000	-1.000000	-1.000000	-1.000000	-1.000000	-1.000000	59.000000	0.000000	-1.000000	-1.000000	1777272.000000	1776579956.606550
9009.180000	4403.430000	32540.400000	51397.065000	34414.605000	20053.170000	-9740.790000	828.135000	-2.254861	-0.362432	0.028523	-0.577924	2.293461	3.227589	-2.230656	-2.852823	-3.097780	3.280900	-0.274680	-0.747679	0.037414	0.650511	-1.000000	-1.000000	-1.000000	-1.000000	-1.000000	-1.000000	-1.000000	59.000000	0.000000	-1.000000	-1.000000	1777273.000000	1776579956.610562
9006.570000	4393.845000	32524.695000	51375.960000	34390.035000	20041.380000	-9737.100000	830.880000	-1.413835	-2.148980	-2.574871	-3.058022	-0.178317	1.463212	-3.126730	-2.358917	-3.097780	3.280900	-0.274680	-0.747679	0.037414	0.650511	-1.000000	-1.000000	-1.000000	-1.000000	-1.000000	-1.000000	-1.000000	59.000000	0.000000	-1.000000	-1.000000	1777274.000000	1776579956.610573
9006.885000	4389.210000	32514.660000	51364.350000	34377.210000	20042.055000	-9729.360000	836.730000	-0.306881	-3.179242	-3.774862	-3.565522	-2.813776	-1.655613	-1.973062	-0.132430	-3.097780	3.280900	-0.274680	-0.747679	0.037414	0.650511	-1.000000	-1.000000	-1.000000	-1.000000	-1.000000	-1.000000	-1.000000	59.000000	0.000000	-1.000000	-1.000000	1777275.000000	1776579956.614491
9011.160000	4393.125000	32520.060000	51373.980000	34390.440000	20043.495000	-9728.595000	838.935000	0.935997	-3.473392	-4.737438	-4.414284	-6.491402	-5.003517	0.725464	2.855801	-3.097780	3.280900	-0.274680	-0.747679	0.037414	0.650511	-1.000000	-1.000000	-1.000000	-1.000000	-1.000000	-1.000000	-1.000000	59.000000	0.000000	-1.000000	-1.000000	1777276.000000	1776579956.614502
9017.550000	4398.075000	32521.005000	51370.110000	34389.450000	20047.770000	-9732.375000	839.655000	2.391575	-2.256338	-4.535269	-4.647018	-8.260534	-6.285459	3.131557	4.996623	-3.097780	3.280900	-0.274680	-0.747679	0.037414	0.650511	-1.000000	-1.000000	-1.000000	-1.000000	-1.000000	-1.000000	-1.000000	59.000000	0.000000	-1.000000	-1.000000	1777277.000000	1776579956.618566
9021.960000	4404.060000	32523.795000	51375.780000	34391.745000	20045.745000	-9735.615000	838.080000	3.891308	0.787726	-1.974933	-2.562623	-5.596317	-4.484932	3.357765	4.964113	-3.097780	3.280900	-0.274680	-0.747679	0.037414	0.650511	-1.000000	-1.000000	-1.000000	-1.000000	-1.000000	-1.000000	-1.000000	59.000000	0.000000	-1.000000	-1.000000	1777278.000000	1776579956.618594
9021.870000	4405.950000	32525.775000	51387.840000	34403.085000	20047.545000	-9733.455000	838.890000	4.663722	4.433910	2.138949	1.554292	0.284081	-0.856488	1.223305	2.663897	-3.097780	3.280900	-0.274680	-0.747679	0.037414	0.650511	-1.000000	-1.000000	-1.000000	-1.000000	-1.000000	-1.000000	-1.000000	59.000000	0.000000	-1.000000	-1.000000	1777279.000000	1776579956.622686
9024.390000	4408.650000	32529.555000	51387.705000	34403.670000	20054.745000	-9726.795000	843.435000	3.833461	6.612366	5.702447	5.956369	6.238557	2.583735	-1.440673	-0.572144	-3.097780	3.280900	-0.274680	-0.747679	0.037414	0.650511	-1.000000	-1.000000	-1.000000	-1.000000	-1.000000	-1.000000	-1.000000	59.000000	0.000000	-1.000000	-1.000000	1777280.000000	1776579956.622696
9021.510000	4405.995000	32533.110000	51377.760000	34393.275000	20055.915000	-9728.055000	841.725000	1.346710	5.944510	7.073313	8.079888	9.138152	4.653046	-2.593490	-2.974021	-0.869820	1.678600	-0.442540	-0.750547	0.035400	0.647642	-1.000000	-1.000000	-1.000000	-1.000000	-1.000000	-1.000000	-1.000000	59.000000	0.000000	-1.000000	-1.000000	1777281.000000	1776579956.626572
9018.090000	4405.950000	32539.320000	51378.435000	34392.555000	20051.685000	-9730.080000	838.035000	-1.933407	2.626341	5.965183	6.016313	7.192564	4.832344	-1.966542	-3.801648	-0.869820	1.678600	-0.442540	-0.750547	0.035400	0.647642	-1.000000	-1.000000	-1.000000	-1.000000	-1.000000	-1.000000	-1.000000	59.000000	0.000000	-1.000000	-1.000000	1777282.000000	1776579956.626587
9019.170000	4407.525000	32538.600000	51383.295000	34399.035000	20054.430000	-9725.670000	839.835000	-4.722745	-1.690645	3.166219	0.877280	1.795145	3.010567	-0.717979	-3.466333	-0.869820	1.678600	-0.442540	-0.750547	0.035400	0.647642	-1.000000	-1.000000	-1.000000	-1.000000	-1.000000	-1.000000	-1.000000	59.000000	0.000000	-1.000000	-1.000000	1777283.000000	1776579956.630583
9013.995000	4404.420000	32535.675000	51383.745000	34396.785000	20034.945000	-9735.795000	833.400000	-5.849666	-4.938024	-0.371894	-3.872452	-3.309042	-0.250414	0.102072	-2.547371	-0.869820	1.678600	-0.442540	-0.750547	0.035400	0.647642	-1.000000	-1.000000	-1.000000	-1.000000	-1.000000	-1.000000	-1.000000	59.000000	0.000000	-1.000000	-1.000000	1777284.000000	1776579956.630598
9019.350000	4409.010000	32538.645000	51388.380000	34396.560000	20021.760000	-9738.270000	837.270000	-4.861768	-5.895025	-3.771170	-5.674642	-5.523680	-4.184092	-0.059394	-1.386841	-0.869820	1.678600	-0.442540	-0.750547	0.035400	0.647642	-1.000000	-1.000000	-1.000000	-1.000000	-1.000000	-1.000000	-1.000000	59.000000	0.000000	-1.000000	-1.000000	1777285.000000	1776579956.634551
9024.570000	4413.780000	32542.830000	51396.525000	34405.695000	20030.085000	-9732.915000	842.400000	-2.037595	-4.436763	-5.842239	-4.299971	-4.708764	-7.333304	-0.877377	0.043247	-0.869820	1.678600	-0.442540	-0.750547	0.035400	0.647642	-1.000000	-1.000000	-1.000000	-1.000000	-1.000000	-1.000000	-1.000000	59.000000	0.000000	-1.000000	-1.000000	1777286.000000	1776579956.634563
9021.870000	4410.450000	32540.310000	51400.530000	34416.720000	20064.375000	-9722.520000	842.400000	1.636546	-1.426536	-5.705954	-1.068592	-1.752662	-6.549274	-0.882182	1.838359	-0.869820	1.678600	-0.442540	-0.750547	0.035400	0.647642	-1.000000	-1.000000	-1.000000	-1.000000	-1.000000	-1.000000	-1.000000	59.000000	0.000000	-1.000000	-1.000000	1777287.000000	1776579956.638570
9021.150000	4408.245000	32534.370000	51389.685000	34406.685000	20085.120000	-9718.650000	842.985000	4.382513	1.361300	-3.917787	1.790457	1.787468	0.429477	0.940978	3.370224	-0.869820	1.678600	-0.442540	-0.750547	0.035400	0.647642	-1.000000	-1.000000	-1.000000	-1.000000	-1.000000	-1.000000	-1.000000	59.000000	0.000000	-1.000000	-1.000000	1777288.000000	1776579956.638587
9017.820000	4406.130000	32530.410000	51390.810000	34414.200000	20081.430000	-9719.910000	841.455000	4.749762	2.413761	-1.983446	2.188114	3.646241	10.446289	3.500818	3.632007	-0.869820	1.678600	-0.442540	-0.750547	0.035400	0.647642	-1.000000	-1.000000	-1.000000	-1.000000	-1.000000	-1.000000	-1.000000	59.000000	0.000000	-1.000000	-1.000000	1777289.000000	1776579956.642526
9016.020000	4411.080000	32538.510000	51386.985000	34395.210000	20036.430000	-9732.015000	837.180000	2.814798	1.795983	-0.580120	0.072706	2.484087	15.125410	4.291315	2.248578	-0.869820	1.678600	-0.442540	-0.750547	0.035400	0.647642	-1.000000	-1.000000	-1.000000	-1.000000	-1.000000	-1.000000	-1.000000	59.000000	0.000000	-1.000000	-1.000000	1777290.000000	1776579956.642537
9020.520000	4414.905000	32546.520000	51386.310000	34395.660000	20042.460000	-9734.220000	837.405000	0.055070	0.865715	1.033153	-2.560674	-1.108369	8.527272	1.834860	-0.188818	1.113980	-0.976640	-0.747740	-0.751219	0.029602	0.652037	-1.000000	-1.000000	-1.000000	-1.000000	-1.000000	-1.000000	-1.000000	59.000000	0.000000	-1.000000	-1.000000	1777291.000000	1776579956.646426
9033.030000	4418.955000	32540.355000	51391.305000	34396.695000	20038.860000	-9728.640000	848.565000	-1.509446	0.759317	3.243117	-3.611599	-4.812784	-5.276018	-2.398248	-2.182157	1.113980	-0.976640	-0.747740	-0.751219	0.029602	0.652037	-1.000000	-1.000000	-1.000000	-1.000000	-1.000000	-1.000000	-1.000000	59.000000	0.000000	-1.000000	-1.000000	1777292.000000	1776579956.646436
9040.770000	4425.345000	32545.305000	51396.120000	34402.500000	20035.080000	-9725.625000	853.470000	-0.660933	1.461347	4.808854	-2.170427	-5.742854	-15.962462	-5.058083	-2.159795	1.113980	-0.976640	-0.747740	-0.751219	0.029602	0.652037	-1.000000	-1.000000	-1.000000	-1.000000	-1.000000	-1.000000	-1.000000	59.000000	0.000000	-1.000000	-1.000000	1777293.000000	1776579956.650891
9031.725000	4418.370000	32545.530000	51393.240000	34409.070000	20051.595000	-9723.960000	847.080000	1.543891	2.021751	4.489363	0.953972	-2.797586	-16.839029	-4.241315	-0.308442	1.113980	-0.976640	-0.747740	-0.751219	0.029602	0.652037	-1.000000	-1.000000	-1.000000	-1.000000	-1.000000	-1.000000	-1.000000	59.000000	0.000000	-1.000000	-1.000000	1777294.000000	1776579956.650937
9027.495000	4414.545000	32546.070000	51394.860000	34416.990000	20079.135000	-9718.470000	844.830000	2.300900	1.228282	2.505415	3.659900	2.449458	-7.892310	-0.909101	1.211713	1.113980	-0.976640	-0.747740	-0.751219	0.029602	0.652037	-1.000000	-1.000000	-1.000000	-1.000000	-1.000000	-1.000000	-1.000000	59.000000	0.000000	-1.000000	-1.000000	1777295.000000	1776579956.656007
9023.085000	4411.125000	32540.535000	51391.170000	34411.770000	20075.220000	-9723.465000	839.835000	0.091362	-1.181453	-0.194498	4.262165	6.905102	5.799741	2.518216	0.714256	1.113980	-0.976640	-0.747740	-0.751219	0.029602	0.652037	-1.000000	-1.000000	-1.000000	-1.000000	-1.000000	-1.000000	-1.000000	59.000000	0.000000	-1.000000	-1.000000	1777296.000000	1776579956.656019
9028.080000	4416.840000	32545.845000	51393.105000	34405.920000	20063.880000	-9725.580000	843.120000	-3.498216	-3.737179	-2.627183	2.691430	7.675851	15.887376	3.886571	-1.253312	1.113980	-0.976640	-0.747740	-0.751219	0.029602	0.652037	-1.000000	-1.000000	-1.000000	-1.000000	-1.000000	-1.000000	-1.000000	59.000000	0.000000	-1.000000	-1.000000	1777297.000000	1776579956.658460
9029.655000	4419.630000	32549.490000	51399.045000	34407.360000	20052.270000	-9722.880000	845.910000	-5.450394	-4.353644	-3.702954	0.321928	4.126384	15.794014	2.655777	-2.707859	1.113980	-0.976640	-0.747740	-0.751219	0.029602	0.652037	-1.000000	-1.000000	-1.000000	-1.000000	-1.000000	-1.000000	-1.000000	59.000000	0.000000	-1.000000	-1.000000	1777298.000000	1776579956.658466
9034.830000	4424.985000	32555.385000	51407.370000	34413.885000	20053.935000	-9718.470000	851.580000	-4.158432	-2.295565	-2.759085	-1.050063	-1.217980	6.224939	0.292077	-2.148214	1.113980	-0.976640	-0.747740	-0.751219	0.029602	0.652037	-1.000000	-1.000000	-1.000000	-1.000000	-1.000000	-1.000000	-1.000000	59.000000	0.000000	-1.000000	-1.000000	1777299.000000	1776579956.662539
9038.430000	4427.010000	32554.620000	51405.975000	34414.200000	20063.160000	-9721.845000	851.535000	-0.466653	1.193211	-0.427878	-0.739664	-4.794619	-5.487556	-1.345952	0.176395	1.113980	-0.976640	-0.747740	-0.751219	0.029602	0.652037	-1.000000	-1.000000	-1.000000	-1.000000	-1.000000	-1.000000	-1.000000	59.000000	0.000000	-1.000000	-1.000000	1777300.000000	1776579956.662551
