Channel1	Channel2	Channel3	Channel4	Channel5	Channel6	Channel7	Channel8	FilteredChannel1	FilteredChannel2	FilteredChannel3	FilteredChannel4	FilteredChannel5	FilteredChannel6	FilteredChannel7	FilteredChannel8	GyroX	GyroY	GyroZ	AccX	AccY	AccZ	PPG1	PPG2	rawPPG1	rawPPG2	rawPPG3	Hr	Hrv	Battery	Trigger	PhysicalTrigger	AutoTrigger	NumMeasurements	Timestamp
23182.830000	10892.430000	41379.660000	66200.670000	45944.010000	28213.380000	-5437.845000	23005.080000	3.342673	4.672858	4.361164	6.494733	3.741564	1.531723	-0.281938	2.336320	-4.318580	2.472120	-3.280900	-0.791319	0.084778	0.595091	-1.000000	-1.000000	-1.000000	-1.000000	-1.000000	-1.000000	-1.000000	60.000000	0.000000	-1.000000	-1.000000	1545750.000000	1776579492.954134
23179.995000	10891.035000	41384.745000	66200.310000	45944.460000	28246.770000	-5426.955000	23003.550000	1.011248	3.262522	4.243844	4.932102	3.762990	0.850293	-0.203869	-0.196810	-4.318580	2.472120	-3.280900	-0.791319	0.084778	0.595091	-1.000000	-1.000000	-1.000000	-1.000000	-1.000000	-1.000000	-1.000000	60.000000	0.000000	-1.000000	-1.000000	1545751.000000	1776579492.954144
23182.560000	10892.880000	41383.305000	66198.330000	45943.335000	28251.450000	-5433.480000	23004.495000	-2.861364	-0.757558	1.663205	0.709545	2.257413	3.290979	1.229635	-3.279285	-4.318580	2.472120	-3.280900	-0.791319	0.084778	0.595091	-1.000000	-1.000000	-1.000000	-1.000000	-1.000000	-1.000000	-1.000000	60.000000	0.000000	-1.000000	-1.000000	1545752.000000	1776579492.958091
23188.815000	10899.495000	41383.980000	66200.310000	45946.440000	28251.360000	-5439.465000	23009.715000	-5.029171	-4.017529	-1.168016	-3.508157	0.142122	8.344565	3.295210	-4.423530	-4.318580	2.472120	-3.280900	-0.791319	0.084778	0.595091	-1.000000	-1.000000	-1.000000	-1.000000	-1.000000	-1.000000	-1.000000	60.000000	0.000000	-1.000000	-1.000000	1545753.000000	1776579492.958102
23185.620000	10894.995000	41381.550000	66199.905000	45948.465000	28246.455000	-5445.720000	23007.780000	-3.776407	-4.304903	-2.848808	-5.456181	-1.469350	10.840874	3.934032	-2.694651	-4.318580	2.472120	-3.280900	-0.791319	0.084778	0.595091	-1.000000	-1.000000	-1.000000	-1.000000	-1.000000	-1.000000	-1.000000	60.000000	0.000000	-1.000000	-1.000000	1545754.000000	1776579492.962043
23180.445000	10889.280000	41377.905000	66197.430000	45949.005000	28237.455000	-5446.170000	23004.945000	-0.433895	-2.283814	-3.174437	-4.652073	-1.932857	7.132821	2.415307	0.531318	-4.318580	2.472120	-3.280900	-0.791319	0.084778	0.595091	-1.000000	-1.000000	-1.000000	-1.000000	-1.000000	-1.000000	-1.000000	60.000000	0.000000	-1.000000	-1.000000	1545755.000000	1776579492.962059
23181.705000	10891.800000	41379.750000	66200.985000	45950.715000	28242.630000	-5443.740000	23007.285000	2.324053	-0.084394	-2.536714	-2.175027	-1.448047	-1.257463	0.128019	3.016334	-0.350980	2.960440	-1.358140	-0.789915	0.083130	0.595091	-1.000000	-1.000000	-1.000000	-1.000000	-1.000000	-1.000000	-1.000000	60.000000	0.000000	-1.000000	-1.000000	1545756.000000	1776579492.966187
23180.085000	10890.630000	41378.625000	66199.905000	45946.980000	28244.520000	-5450.580000	23005.980000	3.164400	1.196348	-1.261796	0.569513	-0.723517	-9.145993	-1.197223	3.664283	-0.350980	2.960440	-1.358140	-0.789915	0.083130	0.595091	-1.000000	-1.000000	-1.000000	-1.000000	-1.000000	-1.000000	-1.000000	60.000000	0.000000	-1.000000	-1.000000	1545757.000000	1776579492.966210
23188.545000	10898.640000	41386.680000	66206.565000	45955.080000	28248.795000	-5446.530000	23014.305000	2.654614	1.874651	0.486754	2.645169	-0.261566	-11.981155	-1.149046	2.914727	-0.350980	2.960440	-1.358140	-0.789915	0.083130	0.595091	-1.000000	-1.000000	-1.000000	-1.000000	-1.000000	-1.000000	-1.000000	60.000000	0.000000	-1.000000	-1.000000	1545758.000000	1776579492.971332
23187.240000	10897.110000	41384.610000	66202.830000	45950.445000	28243.350000	-5450.310000	23012.280000	1.983995	2.484837	2.378522	3.601350	0.007323	-9.155206	-0.313154	1.793761	-0.350980	2.960440	-1.358140	-0.789915	0.083130	0.595091	-1.000000	-1.000000	-1.000000	-1.000000	-1.000000	-1.000000	-1.000000	60.000000	0.000000	-1.000000	-1.000000	1545759.000000	1776579492.971344
23185.035000	10893.735000	41380.110000	66197.880000	45940.140000	28229.535000	-5457.645000	23009.400000	1.508757	2.774482	3.516344	3.107864	-0.035653	-3.793432	0.437334	0.716116	-0.350980	2.960440	-1.358140	-0.789915	0.083130	0.595091	-1.000000	-1.000000	-1.000000	-1.000000	-1.000000	-1.000000	-1.000000	60.000000	0.000000	-1.000000	-1.000000	1545760.000000	1776579492.974309
23192.460000	10904.085000	41386.950000	66200.670000	45937.125000	28204.560000	-5461.245000	23015.295000	0.827941	2.191282	3.065814	1.202699	-0.900059	-0.080803	0.293415	-0.478660	-0.350980	2.960440	-1.358140	-0.789915	0.083130	0.595091	-1.000000	-1.000000	-1.000000	-1.000000	-1.000000	-1.000000	-1.000000	60.000000	0.000000	-1.000000	-1.000000	1545761.000000	1776579492.974326
23197.995000	10910.475000	41395.410000	66210.750000	45941.220000	28191.195000	-5468.625000	23020.110000	0.082620	1.202228	1.633215	-0.862899	-2.076767	-0.084241	-0.758593	-1.409505	-0.350980	2.960440	-1.358140	-0.789915	0.083130	0.595091	-1.000000	-1.000000	-1.000000	-1.000000	-1.000000	-1.000000	-1.000000	60.000000	0.000000	-1.000000	-1.000000	1545762.000000	1776579492.978106
23191.245000	10903.230000	41389.380000	66208.770000	45945.585000	28218.195000	-5469.840000	23014.890000	-0.368060	0.486550	0.474896	-1.486426	-1.956761	-1.510177	-1.866135	-1.559393	-0.350980	2.960440	-1.358140	-0.789915	0.083130	0.595091	-1.000000	-1.000000	-1.000000	-1.000000	-1.000000	-1.000000	-1.000000	60.000000	0.000000	-1.000000	-1.000000	1545763.000000	1776579492.978120
23183.010000	10891.935000	41378.715000	66200.220000	45950.535000	28271.160000	-5452.515000	23011.335000	-1.114071	-0.638361	-0.565300	-0.850380	0.229242	1.247243	-1.697553	-1.414469	-0.350980	2.960440	-1.358140	-0.789915	0.083130	0.595091	-1.000000	-1.000000	-1.000000	-1.000000	-1.000000	-1.000000	-1.000000	60.000000	0.000000	-1.000000	-1.000000	1545764.000000	1776579492.982300
23175.810000	10884.330000	41372.235000	66196.125000	45947.970000	28257.660000	-5451.660000	23005.530000	-2.840944	-3.060331	-2.458354	-0.658275	3.283934	10.293883	0.707172	-1.785229	-0.350980	2.960440	-1.358140	-0.789915	0.083130	0.595091	-1.000000	-1.000000	-1.000000	-1.000000	-1.000000	-1.000000	-1.000000	60.000000	0.000000	-1.000000	-1.000000	1545765.000000	1776579492.982331
23170.725000	10881.135000	41368.590000	66193.335000	45948.555000	28259.505000	-5458.590000	23000.130000	-4.869706	-5.850977	-4.792119	-1.641166	5.014329	18.875279	4.051127	-2.630297	0.503580	2.853620	-0.381500	-0.789976	0.082336	0.594847	-1.000000	-1.000000	-1.000000	-1.000000	-1.000000	-1.000000	-1.000000	60.000000	0.000000	-1.000000	-1.000000	1545766.000000	1776579492.986270
23179.635000	10890.495000	41378.580000	66202.605000	45954.000000	28253.205000	-5459.265000	23008.185000	-5.356622	-6.575864	-5.558242	-2.555234	4.293769	18.053692	5.284238	-2.951302	0.503580	2.853620	-0.381500	-0.789976	0.082336	0.594847	-1.000000	-1.000000	-1.000000	-1.000000	-1.000000	-1.000000	-1.000000	60.000000	0.000000	-1.000000	-1.000000	1545767.000000	1776579492.986279
23183.190000	10894.230000	41382.180000	66205.170000	45953.685000	28244.250000	-5465.430000	23009.175000	-2.821987	-3.536011	-3.090749	-1.691740	1.901903	6.568651	2.987106	-1.563501	0.503580	2.853620	-0.381500	-0.789976	0.082336	0.594847	-1.000000	-1.000000	-1.000000	-1.000000	-1.000000	-1.000000	-1.000000	60.000000	0.000000	-1.000000	-1.000000	1545768.000000	1776579492.990290
23179.320000	10891.440000	41378.895000	66197.430000	45944.595000	28235.835000	-5480.955000	23000.175000	1.987254	2.135560	1.778341	0.838339	-0.903573	-9.178926	-1.619233	1.254604	0.503580	2.853620	-0.381500	-0.789976	0.082336	0.594847	-1.000000	-1.000000	-1.000000	-1.000000	-1.000000	-1.000000	-1.000000	60.000000	0.000000	-1.000000	-1.000000	1545769.000000	1776579492.990310
23177.385000	10891.215000	41381.910000	66206.070000	45950.985000	28227.060000	-5483.340000	22997.475000	6.104388	6.963249	5.994798	3.076618	-3.373629	-21.044053	-6.244062	3.444405	0.503580	2.853620	-0.381500	-0.789976	0.082336	0.594847	-1.000000	-1.000000	-1.000000	-1.000000	-1.000000	-1.000000	-1.000000	60.000000	0.000000	-1.000000	-1.000000	1545770.000000	1776579492.994074
23174.010000	10887.120000	41377.230000	66201.480000	45945.630000	28233.405000	-5475.330000	22999.725000	6.983132	8.115076	7.063831	3.633124	-4.691490	-23.747264	-8.258645	3.579929	0.503580	2.853620	-0.381500	-0.789976	0.082336	0.594847	-1.000000	-1.000000	-1.000000	-1.000000	-1.000000	-1.000000	-1.000000	60.000000	0.000000	-1.000000	-1.000000	1545771.000000	1776579492.994094
23175.180000	10884.150000	41371.290000	66188.115000	45932.040000	28239.255000	-5469.795000	23004.180000	4.576433	5.371613	4.656242	2.306654	-4.543940	-16.599159	-5.746549	2.414033	0.503580	2.853620	-0.381500	-0.789976	0.082336	0.594847	-1.000000	-1.000000	-1.000000	-1.000000	-1.000000	-1.000000	-1.000000	60.000000	0.000000	-1.000000	-1.000000	1545772.000000	1776579492.998251
23179.995000	10887.615000	41372.730000	66188.250000	45933.660000	28236.330000	-5469.840000	23009.445000	0.943640	0.765689	0.278199	-0.573994	-3.635868	-3.431189	0.370389	1.521303	0.503580	2.853620	-0.381500	-0.789976	0.082336	0.594847	-1.000000	-1.000000	-1.000000	-1.000000	-1.000000	-1.000000	-1.000000	60.000000	0.000000	-1.000000	-1.000000	1545773.000000	1776579492.998284
23186.160000	10895.445000	41380.290000	66196.935000	45941.895000	28236.105000	-5470.425000	23014.845000	-1.517788	-2.811379	-3.424213	-3.323921	-2.065357	9.191132	6.394047	1.553815	0.503580	2.853620	-0.381500	-0.789976	0.082336	0.594847	-1.000000	-1.000000	-1.000000	-1.000000	-1.000000	-1.000000	-1.000000	60.000000	0.000000	-1.000000	-1.000000	1545774.000000	1776579493.002144
23181.480000	10890.270000	41376.285000	66194.865000	45941.715000	28237.095000	-5476.680000	23009.130000	-1.928084	-3.640398	-4.363628	-3.640725	0.796674	15.893784	8.724331	1.805402	0.503580	2.853620	-0.381500	-0.789976	0.082336	0.594847	-1.000000	-1.000000	-1.000000	-1.000000	-1.000000	-1.000000	-1.000000	60.000000	0.000000	-1.000000	-1.000000	1545775.000000	1776579493.002155
23181.435000	10887.660000	41374.080000	66192.795000	45943.380000	28252.350000	-5473.080000	23008.545000	-1.354628	-2.502039	-2.848084	-1.363364	4.283629	15.637810	6.457092	0.987070	-1.861720	2.197440	-0.991900	-0.791624	0.081054	0.593748	-1.000000	-1.000000	-1.000000	-1.000000	-1.000000	-1.000000	-1.000000	60.000000	0.000000	-1.000000	-1.000000	1545776.000000	1776579493.006027
23188.635000	10894.770000	41379.705000	66196.530000	45944.685000	28253.970000	-5467.590000	23015.610000	-1.034888	-1.169128	-0.699094	1.489620	6.481677	11.057947	1.769660	-1.079637	-1.861720	2.197440	-0.991900	-0.791624	0.081054	0.593748	-1.000000	-1.000000	-1.000000	-1.000000	-1.000000	-1.000000	-1.000000	60.000000	0.000000	-1.000000	-1.000000	1545777.000000	1776579493.006036
23190.615000	10897.605000	41383.125000	66198.735000	45943.065000	28237.095000	-5469.480000	23017.320000	-0.918079	-0.198001	0.994619	3.216348	6.112437	4.797438	-2.190930	-2.944725	-1.861720	2.197440	-0.991900	-0.791624	0.081054	0.593748	-1.000000	-1.000000	-1.000000	-1.000000	-1.000000	-1.000000	-1.000000	60.000000	0.000000	-1.000000	-1.000000	1545778.000000	1776579493.010177
23187.465000	10894.770000	41380.290000	66195.855000	45940.185000	28226.250000	-5475.870000	23013.720000	-0.653869	0.579338	1.983376	3.349266	3.327430	-2.356500	-4.062712	-3.414005	-1.861720	2.197440	-0.991900	-0.791624	0.081054	0.593748	-1.000000	-1.000000	-1.000000	-1.000000	-1.000000	-1.000000	-1.000000	60.000000	0.000000	-1.000000	-1.000000	1545779.000000	1776579493.010203
23186.250000	10893.015000	41378.670000	66195.495000	45943.605000	28236.420000	-5476.230000	23013.135000	-0.602673	0.800551	1.909693	2.029591	-0.529446	-9.015163	-4.443522	-2.826894	-1.861720	2.197440	-0.991900	-0.791624	0.081054	0.593748	-1.000000	-1.000000	-1.000000	-1.000000	-1.000000	-1.000000	-1.000000	60.000000	0.000000	-1.000000	-1.000000	1545780.000000	1776579493.014435
23184.810000	10891.665000	41378.040000	66195.360000	45945.045000	28235.385000	-5479.695000	23010.525000	-1.081540	0.111725	0.667960	-0.108039	-3.541454	-11.926255	-4.058741	-2.040290	-1.861720	2.197440	-0.991900	-0.791624	0.081054	0.593748	-1.000000	-1.000000	-1.000000	-1.000000	-1.000000	-1.000000	-1.000000	60.000000	0.000000	-1.000000	-1.000000	1545781.000000	1776579493.014469
23180.130000	10887.570000	41374.485000	66192.705000	45943.335000	28232.730000	-5486.625000	23004.630000	-1.768210	-1.102415	-1.078074	-2.049318	-4.482350	-9.382630	-3.147050	-1.465593	-1.861720	2.197440	-0.991900	-0.791624	0.081054	0.593748	-1.000000	-1.000000	-1.000000	-1.000000	-1.000000	-1.000000	-1.000000	60.000000	0.000000	-1.000000	-1.000000	1545782.000000	1776579493.018280
23179.815000	10888.290000	41375.520000	66193.785000	45943.605000	28233.540000	-5488.245000	23004.765000	-2.114503	-2.048191	-2.364508	-3.014078	-3.609574	-3.406988	-1.930651	-1.083869	-1.861720	2.197440	-0.991900	-0.791624	0.081054	0.593748	-1.000000	-1.000000	-1.000000	-1.000000	-1.000000	-1.000000	-1.000000	60.000000	0.000000	-1.000000	-1.000000	1545783.000000	1776579493.018292
23182.920000	10892.430000	41379.930000	66196.260000	45945.225000	28234.980000	-5486.265000	23007.915000	-1.621067	-1.960142	-2.421422	-2.692883	-1.932310	2.556206	-0.450758	-0.442525	-1.861720	2.197440	-0.991900	-0.791624	0.081054	0.593748	-1.000000	-1.000000	-1.000000	-1.000000	-1.000000	-1.000000	-1.000000	60.000000	0.000000	-1.000000	-1.000000	1545784.000000	1776579493.022120
23180.670000	10889.415000	41376.645000	66191.760000	45937.755000	28227.285000	-5490.450000	23004.810000	-0.120583	-0.604903	-1.105066	-1.337425	-0.382294	6.063435	1.359387	0.867633	-1.861720	2.197440	-0.991900	-0.791624	0.081054	0.593748	-1.000000	-1.000000	-1.000000	-1.000000	-1.000000	-1.000000	-1.000000	60.000000	0.000000	-1.000000	-1.000000	1545785.000000	1776579493.022128
23183.685000	10892.475000	41379.480000	66197.880000	45939.420000	28217.160000	-5493.420000	23007.060000	1.799939	1.273530	0.755212	0.274357	0.383058	6.031929	2.977454	2.436761	-2.975700	2.273740	-0.808780	-0.792234	0.081665	0.593443	-1.000000	-1.000000	-1.000000	-1.000000	-1.000000	-1.000000	-1.000000	60.000000	0.000000	-1.000000	-1.000000	1545786.000000	1776579493.026190
23189.310000	10896.570000	41382.225000	66202.605000	45945.360000	28212.255000	-5491.305000	23015.520000	3.302586	2.671295	2.116407	1.612682	0.536956	2.932035	3.641342	3.572660	-2.975700	2.273740	-0.808780	-0.792234	0.081665	0.593443	-1.000000	-1.000000	-1.000000	-1.000000	-1.000000	-1.000000	-1.000000	60.000000	0.000000	-1.000000	-1.000000	1545787.000000	1776579493.026229
23192.820000	10904.445000	41389.380000	66200.310000	45946.170000	28240.425000	-5479.515000	23018.580000	4.002112	3.283458	2.681053	2.508346	0.942405	-0.522399	3.505762	4.099732	-2.975700	2.273740	-0.808780	-0.792234	0.081665	0.593443	-1.000000	-1.000000	-1.000000	-1.000000	-1.000000	-1.000000	-1.000000	60.000000	0.000000	-1.000000	-1.000000	1545788.000000	1776579493.030276
23193.945000	10912.185000	41400.855000	66213.720000	45957.510000	28246.005000	-5478.255000	23017.095000	3.725522	3.345530	2.830851	2.733982	1.970194	-0.769458	3.375565	3.810042	-2.975700	2.273740	-0.808780	-0.792234	0.081665	0.593443	-1.000000	-1.000000	-1.000000	-1.000000	-1.000000	-1.000000	-1.000000	60.000000	0.000000	-1.000000	-1.000000	1545789.000000	1776579493.030318
23196.285000	10910.835000	41397.345000	66212.415000	45952.785000	28229.085000	-5483.115000	23020.875000	2.336243	2.858078	2.757891	2.341691	3.055393	2.134866	3.088303	2.274608	-2.975700	2.273740	-0.808780	-0.792234	0.081665	0.593443	-1.000000	-1.000000	-1.000000	-1.000000	-1.000000	-1.000000	-1.000000	60.000000	0.000000	-1.000000	-1.000000	1545790.000000	1776579493.034198
23187.825000	10900.305000	41385.645000	66202.560000	45945.855000	28222.425000	-5487.300000	23015.520000	-0.038741	1.146130	1.590233	1.202904	2.913072	3.763710	1.470789	-0.340777	-2.975700	2.273740	-0.808780	-0.792234	0.081665	0.593443	-1.000000	-1.000000	-1.000000	-1.000000	-1.000000	-1.000000	-1.000000	60.000000	0.000000	-1.000000	-1.000000	1545791.000000	1776579493.034208
23186.025000	10897.605000	41383.395000	66201.660000	45946.350000	28236.870000	-5487.030000	23014.035000	-2.941434	-2.226942	-1.559870	-1.178356	0.684560	1.464850	-1.673588	-3.210181	-2.975700	2.273740	-0.808780	-0.792234	0.081665	0.593443	-1.000000	-1.000000	-1.000000	-1.000000	-1.000000	-1.000000	-1.000000	60.000000	0.000000	-1.000000	-1.000000	1545792.000000	1776579493.038273
23191.380000	10903.455000	41391.720000	66211.245000	45951.795000	28240.830000	-5485.320000	23017.635000	-5.231109	-5.854463	-5.319708	-3.926337	-2.454372	-2.200045	-4.720757	-5.205689	-2.975700	2.273740	-0.808780	-0.792234	0.081665	0.593443	-1.000000	-1.000000	-1.000000	-1.000000	-1.000000	-1.000000	-1.000000	60.000000	0.000000	-1.000000	-1.000000	1545793.000000	1776579493.038304
23186.295000	10898.235000	41387.805000	66208.500000	45954.360000	28256.085000	-5492.115000	23011.245000	-5.475368	-7.208944	-6.789176	-4.883700	-4.114278	-3.493641	-5.878434	-5.365952	-2.975700	2.273740	-0.808780	-0.792234	0.081665	0.593443	-1.000000	-1.000000	-1.000000	-1.000000	-1.000000	-1.000000	-1.000000	60.000000	0.000000	-1.000000	-1.000000	1545794.000000	1776579493.042151
23189.445000	10899.135000	41384.070000	66196.035000	45947.880000	28256.535000	-5495.400000	23013.585000	-3.474564	-5.356632	-4.946628	-3.549825	-3.363213	-1.673637	-4.938610	-3.746218	-2.975700	2.273740	-0.808780	-0.792234	0.081665	0.593443	-1.000000	-1.000000	-1.000000	-1.000000	-1.000000	-1.000000	-1.000000	60.000000	0.000000	-1.000000	-1.000000	1545795.000000	1776579493.042170
23186.970000	10898.550000	41383.620000	66195.675000	45945.855000	28233.720000	-5496.480000	23012.820000	-0.428886	-1.574056	-1.432648	-1.662172	-1.495859	0.592755	-2.849181	-1.218988	-3.204600	2.609460	-1.052940	-0.791990	0.082214	0.593382	-1.000000	-1.000000	-1.000000	-1.000000	-1.000000	-1.000000	-1.000000	60.000000	0.000000	-1.000000	-1.000000	1545796.000000	1776579493.046295
23186.610000	10900.665000	41387.445000	66201.030000	45947.745000	28214.370000	-5489.685000	23012.505000	2.195408	2.265956	1.823189	-0.313843	-0.058185	-0.404296	-0.289225	1.301122	-3.204600	2.609460	-1.052940	-0.791990	0.082214	0.593382	-1.000000	-1.000000	-1.000000	-1.000000	-1.000000	-1.000000	-1.000000	60.000000	0.000000	-1.000000	-1.000000	1545797.000000	1776579493.046310
23183.640000	10897.065000	41384.970000	66205.620000	45964.395000	28262.430000	-5476.770000	23012.505000	3.409476	4.748706	3.951120	1.164031	1.008284	-4.196850	2.693534	3.044342	-3.204600	2.609460	-1.052940	-0.791990	0.082214	0.593382	-1.000000	-1.000000	-1.000000	-1.000000	-1.000000	-1.000000	-1.000000	60.000000	0.000000	-1.000000	-1.000000	1545798.000000	1776579493.050161
23178.195000	10892.475000	41378.805000	66198.510000	45959.265000	28268.055000	-5486.220000	23005.035000	2.969001	5.086605	4.516504	3.071068	2.492649	-5.027751	5.557883	3.463420	-3.204600	2.609460	-1.052940	-0.791990	0.082214	0.593382	-1.000000	-1.000000	-1.000000	-1.000000	-1.000000	-1.000000	-1.000000	60.000000	0.000000	-1.000000	-1.000000	1545799.000000	1776579493.050172
23180.895000	10898.955000	41385.690000	66200.895000	45951.615000	28251.045000	-5489.505000	23005.260000	1.425370	3.509361	3.456191	4.249331	3.620897	-0.338192	6.422876	2.449775	-3.204600	2.609460	-1.052940	-0.791990	0.082214	0.593382	-1.000000	-1.000000	-1.000000	-1.000000	-1.000000	-1.000000	-1.000000	60.000000	0.000000	-1.000000	-1.000000	1545800.000000	1776579493.054141
23183.100000	10902.465000	41390.595000	66207.465000	45956.520000	28251.630000	-5487.075000	23008.860000	-0.002199	1.468691	1.805497	3.870247	2.750827	4.832415	4.037314	0.775107	-3.204600	2.609460	-1.052940	-0.791990	0.082214	0.593382	-1.000000	-1.000000	-1.000000	-1.000000	-1.000000	-1.000000	-1.000000	60.000000	0.000000	-1.000000	-1.000000	1545801.000000	1776579493.054150
23194.665000	10912.995000	41401.035000	66216.015000	45960.750000	28242.000000	-5486.175000	23020.020000	-0.111269	0.511742	1.012640	2.693673	0.257681	5.284226	-0.148243	-0.061781	-3.204600	2.609460	-1.052940	-0.791990	0.082214	0.593382	-1.000000	-1.000000	-1.000000	-1.000000	-1.000000	-1.000000	-1.000000	60.000000	0.000000	-1.000000	-1.000000	1545802.000000	1776579493.058157
23195.925000	10910.475000	41396.985000	66212.370000	45955.575000	28219.005000	-5494.545000	23021.865000	1.269394	0.832064	1.281579	1.656690	-1.915592	0.883261	-3.638620	0.765853	-3.204600	2.609460	-1.052940	-0.791990	0.082214	0.593382	-1.000000	-1.000000	-1.000000	-1.000000	-1.000000	-1.000000	-1.000000	60.000000	0.000000	-1.000000	-1.000000	1545803.000000	1776579493.058166
23195.250000	10906.875000	41388.300000	66198.825000	45939.510000	28205.010000	-5501.655000	23022.495000	2.811928	1.081263	1.140165	0.257971	-3.107969	-5.506384	-5.382118	2.277474	-3.204600	2.609460	-1.052940	-0.791990	0.082214	0.593382	-1.000000	-1.000000	-1.000000	-1.000000	-1.000000	-1.000000	-1.000000	60.000000	0.000000	-1.000000	-1.000000	1545804.000000	1776579493.062179
23190.570000	10905.255000	41386.365000	66196.620000	45936.405000	28213.065000	-5504.985000	23016.780000	2.640389	-0.145158	-0.839310	-2.440036	-4.038602	-9.834742	-5.562220	2.497354	-3.204600	2.609460	-1.052940	-0.791990	0.082214	0.593382	-1.000000	-1.000000	-1.000000	-1.000000	-1.000000	-1.000000	-1.000000	60.000000	0.000000	-1.000000	-1.000000	1545805.000000	1776579493.062188
23191.335000	10907.235000	41389.830000	66202.695000	45946.080000	28222.110000	-5503.545000	23015.835000	0.207334	-2.536461	-3.862877	-5.425680	-4.354624	-8.237367	-4.259554	0.457386	-3.464020	3.219860	-0.350980	-0.791380	0.081360	0.593871	-1.000000	-1.000000	-1.000000	-1.000000	-1.000000	-1.000000	-1.000000	60.000000	0.000000	-1.000000	-1.000000	1545806.000000	1776579493.066202
23197.995000	10915.200000	41398.110000	66212.685000	45956.295000	28226.205000	-5498.055000	23022.135000	-2.930623	-4.226063	-5.371637	-5.993604	-2.318878	-0.321681	-1.355500	-2.670333	-3.464020	3.219860	-0.350980	-0.791380	0.081360	0.593871	-1.000000	-1.000000	-1.000000	-1.000000	-1.000000	-1.000000	-1.000000	60.000000	0.000000	-1.000000	-1.000000	1545807.000000	1776579493.066210
23191.020000	10906.290000	41391.000000	66209.850000	45968.265000	28275.930000	-5477.715000	23021.235000	-4.628408	-3.861258	-3.917187	-2.951425	2.526997	10.338666	2.932810	-4.584776	-3.464020	3.219860	-0.350980	-0.791380	0.081360	0.593871	-1.000000	-1.000000	-1.000000	-1.000000	-1.000000	-1.000000	-1.000000	60.000000	0.000000	-1.000000	-1.000000	1545808.000000	1776579493.070108
23178.870000	10892.205000	41375.790000	66195.675000	45954.855000	28274.985000	-5481.135000	23011.605000	-4.517539	-2.356544	-1.067570	1.388398	7.592510	19.169321	7.451800	-4.329425	-3.464020	3.219860	-0.350980	-0.791380	0.081360	0.593871	-1.000000	-1.000000	-1.000000	-1.000000	-1.000000	-1.000000	-1.000000	60.000000	0.000000	-1.000000	-1.000000	1545809.000000	1776579493.070123
23183.865000	10896.480000	41376.870000	66196.350000	45948.465000	28250.820000	-5487.525000	23014.980000	-3.665783	-1.496795	0.482988	3.469211	8.783202	20.961625	9.536771	-2.883613	-3.464020	3.219860	-0.350980	-0.791380	0.081360	0.593871	-1.000000	-1.000000	-1.000000	-1.000000	-1.000000	-1.000000	-1.000000	60.000000	0.000000	-1.000000	-1.000000	1545810.000000	1776579493.074332
23184.810000	10897.650000	41376.150000	66197.745000	45952.965000	28253.835000	-5488.830000	23014.935000	-2.265017	-1.136929	0.342636	2.476732	4.634156	11.961016	6.851510	-1.189971	-3.464020	3.219860	-0.350980	-0.791380	0.081360	0.593871	-1.000000	-1.000000	-1.000000	-1.000000	-1.000000	-1.000000	-1.000000	60.000000	0.000000	-1.000000	-1.000000	1545811.000000	1776579493.074353
23188.095000	10900.485000	41379.435000	66198.870000	45952.830000	28255.725000	-5489.955000	23016.105000	0.195531	0.151444	0.277575	0.566180	-1.790940	-4.251838	0.390953	0.625771	-3.464020	3.219860	-0.350980	-0.791380	0.081360	0.593871	-1.000000	-1.000000	-1.000000	-1.000000	-1.000000	-1.000000	-1.000000	60.000000	0.000000	-1.000000	-1.000000	1545812.000000	1776579493.078337
23184.450000	10897.245000	41382.045000	66193.785000	45946.350000	28243.035000	-5497.425000	23012.010000	3.152054	2.489692	1.504126	-0.327020	-6.335094	-18.494362	-6.213030	2.256260	-3.464020	3.219860	-0.350980	-0.791380	0.081360	0.593871	-1.000000	-1.000000	-1.000000	-1.000000	-1.000000	-1.000000	-1.000000	60.000000	0.000000	-1.000000	-1.000000	1545813.000000	1776579493.078353
23186.925000	10902.150000	41389.965000	66200.760000	45948.510000	28234.935000	-5500.035000	23013.360000	5.081800	4.519348	3.640139	-0.012002	-7.323825	-24.289501	-9.882373	3.039111	-3.464020	3.219860	-0.350980	-0.791380	0.081360	0.593871	-1.000000	-1.000000	-1.000000	-1.000000	-1.000000	-1.000000	-1.000000	60.000000	0.000000	-1.000000	-1.000000	1545814.000000	1776579493.082138
23194.080000	10911.420000	41397.030000	66211.335000	45954.810000	28231.560000	-5499.495000	23018.625000	5.167845	5.242177	5.509620	1.139905	-5.175198	-20.958195	-9.490136	2.849073	-3.464020	3.219860	-0.350980	-0.791380	0.081360	0.593871	-1.000000	-1.000000	-1.000000	-1.000000	-1.000000	-1.000000	-1.000000	60.000000	0.000000	-1.000000	-1.000000	1545815.000000	1776579493.082147
23195.745000	10913.625000	41399.370000	66212.685000	45953.820000	28222.155000	-5503.635000	23019.795000	3.930794	4.762237	5.964476	2.762848	-1.144118	-11.462018	-5.657926	2.277728	-3.387720	2.777320	1.800680	-0.792906	0.079407	0.593260	-1.000000	-1.000000	-1.000000	-1.000000	-1.000000	-1.000000	-1.000000	60.000000	0.000000	-1.000000	-1.000000	1545816.000000	1776579493.086256
23192.235000	10906.695000	41391.225000	66203.775000	45945.990000	28219.410000	-5507.955000	23016.015000	2.041078	3.147752	4.115778	3.585528	2.660280	-0.186220	-0.427166	1.618515	-3.387720	2.777320	1.800680	-0.792906	0.079407	0.593260	-1.000000	-1.000000	-1.000000	-1.000000	-1.000000	-1.000000	-1.000000	60.000000	0.000000	-1.000000	-1.000000	1545817.000000	1776579493.086266
23191.605000	10904.895000	41389.380000	66203.685000	45955.620000	28242.405000	-5500.080000	23016.105000	-0.362587	0.108198	-0.132306	2.067060	4.304508	9.423489	3.992021	0.537377	-3.387720	2.777320	1.800680	-0.792906	0.079407	0.593260	-1.000000	-1.000000	-1.000000	-1.000000	-1.000000	-1.000000	-1.000000	60.000000	0.000000	-1.000000	-1.000000	1545818.000000	1776579493.090198
23179.770000	10892.790000	41377.140000	66192.345000	45947.610000	28243.125000	-5507.415000	23005.080000	-3.079295	-3.884391	-5.403869	-1.617286	3.675194	16.050958	6.500809	-1.160737	-3.387720	2.777320	1.800680	-0.792906	0.079407	0.593260	-1.000000	-1.000000	-1.000000	-1.000000	-1.000000	-1.000000	-1.000000	60.000000	0.000000	-1.000000	-1.000000	1545819.000000	1776579493.090219
23180.445000	10891.710000	41375.070000	66191.760000	45946.305000	28239.795000	-5508.720000	23005.440000	-5.444814	-7.317981	-9.403177	-5.505569	1.772120	18.520297	6.712288	-3.090315	-3.387720	2.777320	1.800680	-0.792906	0.079407	0.593260	-1.000000	-1.000000	-1.000000	-1.000000	-1.000000	-1.000000	-1.000000	60.000000	0.000000	-1.000000	-1.000000	1545820.000000	1776579493.094282
23189.355000	10902.330000	41386.680000	66202.200000	45952.830000	28240.695000	-5502.330000	23016.645000	-6.117871	-8.165534	-9.889943	-7.094103	-0.327108	15.305307	4.876439	-4.006232	-3.387720	2.777320	1.800680	-0.792906	0.079407	0.593260	-1.000000	-1.000000	-1.000000	-1.000000	-1.000000	-1.000000	-1.000000	60.000000	0.000000	-1.000000	-1.000000	1545821.000000	1776579493.094292
23187.330000	10901.205000	41386.590000	66202.380000	45954.315000	28245.465000	-5503.095000	23015.160000	-3.933205	-5.131226	-5.818310	-4.821315	-1.397267	7.267044	2.297813	-2.562144	-3.387720	2.777320	1.800680	-0.792906	0.079407	0.593260	-1.000000	-1.000000	-1.000000	-1.000000	-1.000000	-1.000000	-1.000000	60.000000	0.000000	-1.000000	-1.000000	1545822.000000	1776579493.098135
23182.740000	10897.515000	41384.835000	66201.075000	45951.705000	28235.520000	-5510.205000	23011.110000	0.146875	0.416692	1.007979	0.163582	-1.029211	-2.103963	0.049858	0.590033	-3.387720	2.777320	1.800680	-0.792906	0.079407	0.593260	-1.000000	-1.000000	-1.000000	-1.000000	-1.000000	-1.000000	-1.000000	60.000000	0.000000	-1.000000	-1.000000	1545823.000000	1776579493.098146
23187.465000	10902.105000	41389.335000	66206.385000	45957.420000	28239.570000	-5504.400000	23017.905000	3.571288	5.170438	6.787616	4.717426	-0.076033	-9.374778	-1.757052	3.153049	-3.387720	2.777320	1.800680	-0.792906	0.079407	0.593260	-1.000000	-1.000000	-1.000000	-1.000000	-1.000000	-1.000000	-1.000000	60.000000	0.000000	-1.000000	-1.000000	1545824.000000	1776579493.102255
23187.825000	10899.585000	41384.115000	66200.625000	45955.170000	28248.435000	-5501.250000	23018.985000	4.863341	6.935869	8.841862	6.488911	0.577492	-12.316664	-2.800532	3.862101	-3.387720	2.777320	1.800680	-0.792906	0.079407	0.593260	-1.000000	-1.000000	-1.000000	-1.000000	-1.000000	-1.000000	-1.000000	60.000000	0.000000	-1.000000	-1.000000	1545825.000000	1776579493.102270
23182.425000	10893.105000	41375.745000	66190.950000	45943.515000	28241.100000	-5507.325000	23015.115000	4.128531	5.551461	6.756541	4.870354	0.365507	-10.364849	-2.664124	2.928115	-2.166920	2.197440	0.900340	-0.794371	0.078064	0.592345	-1.000000	-1.000000	-1.000000	-1.000000	-1.000000	-1.000000	-1.000000	60.000000	0.000000	-1.000000	-1.000000	1545826.000000	1776579493.106494
23178.195000	10894.455000	41369.310000	66175.200000	45931.005000	28228.950000	-5508.765000	23010.390000	1.904460	2.087816	1.803003	0.503549	-1.243463	-5.719072	-1.932944	0.798918	-2.166920	2.197440	0.900340	-0.794371	0.078064	0.592345	-1.000000	-1.000000	-1.000000	-1.000000	-1.000000	-1.000000	-1.000000	60.000000	0.000000	-1.000000	-1.000000	1545827.000000	1776579493.106530
23183.370000	10900.575000	41373.270000	66177.720000	45933.930000	28229.940000	-5504.265000	23014.395000	-0.824334	-1.414992	-3.381344	-4.576162	-3.682799	-1.710417	-1.344195	-1.769623	-2.166920	2.197440	0.900340	-0.794371	0.078064	0.592345	-1.000000	-1.000000	-1.000000	-1.000000	-1.000000	-1.000000	-1.000000	60.000000	0.000000	-1.000000	-1.000000	1545828.000000	1776579493.110248
23188.275000	10901.610000	41385.735000	66200.895000	45950.040000	28229.535000	-5509.170000	23019.030000	-2.425741	-2.936786	-5.663102	-6.826172	-4.492337	0.506120	-0.816329	-3.321777	-2.166920	2.197440	0.900340	-0.794371	0.078064	0.592345	-1.000000	-1.000000	-1.000000	-1.000000	-1.000000	-1.000000	-1.000000	60.000000	0.000000	-1.000000	-1.000000	1545829.000000	1776579493.110256
23179.905000	10892.610000	41379.030000	66200.400000	45955.845000	28228.230000	-5516.595000	23012.010000	-2.082968	-2.341993	-3.733675	-3.644921	-1.475152	1.888701	-0.362193	-2.940581	-2.166920	2.197440	0.900340	-0.794371	0.078064	0.592345	-1.000000	-1.000000	-1.000000	-1.000000	-1.000000	-1.000000	-1.000000	60.000000	0.000000	-1.000000	-1.000000	1545830.000000	1776579493.114207
23183.775000	10897.740000	41381.010000	66193.245000	45945.045000	28235.835000	-5513.220000	23014.710000	-0.789814	-1.194474	0.349914	2.876227	3.932193	3.326178	-0.312526	-1.373511	-2.166920	2.197440	0.900340	-0.794371	0.078064	0.592345	-1.000000	-1.000000	-1.000000	-1.000000	-1.000000	-1.000000	-1.000000	60.000000	0.000000	-1.000000	-1.000000	1545831.000000	1776579493.114220
23187.780000	10908.045000	41394.105000	66205.170000	45956.295000	28258.695000	-5505.480000	23015.430000	0.268097	-0.308122	3.531962	7.547804	7.541605	5.243245	-0.171415	0.142374	-2.166920	2.197440	0.900340	-0.794371	0.078064	0.592345	-1.000000	-1.000000	-1.000000	-1.000000	-1.000000	-1.000000	-1.000000	60.000000	0.000000	-1.000000	-1.000000	1545832.000000	1776579493.118290
23184.495000	10905.030000	41394.645000	66212.820000	45969.885000	28268.235000	-5506.605000	23013.225000	0.879807	0.730936	4.702120	7.827085	7.330703	7.666525	0.903687	1.089648	-2.166920	2.197440	0.900340	-0.794371	0.078064	0.592345	-1.000000	-1.000000	-1.000000	-1.000000	-1.000000	-1.000000	-1.000000	60.000000	0.000000	-1.000000	-1.000000	1545833.000000	1776579493.118304
23179.185000	10896.885000	41384.835000	66203.910000	45959.535000	28246.770000	-5512.590000	23011.245000	0.870291	1.514414	3.795221	4.744493	4.523259	8.694313	2.344356	1.313177	-2.166920	2.197440	0.900340	-0.794371	0.078064	0.592345	-1.000000	-1.000000	-1.000000	-1.000000	-1.000000	-1.000000	-1.000000	60.000000	0.000000	-1.000000	-1.000000	1545834.000000	1776579493.126568
23177.475000	10892.520000	41374.845000	66186.495000	45932.670000	28210.545000	-5521.905000	23008.680000	-0.043615	0.791652	0.542896	-0.391377	-0.074105	4.603395	2.430618	0.813126	-2.166920	2.197440	0.900340	-0.794371	0.078064	0.592345	-1.000000	-1.000000	-1.000000	-1.000000	-1.000000	-1.000000	-1.000000	60.000000	0.000000	-1.000000	-1.000000	1545835.000000	1776579493.126612
23177.430000	10895.715000	41379.750000	66190.410000	45939.510000	28226.295000	-5518.575000	23008.725000	-1.353920	-1.298196	-4.063619	-6.327412	-6.176912	-5.051164	0.546388	-0.027879	0.747740	2.762060	-0.274680	-0.793943	0.077209	0.592894	-1.000000	-1.000000	-1.000000	-1.000000	-1.000000	-1.000000	-1.000000	60.000000	0.000000	-1.000000	-1.000000	1545836.000000	1776579493.126980
23182.245000	10904.175000	41386.230000	66195.945000	45947.700000	28227.825000	-5512.050000	23015.205000	-1.890868	-2.749500	-7.042319	-10.165296	-10.760650	-13.895718	-1.648192	-0.470290	0.747740	2.762060	-0.274680	-0.793943	0.077209	0.592894	-1.000000	-1.000000	-1.000000	-1.000000	-1.000000	-1.000000	-1.000000	60.000000	0.000000	-1.000000	-1.000000	1545837.000000	1776579493.126987
23188.770000	10911.240000	41389.020000	66195.945000	45946.845000	28218.330000	-5511.195000	23019.975000	-0.840396	-1.762844	-5.955807	-9.103054	-9.930113	-14.992850	-1.991380	0.147021	0.747740	2.762060	-0.274680	-0.793943	0.077209	0.592894	-1.000000	-1.000000	-1.000000	-1.000000	-1.000000	-1.000000	-1.000000	60.000000	0.000000	-1.000000	-1.000000	1545838.000000	1776579493.130128
23190.435000	10910.475000	41391.855000	66205.035000	45953.100000	28212.975000	-5515.335000	23020.020000	1.433412	1.208337	-1.490222	-3.534160	-3.773279	-8.418945	-0.411494	1.578258	0.747740	2.762060	-0.274680	-0.793943	0.077209	0.592894	-1.000000	-1.000000	-1.000000	-1.000000	-1.000000	-1.000000	-1.000000	60.000000	0.000000	-1.000000	-1.000000	1545839.000000	1776579493.130141
23185.215000	10902.420000	41386.230000	66200.670000	45951.165000	28245.465000	-5510.520000	23016.870000	3.310732	3.602772	3.229932	3.299109	3.801981	1.239640	1.337822	2.504076	0.747740	2.762060	-0.274680	-0.793943	0.077209	0.592894	-1.000000	-1.000000	-1.000000	-1.000000	-1.000000	-1.000000	-1.000000	60.000000	0.000000	-1.000000	-1.000000	1545840.000000	1776579493.135012
23187.960000	10905.480000	41388.705000	66201.795000	45957.195000	28274.535000	-5501.970000	23021.460000	3.174983	3.220663	5.334035	7.735512	8.734535	10.865072	2.139821	1.853443	0.747740	2.762060	-0.274680	-0.793943	0.077209	0.592894	-1.000000	-1.000000	-1.000000	-1.000000	-1.000000	-1.000000	-1.000000	60.000000	0.000000	-1.000000	-1.000000	1545841.000000	1776579493.135027
23193.315000	10911.645000	41395.815000	66209.715000	45963.270000	28271.205000	-5501.745000	23025.060000	1.177052	0.607940	4.389929	8.060297	9.393534	18.129056	2.200923	0.098525	0.747740	2.762060	-0.274680	-0.793943	0.077209	0.592894	-1.000000	-1.000000	-1.000000	-1.000000	-1.000000	-1.000000	-1.000000	60.000000	0.000000	-1.000000	-1.000000	1545842.000000	1776579493.138245
23193.765000	10911.330000	41396.670000	66210.030000	45958.635000	28257.930000	-5505.345000	23024.970000	-1.004785	-1.797874	2.132540	5.333935	6.578388	18.740048	1.604009	-1.436816	0.747740	2.762060	-0.274680	-0.793943	0.077209	0.592894	-1.000000	-1.000000	-1.000000	-1.000000	-1.000000	-1.000000	-1.000000	60.000000	0.000000	-1.000000	-1.000000	1545843.000000	1776579493.138253
23193.630000	10910.745000	41396.040000	66210.075000	45947.430000	28214.505000	-5515.290000	23024.970000	-2.161312	-2.552467	0.142145	1.595285	1.682923	9.232674	-0.160414	-2.113369	0.747740	2.762060	-0.274680	-0.793943	0.077209	0.592894	-1.000000	-1.000000	-1.000000	-1.000000	-1.000000	-1.000000	-1.000000	60.000000	0.000000	-1.000000	-1.000000	1545844.000000	1776579493.142186
23196.870000	10915.695000	41400.315000	66208.635000	45939.645000	28190.970000	-5523.660000	23025.600000	-2.276172	-1.949999	-1.190571	-1.828104	-4.014080	-8.236745	-3.118270	-2.128091	0.747740	2.762060	-0.274680	-0.793943	0.077209	0.592894	-1.000000	-1.000000	-1.000000	-1.000000	-1.000000	-1.000000	-1.000000	60.000000	0.000000	-1.000000	-1.000000	1545845.000000	1776579493.142195
23195.520000	10916.055000	41401.620000	66212.235000	45948.105000	28209.240000	-5523.795000	23024.340000	-1.771452	-0.753017	-1.854246	-4.159884	-8.386068	-24.521005	-5.947925	-1.807538	2.365300	2.777320	0.305200	-0.792478	0.078247	0.593260	-1.000000	-1.000000	-1.000000	-1.000000	-1.000000	-1.000000	-1.000000	60.000000	0.000000	-1.000000	-1.000000	1545846.000000	1776579493.146479
23189.085000	10905.885000	41391.990000	66213.180000	45966.915000	28235.610000	-5515.380000	23021.820000	-1.211269	0.182879	-2.060305	-4.815879	-8.534809	-28.111304	-6.396935	-1.381708	2.365300	2.777320	0.305200	-0.792478	0.078247	0.593260	-1.000000	-1.000000	-1.000000	-1.000000	-1.000000	-1.000000	-1.000000	60.000000	0.000000	-1.000000	-1.000000	1545847.000000	1776579493.146494
23183.370000	10899.855000	41385.105000	66207.375000	45973.620000	28275.075000	-5501.115000	23018.400000	-1.216013	-0.098953	-2.499030	-3.890988	-3.351432	-14.389956	-2.961801	-1.037139	2.365300	2.777320	0.305200	-0.792478	0.078247	0.593260	-1.000000	-1.000000	-1.000000	-1.000000	-1.000000	-1.000000	-1.000000	60.000000	0.000000	-1.000000	-1.000000	1545848.000000	1776579493.150400
23183.550000	10901.700000	41383.575000	66193.695000	45958.680000	28286.055000	-5498.505000	23016.960000	-1.731123	-1.476412	-3.344769	-2.573928	3.916210	9.408130	3.315868	-0.793942	2.365300	2.777320	0.305200	-0.792478	0.078247	0.593260	-1.000000	-1.000000	-1.000000	-1.000000	-1.000000	-1.000000	-1.000000	60.000000	0.000000	-1.000000	-1.000000	1545849.000000	1776579493.150426
23187.330000	10904.580000	41388.255000	66201.030000	45957.600000	28263.645000	-5505.075000	23020.605000	-1.724228	-2.298016	-3.461314	-1.901183	7.668106	28.332020	8.677726	-0.342693	2.365300	2.777320	0.305200	-0.792478	0.078247	0.593260	-1.000000	-1.000000	-1.000000	-1.000000	-1.000000	-1.000000	-1.000000	60.000000	0.000000	-1.000000	-1.000000	1545850.000000	1776579493.154401
23190.885000	10908.720000	41392.080000	66204.945000	45953.820000	28244.160000	-5512.995000	23021.955000	-0.232112	-1.112702	-1.572396	-1.148879	5.483453	29.824400	9.194040	0.707145	2.365300	2.777320	0.305200	-0.792478	0.078247	0.593260	-1.000000	-1.000000	-1.000000	-1.000000	-1.000000	-1.000000	-1.000000	60.000000	0.000000	-1.000000	-1.000000	1545851.000000	1776579493.154414
23188.005000	10906.695000	41390.325000	66202.695000	45946.620000	28222.380000	-5526.045000	23015.745000	2.319189	1.655086	1.958718	0.846636	-0.172599	13.054831	4.045709	2.048617	2.365300	2.777320	0.305200	-0.792478	0.078247	0.593260	-1.000000	-1.000000	-1.000000	-1.000000	-1.000000	-1.000000	-1.000000	60.000000	0.000000	-1.000000	-1.000000	1545852.000000	1776579493.158249
23191.155000	10912.320000	41396.130000	66205.530000	45941.760000	28201.725000	-5533.065000	23017.005000	4.304566	4.173543	5.184370	3.483516	-5.310756	-11.082452	-3.847904	2.663473	2.365300	2.777320	0.305200	-0.792478	0.078247	0.593260	-1.000000	-1.000000	-1.000000	-1.000000	-1.000000	-1.000000	-1.000000	60.000000	0.000000	-1.000000	-1.000000	1545853.000000	1776579493.158261
23194.305000	10917.270000	41400.990000	66207.510000	45938.880000	28197.720000	-5535.270000	23019.570000	4.564216	5.063374	6.477636	5.176469	-7.316177	-28.601069	-9.895762	2.143921	2.365300	2.777320	0.305200	-0.792478	0.078247	0.593260	-1.000000	-1.000000	-1.000000	-1.000000	-1.000000	-1.000000	-1.000000	60.000000	0.000000	-1.000000	-1.000000	1545854.000000	1776579493.162147
23192.325000	10914.840000	41400.360000	66208.410000	45950.445000	28222.335000	-5528.790000	23017.455000	3.205999	4.144152	5.541100	5.077575	-5.387477	-30.358573	-10.559365	1.116603	2.365300	2.777320	0.305200	-0.792478	0.078247	0.593260	-1.000000	-1.000000	-1.000000	-1.000000	-1.000000	-1.000000	-1.000000	60.000000	0.000000	-1.000000	-1.000000	1545855.000000	1776579493.162155
23191.065000	10910.880000	41398.650000	66212.370000	45968.985000	28263.735000	-5511.015000	23019.660000	0.884354	1.696210	2.794359	3.383463	-0.011430	-15.237064	-5.120537	0.213901	0.717220	2.990960	1.129240	-0.790708	0.080749	0.593443	-1.000000	-1.000000	-1.000000	-1.000000	-1.000000	-1.000000	-1.000000	60.000000	0.000000	-1.000000	-1.000000	1545856.000000	1776579493.166337
23181.255000	10898.955000	41387.895000	66205.485000	45973.665000	28286.640000	-5505.345000	23013.765000	-1.800821	-1.854322	-1.101777	0.824661	6.862212	9.500319	3.946974	-0.459082	0.717220	2.990960	1.129240	-0.790708	0.080749	0.593443	-1.000000	-1.000000	-1.000000	-1.000000	-1.000000	-1.000000	-1.000000	60.000000	0.000000	-1.000000	-1.000000	1545857.000000	1776579493.166365
23185.755000	10904.715000	41391.000000	66206.970000	45970.965000	28283.625000	-5500.800000	23020.155000	-4.121317	-5.364908	-5.013726	-1.891907	11.502462	30.568202	11.827637	-0.964453	0.717220	2.990960	1.129240	-0.790708	0.080749	0.593443	-1.000000	-1.000000	-1.000000	-1.000000	-1.000000	-1.000000	-1.000000	60.000000	0.000000	-1.000000	-1.000000	1545858.000000	1776579493.170361
23181.390000	10900.035000	41383.845000	66197.160000	45952.695000	28246.860000	-5514.885000	23014.755000	-5.016199	-6.930734	-7.287691	-4.136977	10.216867	35.191264	13.799216	-1.165204	0.717220	2.990960	1.129240	-0.790708	0.080749	0.593443	-1.000000	-1.000000	-1.000000	-1.000000	-1.000000	-1.000000	-1.000000	60.000000	0.000000	-1.000000	-1.000000	1545859.000000	1776579493.170373
23182.560000	10902.555000	41385.420000	66195.855000	45945.495000	28233.720000	-5520.060000	23014.620000	-3.878483	-5.418811	-6.789398	-5.350509	2.522937	19.645202	8.261733	-1.037454	0.717220	2.990960	1.129240	-0.790708	0.080749	0.593443	-1.000000	-1.000000	-1.000000	-1.000000	-1.000000	-1.000000	-1.000000	60.000000	0.000000	-1.000000	-1.000000	1545860.000000	1776579493.174317
23184.990000	10903.860000	41386.095000	66197.520000	45947.160000	28235.880000	-5518.620000	23018.985000	-1.220668	-1.585866	-3.750343	-5.025148	-7.441036	-6.634780	-1.703635	-0.724851	0.717220	2.990960	1.129240	-0.790708	0.080749	0.593443	-1.000000	-1.000000	-1.000000	-1.000000	-1.000000	-1.000000	-1.000000	60.000000	0.000000	-1.000000	-1.000000	1545861.000000	1776579493.174328
23192.820000	10911.150000	41392.845000	66203.730000	45953.460000	28240.740000	-5512.275000	23028.570000	1.941259	2.796472	0.651954	-2.746246	-13.392144	-27.317631	-10.042350	0.038308	0.717220	2.990960	1.129240	-0.790708	0.080749	0.593443	-1.000000	-1.000000	-1.000000	-1.000000	-1.000000	-1.000000	-1.000000	60.000000	0.000000	-1.000000	-1.000000	1545862.000000	1776579493.178224
23191.695000	10910.070000	41390.865000	66201.705000	45948.420000	28230.570000	-5517.000000	23026.410000	4.550137	6.017074	4.789766	0.998952	-11.920223	-31.741746	-12.317070	1.396648	0.717220	2.990960	1.129240	-0.790708	0.080749	0.593443	-1.000000	-1.000000	-1.000000	-1.000000	-1.000000	-1.000000	-1.000000	60.000000	0.000000	-1.000000	-1.000000	1545863.000000	1776579493.178241
23195.430000	10914.345000	41394.870000	66206.925000	45955.215000	28240.290000	-5512.365000	23030.595000	5.512468	6.871670	6.998005	4.508211	-4.843466	-20.998986	-8.668319	2.496144	0.717220	2.990960	1.129240	-0.790708	0.080749	0.593443	-1.000000	-1.000000	-1.000000	-1.000000	-1.000000	-1.000000	-1.000000	60.000000	0.000000	-1.000000	-1.000000	1545864.000000	1776579493.182296
23188.725000	10906.515000	41389.155000	66205.170000	45965.835000	28261.035000	-5513.265000	23024.205000	4.192128	5.023629	6.372753	6.074641	3.498399	-3.107451	-2.340619	2.192598	0.717220	2.990960	1.129240	-0.790708	0.080749	0.593443	-1.000000	-1.000000	-1.000000	-1.000000	-1.000000	-1.000000	-1.000000	60.000000	0.000000	-1.000000	-1.000000	1545865.000000	1776579493.182306
23180.535000	10897.920000	41381.550000	66198.375000	45958.230000	28252.620000	-5523.885000	23013.090000	0.813588	1.007760	3.134147	4.977488	9.403915	13.416052	3.030508	0.041070	-2.395820	2.517900	1.205540	-0.791258	0.084045	0.592589	-1.000000	-1.000000	-1.000000	-1.000000	-1.000000	-1.000000	-1.000000	60.000000	0.000000	-1.000000	-1.000000	1545866.000000	1776579493.186396
23182.290000	10901.160000	41384.205000	66199.590000	45956.295000	28244.025000	-5525.370000	23014.845000	-3.354188	-3.672709	-1.365724	1.676749	10.504286	21.691910	5.057693	-3.234272	-2.395820	2.517900	1.205540	-0.791258	0.084045	0.592589	-1.000000	-1.000000	-1.000000	-1.000000	-1.000000	-1.000000	-1.000000	60.000000	0.000000	-1.000000	-1.000000	1545867.000000	1776579493.186410
23186.970000	10905.255000	41388.075000	66202.470000	45958.680000	28244.880000	-5518.845000	23020.650000	-6.019478	-6.529652	-4.753275	-2.035889	6.717824	18.901478	3.984305	-5.465788	-2.395820	2.517900	1.205540	-0.791258	0.084045	0.592589	-1.000000	-1.000000	-1.000000	-1.000000	-1.000000	-1.000000	-1.000000	60.000000	0.000000	-1.000000	-1.000000	1545868.000000	1776579493.190426
23182.650000	10897.920000	41380.605000	66195.495000	45953.370000	28244.700000	-5521.455000	23017.455000	-5.484207	-5.926951	-5.271341	-4.167651	0.664368	8.516525	2.125037	-4.655645	-2.395820	2.517900	1.205540	-0.791258	0.084045	0.592589	-1.000000	-1.000000	-1.000000	-1.000000	-1.000000	-1.000000	-1.000000	60.000000	0.000000	-1.000000	-1.000000	1545869.000000	1776579493.190450
23188.500000	10904.400000	41385.690000	66199.320000	45952.020000	28243.215000	-5519.700000	23022.090000	-2.318243	-2.721870	-3.349254	-4.164762	-4.493684	-2.647562	1.146933	-1.183634	-2.395820	2.517900	1.205540	-0.791258	0.084045	0.592589	-1.000000	-1.000000	-1.000000	-1.000000	-1.000000	-1.000000	-1.000000	60.000000	0.000000	-1.000000	-1.000000	1545870.000000	1776579493.194326
23186.250000	10904.310000	41386.545000	66200.085000	45948.375000	28229.130000	-5525.055000	23018.895000	1.459128	1.059689	-0.517784	-2.592750	-6.963150	-9.714726	0.912998	2.719780	-2.395820	2.517900	1.205540	-0.791258	0.084045	0.592589	-1.000000	-1.000000	-1.000000	-1.000000	-1.000000	-1.000000	-1.000000	60.000000	0.000000	-1.000000	-1.000000	1545871.000000	1776579493.194339
23191.830000	10912.410000	41395.005000	66207.780000	45957.960000	28237.815000	-5522.670000	23023.710000	4.066501	3.963770	2.126791	-0.149921	-6.291931	-11.496099	0.614248	5.014589	-2.395820	2.517900	1.205540	-0.791258	0.084045	0.592589	-1.000000	-1.000000	-1.000000	-1.000000	-1.000000	-1.000000	-1.000000	60.000000	0.000000	-1.000000	-1.000000	1545872.000000	1776579493.198228
23187.645000	10908.405000	41390.055000	66203.820000	45955.485000	28237.500000	-5526.675000	23020.020000	4.661802	5.216281	3.840101	2.276393	-3.022047	-8.708571	-0.059084	4.964554	-2.395820	2.517900	1.205540	-0.791258	0.084045	0.592589	-1.000000	-1.000000	-1.000000	-1.000000	-1.000000	-1.000000	-1.000000	60.000000	0.000000	-1.000000	-1.000000	1545873.000000	1776579493.198237
23188.995000	10908.855000	41391.000000	66206.835000	45958.860000	28235.925000	-5522.940000	23021.460000	3.311622	4.411709	3.860371	3.527215	1.175078	-3.084441	-0.781591	3.033629	-2.395820	2.517900	1.205540	-0.791258	0.084045	0.592589	-1.000000	-1.000000	-1.000000	-1.000000	-1.000000	-1.000000	-1.000000	60.000000	0.000000	-1.000000	-1.000000	1545874.000000	1776579493.202307
23190.075000	10907.955000	41389.785000	66205.890000	45960.390000	28237.680000	-5522.130000	23022.765000	0.862003	1.821197	2.025401	2.975886	4.216721	2.604272	-1.025723	0.371170	-2.395820	2.517900	1.205540	-0.791258	0.084045	0.592589	-1.000000	-1.000000	-1.000000	-1.000000	-1.000000	-1.000000	-1.000000	60.000000	0.000000	-1.000000	-1.000000	1545875.000000	1776579493.202319
23189.625000	10908.810000	41391.045000	66205.755000	45957.195000	28249.155000	-5519.205000	23021.145000	-1.409227	-1.319276	-0.661750	1.091551	4.911823	6.223644	-0.545965	-1.775458	-4.379620	1.648080	0.976640	-0.794493	0.084717	0.591612	-1.000000	-1.000000	-1.000000	-1.000000	-1.000000	-1.000000	-1.000000	60.000000	0.000000	-1.000000	-1.000000	1545876.000000	1776579493.206418
23185.485000	10903.545000	41384.790000	66199.320000	45952.155000	28250.235000	-5521.500000	23018.130000	-2.692625	-3.610288	-2.849297	-1.179406	3.204149	7.392916	0.281068	-2.831222	-4.379620	1.648080	0.976640	-0.794493	0.084717	0.591612	-1.000000	-1.000000	-1.000000	-1.000000	-1.000000	-1.000000	-1.000000	60.000000	0.000000	-1.000000	-1.000000	1545877.000000	1776579493.206424
23192.505000	10911.510000	41391.585000	66204.675000	45956.475000	28254.510000	-5520.015000	23023.845000	-2.867330	-4.280927	-3.733043	-2.948000	0.112363	6.428714	0.733565	-2.844967	-4.379620	1.648080	0.976640	-0.794493	0.084717	0.591612	-1.000000	-1.000000	-1.000000	-1.000000	-1.000000	-1.000000	-1.000000	60.000000	0.000000	-1.000000	-1.000000	1545878.000000	1776579493.210387
23193.585000	10914.480000	41394.870000	66206.205000	45956.160000	28252.710000	-5522.040000	23023.395000	-1.921873	-3.069176	-2.931109	-3.323184	-2.486232	3.633701	0.438932	-1.891432	-4.379620	1.648080	0.976640	-0.794493	0.084717	0.591612	-1.000000	-1.000000	-1.000000	-1.000000	-1.000000	-1.000000	-1.000000	60.000000	0.000000	-1.000000	-1.000000	1545879.000000	1776579493.210418
23187.825000	10910.070000	41393.430000	66206.835000	45958.095000	28250.910000	-5525.370000	23017.545000	-0.296341	-0.566600	-0.731468	-1.987134	-3.182794	-0.337336	-0.439860	-0.435819	-4.379620	1.648080	0.976640	-0.794493	0.084717	0.591612	-1.000000	-1.000000	-1.000000	-1.000000	-1.000000	-1.000000	-1.000000	60.000000	0.000000	-1.000000	-1.000000	1545880.000000	1776579493.214412
23185.980000	10908.720000	41391.855000	66205.395000	45954.180000	28222.695000	-5529.870000	23016.735000	0.817027	1.563376	1.499295	0.161835	-2.134775	-4.768807	-1.530976	0.506600	-4.379620	1.648080	0.976640	-0.794493	0.084717	0.591612	-1.000000	-1.000000	-1.000000	-1.000000	-1.000000	-1.000000	-1.000000	60.000000	0.000000	-1.000000	-1.000000	1545881.000000	1776579493.214430
23186.970000	10907.505000	41389.110000	66201.345000	45949.410000	28214.055000	-5531.580000	23018.355000	0.746481	2.031742	2.321491	1.663321	-0.658579	-9.129018	-2.368015	0.535730	-4.379620	1.648080	0.976640	-0.794493	0.084717	0.591612	-1.000000	-1.000000	-1.000000	-1.000000	-1.000000	-1.000000	-1.000000	60.000000	0.000000	-1.000000	-1.000000	1545882.000000	1776579493.218445
23185.980000	10906.605000	41388.435000	66200.580000	45948.600000	28224.585000	-5531.985000	23017.545000	0.093802	1.072893	1.485287	1.700341	0.088071	-11.518416	-2.391936	0.277520	-4.379620	1.648080	0.976640	-0.794493	0.084717	0.591612	-1.000000	-1.000000	-1.000000	-1.000000	-1.000000	-1.000000	-1.000000	60.000000	0.000000	-1.000000	-1.000000	1545883.000000	1776579493.218470
23184.585000	10904.580000	41386.140000	66197.925000	45949.950000	28242.360000	-5527.305000	23017.635000	-0.284553	-0.229788	-0.113134	0.619742	0.118897	-8.642724	-1.213065	0.330806	-4.379620	1.648080	0.976640	-0.794493	0.084717	0.591612	-1.000000	-1.000000	-1.000000	-1.000000	-1.000000	-1.000000	-1.000000	60.000000	0.000000	-1.000000	-1.000000	1545884.000000	1776579493.222300
23184.990000	10902.915000	41382.720000	66194.595000	45947.700000	28235.070000	-5527.035000	23018.760000	-0.142254	-1.022237	-1.390601	-0.618376	0.186294	-0.049572	0.969506	0.689032	-4.379620	1.648080	0.976640	-0.794493	0.084717	0.591612	-1.000000	-1.000000	-1.000000	-1.000000	-1.000000	-1.000000	-1.000000	60.000000	0.000000	-1.000000	-1.000000	1545885.000000	1776579493.222329
23187.150000	10903.905000	41382.270000	66193.695000	45944.235000	28222.290000	-5530.905000	23019.435000	0.374523	-1.007008	-1.789550	-1.278589	0.564675	9.180545	3.072571	1.072963	-3.067260	1.709120	-0.579880	-0.793272	0.083801	0.592833	-1.000000	-1.000000	-1.000000	-1.000000	-1.000000	-1.000000	-1.000000	60.000000	0.000000	-1.000000	-1.000000	1545886.000000	1776579493.226494
23193.585000	10915.200000	41396.625000	66208.455000	45959.490000	28238.490000	-5522.850000	23024.205000	1.146651	-0.074394	-0.979806	-0.798120	1.163802	13.079967	3.870778	1.296568	-3.067260	1.709120	-0.579880	-0.793272	0.083801	0.592833	-1.000000	-1.000000	-1.000000	-1.000000	-1.000000	-1.000000	-1.000000	60.000000	0.000000	-1.000000	-1.000000	1545887.000000	1776579493.226510
23193.675000	10917.495000	41400.360000	66213.945000	45964.170000	28234.755000	-5524.110000	23024.070000	1.992059	1.737296	1.253354	1.235050	2.279580	10.758435	3.222168	1.319111	-3.067260	1.709120	-0.579880	-0.793272	0.083801	0.592833	-1.000000	-1.000000	-1.000000	-1.000000	-1.000000	-1.000000	-1.000000	60.000000	0.000000	-1.000000	-1.000000	1545888.000000	1776579493.230540
23187.870000	10911.420000	41394.105000	66205.170000	45956.520000	28224.810000	-5532.840000	23018.220000	2.229710	3.403098	3.813129	3.780816	3.505249	5.040081	1.571517	0.903625	-3.067260	1.709120	-0.579880	-0.793272	0.083801	0.592833	-1.000000	-1.000000	-1.000000	-1.000000	-1.000000	-1.000000	-1.000000	60.000000	0.000000	-1.000000	-1.000000	1545889.000000	1776579493.230568
23193.045000	10919.610000	41401.440000	66211.740000	45962.055000	28227.780000	-5530.905000	23024.745000	1.185546	3.370405	4.549552	4.486397	3.259689	-1.406741	-0.812639	-0.170072	-3.067260	1.709120	-0.579880	-0.793272	0.083801	0.592833	-1.000000	-1.000000	-1.000000	-1.000000	-1.000000	-1.000000	-1.000000	60.000000	0.000000	-1.000000	-1.000000	1545890.000000	1776579493.234417
23194.080000	10919.880000	41402.070000	66212.145000	45958.680000	28234.980000	-5531.175000	23024.745000	-0.619426	1.534672	2.782873	2.494469	0.961756	-6.129967	-3.067186	-1.320991	-3.067260	1.709120	-0.579880	-0.793272	0.083801	0.592833	-1.000000	-1.000000	-1.000000	-1.000000	-1.000000	-1.000000	-1.000000	60.000000	0.000000	-1.000000	-1.000000	1545891.000000	1776579493.234429
23187.015000	10909.710000	41391.900000	66203.055000	45952.155000	28239.795000	-5531.940000	23020.245000	-2.069003	-1.009011	-0.382136	-0.908059	-2.281592	-7.074898	-3.911694	-1.807365	-3.067260	1.709120	-0.579880	-0.793272	0.083801	0.592833	-1.000000	-1.000000	-1.000000	-1.000000	-1.000000	-1.000000	-1.000000	60.000000	0.000000	-1.000000	-1.000000	1545892.000000	1776579493.238637
23179.410000	10900.260000	41382.495000	66198.285000	45957.780000	28253.745000	-5526.450000	23016.060000	-2.955428	-3.670101	-3.884376	-4.269850	-4.928372	-4.200455	-2.889141	-1.819028	-3.067260	1.709120	-0.579880	-0.793272	0.083801	0.592833	-1.000000	-1.000000	-1.000000	-1.000000	-1.000000	-1.000000	-1.000000	60.000000	0.000000	-1.000000	-1.000000	1545893.000000	1776579493.238656
23182.020000	10903.005000	41383.215000	66199.275000	45956.205000	28239.525000	-5529.780000	23017.500000	-3.458304	-5.848838	-6.693725	-6.404005	-5.586468	0.169457	-0.626197	-1.781915	-3.067260	1.709120	-0.579880	-0.793272	0.083801	0.592833	-1.000000	-1.000000	-1.000000	-1.000000	-1.000000	-1.000000	-1.000000	60.000000	0.000000	-1.000000	-1.000000	1545894.000000	1776579493.242328
23194.395000	10917.180000	41395.005000	66205.890000	45957.150000	28242.360000	-5522.670000	23029.020000	-2.806101	-5.824736	-6.988324	-6.012338	-3.843496	2.674396	1.668156	-1.241316	-3.067260	1.709120	-0.579880	-0.793272	0.083801	0.592833	-1.000000	-1.000000	-1.000000	-1.000000	-1.000000	-1.000000	-1.000000	60.000000	0.000000	-1.000000	-1.000000	1545895.000000	1776579493.242345
23192.460000	10915.830000	41395.410000	66208.275000	45965.655000	28270.260000	-5514.525000	23027.310000	-0.189656	-2.349333	-3.543291	-2.685120	-0.620537	2.292634	3.170411	0.464081	-0.976640	2.426340	-0.122080	-0.791868	0.082702	0.592955	-1.000000	-1.000000	-1.000000	-1.000000	-1.000000	-1.000000	-1.000000	60.000000	0.000000	-1.000000	-1.000000	1545896.000000	1776579493.246466
23193.135000	10914.480000	41392.575000	66204.315000	45962.280000	28268.370000	-5514.615000	23028.435000	3.247037	2.897210	2.057302	1.985901	2.665469	1.341221	3.729667	2.624373	-0.976640	2.426340	-0.122080	-0.791868	0.082702	0.592955	-1.000000	-1.000000	-1.000000	-1.000000	-1.000000	-1.000000	-1.000000	60.000000	0.000000	-1.000000	-1.000000	1545897.000000	1776579493.246485
23192.910000	10916.505000	41395.860000	66208.770000	45966.285000	28261.980000	-5515.830000	23027.985000	5.128290	6.448814	6.339231	5.336692	4.601251	1.053786	3.052755	3.577404	-0.976640	2.426340	-0.122080	-0.791868	0.082702	0.592955	-1.000000	-1.000000	-1.000000	-1.000000	-1.000000	-1.000000	-1.000000	60.000000	0.000000	-1.000000	-1.000000	1545898.000000	1776579493.250374
23185.755000	10910.025000	41391.540000	66205.800000	45962.730000	28250.955000	-5527.665000	23018.400000	4.185587	6.340268	7.104621	5.863059	4.351916	-0.257423	0.691102	2.407850	-0.976640	2.426340	-0.122080	-0.791868	0.082702	0.592955	-1.000000	-1.000000	-1.000000	-1.000000	-1.000000	-1.000000	-1.000000	60.000000	0.000000	-1.000000	-1.000000	1545899.000000	1776579493.250403
23188.365000	10914.930000	41396.850000	66209.760000	45961.020000	28242.855000	-5532.210000	23018.130000	1.038413	3.193398	4.692200	3.971038	2.186244	-3.648815	-3.030047	-0.463415	-0.976640	2.426340	-0.122080	-0.791868	0.082702	0.592955	-1.000000	-1.000000	-1.000000	-1.000000	-1.000000	-1.000000	-1.000000	60.000000	0.000000	-1.000000	-1.000000	1545900.000000	1776579493.254483
23200.650000	10932.030000	41413.185000	66223.035000	45962.730000	28234.620000	-5533.965000	23027.715000	-2.105192	-0.408572	1.352988	1.360052	-0.723026	-7.486169	-6.424919	-3.210718	-0.976640	2.426340	-0.122080	-0.791868	0.082702	0.592955	-1.000000	-1.000000	-1.000000	-1.000000	-1.000000	-1.000000	-1.000000	60.000000	0.000000	-1.000000	-1.000000	1545901.000000	1776579493.254506
23204.790000	10936.080000	41416.470000	66225.330000	45964.215000	28226.880000	-5534.910000	23030.010000	-2.878277	-1.735366	-0.445923	-0.152399	-2.822577	-9.077205	-7.285349	-3.610462	-0.976640	2.426340	-0.122080	-0.791868	0.082702	0.592955	-1.000000	-1.000000	-1.000000	-1.000000	-1.000000	-1.000000	-1.000000	60.000000	0.000000	-1.000000	-1.000000	1545902.000000	1776579493.258355
23196.195000	10921.770000	41401.755000	66213.045000	45964.575000	28239.615000	-5531.715000	23024.610000	-1.283709	-0.896382	-0.685871	-0.569386	-3.138282	-6.688799	-4.700998	-1.466256	-0.976640	2.426340	-0.122080	-0.791868	0.082702	0.592955	-1.000000	-1.000000	-1.000000	-1.000000	-1.000000	-1.000000	-1.000000	60.000000	0.000000	-1.000000	-1.000000	1545903.000000	1776579493.258367
23191.110000	10911.960000	41390.280000	66201.840000	45956.205000	28230.075000	-5521.815000	23025.555000	0.178450	-0.824142	-1.794340	-1.765138	-2.083811	-0.580195	0.370293	1.081425	-0.976640	2.426340	-0.122080	-0.791868	0.082702	0.592955	-1.000000	-1.000000	-1.000000	-1.000000	-1.000000	-1.000000	-1.000000	60.000000	0.000000	-1.000000	-1.000000	1545904.000000	1776579493.262410
23185.800000	10904.355000	41381.910000	66195.405000	45955.305000	28261.665000	-5516.370000	23021.955000	-0.405661	-3.244279	-4.984563	-4.604819	-0.951002	6.986569	5.886493	2.089423	-0.976640	2.426340	-0.122080	-0.791868	0.082702	0.592955	-1.000000	-1.000000	-1.000000	-1.000000	-1.000000	-1.000000	-1.000000	60.000000	0.000000	-1.000000	-1.000000	1545905.000000	1776579493.262426
23184.585000	10903.770000	41381.235000	66195.630000	45954.585000	28261.395000	-5521.815000	23021.280000	-2.373755	-6.373595	-8.197822	-7.240865	-0.407951	13.253547	9.318411	1.361460	-0.045780	2.258480	0.763000	-0.792417	0.081970	0.593260	-1.000000	-1.000000	-1.000000	-1.000000	-1.000000	-1.000000	-1.000000	61.000000	0.000000	-1.000000	-1.000000	1545906.000000	1776579493.266684
23191.920000	10914.030000	41392.035000	66205.530000	45964.260000	28263.150000	-5521.455000	23029.470000	-3.496895	-6.852339	-8.060272	-6.782516	0.140070	15.578417	8.639196	0.057328	-0.045780	2.258480	0.763000	-0.792417	0.081970	0.593260	-1.000000	-1.000000	-1.000000	-1.000000	-1.000000	-1.000000	-1.000000	61.000000	0.000000	-1.000000	-1.000000	1545907.000000	1776579493.266720
23196.645000	10918.260000	41398.155000	66213.945000	45978.480000	28269.135000	-5516.235000	23033.430000	-2.071725	-2.954327	-3.068525	-2.054409	1.719266	12.114979	4.173632	-0.330452	-0.045780	2.258480	0.763000	-0.792417	0.081970	0.593260	-1.000000	-1.000000	-1.000000	-1.000000	-1.000000	-1.000000	-1.000000	61.000000	0.000000	-1.000000	-1.000000	1545908.000000	1776579493.270398
23191.605000	10911.555000	41391.540000	66208.095000	45975.645000	28273.500000	-5518.170000	23029.110000	1.368080	3.462427	4.509142	4.817563	4.218418	4.076320	-1.361987	0.490184	-0.045780	2.258480	0.763000	-0.792417	0.081970	0.593260	-1.000000	-1.000000	-1.000000	-1.000000	-1.000000	-1.000000	-1.000000	61.000000	0.000000	-1.000000	-1.000000	1545909.000000	1776579493.270422
23194.260000	10917.405000	41393.655000	66204.675000	45962.370000	28270.305000	-5518.935000	23031.135000	4.350793	8.308489	10.013464	9.488793	5.415563	-4.822894	-5.330404	1.267948	-0.045780	2.258480	0.763000	-0.792417	0.081970	0.593260	-1.000000	-1.000000	-1.000000	-1.000000	-1.000000	-1.000000	-1.000000	61.000000	0.000000	-1.000000	-1.000000	1545910.000000	1776579493.274506
23195.520000	10919.880000	41397.525000	66208.815000	45959.895000	28247.535000	-5520.645000	23032.170000	4.986932	9.090303	10.525969	9.137650	2.990383	-11.685522	-6.766523	0.978301	-0.045780	2.258480	0.763000	-0.792417	0.081970	0.593260	-1.000000	-1.000000	-1.000000	-1.000000	-1.000000	-1.000000	-1.000000	61.000000	0.000000	-1.000000	-1.000000	1545911.000000	1776579493.274521
23192.235000	10917.405000	41399.145000	66212.640000	45957.780000	28220.805000	-5528.790000	23026.545000	3.342422	6.298448	6.860973	4.876189	-2.212403	-15.957198	-6.096721	-0.209616	-0.045780	2.258480	0.763000	-0.792417	0.081970	0.593260	-1.000000	-1.000000	-1.000000	-1.000000	-1.000000	-1.000000	-1.000000	61.000000	0.000000	-1.000000	-1.000000	1545912.000000	1776579493.278376
23197.545000	10924.155000	41406.840000	66220.920000	45965.970000	28231.065000	-5526.090000	23030.190000	0.639781	1.855600	1.798753	0.065432	-6.499902	-17.244621	-4.280778	-1.601872	-0.045780	2.258480	0.763000	-0.792417	0.081970	0.593260	-1.000000	-1.000000	-1.000000	-1.000000	-1.000000	-1.000000	-1.000000	61.000000	0.000000	-1.000000	-1.000000	1545913.000000	1776579493.278386
23192.865000	10917.765000	41396.805000	66209.895000	45961.245000	28230.930000	-5534.055000	23023.755000	-1.721073	-2.254005	-2.401887	-2.998405	-6.898595	-13.418191	-2.015859	-2.476121	-0.045780	2.258480	0.763000	-0.792417	0.081970	0.593260	-1.000000	-1.000000	-1.000000	-1.000000	-1.000000	-1.000000	-1.000000	61.000000	0.000000	-1.000000	-1.000000	1545914.000000	1776579493.282633
23194.710000	10920.555000	41399.370000	66209.580000	45964.035000	28240.830000	-5530.545000	23026.095000	-2.937522	-4.841638	-5.087586	-4.432996	-3.649710	-3.587589	0.299096	-2.429783	-0.045780	2.258480	0.763000	-0.792417	0.081970	0.593260	-1.000000	-1.000000	-1.000000	-1.000000	-1.000000	-1.000000	-1.000000	61.000000	0.000000	-1.000000	-1.000000	1545915.000000	1776579493.282648
23186.880000	10910.160000	41389.245000	66200.445000	45959.715000	28254.510000	-5529.330000	23021.775000	-3.093979	-5.764305	-6.444964	-5.214901	0.668785	9.079702	2.420711	-1.556913	-1.236060	1.892240	-0.137340	-0.792662	0.080749	0.594603	-1.000000	-1.000000	-1.000000	-1.000000	-1.000000	-1.000000	-1.000000	61.000000	0.000000	-1.000000	-1.000000	1545916.000000	1776579493.286737
23190.885000	10911.915000	41388.345000	66199.365000	45955.935000	28247.940000	-5526.495000	23028.345000	-2.615850	-5.404323	-6.553866	-5.485142	3.512212	19.001969	4.195307	-0.150384	-1.236060	1.892240	-0.137340	-0.792662	0.080749	0.594603	-1.000000	-1.000000	-1.000000	-1.000000	-1.000000	-1.000000	-1.000000	61.000000	0.000000	-1.000000	-1.000000	1545917.000000	1776579493.286771
23200.245000	10923.300000	41399.190000	66208.635000	45960.750000	28247.445000	-5520.465000	23036.355000	-1.444815	-3.768446	-5.069709	-4.455922	3.937841	21.297079	5.296872	1.644540	-1.236060	1.892240	-0.137340	-0.792662	0.080749	0.594603	-1.000000	-1.000000	-1.000000	-1.000000	-1.000000	-1.000000	-1.000000	61.000000	0.000000	-1.000000	-1.000000	1545918.000000	1776579493.290589
23195.655000	10918.665000	41396.085000	66205.035000	45956.970000	28244.880000	-5524.290000	23030.190000	0.609874	-0.657581	-1.652626	-1.470666	2.772055	14.876151	5.241373	3.428107	-1.236060	1.892240	-0.137340	-0.792662	0.080749	0.594603	-1.000000	-1.000000	-1.000000	-1.000000	-1.000000	-1.000000	-1.000000	61.000000	0.000000	-1.000000	-1.000000	1545919.000000	1776579493.290605
23194.620000	10918.395000	41396.220000	66206.745000	45960.345000	28247.715000	-5524.470000	23029.875000	2.577590	2.793386	2.588086	2.504568	1.315490	3.487500	3.588004	3.984045	-1.236060	1.892240	-0.137340	-0.792662	0.080749	0.594603	-1.000000	-1.000000	-1.000000	-1.000000	-1.000000	-1.000000	-1.000000	61.000000	0.000000	-1.000000	-1.000000	1545920.000000	1776579493.294467
23197.635000	10922.220000	41401.080000	66214.260000	45968.400000	28242.090000	-5525.370000	23032.845000	3.072810	4.679166	5.511090	5.498924	0.448833	-7.149778	0.544819	2.548331	-1.236060	1.892240	-0.137340	-0.792662	0.080749	0.594603	-1.000000	-1.000000	-1.000000	-1.000000	-1.000000	-1.000000	-1.000000	61.000000	0.000000	-1.000000	-1.000000	1545921.000000	1776579493.294481
23194.395000	10917.495000	41395.005000	66209.265000	45962.505000	28236.510000	-5532.210000	23028.435000	1.984785	4.319947	5.926422	6.353324	0.427797	-13.171630	-2.797785	-0.031897	-1.236060	1.892240	-0.137340	-0.792662	0.080749	0.594603	-1.000000	-1.000000	-1.000000	-1.000000	-1.000000	-1.000000	-1.000000	61.000000	0.000000	-1.000000	-1.000000	1545922.000000	1776579493.298481
23195.115000	10922.445000	41399.955000	66211.470000	45961.155000	28237.185000	-5529.420000	23028.750000	0.182302	2.369663	4.040222	4.883819	0.471467	-13.763178	-5.163845	-2.372995	-1.236060	1.892240	-0.137340	-0.792662	0.080749	0.594603	-1.000000	-1.000000	-1.000000	-1.000000	-1.000000	-1.000000	-1.000000	61.000000	0.000000	-1.000000	-1.000000	1545923.000000	1776579493.298495
23199.705000	10930.860000	41408.730000	66217.680000	45967.680000	28240.290000	-5527.710000	23032.395000	-1.305941	0.233652	1.247805	1.872994	-0.196843	-9.933546	-5.526497	-3.496229	-1.236060	1.892240	-0.137340	-0.792662	0.080749	0.594603	-1.000000	-1.000000	-1.000000	-1.000000	-1.000000	-1.000000	-1.000000	61.000000	0.000000	-1.000000	-1.000000	1545924.000000	1776579493.302468
23201.955000	10932.930000	41409.720000	66220.380000	45973.260000	28259.415000	-5520.645000	23035.725000	-1.644637	-0.726361	-0.668618	-0.994300	-0.985413	-3.244763	-3.493503	-2.890513	-1.236060	1.892240	-0.137340	-0.792662	0.080749	0.594603	-1.000000	-1.000000	-1.000000	-1.000000	-1.000000	-1.000000	-1.000000	61.000000	0.000000	-1.000000	-1.000000	1545925.000000	1776579493.302477
23195.520000	10921.995000	41396.850000	66210.885000	45969.615000	28275.255000	-5517.090000	23031.315000	-0.948971	-0.701186	-1.475444	-2.710988	-1.045512	4.554405	0.156899	-0.999890	-2.411080	2.777320	-0.610400	-0.791624	0.080505	0.594908	-1.000000	-1.000000	-1.000000	-1.000000	-1.000000	-1.000000	-1.000000	61.000000	0.000000	-1.000000	-1.000000	1545926.000000	1776579493.306580
23197.230000	10921.635000	41395.230000	66207.870000	45962.415000	28258.065000	-5521.005000	23033.925000	-0.279031	-1.173075	-2.467730	-3.745804	-0.858747	10.591740	3.539722	0.825765	-2.411080	2.777320	-0.610400	-0.791624	0.080505	0.594908	-1.000000	-1.000000	-1.000000	-1.000000	-1.000000	-1.000000	-1.000000	61.000000	0.000000	-1.000000	-1.000000	1545927.000000	1776579493.306594
23204.835000	10932.210000	41410.305000	66216.735000	45966.195000	28258.020000	-5516.415000	23042.250000	-0.107120	-2.360246	-3.686221	-4.348005	-1.315079	11.115126	4.755694	1.756603	-2.411080	2.777320	-0.610400	-0.791624	0.080505	0.594908	-1.000000	-1.000000	-1.000000	-1.000000	-1.000000	-1.000000	-1.000000	61.000000	0.000000	-1.000000	-1.000000	1545928.000000	1776579493.310627
23200.335000	10927.080000	41409.225000	66215.385000	45965.835000	28256.265000	-5518.755000	23037.570000	0.086653	-2.756215	-3.341281	-3.635989	-2.031002	5.316944	3.409010	1.988029	-2.411080	2.777320	-0.610400	-0.791624	0.080505	0.594908	-1.000000	-1.000000	-1.000000	-1.000000	-1.000000	-1.000000	-1.000000	61.000000	0.000000	-1.000000	-1.000000	1545929.000000	1776579493.310636
23204.430000	10929.960000	41408.955000	66217.815000	45970.335000	28257.930000	-5516.055000	23041.170000	0.467845	-1.671613	-0.934819	-1.323068	-1.871359	-2.912481	0.683588	1.643038	-2.411080	2.777320	-0.610400	-0.791624	0.080505	0.594908	-1.000000	-1.000000	-1.000000	-1.000000	-1.000000	-1.000000	-1.000000	61.000000	0.000000	-1.000000	-1.000000	1545930.000000	1776579493.314611
23203.170000	10929.420000	41407.830000	66218.220000	45972.450000	28255.230000	-5520.555000	23039.280000	0.654296	0.011892	1.664658	1.414958	-0.446082	-8.626212	-1.910054	0.650997	-2.411080	2.777320	-0.610400	-0.791624	0.080505	0.594908	-1.000000	-1.000000	-1.000000	-1.000000	-1.000000	-1.000000	-1.000000	61.000000	0.000000	-1.000000	-1.000000	1545931.000000	1776579493.314620
23202.495000	10930.095000	41408.280000	66219.390000	45974.880000	28256.490000	-5522.220000	23038.245000	0.428799	1.281884	2.651630	3.177573	1.552285	-9.504026	-3.479811	-0.689641	-2.411080	2.777320	-0.610400	-0.791624	0.080505	0.594908	-1.000000	-1.000000	-1.000000	-1.000000	-1.000000	-1.000000	-1.000000	61.000000	0.000000	-1.000000	-1.000000	1545932.000000	1776579493.318716
23201.145000	10928.745000	41407.245000	66217.680000	45972.810000	28258.830000	-5521.905000	23036.760000	-0.176992	1.675655	1.858148	3.317268	2.908995	-6.213956	-3.771362	-1.884638	-2.411080	2.777320	-0.610400	-0.791624	0.080505	0.594908	-1.000000	-1.000000	-1.000000	-1.000000	-1.000000	-1.000000	-1.000000	61.000000	0.000000	-1.000000	-1.000000	1545933.000000	1776579493.318732
23198.130000	10925.460000	41403.870000	66213.180000	45964.170000	28244.385000	-5530.005000	23032.935000	-0.938230	1.181449	0.188199	1.954054	2.582028	-1.279521	-2.935861	-2.533417	-2.411080	2.777320	-0.610400	-0.791624	0.080505	0.594908	-1.000000	-1.000000	-1.000000	-1.000000	-1.000000	-1.000000	-1.000000	61.000000	0.000000	-1.000000	-1.000000	1545934.000000	1776579493.322540
23204.610000	10931.490000	41410.575000	66218.580000	45960.030000	28217.745000	-5538.195000	23038.425000	-1.381074	0.248732	-1.232747	-0.117777	0.381731	1.896913	-1.686734	-2.347178	-2.411080	2.777320	-0.610400	-0.791624	0.080505	0.594908	-1.000000	-1.000000	-1.000000	-1.000000	-1.000000	-1.000000	-1.000000	61.000000	0.000000	-1.000000	-1.000000	1545935.000000	1776579493.322563
23202.045000	10928.430000	41406.120000	66212.460000	45950.580000	28188.855000	-5547.015000	23036.805000	-0.993577	-0.354553	-1.554713	-1.712126	-2.642845	0.876566	-0.879703	-1.161016	-1.358140	3.860780	-1.846460	-0.790586	0.081482	0.593443	-1.000000	-1.000000	-1.000000	-1.000000	-1.000000	-1.000000	-1.000000	61.000000	0.000000	-1.000000	-1.000000	1545936.000000	1776579493.330089
23203.035000	10934.280000	41413.680000	66217.590000	45963.585000	28217.880000	-5533.155000	23037.345000	0.094646	-0.220283	-0.721410	-2.110830	-4.510145	-2.603880	-0.271490	0.644490	-1.358140	3.860780	-1.846460	-0.790586	0.081482	0.593443	-1.000000	-1.000000	-1.000000	-1.000000	-1.000000	-1.000000	-1.000000	61.000000	0.000000	-1.000000	-1.000000	1545937.000000	1776579493.330115
23203.485000	10935.945000	41416.785000	66223.215000	45978.345000	28267.110000	-5520.465000	23039.460000	1.113159	0.462849	0.723038	-1.247488	-3.163074	-2.039925	1.641415	2.171311	-1.358140	3.860780	-1.846460	-0.790586	0.081482	0.593443	-1.000000	-1.000000	-1.000000	-1.000000	-1.000000	-1.000000	-1.000000	61.000000	0.000000	-1.000000	-1.000000	1545938.000000	1776579493.330558
23186.070000	10916.955000	41395.095000	66204.675000	45975.240000	28293.570000	-5519.745000	23023.800000	1.192952	0.847600	1.676673	0.190042	1.482559	7.101463	5.299979	2.513711	-1.358140	3.860780	-1.846460	-0.790586	0.081482	0.593443	-1.000000	-1.000000	-1.000000	-1.000000	-1.000000	-1.000000	-1.000000	61.000000	0.000000	-1.000000	-1.000000	1545939.000000	1776579493.330568
23189.625000	10919.160000	41394.645000	66200.535000	45970.335000	28272.240000	-5515.920000	23027.535000	-0.138835	-0.200961	0.667739	0.556722	6.135117	19.374946	8.400579	1.198465	-1.358140	3.860780	-1.846460	-0.790586	0.081482	0.593443	-1.000000	-1.000000	-1.000000	-1.000000	-1.000000	-1.000000	-1.000000	61.000000	0.000000	-1.000000	-1.000000	1545940.000000	1776579493.334460
23194.665000	10922.310000	41400.810000	66209.760000	45973.395000	28257.885000	-5519.205000	23031.495000	-1.799858	-2.145756	-1.830248	-0.581334	7.021486	22.709439	8.068655	-0.788430	-1.358140	3.860780	-1.846460	-0.790586	0.081482	0.593443	-1.000000	-1.000000	-1.000000	-1.000000	-1.000000	-1.000000	-1.000000	61.000000	0.000000	-1.000000	-1.000000	1545941.000000	1776579493.334466
23197.725000	10928.430000	41408.370000	66213.180000	45965.520000	28246.680000	-5528.835000	23030.595000	-1.735365	-2.710932	-2.957733	-1.210245	3.634388	11.200022	3.570714	-1.534430	-1.358140	3.860780	-1.846460	-0.790586	0.081482	0.593443	-1.000000	-1.000000	-1.000000	-1.000000	-1.000000	-1.000000	-1.000000	61.000000	0.000000	-1.000000	-1.000000	1545942.000000	1776579493.338489
23197.230000	10925.595000	41405.310000	66210.435000	45965.970000	28254.870000	-5529.825000	23031.945000	0.435386	-0.836865	-1.079300	0.130572	-1.633492	-8.475310	-3.287426	-0.509233	-1.358140	3.860780	-1.846460	-0.790586	0.081482	0.593443	-1.000000	-1.000000	-1.000000	-1.000000	-1.000000	-1.000000	-1.000000	61.000000	0.000000	-1.000000	-1.000000	1545943.000000	1776579493.338500
23196.915000	10924.830000	41404.320000	66210.750000	45966.960000	28251.450000	-5528.700000	23031.855000	2.932341	1.989106	2.166495	2.281750	-5.745059	-23.681146	-9.036851	1.149976	-1.358140	3.860780	-1.846460	-0.790586	0.081482	0.593443	-1.000000	-1.000000	-1.000000	-1.000000	-1.000000	-1.000000	-1.000000	61.000000	0.000000	-1.000000	-1.000000	1545944.000000	1776579493.342483
23199.885000	10927.935000	41406.885000	66212.460000	45965.565000	28243.665000	-5529.375000	23035.320000	3.898523	3.627972	4.092330	3.348167	-6.702661	-26.636752	-10.626804	2.199147	-1.358140	3.860780	-1.846460	-0.790586	0.081482	0.593443	-1.000000	-1.000000	-1.000000	-1.000000	-1.000000	-1.000000	-1.000000	61.000000	0.000000	-1.000000	-1.000000	1545945.000000	1776579493.342493
23203.440000	10930.545000	41408.820000	66214.485000	45968.445000	28252.935000	-5525.595000	23041.260000	3.014743	3.402211	3.719926	2.772612	-4.527210	-18.311371	-7.548262	2.285708	0.335720	4.913720	-1.663340	-0.789366	0.081848	0.593748	-1.000000	-1.000000	-1.000000	-1.000000	-1.000000	-1.000000	-1.000000	61.000000	0.000000	-1.000000	-1.000000	1545946.000000	1776579493.346444
23206.320000	10932.975000	41411.115000	66218.940000	45982.485000	28283.130000	-5513.895000	23045.040000	1.218271	2.027150	1.882080	1.277121	-0.541891	-4.009879	-1.591439	1.802287	0.335720	4.913720	-1.663340	-0.789366	0.081848	0.593748	-1.000000	-1.000000	-1.000000	-1.000000	-1.000000	-1.000000	-1.000000	61.000000	0.000000	-1.000000	-1.000000	1545947.000000	1776579493.346462
23207.715000	10937.205000	41416.785000	66225.105000	45989.190000	28278.180000	-5512.455000	23044.905000	-0.496309	0.462775	-0.088518	-0.073404	3.837620	10.613491	4.639414	1.040997	0.335720	4.913720	-1.663340	-0.789366	0.081848	0.593748	-1.000000	-1.000000	-1.000000	-1.000000	-1.000000	-1.000000	-1.000000	61.000000	0.000000	-1.000000	-1.000000	1545948.000000	1776579493.350639
23206.680000	10936.125000	41415.210000	66224.520000	45985.680000	28264.230000	-5517.045000	23044.410000	-1.743690	-0.743266	-1.325017	-0.724756	6.854110	19.371377	8.386190	-0.147191	0.335720	4.913720	-1.663340	-0.789366	0.081848	0.593748	-1.000000	-1.000000	-1.000000	-1.000000	-1.000000	-1.000000	-1.000000	61.000000	0.000000	-1.000000	-1.000000	1545949.000000	1776579493.350663
23202.090000	10930.095000	41407.380000	66219.885000	45980.145000	28248.930000	-5524.740000	23042.520000	-2.659401	-1.707720	-2.001485	-1.108454	6.491388	17.613543	7.655058	-1.801919	0.335720	4.913720	-1.663340	-0.789366	0.081848	0.593748	-1.000000	-1.000000	-1.000000	-1.000000	-1.000000	-1.000000	-1.000000	61.000000	0.000000	-1.000000	-1.000000	1545950.000000	1776579493.354728
23209.470000	10937.655000	41413.995000	66221.820000	45975.105000	28241.325000	-5521.995000	23049.630000	-3.245155	-2.639386	-2.685830	-1.919398	2.290334	6.707656	2.937963	-3.280094	0.335720	4.913720	-1.663340	-0.789366	0.081848	0.593748	-1.000000	-1.000000	-1.000000	-1.000000	-1.000000	-1.000000	-1.000000	61.000000	0.000000	-1.000000	-1.000000	1545951.000000	1776579493.354761
23213.880000	10943.235000	41418.540000	66221.145000	45964.035000	28220.355000	-5524.605000	23052.870000	-2.871079	-2.887268	-2.937225	-2.922721	-3.751777	-6.533169	-2.675859	-3.498909	0.335720	4.913720	-1.663340	-0.789366	0.081848	0.593748	-1.000000	-1.000000	-1.000000	-1.000000	-1.000000	-1.000000	-1.000000	61.000000	0.000000	-1.000000	-1.000000	1545952.000000	1776579493.358569
23216.805000	10947.060000	41421.870000	66221.010000	45962.280000	28214.055000	-5529.240000	23053.365000	-1.128458	-1.671635	-1.851951	-3.231950	-8.545278	-15.170816	-6.050035	-2.111725	0.335720	4.913720	-1.663340	-0.789366	0.081848	0.593748	-1.000000	-1.000000	-1.000000	-1.000000	-1.000000	-1.000000	-1.000000	61.000000	0.000000	-1.000000	-1.000000	1545953.000000	1776579493.358587
23216.535000	10945.890000	41420.295000	66217.050000	45962.910000	28243.845000	-5522.760000	23052.780000	1.135530	0.429632	0.230440	-2.492927	-9.579627	-15.119841	-6.055514	-0.121626	0.335720	4.913720	-1.663340	-0.789366	0.081848	0.593748	-1.000000	-1.000000	-1.000000	-1.000000	-1.000000	-1.000000	-1.000000	61.000000	0.000000	-1.000000	-1.000000	1545954.000000	1776579493.362543
23205.285000	10937.655000	41415.930000	66219.345000	45977.805000	28279.665000	-5516.055000	23041.845000	2.254153	1.702748	1.779433	-1.091085	-5.893869	-5.310696	-3.126396	0.940955	0.335720	4.913720	-1.663340	-0.789366	0.081848	0.593748	-1.000000	-1.000000	-1.000000	-1.000000	-1.000000	-1.000000	-1.000000	61.000000	0.000000	-1.000000	-1.000000	1545955.000000	1776579493.362558
23202.270000	10933.470000	41411.880000	66221.910000	45996.435000	28311.660000	-5510.385000	23041.125000	1.141328	0.905313	1.590563	0.541799	1.540267	10.803021	1.394658	0.285164	0.320460	4.288060	-0.595140	-0.791258	0.081970	0.593138	-1.000000	-1.000000	-1.000000	-1.000000	-1.000000	-1.000000	-1.000000	61.000000	0.000000	-1.000000	-1.000000	1545956.000000	1776579493.366858
23198.040000	10927.170000	41406.885000	66217.500000	45985.815000	28275.390000	-5517.855000	23037.705000	-1.468122	-1.475407	-0.148201	2.043254	9.435069	23.964577	5.183760	-1.315249	0.320460	4.288060	-0.595140	-0.791258	0.081970	0.593138	-1.000000	-1.000000	-1.000000	-1.000000	-1.000000	-1.000000	-1.000000	61.000000	0.000000	-1.000000	-1.000000	1545957.000000	1776579493.366890
23203.755000	10934.370000	41413.770000	66222.405000	45987.210000	28276.785000	-5512.455000	23042.880000	-3.353326	-3.449230	-1.953894	2.875280	12.983904	23.898635	6.006378	-2.088872	0.320460	4.288060	-0.595140	-0.791258	0.081970	0.593138	-1.000000	-1.000000	-1.000000	-1.000000	-1.000000	-1.000000	-1.000000	61.000000	0.000000	-1.000000	-1.000000	1545958.000000	1776579493.370490
23200.695000	10931.085000	41410.080000	66219.165000	45975.960000	28250.370000	-5524.605000	23036.805000	-2.778152	-3.128920	-2.194327	2.764475	9.523091	8.780195	3.477687	-1.019991	0.320460	4.288060	-0.595140	-0.791258	0.081970	0.593138	-1.000000	-1.000000	-1.000000	-1.000000	-1.000000	-1.000000	-1.000000	61.000000	0.000000	-1.000000	-1.000000	1545959.000000	1776579493.370506
23206.950000	10937.430000	41414.715000	66219.480000	45967.680000	28229.985000	-5525.280000	23043.555000	0.030211	-0.395230	-0.570975	1.873336	0.922831	-12.757645	-0.908926	1.282704	0.320460	4.288060	-0.595140	-0.791258	0.081970	0.593138	-1.000000	-1.000000	-1.000000	-1.000000	-1.000000	-1.000000	-1.000000	61.000000	0.000000	-1.000000	-1.000000	1545960.000000	1776579493.374472
23204.430000	10932.975000	41409.675000	66211.740000	45959.760000	28236.465000	-5528.205000	23040.585000	3.322948	3.063367	1.702428	0.425586	-8.164249	-28.754202	-4.847858	3.457594	0.320460	4.288060	-0.595140	-0.791258	0.081970	0.593138	-1.000000	-1.000000	-1.000000	-1.000000	-1.000000	-1.000000	-1.000000	61.000000	0.000000	-1.000000	-1.000000	1545961.000000	1776579493.374479
23201.820000	10927.845000	41405.895000	66210.660000	45966.960000	28269.810000	-5522.715000	23039.505000	5.137991	5.037725	2.993195	-1.280034	-13.067097	-30.188777	-6.189073	4.360055	0.320460	4.288060	-0.595140	-0.791258	0.081970	0.593138	-1.000000	-1.000000	-1.000000	-1.000000	-1.000000	-1.000000	-1.000000	61.000000	0.000000	-1.000000	-1.000000	1545962.000000	1776579493.378623
23203.395000	10931.715000	41409.135000	66214.215000	45967.185000	28270.620000	-5523.435000	23041.260000	4.478106	4.384217	2.540691	-2.492133	-11.320097	-15.702629	-4.195095	3.527868	0.320460	4.288060	-0.595140	-0.791258	0.081970	0.593138	-1.000000	-1.000000	-1.000000	-1.000000	-1.000000	-1.000000	-1.000000	61.000000	0.000000	-1.000000	-1.000000	1545963.000000	1776579493.378636
23213.160000	10947.195000	41425.110000	66229.020000	45975.645000	28250.595000	-5532.075000	23046.255000	2.180002	2.266252	1.376600	-2.017601	-4.087774	5.577123	-0.344894	1.627612	0.320460	4.288060	-0.595140	-0.791258	0.081970	0.593138	-1.000000	-1.000000	-1.000000	-1.000000	-1.000000	-1.000000	-1.000000	61.000000	0.000000	-1.000000	-1.000000	1545964.000000	1776579493.382715
23219.460000	10955.340000	41434.740000	66241.530000	45998.505000	28258.290000	-5526.090000	23052.150000	0.215343	1.052509	1.350994	0.772753	5.021572	20.318166	2.826358	-0.009315	0.320460	4.288060	-0.595140	-0.791258	0.081970	0.593138	-1.000000	-1.000000	-1.000000	-1.000000	-1.000000	-1.000000	-1.000000	61.000000	0.000000	-1.000000	-1.000000	1545965.000000	1776579493.382742
23208.705000	10943.685000	41424.030000	66232.575000	46000.125000	28283.580000	-5520.420000	23044.275000	-0.602245	1.184449	2.430913	4.407785	12.295285	22.662247	4.195209	-0.801358	-1.403920	2.487380	0.503580	-0.794493	0.083374	0.592345	-1.000000	-1.000000	-1.000000	-1.000000	-1.000000	-1.000000	-1.000000	61.000000	0.000000	-1.000000	-1.000000	1545966.000000	1776579493.386613
23209.695000	10943.010000	41420.835000	66224.520000	45977.355000	28264.905000	-5517.540000	23045.805000	-1.349623	0.598282	2.220019	5.520846	14.154720	16.176046	4.359707	-1.396625	-1.403920	2.487380	0.503580	-0.794493	0.083374	0.592345	-1.000000	-1.000000	-1.000000	-1.000000	-1.000000	-1.000000	-1.000000	61.000000	0.000000	-1.000000	-1.000000	1545967.000000	1776579493.386636
23210.595000	10938.870000	41416.200000	66220.425000	45977.670000	28263.240000	-5519.700000	23048.055000	-2.744819	-1.990096	-0.767430	2.160125	8.444842	6.036410	3.765177	-2.248704	-1.403920	2.487380	0.503580	-0.794493	0.083374	0.592345	-1.000000	-1.000000	-1.000000	-1.000000	-1.000000	-1.000000	-1.000000	61.000000	0.000000	-1.000000	-1.000000	1545968.000000	1776579493.390637
23202.945000	10929.285000	41405.580000	66209.580000	45970.110000	28254.510000	-5528.340000	23039.910000	-3.995423	-5.359551	-5.129003	-3.862507	-2.195937	-4.392392	2.017890	-2.902824	-1.403920	2.487380	0.503580	-0.794493	0.083374	0.592345	-1.000000	-1.000000	-1.000000	-1.000000	-1.000000	-1.000000	-1.000000	61.000000	0.000000	-1.000000	-1.000000	1545969.000000	1776579493.390648
23197.635000	10924.515000	41401.530000	66208.545000	45972.270000	28264.995000	-5518.800000	23035.860000	-4.346686	-7.529197	-8.289245	-8.765560	-11.406785	-11.787689	-0.827676	-3.096643	-1.403920	2.487380	0.503580	-0.794493	0.083374	0.592345	-1.000000	-1.000000	-1.000000	-1.000000	-1.000000	-1.000000	-1.000000	61.000000	0.000000	-1.000000	-1.000000	1545970.000000	1776579493.394662
23197.185000	10927.620000	41405.175000	66211.965000	45978.885000	28280.250000	-5514.705000	23035.950000	-3.688934	-7.102290	-8.264535	-9.542235	-14.113513	-13.085918	-3.190494	-2.856161	-1.403920	2.487380	0.503580	-0.794493	0.083374	0.592345	-1.000000	-1.000000	-1.000000	-1.000000	-1.000000	-1.000000	-1.000000	61.000000	0.000000	-1.000000	-1.000000	1545971.000000	1776579493.394672
23197.815000	10930.950000	41408.235000	66214.170000	45977.130000	28272.150000	-5520.870000	23035.995000	-1.923266	-3.588514	-4.413063	-5.476732	-9.598539	-8.085181	-3.582829	-1.843810	-1.403920	2.487380	0.503580	-0.794493	0.083374	0.592345	-1.000000	-1.000000	-1.000000	-1.000000	-1.000000	-1.000000	-1.000000	61.000000	0.000000	-1.000000	-1.000000	1545972.000000	1776579493.398481
23199.480000	10934.280000	41413.050000	66218.805000	45981.045000	28269.405000	-5522.850000	23036.355000	0.826301	1.976969	1.908689	1.421163	-1.296922	-0.777847	-2.574397	0.110204	-1.403920	2.487380	0.503580	-0.794493	0.083374	0.592345	-1.000000	-1.000000	-1.000000	-1.000000	-1.000000	-1.000000	-1.000000	61.000000	0.000000	-1.000000	-1.000000	1545973.000000	1776579493.398490
23196.150000	10929.465000	41409.270000	66215.520000	45977.130000	28256.220000	-5527.080000	23033.070000	3.662182	7.041390	7.706608	7.594883	5.969387	3.726869	-1.634503	2.333627	-1.403920	2.487380	0.503580	-0.794493	0.083374	0.592345	-1.000000	-1.000000	-1.000000	-1.000000	-1.000000	-1.000000	-1.000000	61.000000	0.000000	-1.000000	-1.000000	1545974.000000	1776579493.402665
23198.400000	10926.765000	41402.205000	66208.230000	45970.650000	28253.655000	-5523.840000	23040.810000	5.286492	8.949275	9.940665	9.921701	8.907655	3.458934	-1.196733	3.851330	-1.403920	2.487380	0.503580	-0.794493	0.083374	0.592345	-1.000000	-1.000000	-1.000000	-1.000000	-1.000000	-1.000000	-1.000000	61.000000	0.000000	-1.000000	-1.000000	1545975.000000	1776579493.402675
23206.410000	10935.045000	41408.235000	66211.920000	45972.135000	28255.770000	-5519.340000	23048.145000	5.205906	7.048327	7.632527	7.537614	7.062249	0.447735	-0.572036	4.437445	-3.616620	0.732480	0.473060	-0.797178	0.081909	0.591307	-1.000000	-1.000000	-1.000000	-1.000000	-1.000000	-1.000000	-1.000000	61.000000	0.000000	-1.000000	-1.000000	1545976.000000	1776579493.406566
23208.795000	10938.285000	41413.275000	66217.320000	45976.590000	28258.515000	-5518.935000	23047.605000	4.063973	3.262480	2.874060	2.607185	2.764116	-1.658914	0.826306	4.332636	-3.616620	0.732480	0.473060	-0.797178	0.081909	0.591307	-1.000000	-1.000000	-1.000000	-1.000000	-1.000000	-1.000000	-1.000000	61.000000	0.000000	-1.000000	-1.000000	1545977.000000	1776579493.406575
23206.725000	10934.730000	41410.845000	66217.410000	45978.570000	28256.085000	-5521.950000	23045.850000	2.428995	-0.130468	-1.227895	-1.569569	-0.785301	-0.954212	2.408563	3.217057	-3.616620	0.732480	0.473060	-0.797178	0.081909	0.591307	-1.000000	-1.000000	-1.000000	-1.000000	-1.000000	-1.000000	-1.000000	61.000000	0.000000	-1.000000	-1.000000	1545978.000000	1776579493.410755
23199.255000	10924.965000	41400.585000	66205.980000	45969.120000	28242.855000	-5532.795000	23038.020000	0.101802	-2.622147	-3.526920	-3.601601	-2.208208	1.319613	2.752304	0.584156	-3.616620	0.732480	0.473060	-0.797178	0.081909	0.591307	-1.000000	-1.000000	-1.000000	-1.000000	-1.000000	-1.000000	-1.000000	61.000000	0.000000	-1.000000	-1.000000	1545979.000000	1776579493.410781
23201.370000	10929.285000	41403.465000	66206.250000	45967.680000	28250.550000	-5528.250000	23040.495000	-2.880098	-4.590956	-4.665927	-4.308429	-2.400340	2.759057	1.219812	-3.030458	-3.616620	0.732480	0.473060	-0.797178	0.081909	0.591307	-1.000000	-1.000000	-1.000000	-1.000000	-1.000000	-1.000000	-1.000000	61.000000	0.000000	-1.000000	-1.000000	1545980.000000	1776579493.414610
23202.045000	10934.595000	41410.935000	66217.230000	45975.870000	28253.655000	-5529.645000	23038.245000	-5.285964	-5.409353	-4.723587	-4.181393	-2.261968	2.801034	-0.962603	-5.852157	-3.616620	0.732480	0.473060	-0.797178	0.081909	0.591307	-1.000000	-1.000000	-1.000000	-1.000000	-1.000000	-1.000000	-1.000000	61.000000	0.000000	-1.000000	-1.000000	1545981.000000	1776579493.414626
23197.005000	10928.385000	41407.155000	66216.600000	45971.505000	28239.300000	-5539.095000	23032.215000	-5.720597	-4.175003	-3.114113	-2.570141	-1.516068	2.239225	-2.156621	-6.379049	-3.616620	0.732480	0.473060	-0.797178	0.081909	0.591307	-1.000000	-1.000000	-1.000000	-1.000000	-1.000000	-1.000000	-1.000000	61.000000	0.000000	-1.000000	-1.000000	1545982.000000	1776579493.418731
23191.515000	10922.985000	41400.450000	66207.645000	45971.055000	28254.420000	-5535.945000	23027.940000	-4.253977	-1.683330	-0.565332	0.079570	-0.191640	1.322096	-2.072499	-4.756482	-3.616620	0.732480	0.473060	-0.797178	0.081909	0.591307	-1.000000	-1.000000	-1.000000	-1.000000	-1.000000	-1.000000	-1.000000	61.000000	0.000000	-1.000000	-1.000000	1545983.000000	1776579493.418751
23194.125000	10924.920000	41400.315000	66204.405000	45971.235000	28251.495000	-5535.000000	23031.225000	-1.975343	0.359920	1.149482	1.736281	0.875439	0.475101	-1.037038	-2.026949	-3.616620	0.732480	0.473060	-0.797178	0.081909	0.591307	-1.000000	-1.000000	-1.000000	-1.000000	-1.000000	-1.000000	-1.000000	61.000000	0.000000	-1.000000	-1.000000	1545984.000000	1776579493.422645
23200.515000	10929.780000	41403.105000	66207.465000	45969.750000	28246.545000	-5533.650000	23037.885000	0.533079	1.495057	1.443354	1.406950	1.176308	0.121204	0.708018	1.175100	-3.616620	0.732480	0.473060	-0.797178	0.081909	0.591307	-1.000000	-1.000000	-1.000000	-1.000000	-1.000000	-1.000000	-1.000000	61.000000	0.000000	-1.000000	-1.000000	1545985.000000	1776579493.422663
23197.320000	10923.930000	41396.760000	66200.715000	45962.595000	28246.275000	-5536.980000	23035.410000	3.065700	2.228232	1.094436	0.143542	0.705200	-0.344392	2.427396	4.315870	-3.052000	1.068200	-0.656180	-0.797666	0.079162	0.590086	-1.000000	-1.000000	-1.000000	-1.000000	-1.000000	-1.000000	-1.000000	61.000000	0.000000	-1.000000	-1.000000	1545986.000000	1776579493.426543
23197.680000	10926.180000	41400.180000	66204.135000	45964.395000	28244.430000	-5537.655000	23036.130000	4.763496	2.548609	0.749810	-0.706195	-0.307126	-1.316724	3.069860	6.194735	-3.052000	1.068200	-0.656180	-0.797666	0.079162	0.590086	-1.000000	-1.000000	-1.000000	-1.000000	-1.000000	-1.000000	-1.000000	61.000000	0.000000	-1.000000	-1.000000	1545987.000000	1776579493.426553
23202.270000	10931.985000	41407.335000	66213.360000	45972.990000	28238.490000	-5536.215000	23039.955000	4.747422	2.280839	0.766480	-0.391881	-0.993949	-2.325783	2.289277	5.818328	-3.052000	1.068200	-0.656180	-0.797666	0.079162	0.590086	-1.000000	-1.000000	-1.000000	-1.000000	-1.000000	-1.000000	-1.000000	61.000000	0.000000	-1.000000	-1.000000	1545988.000000	1776579493.432171
23199.570000	10930.725000	41407.155000	66214.755000	45973.845000	28233.990000	-5541.795000	23036.040000	3.202098	1.761570	1.408397	1.237263	-0.333847	-2.911512	0.665549	3.476977	-3.052000	1.068200	-0.656180	-0.797666	0.079162	0.590086	-1.000000	-1.000000	-1.000000	-1.000000	-1.000000	-1.000000	-1.000000	61.000000	0.000000	-1.000000	-1.000000	1545989.000000	1776579493.432191
23197.635000	10928.385000	41405.220000	66213.090000	45972.405000	28240.830000	-5542.380000	23034.240000	0.860009	1.084650	2.104605	3.101195	1.316518	-2.684139	-1.056640	0.197386	-3.052000	1.068200	-0.656180	-0.797666	0.079162	0.590086	-1.000000	-1.000000	-1.000000	-1.000000	-1.000000	-1.000000	-1.000000	61.000000	0.000000	-1.000000	-1.000000	1545990.000000	1776579493.434709
23198.895000	10930.185000	41403.285000	66206.790000	45969.885000	28245.960000	-5537.295000	23036.220000	-1.549245	-0.011946	1.750453	3.351247	2.316513	-1.069279	-2.165056	-2.852284	-3.052000	1.068200	-0.656180	-0.797666	0.079162	0.590086	-1.000000	-1.000000	-1.000000	-1.000000	-1.000000	-1.000000	-1.000000	61.000000	0.000000	-1.000000	-1.000000	1545991.000000	1776579493.434721
23198.670000	10928.250000	41402.790000	66208.410000	45970.605000	28236.420000	-5540.760000	23035.995000	-3.171040	-1.322661	0.092160	1.263940	1.625982	1.581750	-2.051587	-4.490138	-3.052000	1.068200	-0.656180	-0.797666	0.079162	0.590086	-1.000000	-1.000000	-1.000000	-1.000000	-1.000000	-1.000000	-1.000000	61.000000	0.000000	-1.000000	-1.000000	1545992.000000	1776579493.438700
23191.785000	10919.385000	41396.895000	66206.205000	45967.500000	28228.590000	-5544.720000	23030.505000	-3.546393	-2.420759	-2.029520	-1.875572	-0.260398	3.287421	-1.043312	-4.297657	-3.052000	1.068200	-0.656180	-0.797666	0.079162	0.590086	-1.000000	-1.000000	-1.000000	-1.000000	-1.000000	-1.000000	-1.000000	61.000000	0.000000	-1.000000	-1.000000	1545993.000000	1776579493.438707
23179.005000	10904.220000	41380.155000	66184.695000	45955.035000	28260.765000	-5543.280000	23018.760000	-3.245195	-3.427942	-3.848299	-4.424246	-2.322790	3.087142	-0.150318	-3.167885	-3.052000	1.068200	-0.656180	-0.797666	0.079162	0.590086	-1.000000	-1.000000	-1.000000	-1.000000	-1.000000	-1.000000	-1.000000	61.000000	0.000000	-1.000000	-1.000000	1545994.000000	1776579493.442669
23180.175000	10908.810000	41385.285000	66191.535000	45958.275000	28256.625000	-5547.465000	23019.255000	-3.007002	-4.318094	-4.975742	-5.777561	-3.853381	2.748150	0.168711	-2.245434	-3.052000	1.068200	-0.656180	-0.797666	0.079162	0.590086	-1.000000	-1.000000	-1.000000	-1.000000	-1.000000	-1.000000	-1.000000	61.000000	0.000000	-1.000000	-1.000000	1545995.000000	1776579493.442683
23189.670000	10919.160000	41396.535000	66202.830000	45966.420000	28251.630000	-5543.955000	23028.300000	-2.222554	-3.707976	-4.252276	-5.013011	-3.838644	3.062652	0.163106	-1.273757	0.579880	1.541260	-0.854560	-0.794859	0.077698	0.591551	-1.000000	-1.000000	-1.000000	-1.000000	-1.000000	-1.000000	-1.000000	61.000000	0.000000	-1.000000	-1.000000	1545996.000000	1776579493.446731
23190.660000	10916.280000	41391.495000	66197.385000	45961.605000	28248.480000	-5539.905000	23032.080000	0.296544	-0.356806	-0.715898	-1.246196	-1.522394	2.101513	0.354152	0.909054	0.579880	1.541260	-0.854560	-0.794859	0.077698	0.591551	-1.000000	-1.000000	-1.000000	-1.000000	-1.000000	-1.000000	-1.000000	61.000000	0.000000	-1.000000	-1.000000	1545997.000000	1776579493.446762
23196.060000	10923.210000	41399.235000	66204.585000	45966.645000	28247.670000	-5533.245000	23038.020000	4.028660	4.399551	4.113321	3.919867	1.990298	-1.097663	1.149606	4.167585	0.579880	1.541260	-0.854560	-0.794859	0.077698	0.591551	-1.000000	-1.000000	-1.000000	-1.000000	-1.000000	-1.000000	-1.000000	61.000000	0.000000	-1.000000	-1.000000	1545998.000000	1776579493.450772
23194.845000	10924.605000	41402.250000	66209.220000	45968.130000	28230.705000	-5544.630000	23033.520000	6.781349	7.730789	7.443589	7.557753	4.626103	-5.098081	2.061814	6.586352	0.579880	1.541260	-0.854560	-0.794859	0.077698	0.591551	-1.000000	-1.000000	-1.000000	-1.000000	-1.000000	-1.000000	-1.000000	61.000000	0.000000	-1.000000	-1.000000	1545999.000000	1776579493.450782
23197.410000	10927.620000	41404.680000	66210.570000	45967.500000	28223.550000	-5553.090000	23033.970000	6.750179	7.896429	7.746039	8.098381	5.185527	-8.112896	1.605868	6.191159	0.579880	1.541260	-0.854560	-0.794859	0.077698	0.591551	-1.000000	-1.000000	-1.000000	-1.000000	-1.000000	-1.000000	-1.000000	61.000000	0.000000	-1.000000	-1.000000	1546000.000000	1776579493.454673
23195.160000	10924.155000	41400.585000	66205.575000	45964.800000	28246.725000	-5544.405000	23033.430000	3.845989	4.928192	5.039250	5.490603	3.561862	-8.333074	-0.673907	2.822906	0.579880	1.541260	-0.854560	-0.794859	0.077698	0.591551	-1.000000	-1.000000	-1.000000	-1.000000	-1.000000	-1.000000	-1.000000	61.000000	0.000000	-1.000000	-1.000000	1546001.000000	1776579493.454682
23189.715000	10916.910000	41394.060000	66201.210000	45969.210000	28274.895000	-5531.985000	23029.515000	-0.591741	0.018770	0.291604	0.645271	0.604529	-3.585453	-2.619845	-1.738545	0.579880	1.541260	-0.854560	-0.794859	0.077698	0.591551	-1.000000	-1.000000	-1.000000	-1.000000	-1.000000	-1.000000	-1.000000	61.000000	0.000000	-1.000000	-1.000000	1546002.000000	1776579493.458783
23190.120000	10917.315000	41394.240000	66200.265000	45966.060000	28255.410000	-5537.790000	23029.920000	-4.750841	-5.015915	-4.760195	-4.569583	-2.170471	5.210753	-2.007925	-5.310586	0.579880	1.541260	-0.854560	-0.794859	0.077698	0.591551	-1.000000	-1.000000	-1.000000	-1.000000	-1.000000	-1.000000	-1.000000	61.000000	0.000000	-1.000000	-1.000000	1546003.000000	1776579493.458799
23191.605000	10920.420000	41398.380000	66202.470000	45963.360000	28243.935000	-5546.610000	23029.110000	-6.907963	-7.999468	-7.836373	-7.795920	-3.702277	11.730262	0.138870	-6.507524	0.579880	1.541260	-0.854560	-0.794859	0.077698	0.591551	-1.000000	-1.000000	-1.000000	-1.000000	-1.000000	-1.000000	-1.000000	61.000000	0.000000	-1.000000	-1.000000	1546004.000000	1776579493.462775
23192.730000	10922.805000	41401.035000	66206.970000	45971.055000	28254.465000	-5539.590000	23033.925000	-6.131427	-7.416931	-7.305373	-7.464882	-3.765633	10.508957	1.204923	-5.058914	0.579880	1.541260	-0.854560	-0.794859	0.077698	0.591551	-1.000000	-1.000000	-1.000000	-1.000000	-1.000000	-1.000000	-1.000000	61.000000	0.000000	-1.000000	-1.000000	1546005.000000	1776579493.462795
23191.560000	10920.780000	41399.460000	66207.420000	45972.675000	28249.290000	-5537.565000	23033.025000	-3.044975	-3.784724	-3.657408	-3.918445	-2.372526	3.312899	0.703094	-1.797509	1.815940	1.800680	-0.061040	-0.791746	0.079040	0.593687	-1.000000	-1.000000	-1.000000	-1.000000	-1.000000	-1.000000	-1.000000	61.000000	0.000000	-1.000000	-1.000000	1546006.000000	1776579493.466781
23193.495000	10923.525000	41401.305000	66207.195000	45967.995000	28238.580000	-5539.320000	23033.340000	0.592436	0.659442	0.782341	0.705459	-0.151713	-4.359872	-0.058026	1.642914	1.815940	1.800680	-0.061040	-0.791746	0.079040	0.593687	-1.000000	-1.000000	-1.000000	-1.000000	-1.000000	-1.000000	-1.000000	61.000000	0.000000	-1.000000	-1.000000	1546007.000000	1776579493.466794
23198.535000	10927.710000	41405.085000	66209.895000	45970.830000	28251.180000	-5535.900000	23036.130000	3.270377	3.854578	3.839915	3.998207	1.500986	-8.727374	-0.331223	3.732790	1.815940	1.800680	-0.061040	-0.791746	0.079040	0.593687	-1.000000	-1.000000	-1.000000	-1.000000	-1.000000	-1.000000	-1.000000	61.000000	0.000000	-1.000000	-1.000000	1546008.000000	1776579493.470721
23193.900000	10922.760000	41399.685000	66204.720000	45970.155000	28259.280000	-5540.490000	23030.955000	4.348671	4.942772	4.666172	4.767371	1.801854	-8.122625	-0.267409	3.886120	1.815940	1.800680	-0.061040	-0.791746	0.079040	0.593687	-1.000000	-1.000000	-1.000000	-1.000000	-1.000000	-1.000000	-1.000000	61.000000	0.000000	-1.000000	-1.000000	1546009.000000	1776579493.470733
23194.260000	10923.930000	41400.540000	66203.910000	45969.345000	28252.845000	-5543.190000	23031.135000	3.662722	3.901866	3.396242	3.192551	1.106296	-3.273705	-0.339018	2.373318	1.815940	1.800680	-0.061040	-0.791746	0.079040	0.593687	-1.000000	-1.000000	-1.000000	-1.000000	-1.000000	-1.000000	-1.000000	61.000000	0.000000	-1.000000	-1.000000	1546010.000000	1776579493.474901
23189.220000	10918.845000	41395.905000	66198.870000	45962.235000	28239.435000	-5553.675000	23024.520000	1.528575	1.393305	0.867849	0.378170	-0.018993	2.023630	-0.968446	0.001957	1.815940	1.800680	-0.061040	-0.791746	0.079040	0.593687	-1.000000	-1.000000	-1.000000	-1.000000	-1.000000	-1.000000	-1.000000	61.000000	0.000000	-1.000000	-1.000000	1546011.000000	1776579493.474923
23191.200000	10920.960000	41398.335000	66201.930000	45965.610000	28243.485000	-5552.505000	23027.490000	-1.037641	-1.318087	-1.586484	-2.125553	-1.155663	4.010601	-1.999588	-2.105420	1.815940	1.800680	-0.061040	-0.791746	0.079040	0.593687	-1.000000	-1.000000	-1.000000	-1.000000	-1.000000	-1.000000	-1.000000	61.000000	0.000000	-1.000000	-1.000000	1546012.000000	1776579493.478754
23192.280000	10920.600000	41399.505000	66204.585000	45972.855000	28248.255000	-5542.650000	23030.685000	-2.701969	-2.929515	-2.739948	-2.961573	-1.527566	2.755345	-2.264563	-2.824491	1.815940	1.800680	-0.061040	-0.791746	0.079040	0.593687	-1.000000	-1.000000	-1.000000	-1.000000	-1.000000	-1.000000	-1.000000	61.000000	0.000000	-1.000000	-1.000000	1546013.000000	1776579493.478771
23192.190000	10920.870000	41400.270000	66205.890000	45971.865000	28245.555000	-5543.010000	23030.460000	-2.663098	-2.813586	-2.145108	-1.747230	-0.463999	0.974729	-0.548386	-1.697110	1.815940	1.800680	-0.061040	-0.791746	0.079040	0.593687	-1.000000	-1.000000	-1.000000	-1.000000	-1.000000	-1.000000	-1.000000	61.000000	0.000000	-1.000000	-1.000000	1546014.000000	1776579493.482909
23189.355000	10918.755000	41398.110000	66203.685000	45967.095000	28242.045000	-5547.915000	23027.805000	-1.320124	-1.418541	-0.486921	0.496539	1.280333	0.227953	2.396364	0.387973	1.815940	1.800680	-0.061040	-0.791746	0.079040	0.593687	-1.000000	-1.000000	-1.000000	-1.000000	-1.000000	-1.000000	-1.000000	61.000000	0.000000	-1.000000	-1.000000	1546015.000000	1776579493.482924
23191.380000	10921.275000	41400.495000	66206.970000	45975.285000	28251.720000	-5545.170000	23031.315000	0.209295	0.239303	1.027168	2.181992	2.197985	0.313451	4.272464	1.938126	-0.213640	1.861720	1.831200	-0.791624	0.081482	0.593199	-1.000000	-1.000000	-1.000000	-1.000000	-1.000000	-1.000000	-1.000000	61.000000	0.000000	-1.000000	-1.000000	1546016.000000	1776579493.486768
23185.755000	10915.155000	41394.555000	66202.695000	45976.410000	28265.895000	-5546.970000	23026.005000	1.089987	1.333029	1.599515	2.441533	1.963771	1.152877	3.856020	2.191990	-0.213640	1.861720	1.831200	-0.791624	0.081482	0.593199	-1.000000	-1.000000	-1.000000	-1.000000	-1.000000	-1.000000	-1.000000	61.000000	0.000000	-1.000000	-1.000000	1546017.000000	1776579493.486778
23188.185000	10917.810000	41396.400000	66201.390000	45962.325000	28249.155000	-5552.505000	23026.005000	1.102626	1.485851	1.107604	1.340672	0.947324	2.434187	1.672714	1.251254	-0.213640	1.861720	1.831200	-0.791624	0.081482	0.593199	-1.000000	-1.000000	-1.000000	-1.000000	-1.000000	-1.000000	-1.000000	61.000000	0.000000	-1.000000	-1.000000	1546018.000000	1776579493.490767
23183.865000	10912.725000	41390.505000	66193.875000	45953.505000	28232.820000	-5565.735000	23019.435000	0.559205	0.877786	0.001220	-0.552944	-1.094439	2.081917	-1.326909	-0.342680	-0.213640	1.861720	1.831200	-0.791624	0.081482	0.593199	-1.000000	-1.000000	-1.000000	-1.000000	-1.000000	-1.000000	-1.000000	61.000000	0.000000	-1.000000	-1.000000	1546019.000000	1776579493.490785
23182.110000	10911.510000	41389.785000	66193.785000	45953.550000	28227.690000	-5569.875000	23016.330000	-0.075450	0.004085	-1.056879	-2.396370	-3.797233	-1.482823	-4.262099	-1.890756	-0.213640	1.861720	1.831200	-0.791624	0.081482	0.593199	-1.000000	-1.000000	-1.000000	-1.000000	-1.000000	-1.000000	-1.000000	61.000000	0.000000	-1.000000	-1.000000	1546020.000000	1776579493.494744
23184.720000	10916.595000	41395.185000	66198.510000	45957.420000	28221.750000	-5563.440000	23020.245000	-0.452472	-0.578381	-1.423777	-3.109828	-5.153495	-6.240938	-5.683029	-2.625502	-0.213640	1.861720	1.831200	-0.791624	0.081482	0.593199	-1.000000	-1.000000	-1.000000	-1.000000	-1.000000	-1.000000	-1.000000	61.000000	0.000000	-1.000000	-1.000000	1546021.000000	1776579493.494765
23198.805000	10933.020000	41413.815000	66215.610000	45970.155000	28215.495000	-5555.790000	23034.015000	-0.011749	-0.046589	-0.300570	-1.634741	-3.231938	-8.452392	-3.964555	-1.637541	-0.213640	1.861720	1.831200	-0.791624	0.081482	0.593199	-1.000000	-1.000000	-1.000000	-1.000000	-1.000000	-1.000000	-1.000000	61.000000	0.000000	-1.000000	-1.000000	1546022.000000	1776579493.498846
23196.195000	10930.995000	41411.430000	66213.945000	45963.270000	28193.535000	-5573.925000	23028.615000	1.548236	1.902646	2.411015	1.908967	1.494676	-6.742785	0.374868	1.155769	-0.213640	1.861720	1.831200	-0.791624	0.081482	0.593199	-1.000000	-1.000000	-1.000000	-1.000000	-1.000000	-1.000000	-1.000000	61.000000	0.000000	-1.000000	-1.000000	1546023.000000	1776579493.498877
23191.515000	10923.885000	41404.050000	66208.455000	45966.510000	28210.455000	-5569.875000	23024.340000	3.009462	3.627558	4.679355	5.140971	5.952407	-2.423330	4.164604	3.809271	-0.213640	1.861720	1.831200	-0.791624	0.081482	0.593199	-1.000000	-1.000000	-1.000000	-1.000000	-1.000000	-1.000000	-1.000000	61.000000	0.000000	-1.000000	-1.000000	1546024.000000	1776579493.502659
23186.115000	10915.065000	41394.510000	66201.660000	45975.060000	28265.310000	-5540.130000	23025.690000	2.423928	2.656725	3.685975	5.042733	7.367524	4.156624	5.630622	3.975415	-0.213640	1.861720	1.831200	-0.791624	0.081482	0.593199	-1.000000	-1.000000	-1.000000	-1.000000	-1.000000	-1.000000	-1.000000	61.000000	0.000000	-1.000000	-1.000000	1546025.000000	1776579493.502672
23186.295000	10914.210000	41391.360000	66197.970000	45971.055000	28281.285000	-5535.090000	23027.310000	-0.435324	-1.258581	-0.841283	1.123903	5.578475	13.488112	6.296898	1.645034	-2.456860	1.861720	1.190280	-0.792051	0.082702	0.593504	-1.000000	-1.000000	-1.000000	-1.000000	-1.000000	-1.000000	-1.000000	61.000000	0.000000	-1.000000	-1.000000	1546026.000000	1776579493.506901
23190.795000	10916.910000	41392.980000	66196.710000	45968.805000	28279.440000	-5531.940000	23033.970000	-3.520034	-5.403217	-5.889317	-4.007686	1.833929	21.528014	6.860761	-1.095882	-2.456860	1.861720	1.190280	-0.792051	0.082702	0.593504	-1.000000	-1.000000	-1.000000	-1.000000	-1.000000	-1.000000	-1.000000	61.000000	0.000000	-1.000000	-1.000000	1546027.000000	1776579493.506919
23194.710000	10921.995000	41397.930000	66200.805000	45968.490000	28268.595000	-5532.480000	23036.625000	-4.440337	-6.570491	-7.771421	-6.921352	-2.460695	20.599338	5.420370	-2.326656	-2.456860	1.861720	1.190280	-0.792051	0.082702	0.593504	-1.000000	-1.000000	-1.000000	-1.000000	-1.000000	-1.000000	-1.000000	61.000000	0.000000	-1.000000	-1.000000	1546028.000000	1776579493.510765
23191.380000	10920.195000	41395.545000	66197.385000	45963.000000	28255.320000	-5542.740000	23032.845000	-2.690524	-3.910231	-5.211734	-5.939320	-5.764533	7.743164	0.632326	-1.866811	-2.456860	1.861720	1.190280	-0.792051	0.082702	0.593504	-1.000000	-1.000000	-1.000000	-1.000000	-1.000000	-1.000000	-1.000000	61.000000	0.000000	-1.000000	-1.000000	1546029.000000	1776579493.510774
23187.195000	10916.325000	41391.630000	66194.595000	45960.975000	28248.570000	-5549.535000	23028.435000	-0.001831	0.486435	-0.242177	-2.189029	-7.003252	-11.347539	-6.331874	-1.090320	-2.456860	1.861720	1.190280	-0.792051	0.082702	0.593504	-1.000000	-1.000000	-1.000000	-1.000000	-1.000000	-1.000000	-1.000000	61.000000	0.000000	-1.000000	-1.000000	1546030.000000	1776579493.514923
23187.420000	10917.945000	41395.590000	66200.265000	45965.475000	28247.805000	-5551.695000	23026.995000	1.576993	3.697253	3.925957	1.845345	-5.885515	-26.476085	-12.323850	-1.183801	-2.456860	1.861720	1.190280	-0.792051	0.082702	0.593504	-1.000000	-1.000000	-1.000000	-1.000000	-1.000000	-1.000000	-1.000000	61.000000	0.000000	-1.000000	-1.000000	1546031.000000	1776579493.514939
23188.275000	10919.835000	41399.055000	66204.945000	45970.785000	28252.305000	-5553.405000	23025.735000	1.587109	4.470301	5.682668	4.605389	-2.636931	-29.870399	-14.028268	-1.902532	-2.456860	1.861720	1.190280	-0.792051	0.082702	0.593504	-1.000000	-1.000000	-1.000000	-1.000000	-1.000000	-1.000000	-1.000000	61.000000	0.000000	-1.000000	-1.000000	1546032.000000	1776579493.518743
23190.345000	10921.860000	41399.955000	66206.295000	45975.555000	28258.020000	-5553.180000	23026.275000	0.965027	3.483068	5.320879	5.735746	1.771971	-20.572687	-10.267448	-2.158482	-2.456860	1.861720	1.190280	-0.792051	0.082702	0.593504	-1.000000	-1.000000	-1.000000	-1.000000	-1.000000	-1.000000	-1.000000	61.000000	0.000000	-1.000000	-1.000000	1546033.000000	1776579493.518751
23192.100000	10923.660000	41401.035000	66205.395000	45971.910000	28253.610000	-5555.430000	23027.715000	0.661278	1.932632	3.637200	5.106621	5.442143	-4.230778	-2.830511	-1.246768	-2.456860	1.861720	1.190280	-0.792051	0.082702	0.593504	-1.000000	-1.000000	-1.000000	-1.000000	-1.000000	-1.000000	-1.000000	61.000000	0.000000	-1.000000	-1.000000	1546034.000000	1776579493.522711
23192.955000	10924.200000	41401.170000	66204.090000	45967.185000	28252.035000	-5551.470000	23029.020000	0.854178	0.544010	1.295990	2.764325	6.360470	10.746424	4.897159	0.621506	-2.456860	1.861720	1.190280	-0.792051	0.082702	0.593504	-1.000000	-1.000000	-1.000000	-1.000000	-1.000000	-1.000000	-1.000000	61.000000	0.000000	-1.000000	-1.000000	1546035.000000	1776579493.522721
23190.480000	10919.385000	41396.625000	66201.210000	45967.140000	28255.365000	-5548.095000	23028.570000	1.044299	-0.610782	-1.141106	-0.586039	3.984323	18.350305	10.101505	2.522019	-2.868880	1.678600	0.274680	-0.791990	0.083069	0.594237	-1.000000	-1.000000	-1.000000	-1.000000	-1.000000	-1.000000	-1.000000	61.000000	0.000000	-1.000000	-1.000000	1546036.000000	1776579493.527988
23194.035000	10921.860000	41399.325000	66201.390000	45962.820000	28227.240000	-5547.285000	23032.530000	0.723666	-1.694251	-3.143214	-3.659467	-0.108584	17.226702	11.583519	3.509249	-2.868880	1.678600	0.274680	-0.791990	0.083069	0.594237	-1.000000	-1.000000	-1.000000	-1.000000	-1.000000	-1.000000	-1.000000	61.000000	0.000000	-1.000000	-1.000000	1546037.000000	1776579493.527997
23196.195000	10923.750000	41400.810000	66203.910000	45967.905000	28231.245000	-5547.870000	23034.645000	0.043748	-2.409264	-4.028125	-5.134989	-3.451965	9.511934	9.471948	3.308989	-2.868880	1.678600	0.274680	-0.791990	0.083069	0.594237	-1.000000	-1.000000	-1.000000	-1.000000	-1.000000	-1.000000	-1.000000	61.000000	0.000000	-1.000000	-1.000000	1546038.000000	1776579493.534428
23188.950000	10917.720000	41393.205000	66199.005000	45971.505000	28225.665000	-5556.735000	23028.885000	-0.600910	-2.318795	-3.491723	-4.477554	-4.261739	-0.041188	4.713864	2.118930	-2.868880	1.678600	0.274680	-0.791990	0.083069	0.594237	-1.000000	-1.000000	-1.000000	-1.000000	-1.000000	-1.000000	-1.000000	61.000000	0.000000	-1.000000	-1.000000	1546039.000000	1776579493.534451
23186.070000	10916.640000	41393.430000	66198.465000	45966.645000	28232.640000	-5557.095000	23024.340000	-1.324456	-1.685450	-2.193298	-2.433572	-2.507222	-6.084495	-1.123134	0.062458	-2.868880	1.678600	0.274680	-0.791990	0.083069	0.594237	-1.000000	-1.000000	-1.000000	-1.000000	-1.000000	-1.000000	-1.000000	61.000000	0.000000	-1.000000	-1.000000	1546040.000000	1776579493.534934
23188.230000	10923.570000	41396.130000	66190.320000	45960.345000	28257.210000	-5550.615000	23022.045000	-2.114404	-0.870888	-0.824250	-0.377995	-0.056345	-5.804817	-5.757060	-2.425139	-2.868880	1.678600	0.274680	-0.791990	0.083069	0.594237	-1.000000	-1.000000	-1.000000	-1.000000	-1.000000	-1.000000	-1.000000	61.000000	0.000000	-1.000000	-1.000000	1546041.000000	1776579493.534946
23190.255000	10926.585000	41398.425000	66192.480000	45966.555000	28262.115000	-5545.395000	23024.520000	-2.199394	0.378205	0.642954	0.811490	1.225984	-0.085792	-6.986452	-4.141844	-2.868880	1.678600	0.274680	-0.791990	0.083069	0.594237	-1.000000	-1.000000	-1.000000	-1.000000	-1.000000	-1.000000	-1.000000	61.000000	0.000000	-1.000000	-1.000000	1546042.000000	1776579493.538874
23192.145000	10925.955000	41401.485000	66200.445000	45968.445000	28261.710000	-5547.375000	23027.760000	-0.992292	1.991341	2.226143	1.452530	1.369984	6.600455	-4.613553	-3.848064	-2.868880	1.678600	0.274680	-0.791990	0.083069	0.594237	-1.000000	-1.000000	-1.000000	-1.000000	-1.000000	-1.000000	-1.000000	61.000000	0.000000	-1.000000	-1.000000	1546043.000000	1776579493.538888
23195.070000	10926.720000	41403.735000	66205.125000	45964.485000	28246.815000	-5548.995000	23032.935000	1.043512	3.000354	3.432503	2.506432	1.292410	8.624520	-0.890190	-1.401029	-2.868880	1.678600	0.274680	-0.791990	0.083069	0.594237	-1.000000	-1.000000	-1.000000	-1.000000	-1.000000	-1.000000	-1.000000	61.000000	0.000000	-1.000000	-1.000000	1546044.000000	1776579493.542832
23192.955000	10921.725000	41398.605000	66201.390000	45964.395000	28231.560000	-5554.080000	23032.530000	2.746316	2.510215	3.525869	3.875787	1.103450	3.497920	1.500978	1.924865	-2.868880	1.678600	0.274680	-0.791990	0.083069	0.594237	-1.000000	-1.000000	-1.000000	-1.000000	-1.000000	-1.000000	-1.000000	61.000000	0.000000	-1.000000	-1.000000	1546045.000000	1776579493.542840
23188.815000	10916.370000	41392.665000	66195.180000	45955.080000	28207.035000	-5561.415000	23028.120000	3.002417	0.493170	1.955014	4.029598	0.383333	-6.376997	1.406549	4.104387	-2.060100	1.648080	0.824040	-0.792539	0.081482	0.593260	-1.000000	-1.000000	-1.000000	-1.000000	-1.000000	-1.000000	-1.000000	61.000000	0.000000	-1.000000	-1.000000	1546046.000000	1776579493.546880
23194.530000	10924.335000	41400.765000	66204.045000	45970.110000	28243.845000	-5551.290000	23030.910000	1.628588	-1.980689	-0.761429	2.083070	-0.645699	-14.694913	-0.248791	3.810524	-2.060100	1.648080	0.824040	-0.792539	0.081482	0.593260	-1.000000	-1.000000	-1.000000	-1.000000	-1.000000	-1.000000	-1.000000	61.000000	0.000000	-1.000000	-1.000000	1546047.000000	1776579493.546904
23189.895000	10920.555000	41399.550000	66206.610000	45980.370000	28266.390000	-5548.590000	23026.590000	-0.329739	-3.202988	-2.829540	-0.648742	-0.646023	-14.238933	-1.211369	1.496440	-2.060100	1.648080	0.824040	-0.792539	0.081482	0.593260	-1.000000	-1.000000	-1.000000	-1.000000	-1.000000	-1.000000	-1.000000	61.000000	0.000000	-1.000000	-1.000000	1546048.000000	1776579493.550817
23182.965000	10908.720000	41387.625000	66198.780000	45978.480000	28260.540000	-5556.330000	23020.920000	-1.869925	-2.690150	-3.183174	-2.421872	1.105192	-3.664045	-0.336954	-1.375952	-2.060100	1.648080	0.824040	-0.792539	0.081482	0.593260	-1.000000	-1.000000	-1.000000	-1.000000	-1.000000	-1.000000	-1.000000	61.000000	0.000000	-1.000000	-1.000000	1546049.000000	1776579493.550833
23187.645000	10915.335000	41393.970000	66200.355000	45972.135000	28247.985000	-5559.840000	23024.205000	-2.714812	-1.537910	-2.507289	-3.081527	2.848400	9.064539	1.052405	-3.487487	-2.060100	1.648080	0.824040	-0.792539	0.081482	0.593260	-1.000000	-1.000000	-1.000000	-1.000000	-1.000000	-1.000000	-1.000000	61.000000	0.000000	-1.000000	-1.000000	1546050.000000	1776579493.554976
23185.530000	10913.985000	41394.465000	66199.905000	45966.105000	28236.330000	-5559.660000	23021.190000	-2.541793	-0.337682	-1.389923	-3.089397	2.125239	14.117618	1.321375	-3.885685	-2.060100	1.648080	0.824040	-0.792539	0.081482	0.593260	-1.000000	-1.000000	-1.000000	-1.000000	-1.000000	-1.000000	-1.000000	61.000000	0.000000	-1.000000	-1.000000	1546051.000000	1776579493.554996
23180.985000	10909.890000	41387.265000	66187.935000	45950.355000	28224.720000	-5565.960000	23017.770000	-1.301479	1.011155	0.107781	-2.644146	-1.440007	8.847378	0.460735	-2.526545	-2.060100	1.648080	0.824040	-0.792539	0.081482	0.593260	-1.000000	-1.000000	-1.000000	-1.000000	-1.000000	-1.000000	-1.000000	61.000000	0.000000	-1.000000	-1.000000	1546052.000000	1776579493.558754
23181.030000	10909.530000	41386.275000	66191.760000	45959.940000	28243.755000	-5558.220000	23021.055000	0.219611	2.064163	1.308755	-2.048362	-5.690456	-1.231460	-0.492142	-0.361031	-2.060100	1.648080	0.824040	-0.792539	0.081482	0.593260	-1.000000	-1.000000	-1.000000	-1.000000	-1.000000	-1.000000	-1.000000	61.000000	0.000000	-1.000000	-1.000000	1546053.000000	1776579493.558774
23182.020000	10912.005000	41389.020000	66194.775000	45960.930000	28240.695000	-5555.475000	23023.305000	1.319807	2.372764	1.665929	-1.123847	-7.254149	-7.975318	-0.434436	1.728989	-2.060100	1.648080	0.824040	-0.792539	0.081482	0.593260	-1.000000	-1.000000	-1.000000	-1.000000	-1.000000	-1.000000	-1.000000	61.000000	0.000000	-1.000000	-1.000000	1546054.000000	1776579493.563187
23177.205000	10909.305000	41388.030000	66194.100000	45961.560000	28242.675000	-5560.695000	23017.680000	1.858253	2.097144	1.575821	0.640665	-4.433209	-7.607258	0.753009	3.154403	-2.060100	1.648080	0.824040	-0.792539	0.081482	0.593260	-1.000000	-1.000000	-1.000000	-1.000000	-1.000000	-1.000000	-1.000000	61.000000	0.000000	-1.000000	-1.000000	1546055.000000	1776579493.563198
23179.005000	10911.195000	41390.010000	66197.520000	45967.680000	28249.110000	-5562.765000	23018.400000	1.806027	1.488459	1.517679	2.824556	1.096129	-2.427173	1.757413	3.275920	-0.091560	1.876980	2.075360	-0.792051	0.080444	0.592101	-1.000000	-1.000000	-1.000000	-1.000000	-1.000000	-1.000000	-1.000000	61.000000	0.000000	-1.000000	-1.000000	1546056.000000	1776579493.566821
23193.090000	10925.820000	41403.285000	66205.485000	45968.895000	28237.860000	-5562.045000	23029.740000	1.571449	0.968824	1.706636	4.436548	6.142053	3.010696	1.433989	2.255478	-0.091560	1.876980	2.075360	-0.792051	0.080444	0.592101	-1.000000	-1.000000	-1.000000	-1.000000	-1.000000	-1.000000	-1.000000	61.000000	0.000000	-1.000000	-1.000000	1546057.000000	1776579493.566833
23199.300000	10933.785000	41411.340000	66213.630000	45972.855000	28227.195000	-5558.355000	23036.220000	2.040389	1.284536	2.406131	5.031654	8.354078	5.041305	0.212968	1.385424	-0.091560	1.876980	2.075360	-0.792051	0.080444	0.592101	-1.000000	-1.000000	-1.000000	-1.000000	-1.000000	-1.000000	-1.000000	61.000000	0.000000	-1.000000	-1.000000	1546058.000000	1776579493.570953
23192.775000	10926.180000	41403.330000	66205.305000	45968.805000	28236.600000	-5556.735000	23031.045000	2.939273	2.106642	3.061645	4.355268	7.019159	2.924414	-0.678649	1.254051	-0.091560	1.876980	2.075360	-0.792051	0.080444	0.592101	-1.000000	-1.000000	-1.000000	-1.000000	-1.000000	-1.000000	-1.000000	61.000000	0.000000	-1.000000	-1.000000	1546059.000000	1776579493.570990
23183.460000	10914.480000	41392.530000	66196.080000	45964.890000	28257.345000	-5556.735000	23022.720000	2.330200	1.419160	1.872605	1.716303	2.888033	-0.156948	-0.686053	0.639638	-0.091560	1.876980	2.075360	-0.792051	0.080444	0.592101	-1.000000	-1.000000	-1.000000	-1.000000	-1.000000	-1.000000	-1.000000	61.000000	0.000000	-1.000000	-1.000000	1546060.000000	1776579493.574990
23178.555000	10907.370000	41384.925000	66189.555000	45961.425000	28256.580000	-5559.120000	23018.580000	-0.949606	-2.066652	-2.083923	-2.866168	-2.295105	-0.486417	-0.301332	-1.638481	-0.091560	1.876980	2.075360	-0.792051	0.080444	0.592101	-1.000000	-1.000000	-1.000000	-1.000000	-1.000000	-1.000000	-1.000000	61.000000	0.000000	-1.000000	-1.000000	1546061.000000	1776579493.575014
23187.420000	10916.010000	41392.440000	66194.280000	45960.750000	28239.480000	-5558.220000	23026.770000	-5.133059	-6.474213	-6.759143	-7.279179	-6.327309	1.345025	-0.245051	-4.522711	-0.091560	1.876980	2.075360	-0.792051	0.080444	0.592101	-1.000000	-1.000000	-1.000000	-1.000000	-1.000000	-1.000000	-1.000000	61.000000	0.000000	-1.000000	-1.000000	1546062.000000	1776579493.578910
23189.175000	10919.655000	41396.625000	66196.935000	45958.815000	28217.430000	-5564.385000	23028.480000	-6.860728	-8.032103	-8.428963	-8.479784	-7.532391	1.192428	-0.718409	-5.463471	-0.091560	1.876980	2.075360	-0.792051	0.080444	0.592101	-1.000000	-1.000000	-1.000000	-1.000000	-1.000000	-1.000000	-1.000000	61.000000	0.000000	-1.000000	-1.000000	1546063.000000	1776579493.578929
23186.655000	10918.215000	41396.985000	66200.715000	45960.615000	28210.545000	-5570.100000	23024.970000	-4.741229	-5.039667	-5.393969	-5.301267	-5.659847	-2.973150	-1.552543	-3.426430	-0.091560	1.876980	2.075360	-0.792051	0.080444	0.592101	-1.000000	-1.000000	-1.000000	-1.000000	-1.000000	-1.000000	-1.000000	61.000000	0.000000	-1.000000	-1.000000	1546064.000000	1776579493.582882
