Channel1	Channel2	Channel3	Channel4	Channel5	Channel6	Channel7	Channel8	FilteredChannel1	FilteredChannel2	FilteredChannel3	FilteredChannel4	FilteredChannel5	FilteredChannel6	FilteredChannel7	FilteredChannel8	GyroX	GyroY	GyroZ	AccX	AccY	AccZ	PPG1	PPG2	rawPPG1	rawPPG2	rawPPG3	Hr	Hrv	Battery	Trigger	PhysicalTrigger	AutoTrigger	NumMeasurements	Timestamp
19461.870000	15415.245000	40627.530000	62918.460000	43119.360000	25131.195000	-6159.600000	15485.940000	1.922773	2.444383	1.790412	0.159408	-0.758041	-9.758623	-3.284306	0.654088	10.697260	-13.047300	-8.988140	-0.788816	-0.059753	0.608336	-1.000000	-1.000000	-1.000000	-1.000000	-1.000000	-1.000000	-1.000000	60.000000	0.000000	-1.000000	-1.000000	1602305.000000	1776579606.211428
19452.555000	15411.780000	40624.245000	62912.430000	43119.045000	25161.750000	-6147.810000	15478.335000	-2.656451	-2.426282	-3.136939	-4.050610	-2.357875	-4.491201	-1.023189	-2.971496	10.697260	-13.047300	-8.988140	-0.788816	-0.059753	0.608336	-1.000000	-1.000000	-1.000000	-1.000000	-1.000000	-1.000000	-1.000000	60.000000	0.000000	-1.000000	-1.000000	1602306.000000	1776579606.215681
19437.030000	15401.880000	40623.795000	62913.330000	43130.160000	25216.605000	-6142.545000	15462.360000	-7.209287	-6.915913	-7.099495	-5.934295	-0.469113	8.709520	3.381440	-6.255578	10.697260	-13.047300	-8.988140	-0.788816	-0.059753	0.608336	-1.000000	-1.000000	-1.000000	-1.000000	-1.000000	-1.000000	-1.000000	60.000000	0.000000	-1.000000	-1.000000	1602307.000000	1776579606.215708
19435.365000	15400.755000	40631.220000	62920.620000	43129.935000	25192.440000	-6151.365000	15459.255000	-10.624394	-9.785531	-8.835365	-5.718267	2.693596	23.006699	7.328852	-8.623192	4.837420	-10.117380	-7.904680	-0.780332	-0.056518	0.612242	-1.000000	-1.000000	-1.000000	-1.000000	-1.000000	-1.000000	-1.000000	60.000000	0.000000	-1.000000	-1.000000	1602308.000000	1776579606.219415
19447.965000	15410.070000	40632.885000	62918.595000	43124.985000	25163.505000	-6142.140000	15473.745000	-10.708932	-9.522891	-7.341680	-3.749419	4.102853	26.319405	7.546447	-8.490166	4.837420	-10.117380	-7.904680	-0.780332	-0.056518	0.612242	-1.000000	-1.000000	-1.000000	-1.000000	-1.000000	-1.000000	-1.000000	60.000000	0.000000	-1.000000	-1.000000	1602309.000000	1776579606.219450
19457.325000	15411.690000	40624.515000	62905.545000	43105.725000	25137.720000	-6144.480000	15485.445000	-5.710588	-5.387991	-3.454440	-1.213949	1.878847	11.978904	3.730497	-4.084616	4.837420	-10.117380	-7.904680	-0.780332	-0.056518	0.612242	-1.000000	-1.000000	-1.000000	-1.000000	-1.000000	-1.000000	-1.000000	60.000000	0.000000	-1.000000	-1.000000	1602310.000000	1776579606.223398
19463.985000	15416.685000	40637.745000	62905.455000	43090.785000	25109.145000	-6161.715000	15488.280000	2.986759	1.135373	0.577058	0.110638	-3.685163	-13.409246	-1.932571	3.655402	4.837420	-10.117380	-7.904680	-0.780332	-0.056518	0.612242	-1.000000	-1.000000	-1.000000	-1.000000	-1.000000	-1.000000	-1.000000	60.000000	0.000000	-1.000000	-1.000000	1602311.000000	1776579606.223407
19464.435000	15418.980000	40647.375000	62923.680000	43113.555000	25125.885000	-6163.605000	15487.560000	10.849253	6.882838	3.571836	0.301664	-9.187143	-34.431882	-7.307837	10.414304	4.837420	-10.117380	-7.904680	-0.780332	-0.056518	0.612242	-1.000000	-1.000000	-1.000000	-1.000000	-1.000000	-1.000000	-1.000000	60.000000	0.000000	-1.000000	-1.000000	1602312.000000	1776579606.227288
19468.035000	15418.755000	40622.490000	62916.705000	43125.210000	25163.100000	-6147.495000	15492.960000	13.553089	9.237708	5.092024	1.181015	-9.453113	-37.378831	-10.033583	12.061396	4.837420	-10.117380	-7.904680	-0.780332	-0.056518	0.612242	-1.000000	-1.000000	-1.000000	-1.000000	-1.000000	-1.000000	-1.000000	60.000000	0.000000	-1.000000	-1.000000	1602313.000000	1776579606.227300
19461.150000	15414.660000	40620.285000	62908.380000	43125.750000	25174.620000	-6145.515000	15484.950000	9.961658	7.444166	3.784155	2.766039	-2.845133	-19.359929	-7.806377	7.951904	4.837420	-10.117380	-7.904680	-0.780332	-0.056518	0.612242	-1.000000	-1.000000	-1.000000	-1.000000	-1.000000	-1.000000	-1.000000	60.000000	0.000000	-1.000000	-1.000000	1602314.000000	1776579606.231437
19468.170000	15422.220000	40633.515000	62916.120000	43116.660000	25114.320000	-6156.270000	15489.945000	2.385053	2.830064	0.009179	3.187406	5.875657	7.411101	-1.626019	0.633987	4.837420	-10.117380	-7.904680	-0.780332	-0.056518	0.612242	-1.000000	-1.000000	-1.000000	-1.000000	-1.000000	-1.000000	-1.000000	60.000000	0.000000	-1.000000	-1.000000	1602315.000000	1776579606.231453
19467.990000	15423.255000	40635.405000	62916.435000	43109.145000	25120.080000	-6163.740000	15487.470000	-5.052544	-1.856884	-2.749232	2.078673	10.109606	24.312330	3.984391	-6.125171	4.837420	-10.117380	-7.904680	-0.780332	-0.056518	0.612242	-1.000000	-1.000000	-1.000000	-1.000000	-1.000000	-1.000000	-1.000000	60.000000	0.000000	-1.000000	-1.000000	1602316.000000	1776579606.235392
19456.335000	15410.430000	40622.400000	62905.725000	43105.635000	25162.290000	-6159.960000	15475.950000	-9.235764	-4.652976	-2.398763	0.467219	7.476514	24.360486	5.657711	-9.652685	4.837420	-10.117380	-7.904680	-0.780332	-0.056518	0.612242	-1.000000	-1.000000	-1.000000	-1.000000	-1.000000	-1.000000	-1.000000	60.000000	0.000000	-1.000000	-1.000000	1602317.000000	1776579606.235408
19451.025000	15405.480000	40623.525000	62909.505000	43117.290000	25198.470000	-6138.855000	15472.710000	-9.882383	-5.757030	-0.616047	-1.150625	1.144339	16.577927	4.471774	-9.710811	-2.350040	-6.226080	-10.788820	-0.773313	-0.050720	0.619566	-1.000000	-1.000000	-1.000000	-1.000000	-1.000000	-1.000000	-1.000000	60.000000	0.000000	-1.000000	-1.000000	1602318.000000	1776579606.239393
19442.430000	15395.220000	40636.935000	62927.640000	43131.420000	25207.605000	-6132.420000	15465.735000	-8.214654	-5.996875	0.761143	-1.954605	-3.416697	11.132889	3.734201	-7.334830	-2.350040	-6.226080	-10.788820	-0.773313	-0.050720	0.619566	-1.000000	-1.000000	-1.000000	-1.000000	-1.000000	-1.000000	-1.000000	60.000000	0.000000	-1.000000	-1.000000	1602319.000000	1776579606.239401
19443.015000	15390.945000	40650.165000	62944.965000	43135.695000	25196.985000	-6136.155000	15466.680000	-5.097888	-5.359434	2.199152	-0.393978	-3.181815	8.141977	4.331270	-3.469032	-2.350040	-6.226080	-10.788820	-0.773313	-0.050720	0.619566	-1.000000	-1.000000	-1.000000	-1.000000	-1.000000	-1.000000	-1.000000	60.000000	0.000000	-1.000000	-1.000000	1602320.000000	1776579606.243323
19438.740000	15378.975000	40601.745000	62924.895000	43134.975000	25204.275000	-6138.090000	15465.555000	-0.976615	-3.547181	3.334989	2.919616	0.161640	2.357953	3.971872	1.057580	-2.350040	-6.226080	-10.788820	-0.773313	-0.050720	0.619566	-1.000000	-1.000000	-1.000000	-1.000000	-1.000000	-1.000000	-1.000000	60.000000	0.000000	-1.000000	-1.000000	1602321.000000	1776579606.243336
19451.925000	15405.885000	40580.325000	62879.535000	43110.630000	25166.835000	-6150.015000	15471.405000	3.612692	-0.267741	0.931146	3.458303	2.179224	-8.043641	0.725852	5.309904	-2.350040	-6.226080	-10.788820	-0.773313	-0.050720	0.619566	-1.000000	-1.000000	-1.000000	-1.000000	-1.000000	-1.000000	-1.000000	60.000000	0.000000	-1.000000	-1.000000	1602322.000000	1776579606.247420
19452.150000	15412.635000	40615.965000	62883.180000	43103.250000	25160.850000	-6158.565000	15470.730000	7.848186	4.885986	-4.996391	-2.204239	-0.207929	-19.867701	-4.703711	8.241407	-2.350040	-6.226080	-10.788820	-0.773313	-0.050720	0.619566	-1.000000	-1.000000	-1.000000	-1.000000	-1.000000	-1.000000	-1.000000	60.000000	0.000000	-1.000000	-1.000000	1602323.000000	1776579606.247440
19452.465000	15404.445000	40624.470000	62903.385000	43109.280000	25170.075000	-6152.850000	15473.925000	10.297185	10.381762	-7.719619	-9.715163	-5.407889	-26.964780	-9.398967	8.914902	-2.350040	-6.226080	-10.788820	-0.773313	-0.050720	0.619566	-1.000000	-1.000000	-1.000000	-1.000000	-1.000000	-1.000000	-1.000000	60.000000	0.000000	-1.000000	-1.000000	1602324.000000	1776579606.251303
19457.145000	15407.730000	40623.300000	62905.815000	43113.645000	25169.535000	-6150.015000	15476.985000	9.524017	12.300604	-2.736012	-10.744657	-8.318664	-23.719347	-10.014356	7.086595	-2.350040	-6.226080	-10.788820	-0.773313	-0.050720	0.619566	-1.000000	-1.000000	-1.000000	-1.000000	-1.000000	-1.000000	-1.000000	60.000000	0.000000	-1.000000	-1.000000	1602325.000000	1776579606.251312
19452.285000	15400.620000	40613.895000	62894.385000	43101.405000	25148.025000	-6155.685000	15472.305000	5.572372	8.481432	5.641318	-3.473246	-5.983982	-10.858144	-5.707227	3.435611	-2.350040	-6.226080	-10.788820	-0.773313	-0.050720	0.619566	-1.000000	-1.000000	-1.000000	-1.000000	-1.000000	-1.000000	-1.000000	60.000000	0.000000	-1.000000	-1.000000	1602326.000000	1776579606.256646
19446.255000	15395.535000	40611.645000	62892.135000	43097.220000	25134.390000	-6162.075000	15465.960000	-0.135072	0.736853	10.086777	5.872478	-0.531574	4.036774	0.689616	-1.053522	-2.350040	-6.226080	-10.788820	-0.773313	-0.050720	0.619566	-1.000000	-1.000000	-1.000000	-1.000000	-1.000000	-1.000000	-1.000000	60.000000	0.000000	-1.000000	-1.000000	1602327.000000	1776579606.256657
19445.985000	15396.570000	40612.950000	62892.405000	43097.985000	25142.715000	-6161.040000	15464.790000	-5.656873	-7.012227	7.905151	10.834024	4.176056	13.846496	5.411232	-5.264747	-5.157880	-6.180300	-5.890360	-0.771788	-0.047485	0.624815	-1.000000	-1.000000	-1.000000	-1.000000	-1.000000	-1.000000	-1.000000	60.000000	0.000000	-1.000000	-1.000000	1602328.000000	1776579606.259317
19443.735000	15398.235000	40605.930000	62877.060000	43088.265000	25144.110000	-6154.650000	15463.035000	-8.923172	-11.067829	1.764649	9.698389	6.227145	17.293140	7.052129	-7.728507	-5.157880	-6.180300	-5.890360	-0.771788	-0.047485	0.624815	-1.000000	-1.000000	-1.000000	-1.000000	-1.000000	-1.000000	-1.000000	60.000000	0.000000	-1.000000	-1.000000	1602329.000000	1776579606.259330
19451.025000	15404.805000	40619.565000	62897.760000	43101.990000	25153.245000	-6152.265000	15468.255000	-8.582336	-9.819506	-3.948238	4.724147	5.898892	16.712855	6.593520	-7.272434	-5.157880	-6.180300	-5.890360	-0.771788	-0.047485	0.624815	-1.000000	-1.000000	-1.000000	-1.000000	-1.000000	-1.000000	-1.000000	60.000000	0.000000	-1.000000	-1.000000	1602330.000000	1776579606.263397
19448.640000	15402.915000	40625.415000	62910.270000	43107.390000	25147.710000	-6160.635000	15463.395000	-4.910614	-4.556279	-5.973622	0.251005	4.799477	13.871366	5.042188	-4.074544	-5.157880	-6.180300	-5.890360	-0.771788	-0.047485	0.624815	-1.000000	-1.000000	-1.000000	-1.000000	-1.000000	-1.000000	-1.000000	60.000000	0.000000	-1.000000	-1.000000	1602331.000000	1776579606.263414
19447.605000	15397.380000	40621.545000	62913.600000	43115.130000	25142.760000	-6159.420000	15465.375000	0.051580	1.343813	-3.959835	-0.699428	4.272590	8.936362	2.445667	0.145461	-5.157880	-6.180300	-5.890360	-0.771788	-0.047485	0.624815	-1.000000	-1.000000	-1.000000	-1.000000	-1.000000	-1.000000	-1.000000	60.000000	0.000000	-1.000000	-1.000000	1602332.000000	1776579606.267532
19448.235000	15389.820000	40609.305000	62900.235000	43109.505000	25156.665000	-6152.670000	15469.605000	3.750400	4.540052	-0.831596	0.412923	3.814454	2.357982	-0.646700	3.457038	-5.157880	-6.180300	-5.890360	-0.771788	-0.047485	0.624815	-1.000000	-1.000000	-1.000000	-1.000000	-1.000000	-1.000000	-1.000000	60.000000	0.000000	-1.000000	-1.000000	1602333.000000	1776579606.267568
19448.370000	15391.890000	40605.930000	62887.995000	43097.085000	25172.235000	-6151.050000	15466.140000	4.930948	4.054872	0.144955	-0.294274	1.694317	-3.385530	-2.699555	4.941348	-5.157880	-6.180300	-5.890360	-0.771788	-0.047485	0.624815	-1.000000	-1.000000	-1.000000	-1.000000	-1.000000	-1.000000	-1.000000	60.000000	0.000000	-1.000000	-1.000000	1602334.000000	1776579606.271434
19459.710000	15405.390000	40614.930000	62885.070000	43091.190000	25183.710000	-6152.490000	15474.960000	4.166287	1.914569	-1.135744	-4.199135	-2.823033	-5.638920	-2.962612	4.597704	-5.157880	-6.180300	-5.890360	-0.771788	-0.047485	0.624815	-1.000000	-1.000000	-1.000000	-1.000000	-1.000000	-1.000000	-1.000000	60.000000	0.000000	-1.000000	-1.000000	1602335.000000	1776579606.271476
19459.620000	15407.910000	40623.345000	62904.285000	43114.860000	25187.310000	-6149.880000	15476.985000	2.876546	0.993162	-1.916570	-8.174259	-7.429037	-4.606691	-2.180812	3.146975	-5.157880	-6.180300	-5.890360	-0.771788	-0.047485	0.624815	-1.000000	-1.000000	-1.000000	-1.000000	-1.000000	-1.000000	-1.000000	60.000000	0.000000	-1.000000	-1.000000	1602336.000000	1776579606.278406
19455.210000	15405.480000	40623.390000	62904.510000	43101.180000	25133.895000	-6156.765000	15468.210000	1.637044	1.833744	-0.290999	-7.837240	-8.385482	-3.965759	-1.455773	1.274831	-5.157880	-6.180300	-5.890360	-0.771788	-0.047485	0.624815	-1.000000	-1.000000	-1.000000	-1.000000	-1.000000	-1.000000	-1.000000	60.000000	0.000000	-1.000000	-1.000000	1602337.000000	1776579606.278425
19455.165000	15404.265000	40620.825000	62899.785000	43085.295000	25104.510000	-6166.665000	15465.375000	-0.062852	2.486121	2.501982	-2.808213	-5.521267	-8.072817	-1.564240	-1.084015	-0.686700	-4.562740	-2.655240	-0.770018	-0.046448	0.623778	-1.000000	-1.000000	-1.000000	-1.000000	-1.000000	-1.000000	-1.000000	60.000000	0.000000	-1.000000	-1.000000	1602338.000000	1776579606.279635
19457.820000	15407.955000	40621.995000	62900.280000	43091.910000	25105.185000	-6167.430000	15467.265000	-2.165538	1.437483	3.886365	2.944245	-2.131075	-15.778834	-2.552752	-3.595958	-0.686700	-4.562740	-2.655240	-0.770018	-0.046448	0.623778	-1.000000	-1.000000	-1.000000	-1.000000	-1.000000	-1.000000	-1.000000	60.000000	0.000000	-1.000000	-1.000000	1602339.000000	1776579606.279646
19450.260000	15397.965000	40609.620000	62887.140000	43093.305000	25113.420000	-6172.335000	15460.290000	-3.717805	-0.935811	2.626310	5.541412	0.195756	-19.068188	-3.335451	-5.009930	-0.686700	-4.562740	-2.655240	-0.770018	-0.046448	0.623778	-1.000000	-1.000000	-1.000000	-1.000000	-1.000000	-1.000000	-1.000000	60.000000	0.000000	-1.000000	-1.000000	1602340.000000	1776579606.283473
19448.505000	15395.715000	40610.160000	62884.125000	43079.445000	25152.615000	-6168.510000	15458.445000	-4.177179	-3.519870	-0.620754	4.008963	1.965863	-10.939581	-2.593271	-4.614453	-0.686700	-4.562740	-2.655240	-0.770018	-0.046448	0.623778	-1.000000	-1.000000	-1.000000	-1.000000	-1.000000	-1.000000	-1.000000	60.000000	0.000000	-1.000000	-1.000000	1602341.000000	1776579606.283489
19458.090000	15412.725000	40632.210000	62907.435000	43098.255000	25150.185000	-6161.490000	15464.430000	-3.400528	-4.868566	-3.407048	0.676606	3.301020	6.982103	0.084220	-2.644505	-0.686700	-4.562740	-2.655240	-0.770018	-0.046448	0.623778	-1.000000	-1.000000	-1.000000	-1.000000	-1.000000	-1.000000	-1.000000	60.000000	0.000000	-1.000000	-1.000000	1602342.000000	1776579606.287376
19454.760000	15408.945000	40632.660000	62913.330000	43105.905000	25128.450000	-6169.950000	15460.335000	-1.218418	-3.516389	-2.937172	-0.534754	4.558870	24.020673	3.682991	0.314483	-0.686700	-4.562740	-2.655240	-0.770018	-0.046448	0.623778	-1.000000	-1.000000	-1.000000	-1.000000	-1.000000	-1.000000	-1.000000	60.000000	0.000000	-1.000000	-1.000000	1602343.000000	1776579606.287398
19459.125000	15408.270000	40628.520000	62910.945000	43108.110000	25145.280000	-6164.190000	15466.680000	1.678486	-0.089863	0.428811	1.479996	6.016901	28.880793	6.072572	3.226877	-0.686700	-4.562740	-2.655240	-0.770018	-0.046448	0.623778	-1.000000	-1.000000	-1.000000	-1.000000	-1.000000	-1.000000	-1.000000	60.000000	0.000000	-1.000000	-1.000000	1602344.000000	1776579606.291529
19443.105000	15385.815000	40602.645000	62882.955000	43089.120000	25167.510000	-6151.905000	15456.555000	3.544049	2.397601	2.733072	3.243530	6.014078	20.422127	6.128205	4.805059	-0.686700	-4.562740	-2.655240	-0.770018	-0.046448	0.623778	-1.000000	-1.000000	-1.000000	-1.000000	-1.000000	-1.000000	-1.000000	60.000000	0.000000	-1.000000	-1.000000	1602345.000000	1776579606.291550
19437.075000	15379.470000	40597.605000	62879.310000	43090.560000	25171.470000	-6153.660000	15451.740000	2.847912	1.500520	0.778720	0.936166	2.561229	6.701512	4.633428	4.115606	-0.686700	-4.562740	-2.655240	-0.770018	-0.046448	0.623778	-1.000000	-1.000000	-1.000000	-1.000000	-1.000000	-1.000000	-1.000000	60.000000	0.000000	-1.000000	-1.000000	1602346.000000	1776579606.295458
19441.260000	15386.580000	40605.795000	62885.970000	43089.435000	25148.745000	-6162.750000	15451.470000	0.057002	-1.713167	-3.808234	-4.362899	-3.215918	-5.370423	2.172371	1.402993	-0.686700	-4.562740	-2.655240	-0.770018	-0.046448	0.623778	-1.000000	-1.000000	-1.000000	-1.000000	-1.000000	-1.000000	-1.000000	60.000000	0.000000	-1.000000	-1.000000	1602347.000000	1776579606.295466
19446.480000	15395.625000	40618.260000	62902.170000	43110.810000	25171.380000	-6162.165000	15452.460000	-2.136981	-3.294072	-5.891492	-7.318935	-7.220645	-13.762225	-1.402396	-1.527477	3.021480	-2.914660	-4.257540	-0.767820	-0.046448	0.625304	-1.000000	-1.000000	-1.000000	-1.000000	-1.000000	-1.000000	-1.000000	60.000000	0.000000	-1.000000	-1.000000	1602348.000000	1776579606.299512
19452.960000	15403.905000	40627.395000	62911.620000	43113.465000	25165.260000	-6157.890000	15458.535000	-1.484948	-0.691069	-2.415887	-4.280498	-6.246250	-17.357633	-5.047881	-2.659121	3.021480	-2.914660	-4.257540	-0.767820	-0.046448	0.625304	-1.000000	-1.000000	-1.000000	-1.000000	-1.000000	-1.000000	-1.000000	60.000000	0.000000	-1.000000	-1.000000	1602349.000000	1776579606.299527
19460.655000	15411.960000	40632.750000	62911.170000	43102.755000	25156.125000	-6161.580000	15463.890000	1.647432	4.637693	4.512453	2.827605	-1.518969	-15.651437	-6.736496	-1.352641	3.021480	-2.914660	-4.257540	-0.767820	-0.046448	0.625304	-1.000000	-1.000000	-1.000000	-1.000000	-1.000000	-1.000000	-1.000000	60.000000	0.000000	-1.000000	-1.000000	1602350.000000	1776579606.303397
19450.485000	15401.295000	40621.185000	62899.740000	43093.935000	25168.635000	-6166.755000	15453.135000	4.724310	8.669544	9.675636	8.314315	2.247934	-10.426767	-5.818486	1.088497	3.021480	-2.914660	-4.257540	-0.767820	-0.046448	0.625304	-1.000000	-1.000000	-1.000000	-1.000000	-1.000000	-1.000000	-1.000000	60.000000	0.000000	-1.000000	-1.000000	1602351.000000	1776579606.303408
19444.905000	15395.310000	40616.910000	62897.760000	43094.790000	25172.235000	-6156.855000	15449.895000	4.858613	7.866920	8.957698	7.846847	2.009580	-3.684115	-3.233448	2.223228	3.021480	-2.914660	-4.257540	-0.767820	-0.046448	0.625304	-1.000000	-1.000000	-1.000000	-1.000000	-1.000000	-1.000000	-1.000000	60.000000	0.000000	-1.000000	-1.000000	1602352.000000	1776579606.307470
19448.280000	15397.110000	40618.620000	62900.010000	43089.930000	25150.680000	-6161.490000	15452.775000	1.423863	2.146372	2.707986	2.169463	-0.890938	2.672881	-0.001444	0.979059	3.021480	-2.914660	-4.257540	-0.767820	-0.046448	0.625304	-1.000000	-1.000000	-1.000000	-1.000000	-1.000000	-1.000000	-1.000000	60.000000	0.000000	-1.000000	-1.000000	1602353.000000	1776579606.307499
19448.010000	15391.800000	40611.645000	62893.440000	43083.990000	25149.150000	-6154.695000	15455.700000	-3.045955	-4.846038	-4.784547	-4.286113	-3.373359	5.940155	2.923255	-1.129120	3.021480	-2.914660	-4.257540	-0.767820	-0.046448	0.625304	-1.000000	-1.000000	-1.000000	-1.000000	-1.000000	-1.000000	-1.000000	60.000000	0.000000	-1.000000	-1.000000	1602354.000000	1776579606.311434
19453.230000	15396.210000	40614.030000	62895.060000	43087.770000	25155.180000	-6155.865000	15462.405000	-5.400377	-8.995879	-9.236818	-7.736207	-3.630056	5.453115	4.580503	-1.941444	3.021480	-2.914660	-4.257540	-0.767820	-0.046448	0.625304	-1.000000	-1.000000	-1.000000	-1.000000	-1.000000	-1.000000	-1.000000	60.000000	0.000000	-1.000000	-1.000000	1602355.000000	1776579606.311447
19453.680000	15395.355000	40615.245000	62901.405000	43115.895000	25191.945000	-6155.955000	15461.910000	-4.513548	-8.536712	-8.934332	-6.977345	-0.980920	4.397045	4.490565	-0.860530	3.021480	-2.914660	-4.257540	-0.767820	-0.046448	0.625304	-1.000000	-1.000000	-1.000000	-1.000000	-1.000000	-1.000000	-1.000000	60.000000	0.000000	-1.000000	-1.000000	1602356.000000	1776579606.315707
19449.315000	15390.585000	40612.095000	62898.975000	43113.330000	25180.020000	-6159.150000	15454.980000	-1.649883	-4.554706	-4.814092	-2.944041	4.207009	5.842587	2.741853	0.767688	3.021480	-2.914660	-4.257540	-0.767820	-0.046448	0.625304	-1.000000	-1.000000	-1.000000	-1.000000	-1.000000	-1.000000	-1.000000	60.000000	0.000000	-1.000000	-1.000000	1602357.000000	1776579606.315722
19455.705000	15397.200000	40618.485000	62900.595000	43093.845000	25149.510000	-6151.095000	15461.235000	1.022054	0.291851	0.562237	1.887657	8.611943	7.478443	0.199004	1.224684	-0.885080	-2.044840	-2.762060	-0.767393	-0.043945	0.626768	-1.000000	-1.000000	-1.000000	-1.000000	-1.000000	-1.000000	-1.000000	60.000000	0.000000	-1.000000	-1.000000	1602358.000000	1776579606.320813
19449.585000	15391.935000	40612.860000	62895.420000	43086.600000	25150.635000	-6149.700000	15457.140000	2.268194	3.855862	4.708005	4.890412	7.630792	4.338891	-1.654466	0.330185	-0.885080	-2.044840	-2.762060	-0.767393	-0.043945	0.626768	-1.000000	-1.000000	-1.000000	-1.000000	-1.000000	-1.000000	-1.000000	60.000000	0.000000	-1.000000	-1.000000	1602359.000000	1776579606.320834
19451.745000	15394.185000	40613.940000	62896.770000	43096.005000	25169.670000	-6151.905000	15458.535000	2.021500	5.208543	6.193421	4.929687	1.178061	-2.789320	-2.044600	-0.907562	-0.885080	-2.044840	-2.762060	-0.767393	-0.043945	0.626768	-1.000000	-1.000000	-1.000000	-1.000000	-1.000000	-1.000000	-1.000000	60.000000	0.000000	-1.000000	-1.000000	1602360.000000	1776579606.323523
19447.695000	15391.125000	40609.710000	62890.650000	43094.880000	25173.675000	-6155.145000	15452.505000	0.815130	4.400304	4.901437	2.687853	-5.561793	-7.502023	-1.651713	-1.734774	-0.885080	-2.044840	-2.762060	-0.767393	-0.043945	0.626768	-1.000000	-1.000000	-1.000000	-1.000000	-1.000000	-1.000000	-1.000000	60.000000	0.000000	-1.000000	-1.000000	1602361.000000	1776579606.323535
19444.590000	15390.630000	40611.555000	62892.225000	43089.930000	25161.885000	-6162.615000	15447.420000	-0.593947	2.268016	1.999358	-0.213891	-8.064760	-6.415620	-1.583774	-2.069962	-0.885080	-2.044840	-2.762060	-0.767393	-0.043945	0.626768	-1.000000	-1.000000	-1.000000	-1.000000	-1.000000	-1.000000	-1.000000	60.000000	0.000000	-1.000000	-1.000000	1602362.000000	1776579606.327565
19446.660000	15392.340000	40615.245000	62895.960000	43089.210000	25157.295000	-6161.895000	15448.230000	-1.540314	-0.019484	-0.723142	-2.127671	-6.188861	-2.415207	-2.100757	-2.014890	-0.885080	-2.044840	-2.762060	-0.767393	-0.043945	0.626768	-1.000000	-1.000000	-1.000000	-1.000000	-1.000000	-1.000000	-1.000000	60.000000	0.000000	-1.000000	-1.000000	1602363.000000	1776579606.327588
19452.330000	15396.795000	40618.710000	62900.595000	43092.495000	25152.075000	-6157.440000	15454.530000	-1.400742	-1.377577	-1.866758	-2.041170	-2.234233	0.340138	-2.286640	-1.204885	-0.885080	-2.044840	-2.762060	-0.767393	-0.043945	0.626768	-1.000000	-1.000000	-1.000000	-1.000000	-1.000000	-1.000000	-1.000000	60.000000	0.000000	-1.000000	-1.000000	1602364.000000	1776579606.331650
19454.805000	15397.650000	40619.565000	62900.685000	43091.505000	25151.265000	-6161.535000	15455.700000	0.061418	-1.330856	-1.308134	-0.283451	1.696048	0.722296	-1.148809	0.735307	-0.885080	-2.044840	-2.762060	-0.767393	-0.043945	0.626768	-1.000000	-1.000000	-1.000000	-1.000000	-1.000000	-1.000000	-1.000000	60.000000	0.000000	-1.000000	-1.000000	1602365.000000	1776579606.331663
19458.495000	15400.890000	40623.300000	62902.620000	43092.405000	25154.370000	-6163.155000	15458.490000	2.098534	-0.367496	-0.068930	1.638805	4.240545	0.188652	0.896437	3.136511	-0.885080	-2.044840	-2.762060	-0.767393	-0.043945	0.626768	-1.000000	-1.000000	-1.000000	-1.000000	-1.000000	-1.000000	-1.000000	60.000000	0.000000	-1.000000	-1.000000	1602366.000000	1776579606.335523
19463.760000	15407.100000	40627.665000	62905.095000	43089.435000	25139.205000	-6168.735000	15461.460000	3.466283	0.650843	0.816363	2.368839	4.732952	0.166766	2.410681	4.616436	-0.885080	-2.044840	-2.762060	-0.767393	-0.043945	0.626768	-1.000000	-1.000000	-1.000000	-1.000000	-1.000000	-1.000000	-1.000000	60.000000	0.000000	-1.000000	-1.000000	1602367.000000	1776579606.335531
19469.655000	15418.710000	40640.085000	62916.255000	43091.010000	25101.675000	-6177.555000	15462.945000	3.489095	1.381343	1.156084	1.842558	3.369488	-0.162357	2.362177	4.322908	-6.454980	-2.762060	-2.884140	-0.769102	-0.038025	0.628294	-1.000000	-1.000000	-1.000000	-1.000000	-1.000000	-1.000000	-1.000000	60.000000	0.000000	-1.000000	-1.000000	1602368.000000	1776579606.339598
19471.230000	15421.770000	40645.530000	62924.670000	43100.865000	25084.710000	-6177.015000	15462.810000	2.272245	1.870995	1.350598	1.079353	1.311526	-2.630552	0.898984	2.377798	-6.454980	-2.762060	-2.884140	-0.769102	-0.038025	0.628294	-1.000000	-1.000000	-1.000000	-1.000000	-1.000000	-1.000000	-1.000000	60.000000	0.000000	-1.000000	-1.000000	1602369.000000	1776579606.339625
19453.455000	15397.110000	40621.995000	62907.885000	43107.390000	25146.135000	-6159.690000	15451.110000	-0.113273	1.275439	0.910249	0.409697	0.109582	-4.911501	-0.326783	-0.629032	-6.454980	-2.762060	-2.884140	-0.769102	-0.038025	0.628294	-1.000000	-1.000000	-1.000000	-1.000000	-1.000000	-1.000000	-1.000000	60.000000	0.000000	-1.000000	-1.000000	1602370.000000	1776579606.343628
19433.745000	15373.845000	40599.855000	62888.895000	43098.750000	25205.175000	-6155.100000	15433.830000	-4.010098	-2.158817	-1.957149	-1.586426	0.062195	0.042766	0.632098	-4.241023	-6.454980	-2.762060	-2.884140	-0.769102	-0.038025	0.628294	-1.000000	-1.000000	-1.000000	-1.000000	-1.000000	-1.000000	-1.000000	60.000000	0.000000	-1.000000	-1.000000	1602371.000000	1776579606.343637
19445.220000	15383.430000	40607.235000	62890.785000	43090.245000	25189.335000	-6157.440000	15446.295000	-8.355853	-7.779633	-7.082977	-5.518029	-0.371237	13.518087	3.317019	-7.358505	-6.454980	-2.762060	-2.884140	-0.769102	-0.038025	0.628294	-1.000000	-1.000000	-1.000000	-1.000000	-1.000000	-1.000000	-1.000000	60.000000	0.000000	-1.000000	-1.000000	1602372.000000	1776579606.347572
19452.780000	15386.445000	40607.010000	62888.355000	43082.145000	25171.605000	-6158.880000	15455.610000	-9.543625	-10.872415	-10.301325	-8.700583	-2.475500	24.216776	4.826083	-7.388167	-6.454980	-2.762060	-2.884140	-0.769102	-0.038025	0.628294	-1.000000	-1.000000	-1.000000	-1.000000	-1.000000	-1.000000	-1.000000	60.000000	0.000000	-1.000000	-1.000000	1602373.000000	1776579606.347589
19446.345000	15377.535000	40597.110000	62881.200000	43079.625000	25173.045000	-6156.855000	15450.030000	-5.214684	-7.690247	-7.967457	-7.935946	-5.312710	20.017630	3.201584	-2.968013	-6.454980	-2.762060	-2.884140	-0.769102	-0.038025	0.628294	-1.000000	-1.000000	-1.000000	-1.000000	-1.000000	-1.000000	-1.000000	60.000000	0.000000	-1.000000	-1.000000	1602374.000000	1776579606.351588
19448.370000	15382.305000	40604.535000	62890.470000	43088.580000	25173.630000	-6152.400000	15450.120000	2.181665	0.032294	-1.181476	-3.052669	-6.356685	2.203843	-0.546304	3.262722	-6.454980	-2.762060	-2.884140	-0.769102	-0.038025	0.628294	-1.000000	-1.000000	-1.000000	-1.000000	-1.000000	-1.000000	-1.000000	60.000000	0.000000	-1.000000	-1.000000	1602375.000000	1776579606.351599
19447.605000	15383.205000	40607.190000	62893.980000	43094.160000	25170.570000	-6153.345000	15448.680000	8.049641	7.696413	6.370371	3.766261	-3.740076	-17.319570	-3.922465	7.208184	-6.454980	-2.762060	-2.884140	-0.769102	-0.038025	0.628294	-1.000000	-1.000000	-1.000000	-1.000000	-1.000000	-1.000000	-1.000000	60.000000	0.000000	-1.000000	-1.000000	1602376.000000	1776579606.355567
19450.665000	15388.110000	40612.140000	62895.510000	43093.035000	25168.410000	-6156.495000	15448.905000	9.823905	11.976831	11.603006	9.650655	1.673557	-27.806923	-5.413317	7.136427	-6.454980	-2.762060	-2.884140	-0.769102	-0.038025	0.628294	-1.000000	-1.000000	-1.000000	-1.000000	-1.000000	-1.000000	-1.000000	60.000000	0.000000	-1.000000	-1.000000	1602377.000000	1776579606.355582
19448.190000	15386.130000	40612.500000	62898.795000	43096.185000	25155.180000	-6162.885000	15444.810000	7.722288	11.800440	12.771639	12.017394	6.618247	-26.160139	-5.221923	4.026051	-9.873220	-0.930860	-1.846460	-0.769651	-0.037964	0.629210	-1.000000	-1.000000	-1.000000	-1.000000	-1.000000	-1.000000	-1.000000	60.000000	0.000000	-1.000000	-1.000000	1602378.000000	1776579606.359668
19445.895000	15383.385000	40610.475000	62894.160000	43086.060000	25134.570000	-6171.705000	15441.885000	3.399291	7.768540	9.628130	9.862669	8.083621	-16.338892	-4.320673	-0.088058	-9.873220	-0.930860	-1.846460	-0.769651	-0.037964	0.629210	-1.000000	-1.000000	-1.000000	-1.000000	-1.000000	-1.000000	-1.000000	60.000000	0.000000	-1.000000	-1.000000	1602379.000000	1776579606.359683
19456.830000	15397.335000	40623.480000	62900.910000	43083.495000	25134.120000	-6173.685000	15449.220000	-1.027020	1.885917	3.729916	4.351111	5.287329	-4.650010	-3.284951	-3.213513	-9.873220	-0.930860	-1.846460	-0.769651	-0.037964	0.629210	-1.000000	-1.000000	-1.000000	-1.000000	-1.000000	-1.000000	-1.000000	60.000000	0.000000	-1.000000	-1.000000	1602380.000000	1776579606.363727
19450.035000	15389.145000	40614.660000	62892.405000	43079.625000	25146.630000	-6184.665000	15440.040000	-3.689503	-3.144324	-2.216719	-1.955338	-0.020258	5.351689	-1.997793	-4.112323	-9.873220	-0.930860	-1.846460	-0.769651	-0.037964	0.629210	-1.000000	-1.000000	-1.000000	-1.000000	-1.000000	-1.000000	-1.000000	60.000000	0.000000	-1.000000	-1.000000	1602381.000000	1776579606.363738
19448.460000	15388.110000	40614.345000	62893.440000	43083.945000	25172.775000	-6174.045000	15438.915000	-4.286228	-5.966607	-6.401956	-6.730766	-4.623248	13.657969	-0.085783	-3.172240	-9.873220	-0.930860	-1.846460	-0.769651	-0.037964	0.629210	-1.000000	-1.000000	-1.000000	-1.000000	-1.000000	-1.000000	-1.000000	60.000000	0.000000	-1.000000	-1.000000	1602382.000000	1776579606.367533
19446.435000	15381.900000	40607.550000	62889.255000	43081.875000	25170.210000	-6161.715000	15440.760000	-3.872327	-7.016540	-8.548557	-8.794264	-6.028440	20.135401	2.966748	-1.640657	-9.873220	-0.930860	-1.846460	-0.769651	-0.037964	0.629210	-1.000000	-1.000000	-1.000000	-1.000000	-1.000000	-1.000000	-1.000000	60.000000	0.000000	-1.000000	-1.000000	1602383.000000	1776579606.367545
19448.325000	15378.705000	40599.720000	62876.520000	43060.995000	25130.340000	-6162.435000	15443.595000	-3.117717	-6.897039	-8.859943	-8.200259	-4.478983	21.252445	6.899665	-0.057852	-9.873220	-0.930860	-1.846460	-0.769651	-0.037964	0.629210	-1.000000	-1.000000	-1.000000	-1.000000	-1.000000	-1.000000	-1.000000	60.000000	0.000000	-1.000000	-1.000000	1602384.000000	1776579606.372000
19456.380000	15395.040000	40622.220000	62903.655000	43083.495000	25149.330000	-6162.165000	15444.135000	-1.792222	-5.354491	-7.099041	-5.498264	-1.978859	13.540349	9.519345	1.504823	-9.873220	-0.930860	-1.846460	-0.769651	-0.037964	0.629210	-1.000000	-1.000000	-1.000000	-1.000000	-1.000000	-1.000000	-1.000000	60.000000	0.000000	-1.000000	-1.000000	1602385.000000	1776579606.372017
19446.705000	15380.235000	40605.435000	62882.460000	43071.795000	25173.045000	-6154.695000	15438.330000	0.153830	-2.059044	-2.945895	-1.080665	0.621102	0.895282	8.582260	2.513926	-9.873220	-0.930860	-1.846460	-0.769651	-0.037964	0.629210	-1.000000	-1.000000	-1.000000	-1.000000	-1.000000	-1.000000	-1.000000	60.000000	0.000000	-1.000000	-1.000000	1602386.000000	1776579606.375611
19444.320000	15375.735000	40602.060000	62881.425000	43077.600000	25168.770000	-6153.885000	15439.320000	1.642024	1.527132	1.907552	3.244129	3.114095	-8.054661	4.363748	2.255443	-9.873220	-0.930860	-1.846460	-0.769651	-0.037964	0.629210	-1.000000	-1.000000	-1.000000	-1.000000	-1.000000	-1.000000	-1.000000	60.000000	0.000000	-1.000000	-1.000000	1602387.000000	1776579606.375627
19450.485000	15382.080000	40611.735000	62896.005000	43090.200000	25163.685000	-6152.805000	15446.025000	1.748524	3.331488	4.805995	5.260649	4.797826	-10.003539	-1.015334	1.002891	-9.629060	-0.534100	2.548420	-0.769041	-0.047485	0.627745	-1.000000	-1.000000	-1.000000	-1.000000	-1.000000	-1.000000	-1.000000	60.000000	0.000000	-1.000000	-1.000000	1602388.000000	1776579606.379454
19450.935000	15383.520000	40613.760000	62900.955000	43096.635000	25166.610000	-6159.690000	15444.675000	1.155660	3.445727	5.457532	5.417534	5.551064	-8.098370	-5.626385	-0.054174	-9.629060	-0.534100	2.548420	-0.769041	-0.047485	0.627745	-1.000000	-1.000000	-1.000000	-1.000000	-1.000000	-1.000000	-1.000000	60.000000	0.000000	-1.000000	-1.000000	1602389.000000	1776579606.379470
19453.365000	15385.950000	40612.860000	62894.700000	43087.680000	25177.140000	-6160.005000	15445.080000	0.912161	3.164368	4.975072	4.937869	5.115356	-5.530061	-8.429565	-0.366071	-9.629060	-0.534100	2.548420	-0.769041	-0.047485	0.627745	-1.000000	-1.000000	-1.000000	-1.000000	-1.000000	-1.000000	-1.000000	60.000000	0.000000	-1.000000	-1.000000	1602390.000000	1776579606.383729
19452.600000	15384.960000	40608.045000	62879.310000	43066.530000	25179.615000	-6164.775000	15442.830000	1.053303	2.875141	3.578083	3.114155	2.134965	-2.956745	-8.932264	-0.430171	-9.629060	-0.534100	2.548420	-0.769041	-0.047485	0.627745	-1.000000	-1.000000	-1.000000	-1.000000	-1.000000	-1.000000	-1.000000	60.000000	0.000000	-1.000000	-1.000000	1602391.000000	1776579606.383748
19451.115000	15381.360000	40607.010000	62883.360000	43069.185000	25166.745000	-6159.015000	15445.260000	0.968283	2.088301	1.116694	-0.769240	-3.631778	-0.734337	-6.986774	-0.721136	-9.629060	-0.534100	2.548420	-0.769041	-0.047485	0.627745	-1.000000	-1.000000	-1.000000	-1.000000	-1.000000	-1.000000	-1.000000	60.000000	0.000000	-1.000000	-1.000000	1602392.000000	1776579606.387511
19450.305000	15380.460000	40605.705000	62880.030000	43061.265000	25132.320000	-6164.730000	15442.830000	0.244082	0.444303	-1.734402	-4.940508	-9.235688	-0.622826	-3.100162	-1.121409	-9.629060	-0.534100	2.548420	-0.769041	-0.047485	0.627745	-1.000000	-1.000000	-1.000000	-1.000000	-1.000000	-1.000000	-1.000000	60.000000	0.000000	-1.000000	-1.000000	1602393.000000	1776579606.387520
19455.480000	15391.845000	40621.365000	62899.650000	43082.775000	25165.665000	-6157.440000	15444.135000	-0.783621	-1.361818	-3.407240	-6.296574	-10.494165	-3.041585	1.387669	-1.301534	-9.629060	-0.534100	2.548420	-0.769041	-0.047485	0.627745	-1.000000	-1.000000	-1.000000	-1.000000	-1.000000	-1.000000	-1.000000	60.000000	0.000000	-1.000000	-1.000000	1602394.000000	1776579606.391467
19456.290000	15393.420000	40625.055000	62904.780000	43087.410000	25165.935000	-6160.230000	15443.280000	-1.276667	-1.933724	-2.545912	-3.308084	-5.598526	-4.180072	4.944364	-1.098426	-9.629060	-0.534100	2.548420	-0.769041	-0.047485	0.627745	-1.000000	-1.000000	-1.000000	-1.000000	-1.000000	-1.000000	-1.000000	60.000000	0.000000	-1.000000	-1.000000	1602395.000000	1776579606.391474
19450.665000	15387.120000	40618.755000	62896.995000	43077.285000	25158.060000	-6164.280000	15437.700000	-1.006671	-1.101085	0.126012	2.067282	2.728132	-0.892677	6.416221	-0.664189	-9.629060	-0.534100	2.548420	-0.769041	-0.047485	0.627745	-1.000000	-1.000000	-1.000000	-1.000000	-1.000000	-1.000000	-1.000000	60.000000	0.000000	-1.000000	-1.000000	1602396.000000	1776579606.396790
19454.760000	15390.540000	40622.130000	62900.055000	43080.030000	25162.560000	-6157.845000	15443.190000	-0.598845	-0.286421	2.006217	5.591019	8.807159	4.423314	5.464271	-0.277177	-9.629060	-0.534100	2.548420	-0.769041	-0.047485	0.627745	-1.000000	-1.000000	-1.000000	-1.000000	-1.000000	-1.000000	-1.000000	60.000000	0.000000	-1.000000	-1.000000	1602397.000000	1776579606.396799
19457.280000	15391.980000	40623.120000	62900.685000	43082.235000	25165.170000	-6156.540000	15445.080000	-0.343247	-0.358896	1.598616	4.938636	9.273306	7.765481	3.121182	0.220639	-5.814060	-1.556520	7.019600	-0.769163	-0.059326	0.625731	-1.000000	-1.000000	-1.000000	-1.000000	-1.000000	-1.000000	-1.000000	60.000000	0.000000	-1.000000	-1.000000	1602398.000000	1776579606.399597
19457.505000	15393.285000	40624.470000	62901.540000	43083.810000	25165.485000	-6158.475000	15444.450000	0.053743	-0.801216	-0.249475	1.403294	5.394801	7.729856	0.826824	1.056139	-5.814060	-1.556520	7.019600	-0.769163	-0.059326	0.625731	-1.000000	-1.000000	-1.000000	-1.000000	-1.000000	-1.000000	-1.000000	60.000000	0.000000	-1.000000	-1.000000	1602399.000000	1776579606.399610
19459.530000	15393.960000	40624.335000	62901.675000	43082.775000	25163.685000	-6159.105000	15445.080000	0.591857	-0.937816	-1.973447	-2.339001	0.367508	4.949711	-0.909583	1.783740	-5.814060	-1.556520	7.019600	-0.769163	-0.059326	0.625731	-1.000000	-1.000000	-1.000000	-1.000000	-1.000000	-1.000000	-1.000000	60.000000	0.000000	-1.000000	-1.000000	1602400.000000	1776579606.403686
19458.630000	15391.755000	40622.130000	62900.955000	43081.335000	25157.430000	-6161.715000	15443.505000	0.900065	-0.705568	-2.718574	-4.428389	-3.456897	0.741815	-2.175864	1.759797	-5.814060	-1.556520	7.019600	-0.769163	-0.059326	0.625731	-1.000000	-1.000000	-1.000000	-1.000000	-1.000000	-1.000000	-1.000000	60.000000	0.000000	-1.000000	-1.000000	1602401.000000	1776579606.403699
19456.335000	15389.820000	40620.420000	62901.675000	43081.335000	25139.070000	-6166.620000	15441.705000	0.657647	-0.469501	-2.515635	-4.410183	-5.184156	-3.717524	-3.014215	0.845406	-5.814060	-1.556520	7.019600	-0.769163	-0.059326	0.625731	-1.000000	-1.000000	-1.000000	-1.000000	-1.000000	-1.000000	-1.000000	60.000000	0.000000	-1.000000	-1.000000	1602402.000000	1776579606.407600
19451.115000	15383.160000	40612.905000	62893.935000	43067.385000	25124.265000	-6174.495000	15437.835000	-0.235804	-0.583398	-1.869492	-2.973345	-5.133297	-7.651436	-3.454432	-0.593853	-5.814060	-1.556520	7.019600	-0.769163	-0.059326	0.625731	-1.000000	-1.000000	-1.000000	-1.000000	-1.000000	-1.000000	-1.000000	60.000000	0.000000	-1.000000	-1.000000	1602403.000000	1776579606.407611
19451.880000	15383.295000	40610.520000	62885.205000	43054.470000	25153.830000	-6165.495000	15437.880000	-1.445264	-1.014776	-1.271857	-1.443986	-4.515044	-9.300728	-3.254356	-1.910104	-5.814060	-1.556520	7.019600	-0.769163	-0.059326	0.625731	-1.000000	-1.000000	-1.000000	-1.000000	-1.000000	-1.000000	-1.000000	60.000000	0.000000	-1.000000	-1.000000	1602404.000000	1776579606.411563
19451.880000	15383.835000	40613.310000	62889.480000	43073.910000	25185.330000	-6162.075000	15436.845000	-2.137930	-1.174898	-0.649690	-0.618589	-3.718573	-5.392459	-1.663931	-2.409287	-5.814060	-1.556520	7.019600	-0.769163	-0.059326	0.625731	-1.000000	-1.000000	-1.000000	-1.000000	-1.000000	-1.000000	-1.000000	60.000000	0.000000	-1.000000	-1.000000	1602405.000000	1776579606.411575
19459.980000	15393.060000	40623.795000	62901.135000	43080.075000	25146.855000	-6167.430000	15441.660000	-1.493008	-0.268320	0.724063	0.320389	-1.195274	3.701721	1.254066	-1.686247	-5.814060	-1.556520	7.019600	-0.769163	-0.059326	0.625731	-1.000000	-1.000000	-1.000000	-1.000000	-1.000000	-1.000000	-1.000000	60.000000	0.000000	-1.000000	-1.000000	1602406.000000	1776579606.415536
19458.270000	15390.900000	40621.410000	62895.780000	43055.775000	25076.160000	-6178.770000	15440.760000	0.488035	1.779280	3.088591	2.410188	3.155176	9.474136	3.553420	0.051035	-5.814060	-1.556520	7.019600	-0.769163	-0.059326	0.625731	-1.000000	-1.000000	-1.000000	-1.000000	-1.000000	-1.000000	-1.000000	60.000000	0.000000	-1.000000	-1.000000	1602407.000000	1776579606.415550
19460.970000	15396.615000	40627.935000	62900.730000	43067.385000	25104.465000	-6175.980000	15442.695000	2.647048	3.828275	5.242467	4.760665	6.154524	4.460243	3.362136	1.914036	-1.617560	1.373400	3.540320	-0.769163	-0.065613	0.623778	-1.000000	-1.000000	-1.000000	-1.000000	-1.000000	-1.000000	-1.000000	60.000000	0.000000	-1.000000	-1.000000	1602408.000000	1776579606.419605
19458.045000	15394.545000	40627.260000	62903.970000	43081.695000	25148.835000	-6167.070000	15440.850000	3.503703	4.442926	5.612727	5.606601	6.130937	-4.991086	1.450169	2.844119	-1.617560	1.373400	3.540320	-0.769163	-0.065613	0.623778	-1.000000	-1.000000	-1.000000	-1.000000	-1.000000	-1.000000	-1.000000	60.000000	0.000000	-1.000000	-1.000000	1602409.000000	1776579606.419629
19451.160000	15385.500000	40619.295000	62897.715000	43082.595000	25183.395000	-6153.390000	15434.595000	2.354050	2.905343	3.565008	4.269293	4.863715	-5.536493	0.443041	2.245584	-1.617560	1.373400	3.540320	-0.769163	-0.065613	0.623778	-1.000000	-1.000000	-1.000000	-1.000000	-1.000000	-1.000000	-1.000000	60.000000	0.000000	-1.000000	-1.000000	1602410.000000	1776579606.423638
19449.945000	15384.645000	40618.755000	62896.455000	43081.110000	25184.025000	-6153.165000	15431.895000	-0.348987	-0.466572	-0.389206	1.118455	3.524099	5.407292	1.582843	0.265929	-1.617560	1.373400	3.540320	-0.769163	-0.065613	0.623778	-1.000000	-1.000000	-1.000000	-1.000000	-1.000000	-1.000000	-1.000000	60.000000	0.000000	-1.000000	-1.000000	1602411.000000	1776579606.423654
19446.570000	15380.820000	40615.605000	62893.755000	43078.365000	25186.635000	-6159.015000	15428.475000	-3.111453	-4.077317	-4.527451	-2.660379	1.355819	17.099260	3.118814	-2.092880	-1.617560	1.373400	3.540320	-0.769163	-0.065613	0.623778	-1.000000	-1.000000	-1.000000	-1.000000	-1.000000	-1.000000	-1.000000	60.000000	0.000000	-1.000000	-1.000000	1602412.000000	1776579606.427584
19447.020000	15379.155000	40613.580000	62892.450000	43074.810000	25180.020000	-6158.790000	15430.410000	-4.304406	-5.917880	-6.773847	-5.361841	-2.009719	18.200044	2.426569	-3.414187	-1.617560	1.373400	3.540320	-0.769163	-0.065613	0.623778	-1.000000	-1.000000	-1.000000	-1.000000	-1.000000	-1.000000	-1.000000	60.000000	0.000000	-1.000000	-1.000000	1602413.000000	1776579606.427610
19448.910000	15376.950000	40610.655000	62891.370000	43075.035000	25175.070000	-6156.450000	15435.630000	-3.255417	-5.115982	-6.222716	-5.819776	-5.447551	6.874750	-0.751145	-2.726323	-1.617560	1.373400	3.540320	-0.769163	-0.065613	0.623778	-1.000000	-1.000000	-1.000000	-1.000000	-1.000000	-1.000000	-1.000000	60.000000	0.000000	-1.000000	-1.000000	1602414.000000	1776579606.431659
19459.305000	15386.310000	40617.225000	62893.035000	43066.530000	25164.990000	-6157.530000	15445.080000	-0.356448	-2.119082	-3.349749	-4.015512	-7.327828	-9.905117	-4.211515	-0.043554	-1.617560	1.373400	3.540320	-0.769163	-0.065613	0.623778	-1.000000	-1.000000	-1.000000	-1.000000	-1.000000	-1.000000	-1.000000	60.000000	0.000000	-1.000000	-1.000000	1602415.000000	1776579606.431694
19465.740000	15393.150000	40621.815000	62892.360000	43059.735000	25162.065000	-6156.405000	15450.030000	3.330069	2.057849	0.769417	-0.891560	-7.013843	-22.846047	-5.812112	3.487502	-1.617560	1.373400	3.540320	-0.769163	-0.065613	0.623778	-1.000000	-1.000000	-1.000000	-1.000000	-1.000000	-1.000000	-1.000000	60.000000	0.000000	-1.000000	-1.000000	1602416.000000	1776579606.435561
19459.080000	15386.175000	40617.000000	62893.350000	43073.955000	25173.180000	-6153.930000	15443.460000	6.024866	5.759856	4.587657	2.154553	-4.676530	-25.691971	-4.941316	5.767900	-1.617560	1.373400	3.540320	-0.769163	-0.065613	0.623778	-1.000000	-1.000000	-1.000000	-1.000000	-1.000000	-1.000000	-1.000000	60.000000	0.000000	-1.000000	-1.000000	1602417.000000	1776579606.435570
19452.960000	15380.235000	40612.860000	62892.630000	43081.335000	25164.450000	-6155.730000	15436.845000	5.661244	6.715127	6.163869	3.939971	-0.322765	-17.774021	-2.345322	4.782819	4.669560	3.265640	-2.060100	-0.768492	-0.061523	0.628111	-1.000000	-1.000000	-1.000000	-1.000000	-1.000000	-1.000000	-1.000000	60.000000	0.000000	-1.000000	-1.000000	1602418.000000	1776579606.439638
19452.555000	15380.415000	40613.895000	62894.205000	43078.275000	25163.640000	-6156.090000	15436.260000	1.833290	3.984441	4.633512	4.035730	5.023215	-4.105829	0.496728	0.522343	4.669560	3.265640	-2.060100	-0.768492	-0.061523	0.628111	-1.000000	-1.000000	-1.000000	-1.000000	-1.000000	-1.000000	-1.000000	60.000000	0.000000	-1.000000	-1.000000	1602419.000000	1776579606.439646
19452.915000	15380.730000	40614.930000	62894.970000	43078.815000	25162.650000	-6158.610000	15434.820000	-3.155919	-0.591349	1.301952	2.832075	8.528099	8.252829	2.269258	-4.447325	4.669560	3.265640	-2.060100	-0.768492	-0.061523	0.628111	-1.000000	-1.000000	-1.000000	-1.000000	-1.000000	-1.000000	-1.000000	60.000000	0.000000	-1.000000	-1.000000	1602420.000000	1776579606.443740
19453.635000	15382.980000	40617.495000	62894.160000	43074.135000	25166.205000	-6161.715000	15431.670000	-6.189345	-4.010449	-1.558778	1.096569	7.938741	14.935079	2.501444	-7.135722	4.669560	3.265640	-2.060100	-0.768492	-0.061523	0.628111	-1.000000	-1.000000	-1.000000	-1.000000	-1.000000	-1.000000	-1.000000	60.000000	0.000000	-1.000000	-1.000000	1602421.000000	1776579606.443760
19452.915000	15383.250000	40620.195000	62898.390000	43077.960000	25173.675000	-6159.645000	15430.320000	-5.859068	-4.604841	-2.559380	-0.468826	3.759704	15.602363	1.635856	-6.439748	4.669560	3.265640	-2.060100	-0.768492	-0.061523	0.628111	-1.000000	-1.000000	-1.000000	-1.000000	-1.000000	-1.000000	-1.000000	60.000000	0.000000	-1.000000	-1.000000	1602422.000000	1776579606.447891
19453.635000	15381.090000	40616.505000	62893.305000	43073.415000	25171.290000	-6160.050000	15431.895000	-3.000507	-2.857503	-1.895280	-1.448990	-1.407713	12.198387	0.661740	-3.215730	4.669560	3.265640	-2.060100	-0.768492	-0.061523	0.628111	-1.000000	-1.000000	-1.000000	-1.000000	-1.000000	-1.000000	-1.000000	60.000000	0.000000	-1.000000	-1.000000	1602423.000000	1776579606.447915
19455.165000	15378.210000	40609.395000	62886.015000	43066.260000	25163.775000	-6159.330000	15435.675000	0.519492	-0.523916	-0.937823	-2.046921	-5.169430	6.612190	0.310904	0.939715	4.669560	3.265640	-2.060100	-0.768492	-0.061523	0.628111	-1.000000	-1.000000	-1.000000	-1.000000	-1.000000	-1.000000	-1.000000	60.000000	0.000000	-1.000000	-1.000000	1602424.000000	1776579606.453259
19449.945000	15374.475000	40603.725000	62876.880000	43048.620000	25128.495000	-6166.305000	15430.050000	3.025772	0.859872	-0.966924	-2.835079	-6.925593	-0.446290	0.427109	4.376642	4.669560	3.265640	-2.060100	-0.768492	-0.061523	0.628111	-1.000000	-1.000000	-1.000000	-1.000000	-1.000000	-1.000000	-1.000000	60.000000	0.000000	-1.000000	-1.000000	1602425.000000	1776579606.453270
19453.590000	15381.405000	40612.185000	62885.790000	43055.730000	25126.425000	-6166.350000	15432.885000	3.655059	1.054431	-1.730639	-3.530321	-6.982952	-8.202692	0.328449	5.731531	4.669560	3.265640	-2.060100	-0.768492	-0.061523	0.628111	-1.000000	-1.000000	-1.000000	-1.000000	-1.000000	-1.000000	-1.000000	60.000000	0.000000	-1.000000	-1.000000	1602426.000000	1776579606.455771
19455.300000	15383.655000	40614.345000	62886.960000	43060.680000	25136.775000	-6168.285000	15433.560000	2.771783	1.011066	-1.615712	-2.754318	-4.833448	-13.345740	-0.193565	4.771346	4.669560	3.265640	-2.060100	-0.768492	-0.061523	0.628111	-1.000000	-1.000000	-1.000000	-1.000000	-1.000000	-1.000000	-1.000000	60.000000	0.000000	-1.000000	-1.000000	1602427.000000	1776579606.455784
19452.285000	15379.830000	40612.815000	62886.735000	43054.695000	25123.545000	-6178.500000	15428.565000	1.404009	1.371418	0.147537	0.018293	-0.245683	-11.927379	-0.826301	2.417874	7.691040	1.602300	-0.824040	-0.767271	-0.053955	0.632139	-1.000000	-1.000000	-1.000000	-1.000000	-1.000000	-1.000000	-1.000000	60.000000	0.000000	-1.000000	-1.000000	1602428.000000	1776579606.459772
19459.080000	15385.770000	40618.620000	62893.890000	43067.700000	25172.685000	-6162.930000	15435.585000	0.242829	1.676527	2.437416	3.395150	5.012414	-3.678695	-1.099974	-0.153242	7.691040	1.602300	-0.824040	-0.767271	-0.053955	0.632139	-1.000000	-1.000000	-1.000000	-1.000000	-1.000000	-1.000000	-1.000000	60.000000	0.000000	-1.000000	-1.000000	1602429.000000	1776579606.459786
19452.015000	15380.505000	40616.505000	62896.410000	43083.225000	25204.500000	-6150.060000	15428.745000	-0.482922	1.363555	3.733033	5.610176	8.890295	8.691689	0.011059	-1.956687	7.691040	1.602300	-0.824040	-0.767271	-0.053955	0.632139	-1.000000	-1.000000	-1.000000	-1.000000	-1.000000	-1.000000	-1.000000	60.000000	0.000000	-1.000000	-1.000000	1602430.000000	1776579606.463828
19448.685000	15373.170000	40608.045000	62888.085000	43066.980000	25157.655000	-6161.130000	15426.360000	-1.046418	0.214326	3.157111	5.568066	10.143762	19.365928	2.639585	-2.722515	7.691040	1.602300	-0.824040	-0.767271	-0.053955	0.632139	-1.000000	-1.000000	-1.000000	-1.000000	-1.000000	-1.000000	-1.000000	60.000000	0.000000	-1.000000	-1.000000	1602431.000000	1776579606.463845
19448.820000	15370.605000	40604.580000	62878.770000	43056.270000	25153.605000	-6169.590000	15424.920000	-1.777432	-1.681065	0.620345	2.756334	7.234530	19.597942	4.250433	-2.833399	7.691040	1.602300	-0.824040	-0.767271	-0.053955	0.632139	-1.000000	-1.000000	-1.000000	-1.000000	-1.000000	-1.000000	-1.000000	60.000000	0.000000	-1.000000	-1.000000	1602432.000000	1776579606.467840
19450.035000	15374.160000	40608.585000	62883.900000	43061.355000	25169.535000	-6164.820000	15427.755000	-2.224805	-3.318630	-2.566836	-1.861228	0.258409	7.281452	2.524563	-2.369336	7.691040	1.602300	-0.824040	-0.767271	-0.053955	0.632139	-1.000000	-1.000000	-1.000000	-1.000000	-1.000000	-1.000000	-1.000000	60.000000	0.000000	-1.000000	-1.000000	1602433.000000	1776579606.467855
19452.510000	15377.085000	40612.005000	62890.245000	43066.035000	25162.965000	-6159.195000	15431.760000	-1.647079	-3.212940	-4.147111	-5.404922	-6.899040	-8.606433	-1.164109	-1.052979	7.691040	1.602300	-0.824040	-0.767271	-0.053955	0.632139	-1.000000	-1.000000	-1.000000	-1.000000	-1.000000	-1.000000	-1.000000	60.000000	0.000000	-1.000000	-1.000000	1602434.000000	1776579606.471683
19449.090000	15372.720000	40607.910000	62885.160000	43060.995000	25161.570000	-6166.125000	15427.170000	-0.119860	-1.110510	-3.063940	-5.514225	-9.885286	-18.123395	-3.738103	0.857428	7.691040	1.602300	-0.824040	-0.767271	-0.053955	0.632139	-1.000000	-1.000000	-1.000000	-1.000000	-1.000000	-1.000000	-1.000000	60.000000	0.000000	-1.000000	-1.000000	1602435.000000	1776579606.471695
19449.045000	15373.080000	40608.450000	62885.655000	43060.410000	25162.560000	-6162.300000	15428.295000	1.372515	1.499716	-0.502200	-2.803784	-8.021536	-18.267802	-4.009673	2.288433	7.691040	1.602300	-0.824040	-0.767271	-0.053955	0.632139	-1.000000	-1.000000	-1.000000	-1.000000	-1.000000	-1.000000	-1.000000	60.000000	0.000000	-1.000000	-1.000000	1602436.000000	1776579606.475782
19456.920000	15383.115000	40617.945000	62891.865000	43050.960000	25141.365000	-6167.295000	15432.885000	2.085520	3.154967	1.819861	0.469918	-3.799752	-11.866583	-2.720751	2.495148	7.691040	1.602300	-0.824040	-0.767271	-0.053955	0.632139	-1.000000	-1.000000	-1.000000	-1.000000	-1.000000	-1.000000	-1.000000	60.000000	0.000000	-1.000000	-1.000000	1602437.000000	1776579606.475810
19452.645000	15377.805000	40616.190000	62898.255000	43057.575000	25118.820000	-6177.150000	15427.620000	2.136652	3.618683	3.222971	2.942450	0.099297	-4.365877	-1.198317	1.739157	4.745860	1.968540	2.044840	-0.766111	-0.044983	0.630003	-1.000000	-1.000000	-1.000000	-1.000000	-1.000000	-1.000000	-1.000000	60.000000	0.000000	-1.000000	-1.000000	1602438.000000	1776579606.483738
19448.370000	15370.380000	40607.820000	62889.750000	43061.670000	25141.635000	-6169.095000	15425.955000	1.556634	2.778381	3.280436	4.060302	2.779074	0.696045	-0.346868	0.433208	4.745860	1.968540	2.044840	-0.766111	-0.044983	0.630003	-1.000000	-1.000000	-1.000000	-1.000000	-1.000000	-1.000000	-1.000000	60.000000	0.000000	-1.000000	-1.000000	1602439.000000	1776579606.483788
19458.765000	15381.495000	40615.470000	62883.945000	43057.935000	25186.185000	-6154.155000	15434.955000	0.320951	0.637405	1.642687	3.101903	4.472929	5.289461	0.541118	-0.926189	4.745860	1.968540	2.044840	-0.766111	-0.044983	0.630003	-1.000000	-1.000000	-1.000000	-1.000000	-1.000000	-1.000000	-1.000000	60.000000	0.000000	-1.000000	-1.000000	1602440.000000	1776579606.483907
19448.505000	15371.820000	40604.130000	62874.405000	43050.060000	25163.505000	-6166.305000	15423.705000	-0.900712	-1.637394	-0.901080	-0.042342	4.786597	12.019962	2.418360	-1.602128	4.745860	1.968540	2.044840	-0.766111	-0.044983	0.630003	-1.000000	-1.000000	-1.000000	-1.000000	-1.000000	-1.000000	-1.000000	60.000000	0.000000	-1.000000	-1.000000	1602441.000000	1776579606.483921
19442.925000	15369.345000	40603.095000	62876.610000	43049.295000	25148.475000	-6170.490000	15417.810000	-1.787228	-2.983950	-3.101696	-3.792157	3.130322	16.798132	3.913485	-1.757260	4.745860	1.968540	2.044840	-0.766111	-0.044983	0.630003	-1.000000	-1.000000	-1.000000	-1.000000	-1.000000	-1.000000	-1.000000	60.000000	0.000000	-1.000000	-1.000000	1602442.000000	1776579606.487901
19447.470000	15372.855000	40606.650000	62878.455000	43051.320000	25153.110000	-6167.565000	15422.445000	-2.512778	-3.293016	-4.061523	-5.590594	0.339733	13.523030	3.095353	-1.987319	4.745860	1.968540	2.044840	-0.766111	-0.044983	0.630003	-1.000000	-1.000000	-1.000000	-1.000000	-1.000000	-1.000000	-1.000000	60.000000	0.000000	-1.000000	-1.000000	1602443.000000	1776579606.487930
19454.400000	15377.760000	40612.545000	62886.420000	43051.860000	25155.945000	-6164.865000	15427.845000	-2.376596	-2.366556	-3.014400	-3.873266	-1.712787	3.389158	0.587830	-1.691121	4.745860	1.968540	2.044840	-0.766111	-0.044983	0.630003	-1.000000	-1.000000	-1.000000	-1.000000	-1.000000	-1.000000	-1.000000	60.000000	0.000000	-1.000000	-1.000000	1602444.000000	1776579606.491842
19450.170000	15372.315000	40607.190000	62880.705000	43044.840000	25156.080000	-6166.620000	15423.435000	-0.689393	-0.302583	-0.203841	0.448481	-2.101524	-6.732817	-1.522355	-0.128953	4.745860	1.968540	2.044840	-0.766111	-0.044983	0.630003	-1.000000	-1.000000	-1.000000	-1.000000	-1.000000	-1.000000	-1.000000	60.000000	0.000000	-1.000000	-1.000000	1602445.000000	1776579606.491851
19449.090000	15370.560000	40606.020000	62879.985000	43045.785000	25152.570000	-6169.905000	15422.445000	1.548799	1.646714	2.546165	4.455167	-1.469642	-11.732012	-2.280671	1.842130	4.745860	1.968540	2.044840	-0.766111	-0.044983	0.630003	-1.000000	-1.000000	-1.000000	-1.000000	-1.000000	-1.000000	-1.000000	60.000000	0.000000	-1.000000	-1.000000	1602446.000000	1776579606.496832
19450.980000	15372.810000	40609.440000	62886.420000	43049.025000	25128.225000	-6178.590000	15421.545000	2.698489	2.267811	3.544404	5.796218	-0.605748	-11.453764	-2.237243	2.738199	4.745860	1.968540	2.044840	-0.766111	-0.044983	0.630003	-1.000000	-1.000000	-1.000000	-1.000000	-1.000000	-1.000000	-1.000000	60.000000	0.000000	-1.000000	-1.000000	1602447.000000	1776579606.496850
19451.205000	15374.835000	40614.525000	62893.980000	43058.250000	25141.005000	-6172.470000	15421.050000	2.340262	1.736685	2.899815	4.675308	0.539398	-8.509178	-2.058409	2.152027	-0.946120	3.235120	1.495480	-0.766355	-0.038025	0.627501	-1.000000	-1.000000	-1.000000	-1.000000	-1.000000	-1.000000	-1.000000	60.000000	0.000000	-1.000000	-1.000000	1602448.000000	1776579606.499794
19464.570000	15387.795000	40624.605000	62899.110000	43063.110000	25174.485000	-6153.525000	15434.415000	1.380196	1.195601	1.926265	2.759366	2.138486	-3.684641	-1.109021	1.009494	-0.946120	3.235120	1.495480	-0.766355	-0.038025	0.627501	-1.000000	-1.000000	-1.000000	-1.000000	-1.000000	-1.000000	-1.000000	60.000000	0.000000	-1.000000	-1.000000	1602449.000000	1776579606.499805
19462.005000	15384.060000	40621.455000	62895.285000	43056.630000	25182.585000	-6159.690000	15428.880000	0.900263	1.388904	1.426415	0.940321	3.375437	3.898102	1.452226	0.503998	-0.946120	3.235120	1.495480	-0.766355	-0.038025	0.627501	-1.000000	-1.000000	-1.000000	-1.000000	-1.000000	-1.000000	-1.000000	60.000000	0.000000	-1.000000	-1.000000	1602450.000000	1776579606.503834
19453.140000	15375.735000	40614.030000	62888.895000	43043.310000	25144.920000	-6183.495000	15417.810000	0.648689	1.506838	0.723162	-1.173472	2.551956	11.130216	3.763435	0.338334	-0.946120	3.235120	1.495480	-0.766355	-0.038025	0.627501	-1.000000	-1.000000	-1.000000	-1.000000	-1.000000	-1.000000	-1.000000	60.000000	0.000000	-1.000000	-1.000000	1602451.000000	1776579606.503847
19458.675000	15378.795000	40617.405000	62894.430000	43053.885000	25131.060000	-6186.330000	15424.785000	-0.491753	0.189368	-1.137620	-3.744819	-0.748819	11.278401	2.577690	-0.696624	-0.946120	3.235120	1.495480	-0.766355	-0.038025	0.627501	-1.000000	-1.000000	-1.000000	-1.000000	-1.000000	-1.000000	-1.000000	60.000000	0.000000	-1.000000	-1.000000	1602452.000000	1776579606.507807
19451.880000	15371.235000	40609.170000	62882.730000	43047.765000	25143.255000	-6177.735000	15420.420000	-2.375052	-2.284434	-3.607791	-5.754287	-4.255478	3.004242	-1.621061	-2.276326	-0.946120	3.235120	1.495480	-0.766355	-0.038025	0.627501	-1.000000	-1.000000	-1.000000	-1.000000	-1.000000	-1.000000	-1.000000	60.000000	0.000000	-1.000000	-1.000000	1602453.000000	1776579606.507837
19442.250000	15360.930000	40600.035000	62876.295000	43041.510000	25150.455000	-6176.565000	15410.880000	-3.938819	-4.508382	-5.393668	-6.326376	-5.558321	-6.424284	-4.546133	-3.189378	-0.946120	3.235120	1.495480	-0.766355	-0.038025	0.627501	-1.000000	-1.000000	-1.000000	-1.000000	-1.000000	-1.000000	-1.000000	60.000000	0.000000	-1.000000	-1.000000	1602454.000000	1776579606.511826
19444.680000	15361.605000	40601.115000	62876.205000	43043.085000	25166.430000	-6165.810000	15414.345000	-4.533224	-5.460947	-5.720134	-5.399851	-4.470816	-9.201468	-3.301275	-3.108292	-0.946120	3.235120	1.495480	-0.766355	-0.038025	0.627501	-1.000000	-1.000000	-1.000000	-1.000000	-1.000000	-1.000000	-1.000000	60.000000	0.000000	-1.000000	-1.000000	1602455.000000	1776579606.511843
19441.620000	15359.130000	40600.170000	62875.530000	43045.110000	25173.540000	-6162.705000	15410.655000	-3.632303	-4.452263	-4.094259	-2.939223	-1.868814	-4.162270	1.141312	-2.048985	-0.946120	3.235120	1.495480	-0.766355	-0.038025	0.627501	-1.000000	-1.000000	-1.000000	-1.000000	-1.000000	-1.000000	-1.000000	60.000000	0.000000	-1.000000	-1.000000	1602456.000000	1776579606.515668
19435.410000	15355.260000	40596.705000	62871.345000	43038.675000	25164.990000	-6171.255000	15403.950000	-1.235988	-1.498230	-0.690172	0.684092	1.233704	3.647400	5.343838	-0.254907	-0.946120	3.235120	1.495480	-0.766355	-0.038025	0.627501	-1.000000	-1.000000	-1.000000	-1.000000	-1.000000	-1.000000	-1.000000	60.000000	0.000000	-1.000000	-1.000000	1602457.000000	1776579606.515680
19437.930000	15359.355000	40602.690000	62877.555000	43044.030000	25162.245000	-6174.585000	15404.490000	1.606569	2.232868	3.213329	4.265342	3.578735	7.756639	5.974934	1.427292	-5.737760	2.075360	0.106820	-0.769285	-0.035522	0.627501	-1.000000	-1.000000	-1.000000	-1.000000	-1.000000	-1.000000	-1.000000	60.000000	0.000000	-1.000000	-1.000000	1602458.000000	1776579606.519764
19447.515000	15368.355000	40612.005000	62886.375000	43048.305000	25160.310000	-6169.320000	15414.075000	4.016771	5.481205	6.339503	6.815785	4.555841	5.526515	2.640756	2.626320	-5.737760	2.075360	0.106820	-0.769285	-0.035522	0.627501	-1.000000	-1.000000	-1.000000	-1.000000	-1.000000	-1.000000	-1.000000	60.000000	0.000000	-1.000000	-1.000000	1602459.000000	1776579606.519775
19450.935000	15369.570000	40610.880000	62885.205000	43047.135000	25166.160000	-6168.915000	15420.195000	5.858044	7.515507	7.957760	7.904100	4.409837	-0.395700	-1.825859	3.835425	-5.737760	2.075360	0.106820	-0.769285	-0.035522	0.627501	-1.000000	-1.000000	-1.000000	-1.000000	-1.000000	-1.000000	-1.000000	60.000000	0.000000	-1.000000	-1.000000	1602460.000000	1776579606.523825
19448.505000	15364.710000	40604.400000	62877.780000	43043.535000	25168.005000	-6175.530000	15417.720000	6.599853	7.465827	7.177091	6.801179	3.212235	-5.298343	-4.558950	4.935178	-5.737760	2.075360	0.106820	-0.769285	-0.035522	0.627501	-1.000000	-1.000000	-1.000000	-1.000000	-1.000000	-1.000000	-1.000000	60.000000	0.000000	-1.000000	-1.000000	1602461.000000	1776579606.523841
19454.805000	15373.305000	40610.925000	62884.260000	43042.770000	25155.360000	-6170.355000	15421.455000	5.320992	4.795603	3.629331	3.150774	0.917451	-6.648666	-4.859897	4.715075	-5.737760	2.075360	0.106820	-0.769285	-0.035522	0.627501	-1.000000	-1.000000	-1.000000	-1.000000	-1.000000	-1.000000	-1.000000	60.000000	0.000000	-1.000000	-1.000000	1602462.000000	1776579606.527756
19457.235000	15377.175000	40614.435000	62889.480000	43042.410000	25114.815000	-6170.310000	15422.760000	2.217212	0.677133	-1.076595	-1.448713	-1.774406	-6.009812	-3.287681	2.533220	-5.737760	2.075360	0.106820	-0.769285	-0.035522	0.627501	-1.000000	-1.000000	-1.000000	-1.000000	-1.000000	-1.000000	-1.000000	60.000000	0.000000	-1.000000	-1.000000	1602463.000000	1776579606.527774
19448.010000	15366.150000	40605.660000	62878.410000	43037.055000	25143.300000	-6177.915000	15412.860000	-1.519155	-3.041638	-4.627022	-4.717834	-3.720130	-5.717597	-0.883618	-0.949210	-5.737760	2.075360	0.106820	-0.769285	-0.035522	0.627501	-1.000000	-1.000000	-1.000000	-1.000000	-1.000000	-1.000000	-1.000000	60.000000	0.000000	-1.000000	-1.000000	1602464.000000	1776579606.531693
19452.960000	15370.335000	40614.570000	62883.900000	43037.865000	25141.095000	-6178.050000	15417.045000	-4.851932	-5.629654	-6.077009	-5.977303	-4.270013	-4.228836	0.928295	-4.528931	-5.737760	2.075360	0.106820	-0.769285	-0.035522	0.627501	-1.000000	-1.000000	-1.000000	-1.000000	-1.000000	-1.000000	-1.000000	60.000000	0.000000	-1.000000	-1.000000	1602465.000000	1776579606.531706
19450.575000	15366.330000	40612.995000	62888.085000	43052.670000	25159.635000	-6170.220000	15416.190000	-6.745511	-6.800808	-5.447338	-5.429608	-3.102748	1.068175	1.630126	-6.680154	-5.737760	2.075360	0.106820	-0.769285	-0.035522	0.627501	-1.000000	-1.000000	-1.000000	-1.000000	-1.000000	-1.000000	-1.000000	60.000000	0.000000	-1.000000	-1.000000	1602466.000000	1776579606.535705
19441.845000	15356.115000	40601.655000	62880.795000	43054.920000	25181.820000	-6165.000000	15409.665000	-6.550484	-6.330577	-3.457848	-3.360343	-0.116556	9.054978	2.096951	-6.364460	-5.737760	2.075360	0.106820	-0.769285	-0.035522	0.627501	-1.000000	-1.000000	-1.000000	-1.000000	-1.000000	-1.000000	-1.000000	60.000000	0.000000	-1.000000	-1.000000	1602467.000000	1776579606.535720
19446.210000	15362.370000	40607.865000	62886.195000	43052.715000	25173.810000	-6165.315000	15412.950000	-4.719985	-4.565601	-1.518534	-0.801272	3.360345	15.528654	2.891611	-4.041395	-6.790700	1.922760	-1.678600	-0.770689	-0.036499	0.627623	-1.000000	-1.000000	-1.000000	-1.000000	-1.000000	-1.000000	-1.000000	60.000000	0.000000	-1.000000	-1.000000	1602468.000000	1776579606.539704
19446.210000	15362.010000	40608.540000	62887.410000	43051.770000	25163.280000	-6170.130000	15412.050000	-1.923894	-1.773991	-0.116799	1.228105	4.863971	15.604866	3.152980	-0.862658	-6.790700	1.922760	-1.678600	-0.770689	-0.036499	0.627623	-1.000000	-1.000000	-1.000000	-1.000000	-1.000000	-1.000000	-1.000000	60.000000	0.000000	-1.000000	-1.000000	1602469.000000	1776579606.539717
19458.180000	15372.585000	40616.550000	62889.795000	43043.895000	25137.630000	-6171.660000	15421.860000	1.501158	1.876885	1.391233	2.493524	3.136022	7.033996	1.788989	2.324646	-6.790700	1.922760	-1.678600	-0.770689	-0.036499	0.627623	-1.000000	-1.000000	-1.000000	-1.000000	-1.000000	-1.000000	-1.000000	60.000000	0.000000	-1.000000	-1.000000	1602470.000000	1776579606.543699
19463.895000	15377.265000	40617.855000	62885.385000	43030.890000	25125.795000	-6177.105000	15424.560000	5.017128	5.586300	3.201617	2.867533	-1.027538	-6.979178	-0.976421	4.940369	-6.790700	1.922760	-1.678600	-0.770689	-0.036499	0.627623	-1.000000	-1.000000	-1.000000	-1.000000	-1.000000	-1.000000	-1.000000	60.000000	0.000000	-1.000000	-1.000000	1602471.000000	1776579606.543708
19463.895000	15378.480000	40620.465000	62890.785000	43040.160000	25154.730000	-6172.290000	15422.985000	7.394764	7.893506	4.505871	2.214886	-5.336064	-18.434919	-3.606147	6.197425	-6.790700	1.922760	-1.678600	-0.770689	-0.036499	0.627623	-1.000000	-1.000000	-1.000000	-1.000000	-1.000000	-1.000000	-1.000000	60.000000	0.000000	-1.000000	-1.000000	1602472.000000	1776579606.547738
19450.305000	15362.820000	40605.930000	62880.930000	43046.460000	25190.055000	-6160.095000	15412.500000	6.848405	7.101164	4.024388	0.809610	-6.726283	-18.867846	-4.183743	5.032768	-6.790700	1.922760	-1.678600	-0.770689	-0.036499	0.627623	-1.000000	-1.000000	-1.000000	-1.000000	-1.000000	-1.000000	-1.000000	60.000000	0.000000	-1.000000	-1.000000	1602473.000000	1776579606.547749
19441.305000	15352.515000	40596.525000	62873.595000	43035.255000	25144.335000	-6171.255000	15404.670000	2.477256	2.435290	0.963158	-1.036566	-3.946387	-7.641535	-2.089331	1.147646	-6.790700	1.922760	-1.678600	-0.770689	-0.036499	0.627623	-1.000000	-1.000000	-1.000000	-1.000000	-1.000000	-1.000000	-1.000000	60.000000	0.000000	-1.000000	-1.000000	1602474.000000	1776579606.551675
19448.280000	15360.300000	40602.825000	62876.565000	43032.960000	25134.705000	-6174.315000	15411.780000	-3.825588	-4.146280	-3.488213	-2.856245	0.606619	5.075028	0.733034	-3.712956	-6.790700	1.922760	-1.678600	-0.770689	-0.036499	0.627623	-1.000000	-1.000000	-1.000000	-1.000000	-1.000000	-1.000000	-1.000000	60.000000	0.000000	-1.000000	-1.000000	1602475.000000	1776579606.551683
19452.645000	15367.275000	40610.970000	62885.430000	43045.065000	25163.370000	-6167.295000	15414.120000	-7.887978	-8.255278	-6.026871	-3.298616	3.893822	9.950574	1.984013	-6.348830	-6.790700	1.922760	-1.678600	-0.770689	-0.036499	0.627623	-1.000000	-1.000000	-1.000000	-1.000000	-1.000000	-1.000000	-1.000000	60.000000	0.000000	-1.000000	-1.000000	1602476.000000	1776579606.555917
19449.225000	15362.910000	40606.920000	62885.070000	43047.990000	25171.650000	-6166.980000	15412.680000	-7.051613	-7.063925	-4.408692	-1.305206	5.372881	8.400743	1.716694	-5.032739	-6.790700	1.922760	-1.678600	-0.770689	-0.036499	0.627623	-1.000000	-1.000000	-1.000000	-1.000000	-1.000000	-1.000000	-1.000000	60.000000	0.000000	-1.000000	-1.000000	1602477.000000	1776579606.555931
19451.295000	15365.430000	40608.720000	62883.540000	43041.150000	25168.005000	-6167.205000	15413.715000	-2.610484	-2.123530	-0.055495	2.014535	5.462525	5.927164	1.127095	-1.158530	-3.830260	0.503580	-2.441600	-0.770872	-0.040039	0.628172	-1.000000	-1.000000	-1.000000	-1.000000	-1.000000	-1.000000	-1.000000	60.000000	0.000000	-1.000000	-1.000000	1602478.000000	1776579606.559852
19459.485000	15374.655000	40618.305000	62892.720000	43042.095000	25156.125000	-6165.630000	15419.250000	2.318509	3.022405	3.955732	4.378089	3.820626	3.665175	0.664207	2.641888	-3.830260	0.503580	-2.441600	-0.770872	-0.040039	0.628172	-1.000000	-1.000000	-1.000000	-1.000000	-1.000000	-1.000000	-1.000000	60.000000	0.000000	-1.000000	-1.000000	1602479.000000	1776579606.559870
19467.135000	15381.855000	40625.055000	62897.985000	43041.105000	25139.520000	-6171.210000	15424.650000	5.719143	6.229172	5.997702	4.795774	0.644482	-0.151240	0.152682	4.818295	-3.830260	0.503580	-2.441600	-0.770872	-0.040039	0.628172	-1.000000	-1.000000	-1.000000	-1.000000	-1.000000	-1.000000	-1.000000	60.000000	0.000000	-1.000000	-1.000000	1602480.000000	1776579606.565190
19465.785000	15380.595000	40624.830000	62897.580000	43044.030000	25144.155000	-6176.880000	15423.120000	6.835842	6.877522	5.873105	3.640975	-2.546134	-5.436848	-0.726562	5.029547	-3.830260	0.503580	-2.441600	-0.770872	-0.040039	0.628172	-1.000000	-1.000000	-1.000000	-1.000000	-1.000000	-1.000000	-1.000000	60.000000	0.000000	-1.000000	-1.000000	1602481.000000	1776579606.565207
19457.055000	15369.570000	40615.425000	62890.335000	43042.905000	25171.695000	-6167.655000	15417.585000	5.164923	4.642604	3.478598	1.211765	-4.190646	-8.558765	-1.751080	3.261179	-3.830260	0.503580	-2.441600	-0.770872	-0.040039	0.628172	-1.000000	-1.000000	-1.000000	-1.000000	-1.000000	-1.000000	-1.000000	60.000000	0.000000	-1.000000	-1.000000	1602482.000000	1776579606.567879
19442.070000	15353.055000	40596.750000	62871.660000	43030.440000	25180.785000	-6158.070000	15405.390000	0.628789	-0.415141	-1.217102	-2.518088	-4.123291	-5.666199	-1.666420	-0.282474	-3.830260	0.503580	-2.441600	-0.770872	-0.040039	0.628172	-1.000000	-1.000000	-1.000000	-1.000000	-1.000000	-1.000000	-1.000000	60.000000	0.000000	-1.000000	-1.000000	1602483.000000	1776579606.567889
19440.630000	15354.720000	40600.665000	62880.255000	43039.935000	25169.220000	-6166.440000	15401.385000	-5.279843	-6.575505	-6.873582	-6.651556	-3.233505	1.788360	0.132601	-4.556575	-3.830260	0.503580	-2.441600	-0.770872	-0.040039	0.628172	-1.000000	-1.000000	-1.000000	-1.000000	-1.000000	-1.000000	-1.000000	60.000000	0.000000	-1.000000	-1.000000	1602484.000000	1776579606.571755
19448.775000	15367.680000	40621.500000	62910.405000	43069.005000	25165.530000	-6171.930000	15406.335000	-9.189580	-10.051664	-9.848395	-8.040430	-1.263320	7.435007	1.943554	-7.351742	-3.830260	0.503580	-2.441600	-0.770872	-0.040039	0.628172	-1.000000	-1.000000	-1.000000	-1.000000	-1.000000	-1.000000	-1.000000	60.000000	0.000000	-1.000000	-1.000000	1602485.000000	1776579606.571767
19444.770000	15361.830000	40611.285000	62889.975000	43040.925000	25168.545000	-6169.680000	15403.140000	-8.196132	-7.875461	-7.071233	-4.187931	2.237290	6.948962	1.796155	-6.594181	-3.830260	0.503580	-2.441600	-0.770872	-0.040039	0.628172	-1.000000	-1.000000	-1.000000	-1.000000	-1.000000	-1.000000	-1.000000	60.000000	0.000000	-1.000000	-1.000000	1602486.000000	1776579606.575898
19440.495000	15357.870000	40603.545000	62876.295000	43033.680000	25166.880000	-6172.740000	15398.190000	-2.982575	-1.509661	-0.482827	1.857469	4.530787	1.862503	0.016957	-2.594082	-3.830260	0.503580	-2.441600	-0.770872	-0.040039	0.628172	-1.000000	-1.000000	-1.000000	-1.000000	-1.000000	-1.000000	-1.000000	60.000000	0.000000	-1.000000	-1.000000	1602487.000000	1776579606.575910
19441.440000	15359.085000	40607.460000	62887.950000	43041.510000	25155.360000	-6170.220000	15400.890000	2.883959	4.582573	4.854540	4.765151	2.815224	-3.736698	-1.643054	2.142939	-2.868880	1.983800	-1.602300	-0.770018	-0.047974	0.625731	-1.000000	-1.000000	-1.000000	-1.000000	-1.000000	-1.000000	-1.000000	60.000000	0.000000	-1.000000	-1.000000	1602488.000000	1776579606.580334
19451.025000	15363.945000	40605.255000	62870.310000	43018.515000	25169.310000	-6165.495000	15409.710000	6.638411	7.477395	6.389259	3.555777	-1.406803	-6.882435	-1.877635	5.563228	-2.868880	1.983800	-1.602300	-0.770018	-0.047974	0.625731	-1.000000	-1.000000	-1.000000	-1.000000	-1.000000	-1.000000	-1.000000	60.000000	0.000000	-1.000000	-1.000000	1602489.000000	1776579606.580349
19456.560000	15371.145000	40615.065000	62884.440000	43033.095000	25168.320000	-6167.205000	15413.400000	7.901532	7.295580	5.133824	0.801461	-4.831027	-6.159877	-0.567283	7.199947	-2.868880	1.983800	-1.602300	-0.770018	-0.047974	0.625731	-1.000000	-1.000000	-1.000000	-1.000000	-1.000000	-1.000000	-1.000000	60.000000	0.000000	-1.000000	-1.000000	1602490.000000	1776579606.585155
19457.685000	15368.040000	40612.905000	62883.720000	43030.305000	25163.055000	-6167.115000	15417.135000	7.209817	5.377461	3.149193	-0.781925	-5.116071	-2.298321	1.180411	7.069372	-2.868880	1.983800	-1.602300	-0.770018	-0.047974	0.625731	-1.000000	-1.000000	-1.000000	-1.000000	-1.000000	-1.000000	-1.000000	60.000000	0.000000	-1.000000	-1.000000	1602491.000000	1776579606.585171
19459.080000	15367.320000	40612.320000	62882.595000	43028.685000	25159.635000	-6166.845000	15418.305000	4.764976	2.503772	1.456882	-0.123778	-1.939701	1.786002	2.035779	5.075586	-2.868880	1.983800	-1.602300	-0.770018	-0.047974	0.625731	-1.000000	-1.000000	-1.000000	-1.000000	-1.000000	-1.000000	-1.000000	60.000000	0.000000	-1.000000	-1.000000	1602492.000000	1776579606.587990
19453.860000	15363.765000	40607.865000	62877.240000	43023.195000	25149.870000	-6172.920000	15413.130000	0.849304	-0.948431	-0.190775	1.428021	2.342901	3.503718	1.504416	1.440015	-2.868880	1.983800	-1.602300	-0.770018	-0.047974	0.625731	-1.000000	-1.000000	-1.000000	-1.000000	-1.000000	-1.000000	-1.000000	60.000000	0.000000	-1.000000	-1.000000	1602493.000000	1776579606.588003
19457.820000	15365.925000	40609.620000	62877.555000	43019.010000	25141.050000	-6172.965000	15417.000000	-3.504091	-4.100449	-1.989714	1.931070	4.808854	2.367400	-0.061901	-2.897123	-2.868880	1.983800	-1.602300	-0.770018	-0.047974	0.625731	-1.000000	-1.000000	-1.000000	-1.000000	-1.000000	-1.000000	-1.000000	60.000000	0.000000	-1.000000	-1.000000	1602494.000000	1776579606.591867
19463.715000	15370.785000	40616.325000	62884.755000	43022.070000	25143.885000	-6163.740000	15422.265000	-6.487203	-5.614121	-3.199825	1.127058	4.506103	-0.138699	-1.519536	-6.160192	-2.868880	1.983800	-1.602300	-0.770018	-0.047974	0.625731	-1.000000	-1.000000	-1.000000	-1.000000	-1.000000	-1.000000	-1.000000	60.000000	0.000000	-1.000000	-1.000000	1602495.000000	1776579606.591882
19460.070000	15367.995000	40615.155000	62885.295000	43029.405000	25161.705000	-6162.435000	15419.295000	-6.713362	-4.767614	-2.893992	0.219572	2.769362	-1.271614	-1.499219	-6.821743	-2.868880	1.983800	-1.602300	-0.770018	-0.047974	0.625731	-1.000000	-1.000000	-1.000000	-1.000000	-1.000000	-1.000000	-1.000000	60.000000	0.000000	-1.000000	-1.000000	1602496.000000	1776579606.595806
19452.915000	15361.020000	40609.125000	62880.885000	43032.105000	25166.340000	-6172.740000	15411.105000	-4.774649	-2.481161	-1.438614	-0.113972	1.502741	0.893100	-0.165760	-5.245881	-2.868880	1.983800	-1.602300	-0.770018	-0.047974	0.625731	-1.000000	-1.000000	-1.000000	-1.000000	-1.000000	-1.000000	-1.000000	60.000000	0.000000	-1.000000	-1.000000	1602497.000000	1776579606.595818
19449.090000	15357.735000	40606.020000	62880.660000	43028.505000	25140.780000	-6176.835000	15406.605000	-2.572421	-0.573801	-0.315865	-0.416422	1.114813	4.530902	0.624218	-3.204795	-0.259420	2.105880	-1.983800	-0.769957	-0.053406	0.624815	-1.000000	-1.000000	-1.000000	-1.000000	-1.000000	-1.000000	-1.000000	60.000000	0.000000	-1.000000	-1.000000	1602498.000000	1776579606.599885
19450.710000	15359.895000	40608.000000	62881.785000	43028.910000	25145.280000	-6179.040000	15406.560000	-1.096311	0.196568	-0.239037	-1.080780	0.557588	5.277071	-0.198712	-1.727284	-0.259420	2.105880	-1.983800	-0.769957	-0.053406	0.624815	-1.000000	-1.000000	-1.000000	-1.000000	-1.000000	-1.000000	-1.000000	60.000000	0.000000	-1.000000	-1.000000	1602499.000000	1776579606.599927
19460.385000	15371.280000	40619.880000	62890.920000	43033.905000	25162.020000	-6174.000000	15413.985000	0.312021	0.765740	-0.265056	-1.484932	-0.751538	2.185279	-1.526552	-0.262697	-0.259420	2.105880	-1.983800	-0.769957	-0.053406	0.624815	-1.000000	-1.000000	-1.000000	-1.000000	-1.000000	-1.000000	-1.000000	60.000000	0.000000	-1.000000	-1.000000	1602500.000000	1776579606.603890
19456.290000	15367.185000	40617.360000	62890.020000	43033.320000	25165.080000	-6173.955000	15409.710000	2.422600	2.156469	0.779728	-0.870625	-2.122692	-1.061182	-1.590196	1.921295	-0.259420	2.105880	-1.983800	-0.769957	-0.053406	0.624815	-1.000000	-1.000000	-1.000000	-1.000000	-1.000000	-1.000000	-1.000000	60.000000	0.000000	-1.000000	-1.000000	1602501.000000	1776579606.603904
19447.830000	15357.375000	40608.810000	62882.145000	43029.090000	25163.685000	-6174.495000	15402.060000	4.308952	3.510379	2.235552	0.241163	-2.861391	-1.821901	-0.036311	4.032486	-0.259420	2.105880	-1.983800	-0.769957	-0.053406	0.624815	-1.000000	-1.000000	-1.000000	-1.000000	-1.000000	-1.000000	-1.000000	60.000000	0.000000	-1.000000	-1.000000	1602502.000000	1776579606.607921
19441.935000	15350.895000	40603.635000	62878.590000	43032.645000	25177.680000	-6168.555000	15396.705000	4.121270	2.887364	2.157267	0.370898	-2.976440	-0.904601	2.001908	4.371895	-0.259420	2.105880	-1.983800	-0.769957	-0.053406	0.624815	-1.000000	-1.000000	-1.000000	-1.000000	-1.000000	-1.000000	-1.000000	60.000000	0.000000	-1.000000	-1.000000	1602503.000000	1776579606.607941
19440.855000	15347.475000	40600.800000	62874.585000	43023.195000	25157.745000	-6172.830000	15395.940000	1.627543	0.041451	0.016727	-0.937602	-2.653679	-0.204288	3.258832	2.579041	-0.259420	2.105880	-1.983800	-0.769957	-0.053406	0.624815	-1.000000	-1.000000	-1.000000	-1.000000	-1.000000	-1.000000	-1.000000	60.000000	0.000000	-1.000000	-1.000000	1602504.000000	1776579606.611898
19441.485000	15346.980000	40599.045000	62871.885000	43018.560000	25156.980000	-6175.530000	15396.435000	-1.257652	-2.991816	-2.549936	-2.529844	-2.203555	-1.256958	2.942585	0.181449	-0.259420	2.105880	-1.983800	-0.769957	-0.053406	0.624815	-1.000000	-1.000000	-1.000000	-1.000000	-1.000000	-1.000000	-1.000000	60.000000	0.000000	-1.000000	-1.000000	1602505.000000	1776579606.611909
19445.490000	15351.165000	40602.960000	62876.520000	43022.745000	25158.510000	-6173.955000	15400.710000	-2.380637	-3.884254	-3.480628	-2.868376	-1.724226	-3.851869	1.069577	-0.984541	-0.259420	2.105880	-1.983800	-0.769957	-0.053406	0.624815	-1.000000	-1.000000	-1.000000	-1.000000	-1.000000	-1.000000	-1.000000	60.000000	0.000000	-1.000000	-1.000000	1602506.000000	1776579606.615904
19440.495000	15346.080000	40599.675000	62876.205000	43025.580000	25151.895000	-6180.345000	15396.705000	-1.245168	-2.024849	-2.032869	-1.242256	-0.571490	-5.707696	-1.330948	-0.401339	-0.259420	2.105880	-1.983800	-0.769957	-0.053406	0.624815	-1.000000	-1.000000	-1.000000	-1.000000	-1.000000	-1.000000	-1.000000	60.000000	0.000000	-1.000000	-1.000000	1602507.000000	1776579606.615929
19443.600000	15347.475000	40600.755000	62877.735000	43026.840000	25153.560000	-6176.565000	15401.295000	0.827712	1.088685	0.742915	1.617850	1.606140	-5.094043	-3.020856	0.946356	1.052940	2.487380	-5.325740	-0.769957	-0.052856	0.628538	-1.000000	-1.000000	-1.000000	-1.000000	-1.000000	-1.000000	-1.000000	60.000000	0.000000	-1.000000	-1.000000	1602508.000000	1776579606.619870
19446.705000	15349.905000	40599.990000	62872.785000	43016.760000	25146.945000	-6179.895000	15402.870000	2.323001	3.466534	3.068424	3.951448	3.693640	-2.305702	-3.265370	1.866495	1.052940	2.487380	-5.325740	-0.769957	-0.052856	0.628538	-1.000000	-1.000000	-1.000000	-1.000000	-1.000000	-1.000000	-1.000000	60.000000	0.000000	-1.000000	-1.000000	1602509.000000	1776579606.619883
19453.770000	15360.660000	40611.105000	62883.900000	43025.625000	25148.115000	-6177.555000	15407.910000	2.828198	4.395573	4.036989	4.508060	4.148894	1.174290	-2.080146	1.956613	1.052940	2.487380	-5.325740	-0.769957	-0.052856	0.628538	-1.000000	-1.000000	-1.000000	-1.000000	-1.000000	-1.000000	-1.000000	60.000000	0.000000	-1.000000	-1.000000	1602510.000000	1776579606.623977
19449.405000	15354.045000	40603.860000	62873.055000	43011.495000	25148.430000	-6172.650000	15404.445000	2.503848	4.123135	3.790566	3.395624	2.733395	3.936129	-0.075443	1.283728	1.052940	2.487380	-5.325740	-0.769957	-0.052856	0.628538	-1.000000	-1.000000	-1.000000	-1.000000	-1.000000	-1.000000	-1.000000	60.000000	0.000000	-1.000000	-1.000000	1602511.000000	1776579606.623992
19453.680000	15361.380000	40613.805000	62883.360000	43014.060000	25133.085000	-6179.580000	15402.960000	1.312909	2.713457	2.583435	1.348419	0.279361	5.066881	1.861894	-0.122147	1.052940	2.487380	-5.325740	-0.769957	-0.052856	0.628538	-1.000000	-1.000000	-1.000000	-1.000000	-1.000000	-1.000000	-1.000000	60.000000	0.000000	-1.000000	-1.000000	1602512.000000	1776579606.627977
19452.780000	15362.235000	40616.055000	62885.250000	43010.865000	25117.785000	-6191.595000	15399.225000	-0.551153	0.422078	0.839647	-0.633185	-2.026127	3.759961	2.441117	-2.052746	1.052940	2.487380	-5.325740	-0.769957	-0.052856	0.628538	-1.000000	-1.000000	-1.000000	-1.000000	-1.000000	-1.000000	-1.000000	60.000000	0.000000	-1.000000	-1.000000	1602513.000000	1776579606.627991
19451.925000	15359.310000	40613.085000	62883.585000	43015.230000	25128.810000	-6187.590000	15401.610000	-2.394112	-1.957729	-0.830161	-1.678980	-2.910434	0.536417	0.975068	-3.722592	1.052940	2.487380	-5.325740	-0.769957	-0.052856	0.628538	-1.000000	-1.000000	-1.000000	-1.000000	-1.000000	-1.000000	-1.000000	60.000000	0.000000	-1.000000	-1.000000	1602514.000000	1776579606.634620
19443.915000	15350.085000	40602.555000	62872.830000	43008.930000	25143.255000	-6181.515000	15394.905000	-3.699005	-3.979104	-2.503615	-2.141692	-1.997078	-1.551222	-1.067825	-4.208093	1.052940	2.487380	-5.325740	-0.769957	-0.052856	0.628538	-1.000000	-1.000000	-1.000000	-1.000000	-1.000000	-1.000000	-1.000000	60.000000	0.000000	-1.000000	-1.000000	1602515.000000	1776579606.634637
19445.040000	15349.365000	40601.925000	62872.155000	43005.375000	25144.965000	-6174.405000	15397.020000	-4.305595	-5.508747	-4.434285	-2.939724	-0.316964	0.082048	-1.319354	-3.287023	1.052940	2.487380	-5.325740	-0.769957	-0.052856	0.628538	-1.000000	-1.000000	-1.000000	-1.000000	-1.000000	-1.000000	-1.000000	60.000000	0.000000	-1.000000	-1.000000	1602516.000000	1776579606.635801
19442.070000	15345.135000	40593.060000	62858.340000	42997.635000	25141.860000	-6178.545000	15395.760000	-3.924213	-5.937713	-5.906472	-4.044773	0.669644	3.887962	0.599179	-1.386091	1.052940	2.487380	-5.325740	-0.769957	-0.052856	0.628538	-1.000000	-1.000000	-1.000000	-1.000000	-1.000000	-1.000000	-1.000000	60.000000	0.000000	-1.000000	-1.000000	1602517.000000	1776579606.635811
19442.880000	15348.870000	40598.460000	62866.665000	43016.310000	25161.480000	-6169.230000	15397.785000	-2.315468	-4.508324	-5.675830	-4.449801	0.788688	6.211602	2.824279	0.881003	1.220800	1.907500	-5.371520	-0.769590	-0.048096	0.629027	-1.000000	-1.000000	-1.000000	-1.000000	-1.000000	-1.000000	-1.000000	60.000000	0.000000	-1.000000	-1.000000	1602518.000000	1776579606.639840
19444.545000	15349.320000	40604.040000	62877.600000	43025.310000	25185.285000	-6163.470000	15400.665000	0.194784	-1.231940	-2.977901	-2.736942	1.516518	5.991338	3.716014	2.864683	1.220800	1.907500	-5.371520	-0.769590	-0.048096	0.629027	-1.000000	-1.000000	-1.000000	-1.000000	-1.000000	-1.000000	-1.000000	60.000000	0.000000	-1.000000	-1.000000	1602519.000000	1776579606.639859
19448.730000	15352.875000	40607.370000	62881.155000	43027.605000	25170.390000	-6165.540000	15403.410000	2.848790	2.801213	1.695347	1.573496	3.543985	4.218243	2.986828	4.049836	1.220800	1.907500	-5.371520	-0.769590	-0.048096	0.629027	-1.000000	-1.000000	-1.000000	-1.000000	-1.000000	-1.000000	-1.000000	60.000000	0.000000	-1.000000	-1.000000	1602520.000000	1776579606.643817
19441.260000	15344.415000	40596.930000	62867.385000	43013.925000	25153.830000	-6178.590000	15394.050000	4.635391	5.770111	6.067889	6.205999	4.829377	0.247039	0.609479	3.940600	1.220800	1.907500	-5.371520	-0.769590	-0.048096	0.629027	-1.000000	-1.000000	-1.000000	-1.000000	-1.000000	-1.000000	-1.000000	60.000000	0.000000	-1.000000	-1.000000	1602521.000000	1776579606.643828
19443.195000	15347.880000	40599.720000	62866.710000	43011.315000	25159.590000	-6178.545000	15394.410000	4.570310	6.166292	7.421272	7.509220	2.773633	-6.480083	-3.164625	2.149274	1.220800	1.907500	-5.371520	-0.769590	-0.048096	0.629027	-1.000000	-1.000000	-1.000000	-1.000000	-1.000000	-1.000000	-1.000000	60.000000	0.000000	-1.000000	-1.000000	1602522.000000	1776579606.647793
19441.530000	15342.795000	40594.545000	62863.515000	43010.010000	25169.400000	-6173.370000	15393.915000	2.669722	4.035865	5.153467	4.428222	-2.220493	-12.538406	-6.507614	-0.672714	1.220800	1.907500	-5.371520	-0.769590	-0.048096	0.629027	-1.000000	-1.000000	-1.000000	-1.000000	-1.000000	-1.000000	-1.000000	60.000000	0.000000	-1.000000	-1.000000	1602523.000000	1776579606.647810
19441.620000	15343.335000	40595.445000	62865.090000	43011.495000	25170.300000	-6175.755000	15393.150000	0.131822	0.825569	1.090314	-0.520866	-6.778240	-13.204428	-6.960675	-2.894782	1.220800	1.907500	-5.371520	-0.769590	-0.048096	0.629027	-1.000000	-1.000000	-1.000000	-1.000000	-1.000000	-1.000000	-1.000000	60.000000	0.000000	-1.000000	-1.000000	1602524.000000	1776579606.652028
19440.495000	15344.685000	40597.695000	62867.655000	43011.135000	25162.605000	-6181.605000	15390.135000	-1.774262	-1.799973	-2.317878	-3.985285	-7.871349	-8.014188	-4.214028	-3.443455	1.220800	1.907500	-5.371520	-0.769590	-0.048096	0.629027	-1.000000	-1.000000	-1.000000	-1.000000	-1.000000	-1.000000	-1.000000	60.000000	0.000000	-1.000000	-1.000000	1602525.000000	1776579606.652045
19445.400000	15354.360000	40609.980000	62879.580000	43013.970000	25151.355000	-6180.885000	15392.655000	-2.390413	-2.622000	-3.315521	-4.133010	-5.123741	-1.042991	-0.308960	-2.457812	1.220800	1.907500	-5.371520	-0.769590	-0.048096	0.629027	-1.000000	-1.000000	-1.000000	-1.000000	-1.000000	-1.000000	-1.000000	60.000000	0.000000	-1.000000	-1.000000	1602526.000000	1776579606.656099
19444.005000	15351.480000	40607.955000	62878.140000	43010.055000	25131.780000	-6186.420000	15391.485000	-1.704663	-1.457780	-1.680306	-1.365845	-0.472178	3.212427	2.682645	-0.658486	1.220800	1.907500	-5.371520	-0.769590	-0.048096	0.629027	-1.000000	-1.000000	-1.000000	-1.000000	-1.000000	-1.000000	-1.000000	60.000000	0.000000	-1.000000	-1.000000	1602527.000000	1776579606.656125
19450.080000	15352.245000	40605.480000	62873.910000	42998.895000	25122.420000	-6182.685000	15400.080000	-0.303979	0.392828	0.794805	1.864744	3.250611	3.220653	3.989234	1.266860	-0.381500	0.350980	-4.227020	-0.769834	-0.042602	0.629942	-1.000000	-1.000000	-1.000000	-1.000000	-1.000000	-1.000000	-1.000000	60.000000	0.000000	-1.000000	-1.000000	1602528.000000	1776579606.660012
19450.890000	15352.245000	40604.895000	62875.530000	43005.780000	25145.280000	-6173.865000	15401.880000	1.029996	1.246513	1.743131	2.918436	4.239168	1.491175	4.147449	2.869972	-0.381500	0.350980	-4.227020	-0.769834	-0.042602	0.629942	-1.000000	-1.000000	-1.000000	-1.000000	-1.000000	-1.000000	-1.000000	60.000000	0.000000	-1.000000	-1.000000	1602529.000000	1776579606.660046
19451.790000	15354.180000	40608.990000	62881.290000	43023.915000	25187.940000	-6163.065000	15403.455000	1.676028	0.645847	0.603181	1.466236	3.501630	2.985949	4.298096	3.663784	-0.381500	0.350980	-4.227020	-0.769834	-0.042602	0.629942	-1.000000	-1.000000	-1.000000	-1.000000	-1.000000	-1.000000	-1.000000	60.000000	0.000000	-1.000000	-1.000000	1602530.000000	1776579606.663940
19444.680000	15347.520000	40601.025000	62870.085000	43020.180000	25207.785000	-6164.100000	15395.760000	1.162888	-0.752523	-1.373366	-0.894457	3.334294	10.014179	4.686246	2.938703	-0.381500	0.350980	-4.227020	-0.769834	-0.042602	0.629942	-1.000000	-1.000000	-1.000000	-1.000000	-1.000000	-1.000000	-1.000000	60.000000	0.000000	-1.000000	-1.000000	1602531.000000	1776579606.663957
19437.975000	15342.480000	40596.705000	62866.710000	43000.110000	25155.405000	-6178.905000	15386.895000	-0.650225	-2.283893	-3.030241	-2.990038	3.406403	17.009684	3.837125	0.308389	-0.381500	0.350980	-4.227020	-0.769834	-0.042602	0.629942	-1.000000	-1.000000	-1.000000	-1.000000	-1.000000	-1.000000	-1.000000	60.000000	0.000000	-1.000000	-1.000000	1602532.000000	1776579606.668360
19443.330000	15347.925000	40603.095000	62873.595000	43001.955000	25145.010000	-6177.510000	15392.295000	-2.933408	-3.304741	-3.721624	-4.165596	1.350317	14.191689	0.309441	-3.280671	-0.381500	0.350980	-4.227020	-0.769834	-0.042602	0.629942	-1.000000	-1.000000	-1.000000	-1.000000	-1.000000	-1.000000	-1.000000	60.000000	0.000000	-1.000000	-1.000000	1602533.000000	1776579606.668376
19439.730000	15343.335000	40599.450000	62871.030000	43002.135000	25148.520000	-6180.705000	15389.235000	-3.982285	-2.975172	-2.827937	-3.526679	-2.646417	-0.057168	-4.679256	-5.552118	-0.381500	0.350980	-4.227020	-0.769834	-0.042602	0.629942	-1.000000	-1.000000	-1.000000	-1.000000	-1.000000	-1.000000	-1.000000	60.000000	0.000000	-1.000000	-1.000000	1602534.000000	1776579606.672124
19437.795000	15341.220000	40596.705000	62868.105000	43000.965000	25147.665000	-6183.315000	15387.660000	-2.920741	-1.262113	-0.612974	-1.166859	-5.549192	-15.743479	-8.042134	-4.976110	-0.381500	0.350980	-4.227020	-0.769834	-0.042602	0.629942	-1.000000	-1.000000	-1.000000	-1.000000	-1.000000	-1.000000	-1.000000	60.000000	0.000000	-1.000000	-1.000000	1602535.000000	1776579606.672140
19439.235000	15342.885000	40597.380000	62867.880000	42999.480000	25148.430000	-6182.730000	15388.605000	-0.527640	0.832658	1.608116	1.411389	-5.333656	-22.213485	-7.857769	-2.157151	-0.381500	0.350980	-4.227020	-0.769834	-0.042602	0.629942	-1.000000	-1.000000	-1.000000	-1.000000	-1.000000	-1.000000	-1.000000	60.000000	0.000000	-1.000000	-1.000000	1602536.000000	1776579606.675952
19443.105000	15345.315000	40599.945000	62870.175000	42998.895000	25148.880000	-6180.165000	15390.450000	1.989136	2.488851	2.912609	2.954935	-2.564945	-17.041723	-4.397511	1.267803	-0.381500	0.350980	-4.227020	-0.769834	-0.042602	0.629942	-1.000000	-1.000000	-1.000000	-1.000000	-1.000000	-1.000000	-1.000000	60.000000	0.000000	-1.000000	-1.000000	1602537.000000	1776579606.675963
19439.820000	15340.995000	40596.525000	62867.250000	42995.295000	25144.155000	-6185.025000	15385.500000	3.763583	3.352249	3.216722	3.262061	0.838407	-5.169187	0.502095	3.795796	-4.852680	1.617560	-2.014320	-0.768492	-0.040466	0.629271	-1.000000	-1.000000	-1.000000	-1.000000	-1.000000	-1.000000	-1.000000	60.000000	0.000000	-1.000000	-1.000000	1602538.000000	1776579606.679937
19444.770000	15346.935000	40603.680000	62874.135000	43002.630000	25151.805000	-6179.040000	15389.955000	4.193680	3.199052	2.735784	2.697588	3.263962	6.365475	4.524970	4.505804	-4.852680	1.617560	-2.014320	-0.768492	-0.040466	0.629271	-1.000000	-1.000000	-1.000000	-1.000000	-1.000000	-1.000000	-1.000000	60.000000	0.000000	-1.000000	-1.000000	1602539.000000	1776579606.679950
19447.290000	15349.725000	40607.190000	62877.690000	43005.870000	25154.460000	-6176.610000	15392.565000	3.312376	2.305206	1.959263	1.909452	4.347065	13.044995	6.369218	3.606784	-4.852680	1.617560	-2.014320	-0.768492	-0.040466	0.629271	-1.000000	-1.000000	-1.000000	-1.000000	-1.000000	-1.000000	-1.000000	60.000000	0.000000	-1.000000	-1.000000	1602540.000000	1776579606.687286
19440.135000	15342.885000	40600.035000	62871.030000	42997.680000	25145.730000	-6184.755000	15385.635000	1.618684	1.140741	1.176806	1.213942	4.213824	13.741515	5.911762	1.952903	-4.852680	1.617560	-2.014320	-0.768492	-0.040466	0.629271	-1.000000	-1.000000	-1.000000	-1.000000	-1.000000	-1.000000	-1.000000	60.000000	0.000000	-1.000000	-1.000000	1602541.000000	1776579606.687305
19438.785000	15343.110000	40600.755000	62872.245000	42994.305000	25142.490000	-6186.060000	15384.195000	-0.610957	-0.341802	-0.026599	0.156849	2.544648	9.294364	3.383417	-0.043936	-4.852680	1.617560	-2.014320	-0.768492	-0.040466	0.629271	-1.000000	-1.000000	-1.000000	-1.000000	-1.000000	-1.000000	-1.000000	60.000000	0.000000	-1.000000	-1.000000	1602542.000000	1776579606.689389
19440.000000	15343.020000	40596.930000	62864.955000	42985.980000	25133.985000	-6183.000000	15387.255000	-2.844317	-2.006957	-1.783894	-1.525022	-0.571607	2.006533	-0.197150	-1.977918	-4.852680	1.617560	-2.014320	-0.768492	-0.040466	0.629271	-1.000000	-1.000000	-1.000000	-1.000000	-1.000000	-1.000000	-1.000000	60.000000	0.000000	-1.000000	-1.000000	1602543.000000	1776579606.689405
19440.045000	15338.880000	40588.335000	62851.455000	42983.460000	25139.745000	-6179.580000	15387.975000	-3.967448	-3.116450	-3.468792	-3.485086	-3.859340	-4.724174	-2.863907	-2.908408	-4.852680	1.617560	-2.014320	-0.768492	-0.040466	0.629271	-1.000000	-1.000000	-1.000000	-1.000000	-1.000000	-1.000000	-1.000000	60.000000	0.000000	-1.000000	-1.000000	1602544.000000	1776579606.692011
19439.865000	15340.365000	40592.700000	62860.095000	42994.215000	25146.855000	-6182.595000	15385.230000	-3.345697	-3.153728	-4.310015	-4.939980	-5.345032	-7.729715	-3.364001	-2.389034	-4.852680	1.617560	-2.014320	-0.768492	-0.040466	0.629271	-1.000000	-1.000000	-1.000000	-1.000000	-1.000000	-1.000000	-1.000000	60.000000	0.000000	-1.000000	-1.000000	1602545.000000	1776579606.692028
19441.710000	15343.605000	40598.685000	62871.930000	43001.055000	25129.215000	-6188.805000	15384.195000	-1.442144	-2.056173	-3.443674	-4.253587	-3.520728	-6.273294	-2.356167	-1.110814	-4.852680	1.617560	-2.014320	-0.768492	-0.040466	0.629271	-1.000000	-1.000000	-1.000000	-1.000000	-1.000000	-1.000000	-1.000000	60.000000	0.000000	-1.000000	-1.000000	1602546.000000	1776579606.695899
19442.520000	15342.210000	40598.595000	62870.805000	42996.645000	25136.145000	-6183.315000	15386.445000	0.739015	-0.128584	-0.587560	-0.482144	0.854624	-2.766627	-1.242802	0.027098	-4.852680	1.617560	-2.014320	-0.768492	-0.040466	0.629271	-1.000000	-1.000000	-1.000000	-1.000000	-1.000000	-1.000000	-1.000000	60.000000	0.000000	-1.000000	-1.000000	1602547.000000	1776579606.695916
19440.630000	15340.635000	40596.345000	62863.695000	42986.205000	25145.595000	-6187.005000	15383.430000	2.244381	1.721978	2.851403	4.251270	4.481377	0.426669	-0.482618	0.705027	-8.377740	1.770160	-2.105880	-0.767698	-0.045227	0.627745	-1.000000	-1.000000	-1.000000	-1.000000	-1.000000	-1.000000	-1.000000	60.000000	0.000000	-1.000000	-1.000000	1602548.000000	1776579606.700071
19437.120000	15337.485000	40597.605000	62873.010000	42999.525000	25152.930000	-6186.645000	15380.730000	2.430884	2.444229	4.736936	6.551708	4.729616	3.080996	0.123073	0.853367	-8.377740	1.770160	-2.105880	-0.767698	-0.045227	0.627745	-1.000000	-1.000000	-1.000000	-1.000000	-1.000000	-1.000000	-1.000000	60.000000	0.000000	-1.000000	-1.000000	1602549.000000	1776579606.700095
19440.405000	15340.320000	40601.025000	62877.645000	43004.250000	25155.990000	-6176.520000	15387.345000	1.374474	1.817338	4.271158	5.564707	2.539582	5.145272	0.775527	0.593850	-8.377740	1.770160	-2.105880	-0.767698	-0.045227	0.627745	-1.000000	-1.000000	-1.000000	-1.000000	-1.000000	-1.000000	-1.000000	60.000000	0.000000	-1.000000	-1.000000	1602550.000000	1776579606.703916
19440.630000	15340.545000	40595.310000	62859.780000	42989.985000	25158.960000	-6177.555000	15386.220000	0.013755	0.644120	2.218065	2.559732	0.198692	5.608444	1.696914	0.465518	-8.377740	1.770160	-2.105880	-0.767698	-0.045227	0.627745	-1.000000	-1.000000	-1.000000	-1.000000	-1.000000	-1.000000	-1.000000	60.000000	0.000000	-1.000000	-1.000000	1602551.000000	1776579606.703931
19443.015000	15345.630000	40603.905000	62873.415000	42998.760000	25146.585000	-6187.365000	15383.880000	-0.668494	-0.070929	-0.207834	-1.270101	-1.689536	3.513042	2.306988	0.655844	-8.377740	1.770160	-2.105880	-0.767698	-0.045227	0.627745	-1.000000	-1.000000	-1.000000	-1.000000	-1.000000	-1.000000	-1.000000	60.000000	0.000000	-1.000000	-1.000000	1602552.000000	1776579606.707984
19442.475000	15345.450000	40607.235000	62884.755000	43015.725000	25168.770000	-6178.905000	15386.355000	-0.493446	0.029574	-1.774504	-4.044623	-2.659731	-0.570259	1.551061	0.687659	-8.377740	1.770160	-2.105880	-0.767698	-0.045227	0.627745	-1.000000	-1.000000	-1.000000	-1.000000	-1.000000	-1.000000	-1.000000	60.000000	0.000000	-1.000000	-1.000000	1602553.000000	1776579606.707994
19444.590000	15341.490000	40600.845000	62873.325000	42999.030000	25156.215000	-6182.730000	15389.595000	0.044907	0.398278	-1.966364	-4.013262	-1.896552	-4.239482	-0.232761	0.397174	-8.377740	1.770160	-2.105880	-0.767698	-0.045227	0.627745	-1.000000	-1.000000	-1.000000	-1.000000	-1.000000	-1.000000	-1.000000	60.000000	0.000000	-1.000000	-1.000000	1602554.000000	1776579606.711994
19447.020000	15339.240000	40596.570000	62866.395000	42982.695000	25107.165000	-6199.650000	15390.450000	0.450480	0.128247	-1.700583	-2.376612	-0.906385	-6.680968	-2.034573	0.142942	-8.377740	1.770160	-2.105880	-0.767698	-0.045227	0.627745	-1.000000	-1.000000	-1.000000	-1.000000	-1.000000	-1.000000	-1.000000	60.000000	0.000000	-1.000000	-1.000000	1602555.000000	1776579606.712005
19456.470000	15354.135000	40608.045000	62865.855000	42968.430000	25100.505000	-6196.095000	15396.750000	0.712523	-0.677766	-1.754627	-1.572801	-2.193112	-9.684247	-3.589086	0.157119	-8.377740	1.770160	-2.105880	-0.767698	-0.045227	0.627745	-1.000000	-1.000000	-1.000000	-1.000000	-1.000000	-1.000000	-1.000000	60.000000	0.000000	-1.000000	-1.000000	1602556.000000	1776579606.716052
19462.545000	15362.010000	40618.575000	62881.065000	42993.630000	25124.670000	-6194.295000	15400.170000	1.152319	-0.622272	-1.248084	-1.564122	-4.728213	-11.782626	-4.155359	0.420047	-8.377740	1.770160	-2.105880	-0.767698	-0.045227	0.627745	-1.000000	-1.000000	-1.000000	-1.000000	-1.000000	-1.000000	-1.000000	60.000000	0.000000	-1.000000	-1.000000	1602557.000000	1776579606.716068
19459.395000	15357.150000	40615.695000	62882.865000	43001.955000	25133.760000	-6188.940000	15397.605000	1.572692	0.774281	0.593034	-0.462073	-4.200965	-7.708430	-2.486471	0.609623	-8.026760	1.876980	-2.472120	-0.768492	-0.050598	0.628050	-1.000000	-1.000000	-1.000000	-1.000000	-1.000000	-1.000000	-1.000000	60.000000	0.000000	-1.000000	-1.000000	1602558.000000	1776579606.720092
19451.340000	15353.370000	40614.930000	62887.050000	43010.370000	25146.990000	-6184.170000	15390.225000	0.901315	1.759878	2.453593	2.120080	1.244085	3.541153	1.239841	0.004115	-8.026760	1.876980	-2.472120	-0.768492	-0.050598	0.628050	-1.000000	-1.000000	-1.000000	-1.000000	-1.000000	-1.000000	-1.000000	60.000000	0.000000	-1.000000	-1.000000	1602559.000000	1776579606.720104
19443.375000	15342.255000	40602.285000	62874.315000	43001.865000	25176.060000	-6175.845000	15385.815000	-1.600143	0.460873	2.239596	4.119002	7.934273	16.320363	5.237720	-1.778354	-8.026760	1.876980	-2.472120	-0.768492	-0.050598	0.628050	-1.000000	-1.000000	-1.000000	-1.000000	-1.000000	-1.000000	-1.000000	60.000000	0.000000	-1.000000	-1.000000	1602560.000000	1776579606.724111
19430.235000	15327.450000	40587.525000	62858.700000	42988.185000	25210.170000	-6174.495000	15374.025000	-5.127827	-3.047946	-0.756579	3.070529	10.203961	24.317516	7.467933	-4.062717	-8.026760	1.876980	-2.472120	-0.768492	-0.050598	0.628050	-1.000000	-1.000000	-1.000000	-1.000000	-1.000000	-1.000000	-1.000000	60.000000	0.000000	-1.000000	-1.000000	1602561.000000	1776579606.724129
19433.790000	15330.015000	40590.450000	62862.615000	42986.205000	25189.695000	-6174.720000	15377.895000	-7.586090	-6.710727	-4.967798	-1.103909	5.774960	23.835369	6.654556	-5.419437	-8.026760	1.876980	-2.472120	-0.768492	-0.050598	0.628050	-1.000000	-1.000000	-1.000000	-1.000000	-1.000000	-1.000000	-1.000000	60.000000	0.000000	-1.000000	-1.000000	1602562.000000	1776579606.728010
19436.895000	15331.185000	40591.755000	62863.335000	42985.620000	25167.060000	-6177.420000	15381.135000	-6.724920	-7.540756	-7.089327	-5.179097	-2.197031	12.881107	2.858615	-4.362703	-8.026760	1.876980	-2.472120	-0.768492	-0.050598	0.628050	-1.000000	-1.000000	-1.000000	-1.000000	-1.000000	-1.000000	-1.000000	60.000000	0.000000	-1.000000	-1.000000	1602563.000000	1776579606.728023
19437.525000	15332.085000	40592.880000	62862.030000	42985.260000	25159.815000	-6181.425000	15379.830000	-1.998342	-4.009105	-4.849142	-5.714275	-8.187592	-6.381929	-2.417191	-0.608751	-8.026760	1.876980	-2.472120	-0.768492	-0.050598	0.628050	-1.000000	-1.000000	-1.000000	-1.000000	-1.000000	-1.000000	-1.000000	60.000000	0.000000	-1.000000	-1.000000	1602564.000000	1776579606.732082
19441.260000	15338.070000	40599.585000	62866.755000	42985.170000	25157.340000	-6183.405000	15379.020000	4.415544	2.338055	0.784256	-2.396416	-8.980929	-25.169355	-6.933762	4.011177	-8.026760	1.876980	-2.472120	-0.768492	-0.050598	0.628050	-1.000000	-1.000000	-1.000000	-1.000000	-1.000000	-1.000000	-1.000000	60.000000	0.000000	-1.000000	-1.000000	1602565.000000	1776579606.732098
19444.455000	15344.145000	40608.180000	62876.610000	42995.790000	25167.960000	-6180.210000	15382.890000	9.260514	8.309611	6.830554	2.647603	-5.009683	-33.180433	-8.723748	6.988333	-8.026760	1.876980	-2.472120	-0.768492	-0.050598	0.628050	-1.000000	-1.000000	-1.000000	-1.000000	-1.000000	-1.000000	-1.000000	60.000000	0.000000	-1.000000	-1.000000	1602566.000000	1776579606.736030
19443.330000	15342.885000	40606.695000	62875.890000	42995.565000	25169.355000	-6179.355000	15384.645000	10.416885	11.190300	10.419040	6.894017	1.133442	-26.344899	-6.983056	7.219646	-8.026760	1.876980	-2.472120	-0.768492	-0.050598	0.628050	-1.000000	-1.000000	-1.000000	-1.000000	-1.000000	-1.000000	-1.000000	60.000000	0.000000	-1.000000	-1.000000	1602567.000000	1776579606.736046
19441.395000	15340.590000	40602.600000	62872.875000	42992.955000	25166.880000	-6180.120000	15384.645000	7.608743	9.665354	9.712234	8.175819	6.109879	-9.378518	-2.687104	5.152173	-3.662400	1.434440	-4.654300	-0.769895	-0.054687	0.629210	-1.000000	-1.000000	-1.000000	-1.000000	-1.000000	-1.000000	-1.000000	60.000000	0.000000	-1.000000	-1.000000	1602568.000000	1776579606.741268
19436.220000	15335.235000	40599.180000	62870.220000	42987.870000	25146.990000	-6187.365000	15377.985000	2.162554	4.290247	4.723516	5.556076	7.274321	7.849538	1.779970	1.724460	-3.662400	1.434440	-4.654300	-0.769895	-0.054687	0.629210	-1.000000	-1.000000	-1.000000	-1.000000	-1.000000	-1.000000	-1.000000	60.000000	0.000000	-1.000000	-1.000000	1602569.000000	1776579606.741279
19439.730000	15338.250000	40601.970000	62871.570000	42988.005000	25146.630000	-6184.440000	15381.450000	-3.549773	-2.497420	-2.150455	0.355063	4.392988	17.120209	4.269419	-2.025603	-3.662400	1.434440	-4.654300	-0.769895	-0.054687	0.629210	-1.000000	-1.000000	-1.000000	-1.000000	-1.000000	-1.000000	-1.000000	60.000000	0.000000	-1.000000	-1.000000	1602570.000000	1776579606.744109
19436.220000	15333.030000	40591.845000	62856.495000	42973.515000	25141.680000	-6185.520000	15379.965000	-7.110279	-7.582671	-7.564224	-4.816139	-0.495978	16.835019	4.419101	-4.748002	-3.662400	1.434440	-4.654300	-0.769895	-0.054687	0.629210	-1.000000	-1.000000	-1.000000	-1.000000	-1.000000	-1.000000	-1.000000	60.000000	0.000000	-1.000000	-1.000000	1602571.000000	1776579606.744118
19440.945000	15333.660000	40593.060000	62860.095000	42976.485000	25144.200000	-6182.685000	15385.005000	-7.340137	-9.098589	-9.562105	-7.981441	-4.853619	11.086408	3.328736	-5.311755	-3.662400	1.434440	-4.654300	-0.769895	-0.054687	0.629210	-1.000000	-1.000000	-1.000000	-1.000000	-1.000000	-1.000000	-1.000000	60.000000	0.000000	-1.000000	-1.000000	1602572.000000	1776579606.748028
19439.820000	15331.635000	40592.880000	62860.590000	42975.630000	25142.850000	-6187.815000	15381.000000	-4.759743	-7.193925	-8.013681	-8.034074	-6.602774	4.921264	2.030569	-3.744493	-3.662400	1.434440	-4.654300	-0.769895	-0.054687	0.629210	-1.000000	-1.000000	-1.000000	-1.000000	-1.000000	-1.000000	-1.000000	60.000000	0.000000	-1.000000	-1.000000	1602573.000000	1776579606.748048
19442.655000	15334.830000	40596.255000	62860.725000	42969.555000	25135.785000	-6189.390000	15382.935000	-0.994702	-3.264869	-3.839157	-4.808651	-4.983610	0.914107	0.757893	-1.258463	-3.662400	1.434440	-4.654300	-0.769895	-0.054687	0.629210	-1.000000	-1.000000	-1.000000	-1.000000	-1.000000	-1.000000	-1.000000	60.000000	0.000000	-1.000000	-1.000000	1602574.000000	1776579606.752146
19447.695000	15341.130000	40604.085000	62870.625000	42975.900000	25131.555000	-6187.545000	15387.705000	2.269419	1.108697	1.396406	0.360133	-1.194056	-1.130436	-0.460895	0.877742	-3.662400	1.434440	-4.654300	-0.769895	-0.054687	0.629210	-1.000000	-1.000000	-1.000000	-1.000000	-1.000000	-1.000000	-1.000000	60.000000	0.000000	-1.000000	-1.000000	1602575.000000	1776579606.752162
19442.790000	15338.430000	40603.950000	62871.795000	42980.985000	25139.070000	-6189.660000	15381.945000	3.976623	4.580546	5.855248	5.341459	2.941032	-2.083127	-1.243122	2.087669	-3.662400	1.434440	-4.654300	-0.769895	-0.054687	0.629210	-1.000000	-1.000000	-1.000000	-1.000000	-1.000000	-1.000000	-1.000000	60.000000	0.000000	-1.000000	-1.000000	1602576.000000	1776579606.756071
19442.430000	15340.320000	40605.255000	62870.670000	42984.495000	25162.875000	-6184.845000	15381.405000	3.639008	5.982805	7.835047	8.066751	6.088154	-1.550060	-1.240017	2.076789	-3.662400	1.434440	-4.654300	-0.769895	-0.054687	0.629210	-1.000000	-1.000000	-1.000000	-1.000000	-1.000000	-1.000000	-1.000000	60.000000	0.000000	-1.000000	-1.000000	1602577.000000	1776579606.756078
19443.735000	15340.680000	40606.335000	62869.365000	42979.680000	25149.870000	-6187.095000	15382.935000	1.623430	4.906853	6.577214	7.236405	7.069376	0.790552	-0.539833	0.984157	-1.709120	2.227960	-3.738700	-0.770384	-0.057312	0.627501	-1.000000	-1.000000	-1.000000	-1.000000	-1.000000	-1.000000	-1.000000	60.000000	0.000000	-1.000000	-1.000000	1602578.000000	1776579606.760038
19446.840000	15340.410000	40606.425000	62869.365000	42973.695000	25132.635000	-6186.330000	15387.210000	-0.667174	2.176001	2.929406	3.347047	5.043644	2.460811	0.314623	-0.206369	-1.709120	2.227960	-3.738700	-0.770384	-0.057312	0.627501	-1.000000	-1.000000	-1.000000	-1.000000	-1.000000	-1.000000	-1.000000	60.000000	0.000000	-1.000000	-1.000000	1602579.000000	1776579606.760074
19451.970000	15344.145000	40609.350000	62871.075000	42972.930000	25128.270000	-6178.770000	15393.960000	-1.781618	-0.752422	-1.219378	-1.433040	0.573501	0.315687	0.837676	-0.415329	-1.709120	2.227960	-3.738700	-0.770384	-0.057312	0.627501	-1.000000	-1.000000	-1.000000	-1.000000	-1.000000	-1.000000	-1.000000	60.000000	0.000000	-1.000000	-1.000000	1602580.000000	1776579606.764030
19451.205000	15343.830000	40608.675000	62870.940000	42968.385000	25121.880000	-6181.920000	15391.530000	-1.348258	-2.628305	-4.108548	-4.764162	-4.150294	-4.785650	1.031021	0.438608	-1.709120	2.227960	-3.738700	-0.770384	-0.057312	0.627501	-1.000000	-1.000000	-1.000000	-1.000000	-1.000000	-1.000000	-1.000000	60.000000	0.000000	-1.000000	-1.000000	1602581.000000	1776579606.764054
19455.030000	15349.545000	40615.245000	62875.845000	42971.220000	25138.215000	-6185.520000	15391.125000	-0.182726	-2.948106	-4.876837	-5.476505	-6.736447	-8.401821	0.748068	1.248499	-1.709120	2.227960	-3.738700	-0.770384	-0.057312	0.627501	-1.000000	-1.000000	-1.000000	-1.000000	-1.000000	-1.000000	-1.000000	60.000000	0.000000	-1.000000	-1.000000	1602582.000000	1776579606.768736
19453.050000	15349.455000	40617.765000	62880.885000	42987.735000	25166.655000	-6182.910000	15386.715000	0.620731	-2.005058	-3.624278	-3.753984	-5.797056	-6.415265	-0.277669	0.846136	-1.709120	2.227960	-3.738700	-0.770384	-0.057312	0.627501	-1.000000	-1.000000	-1.000000	-1.000000	-1.000000	-1.000000	-1.000000	60.000000	0.000000	-1.000000	-1.000000	1602583.000000	1776579606.768747
19433.970000	15330.060000	40594.770000	62861.355000	42992.280000	25190.685000	-6174.495000	15372.270000	0.161570	-0.993722	-1.701670	-1.127651	-1.469584	1.722530	-1.371155	-1.029969	-1.709120	2.227960	-3.738700	-0.770384	-0.057312	0.627501	-1.000000	-1.000000	-1.000000	-1.000000	-1.000000	-1.000000	-1.000000	60.000000	0.000000	-1.000000	-1.000000	1602584.000000	1776579606.772119
19427.265000	15326.595000	40583.610000	62842.095000	42974.280000	25163.685000	-6177.330000	15367.050000	-2.047681	-1.439538	-1.381278	-0.214111	3.539188	10.960090	-1.444493	-3.734082	-1.709120	2.227960	-3.738700	-0.770384	-0.057312	0.627501	-1.000000	-1.000000	-1.000000	-1.000000	-1.000000	-1.000000	-1.000000	60.000000	0.000000	-1.000000	-1.000000	1602585.000000	1776579606.772131
19439.235000	15336.675000	40602.240000	62866.980000	42982.515000	25162.920000	-6177.150000	15379.380000	-4.591340	-2.878279	-2.762667	-1.664830	5.337014	13.353037	-0.612790	-5.415946	-1.709120	2.227960	-3.738700	-0.770384	-0.057312	0.627501	-1.000000	-1.000000	-1.000000	-1.000000	-1.000000	-1.000000	-1.000000	60.000000	0.000000	-1.000000	-1.000000	1602586.000000	1776579606.776629
19442.070000	15337.035000	40604.715000	62868.780000	42978.960000	25155.945000	-6175.845000	15383.520000	-4.417554	-2.746543	-2.643228	-2.221225	3.037362	5.991701	0.095869	-3.792287	-1.709120	2.227960	-3.738700	-0.770384	-0.057312	0.627501	-1.000000	-1.000000	-1.000000	-1.000000	-1.000000	-1.000000	-1.000000	60.000000	0.000000	-1.000000	-1.000000	1602587.000000	1776579606.776647
19446.795000	15337.485000	40606.425000	62870.400000	42975.135000	25133.985000	-6178.365000	15388.515000	-0.441039	0.047362	0.883596	0.657763	-0.868226	-6.246923	0.139370	1.145142	-0.457800	1.922760	-3.479280	-0.768980	-0.056640	0.627257	-1.000000	-1.000000	-1.000000	-1.000000	-1.000000	-1.000000	-1.000000	60.000000	0.000000	-1.000000	-1.000000	1602588.000000	1776579606.780018
19453.050000	15343.470000	40613.670000	62881.695000	42980.355000	25109.685000	-6189.570000	15390.495000	4.980380	3.776726	5.681054	5.178508	-3.705153	-16.540898	-0.534407	6.445823	-0.457800	1.922760	-3.479280	-0.768980	-0.056640	0.627257	-1.000000	-1.000000	-1.000000	-1.000000	-1.000000	-1.000000	-1.000000	60.000000	0.000000	-1.000000	-1.000000	1602589.000000	1776579606.780030
19454.985000	15344.505000	40609.080000	62872.425000	42975.090000	25123.815000	-6191.370000	15391.485000	8.521743	6.177233	8.381689	7.913934	-4.165020	-20.165580	-1.809719	8.803838	-0.457800	1.922760	-3.479280	-0.768980	-0.056640	0.627257	-1.000000	-1.000000	-1.000000	-1.000000	-1.000000	-1.000000	-1.000000	60.000000	0.000000	-1.000000	-1.000000	1602590.000000	1776579606.784047
19441.305000	15333.750000	40597.650000	62857.845000	42971.670000	25164.855000	-6185.835000	15378.480000	8.011034	5.884000	6.986875	6.463563	-2.639064	-13.946282	-2.742621	6.753272	-0.457800	1.922760	-3.479280	-0.768980	-0.056640	0.627257	-1.000000	-1.000000	-1.000000	-1.000000	-1.000000	-1.000000	-1.000000	60.000000	0.000000	-1.000000	-1.000000	1602591.000000	1776579606.784056
19434.735000	15328.575000	40595.490000	62860.275000	42979.455000	25185.690000	-6178.770000	15372.945000	3.138248	2.583326	1.751447	0.848951	-0.439278	1.840086	-1.804554	1.048736	-0.457800	1.922760	-3.479280	-0.768980	-0.056640	0.627257	-1.000000	-1.000000	-1.000000	-1.000000	-1.000000	-1.000000	-1.000000	60.000000	0.000000	-1.000000	-1.000000	1602592.000000	1776579606.790442
19441.125000	15334.155000	40601.520000	62866.980000	42982.695000	25183.260000	-6171.390000	15381.180000	-3.688289	-2.186802	-4.361588	-5.423563	1.743080	19.794836	1.361959	-5.324962	-0.457800	1.922760	-3.479280	-0.768980	-0.056640	0.627257	-1.000000	-1.000000	-1.000000	-1.000000	-1.000000	-1.000000	-1.000000	60.000000	0.000000	-1.000000	-1.000000	1602593.000000	1776579606.790460
19439.010000	15332.220000	40600.395000	62865.225000	42975.945000	25161.975000	-6177.195000	15378.390000	-8.268385	-5.448177	-7.522108	-8.026843	3.436145	28.310361	4.963597	-8.521752	-0.457800	1.922760	-3.479280	-0.768980	-0.056640	0.627257	-1.000000	-1.000000	-1.000000	-1.000000	-1.000000	-1.000000	-1.000000	60.000000	0.000000	-1.000000	-1.000000	1602594.000000	1776579606.793002
19441.620000	15335.820000	40601.025000	62863.110000	42974.010000	25157.025000	-6176.070000	15381.405000	-8.096792	-5.359936	-6.318950	-5.971591	3.606076	21.032690	6.288162	-6.976245	-0.457800	1.922760	-3.479280	-0.768980	-0.056640	0.627257	-1.000000	-1.000000	-1.000000	-1.000000	-1.000000	-1.000000	-1.000000	60.000000	0.000000	-1.000000	-1.000000	1602595.000000	1776579606.793013
19444.770000	15340.365000	40603.995000	62863.110000	42972.030000	25157.205000	-6174.270000	15383.205000	-4.037647	-2.472796	-2.362742	-1.669583	1.857294	2.751312	4.257529	-2.351379	-0.457800	1.922760	-3.479280	-0.768980	-0.056640	0.627257	-1.000000	-1.000000	-1.000000	-1.000000	-1.000000	-1.000000	-1.000000	60.000000	0.000000	-1.000000	-1.000000	1602596.000000	1776579606.796153
19451.790000	15349.320000	40617.855000	62879.535000	42984.585000	25168.950000	-6172.380000	15386.355000	1.309981	1.449574	2.020529	2.355225	-0.467583	-14.674474	0.374250	2.515277	-0.457800	1.922760	-3.479280	-0.768980	-0.056640	0.627257	-1.000000	-1.000000	-1.000000	-1.000000	-1.000000	-1.000000	-1.000000	60.000000	0.000000	-1.000000	-1.000000	1602597.000000	1776579606.796163
19450.215000	15348.555000	40618.350000	62879.535000	42980.805000	25160.760000	-6181.695000	15381.810000	5.418431	4.555892	5.319090	5.186080	-1.471687	-21.921657	-3.182648	5.364402	-1.678600	2.060100	-2.945180	-0.768003	-0.055359	0.627684	-1.000000	-1.000000	-1.000000	-1.000000	-1.000000	-1.000000	-1.000000	60.000000	0.000000	-1.000000	-1.000000	1602598.000000	1776579606.800073
19449.675000	15346.035000	40617.090000	62881.290000	42982.875000	25147.035000	-6187.995000	15381.225000	6.577633	5.268671	6.351529	6.270316	-0.859764	-18.287255	-5.449330	5.185238	-1.678600	2.060100	-2.945180	-0.768003	-0.055359	0.627684	-1.000000	-1.000000	-1.000000	-1.000000	-1.000000	-1.000000	-1.000000	60.000000	0.000000	-1.000000	-1.000000	1602599.000000	1776579606.800084
19454.580000	15348.555000	40617.495000	62881.110000	42983.415000	25155.900000	-6174.765000	15390.630000	4.617240	3.098999	4.374397	4.874786	0.102114	-9.218919	-6.003865	2.762425	-1.678600	2.060100	-2.945180	-0.768003	-0.055359	0.627684	-1.000000	-1.000000	-1.000000	-1.000000	-1.000000	-1.000000	-1.000000	60.000000	0.000000	-1.000000	-1.000000	1602600.000000	1776579606.804035
19449.270000	15343.110000	40611.645000	62870.805000	42973.020000	25155.405000	-6180.705000	15386.310000	1.002924	-0.724623	0.134583	1.139687	0.207766	0.179201	-4.180375	0.111651	-1.678600	2.060100	-2.945180	-0.768003	-0.055359	0.627684	-1.000000	-1.000000	-1.000000	-1.000000	-1.000000	-1.000000	-1.000000	60.000000	0.000000	-1.000000	-1.000000	1602601.000000	1776579606.804046
19455.390000	15349.635000	40619.970000	62883.360000	42985.170000	25165.710000	-6178.455000	15391.170000	-2.377750	-4.100101	-4.218977	-3.384166	-0.720691	7.474653	-0.536020	-1.449561	-1.678600	2.060100	-2.945180	-0.768003	-0.055359	0.627684	-1.000000	-1.000000	-1.000000	-1.000000	-1.000000	-1.000000	-1.000000	60.000000	0.000000	-1.000000	-1.000000	1602602.000000	1776579606.808105
19458.045000	15349.320000	40621.095000	62886.600000	42989.220000	25173.180000	-6175.170000	15394.005000	-4.106041	-5.317876	-6.315681	-6.089726	-1.447940	11.699235	2.969970	-1.840896	-1.678600	2.060100	-2.945180	-0.768003	-0.055359	0.627684	-1.000000	-1.000000	-1.000000	-1.000000	-1.000000	-1.000000	-1.000000	60.000000	0.000000	-1.000000	-1.000000	1602603.000000	1776579606.808119
19446.345000	15335.415000	40610.295000	62881.830000	42993.495000	25173.945000	-6170.670000	15385.860000	-3.910627	-4.281507	-5.435449	-5.465751	-0.698548	12.442644	4.935789	-1.583148	-1.678600	2.060100	-2.945180	-0.768003	-0.055359	0.627684	-1.000000	-1.000000	-1.000000	-1.000000	-1.000000	-1.000000	-1.000000	60.000000	0.000000	-1.000000	-1.000000	1602604.000000	1776579606.812054
19441.260000	15331.545000	40605.615000	62875.395000	42982.695000	25145.460000	-6174.855000	15379.650000	-3.036774	-2.628461	-3.211430	-2.894853	0.820838	9.069270	5.000642	-1.633525	-1.678600	2.060100	-2.945180	-0.768003	-0.055359	0.627684	-1.000000	-1.000000	-1.000000	-1.000000	-1.000000	-1.000000	-1.000000	60.000000	0.000000	-1.000000	-1.000000	1602605.000000	1776579606.812062
19456.065000	15349.635000	40618.260000	62873.280000	42967.800000	25153.785000	-6167.025000	15391.035000	-2.279003	-1.190410	-1.161227	-0.789116	0.919624	1.683579	3.371249	-2.210442	-1.678600	2.060100	-2.945180	-0.768003	-0.055359	0.627684	-1.000000	-1.000000	-1.000000	-1.000000	-1.000000	-1.000000	-1.000000	60.000000	0.000000	-1.000000	-1.000000	1602606.000000	1776579606.816169
19457.685000	15351.930000	40620.510000	62874.900000	42968.700000	25155.045000	-6168.150000	15391.530000	-0.679598	1.132089	1.063329	0.081892	-1.361282	-6.349793	0.936367	-2.026489	-1.678600	2.060100	-2.945180	-0.768003	-0.055359	0.627684	-1.000000	-1.000000	-1.000000	-1.000000	-1.000000	-1.000000	-1.000000	60.000000	0.000000	-1.000000	-1.000000	1602607.000000	1776579606.816187
19452.780000	15343.560000	40612.095000	62867.655000	42961.005000	25147.665000	-6169.590000	15389.370000	2.023152	4.297533	3.542705	0.440163	-4.183566	-10.325987	-1.284480	-0.344185	-1.876980	2.090620	-1.556520	-0.768919	-0.054138	0.626707	-1.000000	-1.000000	-1.000000	-1.000000	-1.000000	-1.000000	-1.000000	60.000000	0.000000	-1.000000	-1.000000	1602608.000000	1776579606.820148
19456.290000	15347.520000	40618.665000	62877.510000	42976.890000	25171.245000	-6163.830000	15392.205000	4.082448	5.967771	4.841478	1.023553	-4.628553	-8.487982	-2.755806	1.712630	-1.876980	2.090620	-1.556520	-0.768919	-0.054138	0.626707	-1.000000	-1.000000	-1.000000	-1.000000	-1.000000	-1.000000	-1.000000	60.000000	0.000000	-1.000000	-1.000000	1602609.000000	1776579606.820165
19454.805000	15347.880000	40620.960000	62881.155000	42982.155000	25178.355000	-6163.965000	15389.370000	4.073334	4.747254	4.212705	2.240221	-1.270499	-2.116226	-3.130047	2.732990	-1.876980	2.090620	-1.556520	-0.768919	-0.054138	0.626707	-1.000000	-1.000000	-1.000000	-1.000000	-1.000000	-1.000000	-1.000000	60.000000	0.000000	-1.000000	-1.000000	1602610.000000	1776579606.824089
19448.055000	15340.905000	40614.705000	62874.360000	42970.365000	25152.885000	-6176.430000	15382.845000	2.162711	1.574419	2.356597	3.724356	4.161137	4.948731	-2.658189	2.166204	-1.876980	2.090620	-1.556520	-0.768919	-0.054138	0.626707	-1.000000	-1.000000	-1.000000	-1.000000	-1.000000	-1.000000	-1.000000	60.000000	0.000000	-1.000000	-1.000000	1602611.000000	1776579606.824104
19456.605000	15349.050000	40621.005000	62877.645000	42967.485000	25136.010000	-6188.040000	15387.570000	-0.514792	-1.792354	0.107377	4.107794	7.513562	7.168525	-2.535549	0.393043	-1.876980	2.090620	-1.556520	-0.768919	-0.054138	0.626707	-1.000000	-1.000000	-1.000000	-1.000000	-1.000000	-1.000000	-1.000000	60.000000	0.000000	-1.000000	-1.000000	1602612.000000	1776579606.828210
19456.965000	15347.835000	40620.060000	62874.945000	42960.060000	25117.290000	-6194.070000	15385.815000	-2.303624	-3.693203	-1.707467	2.654929	6.191592	2.293223	-3.364380	-1.292601	-1.876980	2.090620	-1.556520	-0.768919	-0.054138	0.626707	-1.000000	-1.000000	-1.000000	-1.000000	-1.000000	-1.000000	-1.000000	60.000000	0.000000	-1.000000	-1.000000	1602613.000000	1776579606.828244
19464.885000	15357.825000	40634.235000	62893.170000	42978.870000	25143.030000	-6174.315000	15393.195000	-2.106517	-3.276856	-2.185004	0.452915	1.829384	-5.233711	-3.575940	-1.628828	-1.876980	2.090620	-1.556520	-0.768919	-0.054138	0.626707	-1.000000	-1.000000	-1.000000	-1.000000	-1.000000	-1.000000	-1.000000	60.000000	0.000000	-1.000000	-1.000000	1602614.000000	1776579606.832144
19455.885000	15348.600000	40624.560000	62884.395000	42973.830000	25157.115000	-6178.005000	15383.745000	-0.524406	-1.247782	-1.220283	-0.838459	-1.693802	-7.777151	-0.917496	-0.608246	-1.876980	2.090620	-1.556520	-0.768919	-0.054138	0.626707	-1.000000	-1.000000	-1.000000	-1.000000	-1.000000	-1.000000	-1.000000	60.000000	0.000000	-1.000000	-1.000000	1602615.000000	1776579606.832163
19446.795000	15336.360000	40612.230000	62874.630000	42972.660000	25185.060000	-6171.075000	15377.355000	0.494258	0.307044	-0.324589	-1.327099	-2.511856	-1.759971	4.120326	0.389570	-1.876980	2.090620	-1.556520	-0.768919	-0.054138	0.626707	-1.000000	-1.000000	-1.000000	-1.000000	-1.000000	-1.000000	-1.000000	60.000000	0.000000	-1.000000	-1.000000	1602616.000000	1776579606.837534
19443.195000	15331.545000	40608.360000	62869.545000	42969.780000	25181.235000	-6167.250000	15375.735000	-0.428651	-0.332592	-1.250070	-2.517283	-1.890296	8.733139	8.377110	0.118895	-1.876980	2.090620	-1.556520	-0.768919	-0.054138	0.626707	-1.000000	-1.000000	-1.000000	-1.000000	-1.000000	-1.000000	-1.000000	60.000000	0.000000	-1.000000	-1.000000	1602617.000000	1776579606.837560
19442.925000	15332.580000	40610.430000	62871.300000	42974.505000	25180.605000	-6172.470000	15372.810000	-2.407150	-2.375019	-3.342997	-4.375438	-1.401790	15.404758	9.160070	-0.992351	-2.899400	1.251320	-2.594200	-0.769285	-0.052856	0.626829	-1.000000	-1.000000	-1.000000	-1.000000	-1.000000	-1.000000	-1.000000	60.000000	0.000000	-1.000000	-1.000000	1602618.000000	1776579606.840197
