Channel1	Channel2	Channel3	Channel4	Channel5	Channel6	Channel7	Channel8	FilteredChannel1	FilteredChannel2	FilteredChannel3	FilteredChannel4	FilteredChannel5	FilteredChannel6	FilteredChannel7	FilteredChannel8	GyroX	GyroY	GyroZ	AccX	AccY	AccZ	PPG1	PPG2	rawPPG1	rawPPG2	rawPPG3	Hr	Hrv	Battery	Trigger	PhysicalTrigger	AutoTrigger	NumMeasurements	Timestamp
25208.820000	10673.370000	41644.890000	68997.060000	47331.720000	29546.010000	-6847.425000	23370.120000	16.622255	15.235120	12.137281	9.007342	12.818026	44.057779	54.040945	14.926962	-8.698200	-8.698200	-2.945180	-0.828001	-0.145752	0.522399	-1.000000	-1.000000	-1.000000	-1.000000	-1.000000	-1.000000	-1.000000	61.000000	0.000000	-1.000000	-1.000000	1505583.000000	1776579412.510608
25201.845000	10667.205000	41647.455000	69015.285000	47363.760000	29581.560000	-6826.185000	23370.345000	9.709930	18.748452	23.358718	23.976718	25.591038	30.904055	15.076570	11.402392	-8.698200	-8.698200	-2.945180	-0.828001	-0.145752	0.522399	-1.000000	-1.000000	-1.000000	-1.000000	-1.000000	-1.000000	-1.000000	61.000000	0.000000	-1.000000	-1.000000	1505584.000000	1776579412.514553
25242.435000	10661.445000	41622.345000	68987.835000	47346.165000	29581.245000	-6810.795000	23390.460000	-1.672392	13.247682	24.046366	28.886510	28.873108	8.402297	-30.271756	3.722871	-8.698200	-8.698200	-2.945180	-0.828001	-0.145752	0.522399	-1.000000	-1.000000	-1.000000	-1.000000	-1.000000	-1.000000	-1.000000	61.000000	0.000000	-1.000000	-1.000000	1505585.000000	1776579412.514570
25276.185000	10657.710000	41590.845000	68941.665000	47293.335000	29547.180000	-6830.640000	23393.970000	-8.473160	-0.738043	8.367109	14.736910	13.909836	-22.575084	-65.337343	-5.205950	-12.223260	-34.457080	-5.463080	-0.838865	-0.125549	0.517150	-1.000000	-1.000000	-1.000000	-1.000000	-1.000000	-1.000000	-1.000000	61.000000	0.000000	-1.000000	-1.000000	1505586.000000	1776579412.518422
25291.845000	10685.835000	41605.560000	68942.205000	47282.670000	29538.180000	-6835.545000	23402.340000	-5.358412	-15.203480	-16.563601	-13.690060	-15.975713	-53.783632	-78.964085	-11.582249	-12.223260	-34.457080	-5.463080	-0.838865	-0.125549	0.517150	-1.000000	-1.000000	-1.000000	-1.000000	-1.000000	-1.000000	-1.000000	61.000000	0.000000	-1.000000	-1.000000	1505587.000000	1776579412.518436
25313.085000	10696.230000	41608.980000	68936.400000	47275.560000	29534.175000	-6836.670000	23413.005000	3.237383	-21.280707	-35.296716	-39.690454	-45.071912	-72.521718	-69.777548	-13.713586	-12.223260	-34.457080	-5.463080	-0.838865	-0.125549	0.517150	-1.000000	-1.000000	-1.000000	-1.000000	-1.000000	-1.000000	-1.000000	61.000000	0.000000	-1.000000	-1.000000	1505588.000000	1776579412.522400
25310.205000	10677.195000	41589.000000	68917.860000	47256.930000	29502.495000	-6854.805000	23408.730000	8.630021	-16.893111	-36.891621	-47.631862	-56.126976	-69.281020	-43.672591	-12.072130	-12.223260	-34.457080	-5.463080	-0.838865	-0.125549	0.517150	-1.000000	-1.000000	-1.000000	-1.000000	-1.000000	-1.000000	-1.000000	61.000000	0.000000	-1.000000	-1.000000	1505589.000000	1776579412.522416
25311.735000	10676.250000	41586.345000	68915.160000	47245.995000	29464.335000	-6871.725000	23405.985000	5.639298	-7.984535	-23.225114	-34.816373	-43.808376	-45.960202	-11.292271	-8.666310	-12.223260	-34.457080	-5.463080	-0.838865	-0.125549	0.517150	-1.000000	-1.000000	-1.000000	-1.000000	-1.000000	-1.000000	-1.000000	61.000000	0.000000	-1.000000	-1.000000	1505590.000000	1776579412.526474
25274.385000	10664.595000	41590.935000	68925.735000	47257.065000	29465.865000	-6870.285000	23397.075000	-5.020673	-1.249288	-3.687871	-9.684415	-15.803918	-13.458515	16.612754	-5.670802	-12.223260	-34.457080	-5.463080	-0.838865	-0.125549	0.517150	-1.000000	-1.000000	-1.000000	-1.000000	-1.000000	-1.000000	-1.000000	61.000000	0.000000	-1.000000	-1.000000	1505591.000000	1776579412.526486
25219.755000	10668.105000	41617.440000	68951.295000	47276.055000	29501.190000	-6856.245000	23378.760000	-19.159852	1.493719	13.850524	16.784345	15.545484	18.407236	34.503874	-4.075568	-12.223260	-34.457080	-5.463080	-0.838865	-0.125549	0.517150	-1.000000	-1.000000	-1.000000	-1.000000	-1.000000	-1.000000	-1.000000	61.000000	0.000000	-1.000000	-1.000000	1505592.000000	1776579412.530568
25173.675000	10659.195000	41626.305000	68960.970000	47291.400000	29542.725000	-6834.735000	23362.515000	-31.541610	2.106865	25.491526	35.881834	39.563691	44.831866	42.392095	-3.725381	-12.223260	-34.457080	-5.463080	-0.838865	-0.125549	0.517150	-1.000000	-1.000000	-1.000000	-1.000000	-1.000000	-1.000000	-1.000000	61.000000	0.000000	-1.000000	-1.000000	1505593.000000	1776579412.530595
25150.500000	10654.695000	41634.990000	68973.885000	47304.180000	29529.405000	-6846.390000	23349.285000	-35.964841	2.606428	29.172093	42.159257	49.396610	61.100342	41.672032	-3.541976	-12.223260	-34.457080	-5.463080	-0.838865	-0.125549	0.517150	-1.000000	-1.000000	-1.000000	-1.000000	-1.000000	-1.000000	-1.000000	61.000000	0.000000	-1.000000	-1.000000	1505594.000000	1776579412.534534
25164.945000	10652.310000	41629.320000	68986.890000	47336.445000	29504.475000	-6876.990000	23347.800000	-26.761345	3.532312	23.844438	34.632850	43.682944	59.847586	31.961377	-1.840145	-12.223260	-34.457080	-5.463080	-0.838865	-0.125549	0.517150	-1.000000	-1.000000	-1.000000	-1.000000	-1.000000	-1.000000	-1.000000	61.000000	0.000000	-1.000000	-1.000000	1505595.000000	1776579412.534544
25175.745000	10662.750000	41639.760000	69002.280000	47353.005000	29500.785000	-6884.730000	23351.805000	-3.322932	4.813875	11.217460	17.631463	27.001746	38.179323	13.721182	2.574792	-34.472340	-45.001740	6.699140	-0.854368	-0.127563	0.522948	-1.000000	-1.000000	-1.000000	-1.000000	-1.000000	-1.000000	-1.000000	61.000000	0.000000	-1.000000	-1.000000	1505596.000000	1776579412.538474
25232.130000	10659.060000	41621.085000	68975.820000	47318.895000	29509.470000	-6876.855000	23368.635000	27.231777	6.304948	-3.916902	-2.146462	5.631414	5.155912	-6.918099	9.302067	-34.472340	-45.001740	6.699140	-0.854368	-0.127563	0.522948	-1.000000	-1.000000	-1.000000	-1.000000	-1.000000	-1.000000	-1.000000	61.000000	0.000000	-1.000000	-1.000000	1505597.000000	1776579412.538487
25303.050000	10657.350000	41590.125000	68925.240000	47264.670000	29499.525000	-6880.995000	23384.340000	53.900546	7.028674	-16.868493	-20.344841	-17.031548	-23.389977	-20.530150	16.206803	-34.472340	-45.001740	6.699140	-0.854368	-0.127563	0.522948	-1.000000	-1.000000	-1.000000	-1.000000	-1.000000	-1.000000	-1.000000	61.000000	0.000000	-1.000000	-1.000000	1505598.000000	1776579412.542588
25364.115000	10680.795000	41576.220000	68900.985000	47243.160000	29480.175000	-6888.420000	23400.495000	67.359563	6.131614	-24.985021	-34.640719	-37.785274	-37.130952	-22.418074	20.220269	-34.472340	-45.001740	6.699140	-0.854368	-0.127563	0.522948	-1.000000	-1.000000	-1.000000	-1.000000	-1.000000	-1.000000	-1.000000	61.000000	0.000000	-1.000000	-1.000000	1505599.000000	1776579412.542609
25379.055000	10695.060000	41576.850000	68893.605000	47232.000000	29469.780000	-6887.205000	23410.620000	61.428862	4.605373	-25.923201	-40.613112	-49.147101	-35.883528	-15.285642	18.765486	-34.472340	-45.001740	6.699140	-0.854368	-0.127563	0.522948	-1.000000	-1.000000	-1.000000	-1.000000	-1.000000	-1.000000	-1.000000	61.000000	0.000000	-1.000000	-1.000000	1505600.000000	1776579412.547180
25339.905000	10677.420000	41575.770000	68898.870000	47237.895000	29466.315000	-6892.380000	23393.475000	33.630822	3.140839	-17.945466	-33.025051	-43.339890	-24.871103	-5.006928	10.856538	-34.472340	-45.001740	6.699140	-0.854368	-0.127563	0.522948	-1.000000	-1.000000	-1.000000	-1.000000	-1.000000	-1.000000	-1.000000	61.000000	0.000000	-1.000000	-1.000000	1505601.000000	1776579412.547196
25328.250000	10679.490000	41587.605000	68914.890000	47251.710000	29470.185000	-6888.105000	23394.555000	-10.841748	0.130018	-2.924768	-11.958917	-20.181615	-9.578858	3.582681	-2.166269	-34.472340	-45.001740	6.699140	-0.854368	-0.127563	0.522948	-1.000000	-1.000000	-1.000000	-1.000000	-1.000000	-1.000000	-1.000000	61.000000	0.000000	-1.000000	-1.000000	1505602.000000	1776579412.551023
25319.340000	10678.770000	41593.095000	68925.420000	47259.045000	29460.375000	-6894.855000	23388.570000	-55.885879	-5.004754	13.466515	14.927462	11.079251	5.285011	8.103694	-15.780859	-34.472340	-45.001740	6.699140	-0.854368	-0.127563	0.522948	-1.000000	-1.000000	-1.000000	-1.000000	-1.000000	-1.000000	-1.000000	61.000000	0.000000	-1.000000	-1.000000	1505603.000000	1776579412.551038
25319.835000	10687.905000	41607.540000	68946.435000	47280.555000	29460.960000	-6894.315000	23389.155000	-81.309437	-9.525369	24.835019	36.440856	37.087465	15.549154	8.331124	-24.008937	-34.472340	-45.001740	6.699140	-0.854368	-0.127563	0.522948	-1.000000	-1.000000	-1.000000	-1.000000	-1.000000	-1.000000	-1.000000	61.000000	0.000000	-1.000000	-1.000000	1505604.000000	1776579412.554477
25324.920000	10698.030000	41616.720000	68952.870000	47285.910000	29471.580000	-6887.655000	23394.780000	-76.153367	-10.116037	27.350186	44.171477	47.951706	19.150903	5.679181	-23.308093	-34.472340	-45.001740	6.699140	-0.854368	-0.127563	0.522948	-1.000000	-1.000000	-1.000000	-1.000000	-1.000000	-1.000000	-1.000000	61.000000	0.000000	-1.000000	-1.000000	1505605.000000	1776579412.554483
25314.975000	10686.465000	41604.165000	68931.765000	47260.440000	29462.895000	-6890.220000	23389.200000	-45.193834	-6.379064	20.723285	35.685543	40.712995	16.968159	2.374002	-14.617942	-45.001740	-29.955380	22.966300	-0.847898	-0.186401	0.524779	-1.000000	-1.000000	-1.000000	-1.000000	-1.000000	-1.000000	-1.000000	61.000000	0.000000	-1.000000	-1.000000	1505606.000000	1776579412.558696
25315.020000	10690.155000	41612.535000	68940.720000	47260.620000	29445.435000	-6885.135000	23395.680000	-4.528473	-1.277116	7.555341	14.734994	19.065212	10.609292	-0.117364	-2.501443	-45.001740	-29.955380	22.966300	-0.847898	-0.186401	0.524779	-1.000000	-1.000000	-1.000000	-1.000000	-1.000000	-1.000000	-1.000000	61.000000	0.000000	-1.000000	-1.000000	1505607.000000	1776579412.558715
25318.980000	10696.815000	41620.320000	68947.110000	47260.035000	29437.965000	-6880.500000	23400.405000	28.976248	2.272365	-6.771287	-9.176455	-7.145545	1.533746	-1.448088	7.994083	-45.001740	-29.955380	22.966300	-0.847898	-0.186401	0.524779	-1.000000	-1.000000	-1.000000	-1.000000	-1.000000	-1.000000	-1.000000	61.000000	0.000000	-1.000000	-1.000000	1505608.000000	1776579412.562486
25313.535000	10695.015000	41620.230000	68949.045000	47275.110000	29481.300000	-6874.785000	23396.940000	45.827881	3.798829	-16.270719	-25.404238	-25.891783	-6.481135	-1.696537	13.779768	-45.001740	-29.955380	22.966300	-0.847898	-0.186401	0.524779	-1.000000	-1.000000	-1.000000	-1.000000	-1.000000	-1.000000	-1.000000	61.000000	0.000000	-1.000000	-1.000000	1505609.000000	1776579412.562497
25307.145000	10691.415000	41615.415000	68941.395000	47272.590000	29504.070000	-6877.215000	23391.090000	44.944259	3.769914	-18.494060	-29.197108	-30.263229	-7.857081	-1.365962	13.771781	-45.001740	-29.955380	22.966300	-0.847898	-0.186401	0.524779	-1.000000	-1.000000	-1.000000	-1.000000	-1.000000	-1.000000	-1.000000	61.000000	0.000000	-1.000000	-1.000000	1505610.000000	1776579412.566555
25310.835000	10696.410000	41621.445000	68950.305000	47278.710000	29490.930000	-6873.345000	23396.715000	31.339970	2.544483	-15.009814	-22.868919	-22.022628	-2.002079	-1.280548	8.996372	-45.001740	-29.955380	22.966300	-0.847898	-0.186401	0.524779	-1.000000	-1.000000	-1.000000	-1.000000	-1.000000	-1.000000	-1.000000	61.000000	0.000000	-1.000000	-1.000000	1505611.000000	1776579412.566566
25306.020000	10693.395000	41621.445000	68956.560000	47288.160000	29470.905000	-6879.510000	23393.475000	13.124557	0.917622	-8.588073	-11.455131	-8.300202	3.758602	-1.870003	2.514168	-45.001740	-29.955380	22.966300	-0.847898	-0.186401	0.524779	-1.000000	-1.000000	-1.000000	-1.000000	-1.000000	-1.000000	-1.000000	61.000000	0.000000	-1.000000	-1.000000	1505612.000000	1776579412.570558
25301.250000	10692.000000	41625.720000	68971.545000	47303.910000	29462.580000	-6892.470000	23386.005000	-2.550998	-0.329957	-1.636632	0.593676	4.212844	2.207721	-3.133422	-2.729661	-45.001740	-29.955380	22.966300	-0.847898	-0.186401	0.524779	-1.000000	-1.000000	-1.000000	-1.000000	-1.000000	-1.000000	-1.000000	61.000000	0.000000	-1.000000	-1.000000	1505613.000000	1776579412.570571
25299.990000	10691.055000	41626.350000	68978.115000	47303.505000	29447.190000	-6900.570000	23385.870000	-12.046305	-1.013817	3.929863	9.960706	11.732349	-5.921558	-4.840112	-5.586078	-45.001740	-29.955380	22.966300	-0.847898	-0.186401	0.524779	-1.000000	-1.000000	-1.000000	-1.000000	-1.000000	-1.000000	-1.000000	61.000000	0.000000	-1.000000	-1.000000	1505614.000000	1776579412.574550
25300.305000	10686.375000	41609.475000	68939.370000	47251.485000	29424.645000	-6906.195000	23390.235000	-14.795813	-1.235951	6.596066	13.574053	11.839725	-14.306006	-6.003828	-5.872732	-45.001740	-29.955380	22.966300	-0.847898	-0.186401	0.524779	-1.000000	-1.000000	-1.000000	-1.000000	-1.000000	-1.000000	-1.000000	61.000000	0.000000	-1.000000	-1.000000	1505615.000000	1776579412.574565
25298.235000	10684.845000	41599.395000	68898.780000	47199.870000	29428.020000	-6932.655000	23383.485000	-12.206218	-1.154281	5.433824	8.637413	2.858831	-17.230614	-5.582356	-3.864767	15.427860	7.294280	28.108920	-0.803709	-0.273376	0.545287	-1.000000	-1.000000	-1.000000	-1.000000	-1.000000	-1.000000	-1.000000	61.000000	0.000000	-1.000000	-1.000000	1505616.000000	1776579412.578649
25272.675000	10661.355000	41584.545000	68894.685000	47203.515000	29401.920000	-6980.805000	23360.715000	-7.322177	-1.219024	1.233171	-3.280370	-11.651825	-12.664441	-4.522708	-1.274677	15.427860	7.294280	28.108920	-0.803709	-0.273376	0.545287	-1.000000	-1.000000	-1.000000	-1.000000	-1.000000	-1.000000	-1.000000	61.000000	0.000000	-1.000000	-1.000000	1505617.000000	1776579412.578662
25274.385000	10665.270000	41592.690000	68912.955000	47221.155000	29386.170000	-6983.010000	23362.020000	-3.470417	-1.877716	-3.006237	-13.507105	-20.728745	-3.216746	-4.363889	-0.285815	15.427860	7.294280	28.108920	-0.803709	-0.273376	0.545287	-1.000000	-1.000000	-1.000000	-1.000000	-1.000000	-1.000000	-1.000000	61.000000	0.000000	-1.000000	-1.000000	1505618.000000	1776579412.582646
25278.075000	10670.400000	41600.070000	68926.050000	47244.690000	29415.960000	-6952.635000	23364.360000	-1.325003	-2.155857	-3.698229	-12.778241	-14.742982	6.818382	-2.757431	-0.615663	15.427860	7.294280	28.108920	-0.803709	-0.273376	0.545287	-1.000000	-1.000000	-1.000000	-1.000000	-1.000000	-1.000000	-1.000000	61.000000	0.000000	-1.000000	-1.000000	1505619.000000	1776579412.582662
25298.640000	10698.120000	41630.985000	68959.260000	47284.380000	29497.860000	-6875.055000	23384.835000	1.298021	0.159770	0.812135	-0.097440	4.968853	16.946509	5.817262	0.360948	15.427860	7.294280	28.108920	-0.803709	-0.273376	0.545287	-1.000000	-1.000000	-1.000000	-1.000000	-1.000000	-1.000000	-1.000000	61.000000	0.000000	-1.000000	-1.000000	1505620.000000	1776579412.586541
25298.955000	10692.270000	41624.145000	68956.560000	47287.620000	29520.720000	-6834.915000	23397.030000	5.723488	5.394669	8.409454	16.561577	27.032503	28.234043	22.390464	4.222578	15.427860	7.294280	28.108920	-0.803709	-0.273376	0.545287	-1.000000	-1.000000	-1.000000	-1.000000	-1.000000	-1.000000	-1.000000	61.000000	0.000000	-1.000000	-1.000000	1505621.000000	1776579412.586552
25288.920000	10680.030000	41611.500000	68943.555000	47274.345000	29498.085000	-6842.610000	23389.740000	9.658815	9.786536	13.330783	25.950256	37.570170	34.911873	37.521306	8.965023	15.427860	7.294280	28.108920	-0.803709	-0.273376	0.545287	-1.000000	-1.000000	-1.000000	-1.000000	-1.000000	-1.000000	-1.000000	61.000000	0.000000	-1.000000	-1.000000	1505622.000000	1776579412.590488
25307.775000	10707.480000	41639.220000	68969.385000	47295.135000	29509.110000	-6839.505000	23401.935000	9.657344	9.205456	11.080432	21.759260	29.562420	27.173427	37.060706	10.431083	15.427860	7.294280	28.108920	-0.803709	-0.273376	0.545287	-1.000000	-1.000000	-1.000000	-1.000000	-1.000000	-1.000000	-1.000000	61.000000	0.000000	-1.000000	-1.000000	1505623.000000	1776579412.590498
25301.790000	10694.205000	41624.685000	68955.255000	47277.765000	29488.095000	-6855.705000	23401.755000	5.521897	4.211116	3.349448	7.502905	8.076560	4.163472	16.127222	6.795842	15.427860	7.294280	28.108920	-0.803709	-0.273376	0.545287	-1.000000	-1.000000	-1.000000	-1.000000	-1.000000	-1.000000	-1.000000	61.000000	0.000000	-1.000000	-1.000000	1505624.000000	1776579412.594551
25282.800000	10672.920000	41601.780000	68926.590000	47243.385000	29458.935000	-6905.115000	23381.595000	-0.660417	-2.441238	-5.600137	-8.921843	-15.832697	-23.869993	-16.505018	-0.390646	15.427860	7.294280	28.108920	-0.803709	-0.273376	0.545287	-1.000000	-1.000000	-1.000000	-1.000000	-1.000000	-1.000000	-1.000000	61.000000	0.000000	-1.000000	-1.000000	1505625.000000	1776579412.594562
25281.765000	10674.450000	41604.705000	68927.895000	47242.485000	29460.960000	-6910.605000	23380.155000	-7.192628	-9.083076	-13.136855	-21.696815	-33.173515	-44.135958	-45.890715	-8.507589	86.524200	1.312360	28.139440	-0.773741	-0.322143	0.562682	-1.000000	-1.000000	-1.000000	-1.000000	-1.000000	-1.000000	-1.000000	61.000000	0.000000	-1.000000	-1.000000	1505626.000000	1776579412.598881
25294.320000	10685.565000	41615.010000	68943.825000	47261.700000	29476.935000	-6872.535000	23395.860000	-11.521354	-12.996432	-16.330703	-26.220974	-37.613552	-47.225654	-57.527362	-13.941800	86.524200	1.312360	28.139440	-0.773741	-0.322143	0.562682	-1.000000	-1.000000	-1.000000	-1.000000	-1.000000	-1.000000	-1.000000	61.000000	0.000000	-1.000000	-1.000000	1505627.000000	1776579412.598891
25307.145000	10705.410000	41636.070000	68971.995000	47293.110000	29496.645000	-6837.795000	23410.305000	-10.423354	-10.734886	-12.224229	-19.312042	-26.205838	-31.001256	-43.396518	-12.843845	86.524200	1.312360	28.139440	-0.773741	-0.322143	0.562682	-1.000000	-1.000000	-1.000000	-1.000000	-1.000000	-1.000000	-1.000000	61.000000	0.000000	-1.000000	-1.000000	1505628.000000	1776579412.604506
25316.280000	10719.180000	41652.855000	68992.695000	47308.095000	29507.580000	-6822.630000	23417.460000	-3.609550	-2.159267	-1.517920	-3.049430	-3.274306	-2.992194	-9.401138	-4.997510	86.524200	1.312360	28.139440	-0.773741	-0.322143	0.562682	-1.000000	-1.000000	-1.000000	-1.000000	-1.000000	-1.000000	-1.000000	61.000000	0.000000	-1.000000	-1.000000	1505629.000000	1776579412.604514
25304.760000	10703.835000	41638.275000	68982.975000	47296.620000	29484.945000	-6853.230000	23405.220000	4.731144	7.810371	10.142605	14.200116	19.468904	22.769622	25.433100	4.602148	86.524200	1.312360	28.139440	-0.773741	-0.322143	0.562682	-1.000000	-1.000000	-1.000000	-1.000000	-1.000000	-1.000000	-1.000000	61.000000	0.000000	-1.000000	-1.000000	1505630.000000	1776579412.610177
25300.890000	10704.060000	41638.365000	68977.800000	47293.380000	29502.495000	-6857.235000	23401.305000	8.920330	12.357468	15.414258	22.387951	29.775466	34.269250	41.807816	9.526410	86.524200	1.312360	28.139440	-0.773741	-0.322143	0.562682	-1.000000	-1.000000	-1.000000	-1.000000	-1.000000	-1.000000	-1.000000	61.000000	0.000000	-1.000000	-1.000000	1505631.000000	1776579412.610221
25298.685000	10703.835000	41642.280000	68991.480000	47319.390000	29510.010000	-6853.905000	23399.235000	6.665971	8.854536	11.496269	17.635488	24.232449	29.657994	34.528669	7.409707	86.524200	1.312360	28.139440	-0.773741	-0.322143	0.562682	-1.000000	-1.000000	-1.000000	-1.000000	-1.000000	-1.000000	-1.000000	61.000000	0.000000	-1.000000	-1.000000	1505632.000000	1776579412.610490
25294.410000	10704.330000	41652.270000	69018.570000	47348.235000	29496.870000	-6865.065000	23391.135000	0.585944	0.843360	2.492057	5.599169	10.461773	15.824103	13.693610	1.155161	86.524200	1.312360	28.139440	-0.773741	-0.322143	0.562682	-1.000000	-1.000000	-1.000000	-1.000000	-1.000000	-1.000000	-1.000000	61.000000	0.000000	-1.000000	-1.000000	1505633.000000	1776579412.610496
25293.510000	10704.195000	41646.555000	69001.965000	47312.370000	29473.695000	-6877.215000	23388.120000	-4.889530	-6.133954	-5.330554	-4.963573	-2.107786	0.038565	-6.853508	-4.665238	86.524200	1.312360	28.139440	-0.773741	-0.322143	0.562682	-1.000000	-1.000000	-1.000000	-1.000000	-1.000000	-1.000000	-1.000000	61.000000	0.000000	-1.000000	-1.000000	1505634.000000	1776579412.614753
25284.555000	10686.285000	41617.485000	68959.485000	47270.700000	29481.390000	-6867.360000	23385.780000	-6.986183	-9.092602	-9.358676	-11.248426	-11.615464	-12.930598	-18.392473	-7.032094	86.524200	1.312360	28.139440	-0.773741	-0.322143	0.562682	-1.000000	-1.000000	-1.000000	-1.000000	-1.000000	-1.000000	-1.000000	61.000000	0.000000	-1.000000	-1.000000	1505635.000000	1776579412.614778
25279.920000	10679.580000	41610.510000	68956.830000	47274.705000	29493.810000	-6853.410000	23387.805000	-5.670863	-8.567643	-10.887015	-15.612082	-19.840434	-18.730987	-18.122552	-5.273544	126.535920	6.928040	15.275260	-0.780394	-0.278808	0.553771	-1.000000	-1.000000	-1.000000	-1.000000	-1.000000	-1.000000	-1.000000	61.000000	0.000000	-1.000000	-1.000000	1505636.000000	1776579412.618657
25281.945000	10683.585000	41618.295000	68970.825000	47295.720000	29503.080000	-6852.690000	23390.955000	-2.410211	-6.014413	-10.460760	-17.410486	-23.362496	-14.891566	-8.500547	-0.675215	126.535920	6.928040	15.275260	-0.780394	-0.278808	0.553771	-1.000000	-1.000000	-1.000000	-1.000000	-1.000000	-1.000000	-1.000000	61.000000	0.000000	-1.000000	-1.000000	1505637.000000	1776579412.618665
25281.495000	10680.660000	41617.485000	68977.395000	47307.195000	29504.295000	-6856.380000	23392.890000	1.452506	-1.866055	-6.468063	-12.527089	-16.483428	-4.222845	3.595527	4.422534	126.535920	6.928040	15.275260	-0.780394	-0.278808	0.553771	-1.000000	-1.000000	-1.000000	-1.000000	-1.000000	-1.000000	-1.000000	61.000000	0.000000	-1.000000	-1.000000	1505638.000000	1776579412.622727
25265.790000	10663.200000	41598.495000	68955.930000	47284.560000	29502.405000	-6863.850000	23379.255000	4.532484	2.865530	0.677139	-1.156401	-0.948292	6.444148	10.867658	7.429614	126.535920	6.928040	15.275260	-0.780394	-0.278808	0.553771	-1.000000	-1.000000	-1.000000	-1.000000	-1.000000	-1.000000	-1.000000	61.000000	0.000000	-1.000000	-1.000000	1505639.000000	1776579412.622740
25262.460000	10663.470000	41598.045000	68946.930000	47270.970000	29494.395000	-6864.120000	23378.220000	5.250642	5.930666	7.156613	10.042390	13.409579	11.213114	10.371351	6.601319	126.535920	6.928040	15.275260	-0.780394	-0.278808	0.553771	-1.000000	-1.000000	-1.000000	-1.000000	-1.000000	-1.000000	-1.000000	61.000000	0.000000	-1.000000	-1.000000	1505640.000000	1776579412.626620
25255.395000	10657.350000	41595.435000	68950.170000	47276.010000	29485.845000	-6870.420000	23371.380000	3.413708	6.282838	9.939453	14.964055	18.442915	8.562599	4.435895	2.550239	126.535920	6.928040	15.275260	-0.780394	-0.278808	0.553771	-1.000000	-1.000000	-1.000000	-1.000000	-1.000000	-1.000000	-1.000000	61.000000	0.000000	-1.000000	-1.000000	1505641.000000	1776579412.626629
25266.465000	10672.650000	41610.600000	68968.530000	47291.895000	29491.245000	-6868.890000	23377.680000	0.929404	5.219086	9.515872	13.790686	14.881368	1.535305	-2.283759	-1.927993	126.535920	6.928040	15.275260	-0.780394	-0.278808	0.553771	-1.000000	-1.000000	-1.000000	-1.000000	-1.000000	-1.000000	-1.000000	61.000000	0.000000	-1.000000	-1.000000	1505642.000000	1776579412.630641
25285.230000	10696.230000	41632.335000	68989.500000	47306.340000	29499.930000	-6862.995000	23388.030000	0.435263	5.052828	8.414734	10.853733	9.004475	-4.516199	-5.972913	-3.852846	126.535920	6.928040	15.275260	-0.780394	-0.278808	0.553771	-1.000000	-1.000000	-1.000000	-1.000000	-1.000000	-1.000000	-1.000000	61.000000	0.000000	-1.000000	-1.000000	1505643.000000	1776579412.630650
25293.060000	10701.315000	41634.270000	68989.950000	47305.575000	29498.760000	-6857.640000	23395.905000	2.956070	6.733865	8.101504	8.912977	5.092543	-5.855128	-5.191549	-2.059903	126.535920	6.928040	15.275260	-0.780394	-0.278808	0.553771	-1.000000	-1.000000	-1.000000	-1.000000	-1.000000	-1.000000	-1.000000	61.000000	0.000000	-1.000000	-1.000000	1505644.000000	1776579412.638708
25287.795000	10694.295000	41628.960000	68988.330000	47306.430000	29492.370000	-6860.565000	23394.645000	6.155478	7.895802	6.978026	6.623793	2.620741	-3.134089	-1.337268	1.757864	126.535920	6.928040	15.275260	-0.780394	-0.278808	0.553771	-1.000000	-1.000000	-1.000000	-1.000000	-1.000000	-1.000000	-1.000000	61.000000	0.000000	-1.000000	-1.000000	1505645.000000	1776579412.638722
25285.185000	10694.160000	41632.425000	68994.585000	47310.030000	29480.670000	-6869.430000	23388.660000	6.074714	5.001674	2.597808	1.679829	-0.560701	0.014507	2.280685	4.156904	116.510100	16.862300	12.375860	-0.802610	-0.180480	0.551634	-1.000000	-1.000000	-1.000000	-1.000000	-1.000000	-1.000000	-1.000000	61.000000	0.000000	-1.000000	-1.000000	1505646.000000	1776579412.638864
25292.340000	10709.415000	41647.995000	69009.120000	47317.680000	29471.355000	-6872.670000	23393.025000	1.477458	-1.840567	-4.174621	-4.993013	-4.554080	0.731363	2.976370	2.984530	116.510100	16.862300	12.375860	-0.802610	-0.180480	0.551634	-1.000000	-1.000000	-1.000000	-1.000000	-1.000000	-1.000000	-1.000000	61.000000	0.000000	-1.000000	-1.000000	1505647.000000	1776579412.638872
25304.580000	10724.985000	41659.110000	69015.105000	47312.055000	29464.335000	-6870.870000	23401.845000	-4.571009	-8.197116	-9.334612	-9.902803	-7.715393	-0.926089	0.904116	-0.547669	116.510100	16.862300	12.375860	-0.802610	-0.180480	0.551634	-1.000000	-1.000000	-1.000000	-1.000000	-1.000000	-1.000000	-1.000000	61.000000	0.000000	-1.000000	-1.000000	1505648.000000	1776579412.642787
25301.340000	10712.430000	41642.460000	68988.690000	47286.720000	29479.320000	-6872.490000	23397.435000	-8.059846	-10.322886	-10.447158	-11.434067	-9.413393	-2.413832	-1.540941	-3.510028	116.510100	16.862300	12.375860	-0.802610	-0.180480	0.551634	-1.000000	-1.000000	-1.000000	-1.000000	-1.000000	-1.000000	-1.000000	61.000000	0.000000	-1.000000	-1.000000	1505649.000000	1776579412.642798
25284.600000	10686.285000	41621.085000	68976.090000	47294.190000	29511.180000	-6866.145000	23384.970000	-8.234460	-9.420108	-9.420137	-11.461882	-10.185983	-0.492462	-2.252529	-4.719601	116.510100	16.862300	12.375860	-0.802610	-0.180480	0.551634	-1.000000	-1.000000	-1.000000	-1.000000	-1.000000	-1.000000	-1.000000	61.000000	0.000000	-1.000000	-1.000000	1505650.000000	1776579412.646679
25272.045000	10671.480000	41609.565000	68974.920000	47291.940000	29471.310000	-6866.730000	23374.890000	-7.381907	-9.108937	-9.214029	-11.389002	-9.205571	4.832234	-0.864041	-5.182057	116.510100	16.862300	12.375860	-0.802610	-0.180480	0.551634	-1.000000	-1.000000	-1.000000	-1.000000	-1.000000	-1.000000	-1.000000	61.000000	0.000000	-1.000000	-1.000000	1505651.000000	1776579412.646688
25277.715000	10683.135000	41622.120000	68989.410000	47305.170000	29464.650000	-6858.765000	23382.495000	-6.778928	-9.565613	-9.146418	-9.215162	-4.806918	8.110115	1.525630	-5.330282	116.510100	16.862300	12.375860	-0.802610	-0.180480	0.551634	-1.000000	-1.000000	-1.000000	-1.000000	-1.000000	-1.000000	-1.000000	61.000000	0.000000	-1.000000	-1.000000	1505652.000000	1776579412.650621
25278.435000	10681.155000	41620.410000	68990.220000	47318.085000	29510.460000	-6846.795000	23383.575000	-4.933369	-7.195920	-5.846297	-2.681336	2.742475	5.801119	3.622806	-3.859812	116.510100	16.862300	12.375860	-0.802610	-0.180480	0.551634	-1.000000	-1.000000	-1.000000	-1.000000	-1.000000	-1.000000	-1.000000	61.000000	0.000000	-1.000000	-1.000000	1505653.000000	1776579412.650631
25276.680000	10678.635000	41616.450000	68982.210000	47313.360000	29531.295000	-6851.340000	23379.570000	-0.549702	-0.336742	1.431650	6.361670	10.466651	2.344334	4.574612	-0.144638	116.510100	16.862300	12.375860	-0.802610	-0.180480	0.551634	-1.000000	-1.000000	-1.000000	-1.000000	-1.000000	-1.000000	-1.000000	61.000000	0.000000	-1.000000	-1.000000	1505654.000000	1776579412.654770
25277.265000	10678.545000	41615.820000	68979.915000	47303.415000	29505.195000	-6860.700000	23382.855000	4.982004	8.025601	9.168079	12.854346	13.917419	1.883904	3.352716	4.149018	116.510100	16.862300	12.375860	-0.802610	-0.180480	0.551634	-1.000000	-1.000000	-1.000000	-1.000000	-1.000000	-1.000000	-1.000000	61.000000	0.000000	-1.000000	-1.000000	1505655.000000	1776579412.654804
25280.460000	10680.705000	41618.565000	68982.210000	47307.375000	29516.445000	-6861.915000	23386.950000	9.039695	13.608404	13.406035	13.544744	10.638576	1.535013	-0.484967	6.915949	69.783980	29.863820	9.827440	-0.810545	-0.096313	0.562499	-1.000000	-1.000000	-1.000000	-1.000000	-1.000000	-1.000000	-1.000000	61.000000	0.000000	-1.000000	-1.000000	1505656.000000	1776579412.658785
25276.230000	10677.015000	41614.920000	68978.475000	47304.495000	29523.330000	-6869.430000	23380.920000	9.970199	14.228623	12.816749	9.348089	2.867392	-1.762927	-5.287535	7.219554	69.783980	29.863820	9.827440	-0.810545	-0.096313	0.562499	-1.000000	-1.000000	-1.000000	-1.000000	-1.000000	-1.000000	-1.000000	61.000000	0.000000	-1.000000	-1.000000	1505657.000000	1776579412.658822
25283.970000	10686.105000	41625.000000	68988.375000	47312.460000	29516.985000	-6863.805000	23387.805000	7.740302	10.408298	8.591109	3.455188	-4.495622	-6.252776	-8.200203	5.153429	69.783980	29.863820	9.827440	-0.810545	-0.096313	0.562499	-1.000000	-1.000000	-1.000000	-1.000000	-1.000000	-1.000000	-1.000000	61.000000	0.000000	-1.000000	-1.000000	1505658.000000	1776579412.662846
25282.485000	10688.400000	41630.445000	68996.835000	47318.760000	29490.210000	-6869.205000	23385.420000	3.742919	4.596497	3.310142	-0.970837	-7.710924	-9.637306	-7.399154	1.795984	69.783980	29.863820	9.827440	-0.810545	-0.096313	0.562499	-1.000000	-1.000000	-1.000000	-1.000000	-1.000000	-1.000000	-1.000000	61.000000	0.000000	-1.000000	-1.000000	1505659.000000	1776579412.662856
25276.500000	10682.415000	41626.755000	68998.950000	47324.655000	29483.685000	-6878.745000	23379.435000	-0.413727	-0.797058	-0.910616	-2.468448	-6.110598	-11.614651	-3.593653	-1.502135	69.783980	29.863820	9.827440	-0.810545	-0.096313	0.562499	-1.000000	-1.000000	-1.000000	-1.000000	-1.000000	-1.000000	-1.000000	61.000000	0.000000	-1.000000	-1.000000	1505660.000000	1776579412.666656
25279.650000	10684.035000	41628.960000	69005.385000	47327.985000	29484.405000	-6871.905000	23385.960000	-3.827400	-4.832811	-3.730347	-1.945617	-1.861532	-11.362855	0.808341	-3.901895	69.783980	29.863820	9.827440	-0.810545	-0.096313	0.562499	-1.000000	-1.000000	-1.000000	-1.000000	-1.000000	-1.000000	-1.000000	61.000000	0.000000	-1.000000	-1.000000	1505661.000000	1776579412.666665
25280.010000	10683.405000	41627.880000	69004.305000	47327.895000	29475.630000	-6876.315000	23386.230000	-5.727035	-7.204377	-5.546076	-1.280053	1.871709	-7.274978	4.134427	-4.674262	69.783980	29.863820	9.827440	-0.810545	-0.096313	0.562499	-1.000000	-1.000000	-1.000000	-1.000000	-1.000000	-1.000000	-1.000000	61.000000	0.000000	-1.000000	-1.000000	1505662.000000	1776579412.670650
25290.180000	10692.315000	41629.365000	68994.630000	47314.395000	29479.455000	-6865.650000	23397.840000	-5.353445	-7.374889	-6.301723	-1.839133	2.752618	0.206175	6.041950	-3.365467	69.783980	29.863820	9.827440	-0.810545	-0.096313	0.562499	-1.000000	-1.000000	-1.000000	-1.000000	-1.000000	-1.000000	-1.000000	61.000000	0.000000	-1.000000	-1.000000	1505663.000000	1776579412.670669
25291.890000	10694.970000	41626.350000	68979.330000	47292.030000	29497.545000	-6854.355000	23400.360000	-2.791403	-5.145699	-5.802846	-4.126523	-0.040963	8.618338	6.859998	-0.496647	69.783980	29.863820	9.827440	-0.810545	-0.096313	0.562499	-1.000000	-1.000000	-1.000000	-1.000000	-1.000000	-1.000000	-1.000000	61.000000	0.000000	-1.000000	-1.000000	1505664.000000	1776579412.674657
25288.785000	10695.150000	41629.905000	68985.945000	47308.365000	29516.445000	-6846.255000	23395.860000	0.467731	-1.530205	-4.183314	-7.062010	-4.807606	15.684136	6.993457	2.258152	69.783980	29.863820	9.827440	-0.810545	-0.096313	0.562499	-1.000000	-1.000000	-1.000000	-1.000000	-1.000000	-1.000000	-1.000000	61.000000	0.000000	-1.000000	-1.000000	1505665.000000	1776579412.674666
25289.190000	10697.130000	41637.285000	69002.865000	47332.485000	29513.385000	-6865.290000	23388.210000	2.314252	1.543650	-1.697705	-7.594037	-6.803481	19.203067	5.687947	2.809889	4.623780	40.683160	15.504160	-0.799436	-0.048767	0.581725	-1.000000	-1.000000	-1.000000	-1.000000	-1.000000	-1.000000	-1.000000	61.000000	0.000000	-1.000000	-1.000000	1505666.000000	1776579412.681552
25294.545000	10706.400000	41647.770000	69015.915000	47342.115000	29507.085000	-6878.430000	23388.030000	1.990446	2.896931	1.433649	-3.198879	-2.341081	16.559166	1.265714	0.554233	4.623780	40.683160	15.504160	-0.799436	-0.048767	0.581725	-1.000000	-1.000000	-1.000000	-1.000000	-1.000000	-1.000000	-1.000000	61.000000	0.000000	-1.000000	-1.000000	1505667.000000	1776579412.681592
25291.080000	10697.535000	41634.675000	68999.130000	47320.065000	29507.355000	-6862.905000	23391.630000	0.512597	2.648071	4.212788	4.265306	5.698165	7.212740	-5.510112	-2.633838	4.623780	40.683160	15.504160	-0.799436	-0.048767	0.581725	-1.000000	-1.000000	-1.000000	-1.000000	-1.000000	-1.000000	-1.000000	61.000000	0.000000	-1.000000	-1.000000	1505668.000000	1776579412.682735
25286.535000	10689.570000	41623.560000	68983.560000	47309.265000	29509.155000	-6860.565000	23390.685000	-1.013291	0.982276	4.511174	8.938022	9.819456	-5.049975	-10.149722	-4.110231	4.623780	40.683160	15.504160	-0.799436	-0.048767	0.581725	-1.000000	-1.000000	-1.000000	-1.000000	-1.000000	-1.000000	-1.000000	61.000000	0.000000	-1.000000	-1.000000	1505669.000000	1776579412.682751
25285.230000	10687.860000	41622.840000	68984.820000	47315.430000	29508.570000	-6862.590000	23389.830000	-2.198067	-1.800788	1.374931	6.959596	6.348127	-14.402090	-9.227785	-2.974737	4.623780	40.683160	15.504160	-0.799436	-0.048767	0.581725	-1.000000	-1.000000	-1.000000	-1.000000	-1.000000	-1.000000	-1.000000	61.000000	0.000000	-1.000000	-1.000000	1505670.000000	1776579412.686641
25281.045000	10684.215000	41618.115000	68980.050000	47308.185000	29493.405000	-6869.790000	23384.430000	-2.759620	-4.261297	-3.011111	0.649692	-1.045023	-17.486737	-4.261237	-0.485201	4.623780	40.683160	15.504160	-0.799436	-0.048767	0.581725	-1.000000	-1.000000	-1.000000	-1.000000	-1.000000	-1.000000	-1.000000	61.000000	0.000000	-1.000000	-1.000000	1505671.000000	1776579412.686652
25287.705000	10693.035000	41628.375000	68990.085000	47310.750000	29476.620000	-6869.250000	23390.550000	-2.265548	-4.530370	-5.183998	-4.500071	-6.526111	-15.218963	0.776349	1.653777	4.623780	40.683160	15.504160	-0.799436	-0.048767	0.581725	-1.000000	-1.000000	-1.000000	-1.000000	-1.000000	-1.000000	-1.000000	61.000000	0.000000	-1.000000	-1.000000	1505672.000000	1776579412.692118
25291.755000	10696.995000	41633.955000	68995.935000	47313.810000	29461.005000	-6876.990000	23392.530000	-0.414687	-1.837522	-3.304036	-4.877715	-7.191264	-10.574015	3.383635	2.858500	4.623780	40.683160	15.504160	-0.799436	-0.048767	0.581725	-1.000000	-1.000000	-1.000000	-1.000000	-1.000000	-1.000000	-1.000000	61.000000	0.000000	-1.000000	-1.000000	1505673.000000	1776579412.692130
25290.315000	10695.735000	41632.920000	68994.270000	47315.610000	29481.615000	-6876.720000	23389.155000	2.274764	2.568498	1.487349	-0.955555	-3.590273	-4.972968	3.434081	3.267634	4.623780	40.683160	15.504160	-0.799436	-0.048767	0.581725	-1.000000	-1.000000	-1.000000	-1.000000	-1.000000	-1.000000	-1.000000	61.000000	0.000000	-1.000000	-1.000000	1505674.000000	1776579412.694749
25278.930000	10684.575000	41619.780000	68978.835000	47312.010000	29513.250000	-6872.175000	23379.210000	4.045631	5.755858	5.567681	3.385862	1.477787	2.837345	2.321894	2.565629	4.623780	40.683160	15.504160	-0.799436	-0.048767	0.581725	-1.000000	-1.000000	-1.000000	-1.000000	-1.000000	-1.000000	-1.000000	61.000000	0.000000	-1.000000	-1.000000	1505675.000000	1776579412.694759
25272.900000	10676.115000	41612.535000	68972.445000	47307.015000	29520.810000	-6869.385000	23374.305000	3.187126	5.256925	5.627531	4.197921	4.791166	13.103410	1.727501	0.398878	-46.451440	50.449560	39.431840	-0.790403	-0.028809	0.572997	-1.000000	-1.000000	-1.000000	-1.000000	-1.000000	-1.000000	-1.000000	61.000000	0.000000	-1.000000	-1.000000	1505676.000000	1776579412.698752
25278.615000	10683.180000	41621.130000	68984.010000	47319.390000	29526.930000	-6861.645000	23380.335000	0.191035	1.541360	1.897047	1.339916	5.013439	21.376503	2.284006	-2.233495	-46.451440	50.449560	39.431840	-0.790403	-0.028809	0.572997	-1.000000	-1.000000	-1.000000	-1.000000	-1.000000	-1.000000	-1.000000	61.000000	0.000000	-1.000000	-1.000000	1505677.000000	1776579412.698760
25285.140000	10692.675000	41631.660000	68994.630000	47325.600000	29514.690000	-6866.415000	23385.285000	-2.203126	-1.982672	-1.863262	-1.476079	3.514813	21.463855	3.189481	-3.194557	-46.451440	50.449560	39.431840	-0.790403	-0.028809	0.572997	-1.000000	-1.000000	-1.000000	-1.000000	-1.000000	-1.000000	-1.000000	61.000000	0.000000	-1.000000	-1.000000	1505678.000000	1776579412.702766
25281.045000	10688.805000	41629.860000	68994.495000	47324.250000	29498.445000	-6878.295000	23379.660000	-1.955379	-2.438178	-2.426508	-1.214833	2.123665	11.256857	2.759244	-1.573175	-46.451440	50.449560	39.431840	-0.790403	-0.028809	0.572997	-1.000000	-1.000000	-1.000000	-1.000000	-1.000000	-1.000000	-1.000000	61.000000	0.000000	-1.000000	-1.000000	1505679.000000	1776579412.702778
25283.070000	10690.245000	41631.165000	68997.060000	47320.470000	29488.095000	-6878.880000	23380.920000	0.143382	-0.403223	-0.337554	1.237069	0.859703	-5.132489	-0.006073	1.086185	-46.451440	50.449560	39.431840	-0.790403	-0.028809	0.572997	-1.000000	-1.000000	-1.000000	-1.000000	-1.000000	-1.000000	-1.000000	61.000000	0.000000	-1.000000	-1.000000	1505680.000000	1776579412.706676
25287.705000	10693.980000	41633.865000	69000.435000	47315.970000	29476.800000	-6873.570000	23385.195000	2.058633	1.651576	1.703505	3.037491	-1.140596	-19.706822	-3.644925	2.783650	-46.451440	50.449560	39.431840	-0.790403	-0.028809	0.572997	-1.000000	-1.000000	-1.000000	-1.000000	-1.000000	-1.000000	-1.000000	61.000000	0.000000	-1.000000	-1.000000	1505681.000000	1776579412.706692
25281.135000	10684.845000	41626.125000	68997.015000	47325.465000	29480.445000	-6876.630000	23378.625000	2.607147	2.101296	1.880362	2.559444	-3.524621	-25.398177	-5.371474	2.858103	-46.451440	50.449560	39.431840	-0.790403	-0.028809	0.572997	-1.000000	-1.000000	-1.000000	-1.000000	-1.000000	-1.000000	-1.000000	61.000000	0.000000	-1.000000	-1.000000	1505682.000000	1776579412.710739
25281.270000	10688.085000	41624.280000	68979.510000	47306.655000	29504.025000	-6878.160000	23375.700000	1.524044	0.704033	0.011057	-0.269792	-4.959060	-19.497197	-4.169604	1.456776	-46.451440	50.449560	39.431840	-0.790403	-0.028809	0.572997	-1.000000	-1.000000	-1.000000	-1.000000	-1.000000	-1.000000	-1.000000	61.000000	0.000000	-1.000000	-1.000000	1505683.000000	1776579412.710746
25276.545000	10685.115000	41624.145000	68982.750000	47312.955000	29509.785000	-6870.195000	23373.360000	-0.675922	-1.536760	-2.691574	-4.425798	-4.961005	-4.624315	-1.203259	-0.825121	-46.451440	50.449560	39.431840	-0.790403	-0.028809	0.572997	-1.000000	-1.000000	-1.000000	-1.000000	-1.000000	-1.000000	-1.000000	61.000000	0.000000	-1.000000	-1.000000	1505684.000000	1776579412.714727
25284.330000	10694.430000	41634.630000	68995.350000	47325.780000	29511.585000	-6867.495000	23382.630000	-2.648556	-2.913792	-4.133976	-7.212446	-3.410941	11.729638	2.042005	-2.605079	-46.451440	50.449560	39.431840	-0.790403	-0.028809	0.572997	-1.000000	-1.000000	-1.000000	-1.000000	-1.000000	-1.000000	-1.000000	61.000000	0.000000	-1.000000	-1.000000	1505685.000000	1776579412.714745
25287.345000	10694.835000	41634.765000	68995.980000	47332.440000	29521.620000	-6868.035000	23385.060000	-2.944108	-2.326416	-2.914849	-5.844466	0.156778	21.271709	4.339288	-2.443232	-77.322420	54.920740	52.021340	-0.798094	-0.037353	0.555113	-1.000000	-1.000000	-1.000000	-1.000000	-1.000000	-1.000000	-1.000000	61.000000	0.000000	-1.000000	-1.000000	1505686.000000	1776579412.718760
25275.060000	10680.705000	41623.020000	68989.860000	47341.845000	29550.015000	-6858.090000	23375.925000	-1.522691	-0.523957	-0.047830	-0.962019	4.825245	20.979227	4.804260	-0.577857	-77.322420	54.920740	52.021340	-0.798094	-0.037353	0.555113	-1.000000	-1.000000	-1.000000	-1.000000	-1.000000	-1.000000	-1.000000	61.000000	0.000000	-1.000000	-1.000000	1505687.000000	1776579412.718771
25265.925000	10678.140000	41612.175000	68971.140000	47321.550000	29513.295000	-6866.505000	23365.710000	-0.249235	0.382749	1.627662	3.383521	7.669648	13.185948	3.418388	0.814993	-77.322420	54.920740	52.021340	-0.798094	-0.037353	0.555113	-1.000000	-1.000000	-1.000000	-1.000000	-1.000000	-1.000000	-1.000000	61.000000	0.000000	-1.000000	-1.000000	1505688.000000	1776579412.722743
25260.120000	10675.170000	41606.235000	68961.150000	47308.230000	29488.410000	-6880.455000	23356.350000	-0.657984	-0.441954	0.541498	3.719297	5.692786	0.487693	0.411540	-0.011766	-77.322420	54.920740	52.021340	-0.798094	-0.037353	0.555113	-1.000000	-1.000000	-1.000000	-1.000000	-1.000000	-1.000000	-1.000000	61.000000	0.000000	-1.000000	-1.000000	1505689.000000	1776579412.722752
25274.250000	10684.530000	41626.305000	68990.220000	47329.785000	29509.470000	-6875.325000	23368.095000	-1.701947	-1.447963	-1.498598	1.050976	-0.472673	-13.522599	-3.629882	-2.098074	-77.322420	54.920740	52.021340	-0.798094	-0.037353	0.555113	-1.000000	-1.000000	-1.000000	-1.000000	-1.000000	-1.000000	-1.000000	61.000000	0.000000	-1.000000	-1.000000	1505690.000000	1776579412.726704
25273.260000	10682.595000	41623.245000	68987.385000	47329.020000	29516.130000	-6879.825000	23364.990000	-0.987280	-0.774056	-1.235452	-0.124874	-5.721050	-21.420088	-6.645302	-2.684382	-77.322420	54.920740	52.021340	-0.798094	-0.037353	0.555113	-1.000000	-1.000000	-1.000000	-1.000000	-1.000000	-1.000000	-1.000000	61.000000	0.000000	-1.000000	-1.000000	1505691.000000	1776579412.726727
25266.285000	10671.030000	41611.455000	68977.710000	47319.480000	29509.110000	-6880.815000	23361.975000	1.750964	1.252390	1.582978	1.894795	-6.282463	-18.172184	-6.596319	-0.660335	-77.322420	54.920740	52.021340	-0.798094	-0.037353	0.555113	-1.000000	-1.000000	-1.000000	-1.000000	-1.000000	-1.000000	-1.000000	61.000000	0.000000	-1.000000	-1.000000	1505692.000000	1776579412.730761
25271.010000	10678.410000	41620.905000	68987.835000	47322.990000	29505.510000	-6875.505000	23366.925000	4.177813	2.629040	3.966961	4.186989	-3.475550	-7.171228	-3.476758	2.355979	-77.322420	54.920740	52.021340	-0.798094	-0.037353	0.555113	-1.000000	-1.000000	-1.000000	-1.000000	-1.000000	-1.000000	-1.000000	61.000000	0.000000	-1.000000	-1.000000	1505693.000000	1776579412.730778
25267.185000	10674.585000	41617.980000	68987.835000	47326.185000	29505.960000	-6879.465000	23362.290000	4.483771	2.498773	4.082390	4.301379	-0.156612	4.050436	1.084935	4.341637	-77.322420	54.920740	52.021340	-0.798094	-0.037353	0.555113	-1.000000	-1.000000	-1.000000	-1.000000	-1.000000	-1.000000	-1.000000	61.000000	0.000000	-1.000000	-1.000000	1505694.000000	1776579412.734740
25268.625000	10676.340000	41618.970000	68988.915000	47326.005000	29502.630000	-6881.895000	23363.865000	2.819502	1.573113	2.515753	2.467032	2.320315	10.468140	4.795389	4.352209	-77.322420	54.920740	52.021340	-0.798094	-0.037353	0.555113	-1.000000	-1.000000	-1.000000	-1.000000	-1.000000	-1.000000	-1.000000	61.000000	0.000000	-1.000000	-1.000000	1505695.000000	1776579412.734764
25273.035000	10682.235000	41624.685000	68991.840000	47329.650000	29508.615000	-6876.405000	23369.130000	0.438109	0.718103	0.489234	-0.162655	3.547366	11.302505	6.030967	2.707836	-69.982360	52.021340	36.898680	-0.818479	-0.072815	0.540282	-1.000000	-1.000000	-1.000000	-1.000000	-1.000000	-1.000000	-1.000000	61.000000	0.000000	-1.000000	-1.000000	1505696.000000	1776579412.740048
25272.315000	10682.505000	41624.865000	68989.185000	47328.615000	29507.580000	-6877.485000	23365.800000	-1.301209	0.438569	-0.953891	-2.510554	3.456258	8.509998	4.975440	0.598439	-69.982360	52.021340	36.898680	-0.818479	-0.072815	0.540282	-1.000000	-1.000000	-1.000000	-1.000000	-1.000000	-1.000000	-1.000000	61.000000	0.000000	-1.000000	-1.000000	1505697.000000	1776579412.740058
25277.535000	10687.005000	41627.970000	68989.545000	47326.005000	29508.030000	-6874.065000	23369.130000	-1.832382	0.603926	-1.448372	-3.941201	2.217848	4.498765	2.831841	-1.097174	-69.982360	52.021340	36.898680	-0.818479	-0.072815	0.540282	-1.000000	-1.000000	-1.000000	-1.000000	-1.000000	-1.000000	-1.000000	61.000000	0.000000	-1.000000	-1.000000	1505698.000000	1776579412.743004
25273.980000	10685.430000	41626.080000	68986.305000	47324.385000	29504.835000	-6876.450000	23364.450000	-1.513041	0.600359	-1.413110	-4.325529	0.196013	0.706056	0.573654	-2.196284	-69.982360	52.021340	36.898680	-0.818479	-0.072815	0.540282	-1.000000	-1.000000	-1.000000	-1.000000	-1.000000	-1.000000	-1.000000	61.000000	0.000000	-1.000000	-1.000000	1505699.000000	1776579412.743019
25274.160000	10685.295000	41628.780000	68991.660000	47329.920000	29508.660000	-6878.745000	23363.460000	-1.118965	-0.059576	-1.385864	-3.673430	-1.753103	-2.185284	-1.378681	-2.816017	-69.982360	52.021340	36.898680	-0.818479	-0.072815	0.540282	-1.000000	-1.000000	-1.000000	-1.000000	-1.000000	-1.000000	-1.000000	61.000000	0.000000	-1.000000	-1.000000	1505700.000000	1776579412.746768
25275.150000	10680.930000	41624.370000	68989.230000	47329.110000	29506.995000	-6878.340000	23366.835000	-1.131041	-1.400864	-1.558494	-2.051405	-2.535920	-3.698292	-2.858172	-2.937341	-69.982360	52.021340	36.898680	-0.818479	-0.072815	0.540282	-1.000000	-1.000000	-1.000000	-1.000000	-1.000000	-1.000000	-1.000000	61.000000	0.000000	-1.000000	-1.000000	1505701.000000	1776579412.746791
25275.960000	10679.355000	41619.780000	68982.300000	47320.830000	29489.130000	-6878.160000	23369.760000	-1.298159	-2.927312	-1.921485	-0.102932	-2.043285	-4.075283	-3.523441	-2.198738	-69.982360	52.021340	36.898680	-0.818479	-0.072815	0.540282	-1.000000	-1.000000	-1.000000	-1.000000	-1.000000	-1.000000	-1.000000	61.000000	0.000000	-1.000000	-1.000000	1505702.000000	1776579412.750758
25271.685000	10679.535000	41621.805000	68983.830000	47321.370000	29474.505000	-6886.305000	23364.585000	-1.227663	-3.796396	-2.272660	1.123323	-1.297691	-4.549811	-3.213301	-0.653880	-69.982360	52.021340	36.898680	-0.818479	-0.072815	0.540282	-1.000000	-1.000000	-1.000000	-1.000000	-1.000000	-1.000000	-1.000000	61.000000	0.000000	-1.000000	-1.000000	1505703.000000	1776579412.750773
25276.455000	10689.570000	41635.080000	68999.400000	47335.365000	29476.080000	-6887.115000	23366.070000	-0.879443	-3.114618	-1.769664	1.683211	-0.628269	-5.456291	-2.376905	0.778616	-69.982360	52.021340	36.898680	-0.818479	-0.072815	0.540282	-1.000000	-1.000000	-1.000000	-1.000000	-1.000000	-1.000000	-1.000000	61.000000	0.000000	-1.000000	-1.000000	1505704.000000	1776579412.754830
25272.270000	10682.550000	41627.070000	68997.645000	47335.815000	29475.270000	-6891.795000	23364.450000	-0.303189	-0.750802	0.215344	2.635489	0.760894	-5.023312	-1.462331	1.325131	-69.982360	52.021340	36.898680	-0.818479	-0.072815	0.540282	-1.000000	-1.000000	-1.000000	-1.000000	-1.000000	-1.000000	-1.000000	61.000000	0.000000	-1.000000	-1.000000	1505705.000000	1776579412.754840
25280.280000	10688.670000	41625.270000	68989.320000	47326.770000	29497.095000	-6886.035000	23370.435000	0.464569	2.004925	2.475317	3.640646	2.526828	-1.337337	-0.361348	1.171726	-34.487600	43.933540	20.372100	-0.844541	-0.117370	0.525939	-1.000000	-1.000000	-1.000000	-1.000000	-1.000000	-1.000000	-1.000000	61.000000	0.000000	-1.000000	-1.000000	1505706.000000	1776579412.758811
25288.785000	10702.260000	41638.770000	68998.770000	47326.230000	29501.055000	-6881.805000	23374.035000	1.508121	3.839696	3.343164	3.130930	2.818225	5.264752	1.300135	1.060129	-34.487600	43.933540	20.372100	-0.844541	-0.117370	0.525939	-1.000000	-1.000000	-1.000000	-1.000000	-1.000000	-1.000000	-1.000000	61.000000	0.000000	-1.000000	-1.000000	1505707.000000	1776579412.758820
25277.805000	10687.995000	41629.770000	68993.685000	47335.095000	29527.335000	-6870.105000	23366.340000	2.560821	4.367860	2.818539	1.006102	1.150364	11.916529	3.550260	1.186209	-34.487600	43.933540	20.372100	-0.844541	-0.117370	0.525939	-1.000000	-1.000000	-1.000000	-1.000000	-1.000000	-1.000000	-1.000000	61.000000	0.000000	-1.000000	-1.000000	1505708.000000	1776579412.764726
25261.605000	10670.265000	41617.575000	68983.380000	47330.370000	29530.350000	-6874.380000	23353.695000	2.132264	2.703550	1.209666	-1.620884	-0.805169	15.121641	5.516144	0.594587	-34.487600	43.933540	20.372100	-0.844541	-0.117370	0.525939	-1.000000	-1.000000	-1.000000	-1.000000	-1.000000	-1.000000	-1.000000	61.000000	0.000000	-1.000000	-1.000000	1505709.000000	1776579412.764739
25264.260000	10673.685000	41615.415000	68979.330000	47328.435000	29547.900000	-6870.105000	23357.385000	-0.755328	-1.562800	-1.594248	-4.049612	-1.777048	12.897864	5.653539	-1.341924	-34.487600	43.933540	20.372100	-0.844541	-0.117370	0.525939	-1.000000	-1.000000	-1.000000	-1.000000	-1.000000	-1.000000	-1.000000	61.000000	0.000000	-1.000000	-1.000000	1505710.000000	1776579412.766861
25262.820000	10673.055000	41613.435000	68977.620000	47324.880000	29534.625000	-6876.045000	23355.855000	-4.183540	-5.874834	-4.408191	-5.481180	-1.988160	5.507765	3.149175	-3.274428	-34.487600	43.933540	20.372100	-0.844541	-0.117370	0.525939	-1.000000	-1.000000	-1.000000	-1.000000	-1.000000	-1.000000	-1.000000	61.000000	0.000000	-1.000000	-1.000000	1505711.000000	1776579412.766878
25264.620000	10675.980000	41617.620000	68984.370000	47328.345000	29521.395000	-6876.765000	23359.635000	-5.108604	-6.726931	-5.087742	-4.724485	-1.828041	-5.141841	-1.151871	-3.233692	-34.487600	43.933540	20.372100	-0.844541	-0.117370	0.525939	-1.000000	-1.000000	-1.000000	-1.000000	-1.000000	-1.000000	-1.000000	61.000000	0.000000	-1.000000	-1.000000	1505712.000000	1776579412.771039
25266.330000	10675.305000	41616.270000	68982.075000	47326.860000	29516.310000	-6875.595000	23360.445000	-2.630252	-3.405995	-2.761950	-1.465947	-1.170897	-15.803751	-5.223679	-0.885655	-34.487600	43.933540	20.372100	-0.844541	-0.117370	0.525939	-1.000000	-1.000000	-1.000000	-1.000000	-1.000000	-1.000000	-1.000000	61.000000	0.000000	-1.000000	-1.000000	1505713.000000	1776579412.771065
25266.645000	10674.810000	41615.505000	68976.360000	47317.995000	29498.040000	-6878.520000	23358.960000	1.618198	1.747907	1.229431	2.675758	-0.177830	-22.250087	-7.089940	2.279587	-34.487600	43.933540	20.372100	-0.844541	-0.117370	0.525939	-1.000000	-1.000000	-1.000000	-1.000000	-1.000000	-1.000000	-1.000000	61.000000	0.000000	-1.000000	-1.000000	1505714.000000	1776579412.774907
25265.655000	10673.640000	41615.865000	68976.810000	47317.455000	29503.125000	-6880.230000	23356.620000	5.082552	5.629944	4.511185	5.210710	0.407970	-21.442335	-6.167370	4.229646	-34.487600	43.933540	20.372100	-0.844541	-0.117370	0.525939	-1.000000	-1.000000	-1.000000	-1.000000	-1.000000	-1.000000	-1.000000	61.000000	0.000000	-1.000000	-1.000000	1505715.000000	1776579412.774921
25273.620000	10681.380000	41622.975000	68983.560000	47322.135000	29506.005000	-6876.315000	23363.595000	6.140903	6.645484	5.677999	5.220553	0.469642	-13.120411	-3.291775	4.030583	7.034860	32.946340	14.100240	-0.864072	-0.146484	0.515257	-1.000000	-1.000000	-1.000000	-1.000000	-1.000000	-1.000000	-1.000000	61.000000	0.000000	-1.000000	-1.000000	1505716.000000	1776579412.778998
25278.255000	10685.790000	41627.970000	68988.645000	47321.640000	29496.195000	-6878.835000	23366.070000	5.028178	5.356761	5.010683	3.863728	0.797654	-0.255491	0.252875	2.478620	7.034860	32.946340	14.100240	-0.864072	-0.146484	0.515257	-1.000000	-1.000000	-1.000000	-1.000000	-1.000000	-1.000000	-1.000000	61.000000	0.000000	-1.000000	-1.000000	1505717.000000	1776579412.779008
25281.495000	10692.765000	41635.305000	68995.800000	47322.720000	29486.835000	-6883.920000	23367.150000	2.910213	3.219314	3.501126	2.567786	1.673173	11.424431	3.048934	0.834086	7.034860	32.946340	14.100240	-0.864072	-0.146484	0.515257	-1.000000	-1.000000	-1.000000	-1.000000	-1.000000	-1.000000	-1.000000	61.000000	0.000000	-1.000000	-1.000000	1505718.000000	1776579412.782865
25280.460000	10693.305000	41635.845000	68997.285000	47325.960000	29498.220000	-6884.370000	23365.710000	0.508757	1.114469	1.729846	1.661749	2.476627	17.218008	3.977372	-0.496095	7.034860	32.946340	14.100240	-0.864072	-0.146484	0.515257	-1.000000	-1.000000	-1.000000	-1.000000	-1.000000	-1.000000	-1.000000	61.000000	0.000000	-1.000000	-1.000000	1505719.000000	1776579412.782878
25278.930000	10691.910000	41633.595000	68994.810000	47328.975000	29521.665000	-6882.570000	23365.485000	-2.000420	-0.956776	-0.386796	0.493946	2.638672	17.247199	3.175680	-1.695774	7.034860	32.946340	14.100240	-0.864072	-0.146484	0.515257	-1.000000	-1.000000	-1.000000	-1.000000	-1.000000	-1.000000	-1.000000	61.000000	0.000000	-1.000000	-1.000000	1505720.000000	1776579412.791898
25273.035000	10684.035000	41626.440000	68991.885000	47335.365000	29539.710000	-6878.160000	23362.785000	-4.392042	-3.300191	-3.068889	-1.591451	2.133390	14.847132	1.909077	-2.765954	7.034860	32.946340	14.100240	-0.864072	-0.146484	0.515257	-1.000000	-1.000000	-1.000000	-1.000000	-1.000000	-1.000000	-1.000000	61.000000	0.000000	-1.000000	-1.000000	1505721.000000	1776579412.791911
25261.785000	10668.420000	41610.330000	68977.845000	47327.670000	29515.860000	-6879.240000	23352.795000	-6.270881	-5.954576	-6.122335	-4.466821	1.068174	11.314283	1.211324	-3.556684	7.034860	32.946340	14.100240	-0.864072	-0.146484	0.515257	-1.000000	-1.000000	-1.000000	-1.000000	-1.000000	-1.000000	-1.000000	61.000000	0.000000	-1.000000	-1.000000	1505722.000000	1776579412.792042
25262.730000	10667.610000	41605.740000	68968.710000	47313.090000	29487.690000	-6884.460000	23353.155000	-7.069105	-8.205906	-8.681355	-7.298882	-0.956585	4.187906	0.898686	-3.942275	7.034860	32.946340	14.100240	-0.864072	-0.146484	0.515257	-1.000000	-1.000000	-1.000000	-1.000000	-1.000000	-1.000000	-1.000000	61.000000	0.000000	-1.000000	-1.000000	1505723.000000	1776579412.792050
25264.305000	10672.155000	41611.410000	68974.110000	47315.835000	29497.905000	-6884.370000	23353.155000	-5.859365	-8.251087	-8.962658	-8.543388	-3.997553	-7.225443	0.158395	-3.430362	7.034860	32.946340	14.100240	-0.864072	-0.146484	0.515257	-1.000000	-1.000000	-1.000000	-1.000000	-1.000000	-1.000000	-1.000000	61.000000	0.000000	-1.000000	-1.000000	1505724.000000	1776579412.794971
25267.095000	10675.575000	41617.845000	68981.760000	47320.695000	29492.145000	-6885.225000	23354.910000	-2.159104	-4.558331	-5.262097	-6.297534	-6.226440	-17.440469	-1.082624	-1.471104	7.034860	32.946340	14.100240	-0.864072	-0.146484	0.515257	-1.000000	-1.000000	-1.000000	-1.000000	-1.000000	-1.000000	-1.000000	61.000000	0.000000	-1.000000	-1.000000	1505725.000000	1776579412.794989
25271.595000	10680.435000	41621.760000	68984.910000	47320.560000	29487.420000	-6884.505000	23359.095000	2.966604	1.981876	1.805847	-0.327420	-5.359120	-20.013619	-2.029637	1.608541	31.984960	27.483260	7.370580	-0.867918	-0.149841	0.501403	-1.000000	-1.000000	-1.000000	-1.000000	-1.000000	-1.000000	-1.000000	61.000000	0.000000	-1.000000	-1.000000	1505726.000000	1776579412.801836
25279.110000	10689.795000	41629.410000	68986.395000	47322.225000	29509.335000	-6875.820000	23367.330000	7.438318	8.398310	9.005391	6.646952	-1.514499	-13.694086	-1.864800	4.716360	31.984960	27.483260	7.370580	-0.867918	-0.149841	0.501403	-1.000000	-1.000000	-1.000000	-1.000000	-1.000000	-1.000000	-1.000000	61.000000	0.000000	-1.000000	-1.000000	1505727.000000	1776579412.801852
25281.585000	10693.890000	41636.520000	68998.050000	47333.565000	29505.285000	-6879.060000	23369.355000	9.488811	11.862999	12.910184	11.014851	3.127911	-1.879636	-0.458565	6.667914	31.984960	27.483260	7.370580	-0.867918	-0.149841	0.501403	-1.000000	-1.000000	-1.000000	-1.000000	-1.000000	-1.000000	-1.000000	61.000000	0.000000	-1.000000	-1.000000	1505728.000000	1776579412.802877
25273.890000	10687.050000	41629.860000	68997.735000	47335.005000	29491.785000	-6884.190000	23361.435000	8.146965	10.865226	11.860643	11.076796	6.513513	9.270350	1.095314	6.321562	31.984960	27.483260	7.370580	-0.867918	-0.149841	0.501403	-1.000000	-1.000000	-1.000000	-1.000000	-1.000000	-1.000000	-1.000000	61.000000	0.000000	-1.000000	-1.000000	1505729.000000	1776579412.802902
25264.755000	10678.635000	41614.065000	68973.210000	47315.160000	29495.745000	-6889.230000	23351.310000	3.379670	5.387016	5.929471	6.806927	6.971308	13.902649	1.246865	2.947341	31.984960	27.483260	7.370580	-0.867918	-0.149841	0.501403	-1.000000	-1.000000	-1.000000	-1.000000	-1.000000	-1.000000	-1.000000	61.000000	0.000000	-1.000000	-1.000000	1505730.000000	1776579412.806970
25269.030000	10680.975000	41617.980000	68973.795000	47314.845000	29519.910000	-6880.455000	23356.125000	-3.104322	-2.500928	-2.859906	-0.871219	3.458877	11.547575	-0.063428	-2.422655	31.984960	27.483260	7.370580	-0.867918	-0.149841	0.501403	-1.000000	-1.000000	-1.000000	-1.000000	-1.000000	-1.000000	-1.000000	61.000000	0.000000	-1.000000	-1.000000	1505731.000000	1776579412.806982
25270.605000	10680.705000	41621.625000	68981.580000	47326.770000	29533.860000	-6874.830000	23358.015000	-7.919502	-8.935202	-10.183357	-8.540755	-2.136741	6.918253	-1.077820	-6.683134	31.984960	27.483260	7.370580	-0.867918	-0.149841	0.501403	-1.000000	-1.000000	-1.000000	-1.000000	-1.000000	-1.000000	-1.000000	61.000000	0.000000	-1.000000	-1.000000	1505732.000000	1776579412.810949
25266.240000	10673.955000	41616.585000	68979.600000	47323.935000	29524.995000	-6877.980000	23353.065000	-8.569922	-10.932611	-12.139457	-11.523660	-5.628148	3.537853	-0.506444	-7.280113	31.984960	27.483260	7.370580	-0.867918	-0.149841	0.501403	-1.000000	-1.000000	-1.000000	-1.000000	-1.000000	-1.000000	-1.000000	61.000000	0.000000	-1.000000	-1.000000	1505733.000000	1776579412.810963
25265.835000	10671.345000	41620.050000	68983.155000	47317.545000	29511.585000	-6881.265000	23353.155000	-5.565445	-8.567774	-8.568413	-8.395492	-5.165892	0.298129	0.757800	-4.570587	31.984960	27.483260	7.370580	-0.867918	-0.149841	0.501403	-1.000000	-1.000000	-1.000000	-1.000000	-1.000000	-1.000000	-1.000000	61.000000	0.000000	-1.000000	-1.000000	1505734.000000	1776579412.814962
25262.730000	10664.820000	41621.085000	68991.795000	47321.055000	29508.930000	-6884.955000	23351.040000	-1.289575	-4.029484	-2.284424	-1.717939	-2.489008	-4.786521	1.013005	-0.741162	31.984960	27.483260	7.370580	-0.867918	-0.149841	0.501403	-1.000000	-1.000000	-1.000000	-1.000000	-1.000000	-1.000000	-1.000000	61.000000	0.000000	-1.000000	-1.000000	1505735.000000	1776579412.814980
25266.285000	10668.330000	41614.920000	68989.410000	47319.210000	29504.205000	-6881.085000	23355.630000	2.219246	0.520824	3.426101	4.776061	0.197893	-10.332244	-0.055906	2.398185	40.042240	22.386420	3.723440	-0.866209	-0.132385	0.490294	-1.000000	-1.000000	-1.000000	-1.000000	-1.000000	-1.000000	-1.000000	61.000000	0.000000	-1.000000	-1.000000	1505736.000000	1776579412.818874
25276.950000	10684.755000	41609.970000	68980.950000	47318.580000	29504.880000	-6872.490000	23365.890000	4.358087	4.307669	6.128300	7.920174	1.894365	-12.818025	-1.084677	4.337370	40.042240	22.386420	3.723440	-0.866209	-0.132385	0.490294	-1.000000	-1.000000	-1.000000	-1.000000	-1.000000	-1.000000	-1.000000	61.000000	0.000000	-1.000000	-1.000000	1505737.000000	1776579412.818909
25274.070000	10690.785000	41630.985000	68980.770000	47328.885000	29505.285000	-6883.515000	23356.845000	5.403931	7.548391	5.678079	6.361944	2.572170	-10.232438	-0.902745	5.135257	40.042240	22.386420	3.723440	-0.866209	-0.132385	0.490294	-1.000000	-1.000000	-1.000000	-1.000000	-1.000000	-1.000000	-1.000000	61.000000	0.000000	-1.000000	-1.000000	1505738.000000	1776579412.822955
25265.340000	10679.310000	41625.315000	68982.210000	47332.080000	29511.270000	-6890.220000	23349.645000	4.976595	9.324533	4.193811	1.740160	2.864133	-3.520768	-0.290488	4.149314	40.042240	22.386420	3.723440	-0.866209	-0.132385	0.490294	-1.000000	-1.000000	-1.000000	-1.000000	-1.000000	-1.000000	-1.000000	61.000000	0.000000	-1.000000	-1.000000	1505739.000000	1776579412.822967
25263.630000	10673.910000	41613.570000	68969.520000	47315.520000	29519.325000	-6890.625000	23347.890000	2.351989	7.449337	2.758120	-2.806499	2.718885	4.447287	-0.579714	0.963103	40.042240	22.386420	3.723440	-0.866209	-0.132385	0.490294	-1.000000	-1.000000	-1.000000	-1.000000	-1.000000	-1.000000	-1.000000	61.000000	0.000000	-1.000000	-1.000000	1505740.000000	1776579412.826851
25269.885000	10684.080000	41625.270000	68981.400000	47321.820000	29513.835000	-6887.565000	23352.660000	-1.489436	1.867282	0.626340	-5.149216	1.131607	10.383407	-1.347127	-2.826805	40.042240	22.386420	3.723440	-0.866209	-0.132385	0.490294	-1.000000	-1.000000	-1.000000	-1.000000	-1.000000	-1.000000	-1.000000	61.000000	0.000000	-1.000000	-1.000000	1505741.000000	1776579412.826857
25280.550000	10696.455000	41642.010000	69001.065000	47341.800000	29511.315000	-6886.620000	23360.130000	-3.879081	-3.800458	-1.465402	-4.100288	-1.175620	11.697171	-1.144409	-4.532862	40.042240	22.386420	3.723440	-0.866209	-0.132385	0.490294	-1.000000	-1.000000	-1.000000	-1.000000	-1.000000	-1.000000	-1.000000	61.000000	0.000000	-1.000000	-1.000000	1505742.000000	1776579412.830864
25280.145000	10693.080000	41634.855000	68989.320000	47317.230000	29480.220000	-6892.290000	23357.835000	-3.156893	-5.944686	-1.720353	0.110315	-2.139276	7.466809	0.303812	-3.057111	40.042240	22.386420	3.723440	-0.866209	-0.132385	0.490294	-1.000000	-1.000000	-1.000000	-1.000000	-1.000000	-1.000000	-1.000000	61.000000	0.000000	-1.000000	-1.000000	1505743.000000	1776579412.830875
25273.170000	10686.825000	41628.780000	68984.775000	47315.700000	29482.020000	-6892.605000	23352.525000	-0.640235	-4.808801	-0.846323	4.203075	-2.131246	-0.710845	1.789923	-0.073475	40.042240	22.386420	3.723440	-0.866209	-0.132385	0.490294	-1.000000	-1.000000	-1.000000	-1.000000	-1.000000	-1.000000	-1.000000	61.000000	0.000000	-1.000000	-1.000000	1505744.000000	1776579412.834949
25270.200000	10681.245000	41622.345000	68979.015000	47314.575000	29481.030000	-6895.980000	23351.040000	0.841528	-3.215747	-1.185168	4.502394	-2.680672	-8.293351	2.193869	1.762060	40.042240	22.386420	3.723440	-0.866209	-0.132385	0.490294	-1.000000	-1.000000	-1.000000	-1.000000	-1.000000	-1.000000	-1.000000	61.000000	0.000000	-1.000000	-1.000000	1505745.000000	1776579412.834959
25262.910000	10667.295000	41606.820000	68967.045000	47311.335000	29497.230000	-6890.265000	23349.600000	-0.019795	-3.046161	-3.434551	0.796176	-3.249458	-10.127073	1.601281	1.447716	26.796560	16.877560	2.807840	-0.867674	-0.104370	0.481383	-1.000000	-1.000000	-1.000000	-1.000000	-1.000000	-1.000000	-1.000000	61.000000	0.000000	-1.000000	-1.000000	1505746.000000	1776579412.841856
25260.885000	10667.250000	41607.945000	68969.745000	47321.595000	29533.410000	-6874.605000	23351.760000	-2.185061	-3.954144	-6.085883	-4.068075	-2.368039	-4.202575	1.186008	0.033292	26.796560	16.877560	2.807840	-0.867674	-0.104370	0.481383	-1.000000	-1.000000	-1.000000	-1.000000	-1.000000	-1.000000	-1.000000	61.000000	0.000000	-1.000000	-1.000000	1505747.000000	1776579412.841875
25266.780000	10675.170000	41615.325000	68975.370000	47319.795000	29529.765000	-6871.905000	23356.530000	-3.511375	-3.916630	-6.505428	-6.486463	0.369629	6.552923	1.970196	-0.831289	26.796560	16.877560	2.807840	-0.867674	-0.104370	0.481383	-1.000000	-1.000000	-1.000000	-1.000000	-1.000000	-1.000000	-1.000000	61.000000	0.000000	-1.000000	-1.000000	1505748.000000	1776579412.843050
25268.940000	10678.140000	41612.400000	68968.980000	47311.380000	29508.210000	-6880.005000	23355.720000	-2.381650	-1.095611	-3.057850	-4.651560	3.521186	14.514992	3.018623	-0.358367	26.796560	16.877560	2.807840	-0.867674	-0.104370	0.481383	-1.000000	-1.000000	-1.000000	-1.000000	-1.000000	-1.000000	-1.000000	61.000000	0.000000	-1.000000	-1.000000	1505749.000000	1776579412.843063
25268.085000	10673.595000	41605.065000	68962.095000	47307.870000	29503.890000	-6880.095000	23354.055000	0.837497	3.728714	2.627894	-0.261524	4.686502	12.626862	2.120219	0.792617	26.796560	16.877560	2.807840	-0.867674	-0.104370	0.481383	-1.000000	-1.000000	-1.000000	-1.000000	-1.000000	-1.000000	-1.000000	61.000000	0.000000	-1.000000	-1.000000	1505750.000000	1776579412.846987
25271.280000	10674.720000	41610.285000	68969.385000	47305.935000	29501.460000	-6876.855000	23357.610000	4.049304	7.495508	7.010679	3.512348	3.060392	1.717721	-1.085410	1.432456	26.796560	16.877560	2.807840	-0.867674	-0.104370	0.481383	-1.000000	-1.000000	-1.000000	-1.000000	-1.000000	-1.000000	-1.000000	61.000000	0.000000	-1.000000	-1.000000	1505751.000000	1776579412.846999
25271.190000	10677.060000	41609.025000	68973.885000	47310.030000	29508.705000	-6873.165000	23357.070000	5.388106	7.982108	8.163216	5.341443	0.264988	-10.197611	-4.369459	1.168302	26.796560	16.877560	2.807840	-0.867674	-0.104370	0.481383	-1.000000	-1.000000	-1.000000	-1.000000	-1.000000	-1.000000	-1.000000	61.000000	0.000000	-1.000000	-1.000000	1505752.000000	1776579412.851023
25275.870000	10689.120000	41627.970000	68988.645000	47327.085000	29515.050000	-6869.250000	23361.840000	4.473726	5.682783	6.824749	5.874526	-1.171113	-15.375065	-5.414543	0.438521	26.796560	16.877560	2.807840	-0.867674	-0.104370	0.481383	-1.000000	-1.000000	-1.000000	-1.000000	-1.000000	-1.000000	-1.000000	61.000000	0.000000	-1.000000	-1.000000	1505753.000000	1776579412.851033
25275.105000	10692.765000	41639.940000	68995.980000	47337.750000	29528.055000	-6871.320000	23356.755000	2.141826	2.672180	5.021464	5.894619	0.228273	-11.619066	-3.894233	-0.280187	26.796560	16.877560	2.807840	-0.867674	-0.104370	0.481383	-1.000000	-1.000000	-1.000000	-1.000000	-1.000000	-1.000000	-1.000000	61.000000	0.000000	-1.000000	-1.000000	1505754.000000	1776579412.854913
25270.425000	10684.800000	41633.235000	68987.835000	47329.785000	29523.870000	-6869.340000	23353.560000	-0.580148	0.101580	3.634498	4.965305	3.162670	-2.474990	-1.271794	-1.002466	26.796560	16.877560	2.807840	-0.867674	-0.104370	0.481383	-1.000000	-1.000000	-1.000000	-1.000000	-1.000000	-1.000000	-1.000000	61.000000	0.000000	-1.000000	-1.000000	1505755.000000	1776579412.854922
25265.610000	10674.180000	41621.085000	68978.160000	47311.695000	29492.235000	-6875.145000	23349.825000	-3.110640	-2.645285	1.141662	1.674721	3.891433	5.304401	0.724882	-1.902300	7.614740	9.491720	-1.373400	-0.874326	-0.076233	0.477050	-1.000000	-1.000000	-1.000000	-1.000000	-1.000000	-1.000000	-1.000000	61.000000	0.000000	-1.000000	-1.000000	1505756.000000	1776579412.859082
25270.965000	10678.860000	41620.770000	68973.885000	47311.245000	29513.745000	-6868.980000	23354.820000	-4.809233	-5.849653	-3.728514	-4.061095	0.082547	6.760352	1.363059	-2.532429	7.614740	9.491720	-1.373400	-0.874326	-0.076233	0.477050	-1.000000	-1.000000	-1.000000	-1.000000	-1.000000	-1.000000	-1.000000	61.000000	0.000000	-1.000000	-1.000000	1505757.000000	1776579412.859105
25281.360000	10686.735000	41623.380000	68971.950000	47307.780000	29492.370000	-6874.020000	23361.345000	-4.528068	-7.685647	-9.002839	-9.611252	-5.982696	3.092462	1.086583	-1.908659	7.614740	9.491720	-1.373400	-0.874326	-0.076233	0.477050	-1.000000	-1.000000	-1.000000	-1.000000	-1.000000	-1.000000	-1.000000	61.000000	0.000000	-1.000000	-1.000000	1505758.000000	1776579412.862932
25281.045000	10688.085000	41627.520000	68977.215000	47307.780000	29469.645000	-6879.555000	23361.030000	-1.792877	-6.101533	-11.008622	-11.483829	-9.630488	-1.677716	0.499356	0.250031	7.614740	9.491720	-1.373400	-0.874326	-0.076233	0.477050	-1.000000	-1.000000	-1.000000	-1.000000	-1.000000	-1.000000	-1.000000	61.000000	0.000000	-1.000000	-1.000000	1505759.000000	1776579412.862960
25277.175000	10687.005000	41627.295000	68977.980000	47305.710000	29466.675000	-6883.830000	23357.295000	1.766904	-1.707026	-8.168324	-8.205716	-8.323559	-5.334913	-0.301616	2.615348	7.614740	9.491720	-1.373400	-0.874326	-0.076233	0.477050	-1.000000	-1.000000	-1.000000	-1.000000	-1.000000	-1.000000	-1.000000	61.000000	0.000000	-1.000000	-1.000000	1505760.000000	1776579412.866947
25276.950000	10684.620000	41625.450000	68979.330000	47319.030000	29515.095000	-6871.590000	23357.835000	3.583569	2.632551	-2.320538	-1.493661	-2.876994	-5.332614	-0.828491	3.368889	7.614740	9.491720	-1.373400	-0.874326	-0.076233	0.477050	-1.000000	-1.000000	-1.000000	-1.000000	-1.000000	-1.000000	-1.000000	61.000000	0.000000	-1.000000	-1.000000	1505761.000000	1776579412.866957
25255.620000	10660.095000	41604.255000	68967.855000	47333.475000	29562.255000	-6863.625000	23339.835000	2.366066	4.119742	2.798330	4.869493	4.325396	1.863129	0.106040	1.797845	7.614740	9.491720	-1.373400	-0.874326	-0.076233	0.477050	-1.000000	-1.000000	-1.000000	-1.000000	-1.000000	-1.000000	-1.000000	61.000000	0.000000	-1.000000	-1.000000	1505762.000000	1776579412.870920
25250.895000	10658.160000	41602.230000	68964.930000	47318.850000	29510.505000	-6877.440000	23334.120000	-1.353517	1.797445	4.276899	7.563146	10.170929	13.672304	2.368254	-1.554172	7.614740	9.491720	-1.373400	-0.874326	-0.076233	0.477050	-1.000000	-1.000000	-1.000000	-1.000000	-1.000000	-1.000000	-1.000000	61.000000	0.000000	-1.000000	-1.000000	1505763.000000	1776579412.870933
25254.135000	10663.785000	41607.810000	68968.665000	47317.860000	29503.935000	-6877.215000	23336.595000	-5.121490	-2.065012	2.661194	6.154499	11.181199	18.993528	3.618348	-4.799361	7.614740	9.491720	-1.373400	-0.874326	-0.076233	0.477050	-1.000000	-1.000000	-1.000000	-1.000000	-1.000000	-1.000000	-1.000000	61.000000	0.000000	-1.000000	-1.000000	1505764.000000	1776579412.874850
25263.585000	10676.745000	41619.330000	68974.470000	47319.030000	29503.710000	-6872.400000	23345.190000	-5.554765	-3.259802	1.387548	3.144758	6.443667	10.734818	2.378655	-5.205792	7.614740	9.491720	-1.373400	-0.874326	-0.076233	0.477050	-1.000000	-1.000000	-1.000000	-1.000000	-1.000000	-1.000000	-1.000000	61.000000	0.000000	-1.000000	-1.000000	1505765.000000	1776579412.874864
25262.685000	10675.980000	41617.890000	68972.355000	47314.215000	29502.180000	-6876.090000	23343.075000	-1.486441	0.032152	2.693886	1.125739	-0.908282	-5.080256	-0.082382	-1.724074	-8.438780	0.701960	-4.730600	-0.881101	-0.060364	0.477355	-1.000000	-1.000000	-1.000000	-1.000000	-1.000000	-1.000000	-1.000000	61.000000	0.000000	-1.000000	-1.000000	1505766.000000	1776579412.879028
25264.710000	10675.710000	41617.800000	68974.155000	47320.200000	29522.745000	-6867.180000	23348.205000	4.493807	5.180501	5.195327	0.529990	-6.632429	-16.860105	-1.808780	3.538895	-8.438780	0.701960	-4.730600	-0.881101	-0.060364	0.477355	-1.000000	-1.000000	-1.000000	-1.000000	-1.000000	-1.000000	-1.000000	61.000000	0.000000	-1.000000	-1.000000	1505767.000000	1776579412.879040
25262.145000	10672.290000	41614.245000	68971.320000	47321.955000	29541.105000	-6863.490000	23348.385000	8.386277	7.890161	5.912370	0.315400	-8.216731	-17.491368	-1.822515	7.275274	-8.438780	0.701960	-4.730600	-0.881101	-0.060364	0.477355	-1.000000	-1.000000	-1.000000	-1.000000	-1.000000	-1.000000	-1.000000	61.000000	0.000000	-1.000000	-1.000000	1505768.000000	1776579412.882941
25250.760000	10660.500000	41602.005000	68958.315000	47311.830000	29518.830000	-6877.260000	23337.630000	7.812778	5.950368	3.318875	-0.598965	-5.945978	-8.523980	-0.684649	7.364835	-8.438780	0.701960	-4.730600	-0.881101	-0.060364	0.477355	-1.000000	-1.000000	-1.000000	-1.000000	-1.000000	-1.000000	-1.000000	61.000000	0.000000	-1.000000	-1.000000	1505769.000000	1776579412.882957
25253.550000	10664.685000	41605.470000	68958.900000	47301.030000	29469.510000	-6887.160000	23336.730000	3.218629	0.493110	-1.599677	-2.517481	-2.547671	0.840563	-0.381323	3.665508	-8.438780	0.701960	-4.730600	-0.881101	-0.060364	0.477355	-1.000000	-1.000000	-1.000000	-1.000000	-1.000000	-1.000000	-1.000000	61.000000	0.000000	-1.000000	-1.000000	1505770.000000	1776579412.886952
25259.310000	10673.505000	41615.055000	68969.610000	47314.755000	29493.180000	-6877.620000	23342.625000	-2.310402	-4.778107	-5.742009	-4.095080	-0.263433	2.747216	-1.743550	-1.620672	-8.438780	0.701960	-4.730600	-0.881101	-0.060364	0.477355	-1.000000	-1.000000	-1.000000	-1.000000	-1.000000	-1.000000	-1.000000	61.000000	0.000000	-1.000000	-1.000000	1505771.000000	1776579412.886969
25259.220000	10671.570000	41612.895000	68968.710000	47315.745000	29495.925000	-6878.520000	23340.870000	-5.265076	-6.405738	-6.225210	-3.321041	1.358516	-0.471522	-2.863683	-5.180756	-8.438780	0.701960	-4.730600	-0.881101	-0.060364	0.477355	-1.000000	-1.000000	-1.000000	-1.000000	-1.000000	-1.000000	-1.000000	61.000000	0.000000	-1.000000	-1.000000	1505772.000000	1776579412.890865
25256.745000	10665.495000	41606.505000	68962.905000	47309.535000	29491.650000	-6880.365000	23337.900000	-4.713319	-4.351061	-3.386997	-0.378482	3.194103	-1.473246	-1.896740	-5.494594	-8.438780	0.701960	-4.730600	-0.881101	-0.060364	0.477355	-1.000000	-1.000000	-1.000000	-1.000000	-1.000000	-1.000000	-1.000000	61.000000	0.000000	-1.000000	-1.000000	1505773.000000	1776579412.890882
25261.380000	10668.555000	41609.610000	68965.785000	47313.315000	29504.295000	-6871.230000	23344.695000	-2.279401	-1.263924	-0.052491	2.348957	4.386681	2.088220	0.707535	-3.459294	-8.438780	0.701960	-4.730600	-0.881101	-0.060364	0.477355	-1.000000	-1.000000	-1.000000	-1.000000	-1.000000	-1.000000	-1.000000	61.000000	0.000000	-1.000000	-1.000000	1505774.000000	1776579412.894877
25264.260000	10669.410000	41610.285000	68963.130000	47304.225000	29486.610000	-6872.445000	23347.935000	0.223000	0.861219	1.843707	3.174967	3.864015	7.112413	3.438771	-0.519421	-8.438780	0.701960	-4.730600	-0.881101	-0.060364	0.477355	-1.000000	-1.000000	-1.000000	-1.000000	-1.000000	-1.000000	-1.000000	61.000000	0.000000	-1.000000	-1.000000	1505775.000000	1776579412.894888
25260.570000	10666.755000	41604.885000	68954.760000	47295.810000	29477.385000	-6874.560000	23345.100000	1.791052	1.713460	2.170986	2.087652	1.554725	9.139300	4.819998	2.085715	-16.892820	-5.676720	-5.508860	-0.881467	-0.062744	0.481505	-1.000000	-1.000000	-1.000000	-1.000000	-1.000000	-1.000000	-1.000000	61.000000	0.000000	-1.000000	-1.000000	1505776.000000	1776579412.898892
25262.640000	10670.310000	41608.260000	68959.485000	47302.470000	29487.195000	-6872.220000	23346.270000	1.926369	1.631796	1.435476	-0.040066	-1.523054	6.321174	3.953632	3.171436	-16.892820	-5.676720	-5.508860	-0.881467	-0.062744	0.481505	-1.000000	-1.000000	-1.000000	-1.000000	-1.000000	-1.000000	-1.000000	61.000000	0.000000	-1.000000	-1.000000	1505777.000000	1776579412.898914
25269.435000	10678.725000	41618.835000	68972.445000	47316.735000	29501.055000	-6864.480000	23351.805000	0.978268	1.285187	0.601940	-1.498601	-3.090522	1.568969	1.517180	2.469970	-16.892820	-5.676720	-5.508860	-0.881467	-0.062744	0.481505	-1.000000	-1.000000	-1.000000	-1.000000	-1.000000	-1.000000	-1.000000	61.000000	0.000000	-1.000000	-1.000000	1505778.000000	1776579412.903011
25269.255000	10678.725000	41619.870000	68974.020000	47319.165000	29500.920000	-6866.955000	23349.465000	0.030791	1.342836	0.723162	-0.753535	-1.449469	-1.045732	-0.812380	0.906393	-16.892820	-5.676720	-5.508860	-0.881467	-0.062744	0.481505	-1.000000	-1.000000	-1.000000	-1.000000	-1.000000	-1.000000	-1.000000	61.000000	0.000000	-1.000000	-1.000000	1505779.000000	1776579412.903030
25265.070000	10674.180000	41615.370000	68970.510000	47316.465000	29497.320000	-6873.030000	23344.785000	-0.463795	1.465725	1.461263	1.441510	2.033970	-1.034575	-2.292560	-0.695463	-16.892820	-5.676720	-5.508860	-0.881467	-0.062744	0.481505	-1.000000	-1.000000	-1.000000	-1.000000	-1.000000	-1.000000	-1.000000	61.000000	0.000000	-1.000000	-1.000000	1505780.000000	1776579412.907005
25265.790000	10674.495000	41614.695000	68968.170000	47312.145000	29497.545000	-6874.065000	23343.435000	-0.960980	0.669172	1.311323	2.576021	3.984892	-0.774106	-3.323050	-2.145579	-16.892820	-5.676720	-5.508860	-0.881467	-0.062744	0.481505	-1.000000	-1.000000	-1.000000	-1.000000	-1.000000	-1.000000	-1.000000	61.000000	0.000000	-1.000000	-1.000000	1505781.000000	1776579412.907023
25264.530000	10672.830000	41612.580000	68966.010000	47315.430000	29512.395000	-6871.455000	23341.635000	-1.622619	-1.100286	-0.325224	1.264691	2.609414	-1.516973	-3.898026	-3.129355	-16.892820	-5.676720	-5.508860	-0.881467	-0.062744	0.481505	-1.000000	-1.000000	-1.000000	-1.000000	-1.000000	-1.000000	-1.000000	61.000000	0.000000	-1.000000	-1.000000	1505782.000000	1776579412.911057
25260.525000	10669.095000	41608.935000	68961.105000	47320.830000	29530.260000	-6871.005000	23337.630000	-2.049280	-2.838217	-2.514819	-1.618175	-0.695014	-1.933893	-3.313003	-3.153235	-16.892820	-5.676720	-5.508860	-0.881467	-0.062744	0.481505	-1.000000	-1.000000	-1.000000	-1.000000	-1.000000	-1.000000	-1.000000	61.000000	0.000000	-1.000000	-1.000000	1505783.000000	1776579412.911068
25262.415000	10673.730000	41613.885000	68965.425000	47306.970000	29493.540000	-6878.340000	23336.955000	-1.910699	-3.511036	-3.830456	-4.086295	-3.483150	-1.370302	-1.542416	-2.146861	-16.892820	-5.676720	-5.508860	-0.881467	-0.062744	0.481505	-1.000000	-1.000000	-1.000000	-1.000000	-1.000000	-1.000000	-1.000000	61.000000	0.000000	-1.000000	-1.000000	1505784.000000	1776579412.919574
25267.500000	10684.755000	41628.465000	68982.435000	47315.835000	29467.305000	-6874.470000	23342.535000	-0.970456	-2.389592	-3.032131	-4.159712	-4.702293	-2.580785	0.402473	-0.350321	-16.892820	-5.676720	-5.508860	-0.881467	-0.062744	0.481505	-1.000000	-1.000000	-1.000000	-1.000000	-1.000000	-1.000000	-1.000000	61.000000	0.000000	-1.000000	-1.000000	1505785.000000	1776579412.919591
25262.955000	10676.925000	41619.870000	68971.680000	47309.490000	29469.060000	-6873.660000	23340.015000	0.697607	0.331914	-0.068152	-1.311018	-4.271115	-7.201166	1.792038	1.865909	-18.540900	-8.850800	-3.219860	-0.872739	-0.079101	0.486083	-1.000000	-1.000000	-1.000000	-1.000000	-1.000000	-1.000000	-1.000000	61.000000	0.000000	-1.000000	-1.000000	1505786.000000	1776579412.919640
25262.910000	10677.780000	41619.960000	68972.715000	47314.935000	29480.175000	-6873.255000	23340.285000	2.196429	2.838763	2.948929	2.232416	-2.389682	-10.928170	2.626489	3.642932	-18.540900	-8.850800	-3.219860	-0.872739	-0.079101	0.486083	-1.000000	-1.000000	-1.000000	-1.000000	-1.000000	-1.000000	-1.000000	61.000000	0.000000	-1.000000	-1.000000	1505787.000000	1776579412.919646
25273.485000	10686.465000	41625.855000	68975.280000	47313.810000	29484.360000	-6868.440000	23351.175000	2.754378	3.477092	3.760849	3.685623	0.217534	-8.130491	2.966174	4.224567	-18.540900	-8.850800	-3.219860	-0.872739	-0.079101	0.486083	-1.000000	-1.000000	-1.000000	-1.000000	-1.000000	-1.000000	-1.000000	61.000000	0.000000	-1.000000	-1.000000	1505788.000000	1776579412.923174
25266.465000	10677.060000	41613.975000	68959.845000	47298.780000	29481.750000	-6872.670000	23344.020000	2.554694	2.413279	2.237038	2.412376	2.251028	0.964021	2.718855	3.667654	-18.540900	-8.850800	-3.219860	-0.872739	-0.079101	0.486083	-1.000000	-1.000000	-1.000000	-1.000000	-1.000000	-1.000000	-1.000000	61.000000	0.000000	-1.000000	-1.000000	1505789.000000	1776579412.923190
25264.305000	10671.795000	41605.245000	68958.225000	47302.200000	29492.010000	-6867.315000	23344.380000	1.665659	0.321616	-0.693720	-0.659324	2.450315	10.722120	1.788028	2.079988	-18.540900	-8.850800	-3.219860	-0.872739	-0.079101	0.486083	-1.000000	-1.000000	-1.000000	-1.000000	-1.000000	-1.000000	-1.000000	61.000000	0.000000	-1.000000	-1.000000	1505790.000000	1776579412.927139
25269.930000	10673.415000	41606.595000	68967.450000	47313.675000	29507.535000	-6859.485000	23350.905000	0.034236	-2.180708	-3.820782	-3.537594	1.396534	16.064964	0.569528	-0.266187	-18.540900	-8.850800	-3.219860	-0.872739	-0.079101	0.486083	-1.000000	-1.000000	-1.000000	-1.000000	-1.000000	-1.000000	-1.000000	61.000000	0.000000	-1.000000	-1.000000	1505791.000000	1776579412.927159
25266.960000	10673.370000	41612.445000	68969.970000	47315.430000	29514.330000	-6859.305000	23346.630000	-1.533340	-3.765221	-5.139244	-3.757487	1.182292	15.677731	-0.184118	-2.307870	-18.540900	-8.850800	-3.219860	-0.872739	-0.079101	0.486083	-1.000000	-1.000000	-1.000000	-1.000000	-1.000000	-1.000000	-1.000000	61.000000	0.000000	-1.000000	-1.000000	1505792.000000	1776579412.931244
25267.275000	10681.560000	41627.700000	68974.380000	47318.175000	29512.305000	-6859.755000	23343.795000	-2.215777	-3.177830	-2.970585	-0.824951	2.380527	10.482881	-0.487985	-3.339147	-18.540900	-8.850800	-3.219860	-0.872739	-0.079101	0.486083	-1.000000	-1.000000	-1.000000	-1.000000	-1.000000	-1.000000	-1.000000	61.000000	0.000000	-1.000000	-1.000000	1505793.000000	1776579412.931262
25272.900000	10692.720000	41638.635000	68986.170000	47329.020000	29507.985000	-6860.205000	23350.455000	-1.912130	-0.316821	2.276275	3.309245	3.631908	2.015710	-1.034357	-3.413608	-18.540900	-8.850800	-3.219860	-0.872739	-0.079101	0.486083	-1.000000	-1.000000	-1.000000	-1.000000	-1.000000	-1.000000	-1.000000	61.000000	0.000000	-1.000000	-1.000000	1505794.000000	1776579412.935018
25268.670000	10688.985000	41634.720000	68985.945000	47326.230000	29501.910000	-6869.430000	23345.010000	-0.885367	3.440715	7.635460	6.248144	3.668154	-7.352250	-2.177477	-2.566283	-18.540900	-8.850800	-3.219860	-0.872739	-0.079101	0.486083	-1.000000	-1.000000	-1.000000	-1.000000	-1.000000	-1.000000	-1.000000	61.000000	0.000000	-1.000000	-1.000000	1505795.000000	1776579412.935030
25270.335000	10688.445000	41632.515000	68984.325000	47326.545000	29498.445000	-6871.095000	23345.055000	0.212727	5.569488	9.193608	6.287359	1.957754	-14.474359	-3.638368	-1.151863	-13.871340	-9.247560	-3.723440	-0.861936	-0.096924	0.490538	-1.000000	-1.000000	-1.000000	-1.000000	-1.000000	-1.000000	-1.000000	61.000000	0.000000	-1.000000	-1.000000	1505796.000000	1776579412.939065
25277.895000	10692.270000	41632.020000	68974.155000	47312.640000	29497.905000	-6865.740000	23352.570000	0.872492	4.447941	5.393871	2.872968	-1.444054	-16.682333	-4.377135	0.250960	-13.871340	-9.247560	-3.723440	-0.861936	-0.096924	0.490538	-1.000000	-1.000000	-1.000000	-1.000000	-1.000000	-1.000000	-1.000000	61.000000	0.000000	-1.000000	-1.000000	1505797.000000	1776579412.939078
25277.355000	10689.930000	41634.945000	68973.435000	47298.060000	29471.895000	-6873.525000	23351.535000	1.263639	0.958210	-1.402266	-2.721399	-5.815449	-13.661878	-3.293179	1.530795	-13.871340	-9.247560	-3.723440	-0.861936	-0.096924	0.490538	-1.000000	-1.000000	-1.000000	-1.000000	-1.000000	-1.000000	-1.000000	61.000000	0.000000	-1.000000	-1.000000	1505798.000000	1776579412.944304
25270.245000	10680.615000	41629.680000	68977.755000	47303.460000	29469.465000	-6878.250000	23343.795000	1.291021	-2.913114	-7.174078	-7.495152	-9.384262	-7.832502	-0.821402	2.320019	-13.871340	-9.247560	-3.723440	-0.861936	-0.096924	0.490538	-1.000000	-1.000000	-1.000000	-1.000000	-1.000000	-1.000000	-1.000000	61.000000	0.000000	-1.000000	-1.000000	1505799.000000	1776579412.944330
25258.230000	10667.070000	41608.665000	68966.820000	47311.875000	29490.930000	-6875.505000	23333.220000	0.155677	-5.985953	-9.788906	-8.753069	-9.337513	-1.173195	1.549039	1.625988	-13.871340	-9.247560	-3.723440	-0.861936	-0.096924	0.490538	-1.000000	-1.000000	-1.000000	-1.000000	-1.000000	-1.000000	-1.000000	61.000000	0.000000	-1.000000	-1.000000	1505800.000000	1776579412.947068
25253.370000	10663.380000	41592.420000	68946.030000	47307.555000	29515.230000	-6870.330000	23329.440000	-2.309276	-7.682177	-9.931949	-6.772574	-4.369300	6.723023	3.212632	-0.731681	-13.871340	-9.247560	-3.723440	-0.861936	-0.096924	0.490538	-1.000000	-1.000000	-1.000000	-1.000000	-1.000000	-1.000000	-1.000000	61.000000	0.000000	-1.000000	-1.000000	1505801.000000	1776579412.947082
25266.825000	10677.645000	41608.485000	68953.950000	47300.805000	29510.010000	-6868.530000	23341.095000	-4.348668	-6.827956	-8.238891	-3.782208	2.859422	15.037136	4.402440	-2.959649	-13.871340	-9.247560	-3.723440	-0.861936	-0.096924	0.490538	-1.000000	-1.000000	-1.000000	-1.000000	-1.000000	-1.000000	-1.000000	61.000000	0.000000	-1.000000	-1.000000	1505802.000000	1776579412.951097
25270.110000	10683.630000	41622.975000	68963.040000	47306.475000	29503.710000	-6870.465000	23345.145000	-3.422086	-2.264321	-3.315226	-0.338430	8.018221	19.152474	4.884130	-2.568187	-13.871340	-9.247560	-3.723440	-0.861936	-0.096924	0.490538	-1.000000	-1.000000	-1.000000	-1.000000	-1.000000	-1.000000	-1.000000	61.000000	0.000000	-1.000000	-1.000000	1505803.000000	1776579412.951106
25263.720000	10671.840000	41611.095000	68956.695000	47312.280000	29519.235000	-6872.220000	23342.085000	0.533676	4.469334	4.845936	4.106514	9.272808	15.306389	3.935429	0.658689	-13.871340	-9.247560	-3.723440	-0.861936	-0.096924	0.490538	-1.000000	-1.000000	-1.000000	-1.000000	-1.000000	-1.000000	-1.000000	61.000000	0.000000	-1.000000	-1.000000	1505804.000000	1776579412.954992
25262.235000	10669.005000	41608.125000	68954.310000	47303.010000	29498.805000	-6874.695000	23339.880000	4.424929	9.050666	11.939194	8.078431	7.438224	5.207148	1.431219	4.027873	-13.871340	-9.247560	-3.723440	-0.861936	-0.096924	0.490538	-1.000000	-1.000000	-1.000000	-1.000000	-1.000000	-1.000000	-1.000000	61.000000	0.000000	-1.000000	-1.000000	1505805.000000	1776579412.955002
25266.420000	10672.920000	41613.390000	68959.845000	47296.485000	29473.245000	-6873.435000	23342.940000	5.533703	8.705785	13.475278	9.221020	3.551332	-6.795136	-1.635442	4.923499	-7.675780	-9.766400	-6.989080	-0.857786	-0.110046	0.493529	-1.000000	-1.000000	-1.000000	-1.000000	-1.000000	-1.000000	-1.000000	61.000000	0.000000	-1.000000	-1.000000	1505806.000000	1776579412.959084
25270.695000	10675.980000	41612.040000	68964.795000	47303.685000	29496.645000	-6860.790000	23348.655000	4.042842	4.835407	9.450229	7.306961	-1.173772	-16.381043	-3.545610	3.294649	-7.675780	-9.766400	-6.989080	-0.857786	-0.110046	0.493529	-1.000000	-1.000000	-1.000000	-1.000000	-1.000000	-1.000000	-1.000000	61.000000	0.000000	-1.000000	-1.000000	1505807.000000	1776579412.959094
25270.470000	10675.395000	41607.855000	68962.050000	47304.810000	29512.215000	-6863.895000	23346.045000	1.699093	0.592650	2.922542	3.825708	-4.509261	-18.449698	-3.105470	0.795362	-7.675780	-9.766400	-6.989080	-0.857786	-0.110046	0.493529	-1.000000	-1.000000	-1.000000	-1.000000	-1.000000	-1.000000	-1.000000	61.000000	0.000000	-1.000000	-1.000000	1505808.000000	1776579412.963081
25266.285000	10677.555000	41618.070000	68958.045000	47302.110000	29495.520000	-6878.475000	23338.845000	-0.418043	-2.139599	-2.977254	-0.053174	-4.949334	-11.186135	-1.356901	-1.477866	-7.675780	-9.766400	-6.989080	-0.857786	-0.110046	0.493529	-1.000000	-1.000000	-1.000000	-1.000000	-1.000000	-1.000000	-1.000000	61.000000	0.000000	-1.000000	-1.000000	1505809.000000	1776579412.963091
25267.725000	10682.370000	41624.055000	68960.565000	47304.135000	29493.180000	-6878.565000	23340.195000	-2.159867	-3.049942	-5.928762	-3.634802	-3.197952	-0.065821	-0.709914	-3.356781	-7.675780	-9.766400	-6.989080	-0.857786	-0.110046	0.493529	-1.000000	-1.000000	-1.000000	-1.000000	-1.000000	-1.000000	-1.000000	61.000000	0.000000	-1.000000	-1.000000	1505810.000000	1776579412.967346
25269.705000	10684.035000	41625.630000	68968.620000	47315.025000	29504.295000	-6876.990000	23341.410000	-3.263048	-2.549540	-5.336590	-5.775504	-0.712300	7.813287	-1.631378	-4.362644	-7.675780	-9.766400	-6.989080	-0.857786	-0.110046	0.493529	-1.000000	-1.000000	-1.000000	-1.000000	-1.000000	-1.000000	-1.000000	61.000000	0.000000	-1.000000	-1.000000	1505811.000000	1776579412.967359
25265.070000	10678.365000	41622.705000	68973.570000	47329.470000	29522.880000	-6873.255000	23338.530000	-3.309324	-1.568724	-2.929677	-5.354012	1.914862	10.597800	-2.213023	-3.814183	-7.675780	-9.766400	-6.989080	-0.857786	-0.110046	0.493529	-1.000000	-1.000000	-1.000000	-1.000000	-1.000000	-1.000000	-1.000000	61.000000	0.000000	-1.000000	-1.000000	1505812.000000	1776579412.974552
25271.730000	10684.755000	41625.270000	68969.655000	47318.265000	29519.460000	-6863.220000	23346.855000	-2.364282	-1.084819	-1.089897	-2.826291	4.050227	10.157895	-0.823954	-1.798955	-7.675780	-9.766400	-6.989080	-0.857786	-0.110046	0.493529	-1.000000	-1.000000	-1.000000	-1.000000	-1.000000	-1.000000	-1.000000	61.000000	0.000000	-1.000000	-1.000000	1505813.000000	1776579412.974579
25275.105000	10687.995000	41628.690000	68967.675000	47309.445000	29510.280000	-6865.740000	23349.420000	-0.706871	-1.052726	-0.663237	-0.283291	3.832700	7.348144	2.175562	0.987799	-7.675780	-9.766400	-6.989080	-0.857786	-0.110046	0.493529	-1.000000	-1.000000	-1.000000	-1.000000	-1.000000	-1.000000	-1.000000	61.000000	0.000000	-1.000000	-1.000000	1505814.000000	1776579412.974980
25270.965000	10683.135000	41623.695000	68964.210000	47304.855000	29501.280000	-6872.535000	23345.055000	1.164665	-0.861209	-1.012453	0.531334	0.163792	1.782656	4.549488	3.401767	-7.675780	-9.766400	-6.989080	-0.857786	-0.110046	0.493529	-1.000000	-1.000000	-1.000000	-1.000000	-1.000000	-1.000000	-1.000000	61.000000	0.000000	-1.000000	-1.000000	1505815.000000	1776579412.974986
25275.780000	10687.500000	41626.755000	68965.920000	47308.410000	29506.500000	-6867.225000	23349.780000	2.297791	-0.524606	-1.417875	-0.275099	-4.860517	-5.126016	4.234656	4.121837	0.061040	-14.115500	-9.674840	-0.861875	-0.116760	0.496703	-1.000000	-1.000000	-1.000000	-1.000000	-1.000000	-1.000000	-1.000000	61.000000	0.000000	-1.000000	-1.000000	1505816.000000	1776579412.979082
25271.370000	10683.540000	41624.325000	68967.135000	47308.680000	29502.630000	-6870.555000	23346.135000	2.128097	-0.323274	-1.474563	-1.246144	-7.511447	-9.847046	1.563027	2.845975	0.061040	-14.115500	-9.674840	-0.861875	-0.116760	0.496703	-1.000000	-1.000000	-1.000000	-1.000000	-1.000000	-1.000000	-1.000000	61.000000	0.000000	-1.000000	-1.000000	1505817.000000	1776579412.979089
25273.620000	10686.465000	41627.610000	68972.985000	47312.550000	29505.240000	-6866.595000	23349.195000	0.942235	-0.250162	-0.946548	-1.041427	-5.909297	-9.873717	-1.438679	0.510562	0.061040	-14.115500	-9.674840	-0.861875	-0.116760	0.496703	-1.000000	-1.000000	-1.000000	-1.000000	-1.000000	-1.000000	-1.000000	61.000000	0.000000	-1.000000	-1.000000	1505818.000000	1776579412.983174
25270.245000	10682.370000	41622.435000	68965.110000	47309.355000	29500.515000	-6875.955000	23343.255000	-0.545730	-0.194864	0.018682	0.367265	-1.298793	-5.776711	-3.248786	-1.695510	0.061040	-14.115500	-9.674840	-0.861875	-0.116760	0.496703	-1.000000	-1.000000	-1.000000	-1.000000	-1.000000	-1.000000	-1.000000	61.000000	0.000000	-1.000000	-1.000000	1505819.000000	1776579412.983186
25271.595000	10685.115000	41625.540000	68968.260000	47314.980000	29499.255000	-6879.690000	23343.885000	-1.615071	-0.079805	0.927375	1.728583	3.450467	-0.261880	-3.759373	-3.040218	0.061040	-14.115500	-9.674840	-0.861875	-0.116760	0.496703	-1.000000	-1.000000	-1.000000	-1.000000	-1.000000	-1.000000	-1.000000	61.000000	0.000000	-1.000000	-1.000000	1505820.000000	1776579412.987059
25269.840000	10683.855000	41625.270000	68970.330000	47318.040000	29504.430000	-6874.920000	23344.605000	-1.853783	0.166797	1.466475	2.090149	6.187619	4.092778	-3.339792	-3.211056	0.061040	-14.115500	-9.674840	-0.861875	-0.116760	0.496703	-1.000000	-1.000000	-1.000000	-1.000000	-1.000000	-1.000000	-1.000000	61.000000	0.000000	-1.000000	-1.000000	1505821.000000	1776579412.987070
25273.305000	10687.770000	41627.385000	68967.630000	47312.595000	29509.020000	-6870.420000	23347.305000	-1.231949	0.606021	1.704798	1.630538	6.258150	6.355153	-1.767940	-2.108765	0.061040	-14.115500	-9.674840	-0.861875	-0.116760	0.496703	-1.000000	-1.000000	-1.000000	-1.000000	-1.000000	-1.000000	-1.000000	61.000000	0.000000	-1.000000	-1.000000	1505822.000000	1776579412.991306
25276.725000	10692.495000	41633.010000	68972.400000	47313.135000	29500.380000	-6870.645000	23350.230000	0.038335	1.250386	1.823650	0.862384	3.916424	6.562622	0.929716	-0.065874	0.061040	-14.115500	-9.674840	-0.861875	-0.116760	0.496703	-1.000000	-1.000000	-1.000000	-1.000000	-1.000000	-1.000000	-1.000000	61.000000	0.000000	-1.000000	-1.000000	1505823.000000	1776579412.991313
25281.585000	10695.285000	41636.880000	68977.080000	47317.860000	29508.930000	-6868.530000	23354.505000	1.577587	1.972652	1.966309	0.293596	0.394117	4.808660	3.539900	2.112987	0.061040	-14.115500	-9.674840	-0.861875	-0.116760	0.496703	-1.000000	-1.000000	-1.000000	-1.000000	-1.000000	-1.000000	-1.000000	61.000000	0.000000	-1.000000	-1.000000	1505824.000000	1776579412.995214
25287.435000	10699.965000	41641.065000	68981.805000	47323.665000	29516.445000	-6862.725000	23360.130000	2.851951	2.384458	2.039650	0.338557	-2.285565	2.065804	4.709164	3.595676	0.061040	-14.115500	-9.674840	-0.861875	-0.116760	0.496703	-1.000000	-1.000000	-1.000000	-1.000000	-1.000000	-1.000000	-1.000000	61.000000	0.000000	-1.000000	-1.000000	1505825.000000	1776579412.995230
25282.080000	10693.935000	41634.180000	68976.045000	47321.460000	29508.930000	-6865.785000	23355.720000	3.170416	1.933759	1.519818	0.663687	-2.922192	-0.215327	4.065794	3.761825	7.950460	-16.282420	-8.728720	-0.862669	-0.119018	0.499449	-1.000000	-1.000000	-1.000000	-1.000000	-1.000000	-1.000000	-1.000000	61.000000	0.000000	-1.000000	-1.000000	1505826.000000	1776579412.999092
25286.220000	10699.020000	41638.545000	68978.205000	47311.065000	29478.600000	-6866.865000	23358.960000	1.968335	0.359134	-0.058499	0.342702	-2.319192	-2.383568	1.919101	2.306138	7.950460	-16.282420	-8.728720	-0.862669	-0.119018	0.499449	-1.000000	-1.000000	-1.000000	-1.000000	-1.000000	-1.000000	-1.000000	61.000000	0.000000	-1.000000	-1.000000	1505827.000000	1776579412.999104
25286.085000	10698.120000	41638.680000	68980.410000	47313.675000	29488.005000	-6870.330000	23356.845000	-0.375410	-1.706249	-2.150972	-0.819444	-2.058796	-5.532205	-1.055634	-0.276470	7.950460	-16.282420	-8.728720	-0.862669	-0.119018	0.499449	-1.000000	-1.000000	-1.000000	-1.000000	-1.000000	-1.000000	-1.000000	61.000000	0.000000	-1.000000	-1.000000	1505828.000000	1776579413.003155
25279.245000	10690.920000	41632.380000	68975.820000	47320.380000	29518.560000	-6868.755000	23350.275000	-2.721849	-3.258113	-3.614811	-2.017393	-2.180415	-7.401091	-3.703316	-2.890987	7.950460	-16.282420	-8.728720	-0.862669	-0.119018	0.499449	-1.000000	-1.000000	-1.000000	-1.000000	-1.000000	-1.000000	-1.000000	61.000000	0.000000	-1.000000	-1.000000	1505829.000000	1776579413.003168
25270.380000	10681.515000	41622.660000	68966.145000	47313.810000	29518.470000	-6871.005000	23342.895000	-4.416111	-4.090749	-4.146205	-2.779911	-1.539710	-4.113918	-4.832169	-4.773871	7.950460	-16.282420	-8.728720	-0.862669	-0.119018	0.499449	-1.000000	-1.000000	-1.000000	-1.000000	-1.000000	-1.000000	-1.000000	61.000000	0.000000	-1.000000	-1.000000	1505830.000000	1776579413.007074
25271.955000	10683.495000	41624.055000	68964.885000	47309.265000	29503.710000	-6874.560000	23345.775000	-5.189229	-4.309864	-4.024393	-3.236026	-0.176327	2.928677	-4.104997	-5.407014	7.950460	-16.282420	-8.728720	-0.862669	-0.119018	0.499449	-1.000000	-1.000000	-1.000000	-1.000000	-1.000000	-1.000000	-1.000000	61.000000	0.000000	-1.000000	-1.000000	1505831.000000	1776579413.007084
25274.700000	10685.295000	41625.810000	68966.505000	47303.235000	29488.365000	-6880.005000	23346.630000	-4.329045	-3.310256	-2.908132	-3.023698	0.698858	7.246730	-2.298662	-4.114953	7.950460	-16.282420	-8.728720	-0.862669	-0.119018	0.499449	-1.000000	-1.000000	-1.000000	-1.000000	-1.000000	-1.000000	-1.000000	61.000000	0.000000	-1.000000	-1.000000	1505832.000000	1776579413.011079
25280.505000	10694.385000	41636.160000	68976.450000	47307.420000	29485.710000	-6882.165000	23349.735000	-1.318947	-0.447269	-0.178690	-1.255337	0.663526	4.996675	-0.487967	-0.846003	7.950460	-16.282420	-8.728720	-0.862669	-0.119018	0.499449	-1.000000	-1.000000	-1.000000	-1.000000	-1.000000	-1.000000	-1.000000	61.000000	0.000000	-1.000000	-1.000000	1505833.000000	1776579413.011094
25289.010000	10704.735000	41646.285000	68984.145000	47308.230000	29473.245000	-6882.345000	23357.925000	3.085114	3.808828	3.896405	2.253173	0.588029	-1.362588	0.875616	3.266611	7.950460	-16.282420	-8.728720	-0.862669	-0.119018	0.499449	-1.000000	-1.000000	-1.000000	-1.000000	-1.000000	-1.000000	-1.000000	61.000000	0.000000	-1.000000	-1.000000	1505834.000000	1776579413.015141
25281.495000	10698.480000	41640.075000	68981.535000	47311.245000	29486.115000	-6884.955000	23349.825000	6.824455	7.554933	7.548446	6.004037	1.293782	-6.439970	1.910920	6.387057	7.950460	-16.282420	-8.728720	-0.862669	-0.119018	0.499449	-1.000000	-1.000000	-1.000000	-1.000000	-1.000000	-1.000000	-1.000000	61.000000	0.000000	-1.000000	-1.000000	1505835.000000	1776579413.015165
25274.205000	10687.905000	41631.300000	68979.465000	47322.990000	29519.730000	-6879.555000	23346.720000	7.427321	8.055883	8.036346	7.413118	2.690198	-5.785034	2.758216	6.684245	9.568020	-15.641500	-5.432560	-0.854856	-0.117309	0.504943	-1.000000	-1.000000	-1.000000	-1.000000	-1.000000	-1.000000	-1.000000	61.000000	0.000000	-1.000000	-1.000000	1505836.000000	1776579413.019117
25272.990000	10685.880000	41629.635000	68978.970000	47326.905000	29517.345000	-6879.690000	23345.955000	4.038569	4.046786	4.093382	5.101908	4.148892	1.255893	3.411169	3.745082	9.568020	-15.641500	-5.432560	-0.854856	-0.117309	0.504943	-1.000000	-1.000000	-1.000000	-1.000000	-1.000000	-1.000000	-1.000000	61.000000	0.000000	-1.000000	-1.000000	1505837.000000	1776579413.019137
25277.310000	10691.145000	41631.345000	68972.085000	47321.280000	29523.510000	-6863.265000	23350.410000	-1.162657	-2.186466	-2.107859	0.217779	4.526504	9.693404	3.870520	-0.514887	9.568020	-15.641500	-5.432560	-0.854856	-0.117309	0.504943	-1.000000	-1.000000	-1.000000	-1.000000	-1.000000	-1.000000	-1.000000	61.000000	0.000000	-1.000000	-1.000000	1505838.000000	1776579413.023098
25268.400000	10679.985000	41614.605000	68959.935000	47303.910000	29517.795000	-6861.420000	23343.345000	-4.877057	-6.689555	-6.954139	-4.916434	2.297912	12.724436	4.161102	-3.543779	9.568020	-15.641500	-5.432560	-0.854856	-0.117309	0.504943	-1.000000	-1.000000	-1.000000	-1.000000	-1.000000	-1.000000	-1.000000	61.000000	0.000000	-1.000000	-1.000000	1505839.000000	1776579413.023113
25275.105000	10685.745000	41616.720000	68963.940000	47299.545000	29506.455000	-6864.480000	23350.365000	-5.562021	-7.459218	-8.594368	-8.230639	-2.757713	7.716104	3.677279	-4.258668	9.568020	-15.641500	-5.432560	-0.854856	-0.117309	0.504943	-1.000000	-1.000000	-1.000000	-1.000000	-1.000000	-1.000000	-1.000000	61.000000	0.000000	-1.000000	-1.000000	1505840.000000	1776579413.027129
25271.145000	10682.730000	41620.770000	68965.380000	47307.465000	29509.335000	-6872.895000	23345.460000	-3.660189	-4.966759	-6.839406	-8.079334	-7.907657	-2.409223	1.233447	-3.043974	9.568020	-15.641500	-5.432560	-0.854856	-0.117309	0.504943	-1.000000	-1.000000	-1.000000	-1.000000	-1.000000	-1.000000	-1.000000	61.000000	0.000000	-1.000000	-1.000000	1505841.000000	1776579413.027139
25277.625000	10692.720000	41640.840000	68969.970000	47306.745000	29501.955000	-6875.910000	23350.050000	-0.504120	-0.714496	-1.899713	-4.105842	-9.187519	-11.674197	-3.194227	-0.948323	9.568020	-15.641500	-5.432560	-0.854856	-0.117309	0.504943	-1.000000	-1.000000	-1.000000	-1.000000	-1.000000	-1.000000	-1.000000	61.000000	0.000000	-1.000000	-1.000000	1505842.000000	1776579413.031155
25286.130000	10700.145000	41644.350000	68977.530000	47310.930000	29502.405000	-6866.595000	23360.940000	2.588987	3.699085	4.934479	1.965172	-5.380215	-15.253699	-7.357968	1.149562	9.568020	-15.641500	-5.432560	-0.854856	-0.117309	0.504943	-1.000000	-1.000000	-1.000000	-1.000000	-1.000000	-1.000000	-1.000000	61.000000	0.000000	-1.000000	-1.000000	1505843.000000	1776579413.031164
25285.770000	10701.630000	41645.205000	68982.435000	47315.745000	29506.095000	-6864.750000	23360.445000	4.720791	6.807063	10.425363	7.350592	1.094376	-12.093667	-8.268480	2.901273	9.568020	-15.641500	-5.432560	-0.854856	-0.117309	0.504943	-1.000000	-1.000000	-1.000000	-1.000000	-1.000000	-1.000000	-1.000000	61.000000	0.000000	-1.000000	-1.000000	1505844.000000	1776579413.035167
25284.015000	10699.920000	41640.210000	68977.035000	47316.375000	29504.655000	-6868.530000	23357.520000	4.992579	7.206867	11.023264	9.570166	6.660444	-4.416280	-5.244091	3.605455	9.568020	-15.641500	-5.432560	-0.854856	-0.117309	0.504943	-1.000000	-1.000000	-1.000000	-1.000000	-1.000000	-1.000000	-1.000000	61.000000	0.000000	-1.000000	-1.000000	1505845.000000	1776579413.035187
25279.470000	10693.350000	41633.595000	68971.905000	47312.685000	29491.830000	-6876.180000	23353.155000	2.830401	4.267068	5.838430	7.350895	8.688904	3.624861	-0.752484	2.301595	4.547480	-11.857020	-3.570840	-0.842039	-0.115600	0.514342	-1.000000	-1.000000	-1.000000	-1.000000	-1.000000	-1.000000	-1.000000	61.000000	0.000000	-1.000000	-1.000000	1505846.000000	1776579413.039217
25285.410000	10700.235000	41643.720000	68980.050000	47315.835000	29496.105000	-6868.080000	23362.020000	-0.887718	-0.794572	-2.247015	1.803147	6.586606	8.203526	2.391560	-0.579453	4.547480	-11.857020	-3.570840	-0.842039	-0.115600	0.514342	-1.000000	-1.000000	-1.000000	-1.000000	-1.000000	-1.000000	-1.000000	61.000000	0.000000	-1.000000	-1.000000	1505847.000000	1776579413.039233
25287.030000	10700.820000	41646.600000	68980.365000	47312.460000	29497.950000	-6863.805000	23363.820000	-3.963072	-5.163969	-8.378009	-3.728111	1.991991	8.532794	3.696273	-2.983708	4.547480	-11.857020	-3.570840	-0.842039	-0.115600	0.514342	-1.000000	-1.000000	-1.000000	-1.000000	-1.000000	-1.000000	-1.000000	61.000000	0.000000	-1.000000	-1.000000	1505848.000000	1776579413.047471
25288.335000	10699.830000	41640.120000	68975.685000	47310.660000	29491.245000	-6866.685000	23363.685000	-4.699622	-6.613439	-9.605568	-6.483830	-2.610950	6.374982	4.047820	-3.363799	4.547480	-11.857020	-3.570840	-0.842039	-0.115600	0.514342	-1.000000	-1.000000	-1.000000	-1.000000	-1.000000	-1.000000	-1.000000	61.000000	0.000000	-1.000000	-1.000000	1505849.000000	1776579413.047497
25288.380000	10700.955000	41632.920000	68967.765000	47304.810000	29503.575000	-6865.920000	23363.910000	-3.261920	-5.171586	-7.037907	-6.431980	-5.529241	3.602289	3.639435	-2.131768	4.547480	-11.857020	-3.570840	-0.842039	-0.115600	0.514342	-1.000000	-1.000000	-1.000000	-1.000000	-1.000000	-1.000000	-1.000000	61.000000	0.000000	-1.000000	-1.000000	1505850.000000	1776579413.047522
25280.775000	10698.210000	41633.685000	68965.965000	47299.005000	29500.380000	-6871.590000	23354.685000	-1.177938	-2.361845	-3.515339	-5.034836	-6.309327	1.476823	2.171067	-0.786176	4.547480	-11.857020	-3.570840	-0.842039	-0.115600	0.514342	-1.000000	-1.000000	-1.000000	-1.000000	-1.000000	-1.000000	-1.000000	61.000000	0.000000	-1.000000	-1.000000	1505851.000000	1776579413.047526
25275.735000	10696.140000	41633.685000	68972.040000	47313.405000	29495.880000	-6867.720000	23351.670000	-0.036557	0.193428	-0.521661	-3.021063	-4.984927	0.196943	-0.044832	-0.496253	4.547480	-11.857020	-3.570840	-0.842039	-0.115600	0.514342	-1.000000	-1.000000	-1.000000	-1.000000	-1.000000	-1.000000	-1.000000	61.000000	0.000000	-1.000000	-1.000000	1505852.000000	1776579413.051148
25269.480000	10684.845000	41621.940000	68963.985000	47309.535000	29501.460000	-6869.970000	23348.115000	-0.322640	1.397605	1.692368	-0.360359	-1.626822	-0.965317	-1.961370	-1.179752	4.547480	-11.857020	-3.570840	-0.842039	-0.115600	0.514342	-1.000000	-1.000000	-1.000000	-1.000000	-1.000000	-1.000000	-1.000000	61.000000	0.000000	-1.000000	-1.000000	1505853.000000	1776579413.051153
25282.710000	10697.355000	41632.200000	68960.835000	47302.335000	29525.085000	-6859.800000	23359.455000	-0.900567	1.257436	2.991451	2.238336	2.399891	-1.673818	-2.499970	-1.458518	4.547480	-11.857020	-3.570840	-0.842039	-0.115600	0.514342	-1.000000	-1.000000	-1.000000	-1.000000	-1.000000	-1.000000	-1.000000	61.000000	0.000000	-1.000000	-1.000000	1505854.000000	1776579413.055162
25283.430000	10699.695000	41636.430000	68964.255000	47306.745000	29526.615000	-6862.545000	23357.070000	-0.001547	1.156079	3.818587	3.681063	4.689285	-0.690590	-1.387209	-0.032487	4.547480	-11.857020	-3.570840	-0.842039	-0.115600	0.514342	-1.000000	-1.000000	-1.000000	-1.000000	-1.000000	-1.000000	-1.000000	61.000000	0.000000	-1.000000	-1.000000	1505855.000000	1776579413.055180
25283.610000	10699.560000	41640.120000	68970.645000	47305.260000	29522.520000	-6864.570000	23357.160000	2.519847	2.137229	4.788984	4.027839	4.394624	1.198261	0.358907	2.576689	-1.526000	-7.858900	-2.121140	-0.837156	-0.112304	0.518126	-1.000000	-1.000000	-1.000000	-1.000000	-1.000000	-1.000000	-1.000000	61.000000	0.000000	-1.000000	-1.000000	1505856.000000	1776579413.059372
25288.605000	10702.710000	41647.725000	68979.690000	47311.695000	29524.770000	-6860.835000	23362.110000	4.797087	3.393073	5.497485	4.166170	2.684368	1.390611	1.269399	4.495639	-1.526000	-7.858900	-2.121140	-0.837156	-0.112304	0.518126	-1.000000	-1.000000	-1.000000	-1.000000	-1.000000	-1.000000	-1.000000	61.000000	0.000000	-1.000000	-1.000000	1505857.000000	1776579413.059400
25289.460000	10702.890000	41647.005000	68980.635000	47312.595000	29524.725000	-6861.420000	23361.210000	5.177441	3.568348	5.009282	4.345724	1.048541	-0.997384	0.973727	4.581220	-1.526000	-7.858900	-2.121140	-0.837156	-0.112304	0.518126	-1.000000	-1.000000	-1.000000	-1.000000	-1.000000	-1.000000	-1.000000	61.000000	0.000000	-1.000000	-1.000000	1505858.000000	1776579413.063293
25286.805000	10703.385000	41638.185000	68975.010000	47311.740000	29516.580000	-6864.615000	23358.555000	3.400418	2.248251	2.625835	3.621710	0.072308	-4.386370	0.036474	2.884816	-1.526000	-7.858900	-2.121140	-0.837156	-0.112304	0.518126	-1.000000	-1.000000	-1.000000	-1.000000	-1.000000	-1.000000	-1.000000	61.000000	0.000000	-1.000000	-1.000000	1505859.000000	1776579413.063309
25285.140000	10702.395000	41633.820000	68968.485000	47309.085000	29502.630000	-6867.765000	23356.980000	0.155819	-0.044230	-1.628060	0.893244	-0.657106	-7.051606	-1.071438	0.058187	-1.526000	-7.858900	-2.121140	-0.837156	-0.112304	0.518126	-1.000000	-1.000000	-1.000000	-1.000000	-1.000000	-1.000000	-1.000000	61.000000	0.000000	-1.000000	-1.000000	1505860.000000	1776579413.068643
25279.605000	10696.230000	41634.360000	68969.475000	47307.195000	29503.305000	-6871.275000	23351.760000	-3.322556	-2.440684	-6.181177	-3.341775	-1.628050	-8.034292	-2.026331	-2.844740	-1.526000	-7.858900	-2.121140	-0.837156	-0.112304	0.518126	-1.000000	-1.000000	-1.000000	-1.000000	-1.000000	-1.000000	-1.000000	61.000000	0.000000	-1.000000	-1.000000	1505861.000000	1776579413.068673
25287.120000	10705.860000	41644.800000	68979.960000	47314.350000	29507.940000	-6865.740000	23360.310000	-5.549526	-4.023024	-8.298953	-6.590065	-2.507080	-6.348733	-2.294454	-4.560556	-1.526000	-7.858900	-2.121140	-0.837156	-0.112304	0.518126	-1.000000	-1.000000	-1.000000	-1.000000	-1.000000	-1.000000	-1.000000	61.000000	0.000000	-1.000000	-1.000000	1505862.000000	1776579413.071297
25290.450000	10707.120000	41643.360000	68980.050000	47314.710000	29499.570000	-6864.615000	23363.100000	-5.260071	-3.829449	-6.317653	-6.429060	-2.390931	-1.744822	-1.295126	-4.031341	-1.526000	-7.858900	-2.121140	-0.837156	-0.112304	0.518126	-1.000000	-1.000000	-1.000000	-1.000000	-1.000000	-1.000000	-1.000000	61.000000	0.000000	-1.000000	-1.000000	1505863.000000	1776579413.071305
25291.035000	10703.835000	41635.305000	68977.485000	47311.290000	29499.120000	-6865.470000	23364.675000	-2.467913	-1.851097	-1.664955	-3.138109	-1.157095	3.854569	0.744828	-1.393754	-1.526000	-7.858900	-2.121140	-0.837156	-0.112304	0.518126	-1.000000	-1.000000	-1.000000	-1.000000	-1.000000	-1.000000	-1.000000	61.000000	0.000000	-1.000000	-1.000000	1505864.000000	1776579413.075336
25288.695000	10701.405000	41631.255000	68974.875000	47311.065000	29510.595000	-6863.670000	23364.270000	1.034969	0.384732	2.228780	0.588405	0.146788	7.957799	2.616300	1.648483	-1.526000	-7.858900	-2.121140	-0.837156	-0.112304	0.518126	-1.000000	-1.000000	-1.000000	-1.000000	-1.000000	-1.000000	-1.000000	61.000000	0.000000	-1.000000	-1.000000	1505865.000000	1776579413.075348
25276.725000	10693.170000	41630.895000	68965.380000	47308.635000	29525.895000	-6868.620000	23350.545000	2.893874	1.253686	3.331037	2.305681	0.615363	9.947093	3.171396	2.968880	-5.310480	-6.531280	-0.976640	-0.839048	-0.108459	0.518187	-1.000000	-1.000000	-1.000000	-1.000000	-1.000000	-1.000000	-1.000000	61.000000	0.000000	-1.000000	-1.000000	1505866.000000	1776579413.079274
25282.395000	10701.585000	41644.035000	68969.745000	47306.295000	29509.605000	-6868.890000	23355.360000	2.127265	0.629622	2.607419	1.612120	0.264117	9.911207	2.107818	1.661287	-5.310480	-6.531280	-0.976640	-0.839048	-0.108459	0.518187	-1.000000	-1.000000	-1.000000	-1.000000	-1.000000	-1.000000	-1.000000	61.000000	0.000000	-1.000000	-1.000000	1505867.000000	1776579413.079291
25288.245000	10705.770000	41647.095000	68979.780000	47314.980000	29506.995000	-6867.945000	23360.355000	0.214623	-0.011485	2.293969	0.285291	-0.188498	6.799044	0.136563	-0.800322	-5.310480	-6.531280	-0.976640	-0.839048	-0.108459	0.518187	-1.000000	-1.000000	-1.000000	-1.000000	-1.000000	-1.000000	-1.000000	61.000000	0.000000	-1.000000	-1.000000	1505868.000000	1776579413.083279
25286.220000	10701.945000	41644.260000	68978.520000	47311.875000	29500.335000	-6870.240000	23358.555000	-0.558082	0.540481	2.983235	0.405475	0.086469	0.437993	-1.504052	-1.944731	-5.310480	-6.531280	-0.976640	-0.839048	-0.108459	0.518187	-1.000000	-1.000000	-1.000000	-1.000000	-1.000000	-1.000000	-1.000000	61.000000	0.000000	-1.000000	-1.000000	1505869.000000	1776579413.083313
25282.845000	10696.410000	41635.530000	68970.645000	47303.235000	29490.705000	-6875.820000	23354.550000	0.142471	1.526167	3.012591	1.733888	0.828423	-6.657472	-2.177182	-1.180664	-5.310480	-6.531280	-0.976640	-0.839048	-0.108459	0.518187	-1.000000	-1.000000	-1.000000	-1.000000	-1.000000	-1.000000	-1.000000	61.000000	0.000000	-1.000000	-1.000000	1505870.000000	1776579413.087119
25282.710000	10697.850000	41630.805000	68970.780000	47309.985000	29499.615000	-6874.245000	23354.145000	0.940039	1.507040	0.862237	2.245216	0.960987	-10.979402	-2.066981	0.143247	-5.310480	-6.531280	-0.976640	-0.839048	-0.108459	0.518187	-1.000000	-1.000000	-1.000000	-1.000000	-1.000000	-1.000000	-1.000000	61.000000	0.000000	-1.000000	-1.000000	1505871.000000	1776579413.087141
25286.310000	10705.905000	41647.590000	68981.535000	47317.995000	29495.160000	-6874.065000	23355.810000	0.987538	0.583486	-2.406648	1.277833	0.605547	-10.276655	-1.353242	0.907598	-5.310480	-6.531280	-0.976640	-0.839048	-0.108459	0.518187	-1.000000	-1.000000	-1.000000	-1.000000	-1.000000	-1.000000	-1.000000	61.000000	0.000000	-1.000000	-1.000000	1505872.000000	1776579413.091168
25286.895000	10705.320000	41647.545000	68974.110000	47305.890000	29479.815000	-6879.510000	23356.530000	0.629708	0.034034	-3.879972	0.078684	0.599106	-5.438873	-0.193030	1.105420	-5.310480	-6.531280	-0.976640	-0.839048	-0.108459	0.518187	-1.000000	-1.000000	-1.000000	-1.000000	-1.000000	-1.000000	-1.000000	61.000000	0.000000	-1.000000	-1.000000	1505873.000000	1776579413.091178
25294.050000	10709.460000	41646.960000	68969.925000	47298.510000	29498.220000	-6873.435000	23364.630000	0.483283	0.353694	-2.409962	-0.689972	0.372129	0.321559	0.947784	1.236731	-5.310480	-6.531280	-0.976640	-0.839048	-0.108459	0.518187	-1.000000	-1.000000	-1.000000	-1.000000	-1.000000	-1.000000	-1.000000	61.000000	0.000000	-1.000000	-1.000000	1505874.000000	1776579413.095260
25293.195000	10711.260000	41648.940000	68975.955000	47313.180000	29527.380000	-6870.420000	23362.200000	0.709688	0.909007	0.171393	-1.343516	-0.695681	5.528478	1.860082	1.561808	-5.310480	-6.531280	-0.976640	-0.839048	-0.108459	0.518187	-1.000000	-1.000000	-1.000000	-1.000000	-1.000000	-1.000000	-1.000000	61.000000	0.000000	-1.000000	-1.000000	1505875.000000	1776579413.095274
25286.130000	10702.170000	41642.415000	68974.650000	47315.745000	29523.600000	-6865.740000	23356.755000	0.716355	0.798220	1.589294	-1.622487	-1.251133	10.288275	2.643308	1.538670	-6.348160	-6.653360	-3.372460	-0.842344	-0.106750	0.518187	-1.000000	-1.000000	-1.000000	-1.000000	-1.000000	-1.000000	-1.000000	61.000000	0.000000	-1.000000	-1.000000	1505876.000000	1776579413.099336
25277.805000	10693.080000	41633.910000	68968.440000	47317.275000	29539.530000	-6861.420000	23350.860000	-0.441350	-0.696381	0.868313	-1.230754	-0.107140	12.743556	3.092572	0.285182	-6.348160	-6.653360	-3.372460	-0.842344	-0.106750	0.518187	-1.000000	-1.000000	-1.000000	-1.000000	-1.000000	-1.000000	-1.000000	61.000000	0.000000	-1.000000	-1.000000	1505877.000000	1776579413.099348
25275.735000	10689.795000	41631.750000	68968.170000	47316.015000	29521.530000	-6870.330000	23345.730000	-2.710084	-3.289808	-1.458736	-0.707214	1.655182	10.149519	2.577993	-2.088269	-6.348160	-6.653360	-3.372460	-0.842344	-0.106750	0.518187	-1.000000	-1.000000	-1.000000	-1.000000	-1.000000	-1.000000	-1.000000	61.000000	0.000000	-1.000000	-1.000000	1505878.000000	1776579413.103251
25274.160000	10688.895000	41631.705000	68967.630000	47310.075000	29502.315000	-6877.215000	23344.650000	-4.533749	-5.236020	-3.534913	-0.442712	2.123950	1.843321	0.408078	-4.200898	-6.348160	-6.653360	-3.372460	-0.842344	-0.106750	0.518187	-1.000000	-1.000000	-1.000000	-1.000000	-1.000000	-1.000000	-1.000000	61.000000	0.000000	-1.000000	-1.000000	1505879.000000	1776579413.103266
25276.365000	10690.920000	41631.210000	68964.705000	47303.685000	29496.420000	-6879.015000	23346.405000	-4.214713	-4.683284	-3.527912	-0.200764	0.489635	-9.542972	-3.056671	-4.454344	-6.348160	-6.653360	-3.372460	-0.842344	-0.106750	0.518187	-1.000000	-1.000000	-1.000000	-1.000000	-1.000000	-1.000000	-1.000000	61.000000	0.000000	-1.000000	-1.000000	1505880.000000	1776579413.107278
25277.670000	10691.505000	41629.230000	68960.160000	47293.425000	29478.735000	-6883.785000	23347.800000	-1.466157	-1.410735	-1.246968	0.126130	-2.511990	-18.531651	-5.943275	-2.285294	-6.348160	-6.653360	-3.372460	-0.842344	-0.106750	0.518187	-1.000000	-1.000000	-1.000000	-1.000000	-1.000000	-1.000000	-1.000000	61.000000	0.000000	-1.000000	-1.000000	1505881.000000	1776579413.107292
25276.365000	10692.450000	41630.670000	68961.420000	47291.445000	29475.045000	-6891.030000	23343.165000	2.328402	2.942115	1.900176	0.380219	-5.148788	-20.354999	-6.521237	1.206474	-6.348160	-6.653360	-3.372460	-0.842344	-0.106750	0.518187	-1.000000	-1.000000	-1.000000	-1.000000	-1.000000	-1.000000	-1.000000	61.000000	0.000000	-1.000000	-1.000000	1505882.000000	1776579413.111421
25293.780000	10714.005000	41651.145000	68977.935000	47310.300000	29496.600000	-6874.830000	23360.850000	5.408133	6.492859	4.636964	0.939342	-5.259131	-13.624253	-4.316940	4.273872	-6.348160	-6.653360	-3.372460	-0.842344	-0.106750	0.518187	-1.000000	-1.000000	-1.000000	-1.000000	-1.000000	-1.000000	-1.000000	61.000000	0.000000	-1.000000	-1.000000	1505883.000000	1776579413.111432
25306.695000	10726.785000	41664.510000	68991.795000	47326.410000	29518.290000	-6861.015000	23372.010000	7.191956	8.648659	6.864023	2.689994	-1.262288	-0.036296	0.506396	6.285187	-6.348160	-6.653360	-3.372460	-0.842344	-0.106750	0.518187	-1.000000	-1.000000	-1.000000	-1.000000	-1.000000	-1.000000	-1.000000	61.000000	0.000000	-1.000000	-1.000000	1505884.000000	1776579413.115323
25268.805000	10686.375000	41627.745000	68961.330000	47303.820000	29482.695000	-6895.440000	23331.420000	6.909386	8.331693	7.514738	4.703737	5.135018	14.604202	5.914498	6.414278	-6.348160	-6.653360	-3.372460	-0.842344	-0.106750	0.518187	-1.000000	-1.000000	-1.000000	-1.000000	-1.000000	-1.000000	-1.000000	61.000000	0.000000	-1.000000	-1.000000	1505885.000000	1776579413.115331
25268.220000	10688.715000	41631.120000	68967.585000	47313.810000	29491.515000	-6891.390000	23333.445000	2.559592	3.210545	3.877037	3.834229	8.915277	21.738816	7.628484	2.562056	-3.631880	-7.004340	-4.715340	-0.842710	-0.105163	0.518981	-1.000000	-1.000000	-1.000000	-1.000000	-1.000000	-1.000000	-1.000000	61.000000	0.000000	-1.000000	-1.000000	1505886.000000	1776579413.119170
25269.480000	10688.400000	41632.650000	68970.555000	47321.415000	29507.850000	-6889.320000	23334.210000	-4.933255	-5.490671	-3.500834	-0.537636	7.394127	18.088389	4.238977	-4.337423	-3.631880	-7.004340	-4.715340	-0.842710	-0.105163	0.518981	-1.000000	-1.000000	-1.000000	-1.000000	-1.000000	-1.000000	-1.000000	61.000000	0.000000	-1.000000	-1.000000	1505887.000000	1776579413.119177
25268.445000	10681.380000	41626.440000	68961.105000	47310.525000	29527.065000	-6883.875000	23335.470000	-10.430979	-12.086601	-9.614501	-5.050062	2.600738	9.013550	-0.531705	-9.171417	-3.631880	-7.004340	-4.715340	-0.842710	-0.105163	0.518981	-1.000000	-1.000000	-1.000000	-1.000000	-1.000000	-1.000000	-1.000000	61.000000	0.000000	-1.000000	-1.000000	1505888.000000	1776579413.123142
25267.635000	10678.410000	41616.765000	68953.770000	47297.205000	29516.850000	-6880.995000	23336.775000	-10.134301	-12.590188	-10.841032	-7.020176	-2.847727	1.037798	-2.702482	-8.355523	-3.631880	-7.004340	-4.715340	-0.842710	-0.105163	0.518981	-1.000000	-1.000000	-1.000000	-1.000000	-1.000000	-1.000000	-1.000000	61.000000	0.000000	-1.000000	-1.000000	1505889.000000	1776579413.123152
25271.775000	10678.860000	41605.830000	68949.450000	47295.450000	29486.205000	-6881.220000	23342.805000	-4.765333	-7.564142	-7.837988	-6.372540	-7.510392	-4.860328	-1.705972	-2.840520	-3.631880	-7.004340	-4.715340	-0.842710	-0.105163	0.518981	-1.000000	-1.000000	-1.000000	-1.000000	-1.000000	-1.000000	-1.000000	61.000000	0.000000	-1.000000	-1.000000	1505890.000000	1776579413.127188
25266.555000	10671.165000	41600.070000	68939.955000	47293.470000	29487.285000	-6885.945000	23337.630000	2.198452	-0.186606	-3.185896	-4.017018	-9.651613	-10.694875	0.351139	3.736423	-3.631880	-7.004340	-4.715340	-0.842710	-0.105163	0.518981	-1.000000	-1.000000	-1.000000	-1.000000	-1.000000	-1.000000	-1.000000	61.000000	0.000000	-1.000000	-1.000000	1505891.000000	1776579413.127220
25266.555000	10675.305000	41616.990000	68943.330000	47292.480000	29494.035000	-6887.655000	23336.685000	7.086220	6.031474	1.572538	-0.868613	-7.879940	-15.194079	1.159550	7.644962	-3.631880	-7.004340	-4.715340	-0.842710	-0.105163	0.518981	-1.000000	-1.000000	-1.000000	-1.000000	-1.000000	-1.000000	-1.000000	61.000000	0.000000	-1.000000	-1.000000	1505892.000000	1776579413.131255
25274.655000	10688.085000	41631.885000	68952.735000	47291.445000	29486.700000	-6883.920000	23342.670000	8.211633	9.345139	6.618837	2.665893	-2.845320	-14.506769	0.238725	7.363344	-3.631880	-7.004340	-4.715340	-0.842710	-0.105163	0.518981	-1.000000	-1.000000	-1.000000	-1.000000	-1.000000	-1.000000	-1.000000	61.000000	0.000000	-1.000000	-1.000000	1505893.000000	1776579413.131265
25271.640000	10688.490000	41630.355000	68958.045000	47293.110000	29479.860000	-6890.220000	23337.495000	6.399566	10.046435	11.440647	6.385120	3.068111	-8.135009	-1.235935	4.146078	-3.631880	-7.004340	-4.715340	-0.842710	-0.105163	0.518981	-1.000000	-1.000000	-1.000000	-1.000000	-1.000000	-1.000000	-1.000000	61.000000	0.000000	-1.000000	-1.000000	1505894.000000	1776579413.135244
