Channel1	Channel2	Channel3	Channel4	Channel5	Channel6	Channel7	Channel8	FilteredChannel1	FilteredChannel2	FilteredChannel3	FilteredChannel4	FilteredChannel5	FilteredChannel6	FilteredChannel7	FilteredChannel8	GyroX	GyroY	GyroZ	AccX	AccY	AccZ	PPG1	PPG2	rawPPG1	rawPPG2	rawPPG3	Hr	Hrv	Battery	Trigger	PhysicalTrigger	AutoTrigger	NumMeasurements	Timestamp
12041.550000	6692.535000	35710.470000	54536.445000	35417.835000	19883.295000	-11118.375000	4313.430000	-11.352576	-13.833633	-9.223939	-5.980579	5.465019	26.210923	8.663592	-2.960568	143.321920	61.299420	5.981920	-0.779722	-0.240356	0.578368	-1.000000	-1.000000	-1.000000	-1.000000	-1.000000	-1.000000	-1.000000	60.000000	0.000000	-1.000000	-1.000000	1694959.000000	1776579791.765501
12033.450000	6677.595000	35688.195000	54521.370000	35410.185000	19880.460000	-11117.835000	4310.325000	-2.919150	-7.590386	-4.549665	-3.111082	9.402703	32.492446	6.473411	-0.350855	143.321920	61.299420	5.981920	-0.779722	-0.240356	0.578368	-1.000000	-1.000000	-1.000000	-1.000000	-1.000000	-1.000000	-1.000000	60.000000	0.000000	-1.000000	-1.000000	1694960.000000	1776579791.765508
12026.250000	6675.795000	35688.645000	54520.425000	35405.775000	19877.310000	-11114.100000	4304.340000	8.612041	3.971691	3.407821	2.105669	9.138284	23.115405	1.606866	3.392583	164.167080	58.430540	14.573300	-0.794554	-0.230895	0.572630	-1.000000	-1.000000	-1.000000	-1.000000	-1.000000	-1.000000	-1.000000	60.000000	0.000000	-1.000000	-1.000000	1694961.000000	1776579791.769573
12020.580000	6674.400000	35687.745000	54517.995000	35398.755000	19868.310000	-11117.655000	4298.895000	12.920278	11.004151	6.985673	4.718039	4.223420	5.718686	-2.227339	3.777081	164.167080	58.430540	14.573300	-0.794554	-0.230895	0.572630	-1.000000	-1.000000	-1.000000	-1.000000	-1.000000	-1.000000	-1.000000	60.000000	0.000000	-1.000000	-1.000000	1694962.000000	1776579791.769579
12021.570000	6676.650000	35691.255000	54522.180000	35400.960000	19865.790000	-11117.520000	4300.290000	7.195415	9.820179	4.856839	3.682325	-2.489480	-9.857299	-3.521687	-0.185630	164.167080	58.430540	14.573300	-0.794554	-0.230895	0.572630	-1.000000	-1.000000	-1.000000	-1.000000	-1.000000	-1.000000	-1.000000	60.000000	0.000000	-1.000000	-1.000000	1694963.000000	1776579791.773658
12009.330000	6670.305000	35687.205000	54519.885000	35403.525000	19870.920000	-11121.885000	4290.300000	-3.392014	3.337568	0.304307	1.057730	-7.049514	-17.287727	-2.873031	-5.512631	164.167080	58.430540	14.573300	-0.794554	-0.230895	0.572630	-1.000000	-1.000000	-1.000000	-1.000000	-1.000000	-1.000000	-1.000000	60.000000	0.000000	-1.000000	-1.000000	1694964.000000	1776579791.773669
12001.905000	6664.455000	35682.300000	54515.835000	35401.410000	19867.635000	-11122.920000	4286.430000	-12.115578	-3.798450	-3.488746	-1.151891	-7.264826	-15.347704	-1.530300	-8.808617	164.167080	58.430540	14.573300	-0.794554	-0.230895	0.572630	-1.000000	-1.000000	-1.000000	-1.000000	-1.000000	-1.000000	-1.000000	60.000000	0.000000	-1.000000	-1.000000	1694965.000000	1776579791.777724
12011.805000	6668.910000	35685.405000	54519.885000	35398.980000	19854.810000	-11124.630000	4293.720000	-14.822442	-8.215623	-5.136789	-2.229905	-4.052399	-7.612108	-0.335426	-8.352119	164.167080	58.430540	14.573300	-0.794554	-0.230895	0.572630	-1.000000	-1.000000	-1.000000	-1.000000	-1.000000	-1.000000	-1.000000	60.000000	0.000000	-1.000000	-1.000000	1694966.000000	1776579791.777740
12030.120000	6686.145000	35699.310000	54532.125000	35409.735000	19876.545000	-11121.165000	4305.510000	-10.189066	-8.030631	-4.165828	-1.864624	0.134757	0.710783	0.585277	-3.889817	164.167080	58.430540	14.573300	-0.794554	-0.230895	0.572630	-1.000000	-1.000000	-1.000000	-1.000000	-1.000000	-1.000000	-1.000000	60.000000	0.000000	-1.000000	-1.000000	1694967.000000	1776579791.781489
12023.010000	6675.480000	35691.210000	54531.405000	35418.645000	19900.665000	-11114.550000	4302.360000	-0.312706	-3.505030	-0.936030	-0.004536	3.716995	7.258362	1.569865	2.968549	164.167080	58.430540	14.573300	-0.794554	-0.230895	0.572630	-1.000000	-1.000000	-1.000000	-1.000000	-1.000000	-1.000000	-1.000000	60.000000	0.000000	-1.000000	-1.000000	1694968.000000	1776579791.781496
12013.740000	6664.950000	35687.610000	54537.435000	35416.800000	19882.485000	-11114.955000	4296.780000	8.958540	1.862008	2.379928	2.212971	5.938464	11.554961	2.722564	8.511228	164.167080	58.430540	14.573300	-0.794554	-0.230895	0.572630	-1.000000	-1.000000	-1.000000	-1.000000	-1.000000	-1.000000	-1.000000	60.000000	0.000000	-1.000000	-1.000000	1694969.000000	1776579791.785501
12015.135000	6667.920000	35686.845000	54539.280000	35410.680000	19852.830000	-11121.615000	4295.160000	12.069849	4.084742	3.336604	3.154692	5.705029	10.939799	3.234551	9.415237	164.167080	58.430540	14.573300	-0.794554	-0.230895	0.572630	-1.000000	-1.000000	-1.000000	-1.000000	-1.000000	-1.000000	-1.000000	60.000000	0.000000	-1.000000	-1.000000	1694970.000000	1776579791.785512
12014.595000	6677.460000	35693.775000	54533.745000	35408.205000	19855.035000	-11123.685000	4290.435000	8.567825	2.994837	1.933165	2.064301	2.433598	3.385104	2.039642	5.615455	175.428960	61.589360	17.228540	-0.798155	-0.208801	0.565672	-1.000000	-1.000000	-1.000000	-1.000000	-1.000000	-1.000000	-1.000000	60.000000	0.000000	-1.000000	-1.000000	1694971.000000	1776579791.789724
12015.945000	6691.815000	35712.990000	54528.705000	35408.025000	19859.490000	-11121.615000	4286.655000	2.307028	1.638321	0.492015	-0.808017	-2.430736	-6.894686	-0.550181	-0.140863	175.428960	61.589360	17.228540	-0.798155	-0.208801	0.565672	-1.000000	-1.000000	-1.000000	-1.000000	-1.000000	-1.000000	-1.000000	60.000000	0.000000	-1.000000	-1.000000	1694972.000000	1776579791.789745
12009.240000	6678.360000	35695.215000	54520.785000	35409.060000	19882.305000	-11113.155000	4284.225000	-2.802508	1.827769	0.617542	-4.354093	-6.098267	-12.075304	-2.645468	-4.724961	175.428960	61.589360	17.228540	-0.798155	-0.208801	0.565672	-1.000000	-1.000000	-1.000000	-1.000000	-1.000000	-1.000000	-1.000000	60.000000	0.000000	-1.000000	-1.000000	1694973.000000	1776579791.793574
11992.410000	6652.080000	35673.165000	54506.880000	35402.985000	19883.655000	-11115.630000	4279.815000	-5.452728	1.624462	0.553268	-7.068836	-6.741173	-8.382107	-2.671658	-6.338371	175.428960	61.589360	17.228540	-0.798155	-0.208801	0.565672	-1.000000	-1.000000	-1.000000	-1.000000	-1.000000	-1.000000	-1.000000	60.000000	0.000000	-1.000000	-1.000000	1694974.000000	1776579791.793588
11993.895000	6653.205000	35677.530000	54514.035000	35409.465000	19884.915000	-11119.050000	4286.205000	-6.250569	-1.503700	-2.075891	-7.615480	-4.577193	0.639836	-1.130287	-4.851970	175.428960	61.589360	17.228540	-0.798155	-0.208801	0.565672	-1.000000	-1.000000	-1.000000	-1.000000	-1.000000	-1.000000	-1.000000	60.000000	0.000000	-1.000000	-1.000000	1694975.000000	1776579791.797559
12003.705000	6657.840000	35678.115000	54513.855000	35406.135000	19878.210000	-11121.435000	4293.855000	-5.174265	-5.831113	-5.597145	-4.971556	-0.968494	7.823952	0.152909	-1.114098	175.428960	61.589360	17.228540	-0.798155	-0.208801	0.565672	-1.000000	-1.000000	-1.000000	-1.000000	-1.000000	-1.000000	-1.000000	60.000000	0.000000	-1.000000	-1.000000	1694976.000000	1776579791.797569
12013.740000	6662.430000	35674.965000	54506.655000	35394.030000	19866.465000	-11122.695000	4298.760000	-1.394752	-6.884215	-6.250320	0.321997	2.232149	8.415501	0.185804	3.433411	175.428960	61.589360	17.228540	-0.798155	-0.208801	0.565672	-1.000000	-1.000000	-1.000000	-1.000000	-1.000000	-1.000000	-1.000000	60.000000	0.000000	-1.000000	-1.000000	1694977.000000	1776579791.801672
12013.785000	6664.680000	35679.105000	54509.985000	35393.085000	19863.810000	-11119.455000	4301.235000	4.208536	-2.971340	-2.985594	5.626228	3.308956	2.859236	-0.469064	6.749113	175.428960	61.589360	17.228540	-0.798155	-0.208801	0.565672	-1.000000	-1.000000	-1.000000	-1.000000	-1.000000	-1.000000	-1.000000	60.000000	0.000000	-1.000000	-1.000000	1694978.000000	1776579791.801680
12016.080000	6669.450000	35686.530000	54518.130000	35397.495000	19857.645000	-11116.845000	4304.790000	8.489097	3.368045	2.342928	8.650499	2.398507	-4.453900	-0.642642	7.126193	175.428960	61.589360	17.228540	-0.798155	-0.208801	0.565672	-1.000000	-1.000000	-1.000000	-1.000000	-1.000000	-1.000000	-1.000000	60.000000	0.000000	-1.000000	-1.000000	1694979.000000	1776579791.805701
12013.830000	6669.270000	35686.665000	54520.425000	35394.840000	19830.150000	-11123.055000	4301.865000	8.672094	8.191864	7.104308	9.057204	1.317214	-9.238393	0.042438	4.343899	175.428960	61.589360	17.228540	-0.798155	-0.208801	0.565672	-1.000000	-1.000000	-1.000000	-1.000000	-1.000000	-1.000000	-1.000000	60.000000	0.000000	-1.000000	-1.000000	1694980.000000	1776579791.805712
12018.285000	6674.760000	35693.145000	54526.995000	35399.205000	19831.185000	-11119.275000	4306.500000	4.718899	9.066761	9.129714	7.384689	1.231726	-10.112890	0.845879	-0.253774	185.302180	69.280400	21.043540	-0.794371	-0.183166	0.556578	-1.000000	-1.000000	-1.000000	-1.000000	-1.000000	-1.000000	-1.000000	60.000000	0.000000	-1.000000	-1.000000	1694981.000000	1776579791.809598
12009.510000	6666.615000	35687.295000	54523.575000	35403.030000	19851.705000	-11121.930000	4299.570000	-1.068892	5.983926	7.547512	4.139331	1.937537	-6.751291	1.091568	-4.608215	185.302180	69.280400	21.043540	-0.794371	-0.183166	0.556578	-1.000000	-1.000000	-1.000000	-1.000000	-1.000000	-1.000000	-1.000000	60.000000	0.000000	-1.000000	-1.000000	1694982.000000	1776579791.809614
12006.675000	6663.870000	35685.585000	54524.385000	35412.930000	19877.580000	-11120.985000	4295.070000	-6.137644	0.520777	2.996725	-0.115496	2.817304	1.381101	0.805238	-7.246762	185.302180	69.280400	21.043540	-0.794371	-0.183166	0.556578	-1.000000	-1.000000	-1.000000	-1.000000	-1.000000	-1.000000	-1.000000	60.000000	0.000000	-1.000000	-1.000000	1694983.000000	1776579791.813589
12005.685000	6660.855000	35679.870000	54514.755000	35402.085000	19868.130000	-11127.465000	4295.610000	-8.785575	-5.033465	-2.733869	-4.536229	3.069508	11.846109	0.195150	-7.679646	185.302180	69.280400	21.043540	-0.794371	-0.183166	0.556578	-1.000000	-1.000000	-1.000000	-1.000000	-1.000000	-1.000000	-1.000000	60.000000	0.000000	-1.000000	-1.000000	1694984.000000	1776579791.813633
12012.435000	6669.360000	35688.600000	54521.910000	35400.150000	19852.245000	-11131.650000	4302.495000	-8.057410	-8.164689	-7.139975	-7.853386	1.612061	17.912223	-0.677422	-5.711143	185.302180	69.280400	21.043540	-0.794371	-0.183166	0.556578	-1.000000	-1.000000	-1.000000	-1.000000	-1.000000	-1.000000	-1.000000	60.000000	0.000000	-1.000000	-1.000000	1694985.000000	1776579791.817515
12015.405000	6673.635000	35694.180000	54525.420000	35399.520000	19841.895000	-11121.615000	4307.760000	-4.090536	-7.258327	-7.981430	-8.506193	-1.602561	14.093922	-1.385433	-1.540321	185.302180	69.280400	21.043540	-0.794371	-0.183166	0.556578	-1.000000	-1.000000	-1.000000	-1.000000	-1.000000	-1.000000	-1.000000	60.000000	0.000000	-1.000000	-1.000000	1694986.000000	1776579791.817524
11991.870000	6648.975000	35672.355000	54511.155000	35412.030000	19891.620000	-11113.155000	4289.220000	0.916161	-3.436339	-5.356663	-6.126742	-4.547134	3.136237	-0.819290	3.067791	185.302180	69.280400	21.043540	-0.794371	-0.183166	0.556578	-1.000000	-1.000000	-1.000000	-1.000000	-1.000000	-1.000000	-1.000000	60.000000	0.000000	-1.000000	-1.000000	1694987.000000	1776579791.821761
11989.980000	6649.245000	35675.010000	54516.060000	35417.925000	19903.725000	-11115.135000	4287.780000	3.556174	-0.180484	-2.090023	-2.487683	-4.760438	-5.599851	1.318619	5.194418	185.302180	69.280400	21.043540	-0.794371	-0.183166	0.556578	-1.000000	-1.000000	-1.000000	-1.000000	-1.000000	-1.000000	-1.000000	60.000000	0.000000	-1.000000	-1.000000	1694988.000000	1776579791.821798
12001.050000	6658.155000	35680.545000	54519.480000	35416.260000	19901.430000	-11108.520000	4299.885000	3.003863	0.861914	-0.111358	0.694665	-2.067534	-6.742616	3.460202	4.077174	185.302180	69.280400	21.043540	-0.794371	-0.183166	0.556578	-1.000000	-1.000000	-1.000000	-1.000000	-1.000000	-1.000000	-1.000000	60.000000	0.000000	-1.000000	-1.000000	1694989.000000	1776579791.829561
12000.870000	6656.220000	35678.115000	54516.780000	35416.215000	19902.285000	-11105.460000	4301.055000	1.937630	1.390113	1.300975	3.104576	1.103996	-3.870055	3.915457	2.187614	185.302180	69.280400	21.043540	-0.794371	-0.183166	0.556578	-1.000000	-1.000000	-1.000000	-1.000000	-1.000000	-1.000000	-1.000000	60.000000	0.000000	-1.000000	-1.000000	1694990.000000	1776579791.829602
11994.030000	6652.890000	35677.620000	54515.520000	35413.920000	19895.310000	-11113.290000	4292.865000	2.233229	2.683395	2.821496	4.465832	2.303366	-2.799161	2.278310	1.431455	201.752460	57.072400	28.078400	-0.800108	-0.156677	0.547301	-1.000000	-1.000000	-1.000000	-1.000000	-1.000000	-1.000000	-1.000000	60.000000	0.000000	-1.000000	-1.000000	1694991.000000	1776579791.829632
11985.435000	6651.855000	35675.820000	54509.580000	35401.950000	19876.545000	-11114.505000	4285.980000	2.718481	3.812484	3.811622	4.217029	0.929279	-5.487670	-0.966617	0.949956	201.752460	57.072400	28.078400	-0.800108	-0.156677	0.547301	-1.000000	-1.000000	-1.000000	-1.000000	-1.000000	-1.000000	-1.000000	60.000000	0.000000	-1.000000	-1.000000	1694992.000000	1776579791.829646
11983.455000	6648.120000	35672.985000	54508.410000	35399.295000	19871.370000	-11106.855000	4288.545000	1.754299	3.598392	3.555103	2.416594	-2.020729	-10.061506	-4.312345	-0.407512	201.752460	57.072400	28.078400	-0.800108	-0.156677	0.547301	-1.000000	-1.000000	-1.000000	-1.000000	-1.000000	-1.000000	-1.000000	60.000000	0.000000	-1.000000	-1.000000	1694993.000000	1776579791.833622
12001.185000	6654.420000	35679.285000	54516.330000	35407.260000	19887.210000	-11107.755000	4302.675000	0.002750	2.125134	2.213141	0.218683	-4.353496	-12.316973	-5.638048	-1.688295	201.752460	57.072400	28.078400	-0.800108	-0.156677	0.547301	-1.000000	-1.000000	-1.000000	-1.000000	-1.000000	-1.000000	-1.000000	60.000000	0.000000	-1.000000	-1.000000	1694994.000000	1776579791.833632
12008.790000	6655.905000	35676.495000	54512.055000	35404.920000	19890.720000	-11114.280000	4304.700000	-0.219142	0.536347	0.712449	-0.880667	-3.874240	-8.502444	-4.359024	-1.103187	201.752460	57.072400	28.078400	-0.800108	-0.156677	0.547301	-1.000000	-1.000000	-1.000000	-1.000000	-1.000000	-1.000000	-1.000000	60.000000	0.000000	-1.000000	-1.000000	1694995.000000	1776579791.838882
11998.035000	6647.895000	35670.330000	54508.455000	35403.165000	19887.210000	-11114.820000	4297.770000	1.499739	-0.415075	-0.421197	-0.715571	-0.658867	0.584591	-1.967625	0.996015	201.752460	57.072400	28.078400	-0.800108	-0.156677	0.547301	-1.000000	-1.000000	-1.000000	-1.000000	-1.000000	-1.000000	-1.000000	60.000000	0.000000	-1.000000	-1.000000	1694996.000000	1776579791.838907
12001.005000	6652.890000	35677.530000	54515.880000	35410.770000	19891.080000	-11105.955000	4302.495000	2.612273	-1.062579	-1.311586	-0.231479	3.119742	9.690239	0.198880	2.262544	201.752460	57.072400	28.078400	-0.800108	-0.156677	0.547301	-1.000000	-1.000000	-1.000000	-1.000000	-1.000000	-1.000000	-1.000000	60.000000	0.000000	-1.000000	-1.000000	1694997.000000	1776579791.841759
12009.555000	6661.485000	35686.170000	54524.880000	35424.405000	19895.535000	-11096.685000	4309.155000	1.394808	-1.442674	-1.531716	0.349336	5.817343	14.107787	2.256297	1.601931	201.752460	57.072400	28.078400	-0.800108	-0.156677	0.547301	-1.000000	-1.000000	-1.000000	-1.000000	-1.000000	-1.000000	-1.000000	60.000000	0.000000	-1.000000	-1.000000	1694998.000000	1776579791.841789
12003.255000	6655.230000	35683.335000	54523.215000	35418.690000	19866.645000	-11109.915000	4298.670000	-1.065518	-1.062154	-0.552302	1.279350	6.905399	12.314926	4.117340	-0.109457	201.752460	57.072400	28.078400	-0.800108	-0.156677	0.547301	-1.000000	-1.000000	-1.000000	-1.000000	-1.000000	-1.000000	-1.000000	60.000000	0.000000	-1.000000	-1.000000	1694999.000000	1776579791.845636
11991.105000	6644.115000	35674.605000	54516.195000	35409.195000	19858.140000	-11123.640000	4285.755000	-3.453414	-0.575309	0.614081	1.736226	5.517263	5.059647	4.062742	-2.280233	201.752460	57.072400	28.078400	-0.800108	-0.156677	0.547301	-1.000000	-1.000000	-1.000000	-1.000000	-1.000000	-1.000000	-1.000000	60.000000	0.000000	-1.000000	-1.000000	1695000.000000	1776579791.845663
11994.750000	6649.830000	35680.455000	54521.010000	35410.095000	19855.845000	-11120.670000	4290.435000	-5.377372	-1.116552	0.424149	0.617894	1.191948	-4.243319	1.030587	-4.615719	218.706320	31.008320	35.357420	-0.822141	-0.126770	0.541075	-1.000000	-1.000000	-1.000000	-1.000000	-1.000000	-1.000000	-1.000000	60.000000	0.000000	-1.000000	-1.000000	1695001.000000	1776579791.849936
11995.380000	6647.220000	35677.080000	54516.420000	35404.200000	19854.225000	-11119.095000	4292.145000	-5.902404	-2.135929	-0.932720	-1.606931	-4.267385	-10.206892	-2.831035	-5.560479	218.706320	31.008320	35.357420	-0.822141	-0.126770	0.541075	-1.000000	-1.000000	-1.000000	-1.000000	-1.000000	-1.000000	-1.000000	60.000000	0.000000	-1.000000	-1.000000	1695002.000000	1776579791.849957
11997.810000	6646.545000	35676.900000	54517.545000	35410.680000	19870.290000	-11110.950000	4296.375000	-3.978975	-2.216519	-2.077750	-3.419654	-7.785267	-9.315811	-4.134628	-3.558505	218.706320	31.008320	35.357420	-0.822141	-0.126770	0.541075	-1.000000	-1.000000	-1.000000	-1.000000	-1.000000	-1.000000	-1.000000	60.000000	0.000000	-1.000000	-1.000000	1695003.000000	1776579791.853997
11991.330000	6641.595000	35673.030000	54514.260000	35407.035000	19865.970000	-11116.890000	4289.040000	-0.257765	-1.122121	-2.265087	-3.833909	-7.492432	-2.422025	-1.925080	0.611936	218.706320	31.008320	35.357420	-0.822141	-0.126770	0.541075	-1.000000	-1.000000	-1.000000	-1.000000	-1.000000	-1.000000	-1.000000	60.000000	0.000000	-1.000000	-1.000000	1695004.000000	1776579791.854030
11996.910000	6647.265000	35679.060000	54515.430000	35398.845000	19853.370000	-11121.210000	4293.045000	3.237862	0.417136	-1.509894	-2.799594	-4.126224	5.579328	1.552796	4.341583	218.706320	31.008320	35.357420	-0.822141	-0.126770	0.541075	-1.000000	-1.000000	-1.000000	-1.000000	-1.000000	-1.000000	-1.000000	60.000000	0.000000	-1.000000	-1.000000	1695005.000000	1776579791.859288
12005.595000	6655.950000	35687.745000	54526.635000	35402.805000	19842.930000	-11121.525000	4299.975000	5.230357	2.025295	0.147767	-0.662442	-0.141703	9.007741	3.410025	5.879919	218.706320	31.008320	35.357420	-0.822141	-0.126770	0.541075	-1.000000	-1.000000	-1.000000	-1.000000	-1.000000	-1.000000	-1.000000	60.000000	0.000000	-1.000000	-1.000000	1695006.000000	1776579791.859301
12007.440000	6655.275000	35680.770000	54524.115000	35398.260000	19824.435000	-11123.685000	4300.740000	5.809554	3.599375	2.291346	2.078197	2.694886	5.870177	2.824923	5.427254	218.706320	31.008320	35.357420	-0.822141	-0.126770	0.541075	-1.000000	-1.000000	-1.000000	-1.000000	-1.000000	-1.000000	-1.000000	60.000000	0.000000	-1.000000	-1.000000	1695007.000000	1776579791.861839
12002.535000	6652.260000	35666.730000	54511.605000	35396.055000	19824.705000	-11122.515000	4294.980000	4.999080	4.274681	3.246048	3.976350	3.935446	-1.010879	0.968859	3.611181	218.706320	31.008320	35.357420	-0.822141	-0.126770	0.541075	-1.000000	-1.000000	-1.000000	-1.000000	-1.000000	-1.000000	-1.000000	60.000000	0.000000	-1.000000	-1.000000	1695008.000000	1776579791.861876
11999.565000	6655.770000	35687.205000	54523.755000	35407.980000	19822.860000	-11118.600000	4291.470000	2.401774	3.063397	1.888120	3.508507	3.944601	-6.466752	-0.548452	0.629226	218.706320	31.008320	35.357420	-0.822141	-0.126770	0.541075	-1.000000	-1.000000	-1.000000	-1.000000	-1.000000	-1.000000	-1.000000	60.000000	0.000000	-1.000000	-1.000000	1695009.000000	1776579791.865775
11996.730000	6652.215000	35697.060000	54525.780000	35417.655000	19866.060000	-11103.120000	4291.335000	-1.503709	0.331547	0.115958	1.448263	3.841156	-6.091358	-0.548736	-2.803744	218.706320	31.008320	35.357420	-0.822141	-0.126770	0.541075	-1.000000	-1.000000	-1.000000	-1.000000	-1.000000	-1.000000	-1.000000	60.000000	0.000000	-1.000000	-1.000000	1695010.000000	1776579791.865787
11986.740000	6637.320000	35678.610000	54514.170000	35422.785000	19924.200000	-11093.040000	4285.935000	-5.168082	-2.808263	-0.049310	-0.379424	4.289069	1.992629	1.268114	-5.234960	228.655840	4.959500	34.838580	-0.848997	-0.085998	0.533141	-1.000000	-1.000000	-1.000000	-1.000000	-1.000000	-1.000000	-1.000000	60.000000	0.000000	-1.000000	-1.000000	1695011.000000	1776579791.870137
11973.105000	6624.585000	35664.570000	54507.780000	35420.085000	19927.935000	-11102.985000	4271.220000	-7.338761	-5.740499	-0.174593	-1.807255	4.286129	14.648504	3.456310	-5.885689	228.655840	4.959500	34.838580	-0.848997	-0.085998	0.533141	-1.000000	-1.000000	-1.000000	-1.000000	-1.000000	-1.000000	-1.000000	60.000000	0.000000	-1.000000	-1.000000	1695012.000000	1776579791.870145
11990.430000	6642.180000	35681.670000	54523.170000	35423.325000	19898.685000	-11100.420000	4287.555000	-7.199164	-7.332058	-2.019307	-2.937616	2.367751	21.984689	3.364408	-4.851582	228.655840	4.959500	34.838580	-0.848997	-0.085998	0.533141	-1.000000	-1.000000	-1.000000	-1.000000	-1.000000	-1.000000	-1.000000	60.000000	0.000000	-1.000000	-1.000000	1695013.000000	1776579791.873864
11991.915000	6646.140000	35688.285000	54531.495000	35427.420000	19896.570000	-11097.495000	4287.960000	-3.783019	-5.387317	-3.514400	-2.360173	-1.270373	14.752526	0.193305	-1.887415	228.655840	4.959500	34.838580	-0.848997	-0.085998	0.533141	-1.000000	-1.000000	-1.000000	-1.000000	-1.000000	-1.000000	-1.000000	60.000000	0.000000	-1.000000	-1.000000	1695014.000000	1776579791.873875
11981.655000	6634.170000	35675.100000	54519.615000	35416.440000	19886.805000	-11107.305000	4277.790000	2.040715	0.106874	-2.309499	0.341220	-4.974975	-4.845257	-4.063646	2.369884	228.655840	4.959500	34.838580	-0.848997	-0.085998	0.533141	-1.000000	-1.000000	-1.000000	-1.000000	-1.000000	-1.000000	-1.000000	60.000000	0.000000	-1.000000	-1.000000	1695015.000000	1776579791.877782
11991.330000	6643.350000	35683.335000	54527.130000	35421.075000	19883.835000	-11105.730000	4285.125000	6.884331	5.600037	0.372105	2.874528	-7.363303	-24.618139	-7.085693	5.488598	228.655840	4.959500	34.838580	-0.848997	-0.085998	0.533141	-1.000000	-1.000000	-1.000000	-1.000000	-1.000000	-1.000000	-1.000000	60.000000	0.000000	-1.000000	-1.000000	1695016.000000	1776579791.877790
11993.670000	6656.085000	35704.935000	54560.295000	35448.885000	19885.410000	-11109.645000	4280.310000	8.409746	8.210830	2.695548	3.833277	-7.073496	-33.177821	-7.602077	5.867814	228.655840	4.959500	34.838580	-0.848997	-0.085998	0.533141	-1.000000	-1.000000	-1.000000	-1.000000	-1.000000	-1.000000	-1.000000	60.000000	0.000000	-1.000000	-1.000000	1695017.000000	1776579791.881860
11984.220000	6649.785000	35710.695000	54591.885000	35491.455000	19883.430000	-11121.480000	4268.655000	6.730164	7.898228	4.722191	5.008014	-2.262031	-27.072589	-5.636680	3.750915	228.655840	4.959500	34.838580	-0.848997	-0.085998	0.533141	-1.000000	-1.000000	-1.000000	-1.000000	-1.000000	-1.000000	-1.000000	60.000000	0.000000	-1.000000	-1.000000	1695018.000000	1776579791.881873
11977.245000	6617.835000	35660.565000	54522.540000	35432.370000	19869.120000	-11108.160000	4278.870000	2.622399	4.616442	5.120849	6.067984	5.261795	-11.246438	-2.227863	0.291846	228.655840	4.959500	34.838580	-0.848997	-0.085998	0.533141	-1.000000	-1.000000	-1.000000	-1.000000	-1.000000	-1.000000	-1.000000	60.000000	0.000000	-1.000000	-1.000000	1695019.000000	1776579791.886383
11995.875000	6636.420000	35662.455000	54480.285000	35380.260000	19904.175000	-11092.995000	4294.080000	-2.189981	-1.594729	0.774484	1.153295	7.118399	6.021880	2.146734	-2.151223	228.655840	4.959500	34.838580	-0.848997	-0.085998	0.533141	-1.000000	-1.000000	-1.000000	-1.000000	-1.000000	-1.000000	-1.000000	60.000000	0.000000	-1.000000	-1.000000	1695020.000000	1776579791.886392
12005.190000	6656.040000	35690.535000	54513.810000	35396.370000	19888.335000	-11097.000000	4297.185000	-4.580647	-7.014641	-6.433710	-11.081800	-1.782294	18.845706	7.011698	-1.513653	222.246640	-12.360600	28.887180	-0.865537	-0.037598	0.527464	-1.000000	-1.000000	-1.000000	-1.000000	-1.000000	-1.000000	-1.000000	60.000000	0.000000	-1.000000	-1.000000	1695021.000000	1776579791.889832
11999.520000	6649.560000	35688.150000	54521.775000	35408.790000	19875.150000	-11096.190000	4294.125000	-3.175654	-6.994450	-9.307816	-20.205398	-13.195745	23.640852	10.031522	1.132860	222.246640	-12.360600	28.887180	-0.865537	-0.037598	0.527464	-1.000000	-1.000000	-1.000000	-1.000000	-1.000000	-1.000000	-1.000000	60.000000	0.000000	-1.000000	-1.000000	1695022.000000	1776579791.889851
11991.060000	6640.155000	35680.320000	54519.885000	35413.335000	19872.855000	-11101.815000	4285.755000	-0.536854	-2.511020	-5.064380	-16.323508	-14.770412	18.857161	8.742724	2.434331	222.246640	-12.360600	28.887180	-0.865537	-0.037598	0.527464	-1.000000	-1.000000	-1.000000	-1.000000	-1.000000	-1.000000	-1.000000	60.000000	0.000000	-1.000000	-1.000000	1695023.000000	1776579791.893732
11984.175000	6632.820000	35675.235000	54517.725000	35412.480000	19869.120000	-11109.645000	4278.420000	-0.069851	1.269222	1.612656	-2.124867	-4.470672	7.750499	3.284395	0.364647	222.246640	-12.360600	28.887180	-0.865537	-0.037598	0.527464	-1.000000	-1.000000	-1.000000	-1.000000	-1.000000	-1.000000	-1.000000	60.000000	0.000000	-1.000000	-1.000000	1695024.000000	1776579791.893744
11987.145000	6636.285000	35680.770000	54522.855000	35415.855000	19869.525000	-11106.180000	4280.805000	-2.113913	1.538927	5.522070	12.251039	9.622886	-3.196642	-3.587339	-3.808439	222.246640	-12.360600	28.887180	-0.865537	-0.037598	0.527464	-1.000000	-1.000000	-1.000000	-1.000000	-1.000000	-1.000000	-1.000000	60.000000	0.000000	-1.000000	-1.000000	1695025.000000	1776579791.897755
11990.565000	6640.335000	35686.710000	54530.730000	35422.155000	19872.180000	-11100.105000	4284.270000	-4.048572	-0.129153	5.774927	19.399138	18.609656	-9.055987	-8.079465	-6.682678	222.246640	-12.360600	28.887180	-0.865537	-0.037598	0.527464	-1.000000	-1.000000	-1.000000	-1.000000	-1.000000	-1.000000	-1.000000	60.000000	0.000000	-1.000000	-1.000000	1695026.000000	1776579791.897771
11987.910000	6636.915000	35684.730000	54531.270000	35422.605000	19858.050000	-11108.520000	4280.175000	-3.519807	-0.983679	4.195672	18.006836	18.823841	-8.992582	-8.010256	-5.909566	222.246640	-12.360600	28.887180	-0.865537	-0.037598	0.527464	-1.000000	-1.000000	-1.000000	-1.000000	-1.000000	-1.000000	-1.000000	60.000000	0.000000	-1.000000	-1.000000	1695027.000000	1776579791.902070
11988.855000	6635.295000	35681.670000	54529.425000	35422.740000	19865.925000	-11100.780000	4283.865000	-0.751496	-0.301578	2.104679	10.608829	11.766295	-5.510293	-4.433608	-2.144559	222.246640	-12.360600	28.887180	-0.865537	-0.037598	0.527464	-1.000000	-1.000000	-1.000000	-1.000000	-1.000000	-1.000000	-1.000000	60.000000	0.000000	-1.000000	-1.000000	1695028.000000	1776579791.902078
11982.330000	6630.120000	35677.935000	54522.585000	35418.060000	19871.955000	-11101.320000	4276.755000	2.233545	0.779306	-0.267518	0.819174	1.459126	-1.206252	0.104896	2.113137	222.246640	-12.360600	28.887180	-0.865537	-0.037598	0.527464	-1.000000	-1.000000	-1.000000	-1.000000	-1.000000	-1.000000	-1.000000	60.000000	0.000000	-1.000000	-1.000000	1695029.000000	1776579791.905929
11980.305000	6633.855000	35686.305000	54534.105000	35425.620000	19863.720000	-11111.940000	4270.905000	3.600303	1.230512	-2.426176	-7.676059	-7.703305	2.538067	3.386024	4.496043	222.246640	-12.360600	28.887180	-0.865537	-0.037598	0.527464	-1.000000	-1.000000	-1.000000	-1.000000	-1.000000	-1.000000	-1.000000	60.000000	0.000000	-1.000000	-1.000000	1695030.000000	1776579791.905964
11985.930000	6630.705000	35677.440000	54523.350000	35413.920000	19845.045000	-11117.970000	4277.385000	3.087775	1.083024	-3.403015	-11.934601	-12.604023	4.047204	3.857452	4.242347	194.000380	-14.176540	19.166560	-0.865354	0.012634	0.525084	-1.000000	-1.000000	-1.000000	-1.000000	-1.000000	-1.000000	-1.000000	60.000000	0.000000	-1.000000	-1.000000	1695031.000000	1776579791.909895
11992.230000	6634.485000	35679.780000	54521.775000	35411.760000	19855.215000	-11111.580000	4283.055000	2.043140	0.851340	-3.015677	-11.459665	-12.754917	2.310558	1.837826	2.763891	194.000380	-14.176540	19.166560	-0.865354	0.012634	0.525084	-1.000000	-1.000000	-1.000000	-1.000000	-1.000000	-1.000000	-1.000000	60.000000	0.000000	-1.000000	-1.000000	1695032.000000	1776579791.909903
11994.210000	6639.795000	35691.030000	54538.650000	35432.550000	19885.590000	-11096.370000	4285.260000	1.731869	0.925113	-1.672867	-7.671172	-9.211174	-0.149431	-0.033040	1.897060	194.000380	-14.176540	19.166560	-0.865354	0.012634	0.525084	-1.000000	-1.000000	-1.000000	-1.000000	-1.000000	-1.000000	-1.000000	60.000000	0.000000	-1.000000	-1.000000	1695033.000000	1776579791.913718
11989.350000	6635.385000	35687.520000	54540.180000	35441.460000	19884.330000	-11104.965000	4279.455000	1.823295	1.282913	0.406146	-1.908547	-2.767419	0.471001	0.391451	1.727489	194.000380	-14.176540	19.166560	-0.865354	0.012634	0.525084	-1.000000	-1.000000	-1.000000	-1.000000	-1.000000	-1.000000	-1.000000	60.000000	0.000000	-1.000000	-1.000000	1695034.000000	1776579791.913726
11993.625000	6633.900000	35683.650000	54533.340000	35426.070000	19860.750000	-11104.380000	4288.230000	1.150231	1.227094	2.261105	3.808356	4.395692	3.197543	2.043758	1.177854	194.000380	-14.176540	19.166560	-0.865354	0.012634	0.525084	-1.000000	-1.000000	-1.000000	-1.000000	-1.000000	-1.000000	-1.000000	60.000000	0.000000	-1.000000	-1.000000	1695035.000000	1776579791.917952
11998.260000	6641.145000	35690.445000	54531.045000	35410.635000	19844.910000	-11107.125000	4289.175000	-0.388112	0.321073	2.580173	6.540269	7.837465	2.858360	2.423418	0.027759	194.000380	-14.176540	19.166560	-0.865354	0.012634	0.525084	-1.000000	-1.000000	-1.000000	-1.000000	-1.000000	-1.000000	-1.000000	60.000000	0.000000	-1.000000	-1.000000	1695036.000000	1776579791.917960
12003.390000	6648.795000	35699.085000	54539.370000	35417.115000	19828.935000	-11109.600000	4291.380000	-1.667537	-0.597450	1.654314	5.325466	5.270931	-2.711593	0.761297	-1.063533	194.000380	-14.176540	19.166560	-0.865354	0.012634	0.525084	-1.000000	-1.000000	-1.000000	-1.000000	-1.000000	-1.000000	-1.000000	60.000000	0.000000	-1.000000	-1.000000	1695037.000000	1776579791.921774
11995.920000	6642.270000	35693.595000	54537.930000	35414.505000	19802.970000	-11121.705000	4282.695000	-2.050949	-0.691013	0.719991	2.199254	-0.253644	-10.136755	-1.996888	-1.916303	194.000380	-14.176540	19.166560	-0.865354	0.012634	0.525084	-1.000000	-1.000000	-1.000000	-1.000000	-1.000000	-1.000000	-1.000000	60.000000	0.000000	-1.000000	-1.000000	1695038.000000	1776579791.921781
11996.145000	6639.750000	35690.985000	54536.220000	35423.280000	19849.860000	-11109.510000	4285.710000	-2.131275	-0.607253	-0.117034	-0.490802	-3.782152	-13.442279	-4.286110	-2.813676	194.000380	-14.176540	19.166560	-0.865354	0.012634	0.525084	-1.000000	-1.000000	-1.000000	-1.000000	-1.000000	-1.000000	-1.000000	60.000000	0.000000	-1.000000	-1.000000	1695039.000000	1776579791.925675
11985.705000	6624.450000	35676.315000	54525.915000	35426.835000	19889.010000	-11099.295000	4278.195000	-2.606234	-1.553396	-1.648596	-2.159348	-3.036213	-7.099414	-4.159311	-3.564836	194.000380	-14.176540	19.166560	-0.865354	0.012634	0.525084	-1.000000	-1.000000	-1.000000	-1.000000	-1.000000	-1.000000	-1.000000	60.000000	0.000000	-1.000000	-1.000000	1695040.000000	1776579791.925682
11985.120000	6623.865000	35676.405000	54529.560000	35435.880000	19903.005000	-11098.845000	4278.735000	-3.334112	-3.574220	-3.892598	-3.154541	0.816218	8.388374	-0.886433	-3.593897	137.767280	-9.506980	22.035440	-0.857969	0.083740	0.525450	-1.000000	-1.000000	-1.000000	-1.000000	-1.000000	-1.000000	-1.000000	60.000000	0.000000	-1.000000	-1.000000	1695041.000000	1776579791.929866
11980.890000	6620.895000	35674.425000	54528.390000	35434.125000	19896.030000	-11111.580000	4272.255000	-3.472861	-5.094510	-5.387682	-3.252668	4.784605	23.157422	3.148343	-2.640836	137.767280	-9.506980	22.035440	-0.857969	0.083740	0.525450	-1.000000	-1.000000	-1.000000	-1.000000	-1.000000	-1.000000	-1.000000	60.000000	0.000000	-1.000000	-1.000000	1695042.000000	1776579791.929878
11988.315000	6629.130000	35681.535000	54532.035000	35425.350000	19868.490000	-11113.920000	4277.970000	-2.119983	-4.148615	-4.329880	-1.925477	5.930221	25.230967	4.361733	-0.847828	137.767280	-9.506980	22.035440	-0.857969	0.083740	0.525450	-1.000000	-1.000000	-1.000000	-1.000000	-1.000000	-1.000000	-1.000000	60.000000	0.000000	-1.000000	-1.000000	1695043.000000	1776579791.933936
11987.685000	6629.940000	35680.230000	54528.660000	35417.430000	19851.615000	-11110.320000	4277.340000	0.850242	-0.300960	-0.507442	0.464123	2.989263	11.108050	2.017331	1.478188	137.767280	-9.506980	22.035440	-0.857969	0.083740	0.525450	-1.000000	-1.000000	-1.000000	-1.000000	-1.000000	-1.000000	-1.000000	60.000000	0.000000	-1.000000	-1.000000	1695044.000000	1776579791.933952
11992.905000	6637.905000	35689.500000	54538.290000	35430.570000	19863.045000	-11097.180000	4280.940000	4.322619	4.736489	4.280797	2.786990	-2.243007	-10.763602	-1.045953	3.753912	137.767280	-9.506980	22.035440	-0.857969	0.083740	0.525450	-1.000000	-1.000000	-1.000000	-1.000000	-1.000000	-1.000000	-1.000000	60.000000	0.000000	-1.000000	-1.000000	1695045.000000	1776579791.937768
11987.910000	6631.650000	35684.820000	54536.670000	35440.335000	19883.655000	-11097.495000	4277.475000	6.474264	8.215146	7.577664	4.169184	-5.644945	-25.963284	-1.810933	5.032357	137.767280	-9.506980	22.035440	-0.857969	0.083740	0.525450	-1.000000	-1.000000	-1.000000	-1.000000	-1.000000	-1.000000	-1.000000	60.000000	0.000000	-1.000000	-1.000000	1695046.000000	1776579791.937776
11985.345000	6626.610000	35679.780000	54534.510000	35443.845000	19898.820000	-11098.215000	4276.305000	5.933170	7.962975	7.566571	4.090278	-4.586862	-25.212312	-0.280681	4.510909	137.767280	-9.506980	22.035440	-0.857969	0.083740	0.525450	-1.000000	-1.000000	-1.000000	-1.000000	-1.000000	-1.000000	-1.000000	60.000000	0.000000	-1.000000	-1.000000	1695047.000000	1776579791.941875
11981.250000	6618.870000	35669.475000	54524.295000	35434.665000	19903.005000	-11101.680000	4272.930000	2.756715	3.746237	3.873888	2.145535	-0.723945	-10.992359	1.191215	2.227616	137.767280	-9.506980	22.035440	-0.857969	0.083740	0.525450	-1.000000	-1.000000	-1.000000	-1.000000	-1.000000	-1.000000	-1.000000	60.000000	0.000000	-1.000000	-1.000000	1695048.000000	1776579791.941882
11982.780000	6620.445000	35669.565000	54524.250000	35433.765000	19894.005000	-11101.770000	4275.000000	-1.388290	-2.218580	-1.811455	-1.253297	2.033558	5.785671	0.886679	-0.735531	137.767280	-9.506980	22.035440	-0.857969	0.083740	0.525450	-1.000000	-1.000000	-1.000000	-1.000000	-1.000000	-1.000000	-1.000000	60.000000	0.000000	-1.000000	-1.000000	1695049.000000	1776579791.945774
11988.315000	6627.105000	35676.675000	54530.370000	35438.805000	19892.205000	-11098.980000	4281.030000	-4.164830	-6.408756	-6.198029	-4.237661	1.830483	14.794962	-0.777356	-2.752316	137.767280	-9.506980	22.035440	-0.857969	0.083740	0.525450	-1.000000	-1.000000	-1.000000	-1.000000	-1.000000	-1.000000	-1.000000	60.000000	0.000000	-1.000000	-1.000000	1695050.000000	1776579791.945781
11990.565000	6628.365000	35678.250000	54529.605000	35435.970000	19883.835000	-11099.880000	4281.660000	-4.133945	-6.455187	-6.576720	-4.691759	0.005678	12.974300	-2.203383	-2.762998	38.607800	-7.080640	29.116080	-0.844846	0.174743	0.526976	-1.000000	-1.000000	-1.000000	-1.000000	-1.000000	-1.000000	-1.000000	60.000000	0.000000	-1.000000	-1.000000	1695051.000000	1776579791.949886
11992.410000	6628.680000	35679.060000	54530.505000	35436.195000	19888.155000	-11098.170000	4283.055000	-1.811952	-2.991985	-3.141785	-2.426089	-1.462959	4.500239	-2.345988	-1.219522	38.607800	-7.080640	29.116080	-0.844846	0.174743	0.526976	-1.000000	-1.000000	-1.000000	-1.000000	-1.000000	-1.000000	-1.000000	60.000000	0.000000	-1.000000	-1.000000	1695052.000000	1776579791.949896
11992.005000	6627.330000	35677.395000	54529.920000	35435.835000	19887.795000	-11098.845000	4282.740000	0.870203	1.139556	1.318324	0.746174	-1.787994	-3.820568	-1.330275	0.400499	38.607800	-7.080640	29.116080	-0.844846	0.174743	0.526976	-1.000000	-1.000000	-1.000000	-1.000000	-1.000000	-1.000000	-1.000000	60.000000	0.000000	-1.000000	-1.000000	1695053.000000	1776579791.953880
11989.305000	6623.370000	35674.200000	54524.790000	35423.595000	19859.805000	-11107.170000	4279.365000	2.129413	3.342259	3.920251	2.785627	-1.329241	-7.869343	-0.084237	0.909167	38.607800	-7.080640	29.116080	-0.844846	0.174743	0.526976	-1.000000	-1.000000	-1.000000	-1.000000	-1.000000	-1.000000	-1.000000	60.000000	0.000000	-1.000000	-1.000000	1695054.000000	1776579791.953896
11995.470000	6631.875000	35682.435000	54531.810000	35428.230000	19857.510000	-11104.380000	4284.405000	1.544198	3.000052	3.757056	2.871991	-0.878411	-8.086303	0.450654	0.196439	38.607800	-7.080640	29.116080	-0.844846	0.174743	0.526976	-1.000000	-1.000000	-1.000000	-1.000000	-1.000000	-1.000000	-1.000000	60.000000	0.000000	-1.000000	-1.000000	1695055.000000	1776579791.957915
11995.245000	6631.650000	35682.930000	54530.820000	35424.945000	19853.820000	-11107.890000	4283.820000	0.135266	1.445040	2.064713	1.759528	-0.499528	-6.062548	0.281445	-0.822724	38.607800	-7.080640	29.116080	-0.844846	0.174743	0.526976	-1.000000	-1.000000	-1.000000	-1.000000	-1.000000	-1.000000	-1.000000	60.000000	0.000000	-1.000000	-1.000000	1695056.000000	1776579791.957926
11993.895000	6629.310000	35680.860000	54529.785000	35430.660000	19868.445000	-11107.710000	4283.235000	-0.950109	0.097541	0.362693	0.573378	0.403866	-1.851532	0.109270	-1.258352	38.607800	-7.080640	29.116080	-0.844846	0.174743	0.526976	-1.000000	-1.000000	-1.000000	-1.000000	-1.000000	-1.000000	-1.000000	60.000000	0.000000	-1.000000	-1.000000	1695057.000000	1776579791.961860
11993.445000	6626.835000	35680.050000	54531.675000	35441.775000	19897.155000	-11103.660000	4283.280000	-1.457639	-0.857607	-0.955083	-0.298302	2.146528	4.869027	0.432850	-1.054059	38.607800	-7.080640	29.116080	-0.844846	0.174743	0.526976	-1.000000	-1.000000	-1.000000	-1.000000	-1.000000	-1.000000	-1.000000	60.000000	0.000000	-1.000000	-1.000000	1695058.000000	1776579791.961868
11992.995000	6628.140000	35683.605000	54535.545000	35447.220000	19909.845000	-11103.300000	4280.535000	-1.567176	-1.647614	-1.904674	-0.757303	4.396792	12.788347	1.312823	-0.618788	38.607800	-7.080640	29.116080	-0.844846	0.174743	0.526976	-1.000000	-1.000000	-1.000000	-1.000000	-1.000000	-1.000000	-1.000000	60.000000	0.000000	-1.000000	-1.000000	1695059.000000	1776579791.965727
11997.000000	6635.295000	35690.085000	54540.315000	35454.555000	19920.780000	-11100.195000	4283.010000	-1.266568	-1.893001	-2.065960	-0.598829	6.003342	18.075064	2.298604	-0.247114	38.607800	-7.080640	29.116080	-0.844846	0.174743	0.526976	-1.000000	-1.000000	-1.000000	-1.000000	-1.000000	-1.000000	-1.000000	60.000000	0.000000	-1.000000	-1.000000	1695060.000000	1776579791.965734
11987.730000	6625.395000	35679.375000	54529.380000	35445.510000	19906.245000	-11104.965000	4274.910000	-0.612974	-1.232806	-1.330334	-0.137111	5.409811	16.313898	2.593571	-0.039103	-75.521740	1.892240	35.494760	-0.826292	0.228515	0.527403	-1.000000	-1.000000	-1.000000	-1.000000	-1.000000	-1.000000	-1.000000	60.000000	0.000000	-1.000000	-1.000000	1695061.000000	1776579791.969804
11988.900000	6625.935000	35680.455000	54529.560000	35432.190000	19850.355000	-11107.395000	4276.980000	-0.109171	-0.336898	-0.626676	-0.340666	1.611506	5.317361	1.595867	-0.069353	-75.521740	1.892240	35.494760	-0.826292	0.228515	0.527403	-1.000000	-1.000000	-1.000000	-1.000000	-1.000000	-1.000000	-1.000000	60.000000	0.000000	-1.000000	-1.000000	1695062.000000	1776579791.969808
11989.845000	6626.610000	35680.455000	54531.135000	35430.030000	19844.010000	-11113.380000	4277.835000	0.014121	0.013917	-0.641392	-1.394340	-4.553092	-12.411309	-0.563859	-0.124669	-75.521740	1.892240	35.494760	-0.826292	0.228515	0.527403	-1.000000	-1.000000	-1.000000	-1.000000	-1.000000	-1.000000	-1.000000	60.000000	0.000000	-1.000000	-1.000000	1695063.000000	1776579791.973666
11990.880000	6621.840000	35672.310000	54522.945000	35417.970000	19834.335000	-11124.315000	4277.385000	0.249060	-0.025708	-0.979727	-2.288967	-10.035503	-27.967252	-3.067028	0.247173	-75.521740	1.892240	35.494760	-0.826292	0.228515	0.527403	-1.000000	-1.000000	-1.000000	-1.000000	-1.000000	-1.000000	-1.000000	60.000000	0.000000	-1.000000	-1.000000	1695064.000000	1776579791.973672
11987.010000	6616.845000	35666.640000	54517.635000	35419.455000	19850.760000	-11129.895000	4273.380000	0.841186	-0.166611	-1.266475	-2.424270	-11.686504	-30.922435	-4.948307	0.932242	-75.521740	1.892240	35.494760	-0.826292	0.228515	0.527403	-1.000000	-1.000000	-1.000000	-1.000000	-1.000000	-1.000000	-1.000000	60.000000	0.000000	-1.000000	-1.000000	1695065.000000	1776579791.977765
11983.455000	6613.110000	35665.605000	54518.445000	35428.950000	19880.730000	-11121.615000	4270.455000	1.254642	-0.434288	-1.380301	-1.909877	-8.215305	-17.671675	-5.064900	1.230714	-75.521740	1.892240	35.494760	-0.826292	0.228515	0.527403	-1.000000	-1.000000	-1.000000	-1.000000	-1.000000	-1.000000	-1.000000	60.000000	0.000000	-1.000000	-1.000000	1695066.000000	1776579791.977774
11990.970000	6621.255000	35676.630000	54530.640000	35443.260000	19901.385000	-11098.125000	4278.330000	1.114334	-0.469842	-0.666992	-0.450755	-0.457703	5.923277	-2.050800	0.936296	-75.521740	1.892240	35.494760	-0.826292	0.228515	0.527403	-1.000000	-1.000000	-1.000000	-1.000000	-1.000000	-1.000000	-1.000000	60.000000	0.000000	-1.000000	-1.000000	1695067.000000	1776579791.981732
11990.070000	6620.220000	35675.235000	54529.110000	35440.335000	19886.085000	-11099.835000	4277.565000	0.895178	0.421510	1.479538	2.236410	8.417193	27.387895	3.933160	0.711187	-75.521740	1.892240	35.494760	-0.826292	0.228515	0.527403	-1.000000	-1.000000	-1.000000	-1.000000	-1.000000	-1.000000	-1.000000	60.000000	0.000000	-1.000000	-1.000000	1695068.000000	1776579791.981740
11990.655000	6619.410000	35672.715000	54523.575000	35431.065000	19872.225000	-11103.930000	4280.085000	0.983497	2.036620	4.090592	4.866627	13.589972	34.375410	9.375650	0.956466	-75.521740	1.892240	35.494760	-0.826292	0.228515	0.527403	-1.000000	-1.000000	-1.000000	-1.000000	-1.000000	-1.000000	-1.000000	60.000000	0.000000	-1.000000	-1.000000	1695069.000000	1776579791.985874
11990.700000	6621.480000	35674.785000	54524.025000	35427.960000	19875.420000	-11104.920000	4279.320000	1.006007	3.148396	5.156298	5.284477	11.795586	23.518786	9.909928	1.198226	-75.521740	1.892240	35.494760	-0.826292	0.228515	0.527403	-1.000000	-1.000000	-1.000000	-1.000000	-1.000000	-1.000000	-1.000000	60.000000	0.000000	-1.000000	-1.000000	1695070.000000	1776579791.985883
11996.460000	6629.760000	35684.865000	54533.835000	35434.800000	19884.285000	-11102.670000	4283.010000	0.652777	3.078098	4.051810	3.193787	4.510925	3.212714	4.899462	0.902386	-150.097360	1.938020	33.861940	-0.822447	0.222045	0.528319	-1.000000	-1.000000	-1.000000	-1.000000	-1.000000	-1.000000	-1.000000	60.000000	0.000000	-1.000000	-1.000000	1695071.000000	1776579791.989902
12001.680000	6634.620000	35689.950000	54537.570000	35442.090000	19892.745000	-11100.150000	4288.770000	0.253204	2.308908	2.053219	0.548423	-3.106038	-13.792774	-2.196447	0.212545	-150.097360	1.938020	33.861940	-0.822447	0.222045	0.528319	-1.000000	-1.000000	-1.000000	-1.000000	-1.000000	-1.000000	-1.000000	60.000000	0.000000	-1.000000	-1.000000	1695072.000000	1776579791.989909
12000.555000	6633.900000	35690.220000	54539.280000	35450.955000	19896.840000	-11103.840000	4286.835000	0.122497	1.341400	0.359746	-0.982995	-6.640724	-19.972738	-7.363857	-0.386798	-150.097360	1.938020	33.861940	-0.822447	0.222045	0.528319	-1.000000	-1.000000	-1.000000	-1.000000	-1.000000	-1.000000	-1.000000	60.000000	0.000000	-1.000000	-1.000000	1695073.000000	1776579791.993922
12000.780000	6632.370000	35687.745000	54535.950000	35443.395000	19849.815000	-11111.985000	4285.485000	-0.092459	-0.056258	-1.136900	-1.563091	-5.614361	-16.914382	-8.989525	-0.899917	-150.097360	1.938020	33.861940	-0.822447	0.222045	0.528319	-1.000000	-1.000000	-1.000000	-1.000000	-1.000000	-1.000000	-1.000000	60.000000	0.000000	-1.000000	-1.000000	1695074.000000	1776579791.993934
11995.380000	6622.065000	35676.315000	54526.230000	35437.860000	19859.085000	-11110.905000	4281.570000	-0.930978	-2.244401	-3.106166	-2.337999	-2.986942	-11.397420	-7.751678	-1.686977	-150.097360	1.938020	33.861940	-0.822447	0.222045	0.528319	-1.000000	-1.000000	-1.000000	-1.000000	-1.000000	-1.000000	-1.000000	60.000000	0.000000	-1.000000	-1.000000	1695075.000000	1776579791.998037
11996.550000	6623.145000	35678.295000	54527.850000	35438.310000	19865.880000	-11110.455000	4283.280000	-2.293426	-4.818304	-5.460048	-3.792304	-1.681259	-6.797347	-4.724845	-2.613602	-150.097360	1.938020	33.861940	-0.822447	0.222045	0.528319	-1.000000	-1.000000	-1.000000	-1.000000	-1.000000	-1.000000	-1.000000	60.000000	0.000000	-1.000000	-1.000000	1695076.000000	1776579791.998052
11998.485000	6626.880000	35682.030000	54531.000000	35442.855000	19877.310000	-11108.340000	4282.605000	-3.260409	-6.261106	-6.703777	-4.819841	-1.817365	-1.217282	-0.697891	-2.937904	-150.097360	1.938020	33.861940	-0.822447	0.222045	0.528319	-1.000000	-1.000000	-1.000000	-1.000000	-1.000000	-1.000000	-1.000000	60.000000	0.000000	-1.000000	-1.000000	1695077.000000	1776579792.001838
11995.425000	6625.305000	35681.670000	54530.955000	35444.700000	19891.035000	-11105.865000	4278.825000	-2.915286	-5.093358	-5.227557	-3.879079	-1.677132	6.474844	3.313856	-2.187598	-150.097360	1.938020	33.861940	-0.822447	0.222045	0.528319	-1.000000	-1.000000	-1.000000	-1.000000	-1.000000	-1.000000	-1.000000	60.000000	0.000000	-1.000000	-1.000000	1695078.000000	1776579792.001850
11987.955000	6617.430000	35674.830000	54523.980000	35434.575000	19887.345000	-11102.715000	4274.010000	-1.513571	-1.800145	-1.496248	-1.122821	-0.517504	13.614712	6.124726	-0.825646	-150.097360	1.938020	33.861940	-0.822447	0.222045	0.528319	-1.000000	-1.000000	-1.000000	-1.000000	-1.000000	-1.000000	-1.000000	60.000000	0.000000	-1.000000	-1.000000	1695079.000000	1776579792.005862
11987.325000	6615.720000	35673.930000	54526.455000	35436.060000	19877.085000	-11099.205000	4275.360000	-0.154096	1.458299	2.194014	1.701538	0.700326	15.774824	6.952838	0.385633	-150.097360	1.938020	33.861940	-0.822447	0.222045	0.528319	-1.000000	-1.000000	-1.000000	-1.000000	-1.000000	-1.000000	-1.000000	60.000000	0.000000	-1.000000	-1.000000	1695080.000000	1776579792.005870
11995.605000	6622.335000	35677.710000	54527.985000	35441.820000	19876.410000	-11096.775000	4284.855000	0.834200	3.292720	4.182491	3.333508	1.287705	10.726697	5.750740	1.459929	-163.510900	-4.715340	30.001160	-0.835020	0.162841	0.522948	-1.000000	-1.000000	-1.000000	-1.000000	-1.000000	-1.000000	-1.000000	60.000000	0.000000	-1.000000	-1.000000	1695081.000000	1776579792.009856
11998.620000	6625.575000	35680.185000	54527.760000	35444.430000	19893.555000	-11097.000000	4286.025000	2.112453	4.092099	4.602886	3.760934	1.798499	1.428630	3.073146	2.876731	-163.510900	-4.715340	30.001160	-0.835020	0.162841	0.522948	-1.000000	-1.000000	-1.000000	-1.000000	-1.000000	-1.000000	-1.000000	60.000000	0.000000	-1.000000	-1.000000	1695082.000000	1776579792.009883
11994.300000	6624.045000	35681.850000	54534.285000	35450.370000	19895.220000	-11108.340000	4279.320000	3.633466	4.446347	4.229726	3.418409	2.663558	-6.113773	-0.435211	4.094206	-163.510900	-4.715340	30.001160	-0.835020	0.162841	0.522948	-1.000000	-1.000000	-1.000000	-1.000000	-1.000000	-1.000000	-1.000000	60.000000	0.000000	-1.000000	-1.000000	1695083.000000	1776579792.013727
11986.920000	6614.640000	35676.900000	54537.660000	35452.395000	19866.510000	-11126.070000	4272.750000	3.980397	3.829566	3.247148	2.763884	3.410871	-9.000546	-4.427770	3.560932	-163.510900	-4.715340	30.001160	-0.835020	0.162841	0.522948	-1.000000	-1.000000	-1.000000	-1.000000	-1.000000	-1.000000	-1.000000	60.000000	0.000000	-1.000000	-1.000000	1695084.000000	1776579792.013735
11993.400000	6620.265000	35681.580000	54538.605000	35445.285000	19878.210000	-11109.510000	4280.265000	2.266080	1.666128	1.514848	1.997146	3.077107	-9.010097	-7.800634	0.947199	-163.510900	-4.715340	30.001160	-0.835020	0.162841	0.522948	-1.000000	-1.000000	-1.000000	-1.000000	-1.000000	-1.000000	-1.000000	59.000000	0.000000	-1.000000	-1.000000	1695085.000000	1776579792.017742
11998.080000	6624.135000	35680.995000	54525.240000	35436.510000	19911.555000	-11079.495000	4285.935000	-0.245889	-1.015380	-0.517085	0.623985	0.852920	-7.014680	-7.441978	-1.766015	-163.510900	-4.715340	30.001160	-0.835020	0.162841	0.522948	-1.000000	-1.000000	-1.000000	-1.000000	-1.000000	-1.000000	-1.000000	59.000000	0.000000	-1.000000	-1.000000	1695086.000000	1776579792.017752
12000.195000	6625.485000	35681.310000	54522.945000	35441.460000	19904.895000	-11086.470000	4284.990000	-1.571549	-2.414628	-2.015912	-1.934260	-2.706543	-1.728948	-1.495771	-2.511973	-163.510900	-4.715340	30.001160	-0.835020	0.162841	0.522948	-1.000000	-1.000000	-1.000000	-1.000000	-1.000000	-1.000000	-1.000000	59.000000	0.000000	-1.000000	-1.000000	1695087.000000	1776579792.021778
12002.760000	6632.325000	35690.265000	54533.835000	35446.320000	19897.065000	-11099.610000	4283.235000	-1.249632	-1.955980	-2.446622	-4.644605	-5.243566	4.757576	6.032460	-1.488207	-163.510900	-4.715340	30.001160	-0.835020	0.162841	0.522948	-1.000000	-1.000000	-1.000000	-1.000000	-1.000000	-1.000000	-1.000000	59.000000	0.000000	-1.000000	-1.000000	1695088.000000	1776579792.021786
12004.335000	6635.655000	35695.575000	54542.115000	35455.635000	19899.945000	-11096.640000	4285.845000	-0.269016	-0.393287	-1.585949	-4.989270	-4.558964	7.526875	8.708790	-0.290367	-163.510900	-4.715340	30.001160	-0.835020	0.162841	0.522948	-1.000000	-1.000000	-1.000000	-1.000000	-1.000000	-1.000000	-1.000000	59.000000	0.000000	-1.000000	-1.000000	1695089.000000	1776579792.025815
12001.050000	6631.065000	35692.290000	54541.935000	35458.830000	19902.780000	-11090.295000	4284.585000	0.209111	0.955623	0.032743	-2.016329	-0.849868	5.096064	5.189132	0.140480	-163.510900	-4.715340	30.001160	-0.835020	0.162841	0.522948	-1.000000	-1.000000	-1.000000	-1.000000	-1.000000	-1.000000	-1.000000	59.000000	0.000000	-1.000000	-1.000000	1695090.000000	1776579792.025834
12001.995000	6631.290000	35694.585000	54547.830000	35468.055000	19911.015000	-11084.985000	4286.385000	-0.347182	0.876252	1.020345	2.180213	3.511187	0.459204	-0.410961	-0.097800	-113.229200	-10.086860	23.485140	-0.844724	0.069946	0.525389	-1.000000	-1.000000	-1.000000	-1.000000	-1.000000	-1.000000	-1.000000	59.000000	0.000000	-1.000000	-1.000000	1695091.000000	1776579792.033357
11999.565000	6626.700000	35689.950000	54546.795000	35465.715000	19900.935000	-11086.380000	4286.340000	-1.547763	-0.747635	0.474955	4.726964	5.916476	-2.999702	-3.957190	-0.506256	-113.229200	-10.086860	23.485140	-0.844724	0.069946	0.525389	-1.000000	-1.000000	-1.000000	-1.000000	-1.000000	-1.000000	-1.000000	59.000000	0.000000	-1.000000	-1.000000	1695092.000000	1776579792.033386
12009.240000	6633.315000	35690.895000	54539.505000	35459.010000	19902.960000	-11079.810000	4295.430000	-2.322352	-2.676765	-1.188625	4.163079	4.884368	-4.324256	-4.395856	-0.530015	-113.229200	-10.086860	23.485140	-0.844724	0.069946	0.525389	-1.000000	-1.000000	-1.000000	-1.000000	-1.000000	-1.000000	-1.000000	59.000000	0.000000	-1.000000	-1.000000	1695093.000000	1776579792.033876
12013.650000	6642.090000	35696.160000	54540.360000	35458.875000	19893.105000	-11083.320000	4296.960000	-1.643892	-3.140321	-2.631175	0.880119	0.727268	-4.243286	-2.868021	0.181075	-113.229200	-10.086860	23.485140	-0.844724	0.069946	0.525389	-1.000000	-1.000000	-1.000000	-1.000000	-1.000000	-1.000000	-1.000000	59.000000	0.000000	-1.000000	-1.000000	1695094.000000	1776579792.033883
12015.360000	6645.285000	35700.120000	54548.685000	35463.240000	19885.410000	-11085.570000	4298.670000	0.397547	-1.300328	-2.511791	-2.888458	-4.125826	-3.614459	-1.116157	1.240082	-113.229200	-10.086860	23.485140	-0.844724	0.069946	0.525389	-1.000000	-1.000000	-1.000000	-1.000000	-1.000000	-1.000000	-1.000000	59.000000	0.000000	-1.000000	-1.000000	1695095.000000	1776579792.037879
12013.695000	6639.660000	35693.370000	54527.265000	35439.705000	19900.890000	-11079.540000	4296.015000	2.301879	1.543576	-0.839486	-4.847777	-7.051042	-2.491982	-0.227005	1.616876	-113.229200	-10.086860	23.485140	-0.844724	0.069946	0.525389	-1.000000	-1.000000	-1.000000	-1.000000	-1.000000	-1.000000	-1.000000	59.000000	0.000000	-1.000000	-1.000000	1695096.000000	1776579792.037908
12011.445000	6640.920000	35702.010000	54544.680000	35459.190000	19905.345000	-11081.115000	4292.415000	2.502130	2.993319	1.014392	-4.630725	-7.218412	0.089392	0.037468	0.617118	-113.229200	-10.086860	23.485140	-0.844724	0.069946	0.525389	-1.000000	-1.000000	-1.000000	-1.000000	-1.000000	-1.000000	-1.000000	59.000000	0.000000	-1.000000	-1.000000	1695097.000000	1776579792.041965
12003.255000	6633.630000	35698.185000	54546.570000	35463.555000	19906.245000	-11084.670000	4286.925000	0.674577	1.956606	2.002747	-2.530057	-4.394587	4.072024	0.201856	-1.477118	-113.229200	-10.086860	23.485140	-0.844724	0.069946	0.525389	-1.000000	-1.000000	-1.000000	-1.000000	-1.000000	-1.000000	-1.000000	59.000000	0.000000	-1.000000	-1.000000	1695098.000000	1776579792.041985
11997.315000	6627.285000	35691.435000	54540.855000	35456.220000	19896.570000	-11097.945000	4280.310000	-2.250974	-0.775529	1.819119	0.915174	0.821911	6.997683	-0.029099	-3.639349	-113.229200	-10.086860	23.485140	-0.844724	0.069946	0.525389	-1.000000	-1.000000	-1.000000	-1.000000	-1.000000	-1.000000	-1.000000	59.000000	0.000000	-1.000000	-1.000000	1695099.000000	1776579792.045781
12000.780000	6627.060000	35688.645000	54535.905000	35448.030000	19870.605000	-11110.185000	4281.795000	-4.539122	-3.485825	0.415757	3.659368	5.372753	5.899631	-1.243986	-4.639668	-113.229200	-10.086860	23.485140	-0.844724	0.069946	0.525389	-1.000000	-1.000000	-1.000000	-1.000000	-1.000000	-1.000000	-1.000000	59.000000	0.000000	-1.000000	-1.000000	1695100.000000	1776579792.045790
12004.470000	6629.580000	35692.695000	54537.930000	35445.105000	19847.925000	-11114.370000	4282.830000	-4.378901	-4.346064	-1.383282	3.915229	6.247970	-0.035751	-3.034412	-3.542059	-17.686340	-16.740220	13.062560	-0.842222	-0.015869	0.538695	-1.000000	-1.000000	-1.000000	-1.000000	-1.000000	-1.000000	-1.000000	59.000000	0.000000	-1.000000	-1.000000	1695101.000000	1776579792.049924
12013.965000	6639.840000	35703.360000	54548.100000	35458.110000	19883.745000	-11088.045000	4292.595000	-1.212926	-2.345435	-1.867885	2.396038	3.916664	-7.128294	-3.208121	-0.276832	-17.686340	-16.740220	13.062560	-0.842222	-0.015869	0.538695	-1.000000	-1.000000	-1.000000	-1.000000	-1.000000	-1.000000	-1.000000	59.000000	0.000000	-1.000000	-1.000000	1695102.000000	1776579792.049940
12027.915000	6652.755000	35713.485000	54558.810000	35472.015000	19914.255000	-11067.975000	4307.085000	3.725990	2.024991	0.035860	1.320407	1.650238	-8.135695	0.797503	4.232923	-17.686340	-16.740220	13.062560	-0.842222	-0.015869	0.538695	-1.000000	-1.000000	-1.000000	-1.000000	-1.000000	-1.000000	-1.000000	59.000000	0.000000	-1.000000	-1.000000	1695103.000000	1776579792.054023
12008.745000	6632.910000	35694.135000	54542.295000	35463.330000	19919.925000	-11077.785000	4290.345000	7.696261	6.343252	2.987044	1.429980	1.517975	0.095526	7.914067	7.918512	-17.686340	-16.740220	13.062560	-0.842222	-0.015869	0.538695	-1.000000	-1.000000	-1.000000	-1.000000	-1.000000	-1.000000	-1.000000	59.000000	0.000000	-1.000000	-1.000000	1695104.000000	1776579792.054050
12005.280000	6627.060000	35687.340000	54535.050000	35457.885000	19909.080000	-11082.645000	4288.320000	7.455323	6.998780	3.665987	0.866172	1.948600	11.127141	12.428116	7.897488	-17.686340	-16.740220	13.062560	-0.842222	-0.015869	0.538695	-1.000000	-1.000000	-1.000000	-1.000000	-1.000000	-1.000000	-1.000000	59.000000	0.000000	-1.000000	-1.000000	1695105.000000	1776579792.060333
12012.930000	6635.835000	35694.585000	54539.865000	35446.230000	19866.150000	-11091.600000	4295.610000	2.570424	2.976634	0.775433	-1.649062	0.301875	14.400817	9.607933	3.496052	-17.686340	-16.740220	13.062560	-0.842222	-0.015869	0.538695	-1.000000	-1.000000	-1.000000	-1.000000	-1.000000	-1.000000	-1.000000	59.000000	0.000000	-1.000000	-1.000000	1695106.000000	1776579792.060364
12022.290000	6651.405000	35713.530000	54558.315000	35459.100000	19875.555000	-11087.415000	4302.675000	-3.088159	-2.016838	-2.570247	-3.976452	-3.249487	5.674683	0.793478	-2.036667	-17.686340	-16.740220	13.062560	-0.842222	-0.015869	0.538695	-1.000000	-1.000000	-1.000000	-1.000000	-1.000000	-1.000000	-1.000000	59.000000	0.000000	-1.000000	-1.000000	1695107.000000	1776579792.061826
12020.580000	6648.570000	35711.505000	54558.540000	35466.165000	19891.485000	-11086.560000	4300.065000	-5.457426	-3.752693	-2.647675	-3.162396	-5.549655	-8.027871	-8.159843	-5.046174	-17.686340	-16.740220	13.062560	-0.842222	-0.015869	0.538695	-1.000000	-1.000000	-1.000000	-1.000000	-1.000000	-1.000000	-1.000000	59.000000	0.000000	-1.000000	-1.000000	1695108.000000	1776579792.061837
12012.885000	6636.150000	35697.645000	54546.165000	35460.720000	19905.795000	-11080.755000	4294.980000	-4.360018	-2.381834	-0.064338	0.132270	-4.297684	-15.126343	-12.014606	-5.034750	-17.686340	-16.740220	13.062560	-0.842222	-0.015869	0.538695	-1.000000	-1.000000	-1.000000	-1.000000	-1.000000	-1.000000	-1.000000	59.000000	0.000000	-1.000000	-1.000000	1695109.000000	1776579792.065936
12012.975000	6634.665000	35696.205000	54545.085000	35458.245000	19902.375000	-11075.535000	4296.420000	-2.364293	-1.168496	1.416641	2.267318	-0.898864	-11.114973	-9.515080	-3.727254	-17.686340	-16.740220	13.062560	-0.842222	-0.015869	0.538695	-1.000000	-1.000000	-1.000000	-1.000000	-1.000000	-1.000000	-1.000000	59.000000	0.000000	-1.000000	-1.000000	1695110.000000	1776579792.065948
12020.940000	6645.780000	35707.680000	54554.220000	35459.145000	19900.080000	-11073.285000	4301.280000	-1.051367	-1.503252	0.322042	1.549350	1.717852	-1.259947	-3.147124	-2.271652	67.922260	-19.838000	3.921820	-0.828123	-0.060058	0.554381	-1.000000	-1.000000	-1.000000	-1.000000	-1.000000	-1.000000	-1.000000	59.000000	0.000000	-1.000000	-1.000000	1695111.000000	1776579792.069995
12024.315000	6651.135000	35712.810000	54559.035000	35464.995000	19907.370000	-11075.580000	4302.585000	0.075241	-1.650567	-1.098856	-0.114226	2.462093	6.558357	3.046997	-0.621128	67.922260	-19.838000	3.921820	-0.828123	-0.060058	0.554381	-1.000000	-1.000000	-1.000000	-1.000000	-1.000000	-1.000000	-1.000000	59.000000	0.000000	-1.000000	-1.000000	1695112.000000	1776579792.070003
12023.910000	6648.795000	35710.830000	54558.405000	35469.315000	19911.420000	-11076.615000	4301.460000	1.525572	-0.226330	-0.806208	-0.577188	2.206296	8.741280	5.935424	1.120580	67.922260	-19.838000	3.921820	-0.828123	-0.060058	0.554381	-1.000000	-1.000000	-1.000000	-1.000000	-1.000000	-1.000000	-1.000000	59.000000	0.000000	-1.000000	-1.000000	1695113.000000	1776579792.073874
12011.580000	6632.280000	35695.395000	54545.625000	35466.795000	19908.810000	-11081.565000	4291.425000	2.368429	1.401251	0.246004	-0.173439	1.843266	6.273275	4.848908	2.042891	67.922260	-19.838000	3.921820	-0.828123	-0.060058	0.554381	-1.000000	-1.000000	-1.000000	-1.000000	-1.000000	-1.000000	-1.000000	59.000000	0.000000	-1.000000	-1.000000	1695114.000000	1776579792.073883
12012.255000	6628.995000	35691.120000	54543.465000	35466.480000	19902.105000	-11078.145000	4294.260000	1.402974	0.976379	-0.137731	-0.563986	1.232745	1.500456	1.431254	1.414488	67.922260	-19.838000	3.921820	-0.828123	-0.060058	0.554381	-1.000000	-1.000000	-1.000000	-1.000000	-1.000000	-1.000000	-1.000000	59.000000	0.000000	-1.000000	-1.000000	1695115.000000	1776579792.078006
12012.075000	6628.545000	35690.535000	54544.005000	35467.155000	19904.985000	-11078.415000	4293.495000	-0.826967	-1.369042	-2.097799	-1.962981	0.046034	-3.386165	-1.724489	-0.071611	67.922260	-19.838000	3.921820	-0.828123	-0.060058	0.554381	-1.000000	-1.000000	-1.000000	-1.000000	-1.000000	-1.000000	-1.000000	59.000000	0.000000	-1.000000	-1.000000	1695116.000000	1776579792.078014
12017.070000	6634.485000	35697.510000	54549.765000	35472.285000	19914.345000	-11077.515000	4296.960000	-2.272816	-3.017159	-3.336986	-2.675158	-1.238911	-6.147982	-2.851209	-0.876690	67.922260	-19.838000	3.921820	-0.828123	-0.060058	0.554381	-1.000000	-1.000000	-1.000000	-1.000000	-1.000000	-1.000000	-1.000000	59.000000	0.000000	-1.000000	-1.000000	1695117.000000	1776579792.082058
12014.010000	6632.235000	35695.935000	54546.885000	35464.635000	19908.270000	-11080.305000	4293.945000	-1.660349	-1.951298	-1.932654	-1.380095	-1.902119	-5.461335	-1.988288	-0.334423	67.922260	-19.838000	3.921820	-0.828123	-0.060058	0.554381	-1.000000	-1.000000	-1.000000	-1.000000	-1.000000	-1.000000	-1.000000	59.000000	0.000000	-1.000000	-1.000000	1695118.000000	1776579792.082067
12016.710000	6636.195000	35700.435000	54549.000000	35460.810000	19902.555000	-11077.920000	4297.635000	0.353350	1.215891	1.523190	1.232005	-2.056196	-2.531908	-0.321866	0.920004	67.922260	-19.838000	3.921820	-0.828123	-0.060058	0.554381	-1.000000	-1.000000	-1.000000	-1.000000	-1.000000	-1.000000	-1.000000	59.000000	0.000000	-1.000000	-1.000000	1695119.000000	1776579792.085938
12013.605000	6634.260000	35697.105000	54545.490000	35457.030000	19895.535000	-11082.870000	4293.675000	2.177151	4.254737	4.717728	3.342323	-2.208141	-0.016452	1.011778	1.857059	67.922260	-19.838000	3.921820	-0.828123	-0.060058	0.554381	-1.000000	-1.000000	-1.000000	-1.000000	-1.000000	-1.000000	-1.000000	59.000000	0.000000	-1.000000	-1.000000	1695120.000000	1776579792.085953
12012.750000	6635.565000	35698.455000	54546.660000	35458.110000	19887.930000	-11088.045000	4291.110000	2.670693	5.326991	5.673819	3.715765	-2.171633	0.627317	1.331658	1.771997	103.935860	-17.198020	-2.762060	-0.810423	-0.044495	0.563292	-1.000000	-1.000000	-1.000000	-1.000000	-1.000000	-1.000000	-1.000000	59.000000	0.000000	-1.000000	-1.000000	1695121.000000	1776579792.090000
12016.620000	6641.775000	35704.440000	54552.105000	35460.270000	19878.165000	-11088.000000	4295.070000	1.808097	4.147697	4.145735	2.546248	-1.255201	-0.190182	0.591856	0.703626	103.935860	-17.198020	-2.762060	-0.810423	-0.044495	0.563292	-1.000000	-1.000000	-1.000000	-1.000000	-1.000000	-1.000000	-1.000000	59.000000	0.000000	-1.000000	-1.000000	1695122.000000	1776579792.090020
12024.810000	6651.855000	35714.430000	54562.365000	35468.595000	19881.630000	-11081.340000	4302.360000	0.655680	1.998208	1.658891	1.178690	0.854139	-1.036322	-0.266278	-0.328274	103.935860	-17.198020	-2.762060	-0.810423	-0.044495	0.563292	-1.000000	-1.000000	-1.000000	-1.000000	-1.000000	-1.000000	-1.000000	59.000000	0.000000	-1.000000	-1.000000	1695123.000000	1776579792.094006
12023.910000	6650.055000	35712.585000	54561.780000	35471.385000	19897.830000	-11078.865000	4302.405000	0.254620	0.287053	-0.164675	0.674971	3.593623	-0.105401	-0.019831	-0.316495	103.935860	-17.198020	-2.762060	-0.810423	-0.044495	0.563292	-1.000000	-1.000000	-1.000000	-1.000000	-1.000000	-1.000000	-1.000000	59.000000	0.000000	-1.000000	-1.000000	1695124.000000	1776579792.094040
12016.665000	6637.230000	35698.545000	54550.215000	35468.280000	19916.010000	-11077.335000	4298.445000	0.249639	-1.156826	-1.483340	0.386741	5.480287	3.683343	1.365423	0.348134	103.935860	-17.198020	-2.762060	-0.810423	-0.044495	0.563292	-1.000000	-1.000000	-1.000000	-1.000000	-1.000000	-1.000000	-1.000000	59.000000	0.000000	-1.000000	-1.000000	1695125.000000	1776579792.097960
12011.310000	6628.185000	35687.745000	54539.280000	35461.800000	19904.580000	-11081.655000	4295.160000	-0.610663	-3.508546	-3.649708	-1.320289	4.872354	8.630268	2.540455	0.337516	103.935860	-17.198020	-2.762060	-0.810423	-0.044495	0.563292	-1.000000	-1.000000	-1.000000	-1.000000	-1.000000	-1.000000	-1.000000	59.000000	0.000000	-1.000000	-1.000000	1695126.000000	1776579792.097968
12011.040000	6628.995000	35688.420000	54538.740000	35456.310000	19901.745000	-11081.250000	4294.800000	-2.506066	-6.468983	-6.532976	-4.509698	1.442836	10.365293	2.174791	-0.849335	103.935860	-17.198020	-2.762060	-0.810423	-0.044495	0.563292	-1.000000	-1.000000	-1.000000	-1.000000	-1.000000	-1.000000	-1.000000	59.000000	0.000000	-1.000000	-1.000000	1695127.000000	1776579792.102054
12019.005000	6638.085000	35698.230000	54547.695000	35459.685000	19902.330000	-11080.395000	4300.740000	-3.856183	-7.573339	-7.601724	-6.672736	-3.037891	6.256304	0.335216	-2.183179	103.935860	-17.198020	-2.762060	-0.810423	-0.044495	0.563292	-1.000000	-1.000000	-1.000000	-1.000000	-1.000000	-1.000000	-1.000000	59.000000	0.000000	-1.000000	-1.000000	1695128.000000	1776579792.102101
12024.585000	6643.440000	35704.935000	54553.095000	35466.030000	19901.925000	-11083.095000	4302.900000	-2.884199	-4.710759	-4.531327	-5.106062	-5.667489	-1.456735	-1.734392	-2.211630	103.935860	-17.198020	-2.762060	-0.810423	-0.044495	0.563292	-1.000000	-1.000000	-1.000000	-1.000000	-1.000000	-1.000000	-1.000000	59.000000	0.000000	-1.000000	-1.000000	1695129.000000	1776579792.106021
12022.785000	6641.280000	35702.010000	54549.270000	35466.795000	19907.460000	-11079.450000	4303.305000	0.258383	1.132312	1.713333	-0.122657	-4.733250	-8.055248	-2.870238	-0.690507	103.935860	-17.198020	-2.762060	-0.810423	-0.044495	0.563292	-1.000000	-1.000000	-1.000000	-1.000000	-1.000000	-1.000000	-1.000000	59.000000	0.000000	-1.000000	-1.000000	1695130.000000	1776579792.106037
12017.835000	6637.905000	35700.210000	54548.415000	35460.765000	19896.030000	-11081.340000	4298.985000	3.246074	6.295513	7.209016	4.909822	-1.358779	-10.457358	-2.636883	1.102848	89.332040	-12.925220	-5.386780	-0.801573	0.014282	0.567442	-1.000000	-1.000000	-1.000000	-1.000000	-1.000000	-1.000000	-1.000000	59.000000	0.000000	-1.000000	-1.000000	1695131.000000	1776579792.109950
12010.545000	6630.660000	35694.225000	54544.095000	35456.670000	19902.060000	-11079.495000	4292.370000	3.696395	7.572567	8.526492	6.782575	1.585810	-8.774386	-1.369391	1.599905	89.332040	-12.925220	-5.386780	-0.801573	0.014282	0.567442	-1.000000	-1.000000	-1.000000	-1.000000	-1.000000	-1.000000	-1.000000	59.000000	0.000000	-1.000000	-1.000000	1695132.000000	1776579792.109982
12013.470000	6631.110000	35693.550000	54545.355000	35465.220000	19904.085000	-11075.130000	4295.385000	1.419534	4.675152	5.357562	4.960808	2.439527	-4.683828	0.225781	0.454864	89.332040	-12.925220	-5.386780	-0.801573	0.014282	0.567442	-1.000000	-1.000000	-1.000000	-1.000000	-1.000000	-1.000000	-1.000000	59.000000	0.000000	-1.000000	-1.000000	1695133.000000	1776579792.114430
12012.840000	6628.860000	35692.110000	54544.545000	35468.190000	19900.935000	-11081.745000	4293.270000	-1.489666	0.054142	0.202167	1.307185	2.014672	0.096594	1.468304	-1.093210	89.332040	-12.925220	-5.386780	-0.801573	0.014282	0.567442	-1.000000	-1.000000	-1.000000	-1.000000	-1.000000	-1.000000	-1.000000	59.000000	0.000000	-1.000000	-1.000000	1695134.000000	1776579792.114451
12007.485000	6625.350000	35683.020000	54528.255000	35453.970000	19894.590000	-11088.135000	4286.835000	-2.899042	-3.388273	-3.976958	-2.099045	1.417708	3.669151	1.570886	-1.738944	89.332040	-12.925220	-5.386780	-0.801573	0.014282	0.567442	-1.000000	-1.000000	-1.000000	-1.000000	-1.000000	-1.000000	-1.000000	59.000000	0.000000	-1.000000	-1.000000	1695135.000000	1776579792.118043
12007.260000	6627.780000	35677.305000	54515.430000	35442.450000	19890.225000	-11082.330000	4288.680000	-2.456004	-4.263458	-5.818898	-4.653396	0.117498	4.610160	0.362609	-1.347742	89.332040	-12.925220	-5.386780	-0.801573	0.014282	0.567442	-1.000000	-1.000000	-1.000000	-1.000000	-1.000000	-1.000000	-1.000000	59.000000	0.000000	-1.000000	-1.000000	1695136.000000	1776579792.118059
12007.485000	6624.585000	35685.720000	54531.360000	35447.220000	19888.380000	-11085.930000	4287.105000	-0.946499	-2.825342	-5.224598	-5.898274	-2.199041	3.170751	-0.986159	-0.309377	89.332040	-12.925220	-5.386780	-0.801573	0.014282	0.567442	-1.000000	-1.000000	-1.000000	-1.000000	-1.000000	-1.000000	-1.000000	59.000000	0.000000	-1.000000	-1.000000	1695137.000000	1776579792.122194
12012.615000	6631.020000	35694.270000	54541.305000	35455.455000	19885.050000	-11082.555000	4292.010000	0.929693	-0.227600	-2.185805	-4.071271	-3.614527	0.967693	-1.248054	1.091665	89.332040	-12.925220	-5.386780	-0.801573	0.014282	0.567442	-1.000000	-1.000000	-1.000000	-1.000000	-1.000000	-1.000000	-1.000000	59.000000	0.000000	-1.000000	-1.000000	1695138.000000	1776579792.122231
12010.860000	6626.295000	35688.510000	54536.580000	35452.170000	19875.780000	-11087.325000	4291.830000	2.636413	2.200675	2.378059	1.178673	-2.150497	-0.603215	-0.422730	2.491946	89.332040	-12.925220	-5.386780	-0.801573	0.014282	0.567442	-1.000000	-1.000000	-1.000000	-1.000000	-1.000000	-1.000000	-1.000000	59.000000	0.000000	-1.000000	-1.000000	1695139.000000	1776579792.126201
12015.630000	6628.815000	35689.185000	54536.580000	35452.980000	19887.030000	-11082.510000	4298.580000	3.540879	3.384500	5.873467	6.565055	1.326964	-0.994720	0.692379	3.397108	89.332040	-12.925220	-5.386780	-0.801573	0.014282	0.567442	-1.000000	-1.000000	-1.000000	-1.000000	-1.000000	-1.000000	-1.000000	59.000000	0.000000	-1.000000	-1.000000	1695140.000000	1776579792.126240
12016.440000	6630.570000	35691.840000	54541.980000	35464.680000	19918.980000	-11074.050000	4298.985000	3.262143	2.982993	6.195186	8.402586	4.376644	0.655501	1.635071	3.427895	44.360820	-10.346280	-3.937080	-0.802244	0.082580	0.572630	-1.000000	-1.000000	-1.000000	-1.000000	-1.000000	-1.000000	-1.000000	59.000000	0.000000	-1.000000	-1.000000	1695141.000000	1776579792.130010
12016.260000	6630.660000	35691.750000	54542.880000	35467.200000	19916.685000	-11075.265000	4297.545000	1.932945	1.579646	3.688894	6.175625	5.694508	4.741302	2.415774	2.374506	44.360820	-10.346280	-3.937080	-0.802244	0.082580	0.572630	-1.000000	-1.000000	-1.000000	-1.000000	-1.000000	-1.000000	-1.000000	59.000000	0.000000	-1.000000	-1.000000	1695142.000000	1776579792.130018
12016.935000	6631.650000	35693.370000	54543.870000	35462.385000	19899.990000	-11079.765000	4295.790000	-0.015413	-0.014257	0.190694	1.816721	4.959785	8.145439	2.509766	0.243557	44.360820	-10.346280	-3.937080	-0.802244	0.082580	0.572630	-1.000000	-1.000000	-1.000000	-1.000000	-1.000000	-1.000000	-1.000000	59.000000	0.000000	-1.000000	-1.000000	1695143.000000	1776579792.135276
12014.730000	6629.085000	35690.625000	54538.380000	35452.800000	19889.235000	-11086.020000	4292.145000	-1.976089	-1.324690	-2.672697	-2.582346	1.894883	6.084119	1.032937	-2.410067	44.360820	-10.346280	-3.937080	-0.802244	0.082580	0.572630	-1.000000	-1.000000	-1.000000	-1.000000	-1.000000	-1.000000	-1.000000	59.000000	0.000000	-1.000000	-1.000000	1695144.000000	1776579792.135290
12020.535000	6634.935000	35695.710000	54541.845000	35449.605000	19868.535000	-11088.090000	4296.870000	-3.231179	-2.083178	-4.068770	-5.663978	-2.891402	-2.072060	-1.807828	-4.441322	44.360820	-10.346280	-3.937080	-0.802244	0.082580	0.572630	-1.000000	-1.000000	-1.000000	-1.000000	-1.000000	-1.000000	-1.000000	59.000000	0.000000	-1.000000	-1.000000	1695145.000000	1776579792.138051
12016.620000	6632.640000	35693.145000	54542.430000	35447.175000	19847.925000	-11094.570000	4293.720000	-3.262873	-2.059617	-3.844562	-6.582999	-7.197732	-11.941361	-4.482665	-4.743713	44.360820	-10.346280	-3.937080	-0.802244	0.082580	0.572630	-1.000000	-1.000000	-1.000000	-1.000000	-1.000000	-1.000000	-1.000000	59.000000	0.000000	-1.000000	-1.000000	1695146.000000	1776579792.138068
12017.205000	6631.200000	35692.965000	54545.265000	35460.450000	19871.505000	-11088.360000	4294.800000	-2.274297	-1.428971	-2.518665	-5.130024	-8.310191	-17.345559	-5.300860	-3.210016	44.360820	-10.346280	-3.937080	-0.802244	0.082580	0.572630	-1.000000	-1.000000	-1.000000	-1.000000	-1.000000	-1.000000	-1.000000	59.000000	0.000000	-1.000000	-1.000000	1695147.000000	1776579792.142059
12009.465000	6626.520000	35692.515000	54547.335000	35479.305000	19917.315000	-11078.865000	4286.925000	-1.125502	-0.864238	-0.994859	-2.091903	-4.710262	-12.820558	-3.295840	-0.926702	44.360820	-10.346280	-3.937080	-0.802244	0.082580	0.572630	-1.000000	-1.000000	-1.000000	-1.000000	-1.000000	-1.000000	-1.000000	59.000000	0.000000	-1.000000	-1.000000	1695148.000000	1776579792.142069
12007.800000	6627.105000	35694.180000	54549.585000	35476.290000	19917.360000	-11076.210000	4285.755000	-0.548816	-0.770645	0.169827	1.125339	2.256784	1.803625	1.067814	0.752777	44.360820	-10.346280	-3.937080	-0.802244	0.082580	0.572630	-1.000000	-1.000000	-1.000000	-1.000000	-1.000000	-1.000000	-1.000000	59.000000	0.000000	-1.000000	-1.000000	1695149.000000	1776579792.145975
12008.610000	6621.570000	35682.165000	54529.605000	35459.190000	19900.485000	-11087.190000	4286.790000	-0.447228	-0.896382	0.718825	2.881003	7.866712	17.510532	5.262707	1.376355	44.360820	-10.346280	-3.937080	-0.802244	0.082580	0.572630	-1.000000	-1.000000	-1.000000	-1.000000	-1.000000	-1.000000	-1.000000	59.000000	0.000000	-1.000000	-1.000000	1695150.000000	1776579792.145984
12013.560000	6627.195000	35687.835000	54533.160000	35458.155000	19899.945000	-11088.315000	4289.085000	0.027816	-0.717145	0.476048	2.024129	7.569101	22.631218	6.209716	1.586607	-6.531280	-7.538440	-3.189340	-0.803831	0.123047	0.577757	-1.000000	-1.000000	-1.000000	-1.000000	-1.000000	-1.000000	-1.000000	59.000000	0.000000	-1.000000	-1.000000	1695151.000000	1776579792.151452
12020.580000	6637.095000	35700.345000	54545.265000	35465.805000	19918.755000	-11075.220000	4296.285000	1.521259	0.354518	0.220765	-0.211911	1.995085	14.559039	3.594129	2.153676	-6.531280	-7.538440	-3.189340	-0.803831	0.123047	0.577757	-1.000000	-1.000000	-1.000000	-1.000000	-1.000000	-1.000000	-1.000000	59.000000	0.000000	-1.000000	-1.000000	1695152.000000	1776579792.151467
12027.510000	6638.355000	35697.735000	54539.775000	35446.770000	19877.220000	-11083.725000	4304.520000	3.697939	2.441893	1.171984	-1.002472	-4.142349	0.169275	0.077215	3.240136	-6.531280	-7.538440	-3.189340	-0.803831	0.123047	0.577757	-1.000000	-1.000000	-1.000000	-1.000000	-1.000000	-1.000000	-1.000000	59.000000	0.000000	-1.000000	-1.000000	1695153.000000	1776579792.153951
12022.785000	6633.945000	35690.535000	54533.790000	35441.280000	19861.200000	-11091.915000	4299.210000	5.195103	4.263667	2.663740	0.211002	-7.561802	-13.399273	-2.412693	4.112812	-6.531280	-7.538440	-3.189340	-0.803831	0.123047	0.577757	-1.000000	-1.000000	-1.000000	-1.000000	-1.000000	-1.000000	-1.000000	59.000000	0.000000	-1.000000	-1.000000	1695154.000000	1776579792.153962
12022.380000	6635.745000	35696.385000	54544.770000	35454.780000	19876.185000	-11084.625000	4299.885000	4.425457	4.015047	2.767265	1.671348	-7.443621	-21.481722	-3.806810	3.413538	-6.531280	-7.538440	-3.189340	-0.803831	0.123047	0.577757	-1.000000	-1.000000	-1.000000	-1.000000	-1.000000	-1.000000	-1.000000	59.000000	0.000000	-1.000000	-1.000000	1695155.000000	1776579792.158099
12020.760000	6633.540000	35694.270000	54541.350000	35459.145000	19901.745000	-11073.330000	4300.965000	1.158218	1.472943	1.150745	2.378306	-3.526638	-19.618408	-3.635275	0.715271	-6.531280	-7.538440	-3.189340	-0.803831	0.123047	0.577757	-1.000000	-1.000000	-1.000000	-1.000000	-1.000000	-1.000000	-1.000000	59.000000	0.000000	-1.000000	-1.000000	1695156.000000	1776579792.158112
12010.005000	6621.210000	35683.200000	54534.285000	35465.130000	19920.555000	-11071.440000	4292.145000	-3.134925	-2.060678	-1.108171	2.150759	2.919933	-6.893130	-1.255642	-2.803877	-6.531280	-7.538440	-3.189340	-0.803831	0.123047	0.577757	-1.000000	-1.000000	-1.000000	-1.000000	-1.000000	-1.000000	-1.000000	59.000000	0.000000	-1.000000	-1.000000	1695157.000000	1776579792.162063
12004.920000	6616.260000	35679.510000	54533.205000	35468.370000	19922.985000	-11076.885000	4285.890000	-6.645205	-5.233395	-3.255294	0.704053	8.570718	10.268148	1.988345	-5.714728	-6.531280	-7.538440	-3.189340	-0.803831	0.123047	0.577757	-1.000000	-1.000000	-1.000000	-1.000000	-1.000000	-1.000000	-1.000000	59.000000	0.000000	-1.000000	-1.000000	1695158.000000	1776579792.162072
12008.835000	6622.155000	35686.350000	54539.595000	35468.460000	19918.035000	-11079.180000	4290.435000	-7.866278	-6.677163	-4.434277	-1.294888	10.362715	21.598628	3.449515	-6.932643	-6.531280	-7.538440	-3.189340	-0.803831	0.123047	0.577757	-1.000000	-1.000000	-1.000000	-1.000000	-1.000000	-1.000000	-1.000000	59.000000	0.000000	-1.000000	-1.000000	1695159.000000	1776579792.166345
12019.365000	6632.820000	35694.945000	54541.935000	35457.210000	19891.845000	-11084.895000	4297.995000	-5.626440	-4.899837	-3.282715	-2.206909	7.294191	20.242009	1.949489	-5.400907	-6.531280	-7.538440	-3.189340	-0.803831	0.123047	0.577757	-1.000000	-1.000000	-1.000000	-1.000000	-1.000000	-1.000000	-1.000000	59.000000	0.000000	-1.000000	-1.000000	1695160.000000	1776579792.166398
12018.105000	6631.695000	35693.685000	54539.325000	35447.265000	19865.880000	-11090.655000	4294.755000	-0.290697	0.019996	0.323848	-1.387139	0.533201	6.860582	-1.351295	-1.186317	-39.935420	-3.326680	-3.631880	-0.801023	0.128845	0.581480	-1.000000	-1.000000	-1.000000	-1.000000	-1.000000	-1.000000	-1.000000	59.000000	0.000000	-1.000000	-1.000000	1695161.000000	1776579792.170042
12015.315000	6629.445000	35691.525000	54538.560000	35452.395000	19865.880000	-11090.925000	4291.380000	5.349765	5.311850	4.161942	0.064141	-6.768515	-10.806903	-4.233434	3.470864	-39.935420	-3.326680	-3.631880	-0.801023	0.128845	0.581480	-1.000000	-1.000000	-1.000000	-1.000000	-1.000000	-1.000000	-1.000000	59.000000	0.000000	-1.000000	-1.000000	1695162.000000	1776579792.170050
12013.920000	6629.490000	35691.885000	54541.305000	35466.120000	19901.700000	-11071.305000	4293.585000	7.935247	7.604914	5.557193	0.853216	-10.348200	-21.491028	-4.494278	5.871683	-39.935420	-3.326680	-3.631880	-0.801023	0.128845	0.581480	-1.000000	-1.000000	-1.000000	-1.000000	-1.000000	-1.000000	-1.000000	59.000000	0.000000	-1.000000	-1.000000	1695163.000000	1776579792.174175
12016.170000	6631.200000	35695.530000	54544.545000	35470.755000	19916.775000	-11067.255000	4296.825000	6.441752	5.932392	3.948739	0.844526	-7.751717	-17.533483	-1.078112	5.365586	-39.935420	-3.326680	-3.631880	-0.801023	0.128845	0.581480	-1.000000	-1.000000	-1.000000	-1.000000	-1.000000	-1.000000	-1.000000	59.000000	0.000000	-1.000000	-1.000000	1695164.000000	1776579792.174202
12011.085000	6624.180000	35688.960000	54536.535000	35460.630000	19907.370000	-11079.720000	4290.435000	2.490258	1.865637	0.797418	0.442947	-1.123623	-2.084117	3.972375	3.115628	-39.935420	-3.326680	-3.631880	-0.801023	0.128845	0.581480	-1.000000	-1.000000	-1.000000	-1.000000	-1.000000	-1.000000	-1.000000	59.000000	0.000000	-1.000000	-1.000000	1695165.000000	1776579792.178085
12015.360000	6628.095000	35692.110000	54543.330000	35458.470000	19874.565000	-11087.415000	4291.920000	-1.531574	-2.334932	-2.205302	-0.223455	4.363111	12.400553	6.287742	0.367609	-39.935420	-3.326680	-3.631880	-0.801023	0.128845	0.581480	-1.000000	-1.000000	-1.000000	-1.000000	-1.000000	-1.000000	-1.000000	59.000000	0.000000	-1.000000	-1.000000	1695166.000000	1776579792.178096
12020.355000	6632.955000	35695.395000	54550.710000	35465.985000	19870.245000	-11086.380000	4296.060000	-3.745082	-4.715915	-3.822923	-0.671598	5.579953	15.291708	3.785846	-1.836705	-39.935420	-3.326680	-3.631880	-0.801023	0.128845	0.581480	-1.000000	-1.000000	-1.000000	-1.000000	-1.000000	-1.000000	-1.000000	59.000000	0.000000	-1.000000	-1.000000	1695167.000000	1776579792.181985
12024.540000	6638.130000	35702.370000	54556.785000	35478.405000	19902.285000	-11077.425000	4300.740000	-3.371367	-4.226878	-3.324968	-0.088901	3.847106	7.604501	-0.951239	-2.502255	-39.935420	-3.326680	-3.631880	-0.801023	0.128845	0.581480	-1.000000	-1.000000	-1.000000	-1.000000	-1.000000	-1.000000	-1.000000	59.000000	0.000000	-1.000000	-1.000000	1695168.000000	1776579792.181997
12017.655000	6628.950000	35695.890000	54543.240000	35471.520000	19935.900000	-11067.345000	4296.690000	-1.358426	-1.721988	-1.206520	1.042117	1.942018	-0.272955	-3.610128	-1.588809	-39.935420	-3.326680	-3.631880	-0.801023	0.128845	0.581480	-1.000000	-1.000000	-1.000000	-1.000000	-1.000000	-1.000000	-1.000000	59.000000	0.000000	-1.000000	-1.000000	1695169.000000	1776579792.186055
12012.750000	6621.075000	35692.335000	54536.445000	35460.585000	19925.280000	-11068.830000	4292.910000	0.158503	0.339229	0.710857	0.824834	0.373612	-0.983284	-2.445093	-0.392196	-39.935420	-3.326680	-3.631880	-0.801023	0.128845	0.581480	-1.000000	-1.000000	-1.000000	-1.000000	-1.000000	-1.000000	-1.000000	59.000000	0.000000	-1.000000	-1.000000	1695170.000000	1776579792.186067
12014.460000	6622.965000	35696.610000	54542.025000	35460.495000	19912.545000	-11070.945000	4294.710000	-0.055469	0.332211	1.045534	-1.354487	-1.859326	2.270781	0.507597	-0.141063	-49.045640	-0.122080	-0.747740	-0.798216	0.107849	0.583434	-1.000000	-1.000000	-1.000000	-1.000000	-1.000000	-1.000000	-1.000000	59.000000	0.000000	-1.000000	-1.000000	1695171.000000	1776579792.190084
12016.800000	6627.240000	35698.905000	54545.625000	35456.400000	19899.315000	-11072.430000	4296.375000	-1.112828	-0.753024	0.339871	-3.385135	-4.339656	1.980753	2.094173	-0.629913	-49.045640	-0.122080	-0.747740	-0.798216	0.107849	0.583434	-1.000000	-1.000000	-1.000000	-1.000000	-1.000000	-1.000000	-1.000000	59.000000	0.000000	-1.000000	-1.000000	1695172.000000	1776579792.190094
12017.790000	6630.480000	35691.525000	54543.285000	35458.155000	19896.030000	-11073.195000	4296.960000	-1.376264	-0.828143	-0.227342	-3.074914	-5.328036	-3.918949	1.154334	-0.852015	-49.045640	-0.122080	-0.747740	-0.798216	0.107849	0.583434	-1.000000	-1.000000	-1.000000	-1.000000	-1.000000	-1.000000	-1.000000	59.000000	0.000000	-1.000000	-1.000000	1695173.000000	1776579792.194017
12014.685000	6624.360000	35684.235000	54541.980000	35466.615000	19909.935000	-11076.750000	4293.135000	-0.423646	0.593015	-0.626884	-0.761919	-3.671190	-10.570095	-1.196818	-0.451994	-49.045640	-0.122080	-0.747740	-0.798216	0.107849	0.583434	-1.000000	-1.000000	-1.000000	-1.000000	-1.000000	-1.000000	-1.000000	59.000000	0.000000	-1.000000	-1.000000	1695174.000000	1776579792.194026
12013.155000	6622.110000	35692.470000	54551.070000	35481.690000	19934.820000	-11074.320000	4292.325000	0.812366	2.034986	-1.133523	1.809364	0.501929	-11.448551	-3.139486	0.060169	-49.045640	-0.122080	-0.747740	-0.798216	0.107849	0.583434	-1.000000	-1.000000	-1.000000	-1.000000	-1.000000	-1.000000	-1.000000	59.000000	0.000000	-1.000000	-1.000000	1695175.000000	1776579792.198097
12010.005000	6620.535000	35687.160000	54543.015000	35472.285000	19913.355000	-11078.775000	4289.535000	1.313576	2.092221	-1.109768	3.419035	5.396081	-4.950872	-3.472706	0.188984	-49.045640	-0.122080	-0.747740	-0.798216	0.107849	0.583434	-1.000000	-1.000000	-1.000000	-1.000000	-1.000000	-1.000000	-1.000000	59.000000	0.000000	-1.000000	-1.000000	1695176.000000	1776579792.198105
12014.865000	6632.685000	35695.170000	54538.605000	35453.475000	19864.935000	-11084.940000	4290.435000	0.998826	1.134994	-0.008089	3.305523	7.467400	2.640922	-2.324103	0.012032	-49.045640	-0.122080	-0.747740	-0.798216	0.107849	0.583434	-1.000000	-1.000000	-1.000000	-1.000000	-1.000000	-1.000000	-1.000000	59.000000	0.000000	-1.000000	-1.000000	1695177.000000	1776579792.202035
12016.260000	6634.080000	35700.975000	54543.375000	35455.995000	19877.895000	-11081.070000	4291.470000	0.629603	0.655569	1.866617	1.430092	4.336633	3.925801	-0.647781	-0.018598	-49.045640	-0.122080	-0.747740	-0.798216	0.107849	0.583434	-1.000000	-1.000000	-1.000000	-1.000000	-1.000000	-1.000000	-1.000000	59.000000	0.000000	-1.000000	-1.000000	1695178.000000	1776579792.202047
12014.730000	6629.400000	35696.835000	54544.455000	35467.110000	19911.420000	-11075.220000	4291.605000	0.725450	1.031904	3.598800	-0.773094	-1.587723	0.604268	1.140815	0.397550	-49.045640	-0.122080	-0.747740	-0.798216	0.107849	0.583434	-1.000000	-1.000000	-1.000000	-1.000000	-1.000000	-1.000000	-1.000000	59.000000	0.000000	-1.000000	-1.000000	1695179.000000	1776579792.206083
12016.395000	6629.580000	35696.430000	54544.230000	35468.055000	19915.200000	-11070.045000	4295.205000	0.947771	1.036331	3.842470	-1.740641	-5.205845	0.541467	3.149740	1.108316	-49.045640	-0.122080	-0.747740	-0.798216	0.107849	0.583434	-1.000000	-1.000000	-1.000000	-1.000000	-1.000000	-1.000000	-1.000000	59.000000	0.000000	-1.000000	-1.000000	1695180.000000	1776579792.206095
12013.110000	6625.530000	35692.695000	54541.260000	35463.285000	19893.870000	-11074.905000	4293.135000	0.746230	-0.192347	1.934840	-1.394185	-4.420113	5.411805	4.764307	1.671396	-41.354600	3.387720	0.381500	-0.798155	0.075012	0.581419	-1.000000	-1.000000	-1.000000	-1.000000	-1.000000	-1.000000	-1.000000	59.000000	0.000000	-1.000000	-1.000000	1695181.000000	1776579792.210221
12011.535000	6623.505000	35692.290000	54541.305000	35460.585000	19895.625000	-11079.540000	4290.615000	-0.045361	-2.115614	-1.213191	-0.662592	-1.400250	9.094788	4.574904	1.556448	-41.354600	3.387720	0.381500	-0.798155	0.075012	0.581419	-1.000000	-1.000000	-1.000000	-1.000000	-1.000000	-1.000000	-1.000000	59.000000	0.000000	-1.000000	-1.000000	1695182.000000	1776579792.210235
12016.395000	6629.355000	35698.995000	54548.505000	35465.895000	19903.095000	-11078.910000	4293.135000	-1.026655	-3.425089	-3.705753	-0.070929	1.031259	7.330269	2.026726	0.576972	-41.354600	3.387720	0.381500	-0.798155	0.075012	0.581419	-1.000000	-1.000000	-1.000000	-1.000000	-1.000000	-1.000000	-1.000000	59.000000	0.000000	-1.000000	-1.000000	1695183.000000	1776579792.214084
12014.865000	6627.330000	35695.125000	54545.265000	35463.285000	19893.330000	-11081.520000	4292.415000	-1.422803	-3.026191	-4.058718	0.532019	1.991377	1.953046	-1.541495	-0.691947	-41.354600	3.387720	0.381500	-0.798155	0.075012	0.581419	-1.000000	-1.000000	-1.000000	-1.000000	-1.000000	-1.000000	-1.000000	59.000000	0.000000	-1.000000	-1.000000	1695184.000000	1776579792.214095
12019.995000	6631.920000	35699.715000	54546.210000	35453.520000	19870.110000	-11081.790000	4297.320000	-0.888291	-1.023081	-2.407322	1.025979	1.664364	-3.858482	-4.099496	-1.393231	-41.354600	3.387720	0.381500	-0.798155	0.075012	0.581419	-1.000000	-1.000000	-1.000000	-1.000000	-1.000000	-1.000000	-1.000000	59.000000	0.000000	-1.000000	-1.000000	1695185.000000	1776579792.218217
12026.745000	6639.570000	35707.995000	54551.475000	35451.585000	19859.760000	-11079.180000	4302.720000	0.317310	1.536902	0.088198	1.049546	0.217415	-8.703511	-4.480293	-1.046434	-41.354600	3.387720	0.381500	-0.798155	0.075012	0.581419	-1.000000	-1.000000	-1.000000	-1.000000	-1.000000	-1.000000	-1.000000	59.000000	0.000000	-1.000000	-1.000000	1695186.000000	1776579792.218235
12026.745000	6639.660000	35707.995000	54553.860000	35465.445000	19891.710000	-11069.595000	4305.555000	1.648257	3.585593	2.399063	0.774686	-1.300561	-10.572016	-2.601456	0.173817	-41.354600	3.387720	0.381500	-0.798155	0.075012	0.581419	-1.000000	-1.000000	-1.000000	-1.000000	-1.000000	-1.000000	-1.000000	59.000000	0.000000	-1.000000	-1.000000	1695187.000000	1776579792.222108
12020.130000	6632.055000	35700.300000	54548.325000	35466.660000	19897.515000	-11070.090000	4300.605000	2.108576	4.011914	3.386105	0.396613	-1.082387	-6.463743	0.660240	1.277262	-41.354600	3.387720	0.381500	-0.798155	0.075012	0.581419	-1.000000	-1.000000	-1.000000	-1.000000	-1.000000	-1.000000	-1.000000	59.000000	0.000000	-1.000000	-1.000000	1695188.000000	1776579792.222131
12017.295000	6628.095000	35696.430000	54543.645000	35460.405000	19877.940000	-11079.540000	4296.285000	0.799005	2.032128	2.052681	-0.470504	0.907552	2.340009	3.303184	1.012312	-41.354600	3.387720	0.381500	-0.798155	0.075012	0.581419	-1.000000	-1.000000	-1.000000	-1.000000	-1.000000	-1.000000	-1.000000	59.000000	0.000000	-1.000000	-1.000000	1695189.000000	1776579792.226181
12014.820000	6625.755000	35695.800000	54545.355000	35473.185000	19909.935000	-11075.130000	4295.475000	-1.816366	-1.580789	-1.032105	-1.891774	2.693327	9.780690	3.401303	-0.817515	-41.354600	3.387720	0.381500	-0.798155	0.075012	0.581419	-1.000000	-1.000000	-1.000000	-1.000000	-1.000000	-1.000000	-1.000000	59.000000	0.000000	-1.000000	-1.000000	1695190.000000	1776579792.226218
12010.185000	6620.895000	35692.650000	54545.265000	35482.005000	19937.025000	-11068.920000	4292.865000	-4.074256	-4.700160	-3.786305	-2.899070	3.231435	12.601142	1.340805	-2.927324	-24.095540	5.691980	-4.059160	-0.800474	0.045471	0.579771	-1.000000	-1.000000	-1.000000	-1.000000	-1.000000	-1.000000	-1.000000	59.000000	0.000000	-1.000000	-1.000000	1695191.000000	1776579792.230032
12011.760000	6624.180000	35695.620000	54547.020000	35473.455000	19928.250000	-11068.470000	4292.235000	-4.548862	-5.512822	-4.414670	-2.478092	2.749525	11.759888	-0.676410	-3.770454	-24.095540	5.691980	-4.059160	-0.800474	0.045471	0.579771	-1.000000	-1.000000	-1.000000	-1.000000	-1.000000	-1.000000	-1.000000	59.000000	0.000000	-1.000000	-1.000000	1695192.000000	1776579792.230047
12012.750000	6627.420000	35699.625000	54550.485000	35473.410000	19925.595000	-11069.820000	4291.785000	-2.842872	-3.498204	-2.522368	-0.639555	0.976537	7.241790	-1.403420	-2.777141	-24.095540	5.691980	-4.059160	-0.800474	0.045471	0.579771	-1.000000	-1.000000	-1.000000	-1.000000	-1.000000	-1.000000	-1.000000	59.000000	0.000000	-1.000000	-1.000000	1695193.000000	1776579792.237654
12003.525000	6619.140000	35692.245000	54542.835000	35466.120000	19909.485000	-11086.065000	4281.345000	0.159443	0.252634	0.760923	1.550042	-2.150219	-1.450115	-1.576402	-0.668480	-24.095540	5.691980	-4.059160	-0.800474	0.045471	0.579771	-1.000000	-1.000000	-1.000000	-1.000000	-1.000000	-1.000000	-1.000000	59.000000	0.000000	-1.000000	-1.000000	1695194.000000	1776579792.237666
12005.685000	6624.450000	35696.835000	54545.895000	35466.390000	19897.920000	-11092.095000	4281.165000	2.694736	3.526340	3.403570	2.681486	-5.336716	-11.949456	-2.506676	1.139410	-24.095540	5.691980	-4.059160	-0.800474	0.045471	0.579771	-1.000000	-1.000000	-1.000000	-1.000000	-1.000000	-1.000000	-1.000000	59.000000	0.000000	-1.000000	-1.000000	1695195.000000	1776579792.238201
12007.845000	6627.870000	35695.710000	54540.585000	35460.450000	19888.830000	-11082.645000	4285.890000	3.762780	4.933919	4.157371	2.210869	-6.820805	-19.628372	-3.796902	2.056319	-24.095540	5.691980	-4.059160	-0.800474	0.045471	0.579771	-1.000000	-1.000000	-1.000000	-1.000000	-1.000000	-1.000000	-1.000000	59.000000	0.000000	-1.000000	-1.000000	1695196.000000	1776579792.238207
12013.830000	6631.785000	35697.600000	54540.495000	35456.085000	19879.650000	-11066.445000	4296.105000	3.825393	4.727847	3.274957	0.745060	-5.830170	-20.563281	-3.014254	2.864123	-24.095540	5.691980	-4.059160	-0.800474	0.045471	0.579771	-1.000000	-1.000000	-1.000000	-1.000000	-1.000000	-1.000000	-1.000000	59.000000	0.000000	-1.000000	-1.000000	1695197.000000	1776579792.242152
12023.190000	6633.045000	35698.995000	54545.490000	35457.390000	19883.610000	-11061.360000	4308.795000	3.733187	3.577018	1.652462	-0.602659	-2.902064	-13.909770	1.204125	4.368392	-24.095540	5.691980	-4.059160	-0.800474	0.045471	0.579771	-1.000000	-1.000000	-1.000000	-1.000000	-1.000000	-1.000000	-1.000000	59.000000	0.000000	-1.000000	-1.000000	1695198.000000	1776579792.242172
12020.625000	6629.445000	35696.880000	54545.985000	35463.960000	19900.935000	-11069.550000	4304.925000	3.606189	1.716087	0.047089	-0.855063	1.014480	-1.839691	6.412505	5.915992	-24.095540	5.691980	-4.059160	-0.800474	0.045471	0.579771	-1.000000	-1.000000	-1.000000	-1.000000	-1.000000	-1.000000	-1.000000	59.000000	0.000000	-1.000000	-1.000000	1695199.000000	1776579792.246240
12016.935000	6629.445000	35699.895000	54551.385000	35479.665000	19926.495000	-11070.450000	4299.480000	2.548370	-0.745056	-1.164280	0.078635	5.204001	11.962013	8.276130	5.425374	-24.095540	5.691980	-4.059160	-0.800474	0.045471	0.579771	-1.000000	-1.000000	-1.000000	-1.000000	-1.000000	-1.000000	-1.000000	59.000000	0.000000	-1.000000	-1.000000	1695200.000000	1776579792.246257
12016.620000	6628.725000	35700.390000	54552.510000	35479.080000	19912.230000	-11066.085000	4300.425000	-0.151063	-3.184650	-1.776298	1.383267	8.688224	22.537946	5.216232	1.657243	-5.707240	5.142620	-7.416360	-0.804258	0.022949	0.577574	-1.000000	-1.000000	-1.000000	-1.000000	-1.000000	-1.000000	-1.000000	59.000000	0.000000	-1.000000	-1.000000	1695201.000000	1776579792.250319
12022.380000	6635.115000	35707.230000	54557.280000	35473.410000	19893.465000	-11054.070000	4307.625000	-3.490111	-4.470532	-1.601827	2.117383	9.544804	24.079589	-0.061897	-3.647180	-5.707240	5.142620	-7.416360	-0.804258	0.022949	0.577574	-1.000000	-1.000000	-1.000000	-1.000000	-1.000000	-1.000000	-1.000000	59.000000	0.000000	-1.000000	-1.000000	1695202.000000	1776579792.250326
12023.595000	6637.995000	35709.255000	54557.460000	35468.235000	19886.220000	-11058.165000	4308.210000	-5.398057	-3.772255	-0.677309	1.800212	6.157649	14.270665	-3.814102	-7.152225	-5.707240	5.142620	-7.416360	-0.804258	0.022949	0.577574	-1.000000	-1.000000	-1.000000	-1.000000	-1.000000	-1.000000	-1.000000	59.000000	0.000000	-1.000000	-1.000000	1695203.000000	1776579792.255684
12016.170000	6631.110000	35702.100000	54553.545000	35474.715000	19913.355000	-11066.445000	4299.120000	-5.004047	-1.594757	0.317650	0.428439	-0.332469	-1.222019	-4.999455	-7.342313	-5.707240	5.142620	-7.416360	-0.804258	0.022949	0.577574	-1.000000	-1.000000	-1.000000	-1.000000	-1.000000	-1.000000	-1.000000	59.000000	0.000000	-1.000000	-1.000000	1695204.000000	1776579792.255694
12016.845000	6628.905000	35697.960000	54551.160000	35482.995000	19940.310000	-11063.160000	4300.695000	-3.318503	0.309492	0.235924	-1.679518	-6.084863	-11.898615	-4.912066	-5.365215	-5.707240	5.142620	-7.416360	-0.804258	0.022949	0.577574	-1.000000	-1.000000	-1.000000	-1.000000	-1.000000	-1.000000	-1.000000	59.000000	0.000000	-1.000000	-1.000000	1695205.000000	1776579792.258367
12020.220000	6633.045000	35698.500000	54548.640000	35477.370000	19926.720000	-11061.090000	4305.195000	-1.468281	0.833578	-1.145950	-3.739468	-7.954624	-12.132848	-4.239868	-2.679292	-5.707240	5.142620	-7.416360	-0.804258	0.022949	0.577574	-1.000000	-1.000000	-1.000000	-1.000000	-1.000000	-1.000000	-1.000000	59.000000	0.000000	-1.000000	-1.000000	1695206.000000	1776579792.258390
12020.130000	6633.540000	35699.805000	54548.595000	35470.080000	19910.385000	-11066.175000	4302.765000	0.353334	0.595156	-2.503534	-4.673470	-6.333120	-6.377136	-2.711573	0.198987	-5.707240	5.142620	-7.416360	-0.804258	0.022949	0.577574	-1.000000	-1.000000	-1.000000	-1.000000	-1.000000	-1.000000	-1.000000	59.000000	0.000000	-1.000000	-1.000000	1695207.000000	1776579792.262276
12019.500000	6631.110000	35698.590000	54548.370000	35465.535000	19891.935000	-11071.440000	4302.810000	1.995358	0.537827	-2.422787	-3.819024	-3.821988	-2.891500	-0.738319	2.689105	-5.707240	5.142620	-7.416360	-0.804258	0.022949	0.577574	-1.000000	-1.000000	-1.000000	-1.000000	-1.000000	-1.000000	-1.000000	59.000000	0.000000	-1.000000	-1.000000	1695208.000000	1776579792.262299
12018.600000	6628.770000	35697.555000	54549.090000	35471.025000	19908.135000	-11062.620000	4304.160000	2.893741	0.655447	-0.869519	-1.433067	-1.900908	-4.239224	0.922282	3.998262	-5.707240	5.142620	-7.416360	-0.804258	0.022949	0.577574	-1.000000	-1.000000	-1.000000	-1.000000	-1.000000	-1.000000	-1.000000	59.000000	0.000000	-1.000000	-1.000000	1695209.000000	1776579792.266199
12023.955000	6634.035000	35703.090000	54554.985000	35474.220000	19919.295000	-11055.330000	4309.470000	2.796214	0.634867	1.187474	1.544550	-0.061631	-5.905913	2.462875	4.018563	-5.707240	5.142620	-7.416360	-0.804258	0.022949	0.577574	-1.000000	-1.000000	-1.000000	-1.000000	-1.000000	-1.000000	-1.000000	59.000000	0.000000	-1.000000	-1.000000	1695210.000000	1776579792.266206
12025.485000	6637.005000	35707.230000	54560.205000	35478.945000	19941.795000	-11056.860000	4307.355000	2.148219	0.706811	2.951270	4.151216	2.360337	-2.851333	4.158399	3.238879	10.727780	6.042960	-5.325740	-0.809141	0.011963	0.573302	-1.000000	-1.000000	-1.000000	-1.000000	-1.000000	-1.000000	-1.000000	59.000000	0.000000	-1.000000	-1.000000	1695211.000000	1776579792.270158
12024.135000	6636.645000	35709.255000	54562.140000	35480.655000	19926.675000	-11056.185000	4305.780000	1.395456	1.101148	3.971611	5.596865	4.777805	4.329432	5.049991	1.921125	10.727780	6.042960	-5.325740	-0.809141	0.011963	0.573302	-1.000000	-1.000000	-1.000000	-1.000000	-1.000000	-1.000000	-1.000000	59.000000	0.000000	-1.000000	-1.000000	1695212.000000	1776579792.270168
12019.185000	6631.920000	35705.430000	54557.910000	35474.175000	19901.745000	-11060.145000	4301.910000	0.379339	1.283503	3.709510	5.130479	5.724300	9.485908	3.943723	0.067266	10.727780	6.042960	-5.325740	-0.809141	0.011963	0.573302	-1.000000	-1.000000	-1.000000	-1.000000	-1.000000	-1.000000	-1.000000	59.000000	0.000000	-1.000000	-1.000000	1695213.000000	1776579792.274245
12016.530000	6628.365000	35699.940000	54552.105000	35470.215000	19905.750000	-11060.955000	4301.595000	-1.140670	0.491868	1.745308	2.411289	4.091733	7.464121	0.947809	-1.942346	10.727780	6.042960	-5.325740	-0.809141	0.011963	0.573302	-1.000000	-1.000000	-1.000000	-1.000000	-1.000000	-1.000000	-1.000000	59.000000	0.000000	-1.000000	-1.000000	1695214.000000	1776579792.274254
12021.930000	6633.675000	35704.260000	54556.920000	35474.265000	19905.255000	-11063.610000	4305.285000	-2.596822	-1.047587	-1.346924	-1.620151	0.483853	0.243213	-2.518330	-3.173782	10.727780	6.042960	-5.325740	-0.809141	0.011963	0.573302	-1.000000	-1.000000	-1.000000	-1.000000	-1.000000	-1.000000	-1.000000	59.000000	0.000000	-1.000000	-1.000000	1695215.000000	1776579792.278214
12021.210000	6632.370000	35702.640000	54554.895000	35474.895000	19910.115000	-11068.065000	4303.260000	-2.845802	-2.069906	-3.845593	-4.792015	-2.828235	-5.690852	-4.838430	-2.851972	10.727780	6.042960	-5.325740	-0.809141	0.011963	0.573302	-1.000000	-1.000000	-1.000000	-1.000000	-1.000000	-1.000000	-1.000000	59.000000	0.000000	-1.000000	-1.000000	1695216.000000	1776579792.278224
12021.840000	6631.110000	35699.625000	54554.310000	35478.450000	19928.925000	-11065.725000	4304.745000	-1.549700	-1.787644	-4.406098	-5.480814	-3.905941	-5.963621	-5.148621	-1.238082	10.727780	6.042960	-5.325740	-0.809141	0.011963	0.573302	-1.000000	-1.000000	-1.000000	-1.000000	-1.000000	-1.000000	-1.000000	59.000000	0.000000	-1.000000	-1.000000	1695217.000000	1776579792.282375
12024.675000	6630.480000	35693.055000	54553.770000	35474.670000	19923.570000	-11060.415000	4306.950000	0.422315	-0.685406	-3.315542	-3.860381	-2.718608	-0.985897	-3.329538	0.662349	10.727780	6.042960	-5.325740	-0.809141	0.011963	0.573302	-1.000000	-1.000000	-1.000000	-1.000000	-1.000000	-1.000000	-1.000000	59.000000	0.000000	-1.000000	-1.000000	1695218.000000	1776579792.282387
12015.945000	6622.425000	35681.760000	54546.255000	35460.180000	19884.465000	-11067.120000	4297.635000	1.835651	0.234125	-1.897472	-1.323967	-0.994826	4.203319	-0.119823	1.842285	10.727780	6.042960	-5.325740	-0.809141	0.011963	0.573302	-1.000000	-1.000000	-1.000000	-1.000000	-1.000000	-1.000000	-1.000000	59.000000	0.000000	-1.000000	-1.000000	1695219.000000	1776579792.286251
12017.835000	6623.775000	35687.610000	54545.265000	35461.890000	19897.470000	-11058.795000	4301.910000	1.826599	0.347755	-0.953183	0.638139	-0.524425	4.179727	2.866865	1.679811	10.727780	6.042960	-5.325740	-0.809141	0.011963	0.573302	-1.000000	-1.000000	-1.000000	-1.000000	-1.000000	-1.000000	-1.000000	59.000000	0.000000	-1.000000	-1.000000	1695220.000000	1776579792.286263
12016.620000	6620.400000	35694.585000	54539.730000	35458.650000	19905.075000	-11060.145000	4302.855000	0.628626	-0.078835	0.227107	1.397070	-1.145944	-0.137966	4.389113	0.617804	19.212340	5.157880	-2.990960	-0.813780	0.012451	0.570250	-1.000000	-1.000000	-1.000000	-1.000000	-1.000000	-1.000000	-1.000000	59.000000	0.000000	-1.000000	-1.000000	1695221.000000	1776579792.290324
12022.695000	6629.580000	35707.455000	54547.380000	35466.480000	19909.755000	-11058.030000	4309.155000	-0.491729	-0.128802	2.764147	1.466140	-1.149427	-3.014333	4.228642	-0.075873	19.212340	5.157880	-2.990960	-0.813780	0.012451	0.570250	-1.000000	-1.000000	-1.000000	-1.000000	-1.000000	-1.000000	-1.000000	59.000000	0.000000	-1.000000	-1.000000	1695222.000000	1776579792.290341
12023.955000	6630.255000	35704.305000	54552.150000	35473.095000	19910.385000	-11059.695000	4309.470000	-0.483057	0.857466	6.065043	1.903981	0.640472	-1.634667	2.678761	0.265220	19.212340	5.157880	-2.990960	-0.813780	0.012451	0.570250	-1.000000	-1.000000	-1.000000	-1.000000	-1.000000	-1.000000	-1.000000	59.000000	0.000000	-1.000000	-1.000000	1695223.000000	1776579792.294322
12019.545000	6625.800000	35698.635000	54549.090000	35471.205000	19905.300000	-11069.055000	4303.260000	0.422204	2.328868	7.561602	3.008694	3.592304	1.819472	0.194148	0.951568	19.212340	5.157880	-2.990960	-0.813780	0.012451	0.570250	-1.000000	-1.000000	-1.000000	-1.000000	-1.000000	-1.000000	-1.000000	59.000000	0.000000	-1.000000	-1.000000	1695224.000000	1776579792.294343
12024.720000	6632.190000	35705.250000	54555.570000	35476.155000	19906.380000	-11069.055000	4306.185000	1.095691	2.909713	5.327421	3.779004	5.641207	3.845796	-2.602736	0.793813	19.212340	5.157880	-2.990960	-0.813780	0.012451	0.570250	-1.000000	-1.000000	-1.000000	-1.000000	-1.000000	-1.000000	-1.000000	59.000000	0.000000	-1.000000	-1.000000	1695225.000000	1776579792.298224
12029.985000	6640.695000	35713.440000	54564.210000	35477.235000	19886.445000	-11068.920000	4308.930000	1.075625	2.265871	0.658177	3.429506	5.251979	2.704810	-4.556727	-0.265439	19.212340	5.157880	-2.990960	-0.813780	0.012451	0.570250	-1.000000	-1.000000	-1.000000	-1.000000	-1.000000	-1.000000	-1.000000	59.000000	0.000000	-1.000000	-1.000000	1695226.000000	1776579792.298234
12022.965000	6633.675000	35709.930000	54562.905000	35484.210000	19915.380000	-11063.700000	4303.035000	0.677277	1.129953	-3.403376	2.202305	2.735609	-0.542632	-4.361295	-1.283470	19.212340	5.157880	-2.990960	-0.813780	0.012451	0.570250	-1.000000	-1.000000	-1.000000	-1.000000	-1.000000	-1.000000	-1.000000	59.000000	0.000000	-1.000000	-1.000000	1695227.000000	1776579792.302311
12019.050000	6625.935000	35706.915000	54559.980000	35479.395000	19934.775000	-11059.425000	4300.380000	-0.211048	-0.470995	-5.412078	0.281278	-0.524523	-2.213398	-1.774610	-1.839131	19.212340	5.157880	-2.990960	-0.813780	0.012451	0.570250	-1.000000	-1.000000	-1.000000	-1.000000	-1.000000	-1.000000	-1.000000	59.000000	0.000000	-1.000000	-1.000000	1695228.000000	1776579792.302319
12016.395000	6621.930000	35702.325000	54557.955000	35473.770000	19920.555000	-11066.445000	4298.490000	-1.740333	-2.876904	-5.871531	-2.334126	-3.520642	-0.097195	1.758009	-2.060735	19.212340	5.157880	-2.990960	-0.813780	0.012451	0.570250	-1.000000	-1.000000	-1.000000	-1.000000	-1.000000	-1.000000	-1.000000	59.000000	0.000000	-1.000000	-1.000000	1695229.000000	1776579792.306393
12021.750000	6628.590000	35698.635000	54557.235000	35474.580000	19902.195000	-11063.430000	4304.205000	-3.022943	-5.047806	-5.485628	-4.905101	-5.755804	2.461967	3.958060	-1.717525	19.212340	5.157880	-2.990960	-0.813780	0.012451	0.570250	-1.000000	-1.000000	-1.000000	-1.000000	-1.000000	-1.000000	-1.000000	59.000000	0.000000	-1.000000	-1.000000	1695230.000000	1776579792.306404
12020.085000	6630.840000	35698.590000	54544.770000	35472.555000	19907.505000	-11062.800000	4301.055000	-2.794264	-5.017032	-4.329404	-6.343383	-6.494471	1.055300	3.756818	-0.463099	20.677300	3.113040	-2.075360	-0.816526	0.020935	0.568663	-1.000000	-1.000000	-1.000000	-1.000000	-1.000000	-1.000000	-1.000000	59.000000	0.000000	-1.000000	-1.000000	1695231.000000	1776579792.310242
12015.990000	6626.745000	35698.095000	54547.335000	35474.580000	19914.435000	-11065.365000	4297.905000	-1.044555	-2.317043	-2.195893	-6.165599	-5.135542	-3.254424	1.911561	1.186812	20.677300	3.113040	-2.075360	-0.816526	0.020935	0.568663	-1.000000	-1.000000	-1.000000	-1.000000	-1.000000	-1.000000	-1.000000	59.000000	0.000000	-1.000000	-1.000000	1695232.000000	1776579792.310251
12021.975000	6634.170000	35707.905000	54559.305000	35481.510000	19911.105000	-11066.085000	4302.720000	1.011322	1.356690	0.869290	-4.006995	-1.914214	-5.938811	-0.327311	2.210785	20.677300	3.113040	-2.075360	-0.816526	0.020935	0.568663	-1.000000	-1.000000	-1.000000	-1.000000	-1.000000	-1.000000	-1.000000	59.000000	0.000000	-1.000000	-1.000000	1695233.000000	1776579792.314292
12020.400000	6630.165000	35703.855000	54555.120000	35473.095000	19886.040000	-11074.320000	4301.460000	2.442747	4.021389	4.193422	0.224314	1.954496	-5.343790	-2.160953	2.322498	20.677300	3.113040	-2.075360	-0.816526	0.020935	0.568663	-1.000000	-1.000000	-1.000000	-1.000000	-1.000000	-1.000000	-1.000000	59.000000	0.000000	-1.000000	-1.000000	1695234.000000	1776579792.314300
12027.060000	6633.045000	35704.890000	54554.445000	35469.180000	19876.050000	-11071.755000	4308.660000	3.049683	4.675363	6.320350	4.802249	4.453091	-3.733127	-3.197653	1.951056	20.677300	3.113040	-2.075360	-0.816526	0.020935	0.568663	-1.000000	-1.000000	-1.000000	-1.000000	-1.000000	-1.000000	-1.000000	59.000000	0.000000	-1.000000	-1.000000	1695235.000000	1776579792.318349
12026.115000	6630.705000	35701.470000	54551.385000	35472.555000	19900.710000	-11064.690000	4309.110000	2.895012	3.362247	5.943233	7.039421	4.352645	-2.338044	-2.914348	1.524509	20.677300	3.113040	-2.075360	-0.816526	0.020935	0.568663	-1.000000	-1.000000	-1.000000	-1.000000	-1.000000	-1.000000	-1.000000	59.000000	0.000000	-1.000000	-1.000000	1695236.000000	1776579792.318365
12015.855000	6622.560000	35696.295000	54547.785000	35479.395000	19938.960000	-11058.255000	4299.705000	1.821833	0.820750	3.113693	5.836463	2.684609	1.388454	-0.829611	0.873032	20.677300	3.113040	-2.075360	-0.816526	0.020935	0.568663	-1.000000	-1.000000	-1.000000	-1.000000	-1.000000	-1.000000	-1.000000	59.000000	0.000000	-1.000000	-1.000000	1695237.000000	1776579792.322248
12013.785000	6618.195000	35692.695000	54544.140000	35473.410000	19920.600000	-11060.370000	4298.985000	-0.439325	-2.085273	-0.851059	2.246126	1.251962	8.590846	2.277238	-0.621807	20.677300	3.113040	-2.075360	-0.816526	0.020935	0.568663	-1.000000	-1.000000	-1.000000	-1.000000	-1.000000	-1.000000	-1.000000	59.000000	0.000000	-1.000000	-1.000000	1695238.000000	1776579792.322263
12010.005000	6613.785000	35687.970000	54539.910000	35468.010000	19906.020000	-11066.040000	4296.735000	-3.188612	-4.342076	-4.174080	-1.675314	0.340399	13.899775	4.236427	-2.693865	20.677300	3.113040	-2.075360	-0.816526	0.020935	0.568663	-1.000000	-1.000000	-1.000000	-1.000000	-1.000000	-1.000000	-1.000000	59.000000	0.000000	-1.000000	-1.000000	1695239.000000	1776579792.326275
12010.230000	6614.685000	35689.275000	54541.260000	35470.260000	19904.940000	-11069.505000	4297.005000	-4.772726	-4.837517	-5.429339	-4.077883	-0.711352	11.044149	3.349174	-3.983539	20.677300	3.113040	-2.075360	-0.816526	0.020935	0.568663	-1.000000	-1.000000	-1.000000	-1.000000	-1.000000	-1.000000	-1.000000	59.000000	0.000000	-1.000000	-1.000000	1695240.000000	1776579792.326284
12013.245000	6617.385000	35692.020000	54544.995000	35473.545000	19902.510000	-11071.440000	4298.445000	-4.009514	-3.032227	-4.085049	-3.969628	-1.645832	1.138788	0.124710	-3.444331	17.793160	2.716280	0.427280	-0.816770	0.033081	0.567687	-1.000000	-1.000000	-1.000000	-1.000000	-1.000000	-1.000000	-1.000000	59.000000	0.000000	-1.000000	-1.000000	1695241.000000	1776579792.330416
12015.045000	6620.130000	35696.520000	54549.945000	35478.360000	19899.855000	-11072.520000	4298.175000	-1.085196	0.500645	-0.709469	-1.516893	-1.516536	-8.984694	-3.193562	-1.240607	17.793160	2.716280	0.427280	-0.816770	0.033081	0.567687	-1.000000	-1.000000	-1.000000	-1.000000	-1.000000	-1.000000	-1.000000	59.000000	0.000000	-1.000000	-1.000000	1695242.000000	1776579792.330429
12016.935000	6622.560000	35699.580000	54554.625000	35484.210000	19897.785000	-11068.515000	4301.730000	2.535805	4.175208	3.154020	1.955007	-0.087576	-13.673557	-4.487208	1.499324	17.793160	2.716280	0.427280	-0.816770	0.033081	0.567687	-1.000000	-1.000000	-1.000000	-1.000000	-1.000000	-1.000000	-1.000000	59.000000	0.000000	-1.000000	-1.000000	1695243.000000	1776579792.334242
12014.910000	6622.785000	35698.860000	54550.530000	35476.830000	19904.355000	-11066.490000	4299.210000	4.956809	6.222558	5.628728	4.481971	1.624230	-11.554286	-3.068011	3.476969	17.793160	2.716280	0.427280	-0.816770	0.033081	0.567687	-1.000000	-1.000000	-1.000000	-1.000000	-1.000000	-1.000000	-1.000000	59.000000	0.000000	-1.000000	-1.000000	1695244.000000	1776579792.334253
12018.555000	6628.635000	35703.720000	54554.130000	35478.855000	19913.400000	-11058.930000	4301.595000	5.052349	5.790674	5.552957	4.535408	2.044207	-4.565861	0.172433	3.879413	17.793160	2.716280	0.427280	-0.816770	0.033081	0.567687	-1.000000	-1.000000	-1.000000	-1.000000	-1.000000	-1.000000	-1.000000	59.000000	0.000000	-1.000000	-1.000000	1695245.000000	1776579792.340971
12021.885000	6632.010000	35706.645000	54555.210000	35475.030000	19892.160000	-11062.485000	4304.430000	3.203366	3.453454	3.282494	2.224284	0.634272	3.319393	3.392408	2.804066	17.793160	2.716280	0.427280	-0.816770	0.033081	0.567687	-1.000000	-1.000000	-1.000000	-1.000000	-1.000000	-1.000000	-1.000000	59.000000	0.000000	-1.000000	-1.000000	1695246.000000	1776579792.340986
12021.570000	6630.795000	35704.395000	54552.600000	35471.250000	19886.400000	-11066.805000	4303.980000	0.719341	0.457098	0.154767	-0.942097	-1.654717	7.470121	4.634135	1.085873	17.793160	2.716280	0.427280	-0.816770	0.033081	0.567687	-1.000000	-1.000000	-1.000000	-1.000000	-1.000000	-1.000000	-1.000000	59.000000	0.000000	-1.000000	-1.000000	1695247.000000	1776579792.342348
12027.060000	6632.100000	35699.220000	54546.030000	35468.865000	19899.090000	-11057.850000	4313.475000	-1.311623	-2.300282	-2.795072	-3.612106	-3.481203	6.360615	3.208364	-0.372351	17.793160	2.716280	0.427280	-0.816770	0.033081	0.567687	-1.000000	-1.000000	-1.000000	-1.000000	-1.000000	-1.000000	-1.000000	59.000000	0.000000	-1.000000	-1.000000	1695248.000000	1776579792.342356
12030.435000	6634.935000	35701.065000	54547.290000	35472.150000	19905.930000	-11053.890000	4317.570000	-2.317734	-4.211615	-4.971731	-5.127730	-3.818232	3.211405	0.601118	-0.915823	17.793160	2.716280	0.427280	-0.816770	0.033081	0.567687	-1.000000	-1.000000	-1.000000	-1.000000	-1.000000	-1.000000	-1.000000	59.000000	0.000000	-1.000000	-1.000000	1695249.000000	1776579792.346258
12033.945000	6639.480000	35711.640000	54560.070000	35478.180000	19893.780000	-11063.655000	4316.355000	-2.213564	-4.683708	-5.463900	-4.762669	-2.164484	1.379528	-1.394180	-0.624217	17.793160	2.716280	0.427280	-0.816770	0.033081	0.567687	-1.000000	-1.000000	-1.000000	-1.000000	-1.000000	-1.000000	-1.000000	59.000000	0.000000	-1.000000	-1.000000	1695250.000000	1776579792.346265
12037.500000	6642.810000	35716.275000	54564.435000	35484.525000	19901.970000	-11062.305000	4318.605000	-1.446209	-3.540975	-3.453926	-1.935724	1.069593	0.797828	-2.613957	-0.427066	15.366820	1.800680	2.868880	-0.816221	0.042908	0.565367	-1.000000	-1.000000	-1.000000	-1.000000	-1.000000	-1.000000	-1.000000	59.000000	0.000000	-1.000000	-1.000000	1695251.000000	1776579792.350250
12024.720000	6629.220000	35702.685000	54553.410000	35482.050000	19925.100000	-11065.320000	4307.310000	-0.915667	-1.690037	0.013389	2.047000	4.326582	0.695208	-3.395128	-1.161317	15.366820	1.800680	2.868880	-0.816221	0.042908	0.565367	-1.000000	-1.000000	-1.000000	-1.000000	-1.000000	-1.000000	-1.000000	59.000000	0.000000	-1.000000	-1.000000	1695252.000000	1776579792.350260
12023.910000	6628.680000	35702.145000	54551.295000	35476.380000	19902.690000	-11072.070000	4305.645000	-1.524434	-0.730134	2.186854	4.186419	5.482848	1.122542	-3.548282	-2.867868	15.366820	1.800680	2.868880	-0.816221	0.042908	0.565367	-1.000000	-1.000000	-1.000000	-1.000000	-1.000000	-1.000000	-1.000000	59.000000	0.000000	-1.000000	-1.000000	1695253.000000	1776579792.355459
12026.880000	6633.810000	35708.760000	54556.425000	35477.640000	19883.970000	-11069.640000	4306.950000	-2.868504	-0.950590	1.847226	3.119697	3.529078	0.382038	-2.893187	-4.468953	15.366820	1.800680	2.868880	-0.816221	0.042908	0.565367	-1.000000	-1.000000	-1.000000	-1.000000	-1.000000	-1.000000	-1.000000	59.000000	0.000000	-1.000000	-1.000000	1695254.000000	1776579792.355467
12020.535000	6626.745000	35703.000000	54553.050000	35483.400000	19918.755000	-11050.020000	4304.835000	-3.328700	-1.003138	0.477383	0.503171	-0.134817	-2.683889	-0.990151	-4.365981	15.366820	1.800680	2.868880	-0.816221	0.042908	0.565367	-1.000000	-1.000000	-1.000000	-1.000000	-1.000000	-1.000000	-1.000000	59.000000	0.000000	-1.000000	-1.000000	1695255.000000	1776579792.358338
12017.340000	6624.585000	35699.220000	54549.315000	35484.885000	19930.230000	-11040.885000	4303.080000	-2.206074	-0.186844	-0.437070	-1.554988	-2.877872	-4.616393	2.693770	-2.145526	15.366820	1.800680	2.868880	-0.816221	0.042908	0.565367	-1.000000	-1.000000	-1.000000	-1.000000	-1.000000	-1.000000	-1.000000	59.000000	0.000000	-1.000000	-1.000000	1695256.000000	1776579792.358346
12019.230000	6625.620000	35702.730000	54553.320000	35484.435000	19915.920000	-11053.620000	4302.180000	-0.169249	0.984248	-0.685633	-2.279074	-3.363709	-2.445427	6.646263	1.017452	15.366820	1.800680	2.868880	-0.816221	0.042908	0.565367	-1.000000	-1.000000	-1.000000	-1.000000	-1.000000	-1.000000	-1.000000	59.000000	0.000000	-1.000000	-1.000000	1695257.000000	1776579792.362291
12026.430000	6632.055000	35709.030000	54561.285000	35487.180000	19912.545000	-11055.240000	4308.615000	2.146515	2.171155	-0.148579	-1.500666	-2.215563	0.975076	7.368140	3.722634	15.366820	1.800680	2.868880	-0.816221	0.042908	0.565367	-1.000000	-1.000000	-1.000000	-1.000000	-1.000000	-1.000000	-1.000000	59.000000	0.000000	-1.000000	-1.000000	1695258.000000	1776579792.362301
12027.735000	6632.910000	35708.580000	54560.250000	35484.885000	19910.430000	-11054.970000	4310.730000	4.385687	3.370458	1.238359	0.532819	-0.726136	1.603014	3.464477	5.327419	15.366820	1.800680	2.868880	-0.816221	0.042908	0.565367	-1.000000	-1.000000	-1.000000	-1.000000	-1.000000	-1.000000	-1.000000	59.000000	0.000000	-1.000000	-1.000000	1695259.000000	1776579792.366305
12025.080000	6630.705000	35707.005000	54555.435000	35479.845000	19905.660000	-11055.915000	4309.200000	5.679453	4.060361	2.599748	2.458324	0.085435	-0.679216	-2.442700	5.555390	15.366820	1.800680	2.868880	-0.816221	0.042908	0.565367	-1.000000	-1.000000	-1.000000	-1.000000	-1.000000	-1.000000	-1.000000	59.000000	0.000000	-1.000000	-1.000000	1695260.000000	1776579792.366316
12026.610000	6632.550000	35709.255000	54557.235000	35489.610000	19930.770000	-11043.540000	4312.440000	4.978750	3.412743	2.741479	2.671543	0.022683	-2.898266	-6.408140	4.183514	16.557100	-0.900340	5.554640	-0.817259	0.048218	0.566588	-1.000000	-1.000000	-1.000000	-1.000000	-1.000000	-1.000000	-1.000000	59.000000	0.000000	-1.000000	-1.000000	1695261.000000	1776579792.370758
12024.360000	6631.560000	35708.085000	54557.640000	35492.355000	19939.545000	-11042.865000	4311.180000	2.320867	1.408674	1.477473	1.120144	-0.000084	-1.917515	-6.210989	1.587137	16.557100	-0.900340	5.554640	-0.817259	0.048218	0.566588	-1.000000	-1.000000	-1.000000	-1.000000	-1.000000	-1.000000	-1.000000	59.000000	0.000000	-1.000000	-1.000000	1695262.000000	1776579792.370771
12029.355000	6634.080000	35709.255000	54559.305000	35489.250000	19926.090000	-11043.765000	4315.815000	-0.963232	-0.992089	-0.384925	-0.811485	0.677596	1.990209	-2.758096	-1.184460	16.557100	-0.900340	5.554640	-0.817259	0.048218	0.566588	-1.000000	-1.000000	-1.000000	-1.000000	-1.000000	-1.000000	-1.000000	59.000000	0.000000	-1.000000	-1.000000	1695263.000000	1776579792.374336
12028.320000	6632.280000	35707.005000	54557.235000	35485.380000	19916.910000	-11047.230000	4314.060000	-3.258966	-2.707378	-1.922299	-1.907536	1.264736	4.566496	0.889785	-3.080738	16.557100	-0.900340	5.554640	-0.817259	0.048218	0.566588	-1.000000	-1.000000	-1.000000	-1.000000	-1.000000	-1.000000	-1.000000	59.000000	0.000000	-1.000000	-1.000000	1695264.000000	1776579792.374344
12023.955000	6629.355000	35705.655000	54558.360000	35488.935000	19917.810000	-11052.855000	4308.795000	-3.908415	-3.314877	-2.655142	-1.937127	0.840158	2.725300	2.263955	-3.802170	16.557100	-0.900340	5.554640	-0.817259	0.048218	0.566588	-1.000000	-1.000000	-1.000000	-1.000000	-1.000000	-1.000000	-1.000000	59.000000	0.000000	-1.000000	-1.000000	1695265.000000	1776579792.378304
12025.080000	6630.480000	35710.110000	54570.555000	35499.195000	19907.235000	-11056.050000	4312.530000	-3.415755	-3.035052	-2.466673	-1.056281	-0.019564	-1.950073	1.095096	-3.705456	16.557100	-0.900340	5.554640	-0.817259	0.048218	0.566588	-1.000000	-1.000000	-1.000000	-1.000000	-1.000000	-1.000000	-1.000000	59.000000	0.000000	-1.000000	-1.000000	1695266.000000	1776579792.378316
12024.810000	6629.220000	35706.330000	54562.770000	35489.655000	19900.935000	-11056.050000	4313.610000	-2.381411	-2.139585	-1.427541	0.486547	-0.221465	-5.913059	-1.038158	-2.884038	16.557100	-0.900340	5.554640	-0.817259	0.048218	0.566588	-1.000000	-1.000000	-1.000000	-1.000000	-1.000000	-1.000000	-1.000000	59.000000	0.000000	-1.000000	-1.000000	1695267.000000	1776579792.382262
12030.525000	6639.930000	35714.205000	54559.620000	35491.185000	19937.520000	-11037.375000	4317.525000	-0.925381	-0.657576	0.076088	1.594080	-0.024509	-6.221693	-1.810486	-1.201856	16.557100	-0.900340	5.554640	-0.817259	0.048218	0.566588	-1.000000	-1.000000	-1.000000	-1.000000	-1.000000	-1.000000	-1.000000	59.000000	0.000000	-1.000000	-1.000000	1695268.000000	1776579792.382269
12030.030000	6639.030000	35712.225000	54559.575000	35491.950000	19929.150000	-11040.255000	4316.535000	0.846991	1.338793	1.512664	1.104988	-0.243840	-1.488533	0.135956	0.913435	16.557100	-0.900340	5.554640	-0.817259	0.048218	0.566588	-1.000000	-1.000000	-1.000000	-1.000000	-1.000000	-1.000000	-1.000000	59.000000	0.000000	-1.000000	-1.000000	1695269.000000	1776579792.387880
12028.410000	6638.220000	35711.370000	54555.840000	35483.940000	19917.585000	-11050.425000	4312.170000	2.304680	3.053336	2.295584	-0.589201	-0.866511	5.345675	3.224051	2.392926	16.557100	-0.900340	5.554640	-0.817259	0.048218	0.566588	-1.000000	-1.000000	-1.000000	-1.000000	-1.000000	-1.000000	-1.000000	59.000000	0.000000	-1.000000	-1.000000	1695270.000000	1776579792.387906
12031.470000	6643.485000	35718.210000	54564.975000	35494.920000	19926.630000	-11047.455000	4314.780000	2.663063	3.369158	2.051634	-1.944713	-1.356331	8.665620	4.234958	2.400754	18.144140	-2.777320	9.079700	-0.818479	0.049194	0.565855	-1.000000	-1.000000	-1.000000	-1.000000	-1.000000	-1.000000	-1.000000	59.000000	0.000000	-1.000000	-1.000000	1695271.000000	1776579792.390338
12039.705000	6652.575000	35725.005000	54570.510000	35498.700000	19912.455000	-11041.155000	4324.320000	2.039400	2.349932	1.299462	-1.575912	-0.897481	6.388262	2.382748	1.433164	18.144140	-2.777320	9.079700	-0.818479	0.049194	0.565855	-1.000000	-1.000000	-1.000000	-1.000000	-1.000000	-1.000000	-1.000000	59.000000	0.000000	-1.000000	-1.000000	1695272.000000	1776579792.390361
