Channel1	Channel2	Channel3	Channel4	Channel5	Channel6	Channel7	Channel8	FilteredChannel1	FilteredChannel2	FilteredChannel3	FilteredChannel4	FilteredChannel5	FilteredChannel6	FilteredChannel7	FilteredChannel8	GyroX	GyroY	GyroZ	AccX	AccY	AccZ	PPG1	PPG2	rawPPG1	rawPPG2	rawPPG3	Hr	Hrv	Battery	Trigger	PhysicalTrigger	AutoTrigger	NumMeasurements	Timestamp
26626.725000	5165.685000	40550.175000	76846.860000	51232.950000	29204.550000	-8999.595000	15871.455000	-2.405009	-3.993623	-4.519534	-8.145213	-11.828476	-8.031057	-4.297932	-2.757520	-3.937080	3.876040	-7.568960	-0.848020	-0.081787	0.518492	-1.000000	-1.000000	-1.000000	-1.000000	-1.000000	-1.000000	-1.000000	61.000000	0.000000	-1.000000	-1.000000	1426312.000000	1776579253.759078
26620.605000	5160.915000	40543.065000	76848.255000	51241.635000	29222.595000	-8996.220000	15866.595000	-0.924197	-2.378689	-2.789631	-3.122357	-3.878936	0.955418	-1.989788	-1.125755	-3.937080	3.876040	-7.568960	-0.848020	-0.081787	0.518492	-1.000000	-1.000000	-1.000000	-1.000000	-1.000000	-1.000000	-1.000000	61.000000	0.000000	-1.000000	-1.000000	1426313.000000	1776579253.759089
26610.660000	5145.120000	40531.320000	76843.935000	51246.000000	29218.005000	-9005.040000	15856.155000	0.342118	-0.642594	-1.060986	2.747605	5.338113	10.207092	1.297410	0.602160	-3.067260	3.723440	-6.805960	-0.847410	-0.082519	0.518370	-1.000000	-1.000000	-1.000000	-1.000000	-1.000000	-1.000000	-1.000000	61.000000	0.000000	-1.000000	-1.000000	1426314.000000	1776579253.763165
26611.650000	5152.095000	40547.385000	76846.455000	51249.960000	29220.165000	-9000.270000	15861.195000	0.463784	0.178489	0.180922	6.393105	11.085077	14.374266	3.674994	1.219121	-3.067260	3.723440	-6.805960	-0.847410	-0.082519	0.518370	-1.000000	-1.000000	-1.000000	-1.000000	-1.000000	-1.000000	-1.000000	61.000000	0.000000	-1.000000	-1.000000	1426315.000000	1776579253.763179
26625.915000	5173.650000	40559.535000	76839.885000	51232.320000	29227.185000	-8982.990000	15883.335000	0.245682	1.032354	2.087558	6.543917	10.828430	11.216819	4.493666	1.460302	-3.067260	3.723440	-6.805960	-0.847410	-0.082519	0.518370	-1.000000	-1.000000	-1.000000	-1.000000	-1.000000	-1.000000	-1.000000	61.000000	0.000000	-1.000000	-1.000000	1426316.000000	1776579253.769309
26625.060000	5169.465000	40549.455000	76824.585000	51205.230000	29195.280000	-8989.245000	15879.735000	1.321315	3.575816	5.166655	3.648234	4.374456	2.688454	4.589801	2.973515	-3.067260	3.723440	-6.805960	-0.847410	-0.082519	0.518370	-1.000000	-1.000000	-1.000000	-1.000000	-1.000000	-1.000000	-1.000000	61.000000	0.000000	-1.000000	-1.000000	1426317.000000	1776579253.769325
26626.185000	5168.205000	40546.845000	76826.700000	51200.775000	29178.360000	-8993.115000	15878.250000	3.459781	6.601614	7.065728	-0.834678	-5.634615	-7.887370	3.861163	4.974763	-3.067260	3.723440	-6.805960	-0.847410	-0.082519	0.518370	-1.000000	-1.000000	-1.000000	-1.000000	-1.000000	-1.000000	-1.000000	61.000000	0.000000	-1.000000	-1.000000	1426318.000000	1776579253.771208
26626.590000	5167.800000	40544.145000	76830.480000	51207.705000	29183.805000	-8994.420000	15876.900000	4.617540	6.968477	5.360075	-4.292998	-13.346440	-16.450851	1.353095	4.814415	-3.067260	3.723440	-6.805960	-0.847410	-0.082519	0.518370	-1.000000	-1.000000	-1.000000	-1.000000	-1.000000	-1.000000	-1.000000	61.000000	0.000000	-1.000000	-1.000000	1426319.000000	1776579253.771222
26631.450000	5179.860000	40559.265000	76841.145000	51222.060000	29215.980000	-8983.350000	15887.160000	3.579701	3.891570	1.065223	-4.192332	-13.026501	-17.518786	-2.154526	1.842039	-3.067260	3.723440	-6.805960	-0.847410	-0.082519	0.518370	-1.000000	-1.000000	-1.000000	-1.000000	-1.000000	-1.000000	-1.000000	61.000000	0.000000	-1.000000	-1.000000	1426320.000000	1776579253.775200
26631.450000	5183.955000	40567.230000	76846.995000	51234.075000	29239.020000	-8976.690000	15887.745000	0.998782	-0.302582	-2.360772	-0.386296	-4.031847	-8.033600	-4.215874	-1.832343	-3.067260	3.723440	-6.805960	-0.847410	-0.082519	0.518370	-1.000000	-1.000000	-1.000000	-1.000000	-1.000000	-1.000000	-1.000000	61.000000	0.000000	-1.000000	-1.000000	1426321.000000	1776579253.775210
26632.080000	5186.520000	40572.855000	76857.165000	51246.360000	29238.660000	-8978.265000	15887.070000	-1.755022	-3.184533	-2.774796	4.637570	8.426811	7.645271	-3.571109	-4.115724	-3.067260	3.723440	-6.805960	-0.847410	-0.082519	0.518370	-1.000000	-1.000000	-1.000000	-1.000000	-1.000000	-1.000000	-1.000000	61.000000	0.000000	-1.000000	-1.000000	1426322.000000	1776579253.779096
26626.095000	5177.880000	40567.410000	76852.575000	51243.705000	29235.780000	-8987.580000	15875.145000	-3.794990	-4.444892	-1.315379	7.580626	17.053006	19.402794	-1.703664	-4.883826	-3.067260	3.723440	-6.805960	-0.847410	-0.082519	0.518370	-1.000000	-1.000000	-1.000000	-1.000000	-1.000000	-1.000000	-1.000000	61.000000	0.000000	-1.000000	-1.000000	1426323.000000	1776579253.779106
26628.435000	5181.795000	40572.720000	76855.995000	51247.440000	29238.660000	-8981.640000	15879.465000	-4.813035	-5.037008	-0.521394	6.377841	17.075561	19.740136	-0.817414	-4.984377	-4.913720	3.280900	-5.264700	-0.847288	-0.084595	0.518553	-1.000000	-1.000000	-1.000000	-1.000000	-1.000000	-1.000000	-1.000000	61.000000	0.000000	-1.000000	-1.000000	1426324.000000	1776579253.783172
26626.905000	5178.555000	40564.980000	76844.610000	51227.460000	29216.340000	-8984.880000	15877.485000	-4.575339	-5.220617	-1.490762	1.373937	8.616730	9.229041	-1.162455	-4.399331	-4.913720	3.280900	-5.264700	-0.847288	-0.084595	0.518553	-1.000000	-1.000000	-1.000000	-1.000000	-1.000000	-1.000000	-1.000000	61.000000	0.000000	-1.000000	-1.000000	1426325.000000	1776579253.783187
26638.740000	5197.680000	40572.450000	76845.735000	51224.085000	29233.395000	-8968.680000	15893.145000	-2.818418	-4.136621	-3.339647	-5.013189	-4.129408	-5.431121	-1.260293	-2.288644	-4.913720	3.280900	-5.264700	-0.847288	-0.084595	0.518553	-1.000000	-1.000000	-1.000000	-1.000000	-1.000000	-1.000000	-1.000000	61.000000	0.000000	-1.000000	-1.000000	1426326.000000	1776579253.787157
26634.735000	5188.905000	40563.135000	76837.050000	51214.635000	29219.310000	-8976.195000	15887.610000	0.187598	-1.214936	-4.487259	-9.714885	-15.155479	-16.109252	-0.013578	1.409060	-4.913720	3.280900	-5.264700	-0.847288	-0.084595	0.518553	-1.000000	-1.000000	-1.000000	-1.000000	-1.000000	-1.000000	-1.000000	61.000000	0.000000	-1.000000	-1.000000	1426327.000000	1776579253.787172
26636.355000	5187.690000	40564.665000	76838.985000	51209.010000	29205.270000	-8975.790000	15893.055000	3.065666	2.147807	-4.121974	-10.612990	-19.525480	-18.522583	1.774232	5.003631	-4.913720	3.280900	-5.264700	-0.847288	-0.084595	0.518553	-1.000000	-1.000000	-1.000000	-1.000000	-1.000000	-1.000000	-1.000000	61.000000	0.000000	-1.000000	-1.000000	1426328.000000	1776579253.791322
26643.195000	5197.725000	40572.270000	76846.995000	51219.405000	29216.565000	-8968.365000	15903.675000	4.313980	3.844076	-2.287519	-7.290459	-15.714500	-13.839422	2.543238	6.574139	-4.913720	3.280900	-5.264700	-0.847288	-0.084595	0.518553	-1.000000	-1.000000	-1.000000	-1.000000	-1.000000	-1.000000	-1.000000	61.000000	0.000000	-1.000000	-1.000000	1426329.000000	1776579253.791336
26633.925000	5183.910000	40562.100000	76845.060000	51224.355000	29218.005000	-8984.610000	15886.395000	3.604319	3.411595	0.520752	-1.031287	-5.625026	-5.025397	1.810540	5.514159	-4.913720	3.280900	-5.264700	-0.847288	-0.084595	0.518553	-1.000000	-1.000000	-1.000000	-1.000000	-1.000000	-1.000000	-1.000000	61.000000	0.000000	-1.000000	-1.000000	1426330.000000	1776579253.795452
26627.265000	5176.530000	40557.285000	76845.600000	51235.425000	29235.420000	-8986.095000	15879.240000	1.229514	1.276293	2.857444	5.289826	6.433310	5.078635	-0.246134	1.800305	-4.913720	3.280900	-5.264700	-0.847288	-0.084595	0.518553	-1.000000	-1.000000	-1.000000	-1.000000	-1.000000	-1.000000	-1.000000	61.000000	0.000000	-1.000000	-1.000000	1426331.000000	1776579253.795468
26630.280000	5182.875000	40563.495000	76847.670000	51237.450000	29239.425000	-8978.805000	15885.630000	-1.989520	-1.668565	3.458752	8.743417	15.375107	13.342172	-2.609406	-3.371523	-4.913720	3.280900	-5.264700	-0.847288	-0.084595	0.518553	-1.000000	-1.000000	-1.000000	-1.000000	-1.000000	-1.000000	-1.000000	61.000000	0.000000	-1.000000	-1.000000	1426332.000000	1776579253.800816
26640.810000	5200.200000	40576.140000	76851.360000	51230.700000	29232.495000	-8970.165000	15898.230000	-4.006469	-3.056473	3.123865	8.424461	17.502034	16.635837	-3.103423	-6.612566	-4.913720	3.280900	-5.264700	-0.847288	-0.084595	0.518553	-1.000000	-1.000000	-1.000000	-1.000000	-1.000000	-1.000000	-1.000000	61.000000	0.000000	-1.000000	-1.000000	1426333.000000	1776579253.800830
26647.605000	5208.345000	40581.945000	76850.865000	51221.610000	29230.875000	-8967.105000	15904.710000	-2.940306	-0.862809	3.469095	5.439009	12.022127	13.161768	-0.688197	-5.178623	-6.516020	4.211760	-5.173140	-0.847105	-0.087524	0.517027	-1.000000	-1.000000	-1.000000	-1.000000	-1.000000	-1.000000	-1.000000	61.000000	0.000000	-1.000000	-1.000000	1426334.000000	1776579253.803163
26648.235000	5212.485000	40584.330000	76848.480000	51216.705000	29229.570000	-8967.375000	15907.230000	0.640907	3.702506	4.404827	1.427049	1.686899	4.459251	2.929937	-0.134670	-6.516020	4.211760	-5.173140	-0.847105	-0.087524	0.517027	-1.000000	-1.000000	-1.000000	-1.000000	-1.000000	-1.000000	-1.000000	61.000000	0.000000	-1.000000	-1.000000	1426335.000000	1776579253.803172
26649.630000	5212.485000	40587.480000	76855.545000	51223.860000	29230.380000	-8962.920000	15908.040000	3.951825	6.903081	4.291963	-2.170927	-8.150121	-4.953639	5.003440	4.639968	-6.516020	4.211760	-5.173140	-0.847105	-0.087524	0.517027	-1.000000	-1.000000	-1.000000	-1.000000	-1.000000	-1.000000	-1.000000	61.000000	0.000000	-1.000000	-1.000000	1426336.000000	1776579253.814433
26647.605000	5208.300000	40586.040000	76859.460000	51229.395000	29229.660000	-8967.465000	15905.430000	4.562448	5.908385	2.067764	-4.064702	-12.457739	-10.730543	4.205311	5.922217	-6.516020	4.211760	-5.173140	-0.847105	-0.087524	0.517027	-1.000000	-1.000000	-1.000000	-1.000000	-1.000000	-1.000000	-1.000000	61.000000	0.000000	-1.000000	-1.000000	1426337.000000	1776579253.814453
26649.045000	5209.245000	40586.805000	76861.215000	51235.380000	29243.880000	-8965.440000	15908.310000	2.248168	1.004270	-1.695983	-3.763606	-9.760928	-10.951574	1.146813	3.340894	-6.516020	4.211760	-5.173140	-0.847105	-0.087524	0.517027	-1.000000	-1.000000	-1.000000	-1.000000	-1.000000	-1.000000	-1.000000	61.000000	0.000000	-1.000000	-1.000000	1426338.000000	1776579253.814473
26649.270000	5207.175000	40583.925000	76861.260000	51239.070000	29248.155000	-8966.745000	15908.670000	-1.279762	-4.890466	-5.360007	-2.168671	-2.802238	-6.288914	-2.414956	-0.936635	-6.516020	4.211760	-5.173140	-0.847105	-0.087524	0.517027	-1.000000	-1.000000	-1.000000	-1.000000	-1.000000	-1.000000	-1.000000	61.000000	0.000000	-1.000000	-1.000000	1426339.000000	1776579253.814480
26650.305000	5206.185000	40581.405000	76864.230000	51238.575000	29237.535000	-8969.040000	15910.110000	-3.896767	-8.548377	-7.375769	-0.675883	3.846096	0.141913	-4.726097	-4.203781	-6.516020	4.211760	-5.173140	-0.847105	-0.087524	0.517027	-1.000000	-1.000000	-1.000000	-1.000000	-1.000000	-1.000000	-1.000000	61.000000	0.000000	-1.000000	-1.000000	1426340.000000	1776579253.815349
26647.785000	5199.795000	40566.510000	76850.820000	51224.220000	29221.515000	-8973.945000	15907.320000	-4.509686	-8.588305	-7.316845	-0.220373	6.512993	3.911499	-5.115422	-5.104743	-6.516020	4.211760	-5.173140	-0.847105	-0.087524	0.517027	-1.000000	-1.000000	-1.000000	-1.000000	-1.000000	-1.000000	-1.000000	61.000000	0.000000	-1.000000	-1.000000	1426341.000000	1776579253.815364
26641.620000	5198.985000	40557.870000	76833.225000	51208.425000	29214.585000	-8975.250000	15900.345000	-3.501313	-5.748439	-5.944107	-1.414212	3.899112	2.676645	-3.973633	-4.088228	-6.516020	4.211760	-5.173140	-0.847105	-0.087524	0.517027	-1.000000	-1.000000	-1.000000	-1.000000	-1.000000	-1.000000	-1.000000	61.000000	0.000000	-1.000000	-1.000000	1426342.000000	1776579253.819403
26639.415000	5190.930000	40564.170000	76838.670000	51214.095000	29232.045000	-8967.780000	15896.610000	-1.992797	-1.754289	-3.760268	-3.797833	-1.969830	-1.191901	-1.799901	-2.479444	-6.516020	4.211760	-5.173140	-0.847105	-0.087524	0.517027	-1.000000	-1.000000	-1.000000	-1.000000	-1.000000	-1.000000	-1.000000	61.000000	0.000000	-1.000000	-1.000000	1426343.000000	1776579253.819418
26635.410000	5186.205000	40566.060000	76835.430000	51206.760000	29216.565000	-8979.570000	15889.320000	-0.696286	1.715917	-0.220144	-4.987042	-6.567903	-3.110664	0.899818	-1.175453	-5.890360	3.479280	-4.364360	-0.848936	-0.089416	0.514403	-1.000000	-1.000000	-1.000000	-1.000000	-1.000000	-1.000000	-1.000000	61.000000	0.000000	-1.000000	-1.000000	1426344.000000	1776579253.823263
26643.825000	5203.035000	40579.785000	76849.605000	51220.260000	29227.725000	-8971.830000	15900.570000	0.545380	4.074501	4.783597	-2.703343	-6.409759	-1.407393	3.074860	0.012646	-5.890360	3.479280	-4.364360	-0.848936	-0.089416	0.514403	-1.000000	-1.000000	-1.000000	-1.000000	-1.000000	-1.000000	-1.000000	61.000000	0.000000	-1.000000	-1.000000	1426345.000000	1776579253.823291
26648.145000	5208.480000	40586.040000	76860.135000	51232.905000	29244.510000	-8965.035000	15907.275000	2.295829	6.113405	9.803552	2.889940	-1.295804	2.511937	4.124656	2.020877	-5.890360	3.479280	-4.364360	-0.848936	-0.089416	0.514403	-1.000000	-1.000000	-1.000000	-1.000000	-1.000000	-1.000000	-1.000000	61.000000	0.000000	-1.000000	-1.000000	1426346.000000	1776579253.831656
26642.385000	5198.175000	40577.535000	76858.875000	51239.520000	29245.635000	-8974.980000	15898.410000	4.275796	7.774480	12.233474	9.018563	6.091167	6.756976	4.241508	4.751053	-5.890360	3.479280	-4.364360	-0.848936	-0.089416	0.514403	-1.000000	-1.000000	-1.000000	-1.000000	-1.000000	-1.000000	-1.000000	61.000000	0.000000	-1.000000	-1.000000	1426347.000000	1776579253.831674
26635.455000	5187.870000	40567.005000	76851.090000	51238.440000	29234.070000	-8985.060000	15888.285000	4.869897	6.956194	9.632111	11.606855	11.391684	8.726417	2.962271	6.004926	-5.890360	3.479280	-4.364360	-0.848936	-0.089416	0.514403	-1.000000	-1.000000	-1.000000	-1.000000	-1.000000	-1.000000	-1.000000	61.000000	0.000000	-1.000000	-1.000000	1426348.000000	1776579253.831784
26641.080000	5194.935000	40573.620000	76854.420000	51236.100000	29229.075000	-8979.930000	15895.485000	3.061444	2.663255	2.356287	8.387500	11.080392	5.973963	0.027900	4.108648	-5.890360	3.479280	-4.364360	-0.848936	-0.089416	0.514403	-1.000000	-1.000000	-1.000000	-1.000000	-1.000000	-1.000000	-1.000000	61.000000	0.000000	-1.000000	-1.000000	1426349.000000	1776579253.831790
26639.325000	5190.300000	40568.085000	76845.780000	51221.115000	29207.205000	-8982.000000	15892.605000	0.070427	-2.708232	-5.631734	1.097113	4.829075	-1.074933	-2.895931	0.465361	-5.890360	3.479280	-4.364360	-0.848936	-0.089416	0.514403	-1.000000	-1.000000	-1.000000	-1.000000	-1.000000	-1.000000	-1.000000	61.000000	0.000000	-1.000000	-1.000000	1426350.000000	1776579253.836341
26642.475000	5193.495000	40564.170000	76831.065000	51200.145000	29193.300000	-8980.740000	15896.070000	-2.075123	-5.913091	-10.213322	-6.517222	-4.741159	-9.193966	-3.782104	-2.257016	-5.890360	3.479280	-4.364360	-0.848936	-0.089416	0.514403	-1.000000	-1.000000	-1.000000	-1.000000	-1.000000	-1.000000	-1.000000	61.000000	0.000000	-1.000000	-1.000000	1426351.000000	1776579253.836390
26640.630000	5192.595000	40562.280000	76831.785000	51204.330000	29211.480000	-8979.795000	15893.235000	-2.523757	-5.763626	-10.168859	-11.446099	-13.309451	-13.890566	-2.354474	-2.880729	-5.890360	3.479280	-4.364360	-0.848936	-0.089416	0.514403	-1.000000	-1.000000	-1.000000	-1.000000	-1.000000	-1.000000	-1.000000	61.000000	0.000000	-1.000000	-1.000000	1426352.000000	1776579253.839379
26646.210000	5205.510000	40575.780000	76844.295000	51215.670000	29229.885000	-8977.005000	15901.245000	-1.672404	-2.979688	-6.382149	-11.555528	-15.945097	-11.048876	0.212113	-1.843621	-5.890360	3.479280	-4.364360	-0.848936	-0.089416	0.514403	-1.000000	-1.000000	-1.000000	-1.000000	-1.000000	-1.000000	-1.000000	61.000000	0.000000	-1.000000	-1.000000	1426353.000000	1776579253.839396
26639.010000	5192.235000	40565.070000	76840.335000	51218.415000	29238.660000	-8983.035000	15887.295000	-0.440921	0.695697	-0.624531	-6.283383	-10.236795	-0.663337	2.339842	-0.337603	-4.852680	3.387720	-3.448760	-0.848692	-0.092773	0.512389	-1.000000	-1.000000	-1.000000	-1.000000	-1.000000	-1.000000	-1.000000	61.000000	0.000000	-1.000000	-1.000000	1426354.000000	1776579253.847907
26633.520000	5185.485000	40560.885000	76841.820000	51232.365000	29250.405000	-8983.530000	15882.300000	0.090378	2.792281	4.252879	1.654339	0.955529	11.513047	2.789230	0.138426	-4.852680	3.387720	-3.448760	-0.848692	-0.092773	0.512389	-1.000000	-1.000000	-1.000000	-1.000000	-1.000000	-1.000000	-1.000000	61.000000	0.000000	-1.000000	-1.000000	1426355.000000	1776579253.847939
26641.665000	5195.925000	40571.280000	76852.395000	51244.695000	29253.060000	-8975.205000	15895.710000	-0.420224	2.063778	6.007357	8.026111	11.734189	18.265098	1.655459	-0.690733	-4.852680	3.387720	-3.448760	-0.848692	-0.092773	0.512389	-1.000000	-1.000000	-1.000000	-1.000000	-1.000000	-1.000000	-1.000000	61.000000	0.000000	-1.000000	-1.000000	1426356.000000	1776579253.847967
26645.310000	5203.215000	40576.095000	76853.160000	51238.395000	29243.070000	-8972.820000	15902.955000	-0.833850	0.306205	5.241865	10.497126	17.034704	15.861064	0.386760	-0.950938	-4.852680	3.387720	-3.448760	-0.848692	-0.092773	0.512389	-1.000000	-1.000000	-1.000000	-1.000000	-1.000000	-1.000000	-1.000000	61.000000	0.000000	-1.000000	-1.000000	1426357.000000	1776579253.847973
26649.135000	5209.920000	40579.110000	76847.985000	51228.720000	29238.975000	-8971.155000	15905.295000	-0.006119	0.023307	3.827635	8.834176	14.288300	5.533026	0.009412	0.738375	-4.852680	3.387720	-3.448760	-0.848692	-0.092773	0.512389	-1.000000	-1.000000	-1.000000	-1.000000	-1.000000	-1.000000	-1.000000	61.000000	0.000000	-1.000000	-1.000000	1426358.000000	1776579253.851289
26644.455000	5200.380000	40569.300000	76837.635000	51212.205000	29225.475000	-8978.895000	15896.610000	1.504827	1.156398	2.227282	3.727700	4.429582	-7.576573	-0.010777	2.905431	-4.852680	3.387720	-3.448760	-0.848692	-0.092773	0.512389	-1.000000	-1.000000	-1.000000	-1.000000	-1.000000	-1.000000	-1.000000	61.000000	0.000000	-1.000000	-1.000000	1426359.000000	1776579253.851299
26642.880000	5193.135000	40561.605000	76832.910000	51208.785000	29218.590000	-8983.530000	15891.345000	2.093853	1.432011	-0.331507	-3.048461	-7.855285	-17.394987	-0.822556	2.917953	-4.852680	3.387720	-3.448760	-0.848692	-0.092773	0.512389	-1.000000	-1.000000	-1.000000	-1.000000	-1.000000	-1.000000	-1.000000	61.000000	0.000000	-1.000000	-1.000000	1426360.000000	1776579253.855211
26647.110000	5198.220000	40567.680000	76839.795000	51215.400000	29222.370000	-8978.805000	15898.995000	1.083368	-0.429149	-3.659464	-8.398015	-16.097348	-19.839381	-2.435445	0.292534	-4.852680	3.387720	-3.448760	-0.848692	-0.092773	0.512389	-1.000000	-1.000000	-1.000000	-1.000000	-1.000000	-1.000000	-1.000000	61.000000	0.000000	-1.000000	-1.000000	1426361.000000	1776579253.855218
26639.010000	5190.345000	40561.695000	76839.480000	51217.380000	29217.420000	-8984.835000	15890.895000	-0.698667	-3.035055	-5.853725	-9.393172	-15.861826	-14.229523	-3.486296	-2.787382	-4.852680	3.387720	-3.448760	-0.848692	-0.092773	0.512389	-1.000000	-1.000000	-1.000000	-1.000000	-1.000000	-1.000000	-1.000000	61.000000	0.000000	-1.000000	-1.000000	1426362.000000	1776579253.859179
26635.635000	5191.200000	40564.305000	76845.465000	51225.705000	29219.670000	-8989.965000	15887.970000	-2.288373	-4.348977	-5.411716	-5.657435	-7.808859	-3.614261	-3.108694	-4.310438	-4.852680	3.387720	-3.448760	-0.848692	-0.092773	0.512389	-1.000000	-1.000000	-1.000000	-1.000000	-1.000000	-1.000000	-1.000000	61.000000	0.000000	-1.000000	-1.000000	1426363.000000	1776579253.859189
26637.660000	5192.910000	40565.385000	76843.980000	51229.170000	29228.400000	-8985.420000	15891.345000	-3.132067	-3.561487	-2.651405	0.315135	3.151285	7.165042	-1.656012	-3.910034	-2.411080	2.853620	-1.846460	-0.849119	-0.096740	0.512084	-1.000000	-1.000000	-1.000000	-1.000000	-1.000000	-1.000000	-1.000000	61.000000	0.000000	-1.000000	-1.000000	1426364.000000	1776579253.863327
26646.705000	5206.950000	40578.930000	76853.385000	51238.350000	29238.255000	-8974.980000	15904.755000	-2.492221	-0.774628	1.222944	5.283718	11.511121	14.472137	0.585738	-1.678181	-2.411080	2.853620	-1.846460	-0.849119	-0.096740	0.512084	-1.000000	-1.000000	-1.000000	-1.000000	-1.000000	-1.000000	-1.000000	61.000000	0.000000	-1.000000	-1.000000	1426365.000000	1776579253.863344
26648.460000	5210.415000	40582.305000	76853.385000	51236.505000	29244.465000	-8968.860000	15907.050000	-0.038588	3.213347	4.967013	7.345865	14.048319	16.768264	3.518803	2.000964	-2.411080	2.853620	-1.846460	-0.849119	-0.096740	0.512084	-1.000000	-1.000000	-1.000000	-1.000000	-1.000000	-1.000000	-1.000000	61.000000	0.000000	-1.000000	-1.000000	1426366.000000	1776579253.867234
26638.695000	5198.085000	40567.815000	76837.995000	51217.470000	29232.135000	-8972.685000	15899.085000	2.858645	6.271977	6.822472	5.974079	10.195507	13.718800	5.980006	5.270233	-2.411080	2.853620	-1.846460	-0.849119	-0.096740	0.512084	-1.000000	-1.000000	-1.000000	-1.000000	-1.000000	-1.000000	-1.000000	61.000000	0.000000	-1.000000	-1.000000	1426367.000000	1776579253.867242
26643.870000	5201.865000	40570.515000	76837.005000	51211.440000	29229.795000	-8969.130000	15903.810000	3.952277	5.915872	5.050587	1.530318	1.552281	5.976151	6.084954	5.695114	-2.411080	2.853620	-1.846460	-0.849119	-0.096740	0.512084	-1.000000	-1.000000	-1.000000	-1.000000	-1.000000	-1.000000	-1.000000	61.000000	0.000000	-1.000000	-1.000000	1426368.000000	1776579253.871606
26641.035000	5197.410000	40566.285000	76832.145000	51206.445000	29225.430000	-8979.300000	15894.855000	2.644009	2.100821	0.300786	-3.941624	-7.867142	-3.796186	3.137066	2.834916	-2.411080	2.853620	-1.846460	-0.849119	-0.096740	0.512084	-1.000000	-1.000000	-1.000000	-1.000000	-1.000000	-1.000000	-1.000000	61.000000	0.000000	-1.000000	-1.000000	1426369.000000	1776579253.871648
26644.320000	5208.840000	40579.110000	76847.085000	51221.790000	29232.945000	-8973.135000	15902.820000	0.321542	-2.390411	-4.193146	-7.072478	-12.851536	-11.251780	-1.570926	-1.386674	-2.411080	2.853620	-1.846460	-0.849119	-0.096740	0.512084	-1.000000	-1.000000	-1.000000	-1.000000	-1.000000	-1.000000	-1.000000	61.000000	0.000000	-1.000000	-1.000000	1426370.000000	1776579253.875299
26639.370000	5206.995000	40574.520000	76845.060000	51224.580000	29236.680000	-8977.230000	15900.120000	-1.503547	-4.604131	-5.536713	-5.690285	-10.400303	-12.967418	-5.545261	-4.384742	-2.411080	2.853620	-1.846460	-0.849119	-0.096740	0.512084	-1.000000	-1.000000	-1.000000	-1.000000	-1.000000	-1.000000	-1.000000	61.000000	0.000000	-1.000000	-1.000000	1426371.000000	1776579253.875309
26649.585000	5224.005000	40586.400000	76858.155000	51239.880000	29254.185000	-8967.690000	15912.405000	-2.115733	-3.567668	-3.472731	-0.740519	-2.109027	-8.566067	-6.677372	-4.558555	-2.411080	2.853620	-1.846460	-0.849119	-0.096740	0.512084	-1.000000	-1.000000	-1.000000	-1.000000	-1.000000	-1.000000	-1.000000	61.000000	0.000000	-1.000000	-1.000000	1426372.000000	1776579253.879284
26651.925000	5224.635000	40584.195000	76862.610000	51244.335000	29250.540000	-8965.620000	15914.295000	-1.317369	-0.358108	0.104736	4.696277	7.101528	-0.827331	-4.524974	-2.061101	-2.411080	2.853620	-1.846460	-0.849119	-0.096740	0.512084	-1.000000	-1.000000	-1.000000	-1.000000	-1.000000	-1.000000	-1.000000	61.000000	0.000000	-1.000000	-1.000000	1426373.000000	1776579253.879301
26645.310000	5210.820000	40573.485000	76848.570000	51224.805000	29228.985000	-8973.990000	15906.960000	0.255717	2.441417	2.630806	7.409506	11.914743	5.294946	-0.685507	1.202993	-1.464960	1.571780	-0.045780	-0.850279	-0.098938	0.512084	-1.000000	-1.000000	-1.000000	-1.000000	-1.000000	-1.000000	-1.000000	61.000000	0.000000	-1.000000	-1.000000	1426374.000000	1776579253.883353
26647.605000	5212.890000	40583.160000	76841.955000	51211.260000	29228.760000	-8970.165000	15910.740000	1.123328	2.224163	2.458294	5.344553	9.082636	5.709981	2.211227	2.765924	-1.464960	1.571780	-0.045780	-0.850279	-0.098938	0.512084	-1.000000	-1.000000	-1.000000	-1.000000	-1.000000	-1.000000	-1.000000	61.000000	0.000000	-1.000000	-1.000000	1426375.000000	1776579253.883373
26657.505000	5226.975000	40598.685000	76845.510000	51213.510000	29243.070000	-8961.435000	15920.775000	0.779747	-0.559386	0.753858	-0.475740	0.201404	1.488312	3.039943	2.083716	-1.464960	1.571780	-0.045780	-0.850279	-0.098938	0.512084	-1.000000	-1.000000	-1.000000	-1.000000	-1.000000	-1.000000	-1.000000	61.000000	0.000000	-1.000000	-1.000000	1426376.000000	1776579253.887404
26655.300000	5220.990000	40581.585000	76837.725000	51212.790000	29233.845000	-8966.790000	15914.430000	0.225631	-2.762617	-0.199037	-6.080840	-8.498976	-2.369156	2.662478	0.648269	-1.464960	1.571780	-0.045780	-0.850279	-0.098938	0.512084	-1.000000	-1.000000	-1.000000	-1.000000	-1.000000	-1.000000	-1.000000	61.000000	0.000000	-1.000000	-1.000000	1426377.000000	1776579253.887429
26649.990000	5214.465000	40578.345000	76837.770000	51212.610000	29222.280000	-8970.480000	15910.335000	-0.071278	-2.891900	-0.608350	-8.165395	-11.397937	-3.219363	1.694162	-0.639902	-1.464960	1.571780	-0.045780	-0.850279	-0.098938	0.512084	-1.000000	-1.000000	-1.000000	-1.000000	-1.000000	-1.000000	-1.000000	61.000000	0.000000	-1.000000	-1.000000	1426378.000000	1776579253.891348
26655.435000	5221.530000	40585.950000	76844.970000	51219.945000	29231.640000	-8964.000000	15918.795000	-0.603327	-1.963565	-1.627315	-6.083796	-7.586364	-2.132781	0.196712	-1.766045	-1.464960	1.571780	-0.045780	-0.850279	-0.098938	0.512084	-1.000000	-1.000000	-1.000000	-1.000000	-1.000000	-1.000000	-1.000000	61.000000	0.000000	-1.000000	-1.000000	1426379.000000	1776579253.891360
26643.645000	5204.835000	40570.920000	76839.570000	51215.175000	29213.595000	-8983.215000	15899.850000	-1.464170	-1.040514	-2.675507	-1.218692	-0.190648	-0.535304	-1.417560	-2.475047	-1.464960	1.571780	-0.045780	-0.850279	-0.098938	0.512084	-1.000000	-1.000000	-1.000000	-1.000000	-1.000000	-1.000000	-1.000000	61.000000	0.000000	-1.000000	-1.000000	1426380.000000	1776579253.895330
26643.735000	5212.170000	40580.955000	76848.930000	51222.915000	29218.095000	-8982.855000	15903.630000	-2.339758	-0.539102	-2.788211	3.883157	6.409530	0.747981	-2.907883	-2.782362	-1.464960	1.571780	-0.045780	-0.850279	-0.098938	0.512084	-1.000000	-1.000000	-1.000000	-1.000000	-1.000000	-1.000000	-1.000000	61.000000	0.000000	-1.000000	-1.000000	1426381.000000	1776579253.895341
26651.880000	5225.355000	40592.925000	76857.390000	51230.610000	29226.195000	-8970.480000	15915.735000	-2.580215	0.120979	-1.342728	7.158460	9.455926	1.651218	-3.572744	-2.367371	-1.464960	1.571780	-0.045780	-0.850279	-0.098938	0.512084	-1.000000	-1.000000	-1.000000	-1.000000	-1.000000	-1.000000	-1.000000	61.000000	0.000000	-1.000000	-1.000000	1426382.000000	1776579253.899365
26647.920000	5218.110000	40584.870000	76849.515000	51224.130000	29236.770000	-8967.870000	15908.265000	-1.333355	1.915607	1.684432	7.802080	8.638182	3.111408	-1.921456	-0.359148	-1.464960	1.571780	-0.045780	-0.850279	-0.098938	0.512084	-1.000000	-1.000000	-1.000000	-1.000000	-1.000000	-1.000000	-1.000000	61.000000	0.000000	-1.000000	-1.000000	1426383.000000	1776579253.899401
26638.830000	5203.125000	40567.635000	76830.300000	51204.915000	29237.940000	-8974.755000	15894.630000	0.841616	3.668497	4.091262	5.136351	4.401208	5.221805	1.706262	2.230785	-2.304260	1.831200	0.381500	-0.850828	-0.099609	0.510497	-1.000000	-1.000000	-1.000000	-1.000000	-1.000000	-1.000000	-1.000000	61.000000	0.000000	-1.000000	-1.000000	1426384.000000	1776579253.903391
26644.095000	5208.345000	40572.000000	76830.570000	51201.450000	29225.385000	-8979.570000	15899.580000	2.236733	3.112103	3.301739	-0.674524	-2.301311	6.052996	4.458581	3.086808	-2.304260	1.831200	0.381500	-0.850828	-0.099609	0.510497	-1.000000	-1.000000	-1.000000	-1.000000	-1.000000	-1.000000	-1.000000	61.000000	0.000000	-1.000000	-1.000000	1426385.000000	1776579253.903418
26652.240000	5221.350000	40587.345000	76844.475000	51214.005000	29236.815000	-8967.915000	15915.465000	2.501966	0.829738	0.403444	-6.458153	-8.297114	3.764011	4.402285	2.325944	-2.304260	1.831200	0.381500	-0.850828	-0.099609	0.510497	-1.000000	-1.000000	-1.000000	-1.000000	-1.000000	-1.000000	-1.000000	61.000000	0.000000	-1.000000	-1.000000	1426386.000000	1776579253.907265
26648.595000	5215.905000	40581.000000	76842.090000	51215.760000	29237.220000	-8972.865000	15913.035000	2.571619	-0.486985	-1.151838	-7.933470	-9.483804	-0.599379	2.486119	2.106876	-2.304260	1.831200	0.381500	-0.850828	-0.099609	0.510497	-1.000000	-1.000000	-1.000000	-1.000000	-1.000000	-1.000000	-1.000000	61.000000	0.000000	-1.000000	-1.000000	1426387.000000	1776579253.907274
26640.495000	5204.070000	40567.050000	76833.720000	51209.730000	29235.555000	-8984.070000	15901.695000	2.370370	-0.330924	-0.648778	-4.581589	-5.214477	-4.278400	0.176837	2.609225	-2.304260	1.831200	0.381500	-0.850828	-0.099609	0.510497	-1.000000	-1.000000	-1.000000	-1.000000	-1.000000	-1.000000	-1.000000	61.000000	0.000000	-1.000000	-1.000000	1426388.000000	1776579253.911250
26635.185000	5198.985000	40564.710000	76836.285000	51219.900000	29240.460000	-8988.525000	15896.295000	0.899015	-0.586358	-0.353738	0.140832	1.057425	-5.757409	-2.277778	1.756460	-2.304260	1.831200	0.381500	-0.850828	-0.099609	0.510497	-1.000000	-1.000000	-1.000000	-1.000000	-1.000000	-1.000000	-1.000000	61.000000	0.000000	-1.000000	-1.000000	1426389.000000	1776579253.911260
26637.210000	5201.370000	40566.375000	76834.845000	51217.335000	29234.970000	-8984.385000	15898.905000	-1.628815	-1.938270	-1.256933	3.166506	5.679658	-5.137320	-4.289480	-1.067143	-2.304260	1.831200	0.381500	-0.850828	-0.099609	0.510497	-1.000000	-1.000000	-1.000000	-1.000000	-1.000000	-1.000000	-1.000000	61.000000	0.000000	-1.000000	-1.000000	1426390.000000	1776579253.915492
26638.290000	5203.980000	40566.330000	76832.460000	51207.210000	29223.495000	-8978.805000	15902.280000	-3.426577	-2.804791	-1.933807	3.834071	6.803250	-3.602929	-4.278933	-3.729376	-2.304260	1.831200	0.381500	-0.850828	-0.099609	0.510497	-1.000000	-1.000000	-1.000000	-1.000000	-1.000000	-1.000000	-1.000000	61.000000	0.000000	-1.000000	-1.000000	1426391.000000	1776579253.915520
26642.025000	5207.400000	40565.970000	76825.035000	51196.230000	29217.060000	-8976.060000	15908.895000	-3.010250	-1.675006	-1.121522	2.687313	4.016949	-2.619878	-1.566025	-3.882978	-2.304260	1.831200	0.381500	-0.850828	-0.099609	0.510497	-1.000000	-1.000000	-1.000000	-1.000000	-1.000000	-1.000000	-1.000000	61.000000	0.000000	-1.000000	-1.000000	1426392.000000	1776579253.919389
26648.370000	5216.355000	40574.970000	76830.660000	51198.255000	29224.260000	-8973.045000	15913.530000	-0.528169	1.206874	0.951108	0.697484	-1.099327	-2.192281	2.409014	-1.280173	-2.304260	1.831200	0.381500	-0.850828	-0.099609	0.510497	-1.000000	-1.000000	-1.000000	-1.000000	-1.000000	-1.000000	-1.000000	61.000000	0.000000	-1.000000	-1.000000	1426393.000000	1776579253.919418
26647.470000	5220.360000	40579.605000	76834.620000	51196.320000	29217.105000	-8979.570000	15907.410000	2.523381	4.324189	3.352566	-0.685963	-5.188703	-0.960025	5.100880	2.108246	-1.815940	0.259420	0.824040	-0.851316	-0.099853	0.510497	-1.000000	-1.000000	-1.000000	-1.000000	-1.000000	-1.000000	-1.000000	61.000000	0.000000	-1.000000	-1.000000	1426394.000000	1776579253.925908
26656.335000	5234.085000	40596.345000	76849.965000	51211.125000	29221.560000	-8973.540000	15917.220000	4.383711	6.105657	5.213997	-0.219589	-5.435459	1.534671	4.863567	3.845373	-1.815940	0.259420	0.824040	-0.851316	-0.099853	0.510497	-1.000000	-1.000000	-1.000000	-1.000000	-1.000000	-1.000000	-1.000000	61.000000	0.000000	-1.000000	-1.000000	1426395.000000	1776579253.925945
26659.170000	5241.240000	40603.095000	76858.020000	51223.005000	29233.260000	-8967.780000	15921.945000	4.272419	5.865151	5.944354	2.060776	-1.398086	4.472653	2.359815	3.319624	-1.815940	0.259420	0.824040	-0.851316	-0.099853	0.510497	-1.000000	-1.000000	-1.000000	-1.000000	-1.000000	-1.000000	-1.000000	61.000000	0.000000	-1.000000	-1.000000	1426396.000000	1776579253.928056
26650.530000	5232.420000	40596.210000	76857.210000	51231.330000	29256.345000	-8967.465000	15913.170000	2.350080	3.509679	4.792619	4.407529	4.719643	7.288726	-0.339093	1.456786	-1.815940	0.259420	0.824040	-0.851316	-0.099853	0.510497	-1.000000	-1.000000	-1.000000	-1.000000	-1.000000	-1.000000	-1.000000	61.000000	0.000000	-1.000000	-1.000000	1426397.000000	1776579253.928074
26646.615000	5224.005000	40591.035000	76853.430000	51232.410000	29257.335000	-8970.345000	15909.570000	-1.037594	-1.067775	0.897559	4.304594	9.073090	9.394378	-2.064083	-1.162427	-1.815940	0.259420	0.824040	-0.851316	-0.099853	0.510497	-1.000000	-1.000000	-1.000000	-1.000000	-1.000000	-1.000000	-1.000000	61.000000	0.000000	-1.000000	-1.000000	1426398.000000	1776579253.931506
26657.280000	5228.460000	40592.655000	76851.855000	51225.300000	29247.345000	-8961.300000	15924.150000	-4.611694	-6.754544	-4.952063	0.766355	8.496680	8.780985	-2.837245	-3.692328	-1.815940	0.259420	0.824040	-0.851316	-0.099853	0.510497	-1.000000	-1.000000	-1.000000	-1.000000	-1.000000	-1.000000	-1.000000	61.000000	0.000000	-1.000000	-1.000000	1426399.000000	1776579253.931518
26662.860000	5226.570000	40582.935000	76838.265000	51205.905000	29235.195000	-8954.595000	15933.015000	-5.960516	-10.566184	-9.921362	-4.664230	2.422105	3.367540	-2.555418	-4.157932	-1.815940	0.259420	0.824040	-0.851316	-0.099853	0.510497	-1.000000	-1.000000	-1.000000	-1.000000	-1.000000	-1.000000	-1.000000	61.000000	0.000000	-1.000000	-1.000000	1426400.000000	1776579253.936216
26662.230000	5227.380000	40581.045000	76832.235000	51195.870000	29226.555000	-8957.205000	15930.630000	-3.985887	-10.103483	-11.523596	-9.364140	-6.714487	-5.758804	-1.246247	-1.794485	-1.815940	0.259420	0.824040	-0.851316	-0.099853	0.510497	-1.000000	-1.000000	-1.000000	-1.000000	-1.000000	-1.000000	-1.000000	61.000000	0.000000	-1.000000	-1.000000	1426401.000000	1776579253.936231
26654.895000	5217.570000	40572.450000	76826.070000	51189.120000	29214.225000	-8968.095000	15917.670000	-0.525169	-5.880433	-9.289605	-11.101783	-14.267163	-14.172356	-0.155583	1.075564	-1.815940	0.259420	0.824040	-0.851316	-0.099853	0.510497	-1.000000	-1.000000	-1.000000	-1.000000	-1.000000	-1.000000	-1.000000	61.000000	0.000000	-1.000000	-1.000000	1426402.000000	1776579253.939337
26656.470000	5220.765000	40576.995000	76832.010000	51198.795000	29224.845000	-8963.325000	15920.595000	1.653995	-0.495318	-4.319167	-8.653429	-15.639286	-17.143845	-0.588170	1.546163	-1.815940	0.259420	0.824040	-0.851316	-0.099853	0.510497	-1.000000	-1.000000	-1.000000	-1.000000	-1.000000	-1.000000	-1.000000	61.000000	0.000000	-1.000000	-1.000000	1426403.000000	1776579253.939350
26652.780000	5217.705000	40574.205000	76831.065000	51202.170000	29224.935000	-8967.150000	15916.230000	1.631803	3.811464	1.696049	-2.460137	-9.257341	-12.486780	-1.955027	-0.416094	-1.632820	-0.839300	1.953280	-0.850645	-0.099426	0.512389	-1.000000	-1.000000	-1.000000	-1.000000	-1.000000	-1.000000	-1.000000	61.000000	0.000000	-1.000000	-1.000000	1426404.000000	1776579253.945370
26645.805000	5209.245000	40566.960000	76829.805000	51206.535000	29218.995000	-8978.580000	15905.385000	0.315289	6.016322	6.756693	4.976295	1.909956	-2.368060	-2.802038	-2.707929	-1.632820	-0.839300	1.953280	-0.850645	-0.099426	0.512389	-1.000000	-1.000000	-1.000000	-1.000000	-1.000000	-1.000000	-1.000000	61.000000	0.000000	-1.000000	-1.000000	1426405.000000	1776579253.945392
26648.550000	5214.150000	40569.750000	76841.460000	51221.655000	29227.320000	-8975.385000	15909.210000	-1.027497	5.955592	9.059933	10.455040	12.305978	7.841295	-2.618213	-3.689860	-1.632820	-0.839300	1.953280	-0.850645	-0.099426	0.512389	-1.000000	-1.000000	-1.000000	-1.000000	-1.000000	-1.000000	-1.000000	61.000000	0.000000	-1.000000	-1.000000	1426406.000000	1776579253.947435
26642.070000	5203.845000	40554.495000	76830.705000	51210.180000	29216.295000	-8984.565000	15900.705000	-1.414564	4.352041	8.070102	12.065423	17.302707	13.555157	-1.456638	-2.749864	-1.632820	-0.839300	1.953280	-0.850645	-0.099426	0.512389	-1.000000	-1.000000	-1.000000	-1.000000	-1.000000	-1.000000	-1.000000	61.000000	0.000000	-1.000000	-1.000000	1426407.000000	1776579253.947449
26646.750000	5212.170000	40565.520000	76828.095000	51200.235000	29215.980000	-8980.065000	15906.240000	-0.545386	2.345005	4.768242	9.351079	14.682698	13.139712	0.467778	-0.205364	-1.632820	-0.839300	1.953280	-0.850645	-0.099426	0.512389	-1.000000	-1.000000	-1.000000	-1.000000	-1.000000	-1.000000	-1.000000	61.000000	0.000000	-1.000000	-1.000000	1426408.000000	1776579253.951468
26644.815000	5210.235000	40571.280000	76818.960000	51181.200000	29197.710000	-8987.895000	15901.245000	1.143543	0.926750	1.411599	3.259467	5.282700	7.633827	2.568234	2.841068	-1.632820	-0.839300	1.953280	-0.850645	-0.099426	0.512389	-1.000000	-1.000000	-1.000000	-1.000000	-1.000000	-1.000000	-1.000000	61.000000	0.000000	-1.000000	-1.000000	1426409.000000	1776579253.951478
26651.790000	5217.930000	40577.535000	76827.060000	51187.140000	29198.475000	-8985.555000	15907.995000	2.920722	0.595812	0.089182	-3.434405	-6.371888	-0.048436	4.050935	5.165175	-1.632820	-0.839300	1.953280	-0.850645	-0.099426	0.512389	-1.000000	-1.000000	-1.000000	-1.000000	-1.000000	-1.000000	-1.000000	61.000000	0.000000	-1.000000	-1.000000	1426410.000000	1776579253.955325
26643.780000	5204.295000	40563.810000	76823.280000	51185.295000	29191.545000	-8994.915000	15898.950000	3.939077	0.773198	0.402895	-7.395040	-13.931197	-6.233848	4.269041	5.862730	-1.632820	-0.839300	1.953280	-0.850645	-0.099426	0.512389	-1.000000	-1.000000	-1.000000	-1.000000	-1.000000	-1.000000	-1.000000	61.000000	0.000000	-1.000000	-1.000000	1426411.000000	1776579253.955334
26641.530000	5201.190000	40559.580000	76819.680000	51186.870000	29197.305000	-8992.305000	15898.815000	3.344458	0.095051	-0.044484	-7.289740	-13.615467	-8.151910	3.132200	4.503315	-1.632820	-0.839300	1.953280	-0.850645	-0.099426	0.512389	-1.000000	-1.000000	-1.000000	-1.000000	-1.000000	-1.000000	-1.000000	61.000000	0.000000	-1.000000	-1.000000	1426412.000000	1776579253.959746
26641.035000	5202.180000	40561.920000	76828.365000	51204.285000	29217.285000	-8987.715000	15900.705000	1.081194	-1.819790	-2.306384	-4.317297	-6.491105	-5.070575	1.453272	1.627107	-1.632820	-0.839300	1.953280	-0.850645	-0.099426	0.512389	-1.000000	-1.000000	-1.000000	-1.000000	-1.000000	-1.000000	-1.000000	61.000000	0.000000	-1.000000	-1.000000	1426413.000000	1776579253.959770
26630.865000	5188.230000	40550.445000	76825.125000	51209.370000	29219.445000	-8998.200000	15887.385000	-1.747456	-3.757577	-4.866807	-0.384521	3.374511	1.497901	0.231536	-1.433577	-1.648080	-0.549360	2.502640	-0.847410	-0.097717	0.515563	-1.000000	-1.000000	-1.000000	-1.000000	-1.000000	-1.000000	-1.000000	61.000000	0.000000	-1.000000	-1.000000	1426414.000000	1776579253.963356
26632.530000	5192.190000	40553.235000	76823.955000	51206.175000	29217.510000	-8993.115000	15892.920000	-3.846890	-4.510211	-5.889287	2.744507	11.026052	7.658109	-0.505463	-3.667529	-1.648080	-0.549360	2.502640	-0.847410	-0.097717	0.515563	-1.000000	-1.000000	-1.000000	-1.000000	-1.000000	-1.000000	-1.000000	61.000000	0.000000	-1.000000	-1.000000	1426415.000000	1776579253.963385
26644.230000	5205.420000	40563.945000	76828.005000	51200.775000	29202.390000	-8983.980000	15906.735000	-4.050139	-3.251031	-4.438861	3.844063	12.456186	8.935534	-0.841281	-4.084264	-1.648080	-0.549360	2.502640	-0.847410	-0.097717	0.515563	-1.000000	-1.000000	-1.000000	-1.000000	-1.000000	-1.000000	-1.000000	61.000000	0.000000	-1.000000	-1.000000	1426416.000000	1776579253.967493
26642.250000	5196.285000	40554.270000	76816.260000	51181.920000	29174.130000	-8995.365000	15897.780000	-1.719687	0.195451	-0.710451	2.861115	6.888394	3.486107	-0.533871	-2.041560	-1.648080	-0.549360	2.502640	-0.847410	-0.097717	0.515563	-1.000000	-1.000000	-1.000000	-1.000000	-1.000000	-1.000000	-1.000000	61.000000	0.000000	-1.000000	-1.000000	1426417.000000	1776579253.967522
26631.360000	5176.890000	40536.270000	76800.375000	51169.545000	29170.890000	-9009.135000	15880.590000	1.649704	3.562109	2.889519	0.185415	-2.821385	-6.190205	-0.534504	0.616027	-1.648080	-0.549360	2.502640	-0.847410	-0.097717	0.515563	-1.000000	-1.000000	-1.000000	-1.000000	-1.000000	-1.000000	-1.000000	61.000000	0.000000	-1.000000	-1.000000	1426418.000000	1776579253.971404
26628.210000	5175.270000	40534.650000	76802.670000	51179.895000	29201.715000	-9002.160000	15879.870000	3.181119	3.724558	3.464776	-3.346227	-11.358976	-13.374752	-1.900214	0.967530	-1.648080	-0.549360	2.502640	-0.847410	-0.097717	0.515563	-1.000000	-1.000000	-1.000000	-1.000000	-1.000000	-1.000000	-1.000000	61.000000	0.000000	-1.000000	-1.000000	1426419.000000	1776579253.971422
26627.580000	5180.130000	40539.330000	76809.645000	51187.995000	29208.510000	-8998.290000	15883.335000	1.881659	0.964571	1.367209	-5.391095	-13.332201	-11.503095	-3.302070	-0.898722	-1.648080	-0.549360	2.502640	-0.847410	-0.097717	0.515563	-1.000000	-1.000000	-1.000000	-1.000000	-1.000000	-1.000000	-1.000000	61.000000	0.000000	-1.000000	-1.000000	1426420.000000	1776579253.975451
26624.925000	5181.210000	40544.055000	76817.205000	51198.255000	29201.940000	-9007.650000	15880.590000	-0.561768	-1.340305	-0.253100	-3.616633	-7.198949	-1.336843	-2.791996	-2.227641	-1.648080	-0.549360	2.502640	-0.847410	-0.097717	0.515563	-1.000000	-1.000000	-1.000000	-1.000000	-1.000000	-1.000000	-1.000000	61.000000	0.000000	-1.000000	-1.000000	1426421.000000	1776579253.975466
26616.600000	5169.240000	40532.715000	76812.795000	51204.510000	29205.135000	-9014.940000	15872.580000	-2.206900	-1.236999	0.347102	1.332244	3.186082	9.172115	-0.890994	-1.542904	-1.648080	-0.549360	2.502640	-0.847410	-0.097717	0.515563	-1.000000	-1.000000	-1.000000	-1.000000	-1.000000	-1.000000	-1.000000	61.000000	0.000000	-1.000000	-1.000000	1426422.000000	1776579253.979465
26624.205000	5180.310000	40537.710000	76814.820000	51207.570000	29220.660000	-9006.120000	15883.785000	-2.339387	0.300357	1.893133	5.967634	11.602552	13.392474	0.737388	0.390700	-1.648080	-0.549360	2.502640	-0.847410	-0.097717	0.515563	-1.000000	-1.000000	-1.000000	-1.000000	-1.000000	-1.000000	-1.000000	61.000000	0.000000	-1.000000	-1.000000	1426423.000000	1776579253.979487
26627.940000	5182.830000	40542.705000	76815.225000	51201.720000	29205.450000	-9005.040000	15887.475000	-0.848070	1.977229	2.754202	7.280224	13.556400	10.651744	1.886933	2.659471	-1.052940	0.503580	3.113040	-0.845945	-0.094604	0.518187	-1.000000	-1.000000	-1.000000	-1.000000	-1.000000	-1.000000	-1.000000	61.000000	0.000000	-1.000000	-1.000000	1426424.000000	1776579253.983411
26622.405000	5173.335000	40533.300000	76799.160000	51181.380000	29188.080000	-9013.455000	15877.530000	1.668032	3.077233	2.574523	4.715959	8.144731	3.153501	2.823071	4.411191	-1.052940	0.503580	3.113040	-0.845945	-0.094604	0.518187	-1.000000	-1.000000	-1.000000	-1.000000	-1.000000	-1.000000	-1.000000	61.000000	0.000000	-1.000000	-1.000000	1426425.000000	1776579253.983420
26629.245000	5183.280000	40540.455000	76803.885000	51179.490000	29192.220000	-9007.245000	15882.210000	3.612073	2.779589	1.383080	-0.328871	-1.896575	-6.052933	2.941790	4.293252	-1.052940	0.503580	3.113040	-0.845945	-0.094604	0.518187	-1.000000	-1.000000	-1.000000	-1.000000	-1.000000	-1.000000	-1.000000	61.000000	0.000000	-1.000000	-1.000000	1426426.000000	1776579253.987341
26628.345000	5180.670000	40537.665000	76802.085000	51177.240000	29190.780000	-9007.155000	15879.555000	3.861504	1.193056	-0.364355	-5.029345	-11.069450	-12.458024	2.049402	2.048396	-1.052940	0.503580	3.113040	-0.845945	-0.094604	0.518187	-1.000000	-1.000000	-1.000000	-1.000000	-1.000000	-1.000000	-1.000000	61.000000	0.000000	-1.000000	-1.000000	1426427.000000	1776579253.987358
26626.680000	5183.460000	40541.040000	76804.380000	51179.535000	29192.940000	-9005.580000	15883.920000	2.503633	-0.616011	-1.747039	-6.643816	-14.186508	-12.524033	0.843297	-0.860701	-1.052940	0.503580	3.113040	-0.845945	-0.094604	0.518187	-1.000000	-1.000000	-1.000000	-1.000000	-1.000000	-1.000000	-1.000000	61.000000	0.000000	-1.000000	-1.000000	1426428.000000	1776579253.991446
26620.560000	5179.455000	40539.420000	76804.470000	51182.595000	29186.505000	-9013.545000	15881.220000	0.061307	-1.989569	-2.269161	-4.667129	-9.949335	-6.843956	-0.310573	-2.833427	-1.052940	0.503580	3.113040	-0.845945	-0.094604	0.518187	-1.000000	-1.000000	-1.000000	-1.000000	-1.000000	-1.000000	-1.000000	61.000000	0.000000	-1.000000	-1.000000	1426429.000000	1776579253.991469
26627.265000	5190.210000	40550.310000	76815.810000	51197.355000	29204.370000	-9006.795000	15889.950000	-2.559643	-2.656205	-1.885030	-0.611952	-1.085203	1.027502	-1.466333	-3.179556	-1.052940	0.503580	3.113040	-0.845945	-0.094604	0.518187	-1.000000	-1.000000	-1.000000	-1.000000	-1.000000	-1.000000	-1.000000	61.000000	0.000000	-1.000000	-1.000000	1426430.000000	1776579253.995468
26627.355000	5193.360000	40552.560000	76820.895000	51208.155000	29222.055000	-9001.170000	15889.545000	-3.951282	-2.211393	-0.658413	3.602124	8.166804	8.093937	-2.095473	-2.056374	-1.052940	0.503580	3.113040	-0.845945	-0.094604	0.518187	-1.000000	-1.000000	-1.000000	-1.000000	-1.000000	-1.000000	-1.000000	61.000000	0.000000	-1.000000	-1.000000	1426431.000000	1776579253.995480
26628.345000	5193.270000	40552.110000	76821.255000	51205.860000	29214.225000	-9000.135000	15889.680000	-3.337870	-0.780041	0.806743	6.225623	13.836274	12.468606	-1.482453	-0.364679	-1.052940	0.503580	3.113040	-0.845945	-0.094604	0.518187	-1.000000	-1.000000	-1.000000	-1.000000	-1.000000	-1.000000	-1.000000	61.000000	0.000000	-1.000000	-1.000000	1426432.000000	1776579253.999460
26618.535000	5188.590000	40538.700000	76794.120000	51175.980000	29187.765000	-9012.375000	15881.265000	-1.585536	0.418053	1.113551	5.433120	12.739323	11.562131	-0.294405	0.533644	-1.052940	0.503580	3.113040	-0.845945	-0.094604	0.518187	-1.000000	-1.000000	-1.000000	-1.000000	-1.000000	-1.000000	-1.000000	61.000000	0.000000	-1.000000	-1.000000	1426433.000000	1776579253.999469
26622.495000	5193.810000	40540.905000	76786.245000	51160.140000	29179.485000	-9004.230000	15887.970000	-0.238510	0.327612	-0.609300	0.346453	4.063360	3.910945	-0.001005	-0.006075	-0.976640	0.503580	3.784480	-0.845396	-0.089172	0.519225	-1.000000	-1.000000	-1.000000	-1.000000	-1.000000	-1.000000	-1.000000	61.000000	0.000000	-1.000000	-1.000000	1426434.000000	1776579254.003351
26631.135000	5195.970000	40554.090000	76809.465000	51169.320000	29190.960000	-9000.180000	15892.155000	0.427526	-0.588563	-2.909582	-6.185242	-7.885820	-6.707569	-0.537931	-0.986732	-0.976640	0.503580	3.784480	-0.845396	-0.089172	0.519225	-1.000000	-1.000000	-1.000000	-1.000000	-1.000000	-1.000000	-1.000000	61.000000	0.000000	-1.000000	-1.000000	1426435.000000	1776579254.003360
26639.100000	5209.290000	40559.580000	76817.835000	51182.820000	29199.420000	-8995.905000	15901.650000	1.438491	-0.919946	-3.014794	-8.374477	-14.947891	-12.863040	-0.531982	-0.809285	-0.976640	0.503580	3.784480	-0.845396	-0.089172	0.519225	-1.000000	-1.000000	-1.000000	-1.000000	-1.000000	-1.000000	-1.000000	61.000000	0.000000	-1.000000	-1.000000	1426436.000000	1776579254.007503
26629.065000	5196.510000	40551.705000	76813.335000	51183.810000	29191.770000	-9008.145000	15887.340000	2.876642	-0.129024	-0.446268	-3.978972	-12.102429	-10.668354	0.210441	0.557748	-0.976640	0.503580	3.784480	-0.845396	-0.089172	0.519225	-1.000000	-1.000000	-1.000000	-1.000000	-1.000000	-1.000000	-1.000000	61.000000	0.000000	-1.000000	-1.000000	1426437.000000	1776579254.007521
26629.740000	5199.705000	40556.745000	76826.745000	51201.720000	29213.730000	-8996.715000	15893.100000	3.145278	0.602469	2.283986	3.110216	-1.863980	-2.778951	0.579607	1.392106	-0.976640	0.503580	3.784480	-0.845396	-0.089172	0.519225	-1.000000	-1.000000	-1.000000	-1.000000	-1.000000	-1.000000	-1.000000	61.000000	0.000000	-1.000000	-1.000000	1426438.000000	1776579254.011535
26631.810000	5200.290000	40551.210000	76827.915000	51206.760000	29214.135000	-8998.920000	15894.540000	1.369717	0.188338	2.946083	7.900021	9.044785	5.700295	0.307191	0.774070	-0.976640	0.503580	3.784480	-0.845396	-0.089172	0.519225	-1.000000	-1.000000	-1.000000	-1.000000	-1.000000	-1.000000	-1.000000	61.000000	0.000000	-1.000000	-1.000000	1426439.000000	1776579254.011552
26633.745000	5200.110000	40554.810000	76827.195000	51203.610000	29204.235000	-9007.245000	15892.245000	-1.166223	-0.814757	1.531407	8.145735	14.669642	10.469118	-0.130540	-0.388723	-0.976640	0.503580	3.784480	-0.845396	-0.089172	0.519225	-1.000000	-1.000000	-1.000000	-1.000000	-1.000000	-1.000000	-1.000000	61.000000	0.000000	-1.000000	-1.000000	1426440.000000	1776579254.018909
26631.855000	5195.835000	40558.680000	76819.005000	51190.155000	29195.595000	-9010.665000	15890.355000	-2.731587	-1.445110	-0.455519	4.084236	12.151821	8.924626	-0.874180	-1.167344	-0.976640	0.503580	3.784480	-0.845396	-0.089172	0.519225	-1.000000	-1.000000	-1.000000	-1.000000	-1.000000	-1.000000	-1.000000	61.000000	0.000000	-1.000000	-1.000000	1426441.000000	1776579254.018925
26622.495000	5178.015000	40536.045000	76797.315000	51173.955000	29194.785000	-9011.700000	15880.410000	-2.995224	-1.778863	-1.857368	-2.605254	2.681066	2.086310	-1.881039	-1.576012	-0.976640	0.503580	3.784480	-0.845396	-0.089172	0.519225	-1.000000	-1.000000	-1.000000	-1.000000	-1.000000	-1.000000	-1.000000	61.000000	0.000000	-1.000000	-1.000000	1426442.000000	1776579254.019565
26615.430000	5178.015000	40526.055000	76781.025000	51162.345000	29193.120000	-9014.805000	15873.120000	-2.826653	-2.389106	-3.169540	-9.575241	-8.978996	-5.487587	-2.296794	-2.032605	-0.976640	0.503580	3.784480	-0.845396	-0.089172	0.519225	-1.000000	-1.000000	-1.000000	-1.000000	-1.000000	-1.000000	-1.000000	61.000000	0.000000	-1.000000	-1.000000	1426443.000000	1776579254.019574
26620.920000	5192.955000	40539.420000	76789.035000	51169.140000	29201.760000	-9004.455000	15883.155000	-2.619592	-2.441903	-4.407046	-13.669876	-16.617143	-9.140066	-1.323094	-2.269120	-1.022420	0.289940	3.906560	-0.845457	-0.085388	0.520934	-1.000000	-1.000000	-1.000000	-1.000000	-1.000000	-1.000000	-1.000000	61.000000	0.000000	-1.000000	-1.000000	1426444.000000	1776579254.023733
26629.020000	5196.735000	40553.550000	76815.405000	51187.185000	29191.635000	-8998.155000	15892.155000	-1.423261	-0.087169	-3.264236	-11.192606	-15.525768	-7.387340	1.211675	-0.946205	-1.022420	0.289940	3.906560	-0.845457	-0.085388	0.520934	-1.000000	-1.000000	-1.000000	-1.000000	-1.000000	-1.000000	-1.000000	61.000000	0.000000	-1.000000	-1.000000	1426445.000000	1776579254.023750
26630.055000	5199.075000	40558.095000	76822.155000	51191.235000	29180.070000	-9001.350000	15892.290000	1.454650	4.334198	1.630147	-1.203940	-5.687318	-2.723668	4.273531	2.390291	-1.022420	0.289940	3.906560	-0.845457	-0.085388	0.520934	-1.000000	-1.000000	-1.000000	-1.000000	-1.000000	-1.000000	-1.000000	61.000000	0.000000	-1.000000	-1.000000	1426446.000000	1776579254.029497
26619.885000	5188.095000	40545.270000	76813.020000	51188.130000	29182.455000	-9015.570000	15879.195000	4.540452	7.600446	7.375080	11.158006	7.130486	1.138364	5.462436	5.513345	-1.022420	0.289940	3.906560	-0.845457	-0.085388	0.520934	-1.000000	-1.000000	-1.000000	-1.000000	-1.000000	-1.000000	-1.000000	61.000000	0.000000	-1.000000	-1.000000	1426447.000000	1776579254.029545
26623.710000	5194.215000	40548.735000	76817.205000	51200.865000	29214.630000	-9004.590000	15888.105000	5.364395	6.894223	9.250677	17.826777	15.452681	3.490544	3.273229	5.604587	-1.022420	0.289940	3.906560	-0.845457	-0.085388	0.520934	-1.000000	-1.000000	-1.000000	-1.000000	-1.000000	-1.000000	-1.000000	61.000000	0.000000	-1.000000	-1.000000	1426448.000000	1776579254.031463
26617.860000	5185.935000	40538.610000	76805.865000	51194.835000	29230.110000	-8998.695000	15886.755000	3.319999	2.606308	5.685953	14.938266	15.757994	6.454846	-0.495830	2.718265	-1.022420	0.289940	3.906560	-0.845457	-0.085388	0.520934	-1.000000	-1.000000	-1.000000	-1.000000	-1.000000	-1.000000	-1.000000	61.000000	0.000000	-1.000000	-1.000000	1426449.000000	1776579254.031495
26621.505000	5194.890000	40546.620000	76804.470000	51185.205000	29220.435000	-8990.550000	15894.720000	0.028785	-2.418787	-0.673154	5.055200	9.154585	9.901928	-2.582585	-0.635134	-1.022420	0.289940	3.906560	-0.845457	-0.085388	0.520934	-1.000000	-1.000000	-1.000000	-1.000000	-1.000000	-1.000000	-1.000000	61.000000	0.000000	-1.000000	-1.000000	1426450.000000	1776579254.035597
26625.960000	5200.605000	40551.165000	76808.700000	51182.235000	29219.985000	-8985.510000	15899.850000	-2.352742	-5.214175	-5.592021	-5.775972	-0.847206	9.947845	-1.857823	-2.324046	-1.022420	0.289940	3.906560	-0.845457	-0.085388	0.520934	-1.000000	-1.000000	-1.000000	-1.000000	-1.000000	-1.000000	-1.000000	61.000000	0.000000	-1.000000	-1.000000	1426451.000000	1776579254.035622
26638.020000	5213.475000	40562.235000	76812.615000	51187.860000	29235.330000	-8977.005000	15913.710000	-2.402040	-4.358067	-6.247654	-11.871178	-9.484775	4.547222	0.307158	-1.783490	-1.022420	0.289940	3.906560	-0.845457	-0.085388	0.520934	-1.000000	-1.000000	-1.000000	-1.000000	-1.000000	-1.000000	-1.000000	61.000000	0.000000	-1.000000	-1.000000	1426452.000000	1776579254.039512
26639.460000	5215.230000	40565.880000	76819.140000	51196.320000	29233.305000	-8977.545000	15916.230000	-0.274263	-0.835266	-2.952905	-11.070172	-12.541064	-3.217469	1.878472	0.150757	-1.022420	0.289940	3.906560	-0.845457	-0.085388	0.520934	-1.000000	-1.000000	-1.000000	-1.000000	-1.000000	-1.000000	-1.000000	61.000000	0.000000	-1.000000	-1.000000	1426453.000000	1776579254.039526
26639.010000	5216.220000	40569.030000	76824.135000	51203.160000	29232.810000	-8980.605000	15914.430000	2.120806	2.552072	1.446112	-5.298654	-8.981411	-9.095573	1.442277	1.614944	-3.250380	1.419180	2.517900	-0.844541	-0.084350	0.521117	-1.000000	-1.000000	-1.000000	-1.000000	-1.000000	-1.000000	-1.000000	61.000000	0.000000	-1.000000	-1.000000	1426454.000000	1776579254.043521
26639.505000	5215.680000	40571.010000	76829.130000	51212.655000	29240.370000	-8982.180000	15913.395000	2.599859	3.290133	3.900290	1.513145	-1.522831	-11.172411	-1.104171	0.911679	-3.250380	1.419180	2.517900	-0.844541	-0.084350	0.521117	-1.000000	-1.000000	-1.000000	-1.000000	-1.000000	-1.000000	-1.000000	61.000000	0.000000	-1.000000	-1.000000	1426455.000000	1776579254.043532
26640.495000	5220.720000	40575.060000	76837.995000	51222.285000	29244.510000	-8982.945000	15913.170000	0.706433	1.132699	3.267128	6.034998	5.586225	-9.361458	-4.312066	-1.859371	-3.250380	1.419180	2.517900	-0.844541	-0.084350	0.521117	-1.000000	-1.000000	-1.000000	-1.000000	-1.000000	-1.000000	-1.000000	61.000000	0.000000	-1.000000	-1.000000	1426456.000000	1776579254.047522
26634.915000	5217.885000	40569.840000	76830.345000	51212.475000	29231.820000	-8988.840000	15908.400000	-2.249567	-2.085503	0.457771	6.797652	8.894156	-5.103407	-6.231483	-4.903118	-3.250380	1.419180	2.517900	-0.844541	-0.084350	0.521117	-1.000000	-1.000000	-1.000000	-1.000000	-1.000000	-1.000000	-1.000000	61.000000	0.000000	-1.000000	-1.000000	1426457.000000	1776579254.047544
26647.065000	5236.020000	40584.330000	76833.000000	51205.815000	29237.895000	-8971.650000	15927.030000	-4.433983	-4.086809	-2.634553	3.967329	6.743196	-0.966527	-5.569246	-6.058075	-3.250380	1.419180	2.517900	-0.844541	-0.084350	0.521117	-1.000000	-1.000000	-1.000000	-1.000000	-1.000000	-1.000000	-1.000000	61.000000	0.000000	-1.000000	-1.000000	1426458.000000	1776579254.051603
26653.635000	5244.345000	40591.080000	76833.495000	51198.345000	29240.460000	-8962.965000	15934.410000	-4.251945	-3.327107	-3.936460	-0.738704	0.222935	1.678617	-1.868584	-3.829483	-3.250380	1.419180	2.517900	-0.844541	-0.084350	0.521117	-1.000000	-1.000000	-1.000000	-1.000000	-1.000000	-1.000000	-1.000000	61.000000	0.000000	-1.000000	-1.000000	1426459.000000	1776579254.051636
26656.695000	5245.560000	40591.755000	76832.460000	51194.790000	29240.145000	-8962.605000	15936.030000	-1.510433	-0.241891	-2.683479	-4.699562	-6.902220	3.253353	3.592988	1.034521	-3.250380	1.419180	2.517900	-0.844541	-0.084350	0.521117	-1.000000	-1.000000	-1.000000	-1.000000	-1.000000	-1.000000	-1.000000	61.000000	0.000000	-1.000000	-1.000000	1426460.000000	1776579254.055498
26655.570000	5239.755000	40586.895000	76832.910000	51195.195000	29235.600000	-8968.365000	15932.925000	1.868057	2.468071	-0.483044	-6.158055	-10.526756	4.059817	7.465811	5.249293	-3.250380	1.419180	2.517900	-0.844541	-0.084350	0.521117	-1.000000	-1.000000	-1.000000	-1.000000	-1.000000	-1.000000	-1.000000	61.000000	0.000000	-1.000000	-1.000000	1426461.000000	1776579254.055512
26649.495000	5231.295000	40579.650000	76832.145000	51197.310000	29230.020000	-8975.070000	15926.085000	3.355759	2.175910	0.315188	-5.004925	-8.739797	3.679722	6.880394	5.744398	-3.250380	1.419180	2.517900	-0.844541	-0.084350	0.521117	-1.000000	-1.000000	-1.000000	-1.000000	-1.000000	-1.000000	-1.000000	61.000000	0.000000	-1.000000	-1.000000	1426462.000000	1776579254.059540
26638.065000	5217.840000	40569.570000	76826.745000	51200.100000	29225.970000	-8984.700000	15912.810000	1.787712	-1.329800	-1.109725	-2.361821	-2.684898	2.014643	2.013254	2.091550	-3.250380	1.419180	2.517900	-0.844541	-0.084350	0.521117	-1.000000	-1.000000	-1.000000	-1.000000	-1.000000	-1.000000	-1.000000	61.000000	0.000000	-1.000000	-1.000000	1426463.000000	1776579254.059550
26636.400000	5218.020000	40570.065000	76830.165000	51210.225000	29242.935000	-8980.290000	15911.820000	-1.861169	-5.712549	-3.468295	0.312024	4.560614	0.238619	-4.028306	-3.438945	-2.777320	3.433500	2.823100	-0.844969	-0.085510	0.517455	-1.000000	-1.000000	-1.000000	-1.000000	-1.000000	-1.000000	-1.000000	61.000000	0.000000	-1.000000	-1.000000	1426464.000000	1776579254.063613
26646.210000	5232.465000	40583.070000	76841.010000	51218.370000	29257.335000	-8971.965000	15922.080000	-4.746419	-7.332352	-4.140598	2.451702	10.018210	0.415124	-7.183177	-7.029096	-2.777320	3.433500	2.823100	-0.844969	-0.085510	0.517455	-1.000000	-1.000000	-1.000000	-1.000000	-1.000000	-1.000000	-1.000000	61.000000	0.000000	-1.000000	-1.000000	1426465.000000	1776579254.063639
26652.555000	5240.205000	40590.495000	76843.665000	51213.420000	29250.540000	-8964.495000	15928.470000	-4.055432	-3.744425	-1.192578	4.328121	11.713524	2.869906	-5.226315	-5.693089	-2.777320	3.433500	2.823100	-0.844969	-0.085510	0.517455	-1.000000	-1.000000	-1.000000	-1.000000	-1.000000	-1.000000	-1.000000	61.000000	0.000000	-1.000000	-1.000000	1426466.000000	1776579254.067499
26650.800000	5235.615000	40583.970000	76834.530000	51198.615000	29236.815000	-8964.090000	15928.020000	0.183456	3.467840	4.165842	5.396494	8.543125	4.561741	0.370243	-0.040660	-2.777320	3.433500	2.823100	-0.844969	-0.085510	0.517455	-1.000000	-1.000000	-1.000000	-1.000000	-1.000000	-1.000000	-1.000000	61.000000	0.000000	-1.000000	-1.000000	1426467.000000	1776579254.067518
26654.040000	5236.695000	40582.125000	76829.175000	51190.695000	29223.675000	-8973.135000	15928.605000	4.886973	9.405684	7.993696	4.177883	1.090197	2.164403	5.439290	5.967274	-2.777320	3.433500	2.823100	-0.844969	-0.085510	0.517455	-1.000000	-1.000000	-1.000000	-1.000000	-1.000000	-1.000000	-1.000000	61.000000	0.000000	-1.000000	-1.000000	1426468.000000	1776579254.071606
26652.600000	5236.110000	40581.855000	76830.570000	51192.720000	29222.190000	-8977.320000	15925.905000	6.919518	10.333258	7.485483	0.568658	-7.236966	-3.720400	6.382940	8.483454	-2.777320	3.433500	2.823100	-0.844969	-0.085510	0.517455	-1.000000	-1.000000	-1.000000	-1.000000	-1.000000	-1.000000	-1.000000	61.000000	0.000000	-1.000000	-1.000000	1426469.000000	1776579254.071623
26643.555000	5230.170000	40580.640000	76832.190000	51197.940000	29228.895000	-8981.505000	15919.290000	5.253181	6.320081	3.392550	-3.196766	-11.640091	-8.647216	2.963457	6.388543	-2.777320	3.433500	2.823100	-0.844969	-0.085510	0.517455	-1.000000	-1.000000	-1.000000	-1.000000	-1.000000	-1.000000	-1.000000	61.000000	0.000000	-1.000000	-1.000000	1426470.000000	1776579254.075477
26642.655000	5233.680000	40580.505000	76837.770000	51210.045000	29241.945000	-8977.995000	15921.855000	0.894048	0.108726	-1.447374	-4.586236	-9.441116	-8.280000	-1.862194	1.353968	-2.777320	3.433500	2.823100	-0.844969	-0.085510	0.517455	-1.000000	-1.000000	-1.000000	-1.000000	-1.000000	-1.000000	-1.000000	61.000000	0.000000	-1.000000	-1.000000	1426471.000000	1776579254.075488
26648.145000	5243.265000	40583.925000	76848.435000	51225.975000	29259.540000	-8964.990000	15932.340000	-3.593596	-4.758923	-4.503018	-2.793430	-1.870480	-1.956775	-4.412956	-3.283271	-2.777320	3.433500	2.823100	-0.844969	-0.085510	0.517455	-1.000000	-1.000000	-1.000000	-1.000000	-1.000000	-1.000000	-1.000000	61.000000	0.000000	-1.000000	-1.000000	1426472.000000	1776579254.079687
26643.735000	5232.960000	40580.910000	76837.815000	51216.840000	29253.735000	-8972.100000	15922.710000	-5.555075	-6.074573	-4.800317	0.750739	6.660373	6.625906	-3.100022	-4.892304	-2.777320	3.433500	2.823100	-0.844969	-0.085510	0.517455	-1.000000	-1.000000	-1.000000	-1.000000	-1.000000	-1.000000	-1.000000	61.000000	0.000000	-1.000000	-1.000000	1426473.000000	1776579254.079708
26650.755000	5242.320000	40600.890000	76840.110000	51214.365000	29257.110000	-8965.890000	15929.865000	-4.304290	-4.440427	-2.749046	3.199427	10.804843	11.751304	0.344605	-3.649284	-3.219860	4.440660	0.946120	-0.845884	-0.086059	0.514342	-1.000000	-1.000000	-1.000000	-1.000000	-1.000000	-1.000000	-1.000000	61.000000	0.000000	-1.000000	-1.000000	1426474.000000	1776579254.083622
26658.855000	5251.410000	40600.350000	76837.320000	51204.510000	29249.415000	-8962.110000	15940.350000	-0.959655	-1.554752	0.695089	2.811547	7.963226	10.010225	3.083882	-1.147207	-3.219860	4.440660	0.946120	-0.845884	-0.086059	0.514342	-1.000000	-1.000000	-1.000000	-1.000000	-1.000000	-1.000000	-1.000000	61.000000	0.000000	-1.000000	-1.000000	1426475.000000	1776579254.083636
26660.880000	5250.105000	40594.680000	76833.540000	51196.905000	29234.115000	-8965.215000	15942.510000	2.799285	1.437608	3.664537	0.333782	0.211913	2.444593	3.718728	1.562716	-3.219860	4.440660	0.946120	-0.845884	-0.086059	0.514342	-1.000000	-1.000000	-1.000000	-1.000000	-1.000000	-1.000000	-1.000000	61.000000	0.000000	-1.000000	-1.000000	1426476.000000	1776579254.087595
26657.145000	5245.020000	40590.000000	76832.145000	51189.030000	29221.560000	-8972.190000	15934.635000	5.020008	3.161443	3.779600	-2.366774	-7.724398	-7.080474	2.101648	3.249883	-3.219860	4.440660	0.946120	-0.845884	-0.086059	0.514342	-1.000000	-1.000000	-1.000000	-1.000000	-1.000000	-1.000000	-1.000000	61.000000	0.000000	-1.000000	-1.000000	1426477.000000	1776579254.087614
26654.265000	5241.780000	40589.235000	76838.895000	51195.240000	29213.820000	-8978.760000	15926.805000	4.243738	2.376849	0.666836	-3.604129	-11.510137	-14.031460	-1.172341	2.386195	-3.219860	4.440660	0.946120	-0.845884	-0.086059	0.514342	-1.000000	-1.000000	-1.000000	-1.000000	-1.000000	-1.000000	-1.000000	61.000000	0.000000	-1.000000	-1.000000	1426478.000000	1776579254.091546
26640.945000	5223.915000	40572.315000	76830.480000	51199.200000	29207.205000	-8993.070000	15911.325000	0.629592	-0.715915	-3.635688	-2.675969	-9.142309	-15.066302	-4.768354	-1.216205	-3.219860	4.440660	0.946120	-0.845884	-0.086059	0.514342	-1.000000	-1.000000	-1.000000	-1.000000	-1.000000	-1.000000	-1.000000	61.000000	0.000000	-1.000000	-1.000000	1426479.000000	1776579254.091558
26632.575000	5210.370000	40561.425000	76824.270000	51206.130000	29238.345000	-8995.905000	15898.815000	-4.170116	-4.762832	-6.994992	-0.657837	-1.913239	-9.152772	-7.085421	-5.842160	-3.219860	4.440660	0.946120	-0.845884	-0.086059	0.514342	-1.000000	-1.000000	-1.000000	-1.000000	-1.000000	-1.000000	-1.000000	61.000000	0.000000	-1.000000	-1.000000	1426480.000000	1776579254.095546
26628.345000	5203.935000	40557.510000	76821.795000	51208.155000	29248.065000	-8997.255000	15894.900000	-7.762411	-7.786271	-8.083239	0.692647	6.264476	2.292394	-6.700972	-8.779521	-3.219860	4.440660	0.946120	-0.845884	-0.086059	0.514342	-1.000000	-1.000000	-1.000000	-1.000000	-1.000000	-1.000000	-1.000000	61.000000	0.000000	-1.000000	-1.000000	1426481.000000	1776579254.095565
26634.060000	5209.470000	40560.075000	76819.320000	51199.335000	29220.885000	-8996.670000	15904.350000	-7.866784	-7.469465	-5.907521	0.909216	11.037698	13.947508	-3.116589	-7.533180	-3.219860	4.440660	0.946120	-0.845884	-0.086059	0.514342	-1.000000	-1.000000	-1.000000	-1.000000	-1.000000	-1.000000	-1.000000	61.000000	0.000000	-1.000000	-1.000000	1426482.000000	1776579254.099473
26645.715000	5225.085000	40572.360000	76820.130000	51193.935000	29212.695000	-8989.290000	15918.075000	-3.555805	-2.446744	-0.329339	0.789340	9.945313	18.045513	2.527727	-1.301166	-3.219860	4.440660	0.946120	-0.845884	-0.086059	0.514342	-1.000000	-1.000000	-1.000000	-1.000000	-1.000000	-1.000000	-1.000000	61.000000	0.000000	-1.000000	-1.000000	1426483.000000	1776579254.099486
26648.100000	5226.435000	40571.685000	76817.340000	51183.945000	29208.510000	-8989.515000	15920.280000	3.640469	5.905475	6.923679	1.066148	3.862971	11.761221	7.916262	7.631552	-2.365300	4.837420	-1.388660	-0.847044	-0.087097	0.513060	-1.000000	-1.000000	-1.000000	-1.000000	-1.000000	-1.000000	-1.000000	61.000000	0.000000	-1.000000	-1.000000	1426484.000000	1776579254.103601
26637.030000	5206.995000	40553.820000	76803.345000	51176.385000	29225.205000	-8987.760000	15908.670000	9.735063	12.848205	12.019535	1.445142	-3.690867	0.660211	10.626918	14.189138	-2.365300	4.837420	-1.388660	-0.847044	-0.087097	0.513060	-1.000000	-1.000000	-1.000000	-1.000000	-1.000000	-1.000000	-1.000000	61.000000	0.000000	-1.000000	-1.000000	1426485.000000	1776579254.103619
26638.605000	5209.020000	40561.380000	76812.300000	51186.915000	29243.610000	-8976.555000	15912.765000	10.792530	13.370599	11.485508	1.186318	-8.614299	-6.748088	9.572622	13.991637	-2.365300	4.837420	-1.388660	-0.847044	-0.087097	0.513060	-1.000000	-1.000000	-1.000000	-1.000000	-1.000000	-1.000000	-1.000000	61.000000	0.000000	-1.000000	-1.000000	1426486.000000	1776579254.107515
26637.570000	5215.320000	40568.670000	76818.195000	51195.555000	29245.455000	-8980.245000	15912.405000	6.464844	7.368943	6.118440	0.800608	-8.067429	-6.456609	5.679937	7.360327	-2.365300	4.837420	-1.388660	-0.847044	-0.087097	0.513060	-1.000000	-1.000000	-1.000000	-1.000000	-1.000000	-1.000000	-1.000000	61.000000	0.000000	-1.000000	-1.000000	1426487.000000	1776579254.107542
26633.520000	5215.860000	40562.910000	76818.285000	51201.720000	29229.120000	-8992.125000	15906.240000	-0.068364	-0.372891	0.008570	1.382643	-2.352614	-1.778268	0.347882	-1.445499	-2.365300	4.837420	-1.388660	-0.847044	-0.087097	0.513060	-1.000000	-1.000000	-1.000000	-1.000000	-1.000000	-1.000000	-1.000000	61.000000	0.000000	-1.000000	-1.000000	1426488.000000	1776579254.111562
26634.150000	5216.085000	40560.345000	76816.260000	51206.310000	29231.640000	-8993.655000	15908.715000	-5.277083	-5.449953	-4.139224	2.446581	4.835458	1.027895	-5.396296	-8.192286	-2.365300	4.837420	-1.388660	-0.847044	-0.087097	0.513060	-1.000000	-1.000000	-1.000000	-1.000000	-1.000000	-1.000000	-1.000000	61.000000	0.000000	-1.000000	-1.000000	1426489.000000	1776579254.111572
26640.810000	5223.285000	40568.400000	76819.770000	51205.185000	29243.925000	-8986.230000	15917.760000	-7.119597	-6.660538	-5.918015	2.526379	9.060679	-0.192141	-9.611276	-10.468980	-2.365300	4.837420	-1.388660	-0.847044	-0.087097	0.513060	-1.000000	-1.000000	-1.000000	-1.000000	-1.000000	-1.000000	-1.000000	61.000000	0.000000	-1.000000	-1.000000	1426490.000000	1776579254.121028
26636.985000	5216.490000	40560.210000	76808.520000	51191.235000	29237.985000	-8988.660000	15913.710000	-5.413679	-5.093701	-5.576354	0.986852	7.846882	-2.691633	-9.964408	-8.031623	-2.365300	4.837420	-1.388660	-0.847044	-0.087097	0.513060	-1.000000	-1.000000	-1.000000	-1.000000	-1.000000	-1.000000	-1.000000	61.000000	0.000000	-1.000000	-1.000000	1426491.000000	1776579254.121051
26643.600000	5223.060000	40565.610000	76809.735000	51185.880000	29235.015000	-8980.065000	15920.685000	-1.785248	-2.704665	-3.884772	-1.723302	1.711719	-3.905232	-6.189605	-3.009402	-2.365300	4.837420	-1.388660	-0.847044	-0.087097	0.513060	-1.000000	-1.000000	-1.000000	-1.000000	-1.000000	-1.000000	-1.000000	61.000000	0.000000	-1.000000	-1.000000	1426492.000000	1776579254.121070
26641.260000	5223.915000	40561.965000	76801.050000	51175.710000	29224.125000	-8982.675000	15916.500000	1.581508	-0.846891	-1.881069	-4.383187	-6.024908	-3.866276	-0.449589	1.602995	-2.365300	4.837420	-1.388660	-0.847044	-0.087097	0.513060	-1.000000	-1.000000	-1.000000	-1.000000	-1.000000	-1.000000	-1.000000	61.000000	0.000000	-1.000000	-1.000000	1426493.000000	1776579254.121075
26631.720000	5221.080000	40555.575000	76789.530000	51169.005000	29224.170000	-8985.015000	15910.560000	3.050722	0.164873	-0.354636	-5.819409	-11.201322	-3.396268	4.236648	3.706668	-1.480220	4.562740	-1.892240	-0.848264	-0.090759	0.513426	-1.000000	-1.000000	-1.000000	-1.000000	-1.000000	-1.000000	-1.000000	61.000000	0.000000	-1.000000	-1.000000	1426494.000000	1776579254.123610
26642.160000	5240.160000	40573.845000	76802.985000	51180.120000	29238.120000	-8973.270000	15927.345000	2.186940	0.641319	0.533295	-5.377911	-11.111202	-2.178663	5.978629	3.127326	-1.480220	4.562740	-1.892240	-0.848264	-0.090759	0.513426	-1.000000	-1.000000	-1.000000	-1.000000	-1.000000	-1.000000	-1.000000	61.000000	0.000000	-1.000000	-1.000000	1426495.000000	1776579254.123621
26651.880000	5243.985000	40585.320000	76825.980000	51197.040000	29235.960000	-8972.145000	15932.385000	0.563121	1.424377	1.807368	-2.085580	-5.208188	0.680915	5.215469	1.829214	-1.480220	4.562740	-1.892240	-0.848264	-0.090759	0.513426	-1.000000	-1.000000	-1.000000	-1.000000	-1.000000	-1.000000	-1.000000	61.000000	0.000000	-1.000000	-1.000000	1426496.000000	1776579254.127479
26638.920000	5222.655000	40568.760000	76820.715000	51199.065000	29230.380000	-8986.275000	15915.600000	-0.035918	2.186175	3.692859	3.962783	4.266534	4.244974	3.049765	1.189642	-1.480220	4.562740	-1.892240	-0.848264	-0.090759	0.513426	-1.000000	-1.000000	-1.000000	-1.000000	-1.000000	-1.000000	-1.000000	61.000000	0.000000	-1.000000	-1.000000	1426497.000000	1776579254.127487
26637.705000	5222.160000	40568.175000	76816.845000	51198.120000	29236.950000	-8985.015000	15915.735000	-0.142761	0.910855	3.964036	9.214095	12.251905	6.092684	-0.234979	0.128673	-1.480220	4.562740	-1.892240	-0.848264	-0.090759	0.513426	-1.000000	-1.000000	-1.000000	-1.000000	-1.000000	-1.000000	-1.000000	61.000000	0.000000	-1.000000	-1.000000	1426498.000000	1776579254.131627
26647.425000	5234.940000	40579.560000	76821.255000	51198.390000	29234.925000	-8977.680000	15927.975000	-0.781429	-2.317343	1.418279	9.498666	14.039422	5.263135	-3.545311	-1.805332	-1.480220	4.562740	-1.892240	-0.848264	-0.090759	0.513426	-1.000000	-1.000000	-1.000000	-1.000000	-1.000000	-1.000000	-1.000000	61.000000	0.000000	-1.000000	-1.000000	1426499.000000	1776579254.131638
26646.120000	5228.055000	40570.335000	76809.870000	51178.320000	29215.845000	-8985.195000	15922.530000	-1.244432	-4.399382	-1.917784	4.489375	8.646490	2.348127	-4.852023	-2.850257	-1.480220	4.562740	-1.892240	-0.848264	-0.090759	0.513426	-1.000000	-1.000000	-1.000000	-1.000000	-1.000000	-1.000000	-1.000000	61.000000	0.000000	-1.000000	-1.000000	1426500.000000	1776579254.135584
26648.235000	5227.110000	40564.215000	76804.740000	51167.430000	29212.965000	-8987.940000	15922.530000	-0.752616	-3.610018	-4.050854	-2.864536	-1.278939	-1.887152	-3.762000	-2.074554	-1.480220	4.562740	-1.892240	-0.848264	-0.090759	0.513426	-1.000000	-1.000000	-1.000000	-1.000000	-1.000000	-1.000000	-1.000000	61.000000	0.000000	-1.000000	-1.000000	1426501.000000	1776579254.135601
26653.230000	5231.430000	40564.350000	76813.020000	51177.285000	29218.455000	-8983.170000	15931.575000	0.282199	-1.070189	-4.764044	-8.743130	-10.668044	-5.607751	-1.555873	-0.358351	-1.480220	4.562740	-1.892240	-0.848264	-0.090759	0.513426	-1.000000	-1.000000	-1.000000	-1.000000	-1.000000	-1.000000	-1.000000	61.000000	0.000000	-1.000000	-1.000000	1426502.000000	1776579254.139526
26647.785000	5222.430000	40562.010000	76809.195000	51177.375000	29220.345000	-8986.410000	15926.220000	1.063838	1.474684	-4.096482	-10.092354	-14.088450	-6.131447	0.731477	1.332045	-1.480220	4.562740	-1.892240	-0.848264	-0.090759	0.513426	-1.000000	-1.000000	-1.000000	-1.000000	-1.000000	-1.000000	-1.000000	61.000000	0.000000	-1.000000	-1.000000	1426503.000000	1776579254.139540
26636.265000	5213.160000	40563.315000	76803.795000	51176.160000	29215.710000	-8996.040000	15913.395000	0.712367	2.563011	-2.039641	-6.789099	-9.882337	-2.895210	2.285856	1.950682	-1.510740	3.891300	-2.777320	-0.847776	-0.092529	0.514098	-1.000000	-1.000000	-1.000000	-1.000000	-1.000000	-1.000000	-1.000000	61.000000	0.000000	-1.000000	-1.000000	1426504.000000	1776579254.148554
26640.630000	5221.305000	40568.130000	76813.830000	51189.660000	29229.795000	-8990.055000	15921.225000	-1.049499	1.788432	0.913595	-1.412730	-1.276387	1.914636	2.421568	0.758243	-1.510740	3.891300	-2.777320	-0.847776	-0.092529	0.514098	-1.000000	-1.000000	-1.000000	-1.000000	-1.000000	-1.000000	-1.000000	61.000000	0.000000	-1.000000	-1.000000	1426505.000000	1776579254.148578
26642.430000	5222.655000	40567.050000	76815.000000	51194.655000	29228.355000	-8990.820000	15923.610000	-2.789626	0.648546	3.815163	3.584149	7.117888	5.831747	1.650796	-1.020695	-1.510740	3.891300	-2.777320	-0.847776	-0.092529	0.514098	-1.000000	-1.000000	-1.000000	-1.000000	-1.000000	-1.000000	-1.000000	61.000000	0.000000	-1.000000	-1.000000	1426506.000000	1776579254.148768
26634.555000	5210.550000	40553.685000	76800.960000	51179.220000	29208.960000	-9001.575000	15912.135000	-2.801425	0.506960	5.207804	6.494684	11.544700	6.893209	0.894143	-1.609835	-1.510740	3.891300	-2.777320	-0.847776	-0.092529	0.514098	-1.000000	-1.000000	-1.000000	-1.000000	-1.000000	-1.000000	-1.000000	61.000000	0.000000	-1.000000	-1.000000	1426507.000000	1776579254.148790
26640.135000	5220.000000	40559.670000	76798.215000	51167.925000	29208.825000	-8994.195000	15920.280000	-1.145573	0.904155	4.006355	5.926861	9.627057	3.861921	0.247665	-0.985551	-1.510740	3.891300	-2.777320	-0.847776	-0.092529	0.514098	-1.000000	-1.000000	-1.000000	-1.000000	-1.000000	-1.000000	-1.000000	61.000000	0.000000	-1.000000	-1.000000	1426508.000000	1776579254.151806
26638.965000	5220.585000	40559.040000	76793.310000	51157.395000	29195.190000	-8995.680000	15920.595000	1.093358	1.260916	1.165328	2.320142	2.182763	-1.900117	-0.128489	0.195807	-1.510740	3.891300	-2.777320	-0.847776	-0.092529	0.514098	-1.000000	-1.000000	-1.000000	-1.000000	-1.000000	-1.000000	-1.000000	61.000000	0.000000	-1.000000	-1.000000	1426509.000000	1776579254.151830
26646.030000	5232.195000	40570.695000	76801.005000	51160.545000	29199.330000	-8985.825000	15931.080000	3.068289	1.839206	-0.933186	-1.600917	-6.229892	-6.813522	0.292225	1.757454	-1.510740	3.891300	-2.777320	-0.847776	-0.092529	0.514098	-1.000000	-1.000000	-1.000000	-1.000000	-1.000000	-1.000000	-1.000000	61.000000	0.000000	-1.000000	-1.000000	1426510.000000	1776579254.155726
26641.935000	5225.175000	40564.575000	76798.710000	51161.130000	29202.930000	-8993.295000	15922.530000	4.140081	2.507567	-1.001294	-3.105439	-10.325696	-7.754948	1.324406	3.173271	-1.510740	3.891300	-2.777320	-0.847776	-0.092529	0.514098	-1.000000	-1.000000	-1.000000	-1.000000	-1.000000	-1.000000	-1.000000	61.000000	0.000000	-1.000000	-1.000000	1426511.000000	1776579254.155740
26648.505000	5233.455000	40572.540000	76808.340000	51175.395000	29218.365000	-8988.705000	15930.315000	3.845487	2.362942	0.138708	-1.608084	-7.777147	-3.820019	1.885757	3.364344	-1.510740	3.891300	-2.777320	-0.847776	-0.092529	0.514098	-1.000000	-1.000000	-1.000000	-1.000000	-1.000000	-1.000000	-1.000000	61.000000	0.000000	-1.000000	-1.000000	1426512.000000	1776579254.159851
26645.085000	5230.260000	40570.110000	76813.560000	51185.835000	29225.070000	-8991.135000	15926.535000	2.272438	0.919846	0.957237	1.510991	-0.249479	3.140807	1.203421	1.925261	-1.510740	3.891300	-2.777320	-0.847776	-0.092529	0.514098	-1.000000	-1.000000	-1.000000	-1.000000	-1.000000	-1.000000	-1.000000	61.000000	0.000000	-1.000000	-1.000000	1426513.000000	1776579254.159875
26634.645000	5218.560000	40561.020000	76809.780000	51184.260000	29219.355000	-8996.580000	15917.265000	-0.180998	-1.524287	0.492795	4.111362	7.826056	9.107526	-0.488930	-0.591822	-0.152600	3.448760	-4.639040	-0.847227	-0.090332	0.515257	-1.000000	-1.000000	-1.000000	-1.000000	-1.000000	-1.000000	-1.000000	61.000000	0.000000	-1.000000	-1.000000	1426514.000000	1776579254.163647
26634.960000	5219.550000	40560.210000	76801.950000	51179.670000	29232.180000	-8987.895000	15922.935000	-3.057590	-4.362901	-1.419698	4.132741	11.520708	10.382702	-2.295710	-3.282583	-0.152600	3.448760	-4.639040	-0.847227	-0.090332	0.515257	-1.000000	-1.000000	-1.000000	-1.000000	-1.000000	-1.000000	-1.000000	61.000000	0.000000	-1.000000	-1.000000	1426515.000000	1776579254.163663
26647.605000	5239.530000	40575.915000	76806.585000	51179.310000	29236.590000	-8975.925000	15940.260000	-4.949863	-5.886324	-3.385250	1.116527	8.615812	6.708637	-2.766184	-4.433570	-0.152600	3.448760	-4.639040	-0.847227	-0.090332	0.515257	-1.000000	-1.000000	-1.000000	-1.000000	-1.000000	-1.000000	-1.000000	61.000000	0.000000	-1.000000	-1.000000	1426516.000000	1776579254.167712
26643.600000	5236.695000	40573.755000	76804.560000	51162.570000	29221.200000	-8980.245000	15932.340000	-4.141252	-4.066137	-3.197798	-2.908589	0.984594	0.515572	-1.134571	-2.656219	-0.152600	3.448760	-4.639040	-0.847227	-0.090332	0.515257	-1.000000	-1.000000	-1.000000	-1.000000	-1.000000	-1.000000	-1.000000	61.000000	0.000000	-1.000000	-1.000000	1426517.000000	1776579254.167720
26650.080000	5242.995000	40577.670000	76808.610000	51166.215000	29222.370000	-8975.385000	15938.190000	-0.966979	0.395704	-0.677126	-5.246357	-7.232891	-5.952919	1.218337	0.720451	-0.152600	3.448760	-4.639040	-0.847227	-0.090332	0.515257	-1.000000	-1.000000	-1.000000	-1.000000	-1.000000	-1.000000	-1.000000	61.000000	0.000000	-1.000000	-1.000000	1426518.000000	1776579254.176105
26650.215000	5242.230000	40571.910000	76801.680000	51165.180000	29214.630000	-8980.605000	15936.255000	2.394936	4.328679	1.972323	-4.887060	-11.835353	-10.705567	2.180093	2.962859	-0.152600	3.448760	-4.639040	-0.847227	-0.090332	0.515257	-1.000000	-1.000000	-1.000000	-1.000000	-1.000000	-1.000000	-1.000000	61.000000	0.000000	-1.000000	-1.000000	1426519.000000	1776579254.176123
26646.750000	5240.520000	40572.720000	76799.385000	51162.795000	29207.520000	-8984.745000	15932.205000	3.982896	5.269574	2.678858	-2.858200	-10.669918	-11.971238	0.941696	2.736103	-0.152600	3.448760	-4.639040	-0.847227	-0.090332	0.515257	-1.000000	-1.000000	-1.000000	-1.000000	-1.000000	-1.000000	-1.000000	61.000000	0.000000	-1.000000	-1.000000	1426520.000000	1776579254.176165
26637.795000	5226.570000	40566.330000	76799.835000	51165.450000	29215.935000	-8992.755000	15920.460000	2.919461	2.772958	1.180384	-0.704879	-4.991693	-9.248138	-1.813096	0.303489	-0.152600	3.448760	-4.639040	-0.847227	-0.090332	0.515257	-1.000000	-1.000000	-1.000000	-1.000000	-1.000000	-1.000000	-1.000000	61.000000	0.000000	-1.000000	-1.000000	1426521.000000	1776579254.176171
26635.320000	5225.940000	40566.285000	76805.865000	51183.225000	29237.985000	-8992.080000	15920.145000	-0.258559	-1.842018	-1.265891	1.039053	2.239908	-2.891897	-4.435696	-3.041305	-0.152600	3.448760	-4.639040	-0.847227	-0.090332	0.515257	-1.000000	-1.000000	-1.000000	-1.000000	-1.000000	-1.000000	-1.000000	61.000000	0.000000	-1.000000	-1.000000	1426522.000000	1776579254.179873
26640.990000	5235.705000	40574.430000	76813.920000	51195.960000	29248.830000	-8986.230000	15927.480000	-3.444174	-5.653972	-2.823138	2.720034	8.682876	5.795236	-4.997705	-5.056001	-0.152600	3.448760	-4.639040	-0.847227	-0.090332	0.515257	-1.000000	-1.000000	-1.000000	-1.000000	-1.000000	-1.000000	-1.000000	61.000000	0.000000	-1.000000	-1.000000	1426523.000000	1776579254.179888
26645.535000	5240.835000	40574.610000	76806.090000	51177.060000	29229.255000	-8989.605000	15930.990000	-4.176238	-5.669724	-2.170161	4.181575	12.054806	12.934472	-2.647248	-3.798410	-1.236060	2.685760	-2.578940	-0.848020	-0.087707	0.516173	-1.000000	-1.000000	-1.000000	-1.000000	-1.000000	-1.000000	-1.000000	61.000000	0.000000	-1.000000	-1.000000	1426524.000000	1776579254.183854
26658.000000	5254.920000	40586.130000	76809.015000	51169.860000	29230.695000	-8974.035000	15947.010000	-1.620473	-1.454619	0.435139	4.273808	9.730368	13.570662	1.571013	0.580252	-1.236060	2.685760	-2.578940	-0.848020	-0.087707	0.516173	-1.000000	-1.000000	-1.000000	-1.000000	-1.000000	-1.000000	-1.000000	61.000000	0.000000	-1.000000	-1.000000	1426525.000000	1776579254.183872
26659.980000	5249.970000	40581.180000	76806.855000	51163.695000	29219.445000	-8974.395000	15945.840000	2.739911	4.282592	3.316000	2.392552	1.836054	6.761320	5.696795	5.767135	-1.236060	2.685760	-2.578940	-0.848020	-0.087707	0.516173	-1.000000	-1.000000	-1.000000	-1.000000	-1.000000	-1.000000	-1.000000	61.000000	0.000000	-1.000000	-1.000000	1426526.000000	1776579254.187785
26657.235000	5245.650000	40577.085000	76804.785000	51159.375000	29209.410000	-8982.180000	15939.630000	5.971676	7.524438	4.379154	-0.551051	-7.240637	-3.303734	7.612116	8.453811	-1.236060	2.685760	-2.578940	-0.848020	-0.087707	0.516173	-1.000000	-1.000000	-1.000000	-1.000000	-1.000000	-1.000000	-1.000000	61.000000	0.000000	-1.000000	-1.000000	1426527.000000	1776579254.187797
26650.755000	5240.745000	40575.105000	76807.440000	51165.720000	29214.630000	-8984.700000	15934.995000	5.553295	5.867705	2.540170	-3.042947	-12.185563	-11.018080	5.732473	6.360276	-1.236060	2.685760	-2.578940	-0.848020	-0.087707	0.516173	-1.000000	-1.000000	-1.000000	-1.000000	-1.000000	-1.000000	-1.000000	61.000000	0.000000	-1.000000	-1.000000	1426528.000000	1776579254.191771
26642.655000	5229.495000	40566.060000	76804.290000	51170.130000	29215.710000	-8993.655000	15923.520000	1.287756	0.332375	-1.233486	-3.974123	-10.429874	-12.484567	0.659534	0.251394	-1.236060	2.685760	-2.578940	-0.848020	-0.087707	0.516173	-1.000000	-1.000000	-1.000000	-1.000000	-1.000000	-1.000000	-1.000000	61.000000	0.000000	-1.000000	-1.000000	1426529.000000	1776579254.191780
26631.945000	5217.930000	40556.295000	76801.365000	51173.730000	29216.205000	-9004.860000	15909.570000	-4.586451	-5.920803	-4.934086	-3.285961	-3.419595	-7.471254	-5.049726	-6.738738	-1.236060	2.685760	-2.578940	-0.848020	-0.087707	0.516173	-1.000000	-1.000000	-1.000000	-1.000000	-1.000000	-1.000000	-1.000000	61.000000	0.000000	-1.000000	-1.000000	1426530.000000	1776579254.195928
26635.635000	5227.065000	40567.230000	76810.365000	51187.995000	29228.985000	-8996.985000	15916.950000	-8.815982	-9.534757	-6.642415	-1.627737	4.800156	0.757477	-8.551017	-11.062430	-1.236060	2.685760	-2.578940	-0.848020	-0.087707	0.516173	-1.000000	-1.000000	-1.000000	-1.000000	-1.000000	-1.000000	-1.000000	61.000000	0.000000	-1.000000	-1.000000	1426531.000000	1776579254.195937
26641.530000	5228.010000	40562.685000	76800.690000	51175.755000	29220.750000	-8991.945000	15925.320000	-8.683739	-8.141767	-4.980499	0.368750	10.178081	7.951448	-7.692072	-9.940109	-1.236060	2.685760	-2.578940	-0.848020	-0.087707	0.516173	-1.000000	-1.000000	-1.000000	-1.000000	-1.000000	-1.000000	-1.000000	61.000000	0.000000	-1.000000	-1.000000	1426532.000000	1776579254.199800
26642.835000	5223.375000	40553.505000	76789.305000	51158.655000	29203.470000	-8991.810000	15926.670000	-3.776350	-2.257401	-0.711806	1.594600	9.843697	10.469101	-2.542096	-3.262416	-1.236060	2.685760	-2.578940	-0.848020	-0.087707	0.516173	-1.000000	-1.000000	-1.000000	-1.000000	-1.000000	-1.000000	-1.000000	61.000000	0.000000	-1.000000	-1.000000	1426533.000000	1776579254.199809
26639.280000	5218.605000	40551.660000	76789.845000	51155.910000	29191.320000	-8999.865000	15916.095000	3.126402	4.400378	3.272600	1.039103	3.594819	6.704701	3.732002	5.106835	-2.380560	2.227960	-1.800680	-0.848753	-0.083862	0.517333	-1.000000	-1.000000	-1.000000	-1.000000	-1.000000	-1.000000	-1.000000	61.000000	0.000000	-1.000000	-1.000000	1426534.000000	1776579254.203618
26636.760000	5215.005000	40547.970000	76792.230000	51158.880000	29197.620000	-8997.525000	15914.880000	7.934619	8.002115	4.893200	-0.402044	-4.566746	-0.792206	7.248780	9.955912	-2.380560	2.227960	-1.800680	-0.848753	-0.083862	0.517333	-1.000000	-1.000000	-1.000000	-1.000000	-1.000000	-1.000000	-1.000000	61.000000	0.000000	-1.000000	-1.000000	1426535.000000	1776579254.203627
26639.550000	5214.735000	40537.980000	76783.320000	51149.565000	29204.235000	-8990.730000	15923.565000	8.451493	7.470299	4.146844	-0.925240	-9.282407	-6.381400	6.839085	9.324979	-2.380560	2.227960	-1.800680	-0.848753	-0.083862	0.517333	-1.000000	-1.000000	-1.000000	-1.000000	-1.000000	-1.000000	-1.000000	61.000000	0.000000	-1.000000	-1.000000	1426536.000000	1776579254.209343
26634.240000	5209.065000	40534.245000	76781.205000	51150.735000	29193.930000	-9001.980000	15918.480000	5.446812	4.281772	1.989570	-0.234077	-8.474791	-6.427413	4.022116	5.351609	-2.380560	2.227960	-1.800680	-0.848753	-0.083862	0.517333	-1.000000	-1.000000	-1.000000	-1.000000	-1.000000	-1.000000	-1.000000	61.000000	0.000000	-1.000000	-1.000000	1426537.000000	1776579254.209360
26625.240000	5203.890000	40542.885000	76782.645000	51156.225000	29197.980000	-9015.255000	15906.105000	0.942556	0.506587	-0.066835	0.841655	-3.631778	-2.328163	0.187562	0.692818	-2.380560	2.227960	-1.800680	-0.848753	-0.083862	0.517333	-1.000000	-1.000000	-1.000000	-1.000000	-1.000000	-1.000000	-1.000000	61.000000	0.000000	-1.000000	-1.000000	1426538.000000	1776579254.211830
26629.020000	5218.020000	40555.260000	76790.655000	51165.225000	29213.505000	-9009.045000	15913.980000	-3.200537	-2.117104	-0.188424	1.989051	2.682777	2.532886	-3.757394	-3.329761	-2.380560	2.227960	-1.800680	-0.848753	-0.083862	0.517333	-1.000000	-1.000000	-1.000000	-1.000000	-1.000000	-1.000000	-1.000000	61.000000	0.000000	-1.000000	-1.000000	1426539.000000	1776579254.211843
26628.615000	5210.010000	40546.620000	76786.875000	51158.655000	29201.625000	-9009.180000	15911.685000	-5.271605	-2.428498	1.880714	3.181541	7.805035	5.967244	-5.919194	-5.464952	-2.380560	2.227960	-1.800680	-0.848753	-0.083862	0.517333	-1.000000	-1.000000	-1.000000	-1.000000	-1.000000	-1.000000	-1.000000	61.000000	0.000000	-1.000000	-1.000000	1426540.000000	1776579254.215767
26633.520000	5211.630000	40547.835000	76786.740000	51152.490000	29190.330000	-9002.475000	15920.910000	-4.373175	-0.995379	3.782090	3.678444	9.172820	6.215315	-4.672659	-4.729441	-2.380560	2.227960	-1.800680	-0.848753	-0.083862	0.517333	-1.000000	-1.000000	-1.000000	-1.000000	-1.000000	-1.000000	-1.000000	61.000000	0.000000	-1.000000	-1.000000	1426541.000000	1776579254.215776
26633.205000	5212.530000	40544.280000	76775.220000	51136.965000	29172.825000	-9006.165000	15923.070000	-1.296871	0.392943	3.113480	2.449337	5.679107	2.217794	-0.758743	-1.637233	-2.380560	2.227960	-1.800680	-0.848753	-0.083862	0.517333	-1.000000	-1.000000	-1.000000	-1.000000	-1.000000	-1.000000	-1.000000	61.000000	0.000000	-1.000000	-1.000000	1426542.000000	1776579254.223328
26644.725000	5227.155000	40559.535000	76784.220000	51141.420000	29193.300000	-8998.605000	15932.745000	2.163624	1.025373	0.275684	-0.377270	-0.887906	-3.857697	3.305271	2.084217	-2.380560	2.227960	-1.800680	-0.848753	-0.083862	0.517333	-1.000000	-1.000000	-1.000000	-1.000000	-1.000000	-1.000000	-1.000000	61.000000	0.000000	-1.000000	-1.000000	1426543.000000	1776579254.223342
26641.035000	5222.745000	40562.235000	76792.095000	51146.685000	29201.355000	-8995.995000	15925.455000	4.439059	1.362950	-2.223568	-2.847826	-6.322362	-7.001004	5.459789	4.424549	-5.142620	3.021480	-1.876980	-0.847532	-0.083496	0.516661	-1.000000	-1.000000	-1.000000	-1.000000	-1.000000	-1.000000	-1.000000	61.000000	0.000000	-1.000000	-1.000000	1426544.000000	1776579254.223729
26627.310000	5214.195000	40548.105000	76778.550000	51141.870000	29187.675000	-9009.630000	15912.765000	4.244270	1.110263	-3.090330	-3.227329	-7.234830	-4.654318	4.895263	3.705938	-5.142620	3.021480	-1.876980	-0.847532	-0.083496	0.516661	-1.000000	-1.000000	-1.000000	-1.000000	-1.000000	-1.000000	-1.000000	61.000000	0.000000	-1.000000	-1.000000	1426545.000000	1776579254.223735
26629.470000	5224.905000	40543.785000	76771.755000	51151.185000	29207.610000	-9001.710000	15918.975000	1.083125	-0.448028	-3.564646	-2.413369	-3.855516	0.510214	1.786055	-0.108367	-5.142620	3.021480	-1.876980	-0.847532	-0.083496	0.516661	-1.000000	-1.000000	-1.000000	-1.000000	-1.000000	-1.000000	-1.000000	61.000000	0.000000	-1.000000	-1.000000	1426546.000000	1776579254.227764
26620.380000	5207.985000	40538.250000	76777.875000	51161.760000	29212.380000	-9005.805000	15905.385000	-3.399261	-2.703713	-4.695857	-2.032689	1.304959	4.872297	-2.176057	-4.597100	-5.142620	3.021480	-1.876980	-0.847532	-0.083496	0.516661	-1.000000	-1.000000	-1.000000	-1.000000	-1.000000	-1.000000	-1.000000	61.000000	0.000000	-1.000000	-1.000000	1426547.000000	1776579254.227783
26621.910000	5211.675000	40547.070000	76788.000000	51167.745000	29216.655000	-9006.930000	15908.805000	-6.395322	-4.487884	-5.323307	-1.543513	5.816725	6.827748	-4.726368	-6.951023	-5.142620	3.021480	-1.876980	-0.847532	-0.083496	0.516661	-1.000000	-1.000000	-1.000000	-1.000000	-1.000000	-1.000000	-1.000000	61.000000	0.000000	-1.000000	-1.000000	1426548.000000	1776579254.236343
26626.815000	5215.860000	40551.165000	76784.085000	51158.385000	29208.555000	-9003.420000	15913.935000	-6.080458	-4.827886	-3.566550	0.256960	7.532271	5.601766	-4.889249	-5.863124	-5.142620	3.021480	-1.876980	-0.847532	-0.083496	0.516661	-1.000000	-1.000000	-1.000000	-1.000000	-1.000000	-1.000000	-1.000000	61.000000	0.000000	-1.000000	-1.000000	1426549.000000	1776579254.236357
26629.560000	5216.670000	40550.310000	76777.785000	51144.300000	29191.725000	-9001.215000	15919.065000	-2.453586	-2.947834	0.610673	2.458611	4.827741	0.967043	-2.957317	-1.600840	-5.142620	3.021480	-1.876980	-0.847532	-0.083496	0.516661	-1.000000	-1.000000	-1.000000	-1.000000	-1.000000	-1.000000	-1.000000	61.000000	0.000000	-1.000000	-1.000000	1426550.000000	1776579254.236369
26630.415000	5216.130000	40548.240000	76776.795000	51139.035000	29181.015000	-9002.745000	15922.170000	2.565441	0.513757	4.823398	2.995549	-1.698369	-5.809128	-0.038949	3.881749	-5.142620	3.021480	-1.876980	-0.847532	-0.083496	0.516661	-1.000000	-1.000000	-1.000000	-1.000000	-1.000000	-1.000000	-1.000000	61.000000	0.000000	-1.000000	-1.000000	1426551.000000	1776579254.236374
26631.180000	5217.030000	40547.520000	76774.995000	51138.450000	29191.635000	-8999.640000	15921.450000	6.211860	3.608904	6.479015	1.419381	-8.409910	-11.277840	2.343995	7.712571	-5.142620	3.021480	-1.876980	-0.847532	-0.083496	0.516661	-1.000000	-1.000000	-1.000000	-1.000000	-1.000000	-1.000000	-1.000000	61.000000	0.000000	-1.000000	-1.000000	1426552.000000	1776579254.239748
26634.465000	5230.170000	40557.735000	76779.765000	51150.375000	29217.780000	-8989.290000	15928.245000	6.814216	5.059446	5.182653	-0.743520	-10.795496	-10.947380	3.429197	8.036223	-5.142620	3.021480	-1.876980	-0.847532	-0.083496	0.516661	-1.000000	-1.000000	-1.000000	-1.000000	-1.000000	-1.000000	-1.000000	61.000000	0.000000	-1.000000	-1.000000	1426553.000000	1776579254.239766
26637.480000	5230.395000	40562.865000	76791.375000	51158.745000	29208.735000	-8991.810000	15928.605000	4.692123	5.040980	2.709583	-1.539481	-6.848055	-3.528243	3.466325	5.191916	-6.516020	3.921820	-1.800680	-0.847410	-0.085937	0.515502	-1.000000	-1.000000	-1.000000	-1.000000	-1.000000	-1.000000	-1.000000	61.000000	0.000000	-1.000000	-1.000000	1426554.000000	1776579254.244004
26632.575000	5218.830000	40553.235000	76790.610000	51156.630000	29175.795000	-9008.055000	15918.930000	1.275757	3.683050	0.576903	-0.228776	1.140475	5.577502	2.274018	0.741061	-6.516020	3.921820	-1.800680	-0.847410	-0.085937	0.515502	-1.000000	-1.000000	-1.000000	-1.000000	-1.000000	-1.000000	-1.000000	61.000000	0.000000	-1.000000	-1.000000	1426555.000000	1776579254.244020
26642.385000	5232.465000	40565.295000	76800.915000	51163.200000	29174.715000	-9006.480000	15927.210000	-1.989920	0.805002	-1.191240	2.008670	8.149037	8.734529	-0.682185	-3.733992	-6.516020	3.921820	-1.800680	-0.847410	-0.085937	0.515502	-1.000000	-1.000000	-1.000000	-1.000000	-1.000000	-1.000000	-1.000000	61.000000	0.000000	-1.000000	-1.000000	1426556.000000	1776579254.247824
26642.070000	5229.540000	40560.840000	76794.570000	51156.495000	29180.295000	-9007.380000	15927.030000	-3.851046	-2.382873	-2.580738	3.212515	10.318621	4.850380	-4.183508	-6.459331	-6.516020	3.921820	-1.800680	-0.847410	-0.085937	0.515502	-1.000000	-1.000000	-1.000000	-1.000000	-1.000000	-1.000000	-1.000000	61.000000	0.000000	-1.000000	-1.000000	1426557.000000	1776579254.247851
26636.895000	5220.135000	40550.535000	76783.275000	51148.305000	29201.760000	-8999.730000	15925.545000	-3.959399	-4.321857	-3.422151	1.943263	6.983652	-0.036968	-5.569167	-6.306289	-6.516020	3.921820	-1.800680	-0.847410	-0.085937	0.515502	-1.000000	-1.000000	-1.000000	-1.000000	-1.000000	-1.000000	-1.000000	61.000000	0.000000	-1.000000	-1.000000	1426558.000000	1776579254.251748
26636.130000	5221.080000	40546.980000	76775.760000	51136.020000	29204.505000	-8995.320000	15927.210000	-3.249771	-4.952414	-4.140583	-1.920223	0.079243	-0.451923	-3.443589	-3.941094	-6.516020	3.921820	-1.800680	-0.847410	-0.085937	0.515502	-1.000000	-1.000000	-1.000000	-1.000000	-1.000000	-1.000000	-1.000000	61.000000	0.000000	-1.000000	-1.000000	1426559.000000	1776579254.251757
26630.505000	5211.720000	40540.635000	76768.335000	51129.045000	29200.815000	-9002.205000	15915.735000	-2.637781	-4.680505	-4.697263	-6.478335	-6.996134	2.991468	0.826816	-1.120937	-6.516020	3.921820	-1.800680	-0.847410	-0.085937	0.515502	-1.000000	-1.000000	-1.000000	-1.000000	-1.000000	-1.000000	-1.000000	61.000000	0.000000	-1.000000	-1.000000	1426560.000000	1776579254.255877
26632.260000	5217.120000	40547.655000	76776.030000	51139.800000	29209.635000	-9001.080000	15917.220000	-2.132779	-3.458581	-4.079322	-8.637043	-10.543861	5.723146	4.176163	0.620307	-6.516020	3.921820	-1.800680	-0.847410	-0.085937	0.515502	-1.000000	-1.000000	-1.000000	-1.000000	-1.000000	-1.000000	-1.000000	61.000000	0.000000	-1.000000	-1.000000	1426561.000000	1776579254.255895
26625.780000	5208.660000	40539.960000	76774.680000	51139.125000	29197.080000	-9007.875000	15911.010000	-1.315910	-1.262146	-1.576980	-6.351582	-8.321883	4.660950	4.544247	0.990354	-6.516020	3.921820	-1.800680	-0.847410	-0.085937	0.515502	-1.000000	-1.000000	-1.000000	-1.000000	-1.000000	-1.000000	-1.000000	61.000000	0.000000	-1.000000	-1.000000	1426562.000000	1776579254.259728
26627.040000	5210.505000	40543.560000	76783.140000	51152.310000	29206.575000	-9003.510000	15915.015000	-0.064216	1.352416	2.010705	-0.372623	-1.363481	0.210849	2.338749	0.878221	-6.516020	3.921820	-1.800680	-0.847410	-0.085937	0.515502	-1.000000	-1.000000	-1.000000	-1.000000	-1.000000	-1.000000	-1.000000	61.000000	0.000000	-1.000000	-1.000000	1426563.000000	1776579254.259742
26624.880000	5206.995000	40540.545000	76784.085000	51163.740000	29214.810000	-9007.740000	15910.020000	1.363655	3.448282	4.963185	6.238762	6.724778	-4.628031	-0.474162	1.169114	-7.141680	3.876040	-0.808780	-0.848631	-0.090820	0.513304	-1.000000	-1.000000	-1.000000	-1.000000	-1.000000	-1.000000	-1.000000	61.000000	0.000000	-1.000000	-1.000000	1426564.000000	1776579254.263757
26620.560000	5202.090000	40534.785000	76775.715000	51159.465000	29205.900000	-9017.640000	15903.405000	2.525328	4.324518	5.955720	10.020293	12.008585	-6.826908	-2.370689	1.766269	-7.141680	3.876040	-0.808780	-0.848631	-0.090820	0.513304	-1.000000	-1.000000	-1.000000	-1.000000	-1.000000	-1.000000	-1.000000	61.000000	0.000000	-1.000000	-1.000000	1426565.000000	1776579254.263769
26631.900000	5224.590000	40554.180000	76782.960000	51156.675000	29209.995000	-9003.960000	15922.350000	3.135564	4.171176	4.983246	9.090162	11.653786	-6.084897	-2.907854	2.248736	-7.141680	3.876040	-0.808780	-0.848631	-0.090820	0.513304	-1.000000	-1.000000	-1.000000	-1.000000	-1.000000	-1.000000	-1.000000	61.000000	0.000000	-1.000000	-1.000000	1426566.000000	1776579254.267789
26629.110000	5220.855000	40548.105000	76773.150000	51136.785000	29198.520000	-9005.040000	15918.165000	3.417837	4.083140	3.417319	4.423194	5.270597	-4.076943	-1.750921	2.936254	-7.141680	3.876040	-0.808780	-0.848631	-0.090820	0.513304	-1.000000	-1.000000	-1.000000	-1.000000	-1.000000	-1.000000	-1.000000	61.000000	0.000000	-1.000000	-1.000000	1426567.000000	1776579254.267800
26632.935000	5222.430000	40550.895000	76777.605000	51137.595000	29197.125000	-9001.890000	15922.170000	3.403015	4.113647	2.051637	-1.231284	-4.326085	-2.296435	0.796299	3.689838	-7.141680	3.876040	-0.808780	-0.848631	-0.090820	0.513304	-1.000000	-1.000000	-1.000000	-1.000000	-1.000000	-1.000000	-1.000000	61.000000	0.000000	-1.000000	-1.000000	1426568.000000	1776579254.271818
26629.155000	5218.425000	40546.305000	76772.655000	51133.995000	29195.820000	-9008.460000	15916.095000	2.558638	2.816058	0.307780	-5.325383	-12.100597	-1.109733	3.017107	3.252972	-7.141680	3.876040	-0.808780	-0.848631	-0.090820	0.513304	-1.000000	-1.000000	-1.000000	-1.000000	-1.000000	-1.000000	-1.000000	61.000000	0.000000	-1.000000	-1.000000	1426569.000000	1776579254.271834
26635.275000	5226.705000	40554.945000	76779.720000	51143.175000	29200.770000	-9004.995000	15924.870000	0.739589	-0.233486	-1.936991	-6.455527	-13.689385	0.201819	3.272900	1.084442	-7.141680	3.876040	-0.808780	-0.848631	-0.090820	0.513304	-1.000000	-1.000000	-1.000000	-1.000000	-1.000000	-1.000000	-1.000000	61.000000	0.000000	-1.000000	-1.000000	1426570.000000	1776579254.275879
26627.760000	5214.870000	40546.215000	76777.965000	51147.990000	29193.795000	-9013.365000	15914.835000	-1.432847	-3.681420	-3.782872	-4.686545	-8.324420	2.111282	1.490718	-1.834318	-7.141680	3.876040	-0.808780	-0.848631	-0.090820	0.513304	-1.000000	-1.000000	-1.000000	-1.000000	-1.000000	-1.000000	-1.000000	61.000000	0.000000	-1.000000	-1.000000	1426571.000000	1776579254.275896
26628.120000	5214.825000	40550.580000	76789.530000	51164.370000	29198.475000	-9012.465000	15917.355000	-3.264626	-6.158645	-4.536769	-1.229482	1.016012	3.921628	-1.159176	-4.233665	-7.141680	3.876040	-0.808780	-0.848631	-0.090820	0.513304	-1.000000	-1.000000	-1.000000	-1.000000	-1.000000	-1.000000	-1.000000	61.000000	0.000000	-1.000000	-1.000000	1426572.000000	1776579254.279858
26626.635000	5214.780000	40546.170000	76779.585000	51153.525000	29204.055000	-9011.610000	15917.895000	-4.260787	-6.915849	-4.139377	2.143566	9.468210	4.824913	-3.135609	-5.247328	-7.141680	3.876040	-0.808780	-0.848631	-0.090820	0.513304	-1.000000	-1.000000	-1.000000	-1.000000	-1.000000	-1.000000	-1.000000	61.000000	0.000000	-1.000000	-1.000000	1426573.000000	1776579254.279869
26629.830000	5219.775000	40543.065000	76765.860000	51137.595000	29205.270000	-9005.220000	15921.945000	-3.935465	-5.397840	-2.901644	3.345871	12.252536	4.765269	-3.184871	-4.328036	-6.332900	4.455920	-1.434440	-0.848631	-0.096435	0.512450	-1.000000	-1.000000	-1.000000	-1.000000	-1.000000	-1.000000	-1.000000	61.000000	0.000000	-1.000000	-1.000000	1426574.000000	1776579254.283885
26631.900000	5217.930000	40535.145000	76761.810000	51130.440000	29199.690000	-9003.330000	15921.720000	-2.155318	-1.865730	-1.497760	1.257890	7.514242	3.664928	-1.167429	-1.763960	-6.332900	4.455920	-1.434440	-0.848631	-0.096435	0.512450	-1.000000	-1.000000	-1.000000	-1.000000	-1.000000	-1.000000	-1.000000	61.000000	0.000000	-1.000000	-1.000000	1426575.000000	1776579254.283897
26637.210000	5223.060000	40538.205000	76769.595000	51137.280000	29208.375000	-8997.165000	15926.985000	0.512864	2.186857	-0.410313	-2.310410	-1.293085	1.424145	1.712267	1.229278	-6.332900	4.455920	-1.434440	-0.848631	-0.096435	0.512450	-1.000000	-1.000000	-1.000000	-1.000000	-1.000000	-1.000000	-1.000000	61.000000	0.000000	-1.000000	-1.000000	1426576.000000	1776579254.287732
26631.630000	5220.765000	40542.615000	76770.945000	51138.540000	29200.995000	-9003.870000	15917.715000	2.875258	4.993990	0.728826	-3.837241	-7.783569	-1.233237	3.649578	3.197163	-6.332900	4.455920	-1.434440	-0.848631	-0.096435	0.512450	-1.000000	-1.000000	-1.000000	-1.000000	-1.000000	-1.000000	-1.000000	61.000000	0.000000	-1.000000	-1.000000	1426577.000000	1776579254.287748
26622.720000	5213.745000	40544.460000	76768.380000	51134.715000	29180.700000	-9020.115000	15903.000000	3.447807	5.389078	2.451814	-1.919722	-8.290986	-3.727871	3.002824	2.852354	-6.332900	4.455920	-1.434440	-0.848631	-0.096435	0.512450	-1.000000	-1.000000	-1.000000	-1.000000	-1.000000	-1.000000	-1.000000	61.000000	0.000000	-1.000000	-1.000000	1426578.000000	1776579254.291807
26620.740000	5213.070000	40546.035000	76771.485000	51138.630000	29184.705000	-9025.965000	15899.670000	1.599328	3.245551	4.283150	1.638158	-4.084519	-6.047746	-0.607126	0.000308	-6.332900	4.455920	-1.434440	-0.848631	-0.096435	0.512450	-1.000000	-1.000000	-1.000000	-1.000000	-1.000000	-1.000000	-1.000000	61.000000	0.000000	-1.000000	-1.000000	1426579.000000	1776579254.291813
26628.345000	5221.215000	40557.555000	76785.255000	51157.440000	29201.670000	-9016.380000	15914.115000	-1.213187	0.063171	5.211498	4.537360	1.643977	-6.699821	-4.874643	-3.090878	-6.332900	4.455920	-1.434440	-0.848631	-0.096435	0.512450	-1.000000	-1.000000	-1.000000	-1.000000	-1.000000	-1.000000	-1.000000	61.000000	0.000000	-1.000000	-1.000000	1426580.000000	1776579254.295807
26625.195000	5212.575000	40545.585000	76780.350000	51158.925000	29207.610000	-9010.755000	15915.645000	-2.540832	-2.008636	4.616020	5.797742	6.573239	-3.441579	-5.995978	-3.133822	-6.332900	4.455920	-1.434440	-0.848631	-0.096435	0.512450	-1.000000	-1.000000	-1.000000	-1.000000	-1.000000	-1.000000	-1.000000	61.000000	0.000000	-1.000000	-1.000000	1426581.000000	1776579254.295815
26617.770000	5203.485000	40532.805000	76764.150000	51140.970000	29198.295000	-9014.805000	15907.410000	-1.730117	-2.520850	1.889388	4.613578	8.478640	2.649425	-2.660366	0.187274	-6.332900	4.455920	-1.434440	-0.848631	-0.096435	0.512450	-1.000000	-1.000000	-1.000000	-1.000000	-1.000000	-1.000000	-1.000000	61.000000	0.000000	-1.000000	-1.000000	1426582.000000	1776579254.299842
26619.930000	5204.880000	40532.130000	76757.760000	51128.550000	29184.885000	-9015.660000	15910.335000	-0.204500	-2.480161	-2.799816	0.353697	5.225373	6.895976	2.426656	3.732340	-6.332900	4.455920	-1.434440	-0.848631	-0.096435	0.512450	-1.000000	-1.000000	-1.000000	-1.000000	-1.000000	-1.000000	-1.000000	61.000000	0.000000	-1.000000	-1.000000	1426583.000000	1776579254.299858
26627.355000	5213.745000	40540.680000	76761.855000	51127.335000	29184.840000	-9010.080000	15916.995000	1.009308	-1.949596	-6.897638	-5.187904	-2.183374	5.930188	5.724029	4.963701	-3.601360	3.921820	-2.533160	-0.848448	-0.100586	0.513182	-1.000000	-1.000000	-1.000000	-1.000000	-1.000000	-1.000000	-1.000000	61.000000	0.000000	-1.000000	-1.000000	1426584.000000	1776579254.303918
26623.620000	5209.155000	40537.440000	76760.100000	51125.760000	29179.395000	-9016.425000	15909.210000	2.009201	-0.226723	-7.276496	-8.248744	-8.966077	1.124009	5.877727	3.896677	-3.601360	3.921820	-2.533160	-0.848448	-0.100586	0.513182	-1.000000	-1.000000	-1.000000	-1.000000	-1.000000	-1.000000	-1.000000	61.000000	0.000000	-1.000000	-1.000000	1426585.000000	1776579254.303942
26627.805000	5212.530000	40541.355000	76766.670000	51133.770000	29182.680000	-9015.930000	15912.945000	2.641320	2.139431	-3.678993	-6.658784	-10.501225	-3.429982	3.448048	1.475913	-3.601360	3.921820	-2.533160	-0.848448	-0.100586	0.513182	-1.000000	-1.000000	-1.000000	-1.000000	-1.000000	-1.000000	-1.000000	61.000000	0.000000	-1.000000	-1.000000	1426586.000000	1776579254.308022
26622.990000	5203.755000	40530.285000	76759.830000	51132.240000	29180.385000	-9019.440000	15911.100000	2.346918	3.509091	1.151893	-1.648271	-5.970308	-4.774320	-0.130928	-1.232950	-3.601360	3.921820	-2.533160	-0.848448	-0.100586	0.513182	-1.000000	-1.000000	-1.000000	-1.000000	-1.000000	-1.000000	-1.000000	61.000000	0.000000	-1.000000	-1.000000	1426587.000000	1776579254.308036
26613.540000	5188.185000	40516.425000	76752.585000	51134.355000	29180.025000	-9024.750000	15901.785000	0.791198	2.552458	3.841916	3.325869	1.474778	-2.791727	-3.241561	-3.268542	-3.601360	3.921820	-2.533160	-0.848448	-0.100586	0.513182	-1.000000	-1.000000	-1.000000	-1.000000	-1.000000	-1.000000	-1.000000	61.000000	0.000000	-1.000000	-1.000000	1426588.000000	1776579254.311985
26616.870000	5195.430000	40522.815000	76758.930000	51141.375000	29173.185000	-9024.435000	15908.355000	-1.683919	-0.514097	3.063180	5.458639	7.544365	0.455681	-4.806508	-4.216778	-3.601360	3.921820	-2.533160	-0.848448	-0.100586	0.513182	-1.000000	-1.000000	-1.000000	-1.000000	-1.000000	-1.000000	-1.000000	61.000000	0.000000	-1.000000	-1.000000	1426589.000000	1776579254.311994
26615.880000	5197.095000	40524.435000	76757.760000	51135.795000	29159.010000	-9032.670000	15901.560000	-3.641204	-3.246113	0.810654	4.774350	9.677315	2.420880	-4.533431	-3.821266	-3.601360	3.921820	-2.533160	-0.848448	-0.100586	0.513182	-1.000000	-1.000000	-1.000000	-1.000000	-1.000000	-1.000000	-1.000000	61.000000	0.000000	-1.000000	-1.000000	1426590.000000	1776579254.315878
26616.240000	5198.265000	40525.065000	76754.295000	51129.045000	29159.010000	-9031.095000	15901.065000	-3.641271	-3.163551	-0.080536	2.871397	7.394308	1.883326	-2.863212	-2.212823	-3.601360	3.921820	-2.533160	-0.848448	-0.100586	0.513182	-1.000000	-1.000000	-1.000000	-1.000000	-1.000000	-1.000000	-1.000000	61.000000	0.000000	-1.000000	-1.000000	1426591.000000	1776579254.315887
26622.990000	5209.605000	40531.185000	76752.810000	51124.905000	29188.305000	-9015.345000	15912.720000	-1.617993	-0.283480	1.037423	0.783930	1.899734	0.556136	-0.212124	0.039275	-3.601360	3.921820	-2.533160	-0.848448	-0.100586	0.513182	-1.000000	-1.000000	-1.000000	-1.000000	-1.000000	-1.000000	-1.000000	61.000000	0.000000	-1.000000	-1.000000	1426592.000000	1776579254.319950
26616.780000	5203.710000	40526.235000	76748.715000	51121.845000	29191.680000	-9019.710000	15903.090000	1.244154	3.367671	2.798051	-1.062535	-4.076531	1.583892	3.178113	2.402332	-3.601360	3.921820	-2.533160	-0.848448	-0.100586	0.513182	-1.000000	-1.000000	-1.000000	-1.000000	-1.000000	-1.000000	-1.000000	61.000000	0.000000	-1.000000	-1.000000	1426593.000000	1776579254.319960
26621.955000	5211.180000	40536.630000	76758.615000	51130.575000	29196.990000	-9007.740000	15914.880000	3.276394	5.367554	3.557799	-2.122743	-7.437592	4.963781	6.092364	4.012547	-0.701960	3.479280	-2.639980	-0.848631	-0.101623	0.513182	-1.000000	-1.000000	-1.000000	-1.000000	-1.000000	-1.000000	-1.000000	61.000000	0.000000	-1.000000	-1.000000	1426594.000000	1776579254.325919
26624.520000	5214.240000	40537.845000	76761.360000	51133.275000	29198.385000	-9004.905000	15918.660000	3.585776	4.618351	2.832997	-1.707259	-6.473097	7.090803	6.956732	4.302356	-0.701960	3.479280	-2.639980	-0.848631	-0.101623	0.513182	-1.000000	-1.000000	-1.000000	-1.000000	-1.000000	-1.000000	-1.000000	61.000000	0.000000	-1.000000	-1.000000	1426595.000000	1776579254.325953
26622.720000	5214.285000	40537.710000	76766.040000	51141.600000	29197.215000	-9011.520000	15914.970000	2.519761	1.911158	1.131035	0.085237	-2.000027	5.145490	5.118772	3.430970	-0.701960	3.479280	-2.639980	-0.848631	-0.101623	0.513182	-1.000000	-1.000000	-1.000000	-1.000000	-1.000000	-1.000000	-1.000000	61.000000	0.000000	-1.000000	-1.000000	1426596.000000	1776579254.327997
26613.810000	5207.220000	40528.350000	76757.895000	51141.645000	29191.635000	-9025.515000	15901.920000	0.568199	-1.492190	-1.225786	1.794594	3.165317	-0.471432	0.617043	1.195968	-0.701960	3.479280	-2.639980	-0.848631	-0.101623	0.513182	-1.000000	-1.000000	-1.000000	-1.000000	-1.000000	-1.000000	-1.000000	61.000000	0.000000	-1.000000	-1.000000	1426597.000000	1776579254.328011
26614.890000	5207.445000	40530.510000	76759.920000	51141.825000	29187.675000	-9025.965000	15903.045000	-1.902673	-4.649090	-3.928773	1.761915	6.048747	-7.060007	-5.349068	-2.417759	-0.701960	3.479280	-2.639980	-0.848631	-0.101623	0.513182	-1.000000	-1.000000	-1.000000	-1.000000	-1.000000	-1.000000	-1.000000	61.000000	0.000000	-1.000000	-1.000000	1426598.000000	1776579254.332113
26620.695000	5212.845000	40537.755000	76765.230000	51135.570000	29185.020000	-9021.330000	15911.370000	-3.747911	-6.380806	-5.694164	0.014051	5.163528	-11.442523	-9.728854	-5.590042	-0.701960	3.479280	-2.639980	-0.848631	-0.101623	0.513182	-1.000000	-1.000000	-1.000000	-1.000000	-1.000000	-1.000000	-1.000000	61.000000	0.000000	-1.000000	-1.000000	1426599.000000	1776579254.332142
26620.020000	5209.380000	40530.330000	76752.180000	51112.080000	29162.520000	-9024.705000	15908.265000	-3.568497	-5.648601	-5.132104	-2.000345	0.816319	-11.969522	-9.617569	-5.854803	-0.701960	3.479280	-2.639980	-0.848631	-0.101623	0.513182	-1.000000	-1.000000	-1.000000	-1.000000	-1.000000	-1.000000	-1.000000	61.000000	0.000000	-1.000000	-1.000000	1426600.000000	1776579254.336678
26625.105000	5213.925000	40535.370000	76755.960000	51109.920000	29157.030000	-9022.905000	15913.170000	-1.368403	-2.797248	-2.584619	-3.338661	-5.212164	-9.371624	-5.105739	-2.967447	-0.701960	3.479280	-2.639980	-0.848631	-0.101623	0.513182	-1.000000	-1.000000	-1.000000	-1.000000	-1.000000	-1.000000	-1.000000	61.000000	0.000000	-1.000000	-1.000000	1426601.000000	1776579254.336689
26618.130000	5204.430000	40526.910000	76747.680000	51108.165000	29167.695000	-9023.805000	15904.575000	1.295444	0.513403	0.278377	-3.724964	-9.574708	-4.732623	1.026991	0.894971	-0.701960	3.479280	-2.639980	-0.848631	-0.101623	0.513182	-1.000000	-1.000000	-1.000000	-1.000000	-1.000000	-1.000000	-1.000000	61.000000	0.000000	-1.000000	-1.000000	1426602.000000	1776579254.339804
26617.410000	5206.095000	40528.710000	76751.460000	51119.730000	29185.200000	-9019.440000	15905.835000	2.603722	2.556776	2.043916	-2.944605	-8.864692	2.081972	5.835652	3.263175	-0.701960	3.479280	-2.639980	-0.848631	-0.101623	0.513182	-1.000000	-1.000000	-1.000000	-1.000000	-1.000000	-1.000000	-1.000000	61.000000	0.000000	-1.000000	-1.000000	1426603.000000	1776579254.339818
26611.020000	5199.120000	40524.120000	76752.315000	51123.645000	29181.060000	-9030.510000	15897.735000	1.827466	2.707364	2.328356	-1.006906	-2.572304	10.124983	7.610038	3.138353	0.686700	2.517900	-1.175020	-0.850034	-0.099792	0.513732	-1.000000	-1.000000	-1.000000	-1.000000	-1.000000	-1.000000	-1.000000	61.000000	0.000000	-1.000000	-1.000000	1426604.000000	1776579254.345748
26607.780000	5195.520000	40520.385000	76753.350000	51134.985000	29194.065000	-9031.455000	15896.880000	-0.277992	1.547520	1.618212	1.616726	6.126892	15.816968	5.963786	1.246240	0.686700	2.517900	-1.175020	-0.850034	-0.099792	0.513732	-1.000000	-1.000000	-1.000000	-1.000000	-1.000000	-1.000000	-1.000000	61.000000	0.000000	-1.000000	-1.000000	1426605.000000	1776579254.345757
26616.510000	5206.185000	40529.925000	76764.195000	51148.170000	29202.120000	-9018.720000	15910.380000	-2.035738	0.340378	0.803785	4.065784	12.788097	16.053231	2.348262	-0.562835	0.686700	2.517900	-1.175020	-0.850034	-0.099792	0.513732	-1.000000	-1.000000	-1.000000	-1.000000	-1.000000	-1.000000	-1.000000	61.000000	0.000000	-1.000000	-1.000000	1426606.000000	1776579254.347925
26620.425000	5211.405000	40533.075000	76761.135000	51136.830000	29187.270000	-9016.245000	15914.655000	-1.807376	0.521405	0.904103	5.512414	14.224719	10.607156	-0.414392	-0.397142	0.686700	2.517900	-1.175020	-0.850034	-0.099792	0.513732	-1.000000	-1.000000	-1.000000	-1.000000	-1.000000	-1.000000	-1.000000	61.000000	0.000000	-1.000000	-1.000000	1426607.000000	1776579254.347951
26618.760000	5206.500000	40529.025000	76753.395000	51121.980000	29180.160000	-9015.750000	15910.920000	0.446245	2.163068	1.958356	5.030417	9.087287	1.088105	-0.916637	1.626298	0.686700	2.517900	-1.175020	-0.850034	-0.099792	0.513732	-1.000000	-1.000000	-1.000000	-1.000000	-1.000000	-1.000000	-1.000000	61.000000	0.000000	-1.000000	-1.000000	1426608.000000	1776579254.351807
26611.605000	5197.185000	40519.530000	76751.100000	51116.445000	29172.915000	-9024.345000	15905.205000	2.682151	3.229273	2.403440	2.048321	-1.141085	-9.352367	-0.458831	3.066366	0.686700	2.517900	-1.175020	-0.850034	-0.099792	0.513732	-1.000000	-1.000000	-1.000000	-1.000000	-1.000000	-1.000000	-1.000000	61.000000	0.000000	-1.000000	-1.000000	1426609.000000	1776579254.351817
26618.445000	5207.805000	40528.170000	76752.720000	51116.130000	29180.295000	-9021.105000	15911.730000	2.936899	2.067670	1.057204	-2.216513	-11.416531	-16.166879	-0.882494	2.094101	0.686700	2.517900	-1.175020	-0.850034	-0.099792	0.513732	-1.000000	-1.000000	-1.000000	-1.000000	-1.000000	-1.000000	-1.000000	61.000000	0.000000	-1.000000	-1.000000	1426610.000000	1776579254.356259
26617.230000	5207.175000	40527.360000	76740.750000	51111.855000	29175.210000	-9026.955000	15906.555000	1.421433	-0.302628	-1.046395	-5.436644	-16.153056	-16.038043	-2.329300	-0.515580	0.686700	2.517900	-1.175020	-0.850034	-0.099792	0.513732	-1.000000	-1.000000	-1.000000	-1.000000	-1.000000	-1.000000	-1.000000	61.000000	0.000000	-1.000000	-1.000000	1426611.000000	1776579254.356270
26623.935000	5218.380000	40537.665000	76751.235000	51124.770000	29183.535000	-9020.565000	15915.645000	-0.260222	-1.709737	-1.979110	-6.171780	-13.174913	-9.442904	-3.499045	-2.740905	0.686700	2.517900	-1.175020	-0.850034	-0.099792	0.513732	-1.000000	-1.000000	-1.000000	-1.000000	-1.000000	-1.000000	-1.000000	61.000000	0.000000	-1.000000	-1.000000	1426612.000000	1776579254.359939
26614.980000	5207.355000	40528.260000	76754.025000	51130.800000	29192.220000	-9026.595000	15901.515000	-1.147504	-1.499653	-1.251227	-4.075180	-4.335401	0.115859	-3.252291	-3.437365	0.686700	2.517900	-1.175020	-0.850034	-0.099792	0.513732	-1.000000	-1.000000	-1.000000	-1.000000	-1.000000	-1.000000	-1.000000	61.000000	0.000000	-1.000000	-1.000000	1426613.000000	1776579254.359954
26609.760000	5198.760000	40522.860000	76754.970000	51136.785000	29194.110000	-9031.455000	15896.205000	-1.655844	-1.091276	-0.286706	0.060551	5.942154	8.554950	-1.779303	-3.151883	1.129240	1.938020	3.891300	-0.849607	-0.095886	0.514891	-1.000000	-1.000000	-1.000000	-1.000000	-1.000000	-1.000000	-1.000000	61.000000	0.000000	-1.000000	-1.000000	1426614.000000	1776579254.363853
26613.180000	5205.870000	40527.900000	76754.610000	51133.050000	29191.365000	-9028.215000	15903.270000	-2.332184	-1.797088	-0.465737	4.010910	12.665243	12.565679	-0.137084	-2.688852	1.129240	1.938020	3.891300	-0.849607	-0.095886	0.514891	-1.000000	-1.000000	-1.000000	-1.000000	-1.000000	-1.000000	-1.000000	61.000000	0.000000	-1.000000	-1.000000	1426615.000000	1776579254.363863
26624.160000	5221.215000	40539.780000	76756.950000	51127.155000	29190.465000	-9015.750000	15916.770000	-2.375921	-2.423995	-1.026249	5.647124	12.755559	10.783731	1.410279	-1.303901	1.129240	1.938020	3.891300	-0.849607	-0.095886	0.514891	-1.000000	-1.000000	-1.000000	-1.000000	-1.000000	-1.000000	-1.000000	61.000000	0.000000	-1.000000	-1.000000	1426616.000000	1776579254.367976
26623.350000	5218.695000	40536.135000	76751.190000	51115.320000	29178.135000	-9018.090000	15914.520000	-0.715742	-1.009071	-0.405421	4.452243	6.582084	4.527878	3.220771	1.766843	1.129240	1.938020	3.891300	-0.849607	-0.095886	0.514891	-1.000000	-1.000000	-1.000000	-1.000000	-1.000000	-1.000000	-1.000000	61.000000	0.000000	-1.000000	-1.000000	1426617.000000	1776579254.368012
26622.810000	5213.565000	40530.510000	76748.085000	51113.385000	29171.070000	-9021.915000	15912.405000	1.874414	1.678624	0.972573	1.272546	-2.359310	-3.200014	4.500202	4.933128	1.129240	1.938020	3.891300	-0.849607	-0.095886	0.514891	-1.000000	-1.000000	-1.000000	-1.000000	-1.000000	-1.000000	-1.000000	61.000000	0.000000	-1.000000	-1.000000	1426618.000000	1776579254.372010
26617.320000	5205.060000	40523.535000	76745.835000	51116.445000	29166.975000	-9026.370000	15905.970000	3.262261	2.809019	1.195055	-2.334491	-9.198561	-9.092216	3.698722	5.516613	1.129240	1.938020	3.891300	-0.849607	-0.095886	0.514891	-1.000000	-1.000000	-1.000000	-1.000000	-1.000000	-1.000000	-1.000000	61.000000	0.000000	-1.000000	-1.000000	1426619.000000	1776579254.372032
26608.140000	5194.260000	40512.870000	76736.385000	51113.610000	29164.635000	-9037.215000	15892.470000	2.114154	0.896938	-0.582796	-4.801506	-10.515079	-10.659389	0.519245	2.515907	1.129240	1.938020	3.891300	-0.849607	-0.095886	0.514891	-1.000000	-1.000000	-1.000000	-1.000000	-1.000000	-1.000000	-1.000000	61.000000	0.000000	-1.000000	-1.000000	1426620.000000	1776579254.375980
26612.550000	5208.300000	40524.795000	76748.670000	51127.335000	29179.620000	-9032.580000	15902.820000	-0.875043	-2.490864	-2.995412	-5.133253	-6.299792	-7.184928	-3.453134	-2.353751	1.129240	1.938020	3.891300	-0.849607	-0.095886	0.514891	-1.000000	-1.000000	-1.000000	-1.000000	-1.000000	-1.000000	-1.000000	61.000000	0.000000	-1.000000	-1.000000	1426621.000000	1776579254.375986
26614.485000	5209.110000	40526.955000	76755.555000	51137.055000	29186.280000	-9029.520000	15905.475000	-3.321018	-3.980324	-3.442764	-2.786507	0.924111	0.055036	-5.608277	-5.540212	1.129240	1.938020	3.891300	-0.849607	-0.095886	0.514891	-1.000000	-1.000000	-1.000000	-1.000000	-1.000000	-1.000000	-1.000000	61.000000	0.000000	-1.000000	-1.000000	1426622.000000	1776579254.379907
26613.405000	5210.325000	40527.270000	76751.730000	51131.610000	29189.340000	-9028.530000	15904.260000	-3.277317	-1.939665	-0.860438	1.503787	7.549843	7.814913	-4.328270	-4.735966	1.129240	1.938020	3.891300	-0.849607	-0.095886	0.514891	-1.000000	-1.000000	-1.000000	-1.000000	-1.000000	-1.000000	-1.000000	61.000000	0.000000	-1.000000	-1.000000	1426623.000000	1776579254.379918
26608.230000	5203.305000	40517.910000	76738.680000	51115.230000	29181.060000	-9030.330000	15899.760000	-1.158237	1.714347	2.717971	4.860274	9.693256	11.879419	-0.616295	-1.194409	-1.266580	2.487380	0.473060	-0.847532	-0.093261	0.515013	-1.000000	-1.000000	-1.000000	-1.000000	-1.000000	-1.000000	-1.000000	61.000000	0.000000	-1.000000	-1.000000	1426624.000000	1776579254.383869
26618.085000	5215.995000	40528.890000	76742.820000	51108.975000	29181.375000	-9014.490000	15916.725000	1.274726	4.127218	4.534958	4.662072	5.583293	9.826383	3.202623	2.363271	-1.266580	2.487380	0.473060	-0.847532	-0.093261	0.515013	-1.000000	-1.000000	-1.000000	-1.000000	-1.000000	-1.000000	-1.000000	61.000000	0.000000	-1.000000	-1.000000	1426625.000000	1776579254.383887
26625.690000	5220.675000	40533.930000	76742.685000	51101.595000	29159.595000	-9014.580000	15923.205000	3.137834	4.550157	4.170621	1.587451	-2.236908	2.741093	5.669063	4.772428	-1.266580	2.487380	0.473060	-0.847532	-0.093261	0.515013	-1.000000	-1.000000	-1.000000	-1.000000	-1.000000	-1.000000	-1.000000	61.000000	0.000000	-1.000000	-1.000000	1426626.000000	1776579254.387942
