Channel1	Channel2	Channel3	Channel4	Channel5	Channel6	Channel7	Channel8	FilteredChannel1	FilteredChannel2	FilteredChannel3	FilteredChannel4	FilteredChannel5	FilteredChannel6	FilteredChannel7	FilteredChannel8	GyroX	GyroY	GyroZ	AccX	AccY	AccZ	PPG1	PPG2	rawPPG1	rawPPG2	rawPPG3	Hr	Hrv	Battery	Trigger	PhysicalTrigger	AutoTrigger	NumMeasurements	Timestamp
-15289.380000	-14035.635000	7292.025000	45719.370000	18488.385000	15113.880000	-7220.565000	2050.740000	3.487406	3.270963	1.878532	-0.278876	5.253346	2.659646	3.002444	2.571988	-7.019600	3.174080	-1.846460	-0.719786	-0.208923	0.647215	-1.000000	-1.000000	-1.000000	-1.000000	-1.000000	-1.000000	-1.000000	53.000000	0.000000	-1.000000	-1.000000	145230.000000	1775800098.723650
-15293.610000	-14039.595000	7292.610000	45729.045000	18497.475000	15120.540000	-7217.595000	2053.710000	3.136113	1.835655	0.630134	-2.164714	1.461237	4.887999	3.985793	1.944723	-7.019600	3.174080	-1.846460	-0.719786	-0.208923	0.647215	-1.000000	-1.000000	-1.000000	-1.000000	-1.000000	-1.000000	-1.000000	53.000000	0.000000	-1.000000	-1.000000	145231.000000	1775800098.723661
-15291.720000	-14036.940000	7295.310000	45732.645000	18496.935000	15117.435000	-7217.820000	2056.140000	0.789849	-1.064646	-0.699052	-0.997915	-0.969029	6.290788	4.718837	1.452468	-7.019600	3.174080	-1.846460	-0.719786	-0.208923	0.647215	-1.000000	-1.000000	-1.000000	-1.000000	-1.000000	-1.000000	-1.000000	53.000000	0.000000	-1.000000	-1.000000	145232.000000	1775800098.723675
-15288.165000	-14034.915000	7295.535000	45729.810000	18484.920000	15101.010000	-7225.020000	2057.130000	-2.284511	-3.945266	-1.809734	1.564371	-2.388631	5.214130	4.199943	1.179075	-7.019600	3.174080	-1.846460	-0.719786	-0.208923	0.647215	-1.000000	-1.000000	-1.000000	-1.000000	-1.000000	-1.000000	-1.000000	53.000000	0.000000	-1.000000	-1.000000	145233.000000	1775800098.723686
-15286.545000	-14033.565000	7297.110000	45730.080000	18472.185000	15091.110000	-7226.505000	2059.560000	-4.119079	-5.088033	-2.561435	2.312693	-4.565420	0.515149	1.578273	0.639827	-7.019600	3.174080	-1.846460	-0.719786	-0.208923	0.647215	-1.000000	-1.000000	-1.000000	-1.000000	-1.000000	-1.000000	-1.000000	53.000000	0.000000	-1.000000	-1.000000	145234.000000	1775800098.723700
-15288.750000	-14036.355000	7295.310000	45727.200000	18461.565000	15081.030000	-7228.305000	2059.785000	-3.924979	-4.140274	-2.883395	0.099708	-7.842762	-6.127064	-2.262139	-0.360435	-7.019600	3.174080	-1.846460	-0.719786	-0.208923	0.647215	-1.000000	-1.000000	-1.000000	-1.000000	-1.000000	-1.000000	-1.000000	53.000000	0.000000	-1.000000	-1.000000	145235.000000	1775800098.723710
-15283.620000	-14030.550000	7297.515000	45721.350000	18455.220000	15063.885000	-7239.105000	2058.210000	-2.388844	-2.035129	-2.757067	-3.677482	-10.269984	-11.107360	-5.399844	-1.604507	-7.019600	3.174080	-1.846460	-0.719786	-0.208923	0.647215	-1.000000	-1.000000	-1.000000	-1.000000	-1.000000	-1.000000	-1.000000	53.000000	0.000000	-1.000000	-1.000000	145236.000000	1775800098.730609
-15284.025000	-14031.360000	7287.660000	45695.655000	18453.285000	15049.710000	-7255.440000	2047.320000	-0.517458	0.190704	-2.315656	-7.185704	-9.376225	-11.961813	-6.862445	-2.903703	-7.019600	3.174080	-1.846460	-0.719786	-0.208923	0.647215	-1.000000	-1.000000	-1.000000	-1.000000	-1.000000	-1.000000	-1.000000	53.000000	0.000000	-1.000000	-1.000000	145237.000000	1775800098.730638
-15299.325000	-14046.705000	7284.465000	45715.995000	18494.190000	15104.430000	-7228.980000	2048.625000	0.666505	1.524753	-1.954812	-8.976649	-3.677694	-7.435732	-6.252848	-4.084713	-7.019600	3.174080	-1.846460	-0.719786	-0.208923	0.647215	-1.000000	-1.000000	-1.000000	-1.000000	-1.000000	-1.000000	-1.000000	53.000000	0.000000	-1.000000	-1.000000	145238.000000	1775800098.730664
-15311.475000	-14060.700000	7274.835000	45712.260000	18499.860000	15133.995000	-7220.340000	2047.860000	0.029835	0.791362	-1.897087	-7.157842	6.353847	3.546713	-2.363511	-4.397105	-7.019600	3.174080	-1.846460	-0.719786	-0.208923	0.647215	-1.000000	-1.000000	-1.000000	-1.000000	-1.000000	-1.000000	-1.000000	53.000000	0.000000	-1.000000	-1.000000	145239.000000	1775800098.730674
-15317.190000	-14069.115000	7263.900000	45695.970000	18482.670000	15123.780000	-7229.520000	2043.360000	-2.298252	-1.939752	-1.949416	-1.664957	15.924730	17.512170	4.184053	-3.072063	-6.348160	4.135460	-1.480220	-0.709532	-0.210388	0.643187	-1.000000	-1.000000	-1.000000	-1.000000	-1.000000	-1.000000	-1.000000	53.000000	0.000000	-1.000000	-1.000000	145240.000000	1775800098.732022
-15302.160000	-14049.180000	7284.240000	45716.085000	18485.730000	15114.690000	-7226.595000	2050.470000	-3.881247	-4.055672	-1.305113	4.415531	17.910397	24.713790	9.161219	-0.373163	-6.348160	4.135460	-1.480220	-0.709532	-0.210388	0.643187	-1.000000	-1.000000	-1.000000	-1.000000	-1.000000	-1.000000	-1.000000	53.000000	0.000000	-1.000000	-1.000000	145241.000000	1775800098.732049
-15296.130000	-14041.440000	7289.055000	45718.605000	18491.040000	15112.710000	-7224.570000	2051.145000	-1.884369	-2.185715	1.412396	8.667721	10.515840	18.260739	9.134145	2.769087	-6.348160	4.135460	-1.480220	-0.709532	-0.210388	0.643187	-1.000000	-1.000000	-1.000000	-1.000000	-1.000000	-1.000000	-1.000000	53.000000	0.000000	-1.000000	-1.000000	145242.000000	1775800098.737033
-15296.355000	-14040.450000	7283.835000	45709.785000	18488.160000	15111.945000	-7229.025000	2044.260000	3.439750	3.679757	5.780640	10.315126	-0.948967	1.708002	4.728814	5.084912	-6.348160	4.135460	-1.480220	-0.709532	-0.210388	0.643187	-1.000000	-1.000000	-1.000000	-1.000000	-1.000000	-1.000000	-1.000000	53.000000	0.000000	-1.000000	-1.000000	145243.000000	1775800098.737060
-15295.005000	-14038.695000	7288.020000	45717.570000	18485.505000	15105.105000	-7231.095000	2044.980000	8.371303	9.323033	8.661871	8.578866	-10.104514	-14.966368	-1.234999	5.244034	-6.348160	4.135460	-1.480220	-0.709532	-0.210388	0.643187	-1.000000	-1.000000	-1.000000	-1.000000	-1.000000	-1.000000	-1.000000	53.000000	0.000000	-1.000000	-1.000000	145244.000000	1775800098.740740
-15291.090000	-14038.020000	7292.520000	45724.590000	18490.500000	15107.535000	-7225.380000	2054.565000	9.444931	10.510831	7.763642	4.173697	-13.708043	-23.587322	-5.887885	3.372610	-6.348160	4.135460	-1.480220	-0.709532	-0.210388	0.643187	-1.000000	-1.000000	-1.000000	-1.000000	-1.000000	-1.000000	-1.000000	53.000000	0.000000	-1.000000	-1.000000	145245.000000	1775800098.740761
-15291.180000	-14037.435000	7294.455000	45726.885000	18494.145000	15112.035000	-7226.145000	2057.220000	6.273493	6.542032	3.857339	-0.430002	-11.549714	-21.595643	-7.282567	1.240177	-6.348160	4.135460	-1.480220	-0.709532	-0.210388	0.643187	-1.000000	-1.000000	-1.000000	-1.000000	-1.000000	-1.000000	-1.000000	53.000000	0.000000	-1.000000	-1.000000	145246.000000	1775800098.744872
-15303.465000	-14050.710000	7280.820000	45715.005000	18488.205000	15108.210000	-7234.965000	2047.950000	0.636273	-0.346414	-1.119192	-3.747682	-5.726257	-11.670844	-5.566437	-0.100884	-6.348160	4.135460	-1.480220	-0.709532	-0.210388	0.643187	-1.000000	-1.000000	-1.000000	-1.000000	-1.000000	-1.000000	-1.000000	53.000000	0.000000	-1.000000	-1.000000	145247.000000	1775800098.744897
-15296.715000	-14043.195000	7288.020000	45723.645000	18501.120000	15114.510000	-7232.490000	2051.460000	-5.170855	-7.013600	-5.662692	-5.896797	0.551851	0.528718	-2.689413	-1.251224	-6.348160	4.135460	-1.480220	-0.709532	-0.210388	0.643187	-1.000000	-1.000000	-1.000000	-1.000000	-1.000000	-1.000000	-1.000000	53.000000	0.000000	-1.000000	-1.000000	145248.000000	1775800098.747780
-15298.380000	-14044.005000	7286.220000	45720.225000	18501.165000	15109.785000	-7233.840000	2050.785000	-8.680094	-10.459321	-8.188858	-6.729092	5.073500	9.713480	-0.208693	-2.550603	-6.348160	4.135460	-1.480220	-0.709532	-0.210388	0.643187	-1.000000	-1.000000	-1.000000	-1.000000	-1.000000	-1.000000	-1.000000	53.000000	0.000000	-1.000000	-1.000000	145249.000000	1775800098.747810
-15300.495000	-14045.895000	7284.060000	45718.695000	18485.145000	15104.070000	-7233.480000	2049.615000	-8.413489	-9.283416	-7.582170	-5.796708	6.701683	13.074985	1.563999	-3.319666	2.517900	1.892240	1.739640	-0.705381	-0.213561	0.649840	-1.000000	-1.000000	-1.000000	-1.000000	-1.000000	-1.000000	-1.000000	53.000000	0.000000	-1.000000	-1.000000	145250.000000	1775800098.755663
-15303.555000	-14049.765000	7280.370000	45716.895000	18478.350000	15095.475000	-7238.790000	2045.610000	-5.196992	-4.886028	-4.559144	-3.553748	4.637761	10.537220	2.587823	-3.125743	2.517900	1.892240	1.739640	-0.705381	-0.213561	0.649840	-1.000000	-1.000000	-1.000000	-1.000000	-1.000000	-1.000000	-1.000000	53.000000	0.000000	-1.000000	-1.000000	145251.000000	1775800098.755691
-15287.985000	-14035.455000	7293.285000	45726.480000	18491.310000	15099.795000	-7231.995000	2056.680000	-0.856852	0.222114	-0.698826	-0.788637	0.217469	4.572731	2.798924	-2.027014	2.517900	1.892240	1.739640	-0.705381	-0.213561	0.649840	-1.000000	-1.000000	-1.000000	-1.000000	-1.000000	-1.000000	-1.000000	53.000000	0.000000	-1.000000	-1.000000	145252.000000	1775800098.761362
-15287.175000	-14034.465000	7292.790000	45719.595000	18487.395000	15102.180000	-7233.165000	2054.250000	3.431365	4.547124	3.024900	1.962261	-2.930173	-0.925351	2.535014	-0.093911	2.517900	1.892240	1.739640	-0.705381	-0.213561	0.649840	-1.000000	-1.000000	-1.000000	-1.000000	-1.000000	-1.000000	-1.000000	53.000000	0.000000	-1.000000	-1.000000	145253.000000	1775800098.761388
-15287.895000	-14034.735000	7294.185000	45721.980000	18492.120000	15107.670000	-7230.420000	2053.980000	6.459892	7.111837	5.685510	3.832494	-2.652283	-3.105550	2.172597	1.995626	2.517900	1.892240	1.739640	-0.705381	-0.213561	0.649840	-1.000000	-1.000000	-1.000000	-1.000000	-1.000000	-1.000000	-1.000000	53.000000	0.000000	-1.000000	-1.000000	145254.000000	1775800098.761414
-15292.080000	-14038.695000	7292.835000	45726.210000	18494.325000	15105.645000	-7233.615000	2053.485000	6.643228	6.810778	6.101308	4.133850	0.019993	-1.950670	1.597860	2.977957	2.517900	1.892240	1.739640	-0.705381	-0.213561	0.649840	-1.000000	-1.000000	-1.000000	-1.000000	-1.000000	-1.000000	-1.000000	53.000000	0.000000	-1.000000	-1.000000	145255.000000	1775800098.761422
-15297.075000	-14045.760000	7285.995000	45720.945000	18487.710000	15099.930000	-7236.720000	2051.145000	3.557234	3.466949	3.884668	3.135154	2.670272	0.227990	0.478369	2.297331	2.517900	1.892240	1.739640	-0.705381	-0.213561	0.649840	-1.000000	-1.000000	-1.000000	-1.000000	-1.000000	-1.000000	-1.000000	53.000000	0.000000	-1.000000	-1.000000	145256.000000	1775800098.774392
-15311.970000	-14061.420000	7269.345000	45702.135000	18475.470000	15088.410000	-7245.540000	2040.885000	-1.467892	-1.695126	-0.309082	1.044975	3.106323	0.846782	-1.280168	0.349027	2.517900	1.892240	1.739640	-0.705381	-0.213561	0.649840	-1.000000	-1.000000	-1.000000	-1.000000	-1.000000	-1.000000	-1.000000	53.000000	0.000000	-1.000000	-1.000000	145257.000000	1775800098.774422
-15306.480000	-14057.640000	7274.655000	45704.745000	18475.965000	15083.640000	-7246.710000	2041.155000	-6.086654	-6.477304	-4.874029	-2.064221	0.762469	-0.921801	-3.212345	-2.028553	2.517900	1.892240	1.739640	-0.705381	-0.213561	0.649840	-1.000000	-1.000000	-1.000000	-1.000000	-1.000000	-1.000000	-1.000000	53.000000	0.000000	-1.000000	-1.000000	145258.000000	1775800098.774454
-15302.565000	-14054.310000	7281.495000	45713.250000	18482.355000	15082.515000	-7246.395000	2041.560000	-7.622487	-8.160892	-7.065254	-4.486315	-2.314475	-3.518011	-4.204903	-3.522980	2.517900	1.892240	1.739640	-0.705381	-0.213561	0.649840	-1.000000	-1.000000	-1.000000	-1.000000	-1.000000	-1.000000	-1.000000	53.000000	0.000000	-1.000000	-1.000000	145259.000000	1775800098.774477
-15303.465000	-14052.375000	7284.060000	45715.230000	18476.820000	15090.030000	-7244.055000	2040.885000	-4.825564	-5.281262	-4.869341	-3.781886	-3.353357	-4.325020	-3.226759	-2.999384	7.980980	-0.610400	1.251320	-0.722349	-0.216125	0.655150	-1.000000	-1.000000	-1.000000	-1.000000	-1.000000	-1.000000	-1.000000	53.000000	0.000000	-1.000000	-1.000000	145260.000000	1775800098.777434
-15292.980000	-14038.380000	7291.125000	45723.915000	18483.750000	15099.210000	-7235.865000	2051.190000	0.720625	0.830893	0.601304	0.121735	-1.733561	-1.841958	-0.296568	-0.498717	7.980980	-0.610400	1.251320	-0.722349	-0.216125	0.655150	-1.000000	-1.000000	-1.000000	-1.000000	-1.000000	-1.000000	-1.000000	53.000000	0.000000	-1.000000	-1.000000	145261.000000	1775800098.777453
-15287.490000	-14031.630000	7295.805000	45729.360000	18485.055000	15101.505000	-7231.815000	2054.745000	6.096773	7.184304	6.044425	4.775106	1.153639	2.938242	3.422266	2.930918	7.980980	-0.610400	1.251320	-0.722349	-0.216125	0.655150	-1.000000	-1.000000	-1.000000	-1.000000	-1.000000	-1.000000	-1.000000	53.000000	0.000000	-1.000000	-1.000000	145262.000000	1775800098.777475
-15297.570000	-14040.270000	7288.110000	45720.135000	18481.950000	15098.535000	-7239.690000	2047.320000	8.715659	10.602521	8.405537	7.216176	3.483883	6.921368	5.943371	5.490584	7.980980	-0.610400	1.251320	-0.722349	-0.216125	0.655150	-1.000000	-1.000000	-1.000000	-1.000000	-1.000000	-1.000000	-1.000000	53.000000	0.000000	-1.000000	-1.000000	145263.000000	1775800098.777486
-15303.330000	-14047.335000	7281.990000	45710.145000	18481.995000	15091.065000	-7245.000000	2042.235000	6.903986	8.736722	6.221185	5.426620	3.849510	7.120843	5.324671	5.183565	7.980980	-0.610400	1.251320	-0.722349	-0.216125	0.655150	-1.000000	-1.000000	-1.000000	-1.000000	-1.000000	-1.000000	-1.000000	53.000000	0.000000	-1.000000	-1.000000	145264.000000	1775800098.791982
-15294.645000	-14038.830000	7288.695000	45715.635000	18488.880000	15092.055000	-7239.690000	2049.120000	1.511652	2.251382	0.700857	0.013720	2.257732	3.119994	1.625542	1.868007	7.980980	-0.610400	1.251320	-0.722349	-0.216125	0.655150	-1.000000	-1.000000	-1.000000	-1.000000	-1.000000	-1.000000	-1.000000	53.000000	0.000000	-1.000000	-1.000000	145265.000000	1775800098.792009
-15303.060000	-14048.055000	7281.315000	45715.680000	18478.575000	15088.185000	-7238.565000	2047.770000	-4.012837	-4.923300	-4.719875	-5.444451	-0.046586	-2.543843	-2.555154	-2.062338	7.980980	-0.610400	1.251320	-0.722349	-0.216125	0.655150	-1.000000	-1.000000	-1.000000	-1.000000	-1.000000	-1.000000	-1.000000	53.000000	0.000000	-1.000000	-1.000000	145266.000000	1775800098.792038
-15293.790000	-14038.920000	7290.045000	45724.455000	18477.135000	15087.870000	-7235.145000	2052.720000	-6.664603	-8.943886	-7.130664	-7.318436	-2.186319	-6.569978	-4.518871	-4.086756	7.980980	-0.610400	1.251320	-0.722349	-0.216125	0.655150	-1.000000	-1.000000	-1.000000	-1.000000	-1.000000	-1.000000	-1.000000	53.000000	0.000000	-1.000000	-1.000000	145267.000000	1775800098.792050
-15288.705000	-14033.070000	7295.310000	45730.710000	18481.185000	15085.620000	-7237.305000	2051.100000	-5.620432	-8.321679	-5.730110	-4.750751	-3.659182	-7.232690	-3.743359	-3.618336	7.980980	-0.610400	1.251320	-0.722349	-0.216125	0.655150	-1.000000	-1.000000	-1.000000	-1.000000	-1.000000	-1.000000	-1.000000	53.000000	0.000000	-1.000000	-1.000000	145268.000000	1775800098.792062
-15289.290000	-14034.240000	7293.420000	45728.910000	18494.910000	15101.100000	-7236.585000	2045.745000	-1.970844	-4.012158	-1.717055	0.169925	-3.402818	-4.605162	-1.614171	-1.868190	7.980980	-0.610400	1.251320	-0.722349	-0.216125	0.655150	-1.000000	-1.000000	-1.000000	-1.000000	-1.000000	-1.000000	-1.000000	53.000000	0.000000	-1.000000	-1.000000	145269.000000	1775800098.792073
-15291.270000	-14036.355000	7292.745000	45728.370000	18509.175000	15110.640000	-7231.185000	2047.635000	1.761260	1.029588	2.244750	4.028080	-0.607617	0.327604	0.331236	-0.466173	1.037680	-0.900340	-0.930860	-0.734556	-0.210937	0.650267	-1.000000	-1.000000	-1.000000	-1.000000	-1.000000	-1.000000	-1.000000	53.000000	0.000000	-1.000000	-1.000000	145270.000000	1775800098.800055
-15299.865000	-14045.445000	7284.780000	45722.115000	18500.625000	15103.710000	-7235.010000	2046.915000	3.165188	3.716291	3.750131	4.502814	3.443913	5.408023	1.439088	0.044686	1.037680	-0.900340	-0.930860	-0.734556	-0.210937	0.650267	-1.000000	-1.000000	-1.000000	-1.000000	-1.000000	-1.000000	-1.000000	53.000000	0.000000	-1.000000	-1.000000	145271.000000	1775800098.800083
-15291.090000	-14035.860000	7293.735000	45731.070000	18501.570000	15107.085000	-7231.185000	2053.935000	1.850381	3.188138	2.488266	1.965614	5.490065	7.544697	1.592741	0.294195	1.037680	-0.900340	-0.930860	-0.734556	-0.210937	0.650267	-1.000000	-1.000000	-1.000000	-1.000000	-1.000000	-1.000000	-1.000000	53.000000	0.000000	-1.000000	-1.000000	145272.000000	1775800098.800111
-15298.740000	-14044.050000	7284.645000	45717.660000	18476.640000	15085.215000	-7241.265000	2044.080000	-0.438681	1.095447	0.142077	-1.337477	3.107381	5.006183	0.830252	0.778222	1.037680	-0.900340	-0.930860	-0.734556	-0.210937	0.650267	-1.000000	-1.000000	-1.000000	-1.000000	-1.000000	-1.000000	-1.000000	53.000000	0.000000	-1.000000	-1.000000	145273.000000	1775800098.800123
-15296.040000	-14039.145000	7290.585000	45724.005000	18476.730000	15073.965000	-7245.360000	2039.310000	-1.858691	-0.551028	-1.519410	-3.530855	-2.966284	-1.318463	-0.701436	0.934783	1.037680	-0.900340	-0.930860	-0.734556	-0.210937	0.650267	-1.000000	-1.000000	-1.000000	-1.000000	-1.000000	-1.000000	-1.000000	53.000000	0.000000	-1.000000	-1.000000	145274.000000	1775800098.800136
-15289.200000	-14028.840000	7301.880000	45736.695000	18485.910000	15075.135000	-7240.725000	2046.285000	-1.707229	-0.727640	-1.553205	-3.571378	-8.639524	-8.101254	-2.309815	0.274632	1.037680	-0.900340	-0.930860	-0.734556	-0.210937	0.650267	-1.000000	-1.000000	-1.000000	-1.000000	-1.000000	-1.000000	-1.000000	53.000000	0.000000	-1.000000	-1.000000	145275.000000	1775800098.800146
-15295.725000	-14035.770000	7296.795000	45735.165000	18494.055000	15079.095000	-7241.040000	2046.735000	-0.218845	0.566046	0.110700	-1.112748	-9.131010	-10.831077	-2.641046	-0.322524	1.037680	-0.900340	-0.930860	-0.734556	-0.210937	0.650267	-1.000000	-1.000000	-1.000000	-1.000000	-1.000000	-1.000000	-1.000000	53.000000	0.000000	-1.000000	-1.000000	145276.000000	1775800098.822146
-15305.625000	-14048.595000	7282.305000	45719.145000	18504.540000	15086.970000	-7249.320000	2037.510000	1.196686	1.709954	1.759534	2.015061	-3.364381	-7.135400	-1.267028	-0.104593	1.037680	-0.900340	-0.930860	-0.734556	-0.210937	0.650267	-1.000000	-1.000000	-1.000000	-1.000000	-1.000000	-1.000000	-1.000000	53.000000	0.000000	-1.000000	-1.000000	145277.000000	1775800098.822174
-15291.450000	-14037.165000	7290.720000	45725.760000	18504.315000	15091.245000	-7246.170000	2046.285000	1.275701	1.015621	1.321058	2.911590	4.975546	1.084660	0.631288	0.400798	1.037680	-0.900340	-0.930860	-0.734556	-0.210937	0.650267	-1.000000	-1.000000	-1.000000	-1.000000	-1.000000	-1.000000	-1.000000	53.000000	0.000000	-1.000000	-1.000000	145278.000000	1775800098.822203
-15285.330000	-14035.230000	7289.820000	45719.505000	18501.435000	15111.180000	-7233.705000	2055.555000	0.906188	-0.607759	-0.638878	1.186611	10.493834	9.427783	2.187635	0.977662	1.037680	-0.900340	-0.930860	-0.734556	-0.210937	0.650267	-1.000000	-1.000000	-1.000000	-1.000000	-1.000000	-1.000000	-1.000000	53.000000	0.000000	-1.000000	-1.000000	145279.000000	1775800098.822215
-15293.070000	-14044.770000	7281.630000	45714.465000	18492.975000	15104.385000	-7235.415000	2050.875000	1.320737	-1.319907	-2.058541	-1.218454	9.848759	13.965850	3.575225	1.904901	-9.781660	4.150720	-1.129240	-0.730345	-0.208068	0.640440	-1.000000	-1.000000	-1.000000	-1.000000	-1.000000	-1.000000	-1.000000	53.000000	0.000000	-1.000000	-1.000000	145280.000000	1775800098.822230
-15290.415000	-14042.745000	7285.860000	45721.890000	18499.905000	15110.685000	-7232.220000	2052.270000	1.740006	-1.128110	-2.175850	-2.516332	3.922439	12.585290	4.419150	2.434670	-9.781660	4.150720	-1.129240	-0.730345	-0.208068	0.640440	-1.000000	-1.000000	-1.000000	-1.000000	-1.000000	-1.000000	-1.000000	53.000000	0.000000	-1.000000	-1.000000	145281.000000	1775800098.822241
-15275.880000	-14026.275000	7305.435000	45742.410000	18508.500000	15125.310000	-7220.250000	2063.205000	1.294551	-0.480979	-0.855982	-1.423027	-2.882261	6.155315	3.951871	1.758398	-9.781660	4.150720	-1.129240	-0.730345	-0.208068	0.640440	-1.000000	-1.000000	-1.000000	-1.000000	-1.000000	-1.000000	-1.000000	53.000000	0.000000	-1.000000	-1.000000	145282.000000	1775800098.822255
-15284.520000	-14033.160000	7300.530000	45740.655000	18501.030000	15114.735000	-7224.075000	2056.455000	0.550196	0.924576	1.967996	2.199934	-6.424060	-1.783374	2.295570	0.337855	-9.781660	4.150720	-1.129240	-0.730345	-0.208068	0.640440	-1.000000	-1.000000	-1.000000	-1.000000	-1.000000	-1.000000	-1.000000	53.000000	0.000000	-1.000000	-1.000000	145283.000000	1775800098.822266
-15293.610000	-14043.240000	7289.280000	45727.290000	18489.690000	15098.715000	-7232.040000	2047.815000	-0.455098	2.181254	4.446841	5.630844	-6.360811	-8.524041	-0.284374	-1.420952	-9.781660	4.150720	-1.129240	-0.730345	-0.208068	0.640440	-1.000000	-1.000000	-1.000000	-1.000000	-1.000000	-1.000000	-1.000000	53.000000	0.000000	-1.000000	-1.000000	145284.000000	1775800098.834708
-15290.595000	-14041.305000	7283.970000	45713.655000	18485.685000	15087.285000	-7237.890000	2048.805000	-2.305330	1.521170	3.749061	4.959749	-4.998621	-13.377501	-3.748019	-3.536606	-9.781660	4.150720	-1.129240	-0.730345	-0.208068	0.640440	-1.000000	-1.000000	-1.000000	-1.000000	-1.000000	-1.000000	-1.000000	53.000000	0.000000	-1.000000	-1.000000	145285.000000	1775800098.834735
-15293.655000	-14045.445000	7280.685000	45710.685000	18493.470000	15091.740000	-7238.880000	2047.680000	-4.161073	-0.845564	-0.254482	-0.416659	-3.502084	-15.216854	-7.027950	-5.075578	-9.781660	4.150720	-1.129240	-0.730345	-0.208068	0.640440	-1.000000	-1.000000	-1.000000	-1.000000	-1.000000	-1.000000	-1.000000	53.000000	0.000000	-1.000000	-1.000000	145286.000000	1775800098.834764
-15291.900000	-14043.555000	7284.555000	45718.830000	18494.685000	15104.700000	-7235.415000	2048.985000	-4.410332	-2.912265	-4.507027	-6.469586	-1.139319	-11.928036	-8.066053	-4.670345	-9.781660	4.150720	-1.129240	-0.730345	-0.208068	0.640440	-1.000000	-1.000000	-1.000000	-1.000000	-1.000000	-1.000000	-1.000000	53.000000	0.000000	-1.000000	-1.000000	145287.000000	1775800098.834776
-15283.575000	-14031.990000	7296.885000	45731.295000	18505.845000	15113.700000	-7231.680000	2055.195000	-2.435149	-2.934623	-5.603402	-8.102965	2.464475	-3.105953	-5.587485	-2.044730	-9.781660	4.150720	-1.129240	-0.730345	-0.208068	0.640440	-1.000000	-1.000000	-1.000000	-1.000000	-1.000000	-1.000000	-1.000000	53.000000	0.000000	-1.000000	-1.000000	145288.000000	1775800098.834791
-15291.180000	-14038.155000	7289.235000	45719.280000	18498.195000	15104.880000	-7240.005000	2048.265000	0.944573	-0.652906	-2.677937	-4.037707	5.994118	7.623069	-0.643061	1.628032	-9.781660	4.150720	-1.129240	-0.730345	-0.208068	0.640440	-1.000000	-1.000000	-1.000000	-1.000000	-1.000000	-1.000000	-1.000000	53.000000	0.000000	-1.000000	-1.000000	145289.000000	1775800098.834819
-15294.060000	-14040.315000	7288.380000	45720.720000	18486.900000	15095.205000	-7239.420000	2047.500000	3.661012	2.144574	1.706756	2.021629	7.015605	14.192394	3.893715	4.279106	-10.697260	5.081580	-0.381500	-0.717222	-0.215209	0.639036	-1.000000	-1.000000	-1.000000	-1.000000	-1.000000	-1.000000	-1.000000	53.000000	0.000000	-1.000000	-1.000000	145290.000000	1775800098.834836
-15291.630000	-14038.290000	7291.035000	45723.195000	18485.280000	15091.110000	-7238.970000	2049.615000	4.065967	3.226394	4.245126	5.685305	4.131371	13.008740	5.876679	4.582369	-10.697260	5.081580	-0.381500	-0.717222	-0.215209	0.639036	-1.000000	-1.000000	-1.000000	-1.000000	-1.000000	-1.000000	-1.000000	53.000000	0.000000	-1.000000	-1.000000	145291.000000	1775800098.834847
-15283.305000	-14029.155000	7301.295000	45732.780000	18490.815000	15091.065000	-7236.270000	2055.240000	2.728747	2.410194	4.178770	5.938018	-0.857950	5.971589	5.390430	3.176358	-10.697260	5.081580	-0.381500	-0.717222	-0.215209	0.639036	-1.000000	-1.000000	-1.000000	-1.000000	-1.000000	-1.000000	-1.000000	53.000000	0.000000	-1.000000	-1.000000	145292.000000	1775800098.837140
-15295.815000	-14046.210000	7282.530000	45712.755000	18480.915000	15085.260000	-7245.135000	2043.765000	1.184858	0.858464	2.556962	3.944450	-4.483435	-1.807986	3.543998	1.372199	-10.697260	5.081580	-0.381500	-0.717222	-0.215209	0.639036	-1.000000	-1.000000	-1.000000	-1.000000	-1.000000	-1.000000	-1.000000	53.000000	0.000000	-1.000000	-1.000000	145293.000000	1775800098.837167
-15297.120000	-14045.490000	7284.375000	45715.770000	18493.830000	15095.430000	-7241.580000	2042.955000	-0.258030	-1.045638	-0.085418	0.513718	-4.914748	-6.157073	1.151305	-0.483378	-10.697260	5.081580	-0.381500	-0.717222	-0.215209	0.639036	-1.000000	-1.000000	-1.000000	-1.000000	-1.000000	-1.000000	-1.000000	53.000000	0.000000	-1.000000	-1.000000	145294.000000	1775800098.852657
-15301.440000	-14048.370000	7285.590000	45718.695000	18500.355000	15090.120000	-7250.760000	2039.895000	-1.864413	-3.030475	-2.995403	-3.123048	-2.319421	-5.794174	-1.128415	-2.304246	-10.697260	5.081580	-0.381500	-0.717222	-0.215209	0.639036	-1.000000	-1.000000	-1.000000	-1.000000	-1.000000	-1.000000	-1.000000	53.000000	0.000000	-1.000000	-1.000000	145295.000000	1775800098.852684
-15297.930000	-14046.165000	7286.985000	45720.855000	18498.375000	15090.885000	-7253.730000	2042.865000	-2.987405	-3.893204	-4.381232	-4.774028	1.772791	-2.373004	-2.749665	-3.277273	-10.697260	5.081580	-0.381500	-0.717222	-0.215209	0.639036	-1.000000	-1.000000	-1.000000	-1.000000	-1.000000	-1.000000	-1.000000	53.000000	0.000000	-1.000000	-1.000000	145296.000000	1775800098.852708
-15295.590000	-14046.795000	7287.255000	45722.430000	18491.085000	15089.850000	-7251.345000	2044.035000	-2.594778	-2.759367	-3.279031	-3.490363	4.557625	1.147924	-3.327139	-2.599325	-10.697260	5.081580	-0.381500	-0.717222	-0.215209	0.639036	-1.000000	-1.000000	-1.000000	-1.000000	-1.000000	-1.000000	-1.000000	53.000000	0.000000	-1.000000	-1.000000	145297.000000	1775800098.852719
-15294.870000	-14050.170000	7282.665000	45714.420000	18484.470000	15088.230000	-7250.265000	2048.445000	-0.577928	-0.227448	-0.677698	-0.664237	3.800386	2.825733	-2.434371	-0.427712	-10.697260	5.081580	-0.381500	-0.717222	-0.215209	0.639036	-1.000000	-1.000000	-1.000000	-1.000000	-1.000000	-1.000000	-1.000000	53.000000	0.000000	-1.000000	-1.000000	145298.000000	1775800098.852731
-15297.030000	-14046.705000	7288.920000	45719.775000	18492.345000	15090.975000	-7249.275000	2045.835000	1.850831	2.216765	1.691590	1.522218	0.165894	2.489874	-0.223150	2.072768	-10.697260	5.081580	-0.381500	-0.717222	-0.215209	0.639036	-1.000000	-1.000000	-1.000000	-1.000000	-1.000000	-1.000000	-1.000000	53.000000	0.000000	-1.000000	-1.000000	145299.000000	1775800098.852739
-15298.290000	-14042.970000	7291.935000	45723.285000	18489.825000	15089.400000	-7249.095000	2043.270000	3.102884	3.611028	2.998539	2.245663	-3.281089	1.107392	2.186272	3.364801	0.274680	2.197440	-0.503580	-0.710508	-0.222839	0.644408	-1.000000	-1.000000	-1.000000	-1.000000	-1.000000	-1.000000	-1.000000	53.000000	0.000000	-1.000000	-1.000000	145300.000000	1775800098.859376
-15294.690000	-14040.855000	7286.310000	45719.595000	18491.445000	15091.785000	-7246.980000	2045.070000	2.618954	3.911911	3.221088	2.061770	-4.179795	-0.240081	3.537677	2.683972	0.274680	2.197440	-0.503580	-0.710508	-0.222839	0.644408	-1.000000	-1.000000	-1.000000	-1.000000	-1.000000	-1.000000	-1.000000	53.000000	0.000000	-1.000000	-1.000000	145301.000000	1775800098.859402
-15281.370000	-14027.670000	7300.125000	45731.070000	18492.345000	15093.180000	-7240.995000	2055.600000	1.401112	3.485232	2.470683	1.551896	-2.610378	-0.956349	3.426529	0.920221	0.274680	2.197440	-0.503580	-0.710508	-0.222839	0.644408	-1.000000	-1.000000	-1.000000	-1.000000	-1.000000	-1.000000	-1.000000	53.000000	0.000000	-1.000000	-1.000000	145302.000000	1775800098.859430
-15279.795000	-14028.705000	7299.720000	45728.010000	18473.985000	15078.285000	-7241.265000	2057.805000	0.879050	2.726912	1.370089	1.086731	-0.393272	-1.233734	2.313066	-0.225233	0.274680	2.197440	-0.503580	-0.710508	-0.222839	0.644408	-1.000000	-1.000000	-1.000000	-1.000000	-1.000000	-1.000000	-1.000000	53.000000	0.000000	-1.000000	-1.000000	145303.000000	1775800098.859443
-15281.820000	-14031.900000	7295.715000	45726.705000	18468.945000	15072.840000	-7244.145000	2057.535000	1.013468	1.411129	0.378863	0.591695	0.343403	-1.951901	0.646015	-0.238946	0.274680	2.197440	-0.503580	-0.710508	-0.222839	0.644408	-1.000000	-1.000000	-1.000000	-1.000000	-1.000000	-1.000000	-1.000000	53.000000	0.000000	-1.000000	-1.000000	145304.000000	1775800098.866001
-15290.280000	-14039.595000	7287.030000	45716.490000	18480.645000	15077.610000	-7255.800000	2047.410000	0.312875	-1.133378	-1.067479	-0.590127	-0.479364	-3.077225	-1.589529	-0.296750	0.274680	2.197440	-0.503580	-0.710508	-0.222839	0.644408	-1.000000	-1.000000	-1.000000	-1.000000	-1.000000	-1.000000	-1.000000	53.000000	0.000000	-1.000000	-1.000000	145305.000000	1775800098.866029
-15302.475000	-14052.690000	7277.985000	45715.095000	18523.530000	15123.510000	-7245.585000	2039.805000	-2.227779	-4.790219	-3.408478	-2.626869	0.199350	-2.230102	-3.991153	-1.696603	0.274680	2.197440	-0.503580	-0.710508	-0.222839	0.644408	-1.000000	-1.000000	-1.000000	-1.000000	-1.000000	-1.000000	-1.000000	53.000000	0.000000	-1.000000	-1.000000	145306.000000	1775800098.866058
-15290.820000	-14040.000000	7289.280000	45721.080000	18525.105000	15120.090000	-7240.815000	2044.845000	-5.484239	-7.876217	-5.513851	-4.290067	4.837621	2.717231	-4.924549	-3.983874	0.274680	2.197440	-0.503580	-0.710508	-0.222839	0.644408	-1.000000	-1.000000	-1.000000	-1.000000	-1.000000	-1.000000	-1.000000	53.000000	0.000000	-1.000000	-1.000000	145307.000000	1775800098.866071
-15294.645000	-14044.365000	7284.060000	45713.025000	18496.080000	15092.235000	-7247.790000	2043.765000	-6.658728	-7.860843	-5.285624	-3.990116	9.928954	8.411991	-3.285837	-5.004988	0.274680	2.197440	-0.503580	-0.710508	-0.222839	0.644408	-1.000000	-1.000000	-1.000000	-1.000000	-1.000000	-1.000000	-1.000000	53.000000	0.000000	-1.000000	-1.000000	145308.000000	1775800098.869104
-15294.780000	-14043.555000	7284.780000	45713.970000	18484.470000	15081.345000	-7251.795000	2044.665000	-4.309908	-4.024951	-2.227051	-1.773303	8.430499	7.930246	-0.470545	-3.331909	0.274680	2.197440	-0.503580	-0.710508	-0.222839	0.644408	-1.000000	-1.000000	-1.000000	-1.000000	-1.000000	-1.000000	-1.000000	53.000000	0.000000	-1.000000	-1.000000	145309.000000	1775800098.869126
-15295.860000	-14045.445000	7282.395000	45712.575000	18485.055000	15082.920000	-7250.445000	2043.945000	0.039839	1.413368	1.775375	0.927262	-0.933476	-0.079762	1.365945	0.190388	11.017720	-0.671440	0.579880	-0.716795	-0.220642	0.649840	-1.000000	-1.000000	-1.000000	-1.000000	-1.000000	-1.000000	-1.000000	53.000000	0.000000	-1.000000	-1.000000	145310.000000	1775800098.884047
-15293.205000	-14041.440000	7286.580000	45717.795000	18493.830000	15091.425000	-7249.005000	2045.610000	3.893073	5.610746	4.591014	3.018405	-11.195813	-9.063424	1.786911	3.549679	11.017720	-0.671440	0.579880	-0.716795	-0.220642	0.649840	-1.000000	-1.000000	-1.000000	-1.000000	-1.000000	-1.000000	-1.000000	53.000000	0.000000	-1.000000	-1.000000	145311.000000	1775800098.884075
-15277.365000	-14025.780000	7302.105000	45732.825000	18504.810000	15103.935000	-7240.905000	2056.770000	6.060255	7.457743	5.688993	4.427759	-14.470728	-11.707517	1.783808	5.422715	11.017720	-0.671440	0.579880	-0.716795	-0.220642	0.649840	-1.000000	-1.000000	-1.000000	-1.000000	-1.000000	-1.000000	-1.000000	53.000000	0.000000	-1.000000	-1.000000	145312.000000	1775800098.884102
-15277.320000	-14024.790000	7305.165000	45738.135000	18505.035000	15101.190000	-7243.155000	2056.635000	6.744426	7.483021	5.797196	5.514352	-8.947170	-6.512709	2.129692	5.717800	11.017720	-0.671440	0.579880	-0.716795	-0.220642	0.649840	-1.000000	-1.000000	-1.000000	-1.000000	-1.000000	-1.000000	-1.000000	53.000000	0.000000	-1.000000	-1.000000	145313.000000	1775800098.884111
-15275.115000	-14019.525000	7312.320000	45746.100000	18505.395000	15090.345000	-7249.410000	2055.735000	5.960553	6.077541	5.172122	5.901123	0.680639	1.713770	2.313293	4.539983	11.017720	-0.671440	0.579880	-0.716795	-0.220642	0.649840	-1.000000	-1.000000	-1.000000	-1.000000	-1.000000	-1.000000	-1.000000	53.000000	0.000000	-1.000000	-1.000000	145314.000000	1775800098.885512
-15286.680000	-14031.180000	7299.360000	45732.600000	18504.315000	15077.430000	-7258.590000	2047.905000	3.080433	2.884339	3.020715	4.308724	7.985745	6.540575	1.132186	1.711929	11.017720	-0.671440	0.579880	-0.716795	-0.220642	0.649840	-1.000000	-1.000000	-1.000000	-1.000000	-1.000000	-1.000000	-1.000000	53.000000	0.000000	-1.000000	-1.000000	145315.000000	1775800098.885534
-15290.280000	-14036.265000	7293.150000	45724.320000	18508.860000	15079.185000	-7256.970000	2044.215000	-1.809997	-2.101964	-1.312860	-0.208764	9.679201	5.459613	-1.456232	-2.339588	11.017720	-0.671440	0.579880	-0.716795	-0.220642	0.649840	-1.000000	-1.000000	-1.000000	-1.000000	-1.000000	-1.000000	-1.000000	53.000000	0.000000	-1.000000	-1.000000	145316.000000	1775800098.885555
-15288.435000	-14035.680000	7292.610000	45725.085000	18511.425000	15079.140000	-7253.865000	2045.025000	-6.812939	-7.338516	-6.692411	-6.436027	6.703942	1.216241	-3.640044	-5.987258	11.017720	-0.671440	0.579880	-0.716795	-0.220642	0.649840	-1.000000	-1.000000	-1.000000	-1.000000	-1.000000	-1.000000	-1.000000	53.000000	0.000000	-1.000000	-1.000000	145317.000000	1775800098.885565
-15290.505000	-14038.965000	7289.325000	45725.130000	18498.735000	15098.175000	-7247.295000	2044.485000	-9.116922	-10.121589	-10.193399	-10.833180	1.783634	-1.535516	-3.398867	-7.221248	11.017720	-0.671440	0.579880	-0.716795	-0.220642	0.649840	-1.000000	-1.000000	-1.000000	-1.000000	-1.000000	-1.000000	-1.000000	53.000000	0.000000	-1.000000	-1.000000	145318.000000	1775800098.888832
-15290.280000	-14036.535000	7289.055000	45720.045000	18489.510000	15096.690000	-7248.105000	2043.045000	-7.430567	-8.807120	-9.595820	-10.574940	-3.188882	-0.370207	-0.621113	-5.336982	11.017720	-0.671440	0.579880	-0.716795	-0.220642	0.649840	-1.000000	-1.000000	-1.000000	-1.000000	-1.000000	-1.000000	-1.000000	53.000000	0.000000	-1.000000	-1.000000	145319.000000	1775800098.888854
-15295.005000	-14041.620000	7285.815000	45722.115000	18495.270000	15092.055000	-7246.440000	2043.180000	-3.003620	-4.175543	-5.239774	-6.019127	-6.839608	2.964049	2.714159	-1.514140	10.117380	-2.075360	1.800680	-0.727415	-0.213745	0.651121	-1.000000	-1.000000	-1.000000	-1.000000	-1.000000	-1.000000	-1.000000	53.000000	0.000000	-1.000000	-1.000000	145320.000000	1775800098.899290
-15294.285000	-14042.115000	7288.110000	45727.785000	18495.270000	15086.430000	-7249.050000	2041.155000	1.683325	1.302353	0.631158	0.406870	-7.393092	4.524604	4.329475	2.264097	10.117380	-2.075360	1.800680	-0.727415	-0.213745	0.651121	-1.000000	-1.000000	-1.000000	-1.000000	-1.000000	-1.000000	-1.000000	53.000000	0.000000	-1.000000	-1.000000	145321.000000	1775800098.899317
-15288.300000	-14034.690000	7297.380000	45738.765000	18507.825000	15090.840000	-7247.340000	2044.125000	4.872202	5.383217	5.743545	6.360180	-4.045854	2.503747	3.406074	4.531963	10.117380	-2.075360	1.800680	-0.727415	-0.213745	0.651121	-1.000000	-1.000000	-1.000000	-1.000000	-1.000000	-1.000000	-1.000000	53.000000	0.000000	-1.000000	-1.000000	145322.000000	1775800098.899343
-15297.300000	-14044.635000	7286.445000	45725.445000	18496.305000	15086.475000	-7254.855000	2042.145000	6.061195	7.134341	8.629030	9.898857	1.524933	-1.383596	0.732921	4.902105	10.117380	-2.075360	1.800680	-0.727415	-0.213745	0.651121	-1.000000	-1.000000	-1.000000	-1.000000	-1.000000	-1.000000	-1.000000	53.000000	0.000000	-1.000000	-1.000000	145323.000000	1775800098.899354
-15297.975000	-14047.650000	7280.235000	45715.545000	18488.970000	15097.500000	-7251.840000	2044.530000	5.142257	6.263511	8.133793	9.129749	5.696760	-4.234937	-2.209521	3.788546	10.117380	-2.075360	1.800680	-0.727415	-0.213745	0.651121	-1.000000	-1.000000	-1.000000	-1.000000	-1.000000	-1.000000	-1.000000	53.000000	0.000000	-1.000000	-1.000000	145324.000000	1775800098.899886
-15297.435000	-14045.040000	7281.765000	45716.895000	18490.905000	15097.500000	-7252.065000	2042.145000	2.574808	3.263525	4.298310	3.966616	5.860053	-4.305755	-3.929764	1.902769	10.117380	-2.075360	1.800680	-0.727415	-0.213745	0.651121	-1.000000	-1.000000	-1.000000	-1.000000	-1.000000	-1.000000	-1.000000	53.000000	0.000000	-1.000000	-1.000000	145325.000000	1775800098.899929
-15291.315000	-14033.655000	7295.670000	45731.475000	18497.250000	15095.700000	-7251.930000	2040.750000	-0.088359	0.147269	-0.326011	-2.160441	3.048333	-2.074683	-3.610160	-0.106800	10.117380	-2.075360	1.800680	-0.727415	-0.213745	0.651121	-1.000000	-1.000000	-1.000000	-1.000000	-1.000000	-1.000000	-1.000000	53.000000	0.000000	-1.000000	-1.000000	145326.000000	1775800098.914435
-15296.130000	-14038.920000	7292.070000	45726.570000	18491.535000	15077.295000	-7263.315000	2032.650000	-1.428476	-1.137062	-2.626542	-5.021106	0.207909	0.036082	-1.901253	-1.896402	10.117380	-2.075360	1.800680	-0.727415	-0.213745	0.651121	-1.000000	-1.000000	-1.000000	-1.000000	-1.000000	-1.000000	-1.000000	53.000000	0.000000	-1.000000	-1.000000	145327.000000	1775800098.914464
-15293.745000	-14038.470000	7291.395000	45727.605000	18502.695000	15087.645000	-7254.405000	2040.795000	-1.470282	-0.839403	-2.204312	-3.869941	-1.013372	0.100756	-0.197876	-3.110855	10.117380	-2.075360	1.800680	-0.727415	-0.213745	0.651121	-1.000000	-1.000000	-1.000000	-1.000000	-1.000000	-1.000000	-1.000000	53.000000	0.000000	-1.000000	-1.000000	145328.000000	1775800098.914490
-15287.895000	-14039.595000	7288.740000	45722.745000	18503.955000	15096.870000	-7246.395000	2051.370000	-0.946314	-0.553380	-1.089462	-1.257175	-0.588754	-0.788483	1.225503	-2.824397	10.117380	-2.075360	1.800680	-0.727415	-0.213745	0.651121	-1.000000	-1.000000	-1.000000	-1.000000	-1.000000	-1.000000	-1.000000	53.000000	0.000000	-1.000000	-1.000000	145329.000000	1775800098.914502
-15292.125000	-14043.465000	7287.210000	45723.645000	18499.410000	15088.995000	-7255.395000	2049.210000	-0.298396	-1.103368	-0.908603	0.353060	0.491545	-0.339878	2.718427	-0.560831	-2.639980	-1.144500	1.617560	-0.729063	-0.204528	0.648375	-1.000000	-1.000000	-1.000000	-1.000000	-1.000000	-1.000000	-1.000000	53.000000	0.000000	-1.000000	-1.000000	145330.000000	1775800098.914514
-15289.155000	-14037.345000	7296.255000	45737.055000	18504.585000	15089.805000	-7255.215000	2047.680000	0.052874	-2.056258	-1.468517	0.667004	0.798553	1.302695	3.436524	2.159700	-2.639980	-1.144500	1.617560	-0.729063	-0.204528	0.648375	-1.000000	-1.000000	-1.000000	-1.000000	-1.000000	-1.000000	-1.000000	53.000000	0.000000	-1.000000	-1.000000	145331.000000	1775800098.914526
-15290.460000	-14036.805000	7295.850000	45737.415000	18508.905000	15090.975000	-7252.020000	2047.185000	-0.174041	-2.348213	-1.530125	0.930159	0.018257	2.394148	2.498777	3.080644	-2.639980	-1.144500	1.617560	-0.729063	-0.204528	0.648375	-1.000000	-1.000000	-1.000000	-1.000000	-1.000000	-1.000000	-1.000000	53.000000	0.000000	-1.000000	-1.000000	145332.000000	1775800098.917500
-15291.495000	-14041.620000	7282.035000	45713.475000	18495.270000	15082.920000	-7252.695000	2046.150000	-0.770385	-1.544063	-0.871033	1.155567	-1.188570	2.098735	0.615480	1.631377	-2.639980	-1.144500	1.617560	-0.729063	-0.204528	0.648375	-1.000000	-1.000000	-1.000000	-1.000000	-1.000000	-1.000000	-1.000000	53.000000	0.000000	-1.000000	-1.000000	145333.000000	1775800098.917524
-15299.460000	-14049.270000	7274.385000	45703.125000	18486.990000	15080.670000	-7253.820000	2039.580000	-1.482499	-0.553141	-0.835240	-0.479870	-2.759448	0.566125	-1.014461	-1.033518	-2.639980	-1.144500	1.617560	-0.729063	-0.204528	0.648375	-1.000000	-1.000000	-1.000000	-1.000000	-1.000000	-1.000000	-1.000000	53.000000	0.000000	-1.000000	-1.000000	145334.000000	1775800098.919904
-15293.790000	-14042.205000	7283.520000	45715.770000	18488.520000	15084.450000	-7247.970000	2045.835000	-2.066785	-0.248386	-1.813003	-3.813047	-4.491141	-1.285953	-1.789756	-3.287712	-2.639980	-1.144500	1.617560	-0.729063	-0.204528	0.648375	-1.000000	-1.000000	-1.000000	-1.000000	-1.000000	-1.000000	-1.000000	53.000000	0.000000	-1.000000	-1.000000	145335.000000	1775800098.919923
-15292.260000	-14041.260000	7283.025000	45717.120000	18482.985000	15072.075000	-7251.930000	2048.085000	-1.860508	-0.099948	-2.053399	-5.326470	-4.999265	-2.264965	-1.610895	-3.708066	-2.639980	-1.144500	1.617560	-0.729063	-0.204528	0.648375	-1.000000	-1.000000	-1.000000	-1.000000	-1.000000	-1.000000	-1.000000	53.000000	0.000000	-1.000000	-1.000000	145336.000000	1775800098.930614
-15304.410000	-14052.465000	7273.800000	45709.065000	18478.935000	15067.440000	-7261.605000	2034.855000	-0.654790	0.505004	-0.474745	-2.848993	-3.328584	-2.253723	-1.123003	-2.182578	-2.639980	-1.144500	1.617560	-0.729063	-0.204528	0.648375	-1.000000	-1.000000	-1.000000	-1.000000	-1.000000	-1.000000	-1.000000	53.000000	0.000000	-1.000000	-1.000000	145337.000000	1775800098.930641
-15311.295000	-14058.315000	7269.795000	45706.005000	18486.360000	15079.410000	-7266.240000	2025.855000	0.372331	0.806763	1.550498	1.526601	-0.023460	-1.566495	-1.346982	-0.500867	-2.639980	-1.144500	1.617560	-0.729063	-0.204528	0.648375	-1.000000	-1.000000	-1.000000	-1.000000	-1.000000	-1.000000	-1.000000	53.000000	0.000000	-1.000000	-1.000000	145338.000000	1775800098.930668
-15314.670000	-14062.275000	7265.520000	45703.845000	18499.545000	15097.635000	-7265.115000	2021.670000	0.204652	0.069511	2.325276	4.510700	4.010039	0.551235	-2.176539	-0.235036	-2.639980	-1.144500	1.617560	-0.729063	-0.204528	0.648375	-1.000000	-1.000000	-1.000000	-1.000000	-1.000000	-1.000000	-1.000000	53.000000	0.000000	-1.000000	-1.000000	145339.000000	1775800098.930681
-15307.290000	-14054.715000	7272.855000	45711.495000	18496.980000	15089.220000	-7263.990000	2028.870000	-0.330507	-0.831948	1.926654	5.040763	7.700129	4.192276	-2.239552	-0.637071	-12.803140	3.006220	1.022420	-0.724669	-0.202270	0.644346	-1.000000	-1.000000	-1.000000	-1.000000	-1.000000	-1.000000	-1.000000	53.000000	0.000000	-1.000000	-1.000000	145340.000000	1775800098.933718
-15284.565000	-14031.945000	7292.205000	45722.160000	18507.195000	15090.210000	-7256.385000	2044.125000	0.749482	0.023076	1.972354	4.341497	9.281079	6.777813	-0.518893	0.439872	-12.803140	3.006220	1.022420	-0.724669	-0.202270	0.644346	-1.000000	-1.000000	-1.000000	-1.000000	-1.000000	-1.000000	-1.000000	53.000000	0.000000	-1.000000	-1.000000	145341.000000	1775800098.933734
-15282.180000	-14032.485000	7290.135000	45718.335000	18502.965000	15088.950000	-7248.555000	2049.570000	4.232898	3.371370	3.544619	3.697970	7.502806	5.622024	2.645910	3.857238	-12.803140	3.006220	1.022420	-0.724669	-0.202270	0.644346	-1.000000	-1.000000	-1.000000	-1.000000	-1.000000	-1.000000	-1.000000	53.000000	0.000000	-1.000000	-1.000000	145342.000000	1775800098.935907
-15292.260000	-14043.015000	7283.655000	45717.660000	18487.755000	15072.885000	-7256.700000	2041.515000	7.622478	6.652878	5.041779	2.722072	2.494522	0.871717	5.544233	7.434682	-12.803140	3.006220	1.022420	-0.724669	-0.202270	0.644346	-1.000000	-1.000000	-1.000000	-1.000000	-1.000000	-1.000000	-1.000000	53.000000	0.000000	-1.000000	-1.000000	145343.000000	1775800098.935922
-15282.270000	-14030.955000	7299.810000	45738.675000	18501.615000	15072.750000	-7255.575000	2048.445000	7.185363	6.242794	4.018400	0.868139	-4.114240	-5.162122	5.938617	7.762296	-12.803140	3.006220	1.022420	-0.724669	-0.202270	0.644346	-1.000000	-1.000000	-1.000000	-1.000000	-1.000000	-1.000000	-1.000000	53.000000	0.000000	-1.000000	-1.000000	145344.000000	1775800098.940504
-15294.645000	-14042.295000	7290.450000	45731.835000	18500.895000	15062.355000	-7268.130000	2040.525000	2.329835	1.839173	0.603282	-0.966865	-8.937115	-9.481064	2.959807	3.894815	-12.803140	3.006220	1.022420	-0.724669	-0.202270	0.644346	-1.000000	-1.000000	-1.000000	-1.000000	-1.000000	-1.000000	-1.000000	53.000000	0.000000	-1.000000	-1.000000	145345.000000	1775800098.940520
-15297.480000	-14042.025000	7286.265000	45724.680000	18496.755000	15066.405000	-7271.820000	2035.980000	-4.341254	-3.910184	-3.491062	-2.405362	-9.388609	-9.812127	-2.058299	-2.180337	-12.803140	3.006220	1.022420	-0.724669	-0.202270	0.644346	-1.000000	-1.000000	-1.000000	-1.000000	-1.000000	-1.000000	-1.000000	53.000000	0.000000	-1.000000	-1.000000	145346.000000	1775800098.943933
-15295.680000	-14038.290000	7284.060000	45718.020000	18503.910000	15093.990000	-7263.720000	2035.800000	-9.513598	-8.059226	-6.928752	-4.342662	-6.118229	-5.359881	-6.267150	-7.539164	-12.803140	3.006220	1.022420	-0.724669	-0.202270	0.644346	-1.000000	-1.000000	-1.000000	-1.000000	-1.000000	-1.000000	-1.000000	53.000000	0.000000	-1.000000	-1.000000	145347.000000	1775800098.943950
-15287.175000	-14033.520000	7290.630000	45723.870000	18506.925000	15106.860000	-7249.095000	2046.195000	-10.460424	-8.504191	-8.290033	-6.478318	-1.332053	3.070554	-6.633476	-9.510485	-12.803140	3.006220	1.022420	-0.724669	-0.202270	0.644346	-1.000000	-1.000000	-1.000000	-1.000000	-1.000000	-1.000000	-1.000000	53.000000	0.000000	-1.000000	-1.000000	145348.000000	1775800098.950344
-15288.570000	-14037.840000	7284.780000	45716.130000	18495.270000	15103.305000	-7248.060000	2046.960000	-6.585948	-5.241065	-6.572965	-6.978702	2.767247	11.723166	-2.431074	-6.934224	-12.803140	3.006220	1.022420	-0.724669	-0.202270	0.644346	-1.000000	-1.000000	-1.000000	-1.000000	-1.000000	-1.000000	-1.000000	53.000000	0.000000	-1.000000	-1.000000	145349.000000	1775800098.950371
-15293.205000	-14037.390000	7287.255000	45721.530000	18500.445000	15084.675000	-7257.330000	2041.020000	-0.389924	-0.588334	-2.588951	-4.843144	4.359236	14.636261	3.203310	-1.555613	-10.910900	3.280900	0.198380	-0.716063	-0.212524	0.643736	-1.000000	-1.000000	-1.000000	-1.000000	-1.000000	-1.000000	-1.000000	53.000000	0.000000	-1.000000	-1.000000	145350.000000	1775800098.962812
-15276.735000	-14019.570000	7303.950000	45733.320000	18512.280000	15082.245000	-7252.920000	2048.940000	4.692971	3.203942	1.956959	-0.585743	3.635551	8.716913	5.892740	3.202219	-10.910900	3.280900	0.198380	-0.716063	-0.212524	0.643736	-1.000000	-1.000000	-1.000000	-1.000000	-1.000000	-1.000000	-1.000000	53.000000	0.000000	-1.000000	-1.000000	145351.000000	1775800098.962839
-15279.795000	-14025.465000	7298.640000	45730.215000	18509.220000	15091.920000	-7246.665000	2051.640000	7.146676	5.508501	5.834430	4.397594	2.528686	-2.333570	4.435131	5.385898	-10.910900	3.280900	0.198380	-0.716063	-0.212524	0.643736	-1.000000	-1.000000	-1.000000	-1.000000	-1.000000	-1.000000	-1.000000	53.000000	0.000000	-1.000000	-1.000000	145352.000000	1775800098.962865
-15283.485000	-14028.615000	7294.905000	45726.705000	18500.895000	15077.070000	-7255.035000	2047.590000	6.841136	5.846048	7.539437	7.732911	1.711698	-11.196098	0.955209	5.099456	-10.910900	3.280900	0.198380	-0.716063	-0.212524	0.643736	-1.000000	-1.000000	-1.000000	-1.000000	-1.000000	-1.000000	-1.000000	53.000000	0.000000	-1.000000	-1.000000	145353.000000	1775800098.962874
-15286.590000	-14033.295000	7292.565000	45724.905000	18501.570000	15075.045000	-7253.460000	2047.410000	3.867362	3.527082	5.744922	7.358477	0.282265	-13.728834	-2.349640	2.992717	-10.910900	3.280900	0.198380	-0.716063	-0.212524	0.643736	-1.000000	-1.000000	-1.000000	-1.000000	-1.000000	-1.000000	-1.000000	53.000000	0.000000	-1.000000	-1.000000	145354.000000	1775800098.978684
-15289.470000	-14037.480000	7289.190000	45724.275000	18504.360000	15082.515000	-7255.620000	2046.960000	-0.645077	-0.679810	1.247342	3.632934	-1.694124	-10.384484	-4.352085	0.024334	-10.910900	3.280900	0.198380	-0.716063	-0.212524	0.643736	-1.000000	-1.000000	-1.000000	-1.000000	-1.000000	-1.000000	-1.000000	53.000000	0.000000	-1.000000	-1.000000	145355.000000	1775800098.978711
-15286.410000	-14034.645000	7291.845000	45729.270000	18513.585000	15087.780000	-7257.240000	2046.960000	-4.470596	-4.494889	-3.329425	-0.905516	-2.673424	-3.334787	-4.544709	-2.443613	-10.910900	3.280900	0.198380	-0.716063	-0.212524	0.643736	-1.000000	-1.000000	-1.000000	-1.000000	-1.000000	-1.000000	-1.000000	53.000000	0.000000	-1.000000	-1.000000	145356.000000	1775800098.978740
-15291.405000	-14040.405000	7287.390000	45727.605000	18514.755000	15103.350000	-7251.885000	2044.755000	-5.783885	-5.834743	-5.607220	-3.686664	-1.596477	4.759763	-3.042179	-3.452375	-10.910900	3.280900	0.198380	-0.716063	-0.212524	0.643736	-1.000000	-1.000000	-1.000000	-1.000000	-1.000000	-1.000000	-1.000000	53.000000	0.000000	-1.000000	-1.000000	145357.000000	1775800098.978752
-15291.585000	-14038.470000	7287.210000	45726.480000	18501.480000	15100.920000	-7252.650000	2044.890000	-4.448978	-4.317417	-4.988050	-3.945204	0.445463	10.907050	-0.447971	-2.965061	-10.910900	3.280900	0.198380	-0.716063	-0.212524	0.643736	-1.000000	-1.000000	-1.000000	-1.000000	-1.000000	-1.000000	-1.000000	53.000000	0.000000	-1.000000	-1.000000	145358.000000	1775800098.978766
-15295.005000	-14041.305000	7283.385000	45720.000000	18492.120000	15081.075000	-7261.245000	2041.155000	-1.744056	-1.150381	-2.546372	-2.752121	0.974099	12.091275	2.015776	-1.601815	-10.910900	3.280900	0.198380	-0.716063	-0.212524	0.643736	-1.000000	-1.000000	-1.000000	-1.000000	-1.000000	-1.000000	-1.000000	53.000000	0.000000	-1.000000	-1.000000	145359.000000	1775800098.978777
-15290.505000	-14034.690000	7291.800000	45731.835000	18508.095000	15085.170000	-7257.735000	2043.675000	0.968227	2.130260	0.334115	-1.314469	-0.599368	7.012304	2.966490	-0.095405	0.747740	2.166920	-0.747740	-0.711912	-0.220825	0.647642	-1.000000	-1.000000	-1.000000	-1.000000	-1.000000	-1.000000	-1.000000	53.000000	0.000000	-1.000000	-1.000000	145360.000000	1775800098.978791
-15292.440000	-14037.345000	7287.030000	45722.655000	18496.755000	15079.860000	-7262.010000	2041.200000	2.958224	4.438748	2.785652	0.082622	-2.008241	-1.471906	2.261706	1.116252	0.747740	2.166920	-0.747740	-0.711912	-0.220825	0.647642	-1.000000	-1.000000	-1.000000	-1.000000	-1.000000	-1.000000	-1.000000	53.000000	0.000000	-1.000000	-1.000000	145361.000000	1775800098.978801
-15286.680000	-14033.520000	7291.305000	45723.330000	18494.010000	15085.935000	-7254.765000	2047.545000	3.962101	5.155964	4.152952	1.155762	-1.705155	-8.046621	1.035499	1.941030	0.747740	2.166920	-0.747740	-0.711912	-0.220825	0.647642	-1.000000	-1.000000	-1.000000	-1.000000	-1.000000	-1.000000	-1.000000	53.000000	0.000000	-1.000000	-1.000000	145362.000000	1775800098.978814
-15291.405000	-14037.300000	7286.310000	45715.905000	18490.590000	15074.955000	-7261.650000	2042.145000	3.876527	4.128776	3.948983	1.270237	-0.501012	-9.505249	0.330714	2.362673	0.747740	2.166920	-0.747740	-0.711912	-0.220825	0.647642	-1.000000	-1.000000	-1.000000	-1.000000	-1.000000	-1.000000	-1.000000	53.000000	0.000000	-1.000000	-1.000000	145363.000000	1775800098.978825
-15305.310000	-14050.170000	7275.960000	45707.895000	18483.840000	15067.620000	-7269.795000	2032.650000	2.394934	1.546199	2.085806	0.264143	0.470027	-6.702703	0.007252	1.953071	0.747740	2.166920	-0.747740	-0.711912	-0.220825	0.647642	-1.000000	-1.000000	-1.000000	-1.000000	-1.000000	-1.000000	-1.000000	53.000000	0.000000	-1.000000	-1.000000	145364.000000	1775800098.989773
-15304.050000	-14047.290000	7278.210000	45709.605000	18492.615000	15078.735000	-7271.190000	2028.645000	-0.552619	-1.962328	-0.895148	-1.208538	1.023268	-2.318650	-0.712848	0.234598	0.747740	2.166920	-0.747740	-0.711912	-0.220825	0.647642	-1.000000	-1.000000	-1.000000	-1.000000	-1.000000	-1.000000	-1.000000	53.000000	0.000000	-1.000000	-1.000000	145365.000000	1775800098.989797
-15300.315000	-14044.320000	7282.305000	45715.140000	18507.195000	15095.520000	-7263.765000	2033.820000	-3.469071	-4.654602	-3.321230	-1.746527	2.009603	2.390117	-1.508592	-1.959293	0.747740	2.166920	-0.747740	-0.711912	-0.220825	0.647642	-1.000000	-1.000000	-1.000000	-1.000000	-1.000000	-1.000000	-1.000000	53.000000	0.000000	-1.000000	-1.000000	145366.000000	1775800098.989824
-15303.240000	-14048.820000	7278.255000	45712.215000	18494.055000	15077.385000	-7268.445000	2033.145000	-4.177631	-4.749906	-3.504128	-0.382869	3.797241	6.714659	-1.208252	-2.756843	0.747740	2.166920	-0.747740	-0.711912	-0.220825	0.647642	-1.000000	-1.000000	-1.000000	-1.000000	-1.000000	-1.000000	-1.000000	53.000000	0.000000	-1.000000	-1.000000	145367.000000	1775800098.989835
-15291.855000	-14040.045000	7283.880000	45716.940000	18492.030000	15065.910000	-7268.580000	2042.010000	-2.140784	-2.322573	-1.556770	2.101975	4.591618	8.080768	0.206322	-1.254325	0.747740	2.166920	-0.747740	-0.711912	-0.220825	0.647642	-1.000000	-1.000000	-1.000000	-1.000000	-1.000000	-1.000000	-1.000000	53.000000	0.000000	-1.000000	-1.000000	145368.000000	1775800098.989849
-15301.665000	-14050.800000	7272.765000	45708.570000	18490.320000	15063.210000	-7272.495000	2034.045000	1.226591	0.959395	0.887743	3.871192	2.631647	4.602896	1.485497	1.524788	0.747740	2.166920	-0.747740	-0.711912	-0.220825	0.647642	-1.000000	-1.000000	-1.000000	-1.000000	-1.000000	-1.000000	-1.000000	53.000000	0.000000	-1.000000	-1.000000	145369.000000	1775800098.989859
-15300.945000	-14046.255000	7282.125000	45722.520000	18504.450000	15071.715000	-7269.840000	2033.010000	3.587658	3.124001	2.238086	3.811680	-0.862170	-1.286537	1.737369	3.392173	9.659580	0.152600	-0.640920	-0.718138	-0.220031	0.650206	-1.000000	-1.000000	-1.000000	-1.000000	-1.000000	-1.000000	-1.000000	53.000000	0.000000	-1.000000	-1.000000	145370.000000	1775800098.992608
-15304.140000	-14049.090000	7279.065000	45719.055000	18496.890000	15072.570000	-7272.360000	2033.730000	3.411942	3.248469	2.216307	2.426748	-3.141467	-4.951064	1.131690	2.951620	9.659580	0.152600	-0.640920	-0.718138	-0.220031	0.650206	-1.000000	-1.000000	-1.000000	-1.000000	-1.000000	-1.000000	-1.000000	53.000000	0.000000	-1.000000	-1.000000	145371.000000	1775800098.992625
-15294.915000	-14041.575000	7283.880000	45718.380000	18502.110000	15088.320000	-7261.605000	2043.000000	1.400813	2.050799	1.571867	0.669227	-3.232223	-4.052004	0.463403	1.036563	9.659580	0.152600	-0.640920	-0.718138	-0.220031	0.650206	-1.000000	-1.000000	-1.000000	-1.000000	-1.000000	-1.000000	-1.000000	53.000000	0.000000	-1.000000	-1.000000	145372.000000	1775800098.996919
-15299.370000	-14044.725000	7280.415000	45714.600000	18499.455000	15087.960000	-7261.020000	2040.705000	-0.522166	0.788537	0.835732	-1.239219	-2.148540	0.170679	0.471650	-0.493720	9.659580	0.152600	-0.640920	-0.718138	-0.220031	0.650206	-1.000000	-1.000000	-1.000000	-1.000000	-1.000000	-1.000000	-1.000000	53.000000	0.000000	-1.000000	-1.000000	145373.000000	1775800098.996936
-15301.125000	-14047.920000	7279.110000	45716.355000	18498.285000	15078.150000	-7265.070000	2038.500000	-1.418355	-0.110158	-0.010790	-3.075771	-1.100872	4.102646	0.919738	-1.023518	9.659580	0.152600	-0.640920	-0.718138	-0.220031	0.650206	-1.000000	-1.000000	-1.000000	-1.000000	-1.000000	-1.000000	-1.000000	53.000000	0.000000	-1.000000	-1.000000	145374.000000	1775800099.001420
-15307.470000	-14054.400000	7271.640000	45708.795000	18491.220000	15065.685000	-7273.845000	2032.560000	-1.782063	-1.093235	-1.158887	-4.196956	-0.780685	4.138025	0.523555	-1.373992	9.659580	0.152600	-0.640920	-0.718138	-0.220031	0.650206	-1.000000	-1.000000	-1.000000	-1.000000	-1.000000	-1.000000	-1.000000	53.000000	0.000000	-1.000000	-1.000000	145375.000000	1775800099.001442
-15295.545000	-14042.835000	7280.865000	45716.580000	18498.465000	15070.680000	-7268.040000	2039.940000	-1.957912	-2.127602	-2.295322	-4.075261	-1.079762	-0.059882	-1.270356	-2.029617	9.659580	0.152600	-0.640920	-0.718138	-0.220031	0.650206	-1.000000	-1.000000	-1.000000	-1.000000	-1.000000	-1.000000	-1.000000	53.000000	0.000000	-1.000000	-1.000000	145376.000000	1775800099.006081
-15293.565000	-14043.645000	7281.855000	45718.560000	18498.105000	15076.215000	-7264.710000	2042.955000	-1.294016	-2.164172	-2.382559	-2.432862	-1.032483	-4.811920	-3.043155	-2.203422	9.659580	0.152600	-0.640920	-0.718138	-0.220031	0.650206	-1.000000	-1.000000	-1.000000	-1.000000	-1.000000	-1.000000	-1.000000	53.000000	0.000000	-1.000000	-1.000000	145377.000000	1775800099.006106
-15295.185000	-14043.690000	7286.445000	45728.280000	18502.605000	15079.050000	-7262.145000	2041.425000	0.399229	-0.792605	-0.874762	0.513453	0.063668	-6.068345	-2.991335	-1.174703	9.659580	0.152600	-0.640920	-0.718138	-0.220031	0.650206	-1.000000	-1.000000	-1.000000	-1.000000	-1.000000	-1.000000	-1.000000	53.000000	0.000000	-1.000000	-1.000000	145378.000000	1775800099.009287
-15305.220000	-14051.250000	7280.190000	45723.690000	18491.400000	15067.440000	-7272.270000	2036.070000	1.704568	0.737050	1.224170	3.557653	1.547048	-3.440004	-1.258830	0.305877	9.659580	0.152600	-0.640920	-0.718138	-0.220031	0.650206	-1.000000	-1.000000	-1.000000	-1.000000	-1.000000	-1.000000	-1.000000	53.000000	0.000000	-1.000000	-1.000000	145379.000000	1775800099.009313
-15305.130000	-14049.855000	7276.320000	45717.300000	18488.970000	15065.685000	-7273.755000	2037.825000	1.146160	1.010370	2.141452	4.761957	1.931934	0.107439	0.306196	0.947594	8.286180	0.259420	-0.213640	-0.724546	-0.210876	0.651243	-1.000000	-1.000000	-1.000000	-1.000000	-1.000000	-1.000000	-1.000000	53.000000	0.000000	-1.000000	-1.000000	145380.000000	1775800099.018509
-15293.745000	-14036.625000	7285.500000	45719.910000	18500.850000	15074.415000	-7269.615000	2041.335000	-0.597641	0.348845	1.280780	3.062561	0.957955	2.176307	0.637899	0.649137	8.286180	0.259420	-0.213640	-0.724546	-0.210876	0.651243	-1.000000	-1.000000	-1.000000	-1.000000	-1.000000	-1.000000	-1.000000	53.000000	0.000000	-1.000000	-1.000000	145381.000000	1775800099.018537
-15300.990000	-14046.165000	7273.980000	45703.350000	18508.545000	15079.230000	-7269.570000	2032.605000	-1.454696	0.147871	-0.263675	-0.585163	0.326075	3.036385	0.483367	0.166745	8.286180	0.259420	-0.213640	-0.724546	-0.210876	0.651243	-1.000000	-1.000000	-1.000000	-1.000000	-1.000000	-1.000000	-1.000000	53.000000	0.000000	-1.000000	-1.000000	145382.000000	1775800099.019836
-15319.260000	-14060.700000	7264.035000	45699.840000	18502.290000	15061.365000	-7282.800000	2015.775000	-1.168325	0.217087	-1.673734	-4.328230	1.112919	3.313388	0.517562	-0.565155	8.286180	0.259420	-0.213640	-0.724546	-0.210876	0.651243	-1.000000	-1.000000	-1.000000	-1.000000	-1.000000	-1.000000	-1.000000	53.000000	0.000000	-1.000000	-1.000000	145383.000000	1775800099.019861
-15315.705000	-14053.590000	7272.630000	45708.930000	18485.505000	15043.095000	-7286.715000	2015.955000	-1.295217	-0.712789	-2.788595	-6.205406	1.683282	1.889915	0.171303	-2.025747	8.286180	0.259420	-0.213640	-0.724546	-0.210876	0.651243	-1.000000	-1.000000	-1.000000	-1.000000	-1.000000	-1.000000	-1.000000	53.000000	0.000000	-1.000000	-1.000000	145384.000000	1775800099.022507
-15313.680000	-14054.895000	7271.325000	45705.915000	18460.935000	15039.045000	-7284.285000	2023.740000	-1.836801	-2.028293	-2.677974	-4.611848	-0.465654	-1.867619	-0.728287	-3.065667	8.286180	0.259420	-0.213640	-0.724546	-0.210876	0.651243	-1.000000	-1.000000	-1.000000	-1.000000	-1.000000	-1.000000	-1.000000	53.000000	0.000000	-1.000000	-1.000000	145385.000000	1775800099.022527
-15310.665000	-14053.815000	7270.470000	45705.555000	18468.360000	15046.650000	-7281.945000	2025.720000	-1.136473	-1.989518	-0.747383	-0.190572	-5.031019	-5.436398	-1.001942	-1.671724	8.286180	0.259420	-0.213640	-0.724546	-0.210876	0.651243	-1.000000	-1.000000	-1.000000	-1.000000	-1.000000	-1.000000	-1.000000	53.000000	0.000000	-1.000000	-1.000000	145386.000000	1775800099.044752
-15292.215000	-14035.995000	7284.510000	45714.690000	18493.650000	15059.925000	-7274.880000	2032.785000	1.571340	-0.004801	2.129626	4.431144	-7.545793	-4.993607	0.344597	2.167229	8.286180	0.259420	-0.213640	-0.724546	-0.210876	0.651243	-1.000000	-1.000000	-1.000000	-1.000000	-1.000000	-1.000000	-1.000000	53.000000	0.000000	-1.000000	-1.000000	145387.000000	1775800099.044782
-15300.450000	-14049.720000	7273.620000	45712.305000	18510.930000	15079.590000	-7267.770000	2034.405000	5.181402	3.002123	4.546402	7.114741	-3.461466	0.619502	2.903223	6.156767	8.286180	0.259420	-0.213640	-0.724546	-0.210876	0.651243	-1.000000	-1.000000	-1.000000	-1.000000	-1.000000	-1.000000	-1.000000	53.000000	0.000000	-1.000000	-1.000000	145388.000000	1775800099.044809
-15310.395000	-14062.005000	7263.585000	45702.090000	18495.810000	15079.905000	-7272.720000	2029.725000	6.860396	4.487447	4.795554	6.758343	5.577301	8.367813	5.044887	7.645261	8.286180	0.259420	-0.213640	-0.724546	-0.210876	0.651243	-1.000000	-1.000000	-1.000000	-1.000000	-1.000000	-1.000000	-1.000000	53.000000	0.000000	-1.000000	-1.000000	145389.000000	1775800099.044821
-15310.440000	-14062.320000	7263.495000	45699.210000	18488.295000	15066.945000	-7275.825000	2028.645000	4.333595	2.385827	1.958404	3.188396	12.028171	12.615704	4.818610	5.373850	-3.204600	1.083460	-0.198380	-0.728025	-0.204223	0.649718	-1.000000	-1.000000	-1.000000	-1.000000	-1.000000	-1.000000	-1.000000	53.000000	0.000000	-1.000000	-1.000000	145390.000000	1775800099.044833
-15302.205000	-14049.495000	7275.555000	45706.455000	18483.930000	15053.445000	-7278.120000	2031.210000	-0.946264	-1.610527	-2.013542	-1.771496	10.315972	9.161597	1.646950	0.494803	-3.204600	1.083460	-0.198380	-0.728025	-0.204223	0.649718	-1.000000	-1.000000	-1.000000	-1.000000	-1.000000	-1.000000	-1.000000	53.000000	0.000000	-1.000000	-1.000000	145391.000000	1775800099.044844
-15287.940000	-14033.430000	7284.555000	45716.220000	18494.505000	15058.260000	-7270.695000	2042.955000	-4.775620	-3.348436	-3.617213	-4.801772	2.334014	-0.639577	-2.665103	-3.965950	-3.204600	1.083460	-0.198380	-0.728025	-0.204223	0.649718	-1.000000	-1.000000	-1.000000	-1.000000	-1.000000	-1.000000	-1.000000	53.000000	0.000000	-1.000000	-1.000000	145392.000000	1775800099.044883
-15297.030000	-14043.015000	7276.770000	45712.890000	18498.600000	15076.170000	-7269.165000	2037.780000	-4.666367	-1.148543	-1.794109	-4.113517	-5.412267	-10.040472	-5.296938	-5.542835	-3.204600	1.083460	-0.198380	-0.728025	-0.204223	0.649718	-1.000000	-1.000000	-1.000000	-1.000000	-1.000000	-1.000000	-1.000000	53.000000	0.000000	-1.000000	-1.000000	145393.000000	1775800099.044894
-15309.675000	-14057.190000	7267.725000	45708.345000	18493.380000	15077.160000	-7273.755000	2028.420000	-2.426400	1.923844	0.773224	-1.313760	-8.362947	-12.589516	-5.030302	-4.616369	-3.204600	1.083460	-0.198380	-0.728025	-0.204223	0.649718	-1.000000	-1.000000	-1.000000	-1.000000	-1.000000	-1.000000	-1.000000	53.000000	0.000000	-1.000000	-1.000000	145394.000000	1775800099.044906
-15297.345000	-14044.905000	7279.965000	45718.335000	18501.570000	15075.945000	-7272.540000	2033.505000	-1.182997	2.106948	1.275637	0.824812	-6.679746	-7.906381	-3.003442	-3.278151	-3.204600	1.083460	-0.198380	-0.728025	-0.204223	0.649718	-1.000000	-1.000000	-1.000000	-1.000000	-1.000000	-1.000000	-1.000000	53.000000	0.000000	-1.000000	-1.000000	145395.000000	1775800099.044917
-15301.890000	-14052.870000	7269.885000	45708.525000	18500.265000	15074.910000	-7272.270000	2033.685000	-1.211684	-0.340698	-0.028292	1.259977	-2.882248	-0.886446	-0.862340	-2.289752	-3.204600	1.083460	-0.198380	-0.728025	-0.204223	0.649718	-1.000000	-1.000000	-1.000000	-1.000000	-1.000000	-1.000000	-1.000000	53.000000	0.000000	-1.000000	-1.000000	145396.000000	1775800099.044930
-15314.670000	-14064.165000	7258.905000	45695.565000	18484.785000	15064.020000	-7281.945000	2023.515000	-1.295988	-2.981010	-1.730154	0.079033	0.365669	3.522284	0.485171	-1.226490	-3.204600	1.083460	-0.198380	-0.728025	-0.204223	0.649718	-1.000000	-1.000000	-1.000000	-1.000000	-1.000000	-1.000000	-1.000000	53.000000	0.000000	-1.000000	-1.000000	145397.000000	1775800099.044940
-15307.650000	-14052.960000	7268.265000	45700.245000	18490.770000	15056.955000	-7284.420000	2021.670000	-1.219268	-4.328474	-3.079518	-2.228561	1.241487	3.462852	0.632878	-0.277219	-3.204600	1.083460	-0.198380	-0.728025	-0.204223	0.649718	-1.000000	-1.000000	-1.000000	-1.000000	-1.000000	-1.000000	-1.000000	53.000000	0.000000	-1.000000	-1.000000	145398.000000	1775800099.058477
-15302.430000	-14044.680000	7272.585000	45697.095000	18484.965000	15054.525000	-7282.305000	2021.490000	-0.600000	-3.286032	-2.905481	-3.922857	0.213812	0.370711	0.003716	0.293174	-3.204600	1.083460	-0.198380	-0.728025	-0.204223	0.649718	-1.000000	-1.000000	-1.000000	-1.000000	-1.000000	-1.000000	-1.000000	53.000000	0.000000	-1.000000	-1.000000	145399.000000	1775800099.058506
-15297.930000	-14038.425000	7282.710000	45712.620000	18501.345000	15077.295000	-7268.985000	2029.230000	1.284540	0.443762	-0.306244	-3.027882	-0.492738	-2.113370	0.058664	1.068059	-11.765460	2.929920	1.632820	-0.722838	-0.204589	0.645994	-1.000000	-1.000000	-1.000000	-1.000000	-1.000000	-1.000000	-1.000000	53.000000	0.000000	-1.000000	-1.000000	145400.000000	1775800099.058533
-15296.130000	-14034.420000	7289.415000	45723.510000	18514.710000	15080.805000	-7266.915000	2033.460000	3.823174	4.944606	3.708613	0.865421	0.970569	-0.826306	1.846558	2.666457	-11.765460	2.929920	1.632820	-0.722838	-0.204589	0.645994	-1.000000	-1.000000	-1.000000	-1.000000	-1.000000	-1.000000	-1.000000	53.000000	0.000000	-1.000000	-1.000000	145401.000000	1775800099.058545
-15293.745000	-14034.915000	7288.515000	45723.510000	18507.375000	15071.355000	-7266.465000	2038.455000	5.311680	7.291556	6.694323	5.898157	4.174422	3.393926	4.345037	4.639402	-11.765460	2.929920	1.632820	-0.722838	-0.204589	0.645994	-1.000000	-1.000000	-1.000000	-1.000000	-1.000000	-1.000000	-1.000000	53.000000	0.000000	-1.000000	-1.000000	145402.000000	1775800099.058560
-15304.320000	-14046.390000	7277.760000	45714.105000	18497.385000	15065.190000	-7273.440000	2031.795000	4.408515	5.678866	6.270805	8.465671	5.923723	6.110434	5.109643	5.483992	-11.765460	2.929920	1.632820	-0.722838	-0.204589	0.645994	-1.000000	-1.000000	-1.000000	-1.000000	-1.000000	-1.000000	-1.000000	53.000000	0.000000	-1.000000	-1.000000	145403.000000	1775800099.058571
-15315.120000	-14058.180000	7265.205000	45702.855000	18489.960000	15061.545000	-7282.530000	2022.885000	0.839547	0.344534	1.678664	5.846672	3.409360	4.362438	2.630428	3.706347	-11.765460	2.929920	1.632820	-0.722838	-0.204589	0.645994	-1.000000	-1.000000	-1.000000	-1.000000	-1.000000	-1.000000	-1.000000	53.000000	0.000000	-1.000000	-1.000000	145404.000000	1775800099.078780
-15316.335000	-14060.520000	7261.920000	45697.680000	18490.005000	15059.835000	-7285.950000	2021.040000	-4.067477	-6.235003	-5.105121	-1.067739	-2.284547	-0.464953	-2.193902	-0.613090	-11.765460	2.929920	1.632820	-0.722838	-0.204589	0.645994	-1.000000	-1.000000	-1.000000	-1.000000	-1.000000	-1.000000	-1.000000	53.000000	0.000000	-1.000000	-1.000000	145405.000000	1775800099.078807
-15313.770000	-14055.075000	7268.850000	45704.880000	18495.810000	15054.120000	-7289.415000	2020.815000	-7.421064	-10.154446	-9.939685	-7.918553	-7.009154	-4.854497	-6.550783	-5.170790	-11.765460	2.929920	1.632820	-0.722838	-0.204589	0.645994	-1.000000	-1.000000	-1.000000	-1.000000	-1.000000	-1.000000	-1.000000	53.000000	0.000000	-1.000000	-1.000000	145406.000000	1775800099.078835
-15306.705000	-14045.715000	7279.785000	45713.655000	18500.445000	15065.280000	-7284.015000	2024.010000	-6.705317	-8.525832	-9.219709	-9.975313	-7.304048	-6.171203	-7.683334	-7.081895	-11.765460	2.929920	1.632820	-0.722838	-0.204589	0.645994	-1.000000	-1.000000	-1.000000	-1.000000	-1.000000	-1.000000	-1.000000	53.000000	0.000000	-1.000000	-1.000000	145407.000000	1775800099.078846
-15307.020000	-14050.215000	7272.180000	45705.060000	18496.710000	15067.260000	-7282.125000	2023.605000	-2.060414	-2.037343	-3.096190	-6.093036	-3.258901	-3.722381	-4.742914	-5.269270	-11.765460	2.929920	1.632820	-0.722838	-0.204589	0.645994	-1.000000	-1.000000	-1.000000	-1.000000	-1.000000	-1.000000	-1.000000	53.000000	0.000000	-1.000000	-1.000000	145408.000000	1775800099.078858
-15295.590000	-14041.080000	7277.445000	45705.510000	18493.650000	15063.570000	-7277.805000	2031.615000	3.821224	5.327089	4.280157	0.327182	1.869057	0.876773	0.710418	-0.990872	-11.765460	2.929920	1.632820	-0.722838	-0.204589	0.645994	-1.000000	-1.000000	-1.000000	-1.000000	-1.000000	-1.000000	-1.000000	53.000000	0.000000	-1.000000	-1.000000	145409.000000	1775800099.078869
-15304.770000	-14050.395000	7268.985000	45698.400000	18487.035000	15052.725000	-7281.855000	2025.810000	7.740803	9.467722	8.411867	4.847908	4.655554	4.305481	5.666700	3.349429	-10.239460	3.509800	0.640920	-0.716673	-0.214050	0.643858	-1.000000	-1.000000	-1.000000	-1.000000	-1.000000	-1.000000	-1.000000	53.000000	0.000000	-1.000000	-1.000000	145410.000000	1775800099.078880
-15300.945000	-14046.885000	7273.710000	45705.510000	18490.095000	15054.525000	-7281.180000	2029.590000	7.698646	8.684429	7.736809	5.696267	4.108531	4.254879	7.533282	5.557794	-10.239460	3.509800	0.640920	-0.716673	-0.214050	0.643858	-1.000000	-1.000000	-1.000000	-1.000000	-1.000000	-1.000000	-1.000000	53.000000	0.000000	-1.000000	-1.000000	145411.000000	1775800099.078890
-15288.300000	-14036.580000	7284.735000	45719.955000	18509.895000	15075.045000	-7269.390000	2038.995000	4.235919	4.375213	4.055514	4.344716	2.153986	1.926765	5.976652	5.055970	-10.239460	3.509800	0.640920	-0.716673	-0.214050	0.643858	-1.000000	-1.000000	-1.000000	-1.000000	-1.000000	-1.000000	-1.000000	53.000000	0.000000	-1.000000	-1.000000	145412.000000	1775800099.078900
-15294.870000	-14044.230000	7280.280000	45720.855000	18514.755000	15082.335000	-7271.010000	2035.080000	-0.004615	-0.333785	0.459356	3.217664	1.584030	0.683626	2.860682	3.007759	-10.239460	3.509800	0.640920	-0.716673	-0.214050	0.643858	-1.000000	-1.000000	-1.000000	-1.000000	-1.000000	-1.000000	-1.000000	53.000000	0.000000	-1.000000	-1.000000	145413.000000	1775800099.078908
-15302.025000	-14048.910000	7277.940000	45719.100000	18514.170000	15075.405000	-7279.380000	2029.635000	-3.303403	-3.632455	-1.706807	2.719382	2.706502	1.586602	-0.248380	0.420235	-10.239460	3.509800	0.640920	-0.716673	-0.214050	0.643858	-1.000000	-1.000000	-1.000000	-1.000000	-1.000000	-1.000000	-1.000000	53.000000	0.000000	-1.000000	-1.000000	145414.000000	1775800099.086861
-15292.305000	-14036.715000	7286.085000	45720.945000	18512.730000	15077.835000	-7274.565000	2034.315000	-5.449257	-5.276319	-2.842617	1.481943	3.113314	2.250361	-3.070718	-2.315355	-10.239460	3.509800	0.640920	-0.716673	-0.214050	0.643858	-1.000000	-1.000000	-1.000000	-1.000000	-1.000000	-1.000000	-1.000000	53.000000	0.000000	-1.000000	-1.000000	145415.000000	1775800099.086895
-15299.865000	-14044.275000	7278.840000	45714.780000	18498.780000	15063.345000	-7277.490000	2031.120000	-5.970171	-4.974691	-3.202990	-1.118366	0.773330	0.428507	-5.075838	-4.302278	-10.239460	3.509800	0.640920	-0.716673	-0.214050	0.643858	-1.000000	-1.000000	-1.000000	-1.000000	-1.000000	-1.000000	-1.000000	53.000000	0.000000	-1.000000	-1.000000	145416.000000	1775800099.086920
-15296.265000	-14040.855000	7275.510000	45701.685000	18491.310000	15060.825000	-7279.605000	2032.605000	-4.615398	-3.058127	-3.045238	-4.449833	-4.014051	-3.586066	-5.443105	-4.620005	-10.239460	3.509800	0.640920	-0.716673	-0.214050	0.643858	-1.000000	-1.000000	-1.000000	-1.000000	-1.000000	-1.000000	-1.000000	53.000000	0.000000	-1.000000	-1.000000	145417.000000	1775800099.086931
-15294.600000	-14040.045000	7276.905000	45703.665000	18495.585000	15067.485000	-7270.920000	2037.285000	-2.046729	-0.734428	-2.780868	-7.275782	-8.596487	-7.231665	-4.012101	-3.194983	-10.239460	3.509800	0.640920	-0.716673	-0.214050	0.643858	-1.000000	-1.000000	-1.000000	-1.000000	-1.000000	-1.000000	-1.000000	53.000000	0.000000	-1.000000	-1.000000	145418.000000	1775800099.096556
-15305.265000	-14051.520000	7269.480000	45701.145000	18489.690000	15061.860000	-7280.055000	2029.320000	0.620033	0.889535	-2.306588	-7.879156	-9.667786	-7.606834	-1.333259	-0.790481	-10.239460	3.509800	0.640920	-0.716673	-0.214050	0.643858	-1.000000	-1.000000	-1.000000	-1.000000	-1.000000	-1.000000	-1.000000	53.000000	0.000000	-1.000000	-1.000000	145419.000000	1775800099.096584
-15307.065000	-14051.520000	7269.435000	45703.710000	18489.600000	15062.985000	-7283.745000	2024.325000	2.080399	1.092289	-1.436066	-5.198045	-6.236844	-4.271755	1.178254	1.114333	1.022420	2.945180	-0.274680	-0.716124	-0.221862	0.644530	-1.000000	-1.000000	-1.000000	-1.000000	-1.000000	-1.000000	-1.000000	53.000000	0.000000	-1.000000	-1.000000	145420.000000	1775800099.096612
-15293.520000	-14037.030000	7282.980000	45716.580000	18498.645000	15070.590000	-7280.415000	2032.335000	2.183001	0.480672	0.039496	0.099154	-0.109555	0.780193	2.228479	1.610849	1.022420	2.945180	-0.274680	-0.716124	-0.221862	0.644530	-1.000000	-1.000000	-1.000000	-1.000000	-1.000000	-1.000000	-1.000000	53.000000	0.000000	-1.000000	-1.000000	145421.000000	1775800099.096624
-15292.665000	-14036.580000	7282.440000	45712.215000	18506.205000	15072.930000	-7282.260000	2033.010000	2.364185	0.830643	2.424114	5.940559	6.207470	5.359690	2.065591	1.483305	1.022420	2.945180	-0.274680	-0.716124	-0.221862	0.644530	-1.000000	-1.000000	-1.000000	-1.000000	-1.000000	-1.000000	-1.000000	53.000000	0.000000	-1.000000	-1.000000	145422.000000	1775800099.099047
-15310.800000	-14054.895000	7268.985000	45705.780000	18500.040000	15066.720000	-7287.525000	2022.615000	2.922387	2.117363	4.616789	9.358185	10.357678	7.720976	1.541176	1.536236	1.022420	2.945180	-0.274680	-0.716124	-0.221862	0.644530	-1.000000	-1.000000	-1.000000	-1.000000	-1.000000	-1.000000	-1.000000	53.000000	0.000000	-1.000000	-1.000000	145423.000000	1775800099.099075
-15300.090000	-14046.570000	7278.075000	45715.905000	18504.630000	15068.070000	-7283.295000	2029.815000	2.352633	2.228145	4.565836	8.405233	10.419882	6.756169	0.982586	1.359316	1.022420	2.945180	-0.274680	-0.716124	-0.221862	0.644530	-1.000000	-1.000000	-1.000000	-1.000000	-1.000000	-1.000000	-1.000000	53.000000	0.000000	-1.000000	-1.000000	145424.000000	1775800099.117539
-15302.970000	-14049.945000	7274.160000	45710.010000	18497.160000	15043.275000	-7294.095000	2029.320000	0.491306	0.608630	2.209844	4.181565	6.303892	2.666951	0.463812	0.817127	1.022420	2.945180	-0.274680	-0.716124	-0.221862	0.644530	-1.000000	-1.000000	-1.000000	-1.000000	-1.000000	-1.000000	-1.000000	53.000000	0.000000	-1.000000	-1.000000	145425.000000	1775800099.117566
-15308.775000	-14049.675000	7273.530000	45707.670000	18493.875000	15047.595000	-7291.395000	2025.630000	-1.227553	-1.123807	-0.618076	-0.743235	-0.022290	-2.986373	-0.072544	0.377952	1.022420	2.945180	-0.274680	-0.716124	-0.221862	0.644530	-1.000000	-1.000000	-1.000000	-1.000000	-1.000000	-1.000000	-1.000000	53.000000	0.000000	-1.000000	-1.000000	145426.000000	1775800099.117592
-15301.170000	-14039.505000	7279.110000	45709.875000	18498.600000	15073.110000	-7277.220000	2030.535000	-1.973427	-1.538783	-2.393584	-4.489405	-5.692680	-6.780264	-0.227193	0.112773	1.022420	2.945180	-0.274680	-0.716124	-0.221862	0.644530	-1.000000	-1.000000	-1.000000	-1.000000	-1.000000	-1.000000	-1.000000	53.000000	0.000000	-1.000000	-1.000000	145427.000000	1775800099.117600
-15301.080000	-14038.515000	7285.320000	45719.280000	18510.255000	15072.435000	-7279.065000	2030.355000	-1.516003	-0.284087	-2.373413	-5.771965	-7.950853	-5.197949	0.814376	-0.005698	1.022420	2.945180	-0.274680	-0.716124	-0.221862	0.644530	-1.000000	-1.000000	-1.000000	-1.000000	-1.000000	-1.000000	-1.000000	53.000000	0.000000	-1.000000	-1.000000	145428.000000	1775800099.117611
-15311.835000	-14052.555000	7273.530000	45710.415000	18504.540000	15062.400000	-7288.830000	2021.985000	-0.302502	1.427638	-0.983329	-4.316913	-5.894070	0.538412	2.293398	-0.088666	1.022420	2.945180	-0.274680	-0.716124	-0.221862	0.644530	-1.000000	-1.000000	-1.000000	-1.000000	-1.000000	-1.000000	-1.000000	53.000000	0.000000	-1.000000	-1.000000	145429.000000	1775800099.117619
-15310.665000	-14050.575000	7272.720000	45708.435000	18499.905000	15054.750000	-7293.195000	2020.365000	0.360124	1.510149	0.040398	-1.728453	-1.758330	4.904375	2.044245	-0.634582	9.857960	0.930860	-0.412020	-0.722288	-0.221740	0.646300	-1.000000	-1.000000	-1.000000	-1.000000	-1.000000	-1.000000	-1.000000	53.000000	0.000000	-1.000000	-1.000000	145430.000000	1775800099.117658
-15299.100000	-14039.505000	7283.205000	45713.880000	18494.370000	15037.065000	-7293.555000	2028.420000	0.208719	-0.108878	-0.163144	0.103996	1.074022	4.080731	-0.462796	-1.445424	9.857960	0.930860	-0.412020	-0.722288	-0.221740	0.646300	-1.000000	-1.000000	-1.000000	-1.000000	-1.000000	-1.000000	-1.000000	53.000000	0.000000	-1.000000	-1.000000	145431.000000	1775800099.117669
-15284.655000	-14029.200000	7294.410000	45725.535000	18493.560000	15042.735000	-7279.155000	2045.880000	0.727723	-1.059848	-0.235010	1.164886	1.264509	-0.813207	-3.013134	-1.056984	9.857960	0.930860	-0.412020	-0.722288	-0.221740	0.646300	-1.000000	-1.000000	-1.000000	-1.000000	-1.000000	-1.000000	-1.000000	53.000000	0.000000	-1.000000	-1.000000	145432.000000	1775800099.117680
-15294.915000	-14045.130000	7279.380000	45712.395000	18503.280000	15063.300000	-7274.115000	2040.615000	2.492994	-0.188262	0.789013	2.126296	0.206078	-4.891697	-2.937830	1.273334	9.857960	0.930860	-0.412020	-0.722288	-0.221740	0.646300	-1.000000	-1.000000	-1.000000	-1.000000	-1.000000	-1.000000	-1.000000	53.000000	0.000000	-1.000000	-1.000000	145433.000000	1775800099.117689
-15300.990000	-14055.300000	7271.145000	45705.105000	18514.620000	15072.255000	-7276.995000	2034.585000	3.403550	0.471651	1.279070	2.157540	0.277712	-3.708830	-0.189517	3.570265	9.857960	0.930860	-0.412020	-0.722288	-0.221740	0.646300	-1.000000	-1.000000	-1.000000	-1.000000	-1.000000	-1.000000	-1.000000	53.000000	0.000000	-1.000000	-1.000000	145434.000000	1775800099.121566
-15300.405000	-14051.070000	7273.035000	45701.190000	18496.395000	15054.660000	-7286.580000	2031.885000	1.426912	-0.962078	-0.344464	0.250256	1.955742	1.768572	2.349463	3.066202	9.857960	0.930860	-0.412020	-0.722288	-0.221740	0.646300	-1.000000	-1.000000	-1.000000	-1.000000	-1.000000	-1.000000	-1.000000	53.000000	0.000000	-1.000000	-1.000000	145435.000000	1775800099.121589
-15300.990000	-14047.425000	7271.865000	45703.575000	18498.060000	15067.800000	-7282.935000	2031.975000	-2.364121	-3.027639	-2.772133	-2.432568	2.949277	6.132145	2.129909	-0.302002	9.857960	0.930860	-0.412020	-0.722288	-0.221740	0.646300	-1.000000	-1.000000	-1.000000	-1.000000	-1.000000	-1.000000	-1.000000	53.000000	0.000000	-1.000000	-1.000000	145436.000000	1775800099.125410
-15303.870000	-14051.025000	7268.085000	45702.630000	18501.480000	15078.375000	-7281.540000	2028.870000	-5.196349	-3.166236	-3.666480	-3.550837	1.667330	6.281698	-0.283361	-4.003291	9.857960	0.930860	-0.412020	-0.722288	-0.221740	0.646300	-1.000000	-1.000000	-1.000000	-1.000000	-1.000000	-1.000000	-1.000000	53.000000	0.000000	-1.000000	-1.000000	145437.000000	1775800099.125441
-15299.370000	-14044.770000	7275.960000	45708.975000	18504.360000	15078.915000	-7282.035000	2031.030000	-5.386224	-1.000927	-2.251375	-2.032678	-0.505869	3.626160	-2.430302	-5.608424	9.857960	0.930860	-0.412020	-0.722288	-0.221740	0.646300	-1.000000	-1.000000	-1.000000	-1.000000	-1.000000	-1.000000	-1.000000	53.000000	0.000000	-1.000000	-1.000000	145438.000000	1775800099.129020
-15290.190000	-14032.755000	7287.345000	45720.000000	18514.170000	15084.585000	-7278.120000	2041.335000	-2.851276	2.225185	0.967019	1.434724	-1.428822	0.338152	-2.753705	-4.188890	9.857960	0.930860	-0.412020	-0.722288	-0.221740	0.646300	-1.000000	-1.000000	-1.000000	-1.000000	-1.000000	-1.000000	-1.000000	53.000000	0.000000	-1.000000	-1.000000	145439.000000	1775800099.129049
-15292.755000	-14033.205000	7289.055000	45724.545000	18515.070000	15076.755000	-7282.215000	2039.130000	1.215756	5.127867	4.766997	5.208465	-0.488853	-2.688530	-1.446380	-0.424806	7.874160	0.137340	-1.342880	-0.726561	-0.214111	0.646910	-1.000000	-1.000000	-1.000000	-1.000000	-1.000000	-1.000000	-1.000000	53.000000	0.000000	-1.000000	-1.000000	145440.000000	1775800099.140426
-15301.080000	-14041.665000	7281.045000	45716.355000	18513.360000	15073.110000	-7288.470000	2027.025000	4.382731	5.995396	6.907777	7.062681	1.091603	-5.294333	0.132957	3.248671	7.874160	0.137340	-1.342880	-0.726561	-0.214111	0.646910	-1.000000	-1.000000	-1.000000	-1.000000	-1.000000	-1.000000	-1.000000	53.000000	0.000000	-1.000000	-1.000000	145441.000000	1775800099.140474
-15292.215000	-14033.160000	7289.235000	45724.320000	18525.420000	15078.015000	-7285.095000	2030.130000	4.653395	3.710286	5.538959	5.358639	1.716371	-7.007193	0.761781	4.195336	7.874160	0.137340	-1.342880	-0.726561	-0.214111	0.646910	-1.000000	-1.000000	-1.000000	-1.000000	-1.000000	-1.000000	-1.000000	53.000000	0.000000	-1.000000	-1.000000	145442.000000	1775800099.141783
-15295.320000	-14039.190000	7281.720000	45716.850000	18517.995000	15068.565000	-7286.175000	2028.870000	2.542020	-0.527005	1.321751	0.813846	1.045707	-6.852902	0.579983	2.338173	7.874160	0.137340	-1.342880	-0.726561	-0.214111	0.646910	-1.000000	-1.000000	-1.000000	-1.000000	-1.000000	-1.000000	-1.000000	53.000000	0.000000	-1.000000	-1.000000	145443.000000	1775800099.141809
-15285.780000	-14032.440000	7287.435000	45719.010000	18515.250000	15068.430000	-7278.255000	2040.660000	0.143646	-4.194686	-3.268697	-4.113726	-0.596450	-4.701971	0.586559	0.059022	7.874160	0.137340	-1.342880	-0.726561	-0.214111	0.646910	-1.000000	-1.000000	-1.000000	-1.000000	-1.000000	-1.000000	-1.000000	53.000000	0.000000	-1.000000	-1.000000	145444.000000	1775800099.141832
-15286.725000	-14034.195000	7286.625000	45720.090000	18514.710000	15063.120000	-7280.820000	2042.055000	-1.049401	-5.563607	-5.970442	-7.109423	-2.767196	-1.549139	1.277763	-0.480018	7.874160	0.137340	-1.342880	-0.726561	-0.214111	0.646910	-1.000000	-1.000000	-1.000000	-1.000000	-1.000000	-1.000000	-1.000000	53.000000	0.000000	-1.000000	-1.000000	145445.000000	1775800099.141843
-15288.480000	-14034.645000	7282.800000	45710.910000	18506.475000	15068.790000	-7286.265000	2039.355000	-1.061129	-4.519037	-5.944165	-7.175006	-4.494281	1.629324	1.954084	0.628690	7.874160	0.137340	-1.342880	-0.726561	-0.214111	0.646910	-1.000000	-1.000000	-1.000000	-1.000000	-1.000000	-1.000000	-1.000000	53.000000	0.000000	-1.000000	-1.000000	145446.000000	1775800099.144115
-15294.690000	-14038.740000	7271.685000	45683.280000	18482.805000	15068.205000	-7295.670000	2022.615000	-1.022003	-2.309353	-4.204823	-5.548364	-5.285076	4.329864	1.326062	1.217591	7.874160	0.137340	-1.342880	-0.726561	-0.214111	0.646910	-1.000000	-1.000000	-1.000000	-1.000000	-1.000000	-1.000000	-1.000000	53.000000	0.000000	-1.000000	-1.000000	145447.000000	1775800099.144137
-15302.790000	-14045.760000	7273.980000	45705.330000	18491.760000	15063.120000	-7288.740000	2023.830000	-1.842074	-0.476200	-2.343944	-3.935665	-5.278952	5.972109	-0.707137	-0.434269	7.874160	0.137340	-1.342880	-0.726561	-0.214111	0.646910	-1.000000	-1.000000	-1.000000	-1.000000	-1.000000	-1.000000	-1.000000	53.000000	0.000000	-1.000000	-1.000000	145448.000000	1775800099.150344
-15298.830000	-14038.155000	7283.790000	45720.405000	18501.930000	15048.405000	-7294.815000	2028.285000	-3.135500	0.387990	-0.548517	-1.230483	-3.406964	5.522303	-2.526036	-3.162387	7.874160	0.137340	-1.342880	-0.726561	-0.214111	0.646910	-1.000000	-1.000000	-1.000000	-1.000000	-1.000000	-1.000000	-1.000000	53.000000	0.000000	-1.000000	-1.000000	145449.000000	1775800099.150373
-15287.715000	-14026.140000	7296.435000	45730.710000	18517.995000	15052.005000	-7290.630000	2035.260000	-3.205183	1.210014	2.184896	4.336298	1.741838	2.682718	-2.652785	-3.996535	-1.403920	0.137340	0.244160	-0.727232	-0.205810	0.646544	-1.000000	-1.000000	-1.000000	-1.000000	-1.000000	-1.000000	-1.000000	53.000000	0.000000	-1.000000	-1.000000	145450.000000	1775800099.159489
-15295.230000	-14034.600000	7287.435000	45718.740000	18505.080000	15058.935000	-7287.390000	2032.695000	-0.914730	2.849482	5.577786	10.439353	8.497040	-0.653689	-1.022747	-1.706220	-1.403920	0.137340	0.244160	-0.727232	-0.205810	0.646544	-1.000000	-1.000000	-1.000000	-1.000000	-1.000000	-1.000000	-1.000000	53.000000	0.000000	-1.000000	-1.000000	145451.000000	1775800099.159517
-15285.060000	-14026.095000	7286.085000	45701.505000	18490.860000	15064.425000	-7289.235000	2033.910000	2.523060	4.300216	7.165441	11.801075	11.935042	-1.780679	1.386149	1.912642	-1.403920	0.137340	0.244160	-0.727232	-0.205810	0.646544	-1.000000	-1.000000	-1.000000	-1.000000	-1.000000	-1.000000	-1.000000	53.000000	0.000000	-1.000000	-1.000000	145452.000000	1775800099.159546
-15293.745000	-14033.655000	7276.455000	45691.155000	18500.895000	15058.710000	-7299.000000	2020.680000	4.820307	4.039664	4.945430	5.859418	8.868242	-0.279929	2.925982	3.984960	-1.403920	0.137340	0.244160	-0.727232	-0.205810	0.646544	-1.000000	-1.000000	-1.000000	-1.000000	-1.000000	-1.000000	-1.000000	53.000000	0.000000	-1.000000	-1.000000	145453.000000	1775800099.159558
-15292.935000	-14035.140000	7285.365000	45720.135000	18517.995000	15074.505000	-7285.185000	2030.850000	4.585726	1.771623	-0.019343	-3.494695	2.097910	1.902902	2.562541	3.169328	-1.403920	0.137340	0.244160	-0.727232	-0.205810	0.646544	-1.000000	-1.000000	-1.000000	-1.000000	-1.000000	-1.000000	-1.000000	53.000000	0.000000	-1.000000	-1.000000	145454.000000	1775800099.160751
-15289.515000	-14031.405000	7287.570000	45720.045000	18517.005000	15077.790000	-7286.895000	2033.415000	2.133921	-1.440531	-4.309896	-8.846678	-2.862393	3.192271	1.225388	0.857863	-1.403920	0.137340	0.244160	-0.727232	-0.205810	0.646544	-1.000000	-1.000000	-1.000000	-1.000000	-1.000000	-1.000000	-1.000000	53.000000	0.000000	-1.000000	-1.000000	145455.000000	1775800099.160771
-15291.135000	-14032.980000	7285.320000	45717.435000	18508.680000	15072.570000	-7286.175000	2033.685000	-0.763430	-3.748495	-5.367974	-7.061730	-4.190616	2.990797	0.285254	-0.647241	-1.403920	0.137340	0.244160	-0.727232	-0.205810	0.646544	-1.000000	-1.000000	-1.000000	-1.000000	-1.000000	-1.000000	-1.000000	53.000000	0.000000	-1.000000	-1.000000	145456.000000	1775800099.165006
-15304.230000	-14049.180000	7270.650000	45705.285000	18497.430000	15066.765000	-7288.920000	2028.735000	-2.788894	-4.313360	-3.841940	-1.928980	-4.260674	0.743138	-0.248576	-0.841083	-1.403920	0.137340	0.244160	-0.727232	-0.205810	0.646544	-1.000000	-1.000000	-1.000000	-1.000000	-1.000000	-1.000000	-1.000000	53.000000	0.000000	-1.000000	-1.000000	145457.000000	1775800099.165038
-15302.025000	-14048.280000	7273.620000	45709.695000	18496.980000	15059.430000	-7291.665000	2027.880000	-3.930994	-3.930516	-2.096652	1.405590	-5.170070	-3.264706	-0.978006	-0.772032	-1.403920	0.137340	0.244160	-0.727232	-0.205810	0.646544	-1.000000	-1.000000	-1.000000	-1.000000	-1.000000	-1.000000	-1.000000	53.000000	0.000000	-1.000000	-1.000000	145458.000000	1775800099.168521
-15299.415000	-14044.410000	7276.095000	45709.065000	18503.730000	15055.605000	-7292.655000	2027.565000	-3.984576	-2.967318	-0.987999	1.595600	-6.021316	-7.200541	-1.968689	-1.092790	-1.403920	0.137340	0.244160	-0.727232	-0.205810	0.646544	-1.000000	-1.000000	-1.000000	-1.000000	-1.000000	-1.000000	-1.000000	53.000000	0.000000	-1.000000	-1.000000	145459.000000	1775800099.168542
-15294.960000	-14037.705000	7283.385000	45717.210000	18514.620000	15052.680000	-7289.775000	2030.985000	-2.251379	-0.671297	0.449268	0.572467	-4.460020	-8.785496	-2.586871	-1.385399	-9.079700	0.793520	0.274680	-0.724058	-0.203063	0.645933	-1.000000	-1.000000	-1.000000	-1.000000	-1.000000	-1.000000	-1.000000	53.000000	0.000000	-1.000000	-1.000000	145460.000000	1775800099.171195
-15300.990000	-14047.470000	7273.395000	45708.255000	18514.395000	15050.070000	-7294.455000	2029.230000	0.834667	2.716851	2.527389	0.186796	0.038524	-6.910796	-2.194569	-1.019823	-9.079700	0.793520	0.274680	-0.724058	-0.203063	0.645933	-1.000000	-1.000000	-1.000000	-1.000000	-1.000000	-1.000000	-1.000000	53.000000	0.000000	-1.000000	-1.000000	145461.000000	1775800099.171216
-15288.615000	-14033.295000	7287.930000	45722.745000	18524.565000	15056.910000	-7289.145000	2038.635000	3.622367	5.396782	4.117181	0.632031	5.169955	-2.219352	-0.897224	0.069051	-9.079700	0.793520	0.274680	-0.724058	-0.203063	0.645933	-1.000000	-1.000000	-1.000000	-1.000000	-1.000000	-1.000000	-1.000000	53.000000	0.000000	-1.000000	-1.000000	145462.000000	1775800099.175789
-15294.555000	-14038.110000	7284.420000	45717.255000	18506.655000	15055.200000	-7287.930000	2035.170000	4.884893	6.085767	4.403782	1.391782	7.703715	3.469616	0.771292	1.437107	-9.079700	0.793520	0.274680	-0.724058	-0.203063	0.645933	-1.000000	-1.000000	-1.000000	-1.000000	-1.000000	-1.000000	-1.000000	53.000000	0.000000	-1.000000	-1.000000	145463.000000	1775800099.175808
-15301.845000	-14044.095000	7277.535000	45707.310000	18484.335000	15045.930000	-7296.435000	2028.735000	4.069462	4.578223	3.238701	1.587176	5.330690	7.657032	2.075343	2.106596	-9.079700	0.793520	0.274680	-0.724058	-0.203063	0.645933	-1.000000	-1.000000	-1.000000	-1.000000	-1.000000	-1.000000	-1.000000	53.000000	0.000000	-1.000000	-1.000000	145464.000000	1775800099.179893
-15287.490000	-14028.570000	7290.450000	45718.245000	18487.485000	15039.450000	-7296.795000	2036.745000	1.434120	1.452413	0.804067	0.447976	-1.366580	8.140438	2.100003	1.310530	-9.079700	0.793520	0.274680	-0.724058	-0.203063	0.645933	-1.000000	-1.000000	-1.000000	-1.000000	-1.000000	-1.000000	-1.000000	53.000000	0.000000	-1.000000	-1.000000	145465.000000	1775800099.179914
-15303.555000	-14045.355000	7276.320000	45711.000000	18498.735000	15048.450000	-7298.820000	2028.195000	-1.471098	-1.742904	-1.833057	-1.250949	-7.587022	5.087310	0.787672	-0.365288	-9.079700	0.793520	0.274680	-0.724058	-0.203063	0.645933	-1.000000	-1.000000	-1.000000	-1.000000	-1.000000	-1.000000	-1.000000	53.000000	0.000000	-1.000000	-1.000000	145466.000000	1775800099.186663
-15313.365000	-14056.965000	7263.360000	45698.895000	18512.010000	15065.280000	-7296.750000	2021.220000	-3.651073	-4.232481	-3.978483	-2.423227	-7.877799	1.554330	-0.703472	-1.973302	-9.079700	0.793520	0.274680	-0.724058	-0.203063	0.645933	-1.000000	-1.000000	-1.000000	-1.000000	-1.000000	-1.000000	-1.000000	53.000000	0.000000	-1.000000	-1.000000	145467.000000	1775800099.186683
-15303.825000	-14048.145000	7267.905000	45695.520000	18502.110000	15051.735000	-7295.130000	2027.970000	-5.005745	-6.059137	-5.632343	-3.175321	-1.868895	0.196977	-1.168745	-3.003452	-9.079700	0.793520	0.274680	-0.724058	-0.203063	0.645933	-1.000000	-1.000000	-1.000000	-1.000000	-1.000000	-1.000000	-1.000000	53.000000	0.000000	-1.000000	-1.000000	145468.000000	1775800099.187265
-15289.695000	-14033.565000	7284.825000	45710.370000	18507.420000	15045.840000	-7292.430000	2035.305000	-4.282381	-5.765137	-5.433381	-3.117982	5.368157	0.042067	-0.331532	-2.546782	-9.079700	0.793520	0.274680	-0.724058	-0.203063	0.645933	-1.000000	-1.000000	-1.000000	-1.000000	-1.000000	-1.000000	-1.000000	53.000000	0.000000	-1.000000	-1.000000	145469.000000	1775800099.187280
-15294.645000	-14036.040000	7286.445000	45718.020000	18509.445000	15039.360000	-7295.715000	2032.470000	-0.587662	-2.013861	-1.785652	-0.843230	8.792309	-1.352615	1.039516	-0.171301	-8.164100	2.075360	0.518840	-0.717527	-0.207885	0.648192	-1.000000	-1.000000	-1.000000	-1.000000	-1.000000	-1.000000	-1.000000	53.000000	0.000000	-1.000000	-1.000000	145470.000000	1775800099.194274
-15304.770000	-14041.980000	7281.810000	45716.805000	18502.785000	15034.770000	-7303.320000	2024.010000	3.735434	3.139166	3.739058	3.412313	7.211222	-4.095090	1.617298	2.506902	-8.164100	2.075360	0.518840	-0.717527	-0.207885	0.648192	-1.000000	-1.000000	-1.000000	-1.000000	-1.000000	-1.000000	-1.000000	53.000000	0.000000	-1.000000	-1.000000	145471.000000	1775800099.194307
-15290.145000	-14026.680000	7289.370000	45718.200000	18519.030000	15056.280000	-7294.455000	2029.050000	5.373549	6.147893	7.305996	6.810512	2.588565	-5.757710	0.794550	3.304659	-8.164100	2.075360	0.518840	-0.717527	-0.207885	0.648192	-1.000000	-1.000000	-1.000000	-1.000000	-1.000000	-1.000000	-1.000000	53.000000	0.000000	-1.000000	-1.000000	145472.000000	1775800099.196166
-15293.340000	-14034.105000	7281.855000	45711.135000	18521.460000	15065.145000	-7292.790000	2027.295000	4.045887	5.859464	6.806007	6.638903	-1.748603	-3.714744	-0.389933	2.057798	-8.164100	2.075360	0.518840	-0.717527	-0.207885	0.648192	-1.000000	-1.000000	-1.000000	-1.000000	-1.000000	-1.000000	-1.000000	53.000000	0.000000	-1.000000	-1.000000	145473.000000	1775800099.196185
-15291.990000	-14033.295000	7284.735000	45714.375000	18513.270000	15048.405000	-7297.425000	2032.020000	1.567236	3.175875	3.006835	2.799647	-3.793526	1.329334	-0.733854	0.311939	-8.164100	2.075360	0.518840	-0.717527	-0.207885	0.648192	-1.000000	-1.000000	-1.000000	-1.000000	-1.000000	-1.000000	-1.000000	53.000000	0.000000	-1.000000	-1.000000	145474.000000	1775800099.211919
-15299.730000	-14042.700000	7275.105000	45704.295000	18499.995000	15037.380000	-7307.055000	2029.680000	-0.936859	-0.734791	-1.892421	-2.443405	-4.525222	4.771007	-0.671478	-0.672749	-8.164100	2.075360	0.518840	-0.717527	-0.207885	0.648192	-1.000000	-1.000000	-1.000000	-1.000000	-1.000000	-1.000000	-1.000000	53.000000	0.000000	-1.000000	-1.000000	145475.000000	1775800099.211945
-15293.160000	-14035.455000	7284.555000	45717.300000	18508.860000	15039.090000	-7299.945000	2033.910000	-2.985535	-4.360440	-5.534170	-6.222340	-5.334249	3.385469	-1.086602	-0.723918	-8.164100	2.075360	0.518840	-0.717527	-0.207885	0.648192	-1.000000	-1.000000	-1.000000	-1.000000	-1.000000	-1.000000	-1.000000	53.000000	0.000000	-1.000000	-1.000000	145476.000000	1775800099.211972
-15290.460000	-14037.795000	7280.370000	45710.145000	18506.295000	15047.415000	-7294.815000	2033.190000	-3.772562	-5.918352	-6.276495	-6.658346	-5.408032	-0.736550	-1.375993	-0.302592	-8.164100	2.075360	0.518840	-0.717527	-0.207885	0.648192	-1.000000	-1.000000	-1.000000	-1.000000	-1.000000	-1.000000	-1.000000	53.000000	0.000000	-1.000000	-1.000000	145477.000000	1775800099.211982
-15290.235000	-14042.880000	7272.360000	45696.060000	18499.950000	15052.725000	-7290.990000	2034.180000	-2.760976	-4.781533	-4.304928	-4.338831	-3.570138	-3.127873	-0.376770	0.063179	-8.164100	2.075360	0.518840	-0.717527	-0.207885	0.648192	-1.000000	-1.000000	-1.000000	-1.000000	-1.000000	-1.000000	-1.000000	53.000000	0.000000	-1.000000	-1.000000	145478.000000	1775800099.211994
-15297.615000	-14045.220000	7274.610000	45704.835000	18503.505000	15050.520000	-7292.250000	2031.795000	-0.818644	-2.171443	-1.468158	-1.597226	-0.459722	-1.963403	1.572802	0.003562	-8.164100	2.075360	0.518840	-0.717527	-0.207885	0.648192	-1.000000	-1.000000	-1.000000	-1.000000	-1.000000	-1.000000	-1.000000	53.000000	0.000000	-1.000000	-1.000000	145479.000000	1775800099.212003
-15299.055000	-14040.000000	7275.780000	45708.480000	18498.420000	15038.820000	-7299.540000	2028.195000	0.429641	0.419669	0.868528	0.625334	2.501645	0.683014	2.717687	-0.589104	-1.602300	2.868880	-0.427280	-0.714293	-0.216369	0.650023	-1.000000	-1.000000	-1.000000	-1.000000	-1.000000	-1.000000	-1.000000	53.000000	0.000000	-1.000000	-1.000000	145480.000000	1775800099.219896
-15302.745000	-14041.845000	7271.145000	45703.125000	18489.915000	15028.155000	-7307.595000	2024.730000	0.344505	2.466366	2.471034	2.726135	4.145234	1.560844	1.617862	-1.512023	-1.602300	2.868880	-0.427280	-0.714293	-0.216369	0.650023	-1.000000	-1.000000	-1.000000	-1.000000	-1.000000	-1.000000	-1.000000	53.000000	0.000000	-1.000000	-1.000000	145481.000000	1775800099.219924
-15296.580000	-14032.845000	7286.085000	45718.380000	18508.545000	15041.385000	-7299.855000	2028.870000	-0.234446	3.882616	3.428395	4.439514	4.182417	-0.030519	-1.185537	-2.145569	-1.602300	2.868880	-0.427280	-0.714293	-0.216369	0.650023	-1.000000	-1.000000	-1.000000	-1.000000	-1.000000	-1.000000	-1.000000	53.000000	0.000000	-1.000000	-1.000000	145482.000000	1775800099.219955
-15303.330000	-14041.440000	7279.425000	45713.385000	18512.235000	15041.250000	-7300.800000	2025.135000	-0.173800	4.390439	3.956915	5.223168	3.879236	-1.568096	-3.298940	-1.763434	-1.602300	2.868880	-0.427280	-0.714293	-0.216369	0.650023	-1.000000	-1.000000	-1.000000	-1.000000	-1.000000	-1.000000	-1.000000	53.000000	0.000000	-1.000000	-1.000000	145483.000000	1775800099.219968
-15298.965000	-14038.245000	7278.435000	45706.635000	18513.405000	15028.470000	-7306.920000	2022.210000	0.656142	3.499598	3.720162	4.452069	4.142425	-1.137352	-3.108303	-0.457785	-1.602300	2.868880	-0.427280	-0.714293	-0.216369	0.650023	-1.000000	-1.000000	-1.000000	-1.000000	-1.000000	-1.000000	-1.000000	53.000000	0.000000	-1.000000	-1.000000	145484.000000	1775800099.221148
-15289.605000	-14033.880000	7270.785000	45679.095000	18489.285000	15018.705000	-7309.350000	2019.870000	1.814134	1.393461	1.924576	1.126269	3.474346	-0.014931	-1.395728	0.845906	-1.602300	2.868880	-0.427280	-0.714293	-0.216369	0.650023	-1.000000	-1.000000	-1.000000	-1.000000	-1.000000	-1.000000	-1.000000	53.000000	0.000000	-1.000000	-1.000000	145485.000000	1775800099.221167
-15289.830000	-14035.455000	7279.785000	45706.365000	18494.550000	15025.995000	-7295.850000	2030.760000	3.022279	-0.747711	-1.020516	-3.981367	0.056157	0.151081	0.544226	1.686335	-1.602300	2.868880	-0.427280	-0.714293	-0.216369	0.650023	-1.000000	-1.000000	-1.000000	-1.000000	-1.000000	-1.000000	-1.000000	53.000000	0.000000	-1.000000	-1.000000	145486.000000	1775800099.223794
-15289.380000	-14031.855000	7290.045000	45727.335000	18510.030000	15020.595000	-7301.925000	2032.110000	3.580988	-1.997355	-3.051020	-6.550632	-4.451553	-0.059370	2.394714	2.492587	-1.602300	2.868880	-0.427280	-0.714293	-0.216369	0.650023	-1.000000	-1.000000	-1.000000	-1.000000	-1.000000	-1.000000	-1.000000	53.000000	0.000000	-1.000000	-1.000000	145487.000000	1775800099.223812
-15288.345000	-14028.705000	7292.115000	45730.170000	18517.185000	15025.320000	-7303.320000	2032.740000	2.621231	-2.199248	-2.493861	-3.102433	-5.898564	0.517120	3.579388	3.288241	-1.602300	2.868880	-0.427280	-0.714293	-0.216369	0.650023	-1.000000	-1.000000	-1.000000	-1.000000	-1.000000	-1.000000	-1.000000	53.000000	0.000000	-1.000000	-1.000000	145488.000000	1775800099.231515
-15284.115000	-14024.340000	7292.655000	45723.600000	18511.875000	15025.545000	-7302.600000	2035.215000	0.363478	-1.529082	-0.169477	3.507917	-3.045025	1.869058	3.137767	3.226763	-1.602300	2.868880	-0.427280	-0.714293	-0.216369	0.650023	-1.000000	-1.000000	-1.000000	-1.000000	-1.000000	-1.000000	-1.000000	53.000000	0.000000	-1.000000	-1.000000	145489.000000	1775800099.231543
-15286.590000	-14028.210000	7288.110000	45715.140000	18501.345000	15015.420000	-7302.735000	2035.890000	-2.007958	-0.538820	1.467825	6.899017	0.786641	2.942477	1.256215	1.833482	4.745860	2.899400	-1.449700	-0.714659	-0.218444	0.650206	-1.000000	-1.000000	-1.000000	-1.000000	-1.000000	-1.000000	-1.000000	53.000000	0.000000	-1.000000	-1.000000	145490.000000	1775800099.232746
-15294.735000	-14038.020000	7278.885000	45708.795000	18494.055000	15007.680000	-7308.270000	2029.230000	-3.699530	-0.254106	0.730456	3.999883	1.777936	2.348257	-0.955246	-0.519228	4.745860	2.899400	-1.449700	-0.714659	-0.218444	0.650206	-1.000000	-1.000000	-1.000000	-1.000000	-1.000000	-1.000000	-1.000000	53.000000	0.000000	-1.000000	-1.000000	145491.000000	1775800099.232767
-15290.640000	-14036.040000	7281.405000	45714.105000	18516.510000	15031.035000	-7297.965000	2034.360000	-4.580659	-1.255497	-1.970742	-2.613979	-0.054606	0.326220	-2.448770	-3.011851	4.745860	2.899400	-1.449700	-0.714659	-0.218444	0.650206	-1.000000	-1.000000	-1.000000	-1.000000	-1.000000	-1.000000	-1.000000	53.000000	0.000000	-1.000000	-1.000000	145492.000000	1775800099.236056
-15296.445000	-14042.385000	7274.790000	45705.240000	18509.085000	15032.655000	-7301.790000	2029.455000	-4.372696	-2.675739	-4.490109	-7.844448	-1.422374	-0.674553	-2.471076	-4.542172	4.745860	2.899400	-1.449700	-0.714659	-0.218444	0.650206	-1.000000	-1.000000	-1.000000	-1.000000	-1.000000	-1.000000	-1.000000	53.000000	0.000000	-1.000000	-1.000000	145493.000000	1775800099.236082
-15294.690000	-14038.965000	7279.155000	45709.425000	18494.235000	15017.670000	-7309.440000	2030.130000	-2.873802	-3.023775	-4.830325	-8.598033	-0.873926	0.233592	-1.376982	-4.419375	4.745860	2.899400	-1.449700	-0.714659	-0.218444	0.650206	-1.000000	-1.000000	-1.000000	-1.000000	-1.000000	-1.000000	-1.000000	53.000000	0.000000	-1.000000	-1.000000	145494.000000	1775800099.250779
-15303.105000	-14046.075000	7273.890000	45707.805000	18495.765000	15011.550000	-7315.605000	2023.425000	-0.632710	-1.718817	-2.650152	-5.143225	-0.239853	0.588168	-0.651743	-2.983957	4.745860	2.899400	-1.449700	-0.714659	-0.218444	0.650206	-1.000000	-1.000000	-1.000000	-1.000000	-1.000000	-1.000000	-1.000000	53.000000	0.000000	-1.000000	-1.000000	145495.000000	1775800099.250808
-15299.145000	-14040.990000	7278.930000	45712.710000	18511.155000	15014.970000	-7313.805000	2026.350000	1.418944	0.602984	0.849248	0.326309	-0.285584	-1.270729	-0.958356	-1.081732	4.745860	2.899400	-1.449700	-0.714659	-0.218444	0.650206	-1.000000	-1.000000	-1.000000	-1.000000	-1.000000	-1.000000	-1.000000	53.000000	0.000000	-1.000000	-1.000000	145496.000000	1775800099.250835
-15304.725000	-14046.030000	7272.855000	45705.870000	18508.230000	15018.570000	-7313.985000	2021.355000	2.731865	2.833140	3.919535	5.112304	0.462033	-3.552551	-1.293761	0.682102	4.745860	2.899400	-1.449700	-0.714659	-0.218444	0.650206	-1.000000	-1.000000	-1.000000	-1.000000	-1.000000	-1.000000	-1.000000	53.000000	0.000000	-1.000000	-1.000000	145497.000000	1775800099.250847
-15299.415000	-14042.070000	7275.600000	45709.335000	18505.845000	15036.525000	-7303.050000	2022.930000	3.285389	4.094779	5.238874	7.159399	2.196045	-3.442441	-0.358785	1.997423	4.745860	2.899400	-1.449700	-0.714659	-0.218444	0.650206	-1.000000	-1.000000	-1.000000	-1.000000	-1.000000	-1.000000	-1.000000	53.000000	0.000000	-1.000000	-1.000000	145498.000000	1775800099.253359
-15303.465000	-14045.535000	7271.775000	45705.960000	18501.120000	15023.565000	-7312.230000	2015.055000	3.254973	4.029581	4.507847	6.096640	3.059875	-0.432022	1.841064	2.594233	4.745860	2.899400	-1.449700	-0.714659	-0.218444	0.650206	-1.000000	-1.000000	-1.000000	-1.000000	-1.000000	-1.000000	-1.000000	53.000000	0.000000	-1.000000	-1.000000	145499.000000	1775800099.253387
-15286.680000	-14028.030000	7286.355000	45713.835000	18508.905000	15016.635000	-7311.015000	2024.370000	2.978925	3.099643	2.664708	3.254328	2.008543	2.665843	3.647062	2.455522	4.318580	2.639980	-1.281840	-0.718626	-0.213561	0.648497	-1.000000	-1.000000	-1.000000	-1.000000	-1.000000	-1.000000	-1.000000	53.000000	0.000000	-1.000000	-1.000000	145500.000000	1775800099.253414
-15287.445000	-14030.415000	7284.915000	45715.050000	18500.850000	15001.470000	-7309.890000	2032.110000	2.904474	2.277147	1.192750	0.537355	-0.025893	2.523743	3.537706	2.284403	4.318580	2.639980	-1.281840	-0.718626	-0.213561	0.648497	-1.000000	-1.000000	-1.000000	-1.000000	-1.000000	-1.000000	-1.000000	53.000000	0.000000	-1.000000	-1.000000	145501.000000	1775800099.253426
-15280.560000	-14023.125000	7293.690000	45727.110000	18511.650000	15012.540000	-7301.565000	2043.225000	2.841457	1.756880	0.666879	-0.786719	-1.616876	-0.757621	1.944270	2.900852	4.318580	2.639980	-1.281840	-0.718626	-0.213561	0.648497	-1.000000	-1.000000	-1.000000	-1.000000	-1.000000	-1.000000	-1.000000	53.000000	0.000000	-1.000000	-1.000000	145502.000000	1775800099.261491
-15287.670000	-14030.055000	7286.580000	45721.530000	18508.230000	15013.530000	-7305.120000	2037.060000	1.819466	0.701906	0.337715	-0.751235	-1.938544	-3.630792	0.309411	3.782666	4.318580	2.639980	-1.281840	-0.718626	-0.213561	0.648497	-1.000000	-1.000000	-1.000000	-1.000000	-1.000000	-1.000000	-1.000000	53.000000	0.000000	-1.000000	-1.000000	145503.000000	1775800099.261520
-15295.365000	-14038.740000	7278.165000	45712.485000	18505.845000	15006.015000	-7312.905000	2029.680000	-0.898203	-1.655558	-0.983148	-0.766442	-1.206567	-3.319493	-0.943593	3.016997	4.318580	2.639980	-1.281840	-0.718626	-0.213561	0.648497	-1.000000	-1.000000	-1.000000	-1.000000	-1.000000	-1.000000	-1.000000	53.000000	0.000000	-1.000000	-1.000000	145504.000000	1775800099.262044
-15281.415000	-14025.825000	7290.765000	45723.150000	18514.305000	15003.000000	-7312.275000	2037.915000	-4.484853	-4.721026	-3.350311	-1.995273	-0.317354	-0.699519	-2.303933	-0.290390	4.318580	2.639980	-1.281840	-0.718626	-0.213561	0.648497	-1.000000	-1.000000	-1.000000	-1.000000	-1.000000	-1.000000	-1.000000	53.000000	0.000000	-1.000000	-1.000000	145505.000000	1775800099.262066
-15283.755000	-14027.445000	7289.865000	45722.970000	18514.035000	15010.740000	-7309.305000	2037.060000	-6.477433	-6.291438	-4.906422	-3.453343	0.386667	1.925019	-3.455918	-4.254241	4.318580	2.639980	-1.281840	-0.718626	-0.213561	0.648497	-1.000000	-1.000000	-1.000000	-1.000000	-1.000000	-1.000000	-1.000000	53.000000	0.000000	-1.000000	-1.000000	145506.000000	1775800099.270204
-15293.385000	-14039.730000	7275.060000	45701.325000	18490.320000	15007.005000	-7312.275000	2029.680000	-5.589860	-5.178092	-4.384807	-3.885314	0.475095	3.542352	-3.362908	-6.404459	4.318580	2.639980	-1.281840	-0.718626	-0.213561	0.648497	-1.000000	-1.000000	-1.000000	-1.000000	-1.000000	-1.000000	-1.000000	53.000000	0.000000	-1.000000	-1.000000	145507.000000	1775800099.270236
-15290.280000	-14035.815000	7278.480000	45705.555000	18498.870000	15014.745000	-7309.305000	2032.110000	-3.175550	-2.737983	-2.859517	-3.793310	-0.905834	4.067315	-1.831788	-6.175795	4.318580	2.639980	-1.281840	-0.718626	-0.213561	0.648497	-1.000000	-1.000000	-1.000000	-1.000000	-1.000000	-1.000000	-1.000000	53.000000	0.000000	-1.000000	-1.000000	145508.000000	1775800099.270266
-15297.210000	-14041.575000	7273.530000	45701.595000	18502.605000	15008.535000	-7313.400000	2028.510000	-0.880680	-0.496834	-1.445188	-3.392691	-2.711400	3.495705	0.264904	-4.218930	4.318580	2.639980	-1.281840	-0.718626	-0.213561	0.648497	-1.000000	-1.000000	-1.000000	-1.000000	-1.000000	-1.000000	-1.000000	53.000000	0.000000	-1.000000	-1.000000	145509.000000	1775800099.270279
-15298.290000	-14041.620000	7274.610000	45703.080000	18497.970000	15001.425000	-7313.580000	2027.160000	0.727829	1.194620	-0.026233	-1.774050	-2.625169	1.695879	1.810066	-1.411092	-1.526000	1.693860	-0.595140	-0.722105	-0.208007	0.645689	-1.000000	-1.000000	-1.000000	-1.000000	-1.000000	-1.000000	-1.000000	53.000000	0.000000	-1.000000	-1.000000	145510.000000	1775800099.274724
-15296.625000	-14038.695000	7278.615000	45710.055000	18497.205000	15004.575000	-7314.390000	2027.115000	1.738749	2.451701	1.685435	1.324817	-0.461961	-1.107761	2.205688	1.283264	-1.526000	1.693860	-0.595140	-0.722105	-0.208007	0.645689	-1.000000	-1.000000	-1.000000	-1.000000	-1.000000	-1.000000	-1.000000	53.000000	0.000000	-1.000000	-1.000000	145511.000000	1775800099.274752
-15300.540000	-14042.880000	7277.310000	45711.765000	18505.980000	15009.255000	-7318.620000	2023.875000	2.486189	3.370963	3.514367	4.969028	2.164040	-3.466748	1.609167	3.138395	-1.526000	1.693860	-0.595140	-0.722105	-0.208007	0.645689	-1.000000	-1.000000	-1.000000	-1.000000	-1.000000	-1.000000	-1.000000	53.000000	0.000000	-1.000000	-1.000000	145512.000000	1775800099.276512
-15312.015000	-14053.275000	7267.500000	45703.215000	18494.055000	14998.050000	-7330.995000	2009.295000	2.763148	3.487218	4.509350	7.303794	3.891556	-3.948012	0.314559	3.555716	-1.526000	1.693860	-0.595140	-0.722105	-0.208007	0.645689	-1.000000	-1.000000	-1.000000	-1.000000	-1.000000	-1.000000	-1.000000	53.000000	0.000000	-1.000000	-1.000000	145513.000000	1775800099.276536
-15310.800000	-14052.600000	7265.790000	45701.010000	18491.310000	15003.405000	-7326.405000	2009.700000	2.010989	2.212146	3.558115	6.516784	3.700013	-2.849379	-1.312644	2.246254	-1.526000	1.693860	-0.595140	-0.722105	-0.208007	0.645689	-1.000000	-1.000000	-1.000000	-1.000000	-1.000000	-1.000000	-1.000000	53.000000	0.000000	-1.000000	-1.000000	145514.000000	1775800099.285747
-15305.400000	-14046.120000	7266.555000	45695.970000	18499.455000	15004.125000	-7323.840000	2016.270000	0.785469	0.321914	1.011272	2.671847	1.644109	-1.132634	-2.121632	0.360532	-1.526000	1.693860	-0.595140	-0.722105	-0.208007	0.645689	-1.000000	-1.000000	-1.000000	-1.000000	-1.000000	-1.000000	-1.000000	53.000000	0.000000	-1.000000	-1.000000	145515.000000	1775800099.285776
-15292.710000	-14031.000000	7283.970000	45716.130000	18519.705000	15003.360000	-7318.530000	2026.980000	0.690073	-0.229717	-1.018133	-1.690578	-0.130991	0.690554	-0.953096	0.073843	-1.526000	1.693860	-0.595140	-0.722105	-0.208007	0.645689	-1.000000	-1.000000	-1.000000	-1.000000	-1.000000	-1.000000	-1.000000	53.000000	0.000000	-1.000000	-1.000000	145516.000000	1775800099.289347
-15290.595000	-14033.115000	7281.135000	45709.110000	18508.410000	14998.545000	-7317.855000	2029.275000	2.349596	1.366501	-0.708068	-3.557710	0.214974	1.966237	1.748435	2.107857	-1.526000	1.693860	-0.595140	-0.722105	-0.208007	0.645689	-1.000000	-1.000000	-1.000000	-1.000000	-1.000000	-1.000000	-1.000000	53.000000	0.000000	-1.000000	-1.000000	145517.000000	1775800099.289374
-15297.705000	-14040.765000	7274.205000	45701.460000	18499.005000	15005.655000	-7315.335000	2023.920000	4.092715	3.196455	1.037138	-2.730145	1.167615	2.158075	4.134626	4.496712	-1.526000	1.693860	-0.595140	-0.722105	-0.208007	0.645689	-1.000000	-1.000000	-1.000000	-1.000000	-1.000000	-1.000000	-1.000000	53.000000	0.000000	-1.000000	-1.000000	145518.000000	1775800099.289405
-15298.470000	-14042.205000	7271.775000	45697.365000	18497.160000	15003.450000	-7319.700000	2023.020000	3.435550	2.527811	1.503859	-1.682116	-0.016402	1.622872	4.503838	4.468299	-1.526000	1.693860	-0.595140	-0.722105	-0.208007	0.645689	-1.000000	-1.000000	-1.000000	-1.000000	-1.000000	-1.000000	-1.000000	53.000000	0.000000	-1.000000	-1.000000	145519.000000	1775800099.289418
-15287.580000	-14032.620000	7282.890000	45707.760000	18511.200000	15008.760000	-7312.095000	2032.695000	0.192658	-0.674994	-0.127376	-1.684106	-2.876785	1.039125	2.574940	1.547182	-5.691980	1.068200	-0.152600	-0.724546	-0.206481	0.643736	-1.000000	-1.000000	-1.000000	-1.000000	-1.000000	-1.000000	-1.000000	53.000000	0.000000	-1.000000	-1.000000	145520.000000	1775800099.297264
-15283.485000	-14030.280000	7287.525000	45717.930000	18519.480000	15017.130000	-7306.335000	2037.870000	-3.082431	-3.662385	-1.875712	-1.379233	-4.153689	0.807720	-0.217254	-1.946781	-5.691980	1.068200	-0.152600	-0.724546	-0.206481	0.643736	-1.000000	-1.000000	-1.000000	-1.000000	-1.000000	-1.000000	-1.000000	53.000000	0.000000	-1.000000	-1.000000	145521.000000	1775800099.297291
-15283.890000	-14031.630000	7285.230000	45713.655000	18520.200000	15021.495000	-7305.480000	2038.185000	-4.236954	-4.331738	-2.022044	0.398212	-2.171341	1.075447	-2.089283	-3.730047	-5.691980	1.068200	-0.152600	-0.724546	-0.206481	0.643736	-1.000000	-1.000000	-1.000000	-1.000000	-1.000000	-1.000000	-1.000000	53.000000	0.000000	-1.000000	-1.000000	145522.000000	1775800099.297318
-15289.335000	-14032.215000	7280.955000	45711.855000	18512.820000	15009.840000	-7312.005000	2030.490000	-3.641097	-3.108820	-1.199177	2.374905	1.069499	1.161507	-2.748946	-3.823149	-5.691980	1.068200	-0.152600	-0.724546	-0.206481	0.643736	-1.000000	-1.000000	-1.000000	-1.000000	-1.000000	-1.000000	-1.000000	53.000000	0.000000	-1.000000	-1.000000	145523.000000	1775800099.297330
-15295.770000	-14036.220000	7275.195000	45708.165000	18499.545000	14996.385000	-7319.430000	2023.020000	-2.966833	-1.580442	-1.001726	2.489699	2.185996	-0.420432	-3.243324	-3.733597	-5.691980	1.068200	-0.152600	-0.724546	-0.206481	0.643736	-1.000000	-1.000000	-1.000000	-1.000000	-1.000000	-1.000000	-1.000000	53.000000	0.000000	-1.000000	-1.000000	145524.000000	1775800099.299852
-15285.780000	-14026.455000	7287.570000	45720.000000	18510.210000	15002.010000	-7313.445000	2033.775000	-2.821551	-0.563682	-1.626078	0.688938	0.162781	-3.792817	-4.007446	-3.986571	-5.691980	1.068200	-0.152600	-0.724546	-0.206481	0.643736	-1.000000	-1.000000	-1.000000	-1.000000	-1.000000	-1.000000	-1.000000	53.000000	0.000000	-1.000000	-1.000000	145525.000000	1775800099.299872
-15287.895000	-14031.945000	7283.070000	45715.320000	18519.660000	15006.060000	-7314.120000	2036.835000	-2.184638	0.224225	-1.719772	-1.185497	-2.334047	-6.335602	-3.977531	-3.261884	-5.691980	1.068200	-0.152600	-0.724546	-0.206481	0.643736	-1.000000	-1.000000	-1.000000	-1.000000	-1.000000	-1.000000	-1.000000	53.000000	0.000000	-1.000000	-1.000000	145526.000000	1775800099.304324
-15296.445000	-14038.695000	7274.520000	45702.585000	18501.660000	14998.005000	-7322.220000	2027.835000	-0.530696	0.807611	-0.766435	-2.126511	-2.505704	-5.492639	-2.375358	-0.814242	-5.691980	1.068200	-0.152600	-0.724546	-0.206481	0.643736	-1.000000	-1.000000	-1.000000	-1.000000	-1.000000	-1.000000	-1.000000	53.000000	0.000000	-1.000000	-1.000000	145527.000000	1775800099.304341
-15298.965000	-14039.460000	7274.385000	45702.810000	18500.265000	15001.560000	-7321.320000	2024.280000	1.011477	0.603412	0.108143	-2.777857	-1.081292	-1.819105	-0.064563	1.769607	-5.691980	1.068200	-0.152600	-0.724546	-0.206481	0.643736	-1.000000	-1.000000	-1.000000	-1.000000	-1.000000	-1.000000	-1.000000	53.000000	0.000000	-1.000000	-1.000000	145528.000000	1775800099.308138
-15299.730000	-14040.540000	7275.015000	45705.240000	18508.455000	15005.835000	-7322.130000	2022.120000	1.510311	-0.213155	0.286708	-3.177240	0.079543	2.398552	1.816735	2.681408	-5.691980	1.068200	-0.152600	-0.724546	-0.206481	0.643736	-1.000000	-1.000000	-1.000000	-1.000000	-1.000000	-1.000000	-1.000000	53.000000	0.000000	-1.000000	-1.000000	145529.000000	1775800099.308159
-15296.625000	-14034.465000	7281.630000	45712.710000	18514.890000	15013.170000	-7319.610000	2023.695000	1.462132	-0.541748	0.525788	-2.148981	1.177248	5.591871	3.008736	2.051018	-5.356260	0.579880	-1.129240	-0.722410	-0.212463	0.643919	-1.000000	-1.000000	-1.000000	-1.000000	-1.000000	-1.000000	-1.000000	53.000000	0.000000	-1.000000	-1.000000	145530.000000	1775800099.311762
-15295.860000	-14034.150000	7282.170000	45711.405000	18511.470000	15013.530000	-7319.745000	2022.885000	1.760770	0.371192	1.539034	0.671252	2.789398	7.014489	3.620232	1.202870	-5.356260	0.579880	-1.129240	-0.722410	-0.212463	0.643919	-1.000000	-1.000000	-1.000000	-1.000000	-1.000000	-1.000000	-1.000000	53.000000	0.000000	-1.000000	-1.000000	145531.000000	1775800099.311777
-15296.760000	-14034.780000	7282.260000	45711.270000	18510.840000	15009.120000	-7321.680000	2022.705000	2.461752	2.004940	2.846614	3.764980	3.901603	6.087748	3.540726	0.982187	-5.356260	0.579880	-1.129240	-0.722410	-0.212463	0.643919	-1.000000	-1.000000	-1.000000	-1.000000	-1.000000	-1.000000	-1.000000	53.000000	0.000000	-1.000000	-1.000000	145532.000000	1775800099.315803
-15304.140000	-14045.220000	7269.795000	45697.635000	18492.840000	14992.515000	-7330.545000	2016.180000	2.680678	2.819155	3.030792	4.855321	2.939474	2.474694	2.406931	1.135310	-5.356260	0.579880	-1.129240	-0.722410	-0.212463	0.643919	-1.000000	-1.000000	-1.000000	-1.000000	-1.000000	-1.000000	-1.000000	53.000000	0.000000	-1.000000	-1.000000	145533.000000	1775800099.315825
-15298.560000	-14040.090000	7274.205000	45701.370000	18490.500000	14984.190000	-7328.925000	2024.235000	1.719329	1.796541	1.242086	2.953208	-0.438351	-3.133812	0.217306	1.078709	-5.356260	0.579880	-1.129240	-0.722410	-0.212463	0.643919	-1.000000	-1.000000	-1.000000	-1.000000	-1.000000	-1.000000	-1.000000	53.000000	0.000000	-1.000000	-1.000000	145534.000000	1775800099.329264
-15293.880000	-14033.835000	7282.170000	45712.125000	18500.400000	14987.475000	-7325.370000	2029.905000	0.235946	-0.115428	-1.286661	-0.242208	-4.169492	-8.190675	-1.919215	1.009004	-5.356260	0.579880	-1.129240	-0.722410	-0.212463	0.643919	-1.000000	-1.000000	-1.000000	-1.000000	-1.000000	-1.000000	-1.000000	53.000000	0.000000	-1.000000	-1.000000	145535.000000	1775800099.329291
-15307.920000	-14048.730000	7268.175000	45700.920000	18501.435000	14988.330000	-7331.220000	2019.285000	-0.775804	-1.303516	-2.546264	-2.022042	-5.020894	-9.361815	-2.630168	1.192027	-5.356260	0.579880	-1.129240	-0.722410	-0.212463	0.643919	-1.000000	-1.000000	-1.000000	-1.000000	-1.000000	-1.000000	-1.000000	53.000000	0.000000	-1.000000	-1.000000	145536.000000	1775800099.329320
-15312.690000	-14055.795000	7259.670000	45692.685000	18499.770000	14997.150000	-7331.895000	2015.370000	-1.646785	-1.879206	-2.568613	-2.063787	-2.165226	-5.386280	-1.903499	0.751680	-5.356260	0.579880	-1.129240	-0.722410	-0.212463	0.643919	-1.000000	-1.000000	-1.000000	-1.000000	-1.000000	-1.000000	-1.000000	53.000000	0.000000	-1.000000	-1.000000	145537.000000	1775800099.329331
-15308.640000	-14050.440000	7264.035000	45696.735000	18502.245000	15001.965000	-7330.725000	2016.945000	-2.737818	-2.509659	-2.474607	-1.814428	1.989307	1.749533	-0.683465	-0.902052	-5.356260	0.579880	-1.129240	-0.722410	-0.212463	0.643919	-1.000000	-1.000000	-1.000000	-1.000000	-1.000000	-1.000000	-1.000000	53.000000	0.000000	-1.000000	-1.000000	145538.000000	1775800099.329342
-15295.320000	-14035.680000	7277.310000	45707.085000	18503.730000	15008.310000	-7324.380000	2024.820000	-2.758020	-2.131686	-1.726118	-1.334406	4.679596	8.322197	0.546839	-2.486511	-5.356260	0.579880	-1.129240	-0.722410	-0.212463	0.643919	-1.000000	-1.000000	-1.000000	-1.000000	-1.000000	-1.000000	-1.000000	53.000000	0.000000	-1.000000	-1.000000	145539.000000	1775800099.329352
-15298.740000	-14041.395000	7270.605000	45703.035000	18506.655000	15005.385000	-7328.970000	2021.580000	-0.532097	0.393430	0.694653	0.248170	4.883108	11.049927	1.659846	-2.373245	-0.824040	0.976640	-0.320460	-0.719847	-0.218383	0.645567	-1.000000	-1.000000	-1.000000	-1.000000	-1.000000	-1.000000	-1.000000	53.000000	0.000000	-1.000000	-1.000000	145540.000000	1775800099.349894
-15290.235000	-14031.990000	7279.830000	45711.135000	18517.680000	15001.695000	-7325.730000	2029.320000	2.786680	3.758215	3.750741	2.431016	3.314275	8.617150	2.166793	-0.623310	-0.824040	0.976640	-0.320460	-0.719847	-0.218383	0.645567	-1.000000	-1.000000	-1.000000	-1.000000	-1.000000	-1.000000	-1.000000	53.000000	0.000000	-1.000000	-1.000000	145541.000000	1775800099.349920
-15291.720000	-14035.140000	7276.005000	45704.520000	18503.280000	14997.555000	-7324.425000	2033.370000	4.854223	5.503720	5.341120	3.665052	1.118130	2.245787	1.707945	1.524266	-0.824040	0.976640	-0.320460	-0.719847	-0.218383	0.645567	-1.000000	-1.000000	-1.000000	-1.000000	-1.000000	-1.000000	-1.000000	53.000000	0.000000	-1.000000	-1.000000	145542.000000	1775800099.349949
-15300.855000	-14043.780000	7267.275000	45697.185000	18489.870000	14993.775000	-7327.260000	2026.530000	4.152760	4.255081	4.240628	2.765629	-1.710725	-4.925480	0.561283	2.778009	-0.824040	0.976640	-0.320460	-0.719847	-0.218383	0.645567	-1.000000	-1.000000	-1.000000	-1.000000	-1.000000	-1.000000	-1.000000	53.000000	0.000000	-1.000000	-1.000000	145543.000000	1775800099.349964
-15301.125000	-14041.170000	7271.685000	45705.600000	18487.530000	14998.860000	-7326.450000	2021.760000	0.694770	0.365070	0.726066	-0.054512	-5.315943	-9.475512	-0.809737	2.053037	-0.824040	0.976640	-0.320460	-0.719847	-0.218383	0.645567	-1.000000	-1.000000	-1.000000	-1.000000	-1.000000	-1.000000	-1.000000	53.000000	0.000000	-1.000000	-1.000000	145544.000000	1775800099.349981
