Channel1	Channel2	Channel3	Channel4	Channel5	Channel6	Channel7	Channel8	FilteredChannel1	FilteredChannel2	FilteredChannel3	FilteredChannel4	FilteredChannel5	FilteredChannel6	FilteredChannel7	FilteredChannel8	GyroX	GyroY	GyroZ	AccX	AccY	AccZ	PPG1	PPG2	rawPPG1	rawPPG2	rawPPG3	Hr	Hrv	Battery	Trigger	PhysicalTrigger	AutoTrigger	NumMeasurements	Timestamp
5764.860000	-1977.480000	26673.030000	56354.895000	44192.115000	30160.440000	-2405.655000	-2741.985000	1.901705	3.226599	0.217401	4.177869	12.364133	13.219656	3.673524	1.934176	-2.014320	3.876040	0.640920	-0.850462	-0.037720	0.514403	-1.000000	-1.000000	-1.000000	-1.000000	-1.000000	-1.000000	-1.000000	54.000000	0.000000	-1.000000	-1.000000	2782274.000000	1776581969.216909
5758.245000	-1978.740000	26681.670000	56350.080000	44185.500000	30165.525000	-2409.795000	-2748.195000	6.142874	8.075926	5.175167	5.878184	5.703447	8.694208	4.479001	5.022476	-2.014320	3.876040	0.640920	-0.850462	-0.037720	0.514403	-1.000000	-1.000000	-1.000000	-1.000000	-1.000000	-1.000000	-1.000000	54.000000	0.000000	-1.000000	-1.000000	2782275.000000	1776581969.216916
5756.355000	-1980.315000	26681.175000	56347.740000	44175.510000	30153.825000	-2419.155000	-2750.535000	7.270056	9.833964	10.865408	6.509760	-1.679966	2.585249	3.282327	5.390927	-2.014320	3.876040	0.640920	-0.850462	-0.037720	0.514403	-1.000000	-1.000000	-1.000000	-1.000000	-1.000000	-1.000000	-1.000000	54.000000	0.000000	-1.000000	-1.000000	2782276.000000	1776581969.220978
5761.710000	-1986.210000	26665.245000	56341.845000	44162.010000	30140.280000	-2422.305000	-2745.855000	4.800211	7.287526	12.632046	4.948565	-7.728093	-3.388611	0.210572	2.859693	-2.014320	3.876040	0.640920	-0.850462	-0.037720	0.514403	-1.000000	-1.000000	-1.000000	-1.000000	-1.000000	-1.000000	-1.000000	54.000000	0.000000	-1.000000	-1.000000	2782277.000000	1776581969.220993
5757.210000	-1992.465000	26654.445000	56336.985000	44160.480000	30139.470000	-2421.180000	-2746.755000	0.721749	1.412566	7.184700	1.165312	-11.094552	-8.051498	-3.006704	-0.494825	-2.014320	3.876040	0.640920	-0.850462	-0.037720	0.514403	-1.000000	-1.000000	-1.000000	-1.000000	-1.000000	-1.000000	-1.000000	54.000000	0.000000	-1.000000	-1.000000	2782278.000000	1776581969.224993
5758.875000	-1985.355000	26667.135000	56343.375000	44161.065000	30126.420000	-2426.985000	-2748.735000	-2.672456	-4.826697	-3.032764	-2.981009	-10.452559	-9.951754	-4.338751	-2.676590	-2.014320	3.876040	0.640920	-0.850462	-0.037720	0.514403	-1.000000	-1.000000	-1.000000	-1.000000	-1.000000	-1.000000	-1.000000	54.000000	0.000000	-1.000000	-1.000000	2782279.000000	1776581969.225007
5766.210000	-1977.930000	26686.305000	56355.120000	44175.780000	30139.110000	-2425.995000	-2742.840000	-4.133026	-7.949218	-10.937843	-4.807603	-5.289341	-8.038702	-3.238045	-3.132753	-2.014320	3.876040	0.640920	-0.850462	-0.037720	0.514403	-1.000000	-1.000000	-1.000000	-1.000000	-1.000000	-1.000000	-1.000000	54.000000	0.000000	-1.000000	-1.000000	2782280.000000	1776581969.228990
5763.195000	-1981.845000	26682.255000	56358.495000	44187.930000	30156.885000	-2416.230000	-2743.515000	-3.429463	-6.496386	-11.276938	-2.980399	3.058781	-2.240719	-0.477450	-2.179871	-2.014320	3.876040	0.640920	-0.850462	-0.037720	0.514403	-1.000000	-1.000000	-1.000000	-1.000000	-1.000000	-1.000000	-1.000000	54.000000	0.000000	-1.000000	-1.000000	2782281.000000	1776581969.228998
5766.120000	-1977.705000	26689.995000	56370.330000	44192.835000	30151.035000	-2416.140000	-2740.455000	-1.522114	-2.306188	-5.469110	1.092166	11.214159	5.752902	2.867024	-0.567049	-1.175020	3.448760	-0.030520	-0.852293	-0.040710	0.515135	-1.000000	-1.000000	-1.000000	-1.000000	-1.000000	-1.000000	-1.000000	54.000000	0.000000	-1.000000	-1.000000	2782282.000000	1776581969.232996
5758.920000	-1989.405000	26657.595000	56343.510000	44160.615000	30123.810000	-2419.155000	-2744.550000	0.029263	1.383042	0.586015	4.066099	14.433154	11.233819	5.239964	0.693074	-1.175020	3.448760	-0.030520	-0.852293	-0.040710	0.515135	-1.000000	-1.000000	-1.000000	-1.000000	-1.000000	-1.000000	-1.000000	54.000000	0.000000	-1.000000	-1.000000	2782283.000000	1776581969.233006
5759.280000	-1986.300000	26647.425000	56322.810000	44147.745000	30129.165000	-2418.795000	-2744.820000	0.274819	2.513554	1.798186	2.552986	9.309504	9.767925	5.085164	0.869341	-1.175020	3.448760	-0.030520	-0.852293	-0.040710	0.515135	-1.000000	-1.000000	-1.000000	-1.000000	-1.000000	-1.000000	-1.000000	54.000000	0.000000	-1.000000	-1.000000	2782284.000000	1776581969.237106
5755.005000	-1985.355000	26666.190000	56342.160000	44166.105000	30141.900000	-2419.920000	-2749.950000	-0.556086	1.437793	-1.487298	-3.172829	-1.587030	2.976794	2.394977	-0.038011	-1.175020	3.448760	-0.030520	-0.852293	-0.040710	0.515135	-1.000000	-1.000000	-1.000000	-1.000000	-1.000000	-1.000000	-1.000000	54.000000	0.000000	-1.000000	-1.000000	2782285.000000	1776581969.237131
5749.335000	-1995.300000	26655.390000	56335.770000	44164.620000	30140.280000	-2422.980000	-2754.855000	-1.546542	-0.119501	-3.991127	-7.820686	-10.201593	-3.017635	-1.269688	-1.421728	-1.175020	3.448760	-0.030520	-0.852293	-0.040710	0.515135	-1.000000	-1.000000	-1.000000	-1.000000	-1.000000	-1.000000	-1.000000	54.000000	0.000000	-1.000000	-1.000000	2782286.000000	1776581969.241007
5750.640000	-1993.365000	26654.580000	56326.455000	44149.950000	30131.505000	-2429.955000	-2758.140000	-1.919171	-1.123601	-2.374423	-7.183685	-11.273912	-4.855958	-4.263118	-2.507494	-1.175020	3.448760	-0.030520	-0.852293	-0.040710	0.515135	-1.000000	-1.000000	-1.000000	-1.000000	-1.000000	-1.000000	-1.000000	54.000000	0.000000	-1.000000	-1.000000	2782287.000000	1776581969.241018
5750.055000	-1994.265000	26654.175000	56327.760000	44147.430000	30128.445000	-2430.945000	-2758.680000	-1.209064	-1.262757	1.780634	-2.529627	-6.774666	-3.981788	-5.685231	-2.590216	-1.175020	3.448760	-0.030520	-0.852293	-0.040710	0.515135	-1.000000	-1.000000	-1.000000	-1.000000	-1.000000	-1.000000	-1.000000	54.000000	0.000000	-1.000000	-1.000000	2782288.000000	1776581969.244990
5758.335000	-1990.710000	26652.960000	56338.065000	44158.950000	30135.735000	-2421.945000	-2748.915000	0.660885	-0.336808	5.480959	2.917050	-0.975051	-2.595285	-4.992189	-1.150401	-1.175020	3.448760	-0.030520	-0.852293	-0.040710	0.515135	-1.000000	-1.000000	-1.000000	-1.000000	-1.000000	-1.000000	-1.000000	54.000000	0.000000	-1.000000	-1.000000	2782289.000000	1776581969.245015
5759.955000	-1995.165000	26645.580000	56346.030000	44166.960000	30136.815000	-2418.030000	-2742.300000	3.142123	1.260722	6.802433	7.371589	4.179354	-1.084553	-1.964664	1.817028	-1.175020	3.448760	-0.030520	-0.852293	-0.040710	0.515135	-1.000000	-1.000000	-1.000000	-1.000000	-1.000000	-1.000000	-1.000000	54.000000	0.000000	-1.000000	-1.000000	2782290.000000	1776581969.249171
5751.495000	-2000.205000	26651.205000	56343.555000	44168.670000	30147.345000	-2417.760000	-2745.900000	4.845718	2.375627	5.391176	9.737960	7.970049	0.853255	2.275363	5.065537	-1.175020	3.448760	-0.030520	-0.852293	-0.040710	0.515135	-1.000000	-1.000000	-1.000000	-1.000000	-1.000000	-1.000000	-1.000000	54.000000	0.000000	-1.000000	-1.000000	2782291.000000	1776581969.249196
5755.725000	-1979.100000	26685.045000	56351.520000	44171.280000	30144.870000	-2422.440000	-2749.770000	4.288689	2.457309	3.169611	8.926162	9.143993	2.806275	5.272260	6.266028	0.671440	2.868880	0.274680	-0.851194	-0.042541	0.515074	-1.000000	-1.000000	-1.000000	-1.000000	-1.000000	-1.000000	-1.000000	54.000000	0.000000	-1.000000	-1.000000	2782292.000000	1776581969.253064
5763.735000	-1969.380000	26690.940000	56356.110000	44168.445000	30137.760000	-2424.150000	-2744.595000	1.806222	2.629649	2.920395	5.134857	6.823528	3.470954	5.141160	4.205838	0.671440	2.868880	0.274680	-0.851194	-0.042541	0.515074	-1.000000	-1.000000	-1.000000	-1.000000	-1.000000	-1.000000	-1.000000	54.000000	0.000000	-1.000000	-1.000000	2782293.000000	1776581969.253076
5761.215000	-1981.755000	26672.670000	56354.130000	44174.610000	30145.230000	-2417.400000	-2738.070000	-0.666652	3.350514	3.950579	0.051833	1.863672	1.923147	2.341877	0.388731	0.671440	2.868880	0.274680	-0.851194	-0.042541	0.515074	-1.000000	-1.000000	-1.000000	-1.000000	-1.000000	-1.000000	-1.000000	54.000000	0.000000	-1.000000	-1.000000	2782294.000000	1776581969.257075
5748.435000	-2002.365000	26642.295000	56338.155000	44165.835000	30141.585000	-2421.720000	-2743.470000	-2.269319	2.328239	1.685954	-4.910325	-3.512894	-0.869444	-0.876743	-2.694350	0.671440	2.868880	0.274680	-0.851194	-0.042541	0.515074	-1.000000	-1.000000	-1.000000	-1.000000	-1.000000	-1.000000	-1.000000	54.000000	0.000000	-1.000000	-1.000000	2782295.000000	1776581969.257082
5753.925000	-2001.555000	26632.755000	56331.360000	44162.640000	30141.585000	-2426.760000	-2746.440000	-3.540395	-2.180637	-6.095215	-9.155647	-7.391926	-3.083004	-2.895113	-4.159748	0.671440	2.868880	0.274680	-0.851194	-0.042541	0.515074	-1.000000	-1.000000	-1.000000	-1.000000	-1.000000	-1.000000	-1.000000	54.000000	0.000000	-1.000000	-1.000000	2782296.000000	1776581969.261024
5760.180000	-1987.380000	26648.055000	56336.355000	44166.510000	30130.245000	-2430.810000	-2748.600000	-4.123991	-7.382475	-14.651292	-11.434560	-8.772849	-3.993643	-3.682065	-4.530485	0.671440	2.868880	0.274680	-0.851194	-0.042541	0.515074	-1.000000	-1.000000	-1.000000	-1.000000	-1.000000	-1.000000	-1.000000	54.000000	0.000000	-1.000000	-1.000000	2782297.000000	1776581969.261042
5760.585000	-1979.100000	26664.210000	56346.030000	44170.380000	30129.345000	-2430.270000	-2748.555000	-2.887915	-8.273295	-16.027002	-9.649437	-7.101192	-3.949061	-3.551299	-4.121947	0.671440	2.868880	0.274680	-0.851194	-0.042541	0.515074	-1.000000	-1.000000	-1.000000	-1.000000	-1.000000	-1.000000	-1.000000	54.000000	0.000000	-1.000000	-1.000000	2782298.000000	1776581969.266967
5759.235000	-1977.570000	26683.785000	56356.335000	44161.335000	30115.080000	-2441.340000	-2753.865000	-0.193771	-3.495662	-7.108380	-3.217064	-3.022876	-3.372239	-2.607832	-2.894839	0.671440	2.868880	0.274680	-0.851194	-0.042541	0.515074	-1.000000	-1.000000	-1.000000	-1.000000	-1.000000	-1.000000	-1.000000	54.000000	0.000000	-1.000000	-1.000000	2782299.000000	1776581969.266979
5749.560000	-1993.230000	26665.110000	56335.365000	44150.670000	30121.425000	-2445.480000	-2760.030000	1.980251	2.982519	6.742769	4.823300	1.021026	-2.276244	-1.315356	-1.221921	0.671440	2.868880	0.274680	-0.851194	-0.042541	0.515074	-1.000000	-1.000000	-1.000000	-1.000000	-1.000000	-1.000000	-1.000000	54.000000	0.000000	-1.000000	-1.000000	2782300.000000	1776581969.268966
5757.795000	-1984.770000	26662.635000	56327.625000	44152.155000	30135.465000	-2441.610000	-2759.175000	2.220023	6.141845	15.876900	9.197533	2.834287	0.028375	-0.038413	0.284628	0.671440	2.868880	0.274680	-0.851194	-0.042541	0.515074	-1.000000	-1.000000	-1.000000	-1.000000	-1.000000	-1.000000	-1.000000	54.000000	0.000000	-1.000000	-1.000000	2782301.000000	1776581969.268975
5762.070000	-1977.570000	26675.460000	56352.510000	44172.810000	30155.085000	-2429.100000	-2753.280000	1.271479	4.998490	15.055385	7.831506	3.060026	4.314991	1.765383	1.643251	0.610400	2.975700	-1.205540	-0.850218	-0.039612	0.515257	-1.000000	-1.000000	-1.000000	-1.000000	-1.000000	-1.000000	-1.000000	54.000000	0.000000	-1.000000	-1.000000	2782302.000000	1776581969.273099
5757.885000	-1982.745000	26672.895000	56361.600000	44181.180000	30153.645000	-2418.705000	-2748.690000	0.677040	2.155676	7.265891	4.347781	4.146965	9.362449	4.638003	3.297630	0.610400	2.975700	-1.205540	-0.850218	-0.039612	0.515257	-1.000000	-1.000000	-1.000000	-1.000000	-1.000000	-1.000000	-1.000000	54.000000	0.000000	-1.000000	-1.000000	2782303.000000	1776581969.273115
5763.960000	-1984.050000	26656.290000	56333.115000	44175.510000	30168.045000	-2408.940000	-2736.180000	0.692721	-0.354832	-1.725519	2.112185	6.336766	11.822139	7.683376	5.161601	0.610400	2.975700	-1.205540	-0.850218	-0.039612	0.515257	-1.000000	-1.000000	-1.000000	-1.000000	-1.000000	-1.000000	-1.000000	54.000000	0.000000	-1.000000	-1.000000	2782304.000000	1776581969.281143
5757.660000	-1988.775000	26653.275000	56328.210000	44169.075000	30166.470000	-2420.550000	-2743.875000	0.683450	-2.201966	-8.617029	-0.215474	6.732130	9.370821	8.549876	6.238608	0.610400	2.975700	-1.205540	-0.850218	-0.039612	0.515257	-1.000000	-1.000000	-1.000000	-1.000000	-1.000000	-1.000000	-1.000000	54.000000	0.000000	-1.000000	-1.000000	2782305.000000	1776581969.281152
5750.010000	-1990.890000	26658.810000	56337.705000	44162.955000	30144.870000	-2432.385000	-2753.910000	0.001219	-3.367010	-11.693439	-3.846787	3.117563	2.267125	4.981086	4.857582	0.610400	2.975700	-1.205540	-0.850218	-0.039612	0.515257	-1.000000	-1.000000	-1.000000	-1.000000	-1.000000	-1.000000	-1.000000	54.000000	0.000000	-1.000000	-1.000000	2782306.000000	1776581969.281170
5754.420000	-1988.190000	26657.370000	56332.935000	44150.220000	30123.270000	-2441.745000	-2756.565000	-1.443992	-3.509666	-9.821271	-6.323428	-3.311112	-7.708433	-2.709178	0.338344	0.610400	2.975700	-1.205540	-0.850218	-0.039612	0.515257	-1.000000	-1.000000	-1.000000	-1.000000	-1.000000	-1.000000	-1.000000	54.000000	0.000000	-1.000000	-1.000000	2782307.000000	1776581969.281180
5757.615000	-1983.645000	26658.720000	56332.260000	44155.710000	30128.310000	-2436.885000	-2751.615000	-2.490775	-2.189919	-3.993078	-5.453813	-9.026371	-16.837516	-10.583929	-5.147690	0.610400	2.975700	-1.205540	-0.850218	-0.039612	0.515257	-1.000000	-1.000000	-1.000000	-1.000000	-1.000000	-1.000000	-1.000000	54.000000	0.000000	-1.000000	-1.000000	2782308.000000	1776581969.285046
5762.205000	-1988.910000	26654.490000	56335.230000	44164.755000	30142.890000	-2424.015000	-2742.840000	-1.795793	0.282438	2.614340	-2.015889	-10.375366	-19.493906	-13.433602	-7.861045	0.610400	2.975700	-1.205540	-0.850218	-0.039612	0.515257	-1.000000	-1.000000	-1.000000	-1.000000	-1.000000	-1.000000	-1.000000	54.000000	0.000000	-1.000000	-1.000000	2782309.000000	1776581969.285059
5768.280000	-1992.690000	26655.705000	56342.520000	44167.905000	30148.875000	-2422.260000	-2736.045000	0.541815	2.417796	6.871572	2.057552	-6.034774	-12.462377	-9.001759	-5.865210	0.610400	2.975700	-1.205540	-0.850218	-0.039612	0.515257	-1.000000	-1.000000	-1.000000	-1.000000	-1.000000	-1.000000	-1.000000	54.000000	0.000000	-1.000000	-1.000000	2782310.000000	1776581969.289135
5767.020000	-1987.065000	26660.655000	56344.545000	44160.750000	30141.810000	-2426.535000	-2738.565000	3.047930	2.955985	7.675731	5.224613	1.299489	0.768355	-0.291429	-0.768328	0.610400	2.975700	-1.205540	-0.850218	-0.039612	0.515257	-1.000000	-1.000000	-1.000000	-1.000000	-1.000000	-1.000000	-1.000000	54.000000	0.000000	-1.000000	-1.000000	2782311.000000	1776581969.289152
5759.730000	-1987.605000	26641.080000	56340.945000	44152.965000	30134.520000	-2427.120000	-2745.135000	3.841281	2.238103	5.638653	6.273645	6.698596	12.125350	6.947671	3.573604	-0.946120	2.838360	-0.763000	-0.852476	-0.035644	0.515380	-1.000000	-1.000000	-1.000000	-1.000000	-1.000000	-1.000000	-1.000000	54.000000	0.000000	-1.000000	-1.000000	2782312.000000	1776581969.293110
5760.630000	-1979.820000	26647.470000	56349.585000	44159.805000	30137.850000	-2427.030000	-2747.790000	2.007636	1.398327	1.757328	4.713303	7.315337	15.748788	9.101638	4.259623	-0.946120	2.838360	-0.763000	-0.852476	-0.035644	0.515380	-1.000000	-1.000000	-1.000000	-1.000000	-1.000000	-1.000000	-1.000000	54.000000	0.000000	-1.000000	-1.000000	2782313.000000	1776581969.293120
5769.045000	-1969.965000	26693.460000	56378.835000	44180.325000	30136.095000	-2430.045000	-2743.290000	-1.142282	1.221922	-1.351648	2.071765	4.801412	11.903996	6.541300	1.678710	-0.946120	2.838360	-0.763000	-0.852476	-0.035644	0.515380	-1.000000	-1.000000	-1.000000	-1.000000	-1.000000	-1.000000	-1.000000	54.000000	0.000000	-1.000000	-1.000000	2782314.000000	1776581969.297186
5760.180000	-1962.945000	26726.040000	56399.805000	44195.445000	30134.205000	-2438.190000	-2747.475000	-3.243993	1.816196	0.366469	1.174263	2.994146	4.746471	1.740483	-1.431642	-0.946120	2.838360	-0.763000	-0.852476	-0.035644	0.515380	-1.000000	-1.000000	-1.000000	-1.000000	-1.000000	-1.000000	-1.000000	54.000000	0.000000	-1.000000	-1.000000	2782315.000000	1776581969.297193
5754.690000	-1977.165000	26685.675000	56350.305000	44173.080000	30143.025000	-2432.295000	-2744.640000	-3.587570	2.079799	5.924404	1.588988	2.882063	-1.540902	-2.704064	-2.870964	-0.946120	2.838360	-0.763000	-0.852476	-0.035644	0.515380	-1.000000	-1.000000	-1.000000	-1.000000	-1.000000	-1.000000	-1.000000	54.000000	0.000000	-1.000000	-1.000000	2782316.000000	1776581969.301157
5759.910000	-1988.685000	26659.980000	56334.510000	44185.950000	30172.500000	-2426.220000	-2746.395000	-2.948402	0.113660	7.010562	-1.524935	1.770158	-4.017212	-4.621650	-2.274493	-0.946120	2.838360	-0.763000	-0.852476	-0.035644	0.515380	-1.000000	-1.000000	-1.000000	-1.000000	-1.000000	-1.000000	-1.000000	54.000000	0.000000	-1.000000	-1.000000	2782317.000000	1776581969.301176
5760.945000	-1985.265000	26660.250000	56334.015000	44182.485000	30171.870000	-2417.985000	-2746.440000	-1.579018	-4.168260	-1.566542	-9.598898	-1.711964	-1.899971	-3.077103	-0.527996	-0.946120	2.838360	-0.763000	-0.852476	-0.035644	0.515380	-1.000000	-1.000000	-1.000000	-1.000000	-1.000000	-1.000000	-1.000000	54.000000	0.000000	-1.000000	-1.000000	2782318.000000	1776581969.305158
5759.955000	-1985.130000	26659.260000	56333.250000	44163.585000	30148.335000	-2428.830000	-2751.075000	0.491980	-7.757686	-13.865670	-16.381659	-5.940626	1.456572	0.450145	1.081822	-0.946120	2.838360	-0.763000	-0.852476	-0.035644	0.515380	-1.000000	-1.000000	-1.000000	-1.000000	-1.000000	-1.000000	-1.000000	54.000000	0.000000	-1.000000	-1.000000	2782319.000000	1776581969.305194
5755.680000	-1989.450000	26658.630000	56336.670000	44165.295000	30154.455000	-2431.080000	-2752.695000	2.360560	-7.641395	-19.778393	-15.166326	-9.130668	1.065755	2.809162	1.642039	-0.946120	2.838360	-0.763000	-0.852476	-0.035644	0.515380	-1.000000	-1.000000	-1.000000	-1.000000	-1.000000	-1.000000	-1.000000	54.000000	0.000000	-1.000000	-1.000000	2782320.000000	1776581969.309171
5751.360000	-1991.520000	26656.335000	56334.735000	44163.495000	30144.105000	-2435.760000	-2757.285000	2.861177	-3.934342	-15.210501	-5.725665	-9.731110	-3.595650	2.113125	1.087641	-0.946120	2.838360	-0.763000	-0.852476	-0.035644	0.515380	-1.000000	-1.000000	-1.000000	-1.000000	-1.000000	-1.000000	-1.000000	54.000000	0.000000	-1.000000	-1.000000	2782321.000000	1776581969.309188
5751.270000	-1989.270000	26661.060000	56341.440000	44174.520000	30140.055000	-2434.770000	-2757.510000	1.798497	1.031497	-3.590294	6.610561	-6.423362	-8.562907	-0.603295	0.062245	-3.204600	2.609460	-0.885080	-0.852476	-0.034973	0.516051	-1.000000	-1.000000	-1.000000	-1.000000	-1.000000	-1.000000	-1.000000	54.000000	0.000000	-1.000000	-1.000000	2782322.000000	1776581969.313234
5758.695000	-1982.565000	26665.785000	56344.095000	44165.745000	30131.235000	-2434.005000	-2751.480000	0.323650	5.188711	8.671832	15.745593	0.025153	-10.269632	-2.841358	-0.468312	-3.204600	2.609460	-0.885080	-0.852476	-0.034973	0.516051	-1.000000	-1.000000	-1.000000	-1.000000	-1.000000	-1.000000	-1.000000	54.000000	0.000000	-1.000000	-1.000000	2782323.000000	1776581969.313252
5772.195000	-1970.730000	26673.975000	56348.235000	44156.340000	30119.310000	-2429.730000	-2738.295000	0.117241	7.734931	16.513125	18.331924	6.187309	-7.986686	-2.875416	0.400601	-3.204600	2.609460	-0.885080	-0.852476	-0.034973	0.516051	-1.000000	-1.000000	-1.000000	-1.000000	-1.000000	-1.000000	-1.000000	54.000000	0.000000	-1.000000	-1.000000	2782324.000000	1776581969.317216
5773.500000	-1971.855000	26671.320000	56346.930000	44157.060000	30126.735000	-2429.415000	-2738.070000	1.706874	8.451947	17.776889	14.381016	8.598070	-3.024591	-0.787539	2.604239	-3.204600	2.609460	-0.885080	-0.852476	-0.034973	0.516051	-1.000000	-1.000000	-1.000000	-1.000000	-1.000000	-1.000000	-1.000000	54.000000	0.000000	-1.000000	-1.000000	2782325.000000	1776581969.317249
5759.010000	-1981.710000	26666.640000	56348.820000	44163.765000	30141.585000	-2436.885000	-2751.255000	3.227575	6.653789	12.795760	6.318864	7.095346	3.316343	1.734198	4.187126	-3.204600	2.609460	-0.885080	-0.852476	-0.034973	0.516051	-1.000000	-1.000000	-1.000000	-1.000000	-1.000000	-1.000000	-1.000000	54.000000	0.000000	-1.000000	-1.000000	2782326.000000	1776581969.321160
5754.915000	-1987.830000	26658.450000	56350.935000	44182.980000	30163.860000	-2430.180000	-2749.635000	1.971967	1.828890	3.762794	-2.326692	4.568784	10.208183	2.856393	2.817080	-3.204600	2.609460	-0.885080	-0.852476	-0.034973	0.516051	-1.000000	-1.000000	-1.000000	-1.000000	-1.000000	-1.000000	-1.000000	54.000000	0.000000	-1.000000	-1.000000	2782327.000000	1776581969.321176
5753.430000	-1993.680000	26652.645000	56345.580000	44176.230000	30154.185000	-2432.115000	-2753.235000	-2.130698	-4.593334	-5.809389	-8.531657	3.386943	15.516099	2.305600	-1.190737	-3.204600	2.609460	-0.885080	-0.852476	-0.034973	0.516051	-1.000000	-1.000000	-1.000000	-1.000000	-1.000000	-1.000000	-1.000000	54.000000	0.000000	-1.000000	-1.000000	2782328.000000	1776581969.325198
5755.905000	-1988.505000	26666.730000	56344.635000	44171.595000	30151.440000	-2434.950000	-2755.080000	-6.011890	-9.353403	-11.960411	-11.053991	2.734589	15.512498	0.965693	-5.069780	-3.204600	2.609460	-0.885080	-0.852476	-0.034973	0.516051	-1.000000	-1.000000	-1.000000	-1.000000	-1.000000	-1.000000	-1.000000	54.000000	0.000000	-1.000000	-1.000000	2782329.000000	1776581969.325211
5759.910000	-1982.205000	26686.530000	56360.520000	44182.845000	30152.025000	-2434.545000	-2751.525000	-6.606118	-9.556071	-11.598506	-9.891524	0.677170	8.543357	-0.466574	-6.389043	-3.204600	2.609460	-0.885080	-0.852476	-0.034973	0.516051	-1.000000	-1.000000	-1.000000	-1.000000	-1.000000	-1.000000	-1.000000	54.000000	0.000000	-1.000000	-1.000000	2782330.000000	1776581969.329185
5766.795000	-1979.055000	26670.105000	56360.340000	44182.305000	30153.600000	-2424.915000	-2741.445000	-3.351600	-4.923522	-5.227515	-5.519755	-2.384035	-2.134648	-1.325798	-4.354965	-3.204600	2.609460	-0.885080	-0.852476	-0.034973	0.516051	-1.000000	-1.000000	-1.000000	-1.000000	-1.000000	-1.000000	-1.000000	54.000000	0.000000	-1.000000	-1.000000	2782331.000000	1776581969.329202
5761.935000	-1981.890000	26642.250000	56347.245000	44181.990000	30153.960000	-2424.690000	-2744.910000	1.687564	1.685044	1.514804	-0.076141	-4.700972	-10.943948	-0.936785	0.016517	-2.273740	2.853620	-1.113980	-0.851316	-0.038208	0.516173	-1.000000	-1.000000	-1.000000	-1.000000	-1.000000	-1.000000	-1.000000	54.000000	0.000000	-1.000000	-1.000000	2782332.000000	1776581969.333116
5761.395000	-1978.740000	26657.460000	56338.650000	44169.750000	30146.265000	-2431.350000	-2746.530000	5.308844	6.398379	3.114875	2.942114	-5.744087	-14.398629	0.209435	4.065515	-2.273740	2.853620	-1.113980	-0.851316	-0.038208	0.516173	-1.000000	-1.000000	-1.000000	-1.000000	-1.000000	-1.000000	-1.000000	54.000000	0.000000	-1.000000	-1.000000	2782333.000000	1776581969.333128
5763.870000	-1978.245000	26667.315000	56339.370000	44158.860000	30132.225000	-2432.070000	-2742.705000	5.619745	7.243182	0.819579	2.160781	-6.187461	-12.825418	0.595899	5.400337	-2.273740	2.853620	-1.113980	-0.851316	-0.038208	0.516173	-1.000000	-1.000000	-1.000000	-1.000000	-1.000000	-1.000000	-1.000000	54.000000	0.000000	-1.000000	-1.000000	2782334.000000	1776581969.337140
5752.710000	-1995.705000	26647.740000	56341.215000	44160.480000	30128.985000	-2430.855000	-2749.635000	3.091111	4.538921	-0.675598	-0.184613	-6.222958	-8.693644	-0.317444	3.788967	-2.273740	2.853620	-1.113980	-0.851316	-0.038208	0.516173	-1.000000	-1.000000	-1.000000	-1.000000	-1.000000	-1.000000	-1.000000	54.000000	0.000000	-1.000000	-1.000000	2782335.000000	1776581969.337154
5750.280000	-1999.080000	26646.480000	56342.880000	44163.720000	30129.030000	-2440.395000	-2755.935000	-0.705811	-0.379964	-0.312620	-1.044016	-4.705917	-3.768440	-1.656108	0.466760	-2.273740	2.853620	-1.113980	-0.851316	-0.038208	0.516173	-1.000000	-1.000000	-1.000000	-1.000000	-1.000000	-1.000000	-1.000000	54.000000	0.000000	-1.000000	-1.000000	2782336.000000	1776581969.341150
5746.140000	-1987.065000	26672.715000	56348.505000	44162.775000	30136.185000	-2439.720000	-2762.145000	-4.018624	-4.939400	0.814023	0.556127	-0.800061	1.588447	-2.544972	-3.089228	-2.273740	2.853620	-1.113980	-0.851316	-0.038208	0.516173	-1.000000	-1.000000	-1.000000	-1.000000	-1.000000	-1.000000	-1.000000	54.000000	0.000000	-1.000000	-1.000000	2782337.000000	1776581969.341165
5746.590000	-1982.655000	26675.100000	56347.335000	44163.360000	30139.020000	-2437.290000	-2760.705000	-5.247045	-5.885370	3.064191	3.341530	4.223240	6.967647	-2.418360	-5.298909	-2.273740	2.853620	-1.113980	-0.851316	-0.038208	0.516173	-1.000000	-1.000000	-1.000000	-1.000000	-1.000000	-1.000000	-1.000000	54.000000	0.000000	-1.000000	-1.000000	2782338.000000	1776581969.345107
5751.270000	-1990.620000	26653.275000	56322.135000	44155.170000	30130.830000	-2434.725000	-2753.415000	-3.712788	-2.652020	5.496533	4.715081	7.744500	10.720335	-0.877467	-4.771707	-2.273740	2.853620	-1.113980	-0.851316	-0.038208	0.516173	-1.000000	-1.000000	-1.000000	-1.000000	-1.000000	-1.000000	-1.000000	54.000000	0.000000	-1.000000	-1.000000	2782339.000000	1776581969.345121
5750.235000	-1989.855000	26656.020000	56330.505000	44170.380000	30153.465000	-2440.530000	-2761.020000	-0.138635	1.676841	4.861157	2.730357	8.171933	11.170027	1.502108	-1.502607	-2.273740	2.853620	-1.113980	-0.851316	-0.038208	0.516173	-1.000000	-1.000000	-1.000000	-1.000000	-1.000000	-1.000000	-1.000000	54.000000	0.000000	-1.000000	-1.000000	2782340.000000	1776581969.349252
5756.355000	-1982.385000	26664.120000	56339.820000	44166.735000	30160.305000	-2441.160000	-2758.815000	3.654084	4.082446	0.649821	-0.996274	6.217034	8.870374	3.174504	2.480098	-2.273740	2.853620	-1.113980	-0.851316	-0.038208	0.516173	-1.000000	-1.000000	-1.000000	-1.000000	-1.000000	-1.000000	-1.000000	54.000000	0.000000	-1.000000	-1.000000	2782341.000000	1776581969.349269
5768.595000	-1972.080000	26675.595000	56353.545000	44173.035000	30152.655000	-2432.025000	-2744.865000	6.086925	4.371166	-3.399477	-2.467203	3.422642	5.278772	3.313730	5.100613	1.678600	3.448760	-1.571780	-0.850157	-0.043030	0.515135	-1.000000	-1.000000	-1.000000	-1.000000	-1.000000	-1.000000	-1.000000	54.000000	0.000000	-1.000000	-1.000000	2782342.000000	1776581969.353028
5762.655000	-1983.690000	26665.695000	56348.955000	44170.470000	30145.545000	-2425.590000	-2742.930000	6.523359	3.520993	-4.255447	-0.281048	0.574083	0.382892	2.722948	6.052043	1.678600	3.448760	-1.571780	-0.850157	-0.043030	0.515135	-1.000000	-1.000000	-1.000000	-1.000000	-1.000000	-1.000000	-1.000000	54.000000	0.000000	-1.000000	-1.000000	2782343.000000	1776581969.353039
5760.180000	-1979.775000	26673.390000	56356.605000	44178.435000	30148.245000	-2420.640000	-2740.005000	4.516390	1.582342	-2.668992	2.960328	-1.923133	-5.570087	2.388903	5.544606	1.678600	3.448760	-1.571780	-0.850157	-0.043030	0.515135	-1.000000	-1.000000	-1.000000	-1.000000	-1.000000	-1.000000	-1.000000	54.000000	0.000000	-1.000000	-1.000000	2782344.000000	1776581969.357154
5759.055000	-1977.570000	26669.205000	56357.460000	44176.635000	30146.985000	-2426.445000	-2741.760000	0.250675	-1.211593	-0.880415	4.140601	-3.569657	-10.252354	1.974346	3.331688	1.678600	3.448760	-1.571780	-0.850157	-0.043030	0.515135	-1.000000	-1.000000	-1.000000	-1.000000	-1.000000	-1.000000	-1.000000	54.000000	0.000000	-1.000000	-1.000000	2782345.000000	1776581969.357168
5757.795000	-1982.475000	26671.590000	56359.125000	44167.545000	30146.040000	-2440.485000	-2750.895000	-4.482600	-3.562830	-0.054877	2.447296	-4.344410	-11.219318	0.176504	-0.511675	1.678600	3.448760	-1.571780	-0.850157	-0.043030	0.515135	-1.000000	-1.000000	-1.000000	-1.000000	-1.000000	-1.000000	-1.000000	54.000000	0.000000	-1.000000	-1.000000	2782346.000000	1776581969.361238
5767.605000	-1967.715000	26685.180000	56371.230000	44178.120000	30147.165000	-2435.265000	-2743.965000	-7.170877	-4.276873	0.096391	-0.745485	-4.603510	-8.193182	-3.311647	-4.850926	1.678600	3.448760	-1.571780	-0.850157	-0.043030	0.515135	-1.000000	-1.000000	-1.000000	-1.000000	-1.000000	-1.000000	-1.000000	54.000000	0.000000	-1.000000	-1.000000	2782347.000000	1776581969.361252
5775.885000	-1969.110000	26668.530000	56342.880000	44166.870000	30145.095000	-2423.205000	-2733.660000	-6.201978	-2.904165	0.289039	-3.783128	-4.164351	-2.907113	-6.196160	-7.338836	1.678600	3.448760	-1.571780	-0.850157	-0.043030	0.515135	-1.000000	-1.000000	-1.000000	-1.000000	-1.000000	-1.000000	-1.000000	54.000000	0.000000	-1.000000	-1.000000	2782348.000000	1776581969.365235
5763.780000	-1985.220000	26666.055000	56347.560000	44167.185000	30135.735000	-2429.505000	-2743.155000	-2.377593	-0.574044	0.048891	-6.347265	-2.926809	2.065793	-5.713877	-6.314336	1.678600	3.448760	-1.571780	-0.850157	-0.043030	0.515135	-1.000000	-1.000000	-1.000000	-1.000000	-1.000000	-1.000000	-1.000000	54.000000	0.000000	-1.000000	-1.000000	2782349.000000	1776581969.365247
5762.745000	-1985.940000	26656.920000	56337.930000	44165.025000	30143.070000	-2431.440000	-2744.865000	1.178160	0.351452	-1.385100	-8.031677	-1.352959	4.803068	-2.291681	-3.054675	1.678600	3.448760	-1.571780	-0.850157	-0.043030	0.515135	-1.000000	-1.000000	-1.000000	-1.000000	-1.000000	-1.000000	-1.000000	54.000000	0.000000	-1.000000	-1.000000	2782350.000000	1776581969.369191
5757.210000	-1979.685000	26656.425000	56331.000000	44156.700000	30142.890000	-2436.615000	-2751.975000	2.055890	-0.566743	-3.180915	-7.540880	0.149644	5.339677	1.145718	-0.263988	1.678600	3.448760	-1.571780	-0.850157	-0.043030	0.515135	-1.000000	-1.000000	-1.000000	-1.000000	-1.000000	-1.000000	-1.000000	54.000000	0.000000	-1.000000	-1.000000	2782351.000000	1776581969.369201
5755.320000	-1982.745000	26660.250000	56338.470000	44152.110000	30134.925000	-2438.145000	-2753.100000	0.650842	-1.278434	-3.522810	-4.334588	1.159305	4.652299	2.563228	0.804501	2.639980	4.165980	-2.273740	-0.850157	-0.043823	0.513915	-1.000000	-1.000000	-1.000000	-1.000000	-1.000000	-1.000000	-1.000000	54.000000	0.000000	-1.000000	-1.000000	2782352.000000	1776581969.373262
5755.725000	-1981.665000	26663.400000	56349.540000	44166.375000	30140.055000	-2440.170000	-2753.280000	-1.034253	-0.424790	-1.336117	1.170614	1.795167	3.165517	2.067682	0.792249	2.639980	4.165980	-2.273740	-0.850157	-0.043823	0.513915	-1.000000	-1.000000	-1.000000	-1.000000	-1.000000	-1.000000	-1.000000	54.000000	0.000000	-1.000000	-1.000000	2782353.000000	1776581969.373277
5759.820000	-1980.135000	26662.635000	56346.525000	44176.905000	30151.260000	-2435.760000	-2749.320000	-1.256630	1.399536	2.533744	7.465288	3.188293	1.581558	1.030649	1.021715	2.639980	4.165980	-2.273740	-0.850157	-0.043823	0.513915	-1.000000	-1.000000	-1.000000	-1.000000	-1.000000	-1.000000	-1.000000	54.000000	0.000000	-1.000000	-1.000000	2782354.000000	1776581969.377136
5757.930000	-1981.935000	26658.495000	56336.625000	44171.235000	30144.825000	-2439.405000	-2752.830000	0.329004	2.946135	5.687898	11.362322	5.470180	0.874422	0.658017	2.067858	2.639980	4.165980	-2.273740	-0.850157	-0.043823	0.513915	-1.000000	-1.000000	-1.000000	-1.000000	-1.000000	-1.000000	-1.000000	54.000000	0.000000	-1.000000	-1.000000	2782355.000000	1776581969.377148
5759.460000	-1979.415000	26662.680000	56341.215000	44167.410000	30130.200000	-2440.755000	-2753.190000	2.533693	3.346463	6.194430	10.238441	6.423051	0.380640	0.971428	3.208134	2.639980	4.165980	-2.273740	-0.850157	-0.043823	0.513915	-1.000000	-1.000000	-1.000000	-1.000000	-1.000000	-1.000000	-1.000000	54.000000	0.000000	-1.000000	-1.000000	2782356.000000	1776581969.384032
5763.915000	-1975.095000	26667.855000	56345.625000	44161.605000	30124.080000	-2437.380000	-2747.880000	3.887393	2.606182	4.266348	5.078150	3.976285	-1.519931	1.280359	3.493323	2.639980	4.165980	-2.273740	-0.850157	-0.043823	0.513915	-1.000000	-1.000000	-1.000000	-1.000000	-1.000000	-1.000000	-1.000000	54.000000	0.000000	-1.000000	-1.000000	2782357.000000	1776581969.384043
5771.880000	-1964.340000	26677.935000	56355.255000	44173.035000	30142.890000	-2429.280000	-2737.935000	3.964044	1.583969	1.746753	-0.405170	-0.883615	-4.111700	1.430840	3.035042	2.639980	4.165980	-2.273740	-0.850157	-0.043823	0.513915	-1.000000	-1.000000	-1.000000	-1.000000	-1.000000	-1.000000	-1.000000	54.000000	0.000000	-1.000000	-1.000000	2782358.000000	1776581969.385226
5765.760000	-1970.730000	26669.385000	56348.820000	44185.635000	30170.250000	-2426.310000	-2739.465000	3.031784	0.923965	-0.051493	-3.491351	-4.617565	-3.907914	1.749406	2.451391	2.639980	4.165980	-2.273740	-0.850157	-0.043823	0.513915	-1.000000	-1.000000	-1.000000	-1.000000	-1.000000	-1.000000	-1.000000	54.000000	0.000000	-1.000000	-1.000000	2782359.000000	1776581969.385240
5755.590000	-1981.890000	26658.900000	56336.670000	44170.830000	30150.810000	-2436.885000	-2751.075000	0.908055	-0.081409	-1.692274	-4.539740	-4.922265	0.508234	1.803799	1.340086	2.639980	4.165980	-2.273740	-0.850157	-0.043823	0.513915	-1.000000	-1.000000	-1.000000	-1.000000	-1.000000	-1.000000	-1.000000	54.000000	0.000000	-1.000000	-1.000000	2782360.000000	1776581969.389161
5756.580000	-1982.880000	26660.925000	56339.505000	44162.910000	30133.980000	-2440.935000	-2752.830000	-2.432508	-2.389741	-4.045165	-5.238014	-3.403447	4.789059	0.422294	-1.219474	2.639980	4.165980	-2.273740	-0.850157	-0.043823	0.513915	-1.000000	-1.000000	-1.000000	-1.000000	-1.000000	-1.000000	-1.000000	54.000000	0.000000	-1.000000	-1.000000	2782361.000000	1776581969.389172
5758.650000	-1979.775000	26664.930000	56345.670000	44161.515000	30130.155000	-2440.620000	-2750.940000	-5.422754	-4.989666	-5.993381	-5.527032	-2.769537	3.744277	-2.376749	-4.492635	1.480220	4.272800	-2.395820	-0.852171	-0.042480	0.513365	-1.000000	-1.000000	-1.000000	-1.000000	-1.000000	-1.000000	-1.000000	54.000000	0.000000	-1.000000	-1.000000	2782362.000000	1776581969.393255
5766.525000	-1973.610000	26661.600000	56349.405000	44155.215000	30130.380000	-2431.080000	-2739.510000	-5.802961	-5.485008	-5.602172	-3.955363	-3.177769	-1.828793	-4.536894	-5.993373	1.480220	4.272800	-2.395820	-0.852171	-0.042480	0.513365	-1.000000	-1.000000	-1.000000	-1.000000	-1.000000	-1.000000	-1.000000	54.000000	0.000000	-1.000000	-1.000000	2782363.000000	1776581969.393268
5764.770000	-1976.400000	26652.420000	56348.460000	44158.455000	30139.830000	-2427.120000	-2736.630000	-3.007142	-2.923776	-2.959821	-0.475624	-3.025093	-6.483174	-3.927861	-4.032938	1.480220	4.272800	-2.395820	-0.852171	-0.042480	0.513365	-1.000000	-1.000000	-1.000000	-1.000000	-1.000000	-1.000000	-1.000000	54.000000	0.000000	-1.000000	-1.000000	2782364.000000	1776581969.397244
5759.235000	-1981.575000	26661.015000	56354.715000	44188.110000	30157.200000	-2434.005000	-2743.965000	0.979710	0.946389	0.148686	3.095661	-0.669382	-5.856509	-0.870587	0.122510	1.480220	4.272800	-2.395820	-0.852171	-0.042480	0.513365	-1.000000	-1.000000	-1.000000	-1.000000	-1.000000	-1.000000	-1.000000	54.000000	0.000000	-1.000000	-1.000000	2782365.000000	1776581969.397266
5751.495000	-1980.270000	26682.300000	56378.880000	44221.230000	30165.615000	-2444.850000	-2755.080000	3.252459	3.494035	3.026169	5.420637	4.946234	0.061481	1.837956	3.038834	1.480220	4.272800	-2.395820	-0.852171	-0.042480	0.513365	-1.000000	-1.000000	-1.000000	-1.000000	-1.000000	-1.000000	-1.000000	54.000000	0.000000	-1.000000	-1.000000	2782366.000000	1776581969.401217
5763.690000	-1966.815000	26706.285000	56398.860000	44215.245000	30151.980000	-2450.835000	-2754.315000	2.820271	3.977396	6.471532	6.906177	11.984681	6.859596	1.796234	2.540341	1.480220	4.272800	-2.395820	-0.852171	-0.042480	0.513365	-1.000000	-1.000000	-1.000000	-1.000000	-1.000000	-1.000000	-1.000000	54.000000	0.000000	-1.000000	-1.000000	2782367.000000	1776581969.401230
5771.430000	-1964.655000	26690.445000	56378.385000	44199.720000	30154.455000	-2442.960000	-2747.790000	1.528430	3.650044	9.671647	7.276639	14.557301	9.053173	-0.357773	0.000510	1.480220	4.272800	-2.395820	-0.852171	-0.042480	0.513365	-1.000000	-1.000000	-1.000000	-1.000000	-1.000000	-1.000000	-1.000000	54.000000	0.000000	-1.000000	-1.000000	2782368.000000	1776581969.405329
5763.510000	-1973.430000	26672.490000	56337.885000	44169.480000	30136.545000	-2436.390000	-2748.375000	1.247990	3.113897	8.778750	3.467810	7.577856	4.837259	-1.664587	-1.518514	1.480220	4.272800	-2.395820	-0.852171	-0.042480	0.513365	-1.000000	-1.000000	-1.000000	-1.000000	-1.000000	-1.000000	-1.000000	54.000000	0.000000	-1.000000	-1.000000	2782369.000000	1776581969.405341
5765.490000	-1974.285000	26681.085000	56353.860000	44165.745000	30124.395000	-2431.890000	-2743.470000	1.408917	1.467387	1.653459	-5.808899	-6.996146	-3.141845	-0.198814	-0.681670	1.480220	4.272800	-2.395820	-0.852171	-0.042480	0.513365	-1.000000	-1.000000	-1.000000	-1.000000	-1.000000	-1.000000	-1.000000	54.000000	0.000000	-1.000000	-1.000000	2782370.000000	1776581969.409353
5765.265000	-1979.370000	26659.215000	56330.775000	44138.295000	30119.625000	-2434.140000	-2743.290000	0.729813	-1.524071	-8.075136	-15.250450	-20.754386	-10.345675	2.887904	1.470136	1.480220	4.272800	-2.395820	-0.852171	-0.042480	0.513365	-1.000000	-1.000000	-1.000000	-1.000000	-1.000000	-1.000000	-1.000000	54.000000	0.000000	-1.000000	-1.000000	2782371.000000	1776581969.409366
5759.010000	-1987.245000	26648.325000	56319.255000	44147.655000	30160.980000	-2426.265000	-2746.440000	-0.806206	-4.578551	-14.902586	-18.233069	-25.505156	-11.910807	4.934641	3.043934	-1.098720	3.708180	-0.305200	-0.853819	-0.040588	0.512877	-1.000000	-1.000000	-1.000000	-1.000000	-1.000000	-1.000000	-1.000000	54.000000	0.000000	-1.000000	-1.000000	2782372.000000	1776581969.413348
5748.570000	-1994.940000	26655.615000	56322.495000	44156.070000	30167.775000	-2430.855000	-2755.620000	-2.656480	-6.301858	-15.729668	-13.228134	-18.168595	-5.062988	4.451686	2.588884	-1.098720	3.708180	-0.305200	-0.853819	-0.040588	0.512877	-1.000000	-1.000000	-1.000000	-1.000000	-1.000000	-1.000000	-1.000000	54.000000	0.000000	-1.000000	-1.000000	2782373.000000	1776581969.413363
5747.445000	-1992.330000	26661.960000	56331.405000	44162.865000	30153.555000	-2438.730000	-2759.355000	-4.238980	-5.894035	-9.783365	-2.529008	-1.803057	6.435943	1.564618	-0.001042	-1.098720	3.708180	-0.305200	-0.853819	-0.040588	0.512877	-1.000000	-1.000000	-1.000000	-1.000000	-1.000000	-1.000000	-1.000000	54.000000	0.000000	-1.000000	-1.000000	2782374.000000	1776581969.417848
5748.525000	-1989.270000	26660.700000	56340.495000	44173.530000	30147.120000	-2446.920000	-2761.425000	-4.499945	-3.028169	0.806212	9.992085	15.775963	13.688077	-2.743601	-3.164938	-1.098720	3.708180	-0.305200	-0.853819	-0.040588	0.512877	-1.000000	-1.000000	-1.000000	-1.000000	-1.000000	-1.000000	-1.000000	54.000000	0.000000	-1.000000	-1.000000	2782375.000000	1776581969.417862
5750.235000	-1989.720000	26659.890000	56338.875000	44168.400000	30142.305000	-2448.045000	-2759.490000	-2.542093	1.593004	10.914926	19.432228	26.304516	11.424278	-6.648443	-4.689087	-1.098720	3.708180	-0.305200	-0.853819	-0.040588	0.512877	-1.000000	-1.000000	-1.000000	-1.000000	-1.000000	-1.000000	-1.000000	54.000000	0.000000	-1.000000	-1.000000	2782376.000000	1776581969.421273
5752.890000	-1986.840000	26663.310000	56340.765000	44163.810000	30138.075000	-2446.110000	-2757.600000	1.156709	5.972488	15.765372	21.650784	25.395797	2.365394	-7.913297	-3.408926	-1.098720	3.708180	-0.305200	-0.853819	-0.040588	0.512877	-1.000000	-1.000000	-1.000000	-1.000000	-1.000000	-1.000000	-1.000000	54.000000	0.000000	-1.000000	-1.000000	2782377.000000	1776581969.421286
5758.200000	-1981.395000	26677.845000	56357.415000	44168.805000	30136.995000	-2443.725000	-2753.505000	4.914504	8.167951	14.358914	16.146105	14.536839	-6.838992	-5.423785	0.014222	-1.098720	3.708180	-0.305200	-0.853819	-0.040588	0.512877	-1.000000	-1.000000	-1.000000	-1.000000	-1.000000	-1.000000	-1.000000	54.000000	0.000000	-1.000000	-1.000000	2782378.000000	1776581969.425242
5757.120000	-1987.965000	26676.180000	56355.345000	44169.120000	30137.850000	-2441.790000	-2750.895000	6.988768	7.438976	9.084458	6.468791	0.075378	-11.031678	-0.271856	3.716156	-1.098720	3.708180	-0.305200	-0.853819	-0.040588	0.512877	-1.000000	-1.000000	-1.000000	-1.000000	-1.000000	-1.000000	-1.000000	54.000000	0.000000	-1.000000	-1.000000	2782379.000000	1776581969.425256
5751.810000	-1996.065000	26648.370000	56323.530000	44156.205000	30137.220000	-2442.690000	-2754.540000	6.270717	3.927256	2.100017	-3.759570	-11.393899	-9.023232	4.866834	5.730875	-1.098720	3.708180	-0.305200	-0.853819	-0.040588	0.512877	-1.000000	-1.000000	-1.000000	-1.000000	-1.000000	-1.000000	-1.000000	54.000000	0.000000	-1.000000	-1.000000	2782380.000000	1776581969.429145
5754.330000	-1985.040000	26649.405000	56331.630000	44160.615000	30137.265000	-2444.580000	-2756.025000	2.875703	-1.076386	-5.813882	-12.848726	-16.746237	-3.143600	7.452475	4.931559	-1.098720	3.708180	-0.305200	-0.853819	-0.040588	0.512877	-1.000000	-1.000000	-1.000000	-1.000000	-1.000000	-1.000000	-1.000000	54.000000	0.000000	-1.000000	-1.000000	2782381.000000	1776581969.429163
5755.770000	-1975.815000	26678.655000	56358.450000	44177.175000	30144.555000	-2439.360000	-2750.850000	-1.437803	-4.709032	-11.836678	-17.725011	-15.474997	3.100943	6.660148	1.877893	-2.975700	2.395820	1.068200	-0.854917	-0.041504	0.512084	-1.000000	-1.000000	-1.000000	-1.000000	-1.000000	-1.000000	-1.000000	54.000000	0.000000	-1.000000	-1.000000	2782382.000000	1776581969.433269
5746.050000	-1987.425000	26667.540000	56352.285000	44169.885000	30135.015000	-2445.210000	-2754.945000	-4.581738	-5.030013	-11.711747	-14.741335	-8.732969	7.036405	3.575915	-1.500258	-2.975700	2.395820	1.068200	-0.854917	-0.041504	0.512084	-1.000000	-1.000000	-1.000000	-1.000000	-1.000000	-1.000000	-1.000000	54.000000	0.000000	-1.000000	-1.000000	2782383.000000	1776581969.433283
5754.330000	-1991.160000	26656.245000	56328.030000	44158.545000	30133.710000	-2445.075000	-2753.280000	-5.670029	-3.411054	-6.012715	-6.024207	-0.471387	7.281871	-0.137571	-3.612782	-2.975700	2.395820	1.068200	-0.854917	-0.041504	0.512084	-1.000000	-1.000000	-1.000000	-1.000000	-1.000000	-1.000000	-1.000000	54.000000	0.000000	-1.000000	-1.000000	2782384.000000	1776581969.437321
5752.800000	-1991.700000	26658.315000	56331.720000	44157.015000	30131.910000	-2452.365000	-2762.280000	-4.632925	-2.229018	-0.006636	1.527598	4.531192	4.212902	-3.254053	-4.180613	-2.975700	2.395820	1.068200	-0.854917	-0.041504	0.512084	-1.000000	-1.000000	-1.000000	-1.000000	-1.000000	-1.000000	-1.000000	54.000000	0.000000	-1.000000	-1.000000	2782385.000000	1776581969.437331
5762.565000	-1978.695000	26666.235000	56344.500000	44152.380000	30126.825000	-2448.135000	-2754.675000	-1.843960	-1.626414	3.103229	4.569884	4.856988	-0.084255	-4.943402	-3.621882	-2.975700	2.395820	1.068200	-0.854917	-0.041504	0.512084	-1.000000	-1.000000	-1.000000	-1.000000	-1.000000	-1.000000	-1.000000	54.000000	0.000000	-1.000000	-1.000000	2782386.000000	1776581969.441290
5770.530000	-1977.210000	26650.305000	56344.725000	44132.535000	30099.195000	-2445.480000	-2738.115000	1.728396	-0.227558	3.748068	5.214104	2.292443	-3.863736	-4.590444	-1.821865	-2.975700	2.395820	1.068200	-0.854917	-0.041504	0.512084	-1.000000	-1.000000	-1.000000	-1.000000	-1.000000	-1.000000	-1.000000	54.000000	0.000000	-1.000000	-1.000000	2782387.000000	1776581969.441304
5781.735000	-1975.590000	26651.295000	56341.755000	44131.005000	30078.855000	-2444.265000	-2728.395000	4.876016	2.096829	2.777456	5.554620	-0.953495	-7.008558	-2.244564	1.621647	-2.975700	2.395820	1.068200	-0.854917	-0.041504	0.512084	-1.000000	-1.000000	-1.000000	-1.000000	-1.000000	-1.000000	-1.000000	54.000000	0.000000	-1.000000	-1.000000	2782388.000000	1776581969.445390
5773.185000	-1967.355000	26701.695000	56363.355000	44181.900000	30109.905000	-2447.550000	-2743.470000	6.186595	3.902397	1.857399	5.564846	-1.898946	-8.485384	0.806288	5.184274	-2.975700	2.395820	1.068200	-0.854917	-0.041504	0.512084	-1.000000	-1.000000	-1.000000	-1.000000	-1.000000	-1.000000	-1.000000	54.000000	0.000000	-1.000000	-1.000000	2782389.000000	1776581969.445405
5762.835000	-1970.505000	26705.565000	56377.530000	44228.295000	30160.350000	-2442.015000	-2749.905000	4.171346	4.025079	3.840835	5.392695	3.250649	-4.289005	2.869330	5.499395	-2.975700	2.395820	1.068200	-0.854917	-0.041504	0.512084	-1.000000	-1.000000	-1.000000	-1.000000	-1.000000	-1.000000	-1.000000	54.000000	0.000000	-1.000000	-1.000000	2782390.000000	1776581969.449340
5758.335000	-1981.215000	26678.430000	56367.270000	44208.675000	30179.880000	-2428.470000	-2746.980000	-1.152790	2.077154	7.323984	4.987492	13.105646	7.448568	3.537384	1.428941	-2.975700	2.395820	1.068200	-0.854917	-0.041504	0.512084	-1.000000	-1.000000	-1.000000	-1.000000	-1.000000	-1.000000	-1.000000	54.000000	0.000000	-1.000000	-1.000000	2782391.000000	1776581969.449353
5754.015000	-1986.570000	26672.625000	56351.835000	44185.815000	30173.805000	-2433.240000	-2751.840000	-7.077426	-1.679327	6.212877	2.436504	18.030486	20.156655	3.468538	-4.043755	-1.876980	3.418240	1.098720	-0.854002	-0.042419	0.510924	-1.000000	-1.000000	-1.000000	-1.000000	-1.000000	-1.000000	-1.000000	54.000000	0.000000	-1.000000	-1.000000	2782392.000000	1776581969.453318
5758.875000	-1985.490000	26665.155000	56328.390000	44164.980000	30173.355000	-2430.810000	-2750.715000	-9.888082	-5.563836	-1.585501	-3.812840	9.723512	23.129659	2.642609	-7.115928	-1.876980	3.418240	1.098720	-0.854002	-0.042419	0.510924	-1.000000	-1.000000	-1.000000	-1.000000	-1.000000	-1.000000	-1.000000	54.000000	0.000000	-1.000000	-1.000000	2782393.000000	1776581969.453331
5760.765000	-1985.715000	26657.505000	56328.075000	44168.400000	30167.460000	-2433.105000	-2749.995000	-7.669170	-7.040648	-11.027605	-11.651242	-8.362362	12.305796	0.597972	-6.293690	-1.876980	3.418240	1.098720	-0.854002	-0.042419	0.510924	-1.000000	-1.000000	-1.000000	-1.000000	-1.000000	-1.000000	-1.000000	54.000000	0.000000	-1.000000	-1.000000	2782394.000000	1776581969.457385
5756.400000	-1987.515000	26656.380000	56334.420000	44174.115000	30159.945000	-2441.475000	-2755.440000	-1.722712	-4.985893	-15.745396	-15.728061	-23.783850	-6.367647	-2.331661	-2.613552	-1.876980	3.418240	1.098720	-0.854002	-0.042419	0.510924	-1.000000	-1.000000	-1.000000	-1.000000	-1.000000	-1.000000	-1.000000	54.000000	0.000000	-1.000000	-1.000000	2782395.000000	1776581969.457398
5762.925000	-1983.555000	26663.895000	56341.935000	44175.735000	30155.670000	-2444.670000	-2753.055000	4.501402	-0.604190	-12.866977	-11.874995	-26.444038	-22.715763	-5.158870	1.555907	-1.876980	3.418240	1.098720	-0.854002	-0.042419	0.510924	-1.000000	-1.000000	-1.000000	-1.000000	-1.000000	-1.000000	-1.000000	54.000000	0.000000	-1.000000	-1.000000	2782396.000000	1776581969.461234
5763.870000	-1980.855000	26667.315000	56346.210000	44177.985000	30154.455000	-2441.970000	-2749.230000	8.200265	3.916324	-3.819296	-1.279850	-16.004425	-29.105472	-6.530392	4.403993	-1.876980	3.418240	1.098720	-0.854002	-0.042419	0.510924	-1.000000	-1.000000	-1.000000	-1.000000	-1.000000	-1.000000	-1.000000	54.000000	0.000000	-1.000000	-1.000000	2782397.000000	1776581969.461255
5759.505000	-1980.585000	26668.800000	56346.435000	44176.320000	30149.235000	-2443.005000	-2751.345000	8.430585	6.757370	6.801848	10.191773	0.027745	-23.838957	-5.290877	5.458347	-1.876980	3.418240	1.098720	-0.854002	-0.042419	0.510924	-1.000000	-1.000000	-1.000000	-1.000000	-1.000000	-1.000000	-1.000000	54.000000	0.000000	-1.000000	-1.000000	2782398.000000	1776581969.465371
5763.780000	-1979.685000	26669.880000	56346.390000	44176.320000	30149.505000	-2439.270000	-2746.530000	5.639819	6.945790	13.845316	16.446222	12.948063	-10.823597	-1.662136	4.881582	-1.876980	3.418240	1.098720	-0.854002	-0.042419	0.510924	-1.000000	-1.000000	-1.000000	-1.000000	-1.000000	-1.000000	-1.000000	54.000000	0.000000	-1.000000	-1.000000	2782399.000000	1776581969.465382
5760.855000	-1988.820000	26662.050000	56342.070000	44170.605000	30145.095000	-2442.465000	-2748.735000	1.417056	4.491530	14.430753	14.968083	17.815004	3.564371	2.639599	3.123269	-1.876980	3.418240	1.098720	-0.854002	-0.042419	0.510924	-1.000000	-1.000000	-1.000000	-1.000000	-1.000000	-1.000000	-1.000000	54.000000	0.000000	-1.000000	-1.000000	2782400.000000	1776581969.469368
5764.905000	-1985.085000	26665.605000	56348.685000	44173.035000	30144.870000	-2442.285000	-2745.900000	-2.271304	0.404679	9.132336	7.674133	14.721503	13.921602	5.525548	0.853490	-1.876980	3.418240	1.098720	-0.854002	-0.042419	0.510924	-1.000000	-1.000000	-1.000000	-1.000000	-1.000000	-1.000000	-1.000000	54.000000	0.000000	-1.000000	-1.000000	2782401.000000	1776581969.469405
5764.500000	-1974.375000	26673.840000	56351.025000	44165.655000	30135.780000	-2449.530000	-2749.680000	-4.153809	-3.170174	1.521516	-0.862581	7.209119	17.627086	5.744442	-1.298577	-0.869820	1.815940	0.854560	-0.853880	-0.042175	0.511168	-1.000000	-1.000000	-1.000000	-1.000000	-1.000000	-1.000000	-1.000000	54.000000	0.000000	-1.000000	-1.000000	2782402.000000	1776581969.473420
5767.245000	-1967.895000	26678.835000	56353.770000	44164.260000	30139.920000	-2442.555000	-2745.135000	-4.034399	-3.986233	-4.107583	-6.584753	-0.563594	15.111150	3.622344	-2.814492	-0.869820	1.815940	0.854560	-0.853880	-0.042175	0.511168	-1.000000	-1.000000	-1.000000	-1.000000	-1.000000	-1.000000	-1.000000	54.000000	0.000000	-1.000000	-1.000000	2782403.000000	1776581969.473432
5763.330000	-1976.220000	26676.585000	56362.320000	44172.630000	30140.370000	-2445.165000	-2749.455000	-2.671761	-2.103937	-5.878389	-8.025494	-5.558285	9.182288	0.843374	-3.333295	-0.869820	1.815940	0.854560	-0.853880	-0.042175	0.511168	-1.000000	-1.000000	-1.000000	-1.000000	-1.000000	-1.000000	-1.000000	54.000000	0.000000	-1.000000	-1.000000	2782404.000000	1776581969.477438
5757.795000	-1983.105000	26666.910000	56348.685000	44169.930000	30136.050000	-2450.745000	-2754.405000	-1.309612	-0.179468	-5.180794	-6.287366	-6.402365	3.077662	-1.147624	-3.009635	-0.869820	1.815940	0.854560	-0.853880	-0.042175	0.511168	-1.000000	-1.000000	-1.000000	-1.000000	-1.000000	-1.000000	-1.000000	54.000000	0.000000	-1.000000	-1.000000	2782405.000000	1776581969.477455
5761.305000	-1983.420000	26657.775000	56328.345000	44164.395000	30134.790000	-2448.675000	-2748.330000	-0.718766	-0.372081	-4.517126	-4.282873	-4.136234	-1.486310	-2.144115	-2.274207	-0.869820	1.815940	0.854560	-0.853880	-0.042175	0.511168	-1.000000	-1.000000	-1.000000	-1.000000	-1.000000	-1.000000	-1.000000	54.000000	0.000000	-1.000000	-1.000000	2782406.000000	1776581969.481372
5762.205000	-1978.560000	26670.645000	56345.625000	44169.480000	30135.870000	-2447.415000	-2745.585000	-0.477882	-1.929926	-4.545792	-3.926920	-1.278713	-4.124406	-2.248816	-1.023162	-0.869820	1.815940	0.854560	-0.853880	-0.042175	0.511168	-1.000000	-1.000000	-1.000000	-1.000000	-1.000000	-1.000000	-1.000000	54.000000	0.000000	-1.000000	-1.000000	2782407.000000	1776581969.481386
5763.105000	-1977.120000	26672.670000	56348.820000	44171.685000	30141.585000	-2442.105000	-2745.315000	0.206002	-2.550141	-3.552846	-3.465916	0.686257	-4.734166	-1.343049	0.847282	-0.869820	1.815940	0.854560	-0.853880	-0.042175	0.511168	-1.000000	-1.000000	-1.000000	-1.000000	-1.000000	-1.000000	-1.000000	54.000000	0.000000	-1.000000	-1.000000	2782408.000000	1776581969.485224
5755.410000	-1989.945000	26649.180000	56336.715000	44158.635000	30138.030000	-2443.005000	-2755.395000	1.168792	-1.447181	-0.865800	-0.773730	1.468564	-3.585995	0.281490	2.366040	-0.869820	1.815940	0.854560	-0.853880	-0.042175	0.511168	-1.000000	-1.000000	-1.000000	-1.000000	-1.000000	-1.000000	-1.000000	54.000000	0.000000	-1.000000	-1.000000	2782409.000000	1776581969.485232
5765.580000	-1989.000000	26635.500000	56334.285000	44137.665000	30116.250000	-2441.070000	-2746.530000	1.688004	0.028383	1.107696	2.734832	0.442399	-2.164879	1.695136	2.393915	-0.869820	1.815940	0.854560	-0.853880	-0.042175	0.511168	-1.000000	-1.000000	-1.000000	-1.000000	-1.000000	-1.000000	-1.000000	54.000000	0.000000	-1.000000	-1.000000	2782410.000000	1776581969.489595
5787.135000	-1968.480000	26661.375000	56350.170000	44135.730000	30081.555000	-2444.490000	-2728.170000	2.163418	1.139089	1.021336	4.849911	-2.503286	-2.910298	1.965523	1.648781	-0.869820	1.815940	0.854560	-0.853880	-0.042175	0.511168	-1.000000	-1.000000	-1.000000	-1.000000	-1.000000	-1.000000	-1.000000	54.000000	0.000000	-1.000000	-1.000000	2782411.000000	1776581969.489612
5801.895000	-1944.450000	26700.210000	56379.195000	44166.375000	30070.305000	-2446.290000	-2717.415000	3.805855	3.233679	2.078116	6.166090	-4.594542	-6.523195	0.850245	2.067097	-1.297100	3.036740	1.724380	-0.854795	-0.041138	0.508788	-1.000000	-1.000000	-1.000000	-1.000000	-1.000000	-1.000000	-1.000000	54.000000	0.000000	-1.000000	-1.000000	2782412.000000	1776581969.493272
5797.845000	-1930.185000	26737.695000	56407.815000	44206.245000	30106.710000	-2453.580000	-2729.205000	5.904990	7.006267	7.765593	8.489161	-1.346968	-8.999683	-1.140658	3.450522	-1.297100	3.036740	1.724380	-0.854795	-0.041138	0.508788	-1.000000	-1.000000	-1.000000	-1.000000	-1.000000	-1.000000	-1.000000	54.000000	0.000000	-1.000000	-1.000000	2782413.000000	1776581969.493282
5777.820000	-1951.155000	26719.785000	56396.610000	44217.180000	30180.960000	-2444.310000	-2745.315000	5.171417	9.580813	15.234810	10.794706	7.771188	-3.292996	-2.877001	2.777161	-1.297100	3.036740	1.724380	-0.854795	-0.041138	0.508788	-1.000000	-1.000000	-1.000000	-1.000000	-1.000000	-1.000000	-1.000000	54.000000	0.000000	-1.000000	-1.000000	2782414.000000	1776581969.497357
5759.145000	-1979.325000	26681.580000	56353.995000	44196.840000	30203.910000	-2434.095000	-2752.335000	-0.834766	6.119871	15.622081	8.134114	15.945219	12.535525	-2.803296	-1.845768	-1.297100	3.036740	1.724380	-0.854795	-0.041138	0.508788	-1.000000	-1.000000	-1.000000	-1.000000	-1.000000	-1.000000	-1.000000	54.000000	0.000000	-1.000000	-1.000000	2782415.000000	1776581969.497363
5760.855000	-1978.290000	26674.830000	56351.205000	44206.110000	30205.890000	-2431.080000	-2747.205000	-9.857148	-4.221540	3.474899	-2.765848	14.796783	28.942399	-0.287529	-7.868851	-1.297100	3.036740	1.724380	-0.854795	-0.041138	0.508788	-1.000000	-1.000000	-1.000000	-1.000000	-1.000000	-1.000000	-1.000000	54.000000	0.000000	-1.000000	-1.000000	2782416.000000	1776581969.501333
5759.595000	-1979.145000	26673.210000	56351.790000	44195.130000	30183.930000	-2434.635000	-2750.220000	-15.705577	-15.141480	-15.090255	-16.792072	3.518833	31.408138	2.965963	-10.480936	-1.297100	3.036740	1.724380	-0.854795	-0.041138	0.508788	-1.000000	-1.000000	-1.000000	-1.000000	-1.000000	-1.000000	-1.000000	54.000000	0.000000	-1.000000	-1.000000	2782417.000000	1776581969.501343
5759.280000	-1980.945000	26673.075000	56360.430000	44189.820000	30173.535000	-2437.830000	-2751.615000	-13.797238	-18.735659	-27.370481	-23.775592	-10.971049	14.323483	4.172273	-7.553201	-1.297100	3.036740	1.724380	-0.854795	-0.041138	0.508788	-1.000000	-1.000000	-1.000000	-1.000000	-1.000000	-1.000000	-1.000000	54.000000	0.000000	-1.000000	-1.000000	2782418.000000	1776581969.505546
5768.280000	-1977.975000	26668.530000	56356.245000	44195.580000	30183.255000	-2431.710000	-2741.895000	-4.939331	-12.762908	-25.848726	-18.537011	-20.653657	-13.209624	2.370862	-0.938927	-1.297100	3.036740	1.724380	-0.854795	-0.041138	0.508788	-1.000000	-1.000000	-1.000000	-1.000000	-1.000000	-1.000000	-1.000000	54.000000	0.000000	-1.000000	-1.000000	2782419.000000	1776581969.505560
5768.190000	-1979.865000	26661.105000	56337.120000	44189.595000	30178.530000	-2429.730000	-2739.285000	6.161286	-1.218516	-12.940464	-5.209420	-21.097341	-34.819930	-0.711560	6.047827	-1.297100	3.036740	1.724380	-0.854795	-0.041138	0.508788	-1.000000	-1.000000	-1.000000	-1.000000	-1.000000	-1.000000	-1.000000	54.000000	0.000000	-1.000000	-1.000000	2782420.000000	1776581969.509461
5764.905000	-1978.650000	26675.460000	56351.790000	44187.885000	30166.875000	-2435.310000	-2742.840000	14.082599	9.634482	3.426917	7.734605	-13.277990	-39.889426	-2.902540	10.399841	-1.297100	3.036740	1.724380	-0.854795	-0.041138	0.508788	-1.000000	-1.000000	-1.000000	-1.000000	-1.000000	-1.000000	-1.000000	54.000000	0.000000	-1.000000	-1.000000	2782421.000000	1776581969.509477
5766.345000	-1977.210000	26668.620000	56344.725000	44181.855000	30161.115000	-2437.290000	-2742.480000	15.445347	15.213267	16.171016	15.006449	-2.158472	-29.349809	-3.646469	10.229478	-1.281840	1.113980	2.105880	-0.855406	-0.040710	0.509886	-1.000000	-1.000000	-1.000000	-1.000000	-1.000000	-1.000000	-1.000000	54.000000	0.000000	-1.000000	-1.000000	2782422.000000	1776581969.513486
5770.395000	-1971.360000	26681.895000	56347.785000	44179.290000	30157.425000	-2437.650000	-2740.005000	10.761223	14.555678	21.604310	16.012799	7.088736	-11.070418	-3.374245	6.010115	-1.281840	1.113980	2.105880	-0.855406	-0.040710	0.509886	-1.000000	-1.000000	-1.000000	-1.000000	-1.000000	-1.000000	-1.000000	54.000000	0.000000	-1.000000	-1.000000	2782423.000000	1776581969.513496
5771.970000	-1968.210000	26682.570000	56353.860000	44183.340000	30156.480000	-2437.695000	-2739.915000	3.499078	9.656290	19.528211	12.433547	11.830044	6.764744	-2.311142	0.345407	-1.281840	1.113980	2.105880	-0.855406	-0.040710	0.509886	-1.000000	-1.000000	-1.000000	-1.000000	-1.000000	-1.000000	-1.000000	54.000000	0.000000	-1.000000	-1.000000	2782424.000000	1776581969.517217
5769.675000	-1970.865000	26678.295000	56352.870000	44179.515000	30150.810000	-2441.430000	-2743.290000	-2.869740	3.287894	12.177507	6.819046	12.231849	18.752260	-0.668086	-4.156923	-1.281840	1.113980	2.105880	-0.855406	-0.040710	0.509886	-1.000000	-1.000000	-1.000000	-1.000000	-1.000000	-1.000000	-1.000000	54.000000	0.000000	-1.000000	-1.000000	2782425.000000	1776581969.517224
5771.745000	-1970.100000	26680.635000	56356.155000	44180.235000	30150.810000	-2439.675000	-2740.995000	-6.638779	-2.563844	2.530858	1.294350	9.678999	22.815539	1.010253	-6.289872	-1.281840	1.113980	2.105880	-0.855406	-0.040710	0.509886	-1.000000	-1.000000	-1.000000	-1.000000	-1.000000	-1.000000	-1.000000	54.000000	0.000000	-1.000000	-1.000000	2782426.000000	1776581969.522094
5774.535000	-1966.905000	26683.650000	56360.835000	44184.420000	30154.680000	-2435.940000	-2737.080000	-7.517134	-6.610657	-6.146101	-2.950857	5.721834	20.002650	2.319016	-5.913246	-1.281840	1.113980	2.105880	-0.855406	-0.040710	0.509886	-1.000000	-1.000000	-1.000000	-1.000000	-1.000000	-1.000000	-1.000000	54.000000	0.000000	-1.000000	-1.000000	2782427.000000	1776581969.522105
5771.115000	-1970.100000	26680.635000	56359.170000	44182.395000	30150.675000	-2438.190000	-2740.095000	-6.060228	-8.065003	-11.118953	-5.345947	1.843601	13.278974	3.145935	-3.613421	-1.281840	1.113980	2.105880	-0.855406	-0.040710	0.509886	-1.000000	-1.000000	-1.000000	-1.000000	-1.000000	-1.000000	-1.000000	54.000000	0.000000	-1.000000	-1.000000	2782428.000000	1776581969.525472
5774.445000	-1965.105000	26687.070000	56367.810000	44185.455000	30151.575000	-2435.490000	-2737.125000	-3.475655	-7.041041	-11.565268	-5.918465	-1.088245	5.542500	3.251453	-0.722951	-1.281840	1.113980	2.105880	-0.855406	-0.040710	0.509886	-1.000000	-1.000000	-1.000000	-1.000000	-1.000000	-1.000000	-1.000000	54.000000	0.000000	-1.000000	-1.000000	2782429.000000	1776581969.525492
5771.250000	-1966.500000	26689.050000	56372.535000	44184.465000	30146.625000	-2439.495000	-2741.445000	-0.964297	-4.386536	-8.395703	-4.938629	-2.891468	-1.277707	2.406561	1.387974	-1.281840	1.113980	2.105880	-0.855406	-0.040710	0.509886	-1.000000	-1.000000	-1.000000	-1.000000	-1.000000	-1.000000	-1.000000	54.000000	0.000000	-1.000000	-1.000000	2782430.000000	1776581969.529667
5769.810000	-1971.090000	26674.695000	56347.605000	44173.305000	30147.075000	-2435.040000	-2738.655000	0.734896	-1.357898	-3.752329	-3.389300	-3.889239	-6.034222	0.837554	2.108744	-1.281840	1.113980	2.105880	-0.855406	-0.040710	0.509886	-1.000000	-1.000000	-1.000000	-1.000000	-1.000000	-1.000000	-1.000000	54.000000	0.000000	-1.000000	-1.000000	2782431.000000	1776581969.529685
5768.055000	-1972.890000	26678.925000	56359.530000	44178.255000	30146.760000	-2435.715000	-2739.915000	1.365718	0.737683	-0.211540	-2.885890	-4.547576	-8.131452	-0.736517	1.722450	-3.860780	1.388660	1.678600	-0.855039	-0.044128	0.509154	-1.000000	-1.000000	-1.000000	-1.000000	-1.000000	-1.000000	-1.000000	54.000000	0.000000	-1.000000	-1.000000	2782432.000000	1776581969.533615
5766.210000	-1975.815000	26678.295000	56363.310000	44183.520000	30152.430000	-2436.390000	-2742.750000	1.199915	1.412638	1.335468	-3.079591	-4.418778	-7.465208	-1.670752	0.885440	-3.860780	1.388660	1.678600	-0.855039	-0.044128	0.509154	-1.000000	-1.000000	-1.000000	-1.000000	-1.000000	-1.000000	-1.000000	54.000000	0.000000	-1.000000	-1.000000	2782433.000000	1776581969.533628
5768.055000	-1975.185000	26668.395000	56339.730000	44175.420000	30153.555000	-2434.230000	-2737.890000	0.831308	1.227688	1.742615	-2.359639	-2.790265	-4.621099	-1.866786	0.117854	-3.860780	1.388660	1.678600	-0.855039	-0.044128	0.509154	-1.000000	-1.000000	-1.000000	-1.000000	-1.000000	-1.000000	-1.000000	54.000000	0.000000	-1.000000	-1.000000	2782434.000000	1776581969.537492
5756.220000	-1977.885000	26673.480000	56347.380000	44173.440000	30143.205000	-2442.240000	-2745.540000	0.580201	1.022350	1.735717	-0.993647	-0.456600	-1.216768	-1.640023	-0.277120	-3.860780	1.388660	1.678600	-0.855039	-0.044128	0.509154	-1.000000	-1.000000	-1.000000	-1.000000	-1.000000	-1.000000	-1.000000	54.000000	0.000000	-1.000000	-1.000000	2782435.000000	1776581969.537500
5762.655000	-1981.755000	26670.960000	56348.730000	44170.515000	30145.590000	-2440.080000	-2743.830000	0.310313	1.099648	1.775120	0.404815	1.099423	0.782795	-1.433640	-0.403099	-3.860780	1.388660	1.678600	-0.855039	-0.044128	0.509154	-1.000000	-1.000000	-1.000000	-1.000000	-1.000000	-1.000000	-1.000000	54.000000	0.000000	-1.000000	-1.000000	2782436.000000	1776581969.541544
5769.135000	-1985.040000	26651.520000	56346.255000	44166.915000	30146.490000	-2430.630000	-2738.475000	0.339195	1.154471	1.817039	2.261535	1.428532	0.924347	-1.084844	-0.343366	-3.860780	1.388660	1.678600	-0.855039	-0.044128	0.509154	-1.000000	-1.000000	-1.000000	-1.000000	-1.000000	-1.000000	-1.000000	54.000000	0.000000	-1.000000	-1.000000	2782437.000000	1776581969.541552
5784.570000	-1982.115000	26632.980000	56353.995000	44170.020000	30132.720000	-2428.020000	-2725.560000	1.555374	1.006440	0.684474	4.354313	1.108383	0.169058	0.146669	0.432810	-3.860780	1.388660	1.678600	-0.855039	-0.044128	0.509154	-1.000000	-1.000000	-1.000000	-1.000000	-1.000000	-1.000000	-1.000000	54.000000	0.000000	-1.000000	-1.000000	2782438.000000	1776581969.545458
5793.570000	-1970.325000	26665.425000	56359.485000	44177.895000	30113.640000	-2440.665000	-2722.500000	3.985052	1.183624	-1.343009	5.866101	1.139072	-1.162352	1.810894	2.180900	-3.860780	1.388660	1.678600	-0.855039	-0.044128	0.509154	-1.000000	-1.000000	-1.000000	-1.000000	-1.000000	-1.000000	-1.000000	54.000000	0.000000	-1.000000	-1.000000	2782439.000000	1776581969.545467
5790.510000	-1936.530000	26749.035000	56394.450000	44199.405000	30112.020000	-2445.750000	-2728.215000	5.900732	2.808297	0.407784	6.762127	2.450490	-3.064542	2.023065	3.642157	-3.860780	1.388660	1.678600	-0.855039	-0.044128	0.509154	-1.000000	-1.000000	-1.000000	-1.000000	-1.000000	-1.000000	-1.000000	54.000000	0.000000	-1.000000	-1.000000	2782440.000000	1776581969.549345
5781.150000	-1951.740000	26708.535000	56384.685000	44209.530000	30149.100000	-2439.180000	-2736.630000	4.762834	5.771953	8.807048	7.261237	5.055397	-3.377161	0.212349	2.760695	-3.860780	1.388660	1.678600	-0.855039	-0.044128	0.509154	-1.000000	-1.000000	-1.000000	-1.000000	-1.000000	-1.000000	-1.000000	54.000000	0.000000	-1.000000	-1.000000	2782441.000000	1776581969.549363
5770.665000	-1966.770000	26677.440000	56371.140000	44196.210000	30159.810000	-2444.265000	-2746.440000	-0.381079	6.631413	15.721624	5.635253	6.870504	0.994602	-1.776750	-1.051634	-2.350040	0.839300	1.693860	-0.854673	-0.042541	0.510436	-1.000000	-1.000000	-1.000000	-1.000000	-1.000000	-1.000000	-1.000000	54.000000	0.000000	-1.000000	-1.000000	2782442.000000	1776581969.553531
5780.880000	-1944.765000	26696.385000	56364.480000	44176.770000	30153.555000	-2439.450000	-2738.970000	-7.089814	2.385636	10.660524	-0.321092	4.444171	8.588075	-2.146640	-5.681621	-2.350040	0.839300	1.693860	-0.854673	-0.042541	0.510436	-1.000000	-1.000000	-1.000000	-1.000000	-1.000000	-1.000000	-1.000000	54.000000	0.000000	-1.000000	-1.000000	2782443.000000	1776581969.553562
5778.585000	-1953.765000	26693.280000	56358.630000	44181.360000	30187.080000	-2426.805000	-2735.460000	-10.873616	-4.440998	-3.876190	-8.920065	-2.904248	13.593094	-0.567453	-7.607619	-2.350040	0.839300	1.693860	-0.854673	-0.042541	0.510436	-1.000000	-1.000000	-1.000000	-1.000000	-1.000000	-1.000000	-1.000000	54.000000	0.000000	-1.000000	-1.000000	2782444.000000	1776581969.557506
5771.250000	-1964.205000	26684.145000	56356.920000	44182.395000	30185.685000	-2425.905000	-2738.655000	-9.400881	-9.387686	-16.765003	-15.131312	-10.664467	12.615179	2.269720	-5.150277	-2.350040	0.839300	1.693860	-0.854673	-0.042541	0.510436	-1.000000	-1.000000	-1.000000	-1.000000	-1.000000	-1.000000	-1.000000	54.000000	0.000000	-1.000000	-1.000000	2782445.000000	1776581969.557516
5765.805000	-1969.650000	26682.885000	56356.695000	44187.255000	30165.660000	-2432.475000	-2742.660000	-4.480078	-10.989055	-21.022615	-15.086363	-13.146422	5.938239	4.476558	-0.231764	-2.350040	0.839300	1.693860	-0.854673	-0.042541	0.510436	-1.000000	-1.000000	-1.000000	-1.000000	-1.000000	-1.000000	-1.000000	54.000000	0.000000	-1.000000	-1.000000	2782446.000000	1776581969.561408
5763.105000	-1974.195000	26677.800000	56353.365000	44190.180000	30172.680000	-2440.530000	-2748.645000	0.613177	-9.592711	-16.511486	-8.808811	-8.775471	-4.632373	3.806428	3.703177	-2.350040	0.839300	1.693860	-0.854673	-0.042541	0.510436	-1.000000	-1.000000	-1.000000	-1.000000	-1.000000	-1.000000	-1.000000	54.000000	0.000000	-1.000000	-1.000000	2782447.000000	1776581969.561423
5765.895000	-1974.690000	26667.405000	56350.485000	44188.380000	30174.705000	-2439.990000	-2746.530000	4.102604	-5.675208	-7.065288	0.244491	-0.660744	-14.617302	0.069644	4.797888	-2.350040	0.839300	1.693860	-0.854673	-0.042541	0.510436	-1.000000	-1.000000	-1.000000	-1.000000	-1.000000	-1.000000	-1.000000	54.000000	0.000000	-1.000000	-1.000000	2782448.000000	1776581969.565512
5765.670000	-1981.800000	26642.880000	56336.220000	44174.880000	30162.195000	-2441.160000	-2747.025000	5.924922	-0.274474	2.036964	7.572372	6.158999	-18.869382	-4.220681	3.688393	-2.350040	0.839300	1.693860	-0.854673	-0.042541	0.510436	-1.000000	-1.000000	-1.000000	-1.000000	-1.000000	-1.000000	-1.000000	54.000000	0.000000	-1.000000	-1.000000	2782449.000000	1776581969.565526
5768.325000	-1973.205000	26661.555000	56346.345000	44180.910000	30165.615000	-2438.505000	-2745.900000	6.472909	4.974412	7.351940	10.455126	8.257086	-16.085454	-6.112124	2.063558	-2.350040	0.839300	1.693860	-0.854673	-0.042541	0.510436	-1.000000	-1.000000	-1.000000	-1.000000	-1.000000	-1.000000	-1.000000	54.000000	0.000000	-1.000000	-1.000000	2782450.000000	1776581969.569401
5761.890000	-1974.870000	26676.540000	56344.005000	44170.785000	30152.520000	-2446.920000	-2753.055000	5.766155	8.723299	9.893155	9.488800	5.982003	-8.689356	-4.744447	0.847880	-2.350040	0.839300	1.693860	-0.854673	-0.042541	0.510436	-1.000000	-1.000000	-1.000000	-1.000000	-1.000000	-1.000000	-1.000000	54.000000	0.000000	-1.000000	-1.000000	2782451.000000	1776581969.569417
5763.330000	-1975.320000	26683.830000	56348.820000	44171.550000	30152.070000	-2442.690000	-2749.545000	3.682163	10.091970	12.281603	6.948460	2.021254	-0.289801	-1.547050	-0.034042	-0.122080	-0.412020	0.824040	-0.853513	-0.040527	0.513060	-1.000000	-1.000000	-1.000000	-1.000000	-1.000000	-1.000000	-1.000000	54.000000	0.000000	-1.000000	-1.000000	2782452.000000	1776581969.573538
5764.005000	-1975.770000	26680.095000	56351.430000	44174.745000	30151.530000	-2442.285000	-2748.105000	0.775915	8.589176	13.897252	4.341056	-1.042649	6.315923	1.657297	-0.602475	-0.122080	-0.412020	0.824040	-0.853513	-0.040527	0.513060	-1.000000	-1.000000	-1.000000	-1.000000	-1.000000	-1.000000	-1.000000	54.000000	0.000000	-1.000000	-1.000000	2782453.000000	1776581969.573545
5769.855000	-1969.605000	26681.535000	56358.270000	44182.305000	30156.390000	-2436.390000	-2741.265000	-1.624436	4.869485	11.798563	2.148060	-1.649926	10.189108	3.955394	-0.471213	-0.122080	-0.412020	0.824040	-0.853513	-0.040527	0.513060	-1.000000	-1.000000	-1.000000	-1.000000	-1.000000	-1.000000	-1.000000	54.000000	0.000000	-1.000000	-1.000000	2782454.000000	1776581969.577465
5763.420000	-1975.590000	26673.480000	56348.595000	44171.055000	30148.695000	-2441.340000	-2747.610000	-2.616388	0.571141	4.999033	0.175319	-0.116769	11.370669	4.931888	0.275431	-0.122080	-0.412020	0.824040	-0.853513	-0.040527	0.513060	-1.000000	-1.000000	-1.000000	-1.000000	-1.000000	-1.000000	-1.000000	54.000000	0.000000	-1.000000	-1.000000	2782455.000000	1776581969.577478
5762.925000	-1975.725000	26673.795000	56347.740000	44166.915000	30142.575000	-2444.850000	-2749.815000	-2.597098	-3.031559	-4.125394	-2.204701	1.319416	9.720227	4.135234	0.643073	-0.122080	-0.412020	0.824040	-0.853513	-0.040527	0.513060	-1.000000	-1.000000	-1.000000	-1.000000	-1.000000	-1.000000	-1.000000	54.000000	0.000000	-1.000000	-1.000000	2782456.000000	1776581969.581490
5767.245000	-1972.755000	26677.710000	56356.650000	44174.025000	30139.695000	-2445.165000	-2744.820000	-2.296224	-5.268453	-11.435441	-4.711859	1.036066	5.511757	1.634323	-0.040707	-0.122080	-0.412020	0.824040	-0.853513	-0.040527	0.513060	-1.000000	-1.000000	-1.000000	-1.000000	-1.000000	-1.000000	-1.000000	54.000000	0.000000	-1.000000	-1.000000	2782457.000000	1776581969.581498
5757.705000	-1979.370000	26678.340000	56364.705000	44173.935000	30137.310000	-2447.280000	-2751.120000	-1.871580	-5.743152	-13.636291	-5.621678	-0.136923	0.381876	-1.382994	-1.184778	-0.122080	-0.412020	0.824040	-0.853513	-0.040527	0.513060	-1.000000	-1.000000	-1.000000	-1.000000	-1.000000	-1.000000	-1.000000	54.000000	0.000000	-1.000000	-1.000000	2782458.000000	1776581969.588340
5749.560000	-1981.395000	26678.835000	56366.235000	44176.680000	30142.530000	-2440.935000	-2751.885000	-1.633841	-4.786806	-10.441014	-3.893279	-0.687119	-3.352142	-3.269022	-2.001449	-0.122080	-0.412020	0.824040	-0.853513	-0.040527	0.513060	-1.000000	-1.000000	-1.000000	-1.000000	-1.000000	-1.000000	-1.000000	54.000000	0.000000	-1.000000	-1.000000	2782459.000000	1776581969.588351
5748.345000	-1990.620000	26655.210000	56326.320000	44159.670000	30146.355000	-2433.330000	-2746.395000	-1.910629	-3.321645	-4.787086	-1.530241	-0.656097	-4.173027	-2.935372	-2.110778	-0.122080	-0.412020	0.824040	-0.853513	-0.040527	0.513060	-1.000000	-1.000000	-1.000000	-1.000000	-1.000000	-1.000000	-1.000000	54.000000	0.000000	-1.000000	-1.000000	2782460.000000	1776581969.589502
5751.135000	-1996.830000	26645.085000	56317.770000	44149.455000	30135.510000	-2444.940000	-2751.885000	-1.958290	-2.080534	-0.688585	-2.071986	-1.381988	-2.562915	-0.839676	-1.298256	-0.122080	-0.412020	0.824040	-0.853513	-0.040527	0.513060	-1.000000	-1.000000	-1.000000	-1.000000	-1.000000	-1.000000	-1.000000	54.000000	0.000000	-1.000000	-1.000000	2782461.000000	1776581969.589520
5762.655000	-1982.790000	26655.795000	56326.365000	44140.725000	30121.245000	-2455.965000	-2752.830000	-0.476603	-0.853727	0.572720	-5.248917	-3.351148	-0.980818	0.724734	-0.029497	-0.488320	1.098720	2.029580	-0.852842	-0.040161	0.511901	-1.000000	-1.000000	-1.000000	-1.000000	-1.000000	-1.000000	-1.000000	54.000000	0.000000	-1.000000	-1.000000	2782462.000000	1776581969.593589
5770.485000	-1973.070000	26668.935000	56340.045000	44136.810000	30121.470000	-2457.135000	-2750.895000	2.831362	1.546884	1.663493	-6.000892	-5.037760	-1.355400	-0.039081	0.879570	-0.488320	1.098720	2.029580	-0.852842	-0.040161	0.511901	-1.000000	-1.000000	-1.000000	-1.000000	-1.000000	-1.000000	-1.000000	54.000000	0.000000	-1.000000	-1.000000	2782463.000000	1776581969.593601
5774.040000	-1970.550000	26675.055000	56350.035000	44147.070000	30129.255000	-2451.420000	-2744.820000	6.435206	5.264257	5.074771	-0.804214	-4.219784	-2.598294	-1.968288	1.368673	-0.488320	1.098720	2.029580	-0.852842	-0.040161	0.511901	-1.000000	-1.000000	-1.000000	-1.000000	-1.000000	-1.000000	-1.000000	54.000000	0.000000	-1.000000	-1.000000	2782464.000000	1776581969.597573
5772.330000	-1969.695000	26676.135000	56362.095000	44168.175000	30131.370000	-2459.385000	-2749.005000	7.774201	8.075870	9.402676	8.054729	0.302704	-2.104692	-2.547053	1.759877	-0.488320	1.098720	2.029580	-0.852842	-0.040161	0.511901	-1.000000	-1.000000	-1.000000	-1.000000	-1.000000	-1.000000	-1.000000	54.000000	0.000000	-1.000000	-1.000000	2782465.000000	1776581969.597589
5781.645000	-1954.305000	26690.310000	56383.920000	44200.575000	30140.730000	-2452.905000	-2738.205000	5.502640	7.777399	11.222193	15.242093	7.825151	0.860434	-1.014795	1.964668	-0.488320	1.098720	2.029580	-0.852842	-0.040161	0.511901	-1.000000	-1.000000	-1.000000	-1.000000	-1.000000	-1.000000	-1.000000	54.000000	0.000000	-1.000000	-1.000000	2782466.000000	1776581969.601625
5786.460000	-1950.750000	26697.375000	56383.605000	44191.125000	30110.985000	-2451.780000	-2731.455000	0.921841	4.663027	9.057810	16.774912	14.894987	4.001807	1.611554	1.979800	-0.488320	1.098720	2.029580	-0.852842	-0.040161	0.511901	-1.000000	-1.000000	-1.000000	-1.000000	-1.000000	-1.000000	-1.000000	54.000000	0.000000	-1.000000	-1.000000	2782467.000000	1776581969.601643
5775.255000	-1960.380000	26698.680000	56380.905000	44195.985000	30104.460000	-2450.610000	-2738.070000	-3.647952	0.209049	3.949374	11.355092	16.117530	3.821066	3.944461	1.788744	-0.488320	1.098720	2.029580	-0.852842	-0.040161	0.511901	-1.000000	-1.000000	-1.000000	-1.000000	-1.000000	-1.000000	-1.000000	54.000000	0.000000	-1.000000	-1.000000	2782468.000000	1776581969.605450
5762.160000	-1974.240000	26673.885000	56362.095000	44201.430000	30126.645000	-2443.905000	-2746.170000	-7.279280	-4.937978	-2.784520	0.273574	8.981398	0.184993	4.898246	0.546930	-0.488320	1.098720	2.029580	-0.852842	-0.040161	0.511901	-1.000000	-1.000000	-1.000000	-1.000000	-1.000000	-1.000000	-1.000000	54.000000	0.000000	-1.000000	-1.000000	2782469.000000	1776581969.605456
5749.425000	-1992.600000	26651.160000	56327.985000	44178.750000	30183.345000	-2438.865000	-2757.915000	-9.966462	-10.233645	-10.445369	-13.021928	-3.365393	-1.562136	4.279510	-2.413677	-0.488320	1.098720	2.029580	-0.852842	-0.040161	0.511901	-1.000000	-1.000000	-1.000000	-1.000000	-1.000000	-1.000000	-1.000000	54.000000	0.000000	-1.000000	-1.000000	2782470.000000	1776581969.609563
5755.770000	-1986.840000	26664.705000	56342.430000	44174.655000	30165.840000	-2444.985000	-2755.215000	-10.692659	-13.683994	-16.784676	-23.391584	-15.438450	2.712352	2.460836	-5.915057	-0.488320	1.098720	2.029580	-0.852842	-0.040161	0.511901	-1.000000	-1.000000	-1.000000	-1.000000	-1.000000	-1.000000	-1.000000	54.000000	0.000000	-1.000000	-1.000000	2782471.000000	1776581969.609568
5754.330000	-1988.730000	26664.975000	56363.220000	44180.190000	30168.810000	-2447.955000	-2756.700000	-7.703200	-12.390797	-17.267533	-24.511222	-22.140209	8.649684	-0.386437	-7.351602	-0.350980	1.297100	0.763000	-0.851621	-0.037903	0.514098	-1.000000	-1.000000	-1.000000	-1.000000	-1.000000	-1.000000	-1.000000	54.000000	0.000000	-1.000000	-1.000000	2782472.000000	1776581969.614015
5752.395000	-1988.595000	26667.810000	56381.760000	44191.890000	30172.005000	-2449.890000	-2757.375000	-1.100550	-5.558652	-9.739428	-13.250993	-19.910157	8.678005	-3.725119	-5.150922	-0.350980	1.297100	0.763000	-0.851621	-0.037903	0.514098	-1.000000	-1.000000	-1.000000	-1.000000	-1.000000	-1.000000	-1.000000	54.000000	0.000000	-1.000000	-1.000000	2782473.000000	1776581969.614031
5761.035000	-1981.215000	26670.375000	56350.080000	44172.180000	30158.730000	-2447.505000	-2749.680000	6.370831	3.999411	2.252144	4.715998	-9.742911	1.319935	-6.087864	-0.217705	-0.350980	1.297100	0.763000	-0.851621	-0.037903	0.514098	-1.000000	-1.000000	-1.000000	-1.000000	-1.000000	-1.000000	-1.000000	54.000000	0.000000	-1.000000	-1.000000	2782474.000000	1776581969.617603
5756.760000	-1985.580000	26656.650000	56304.405000	44146.035000	30148.380000	-2448.045000	-2752.380000	11.524691	11.959961	12.273172	16.983241	1.825993	-9.135854	-6.077629	5.064716	-0.350980	1.297100	0.763000	-0.851621	-0.037903	0.514098	-1.000000	-1.000000	-1.000000	-1.000000	-1.000000	-1.000000	-1.000000	54.000000	0.000000	-1.000000	-1.000000	2782475.000000	1776581969.617617
5759.370000	-1979.370000	26656.965000	56321.415000	44157.870000	30145.680000	-2449.170000	-2752.515000	12.439787	15.079718	15.528636	15.749009	8.345532	-17.122626	-3.703616	8.191800	-0.350980	1.297100	0.763000	-0.851621	-0.037903	0.514098	-1.000000	-1.000000	-1.000000	-1.000000	-1.000000	-1.000000	-1.000000	54.000000	0.000000	-1.000000	-1.000000	2782476.000000	1776581969.621666
5756.580000	-1985.895000	26664.120000	56336.535000	44169.975000	30145.095000	-2450.745000	-2755.215000	9.052176	12.598636	11.945376	6.258238	9.780930	-18.407905	-0.381617	7.727769	-0.350980	1.297100	0.763000	-0.851621	-0.037903	0.514098	-1.000000	-1.000000	-1.000000	-1.000000	-1.000000	-1.000000	-1.000000	54.000000	0.000000	-1.000000	-1.000000	2782477.000000	1776581969.621677
5751.720000	-2004.255000	26635.995000	56332.935000	44163.900000	30140.820000	-2452.455000	-2757.915000	3.055114	5.836490	4.987894	-0.528301	9.917762	-12.232183	2.248622	4.172679	-0.350980	1.297100	0.763000	-0.851621	-0.037903	0.514098	-1.000000	-1.000000	-1.000000	-1.000000	-1.000000	-1.000000	-1.000000	54.000000	0.000000	-1.000000	-1.000000	2782478.000000	1776581969.625476
5756.760000	-2012.130000	26596.665000	56327.445000	44150.040000	30139.785000	-2448.855000	-2751.075000	-3.019082	-2.900711	-2.989062	-0.612077	9.658285	-1.790379	3.423472	-0.371027	-0.350980	1.297100	0.763000	-0.851621	-0.037903	0.514098	-1.000000	-1.000000	-1.000000	-1.000000	-1.000000	-1.000000	-1.000000	54.000000	0.000000	-1.000000	-1.000000	2782479.000000	1776581969.625493
5757.255000	-1988.910000	26636.895000	56333.160000	44144.415000	30136.320000	-2453.580000	-2753.955000	-6.739055	-9.762951	-10.016951	2.397716	7.071403	8.058746	3.331741	-3.525577	-0.350980	1.297100	0.763000	-0.851621	-0.037903	0.514098	-1.000000	-1.000000	-1.000000	-1.000000	-1.000000	-1.000000	-1.000000	54.000000	0.000000	-1.000000	-1.000000	2782480.000000	1776581969.629426
5758.515000	-1965.555000	26689.410000	56323.800000	44145.675000	30139.560000	-2456.145000	-2755.845000	-7.002976	-10.101702	-10.331749	4.151456	1.998642	13.741605	2.341986	-4.343048	-0.350980	1.297100	0.763000	-0.851621	-0.037903	0.514098	-1.000000	-1.000000	-1.000000	-1.000000	-1.000000	-1.000000	-1.000000	54.000000	0.000000	-1.000000	-1.000000	2782481.000000	1776581969.629438
5755.995000	-1974.555000	26686.080000	56342.655000	44173.260000	30136.770000	-2452.995000	-2753.055000	-4.718532	-3.302908	-0.212234	3.242067	-2.391889	14.296169	0.859054	-3.503459	-1.495480	-0.137340	0.106820	-0.850767	-0.038696	0.516539	-1.000000	-1.000000	-1.000000	-1.000000	-1.000000	-1.000000	-1.000000	54.000000	0.000000	-1.000000	-1.000000	2782482.000000	1776581969.633662
5753.835000	-1979.640000	26677.125000	56349.495000	44179.155000	30128.130000	-2454.480000	-2753.595000	-1.843638	4.771124	13.138362	1.168350	-2.660381	10.642812	-0.360685	-1.955086	-1.495480	-0.137340	0.106820	-0.850767	-0.038696	0.516539	-1.000000	-1.000000	-1.000000	-1.000000	-1.000000	-1.000000	-1.000000	54.000000	0.000000	-1.000000	-1.000000	2782483.000000	1776581969.633674
5750.550000	-1989.180000	26664.615000	56348.280000	44180.550000	30146.130000	-2448.405000	-2754.045000	0.080604	7.316101	17.568485	-0.272240	0.655822	4.866723	-0.690961	-0.375452	-1.495480	-0.137340	0.106820	-0.850767	-0.038696	0.516539	-1.000000	-1.000000	-1.000000	-1.000000	-1.000000	-1.000000	-1.000000	54.000000	0.000000	-1.000000	-1.000000	2782484.000000	1776581969.637506
5747.040000	-1995.390000	26642.925000	56339.415000	44172.360000	30154.680000	-2453.310000	-2760.570000	0.635518	2.971580	8.614175	-1.480219	3.178463	0.087386	-0.218991	0.583820	-1.495480	-0.137340	0.106820	-0.850767	-0.038696	0.516539	-1.000000	-1.000000	-1.000000	-1.000000	-1.000000	-1.000000	-1.000000	54.000000	0.000000	-1.000000	-1.000000	2782485.000000	1776581969.637516
5753.430000	-1972.755000	26661.735000	56346.345000	44169.570000	30142.890000	-2456.280000	-2758.095000	0.470917	-3.805226	-7.330457	-3.534280	1.454628	-1.962895	0.229808	0.587405	-1.495480	-0.137340	0.106820	-0.850767	-0.038696	0.516539	-1.000000	-1.000000	-1.000000	-1.000000	-1.000000	-1.000000	-1.000000	54.000000	0.000000	-1.000000	-1.000000	2782486.000000	1776581969.641548
5762.970000	-1963.125000	26689.635000	56354.085000	44168.895000	30136.905000	-2451.195000	-2749.230000	0.843960	-6.844922	-18.485112	-5.522617	-3.722890	-2.886306	-0.010401	0.275416	-1.495480	-0.137340	0.106820	-0.850767	-0.038696	0.516539	-1.000000	-1.000000	-1.000000	-1.000000	-1.000000	-1.000000	-1.000000	54.000000	0.000000	-1.000000	-1.000000	2782487.000000	1776581969.641561
5767.425000	-1966.590000	26682.435000	56348.100000	44161.020000	30123.450000	-2454.120000	-2747.700000	2.424834	-3.991270	-17.287374	-5.645064	-8.689390	-4.875962	-0.578326	0.739334	-1.495480	-0.137340	0.106820	-0.850767	-0.038696	0.516539	-1.000000	-1.000000	-1.000000	-1.000000	-1.000000	-1.000000	-1.000000	54.000000	0.000000	-1.000000	-1.000000	2782488.000000	1776581969.645608
5776.830000	-1955.790000	26687.160000	56358.990000	44174.205000	30130.155000	-2456.640000	-2746.035000	4.372706	1.354773	-6.803400	-3.719164	-10.158862	-7.483782	-0.913380	1.930432	-1.495480	-0.137340	0.106820	-0.850767	-0.038696	0.516539	-1.000000	-1.000000	-1.000000	-1.000000	-1.000000	-1.000000	-1.000000	54.000000	0.000000	-1.000000	-1.000000	2782489.000000	1776581969.645624
5774.220000	-1957.770000	26688.195000	56365.020000	44188.335000	30143.205000	-2455.065000	-2748.240000	5.042937	4.806116	4.059765	-0.725423	-6.700450	-7.882889	-0.984635	2.572110	-1.495480	-0.137340	0.106820	-0.850767	-0.038696	0.516539	-1.000000	-1.000000	-1.000000	-1.000000	-1.000000	-1.000000	-1.000000	54.000000	0.000000	-1.000000	-1.000000	2782490.000000	1776581969.649473
5767.650000	-1963.980000	26686.980000	56366.460000	44188.290000	30139.560000	-2456.280000	-2750.040000	3.164349	4.428212	9.201054	2.263016	0.472691	-4.143490	-0.798421	1.661659	-1.495480	-0.137340	0.106820	-0.850767	-0.038696	0.516539	-1.000000	-1.000000	-1.000000	-1.000000	-1.000000	-1.000000	-1.000000	54.000000	0.000000	-1.000000	-1.000000	2782491.000000	1776581969.649484
5773.230000	-1958.895000	26696.070000	56381.490000	44203.590000	30143.835000	-2450.745000	-2744.730000	-1.037506	0.846094	8.055893	4.181238	7.545541	1.942827	-0.226986	-0.433078	-1.327620	1.754900	0.747740	-0.849973	-0.038940	0.515746	-1.000000	-1.000000	-1.000000	-1.000000	-1.000000	-1.000000	-1.000000	54.000000	0.000000	-1.000000	-1.000000	2782492.000000	1776581969.653457
5770.305000	-1958.445000	26698.860000	56389.230000	44208.855000	30166.245000	-2440.800000	-2743.830000	-5.362677	-3.319276	3.735205	4.693463	10.963464	6.984591	0.883138	-2.242894	-1.327620	1.754900	0.747740	-0.849973	-0.038940	0.515746	-1.000000	-1.000000	-1.000000	-1.000000	-1.000000	-1.000000	-1.000000	54.000000	0.000000	-1.000000	-1.000000	2782493.000000	1776581969.653475
5771.835000	-1962.540000	26686.215000	56371.320000	44186.445000	30164.265000	-2437.380000	-2741.085000	-7.383914	-5.463671	-0.569706	3.623870	9.167293	9.291532	2.434542	-2.634241	-1.327620	1.754900	0.747740	-0.849973	-0.038940	0.515746	-1.000000	-1.000000	-1.000000	-1.000000	-1.000000	-1.000000	-1.000000	54.000000	0.000000	-1.000000	-1.000000	2782494.000000	1776581969.657439
5768.730000	-1972.215000	26664.435000	56331.855000	44155.260000	30153.555000	-2434.185000	-2740.230000	-6.412738	-5.160730	-4.150427	-0.433748	1.823533	8.026280	3.561426	-1.714935	-1.327620	1.754900	0.747740	-0.849973	-0.038940	0.515746	-1.000000	-1.000000	-1.000000	-1.000000	-1.000000	-1.000000	-1.000000	54.000000	0.000000	-1.000000	-1.000000	2782495.000000	1776581969.657450
5763.465000	-1974.375000	26666.640000	56336.355000	44149.275000	30141.315000	-2439.315000	-2745.945000	-3.535829	-3.605944	-7.219848	-7.627770	-8.868296	2.547430	3.024820	-0.487669	-1.327620	1.754900	0.747740	-0.849973	-0.038940	0.515746	-1.000000	-1.000000	-1.000000	-1.000000	-1.000000	-1.000000	-1.000000	54.000000	0.000000	-1.000000	-1.000000	2782496.000000	1776581969.661525
5764.410000	-1975.140000	26668.080000	56346.750000	44174.430000	30161.070000	-2436.660000	-2741.940000	-0.424258	-1.649311	-8.194738	-13.209247	-16.389359	-5.046843	0.464227	0.082472	-1.327620	1.754900	0.747740	-0.849973	-0.038940	0.515746	-1.000000	-1.000000	-1.000000	-1.000000	-1.000000	-1.000000	-1.000000	54.000000	0.000000	-1.000000	-1.000000	2782497.000000	1776581969.661537
5762.880000	-1975.410000	26668.710000	56349.945000	44187.660000	30173.985000	-2439.855000	-2743.470000	1.940209	0.669453	-5.114755	-11.194596	-13.905666	-9.592976	-2.956736	-0.028565	-1.327620	1.754900	0.747740	-0.849973	-0.038940	0.515746	-1.000000	-1.000000	-1.000000	-1.000000	-1.000000	-1.000000	-1.000000	54.000000	0.000000	-1.000000	-1.000000	2782498.000000	1776581969.665680
5771.385000	-1965.420000	26678.475000	56356.245000	44180.235000	30158.730000	-2441.880000	-2738.385000	3.541261	3.340438	1.366901	-1.502860	-1.873557	-8.083730	-5.448648	-0.116775	-1.327620	1.754900	0.747740	-0.849973	-0.038940	0.515746	-1.000000	-1.000000	-1.000000	-1.000000	-1.000000	-1.000000	-1.000000	54.000000	0.000000	-1.000000	-1.000000	2782499.000000	1776581969.665704
5767.020000	-1964.565000	26679.105000	56356.020000	44169.255000	30141.360000	-2449.350000	-2744.595000	4.584298	5.921078	8.234058	9.913774	11.048324	-3.575086	-6.040659	0.189761	-1.327620	1.754900	0.747740	-0.849973	-0.038940	0.515746	-1.000000	-1.000000	-1.000000	-1.000000	-1.000000	-1.000000	-1.000000	54.000000	0.000000	-1.000000	-1.000000	2782500.000000	1776581969.669493
5756.670000	-1971.990000	26675.505000	56358.720000	44172.990000	30135.015000	-2454.300000	-2753.595000	4.526026	7.166743	12.024662	16.538509	16.279121	-1.028784	-4.934967	0.340391	-1.327620	1.754900	0.747740	-0.849973	-0.038940	0.515746	-1.000000	-1.000000	-1.000000	-1.000000	-1.000000	-1.000000	-1.000000	54.000000	0.000000	-1.000000	-1.000000	2782501.000000	1776581969.669502
5756.490000	-1983.555000	26665.470000	56346.660000	44161.785000	30128.535000	-2453.715000	-2751.840000	2.588408	5.462433	10.527748	15.358343	12.319567	-1.425471	-2.740122	-0.306325	-0.396760	2.197440	0.778260	-0.848997	-0.039184	0.516539	-1.000000	-1.000000	-1.000000	-1.000000	-1.000000	-1.000000	-1.000000	54.000000	0.000000	-1.000000	-1.000000	2782502.000000	1776581969.673598
5763.870000	-1981.080000	26666.325000	56347.155000	44163.000000	30135.645000	-2446.920000	-2743.695000	-0.336285	0.847183	4.355402	7.644853	3.501695	-1.985979	0.280421	-1.006756	-0.396760	2.197440	0.778260	-0.848997	-0.039184	0.516539	-1.000000	-1.000000	-1.000000	-1.000000	-1.000000	-1.000000	-1.000000	54.000000	0.000000	-1.000000	-1.000000	2782503.000000	1776581969.673609
5759.595000	-1969.695000	26671.365000	56346.300000	44171.370000	30149.460000	-2438.370000	-2741.175000	-2.114220	-3.816658	-2.908455	-2.179347	-4.423958	0.188223	3.962476	-0.300457	-0.396760	2.197440	0.778260	-0.848997	-0.039184	0.516539	-1.000000	-1.000000	-1.000000	-1.000000	-1.000000	-1.000000	-1.000000	54.000000	0.000000	-1.000000	-1.000000	2782504.000000	1776581969.677652
5730.660000	-1986.255000	26657.325000	56344.185000	44168.310000	30147.165000	-2443.815000	-2753.505000	-2.473438	-5.477785	-7.444112	-9.199722	-7.560866	5.233905	7.240071	1.549034	-0.396760	2.197440	0.778260	-0.848997	-0.039184	0.516539	-1.000000	-1.000000	-1.000000	-1.000000	-1.000000	-1.000000	-1.000000	54.000000	0.000000	-1.000000	-1.000000	2782505.000000	1776581969.677665
5736.780000	-1996.155000	26652.240000	56344.410000	44165.925000	30144.870000	-2452.140000	-2756.610000	-3.064956	-4.464787	-8.308131	-10.973374	-5.946405	9.883995	7.980972	2.422907	-0.396760	2.197440	0.778260	-0.848997	-0.039184	0.516539	-1.000000	-1.000000	-1.000000	-1.000000	-1.000000	-1.000000	-1.000000	54.000000	0.000000	-1.000000	-1.000000	2782506.000000	1776581969.682816
5756.805000	-1986.615000	26660.250000	56333.835000	44168.310000	30144.420000	-2449.350000	-2750.355000	-3.385802	-2.880091	-6.532909	-8.325918	-2.416827	10.402513	5.009849	1.331579	-0.396760	2.197440	0.778260	-0.848997	-0.039184	0.516539	-1.000000	-1.000000	-1.000000	-1.000000	-1.000000	-1.000000	-1.000000	54.000000	0.000000	-1.000000	-1.000000	2782507.000000	1776581969.682830
5773.230000	-1960.920000	26690.220000	56362.410000	44185.230000	30145.500000	-2448.495000	-2744.325000	-0.593839	-0.585249	-2.314014	-3.410659	0.839755	6.205193	0.016528	-0.148322	-0.396760	2.197440	0.778260	-0.848997	-0.039184	0.516539	-1.000000	-1.000000	-1.000000	-1.000000	-1.000000	-1.000000	-1.000000	54.000000	0.000000	-1.000000	-1.000000	2782508.000000	1776581969.685581
5774.895000	-1960.605000	26687.295000	56373.570000	44181.765000	30134.610000	-2457.090000	-2748.555000	5.356885	3.572349	4.100905	2.581561	3.289304	-0.301692	-4.076467	-0.335083	-0.396760	2.197440	0.778260	-0.848997	-0.039184	0.516539	-1.000000	-1.000000	-1.000000	-1.000000	-1.000000	-1.000000	-1.000000	54.000000	0.000000	-1.000000	-1.000000	2782509.000000	1776581969.685600
5768.145000	-1970.505000	26669.160000	56344.680000	44171.460000	30145.005000	-2452.005000	-2749.635000	10.015430	7.610744	9.264184	7.718427	4.101027	-6.019286	-5.739895	0.359941	-0.396760	2.197440	0.778260	-0.848997	-0.039184	0.516539	-1.000000	-1.000000	-1.000000	-1.000000	-1.000000	-1.000000	-1.000000	54.000000	0.000000	-1.000000	-1.000000	2782510.000000	1776581969.689730
5763.870000	-1973.655000	26664.840000	56334.330000	44167.140000	30150.585000	-2451.015000	-2752.695000	8.873296	7.514564	8.453469	7.895808	2.036215	-8.325597	-4.845542	0.542442	-0.396760	2.197440	0.778260	-0.848997	-0.039184	0.516539	-1.000000	-1.000000	-1.000000	-1.000000	-1.000000	-1.000000	-1.000000	54.000000	0.000000	-1.000000	-1.000000	2782511.000000	1776581969.689744
5760.360000	-1971.045000	26675.955000	56354.085000	44171.955000	30136.860000	-2456.415000	-2752.605000	1.920163	2.448415	1.811888	2.249198	-2.046320	-6.614212	-2.181445	-0.247945	-0.412020	3.372460	1.693860	-0.849912	-0.042175	0.516417	-1.000000	-1.000000	-1.000000	-1.000000	-1.000000	-1.000000	-1.000000	54.000000	0.000000	-1.000000	-1.000000	2782512.000000	1776581969.693661
5760.135000	-1975.635000	26670.825000	56351.700000	44169.345000	30135.510000	-2449.485000	-2743.650000	-6.549678	-4.161038	-5.296029	-4.004982	-5.170421	-3.239384	0.702497	-1.156336	-0.412020	3.372460	1.693860	-0.849912	-0.042175	0.516417	-1.000000	-1.000000	-1.000000	-1.000000	-1.000000	-1.000000	-1.000000	54.000000	0.000000	-1.000000	-1.000000	2782513.000000	1776581969.693674
5769.360000	-1972.620000	26671.005000	56348.910000	44164.305000	30142.215000	-2441.790000	-2735.775000	-11.484600	-8.330867	-8.362500	-6.038849	-5.386212	-0.628586	2.815567	-0.879552	-0.412020	3.372460	1.693860	-0.849912	-0.042175	0.516417	-1.000000	-1.000000	-1.000000	-1.000000	-1.000000	-1.000000	-1.000000	54.000000	0.000000	-1.000000	-1.000000	2782514.000000	1776581969.697586
5768.595000	-1969.020000	26672.085000	56349.765000	44155.035000	30142.035000	-2446.830000	-2741.490000	-10.412693	-8.242401	-6.944973	-4.085005	-3.403301	1.102233	3.962738	0.676257	-0.412020	3.372460	1.693860	-0.849912	-0.042175	0.516417	-1.000000	-1.000000	-1.000000	-1.000000	-1.000000	-1.000000	-1.000000	54.000000	0.000000	-1.000000	-1.000000	2782515.000000	1776581969.697596
5766.885000	-1978.065000	26649.855000	56340.135000	44146.980000	30116.745000	-2451.420000	-2745.405000	-4.859151	-4.692505	-3.384175	-0.999403	-1.155512	2.045917	3.567401	1.782824	-0.412020	3.372460	1.693860	-0.849912	-0.042175	0.516417	-1.000000	-1.000000	-1.000000	-1.000000	-1.000000	-1.000000	-1.000000	54.000000	0.000000	-1.000000	-1.000000	2782516.000000	1776581969.701701
5766.840000	-1982.745000	26643.060000	56344.680000	44166.510000	30122.505000	-2447.640000	-2742.930000	1.272122	-0.412744	-0.762096	0.987756	0.649099	1.312665	1.328687	0.969578	-0.412020	3.372460	1.693860	-0.849912	-0.042175	0.516417	-1.000000	-1.000000	-1.000000	-1.000000	-1.000000	-1.000000	-1.000000	54.000000	0.000000	-1.000000	-1.000000	2782517.000000	1776581969.701715
5765.130000	-1976.580000	26670.690000	56356.245000	44192.070000	30148.380000	-2440.800000	-2744.280000	4.922451	2.326265	0.318137	1.766508	3.440400	0.010359	-1.385628	-1.102830	-0.412020	3.372460	1.693860	-0.849912	-0.042175	0.516417	-1.000000	-1.000000	-1.000000	-1.000000	-1.000000	-1.000000	-1.000000	54.000000	0.000000	-1.000000	-1.000000	2782518.000000	1776581969.705832
5769.810000	-1956.420000	26705.610000	56368.035000	44198.460000	30170.745000	-2430.810000	-2741.130000	5.459957	3.834285	2.980855	2.763620	8.037747	1.509006	-2.482903	-2.667821	-0.412020	3.372460	1.693860	-0.849912	-0.042175	0.516417	-1.000000	-1.000000	-1.000000	-1.000000	-1.000000	-1.000000	-1.000000	54.000000	0.000000	-1.000000	-1.000000	2782519.000000	1776581969.705853
5767.020000	-1967.355000	26687.790000	56353.320000	44181.360000	30164.625000	-2427.615000	-2742.480000	4.014750	5.316507	8.603676	4.140592	11.337572	6.172917	-1.286070	-2.682389	-0.412020	3.372460	1.693860	-0.849912	-0.042175	0.516417	-1.000000	-1.000000	-1.000000	-1.000000	-1.000000	-1.000000	-1.000000	54.000000	0.000000	-1.000000	-1.000000	2782520.000000	1776581969.709793
5765.445000	-1979.955000	26675.145000	56345.895000	44164.395000	30148.155000	-2425.815000	-2742.030000	1.909474	5.670617	12.235661	3.733408	8.477196	9.071001	0.808489	-1.391681	-0.412020	3.372460	1.693860	-0.849912	-0.042175	0.516417	-1.000000	-1.000000	-1.000000	-1.000000	-1.000000	-1.000000	-1.000000	54.000000	0.000000	-1.000000	-1.000000	2782521.000000	1776581969.709815
5762.295000	-1985.805000	26658.135000	56350.620000	44175.555000	30155.310000	-2416.140000	-2742.255000	-0.142765	2.810986	8.101061	0.333824	-0.834204	5.623918	1.916931	0.227505	0.564620	2.975700	2.121140	-0.850279	-0.043762	0.517821	-1.000000	-1.000000	-1.000000	-1.000000	-1.000000	-1.000000	-1.000000	54.000000	0.000000	-1.000000	-1.000000	2782522.000000	1776581969.713610
5762.475000	-1979.820000	26653.230000	56349.765000	44180.325000	30152.655000	-2412.945000	-2743.290000	-1.693893	-2.277006	-2.747895	-3.842517	-10.428177	-2.537914	1.501592	1.326950	0.564620	2.975700	2.121140	-0.850279	-0.043762	0.517821	-1.000000	-1.000000	-1.000000	-1.000000	-1.000000	-1.000000	-1.000000	54.000000	0.000000	-1.000000	-1.000000	2782523.000000	1776581969.713620
5766.615000	-1956.420000	26694.360000	56364.120000	44180.010000	30141.855000	-2418.570000	-2744.415000	-2.215200	-5.438121	-12.476586	-5.485814	-13.786907	-9.947096	-0.010694	1.564445	0.564620	2.975700	2.121140	-0.850279	-0.043762	0.517821	-1.000000	-1.000000	-1.000000	-1.000000	-1.000000	-1.000000	-1.000000	54.000000	0.000000	-1.000000	-1.000000	2782524.000000	1776581969.717590
5772.330000	-1955.520000	26687.655000	56356.605000	44168.310000	30134.475000	-2412.540000	-2737.665000	-1.315416	-3.608728	-13.314785	-3.506849	-10.220719	-13.056153	-2.132838	1.214894	0.564620	2.975700	2.121140	-0.850279	-0.043762	0.517821	-1.000000	-1.000000	-1.000000	-1.000000	-1.000000	-1.000000	-1.000000	54.000000	0.000000	-1.000000	-1.000000	2782525.000000	1776581969.717596
5768.055000	-1968.615000	26669.610000	56349.135000	44168.760000	30140.145000	-2408.985000	-2737.620000	0.557370	1.264033	-5.809038	-0.026737	-3.810802	-11.286774	-3.852081	0.952277	0.564620	2.975700	2.121140	-0.850279	-0.043762	0.517821	-1.000000	-1.000000	-1.000000	-1.000000	-1.000000	-1.000000	-1.000000	54.000000	0.000000	-1.000000	-1.000000	2782526.000000	1776581969.721468
5762.520000	-1976.580000	26653.095000	56343.330000	44172.900000	30147.030000	-2406.105000	-2740.680000	1.877730	3.932098	1.860482	1.758681	1.687267	-5.376341	-3.964670	0.934085	0.564620	2.975700	2.121140	-0.850279	-0.043762	0.517821	-1.000000	-1.000000	-1.000000	-1.000000	-1.000000	-1.000000	-1.000000	54.000000	0.000000	-1.000000	-1.000000	2782527.000000	1776581969.721476
5760.585000	-1972.845000	26682.075000	56362.725000	44185.185000	30159.225000	-2403.000000	-2740.680000	1.371038	1.918547	4.245136	1.276657	5.364753	2.885762	-2.363534	0.594946	0.564620	2.975700	2.121140	-0.850279	-0.043762	0.517821	-1.000000	-1.000000	-1.000000	-1.000000	-1.000000	-1.000000	-1.000000	54.000000	0.000000	-1.000000	-1.000000	2782528.000000	1776581969.726085
5751.720000	-1986.300000	26673.660000	56339.865000	44164.305000	30155.670000	-2398.950000	-2742.615000	-0.661418	-2.454507	3.421871	0.420667	7.271123	10.340706	-0.015391	-0.329814	0.564620	2.975700	2.121140	-0.850279	-0.043762	0.517821	-1.000000	-1.000000	-1.000000	-1.000000	-1.000000	-1.000000	-1.000000	54.000000	0.000000	-1.000000	-1.000000	2782529.000000	1776581969.726100
5757.525000	-1985.400000	26666.280000	56340.225000	44158.950000	30140.505000	-2406.195000	-2742.570000	-2.693421	-5.688738	2.712184	-0.107812	6.361084	13.174899	1.791000	-1.371913	0.564620	2.975700	2.121140	-0.850279	-0.043762	0.517821	-1.000000	-1.000000	-1.000000	-1.000000	-1.000000	-1.000000	-1.000000	54.000000	0.000000	-1.000000	-1.000000	2782530.000000	1776581969.729863
5775.435000	-1968.075000	26665.245000	56358.540000	44180.145000	30143.025000	-2410.470000	-2738.565000	-2.741740	-5.534046	2.075799	-0.462319	2.822533	9.492089	1.948598	-1.797466	0.564620	2.975700	2.121140	-0.850279	-0.043762	0.517821	-1.000000	-1.000000	-1.000000	-1.000000	-1.000000	-1.000000	-1.000000	54.000000	0.000000	-1.000000	-1.000000	2782531.000000	1776581969.729878
5783.310000	-1952.550000	26673.615000	56366.865000	44185.410000	30145.680000	-2403.225000	-2734.695000	0.331249	-1.128605	0.969110	0.576084	-0.108856	1.816923	0.573598	-1.106795	0.427280	3.738700	1.739640	-0.849119	-0.042908	0.516905	-1.000000	-1.000000	-1.000000	-1.000000	-1.000000	-1.000000	-1.000000	54.000000	0.000000	-1.000000	-1.000000	2782532.000000	1776581969.733912
5773.725000	-1957.905000	26690.445000	56363.940000	44174.970000	30147.120000	-2408.220000	-2745.675000	4.697567	5.598804	0.552780	3.224497	-0.349052	-4.768860	-0.778343	0.249603	0.427280	3.738700	1.739640	-0.849119	-0.042908	0.516905	-1.000000	-1.000000	-1.000000	-1.000000	-1.000000	-1.000000	-1.000000	54.000000	0.000000	-1.000000	-1.000000	2782533.000000	1776581969.733935
5778.045000	-1951.020000	26712.405000	56374.965000	44171.955000	30141.270000	-2401.740000	-2742.525000	6.484515	10.084675	2.161023	5.193659	0.208506	-7.205489	-0.853367	0.961853	0.427280	3.738700	1.739640	-0.849119	-0.042908	0.516905	-1.000000	-1.000000	-1.000000	-1.000000	-1.000000	-1.000000	-1.000000	54.000000	0.000000	-1.000000	-1.000000	2782534.000000	1776581969.737571
5773.275000	-1957.455000	26699.985000	56361.240000	44159.220000	30135.645000	-2394.540000	-2743.020000	3.923365	9.053824	4.857175	4.362657	-0.921531	-6.086680	0.436030	0.536589	0.427280	3.738700	1.739640	-0.849119	-0.042908	0.516905	-1.000000	-1.000000	-1.000000	-1.000000	-1.000000	-1.000000	-1.000000	54.000000	0.000000	-1.000000	-1.000000	2782535.000000	1776581969.737588
5770.170000	-1960.830000	26682.120000	56351.340000	44156.430000	30133.980000	-2390.715000	-2746.395000	-1.249548	3.065665	4.874387	0.325505	-3.699020	-3.609225	2.472215	-0.244835	0.427280	3.738700	1.739640	-0.849119	-0.042908	0.516905	-1.000000	-1.000000	-1.000000	-1.000000	-1.000000	-1.000000	-1.000000	54.000000	0.000000	-1.000000	-1.000000	2782536.000000	1776581969.741650
5771.295000	-1957.230000	26690.805000	56361.285000	44172.045000	30159.135000	-2382.570000	-2742.750000	-5.940829	-4.460249	-0.191276	-5.209854	-5.672104	-0.747171	4.137860	-0.616310	0.427280	3.738700	1.739640	-0.849119	-0.042908	0.516905	-1.000000	-1.000000	-1.000000	-1.000000	-1.000000	-1.000000	-1.000000	54.000000	0.000000	-1.000000	-1.000000	2782537.000000	1776581969.741664
5766.345000	-1961.730000	26700.705000	56384.100000	44191.935000	30160.575000	-2388.015000	-2746.350000	-7.804176	-9.534545	-7.091147	-8.201491	-3.825470	2.944156	4.251895	-0.359220	0.427280	3.738700	1.739640	-0.849119	-0.042908	0.516905	-1.000000	-1.000000	-1.000000	-1.000000	-1.000000	-1.000000	-1.000000	54.000000	0.000000	-1.000000	-1.000000	2782538.000000	1776581969.745688
5771.205000	-1968.390000	26695.620000	56392.830000	44201.610000	30152.745000	-2384.595000	-2741.220000	-6.286718	-10.232552	-10.296711	-5.464168	2.236986	6.400342	2.252700	0.337347	0.427280	3.738700	1.739640	-0.849119	-0.042908	0.516905	-1.000000	-1.000000	-1.000000	-1.000000	-1.000000	-1.000000	-1.000000	54.000000	0.000000	-1.000000	-1.000000	2782539.000000	1776581969.745697
5779.890000	-1964.205000	26670.690000	56344.320000	44187.885000	30154.770000	-2371.815000	-2731.275000	-2.256543	-7.309812	-8.652587	0.394440	8.500457	6.771230	-0.913389	1.297964	0.427280	3.738700	1.739640	-0.849119	-0.042908	0.516905	-1.000000	-1.000000	-1.000000	-1.000000	-1.000000	-1.000000	-1.000000	54.000000	0.000000	-1.000000	-1.000000	2782540.000000	1776581969.749641
5775.615000	-1962.990000	26676.630000	56350.620000	44186.220000	30148.020000	-2375.145000	-2737.665000	2.622386	-2.434971	-5.220908	2.735450	9.532217	3.106080	-3.210937	2.316115	0.427280	3.738700	1.739640	-0.849119	-0.042908	0.516905	-1.000000	-1.000000	-1.000000	-1.000000	-1.000000	-1.000000	-1.000000	54.000000	0.000000	-1.000000	-1.000000	2782541.000000	1776581969.749653
5764.140000	-1972.665000	26672.355000	56349.720000	44174.790000	30142.755000	-2383.695000	-2749.905000	5.805120	2.529673	-1.983209	-0.291891	3.813017	-2.524520	-3.961385	2.255518	-0.152600	6.012440	3.631880	-0.849790	-0.039856	0.515319	-1.000000	-1.000000	-1.000000	-1.000000	-1.000000	-1.000000	-1.000000	54.000000	0.000000	-1.000000	-1.000000	2782542.000000	1776581969.753855
5759.325000	-1977.165000	26668.485000	56345.985000	44170.560000	30147.435000	-2382.705000	-2754.090000	5.230409	5.472637	1.289447	-3.910477	-5.029927	-7.004629	-4.155486	-0.026530	-0.152600	6.012440	3.631880	-0.849790	-0.039856	0.515319	-1.000000	-1.000000	-1.000000	-1.000000	-1.000000	-1.000000	-1.000000	54.000000	0.000000	-1.000000	-1.000000	2782543.000000	1776581969.753868
5764.050000	-1975.995000	26667.720000	56348.415000	44175.780000	30160.710000	-2370.330000	-2745.315000	1.689161	5.492542	4.475327	-3.889116	-11.472318	-7.677773	-3.906217	-3.323147	-0.152600	6.012440	3.631880	-0.849790	-0.039856	0.515319	-1.000000	-1.000000	-1.000000	-1.000000	-1.000000	-1.000000	-1.000000	54.000000	0.000000	-1.000000	-1.000000	2782544.000000	1776581969.757679
5765.535000	-1973.745000	26669.205000	56350.755000	44177.760000	30157.065000	-2371.365000	-2743.470000	-1.617326	3.826664	6.761203	-0.136965	-11.719304	-3.971514	-2.165074	-4.657940	-0.152600	6.012440	3.631880	-0.849790	-0.039856	0.515319	-1.000000	-1.000000	-1.000000	-1.000000	-1.000000	-1.000000	-1.000000	54.000000	0.000000	-1.000000	-1.000000	2782545.000000	1776581969.757687
5761.530000	-1976.400000	26668.710000	56351.070000	44176.995000	30157.695000	-2371.590000	-2747.970000	-2.401100	2.254466	7.566479	4.854345	-6.026901	1.505762	0.829766	-2.785573	-0.152600	6.012440	3.631880	-0.849790	-0.039856	0.515319	-1.000000	-1.000000	-1.000000	-1.000000	-1.000000	-1.000000	-1.000000	54.000000	0.000000	-1.000000	-1.000000	2782546.000000	1776581969.761662
5768.280000	-1967.625000	26679.105000	56360.610000	44175.780000	30155.850000	-2369.520000	-2743.830000	-0.975604	1.512917	6.863828	8.291412	1.772095	5.059879	3.264158	0.582457	-0.152600	6.012440	3.631880	-0.849790	-0.039856	0.515319	-1.000000	-1.000000	-1.000000	-1.000000	-1.000000	-1.000000	-1.000000	54.000000	0.000000	-1.000000	-1.000000	2782547.000000	1776581969.761669
5769.315000	-1968.660000	26675.100000	56357.235000	44172.810000	30153.420000	-2367.090000	-2739.960000	1.187410	1.462348	5.084908	8.711963	7.372862	5.015228	3.910062	3.236028	-0.152600	6.012440	3.631880	-0.849790	-0.039856	0.515319	-1.000000	-1.000000	-1.000000	-1.000000	-1.000000	-1.000000	-1.000000	54.000000	0.000000	-1.000000	-1.000000	2782548.000000	1776581969.765722
5765.850000	-1971.450000	26671.410000	56353.455000	44171.685000	30147.615000	-2368.215000	-2742.885000	2.709901	1.382464	2.396096	5.966498	8.667696	2.177113	2.942544	4.198055	-0.152600	6.012440	3.631880	-0.849790	-0.039856	0.515319	-1.000000	-1.000000	-1.000000	-1.000000	-1.000000	-1.000000	-1.000000	54.000000	0.000000	-1.000000	-1.000000	2782549.000000	1776581969.765731
5770.440000	-1963.980000	26680.635000	56361.060000	44170.470000	30125.295000	-2372.580000	-2741.715000	2.670087	0.536057	-0.989467	1.082843	6.267241	-1.822746	1.055387	3.335395	-0.152600	6.012440	3.631880	-0.849790	-0.039856	0.515319	-1.000000	-1.000000	-1.000000	-1.000000	-1.000000	-1.000000	-1.000000	54.000000	0.000000	-1.000000	-1.000000	2782550.000000	1776581969.769801
5768.820000	-1963.755000	26683.830000	56371.635000	44171.145000	30098.160000	-2379.870000	-2745.045000	1.236706	-0.802824	-3.778163	-3.432568	2.355391	-5.995947	-1.191421	1.123854	-0.152600	6.012440	3.631880	-0.849790	-0.039856	0.515319	-1.000000	-1.000000	-1.000000	-1.000000	-1.000000	-1.000000	-1.000000	54.000000	0.000000	-1.000000	-1.000000	2782551.000000	1776581969.769820
5766.660000	-1965.510000	26685.360000	56379.915000	44180.235000	30114.360000	-2375.055000	-2746.125000	-0.673635	-1.906936	-4.690372	-5.114821	-0.756696	-8.889485	-3.070832	-1.427646	-1.663340	6.775440	4.532220	-0.849790	-0.038818	0.517333	-1.000000	-1.000000	-1.000000	-1.000000	-1.000000	-1.000000	-1.000000	54.000000	0.000000	-1.000000	-1.000000	2782552.000000	1776581969.777895
5765.310000	-1968.705000	26676.810000	56375.685000	44189.505000	30151.305000	-2367.405000	-2746.485000	-2.315837	-2.666174	-4.123994	-3.928406	-1.583887	-6.797323	-3.319312	-3.239999	-1.663340	6.775440	4.532220	-0.849790	-0.038818	0.517333	-1.000000	-1.000000	-1.000000	-1.000000	-1.000000	-1.000000	-1.000000	54.000000	0.000000	-1.000000	-1.000000	2782553.000000	1776581969.777911
5765.625000	-1972.260000	26666.730000	56357.910000	44184.240000	30175.695000	-2358.855000	-2745.495000	-3.172660	-3.247786	-3.643039	-2.467234	-0.414355	2.851634	-1.086006	-3.577300	-1.663340	6.775440	4.532220	-0.849790	-0.038818	0.517333	-1.000000	-1.000000	-1.000000	-1.000000	-1.000000	-1.000000	-1.000000	54.000000	0.000000	-1.000000	-1.000000	2782554.000000	1776581969.778095
5753.970000	-1984.095000	26658.855000	56337.570000	44165.745000	30163.545000	-2364.255000	-2756.835000	-3.102016	-3.663282	-4.147175	-3.508751	0.358205	15.556587	2.526005	-2.595471	-1.663340	6.775440	4.532220	-0.849790	-0.038818	0.517333	-1.000000	-1.000000	-1.000000	-1.000000	-1.000000	-1.000000	-1.000000	54.000000	0.000000	-1.000000	-1.000000	2782555.000000	1776581969.778100
5757.795000	-1975.230000	26676.630000	56347.830000	44176.545000	30163.500000	-2360.340000	-2753.190000	-2.472354	-3.591659	-4.454748	-6.645347	-1.262793	21.576537	4.884532	-1.258980	-1.663340	6.775440	4.532220	-0.849790	-0.038818	0.517333	-1.000000	-1.000000	-1.000000	-1.000000	-1.000000	-1.000000	-1.000000	54.000000	0.000000	-1.000000	-1.000000	2782556.000000	1776581969.781796
5766.480000	-1965.825000	26678.385000	56361.060000	44185.995000	30158.235000	-2363.310000	-2747.340000	-1.209927	-2.010884	-2.264808	-7.669488	-3.725152	15.413689	4.307339	0.035512	-1.663340	6.775440	4.532220	-0.849790	-0.038818	0.517333	-1.000000	-1.000000	-1.000000	-1.000000	-1.000000	-1.000000	-1.000000	54.000000	0.000000	-1.000000	-1.000000	2782557.000000	1776581969.781804
5770.305000	-1965.015000	26678.115000	56371.140000	44178.255000	30146.220000	-2362.185000	-2743.965000	1.198519	1.583889	2.494256	-3.056011	-4.009365	0.571462	1.371961	1.724448	-1.663340	6.775440	4.532220	-0.849790	-0.038818	0.517333	-1.000000	-1.000000	-1.000000	-1.000000	-1.000000	-1.000000	-1.000000	54.000000	0.000000	-1.000000	-1.000000	2782558.000000	1776581969.785732
5763.105000	-1980.270000	26648.595000	56336.805000	44170.110000	30153.285000	-2351.655000	-2744.640000	3.948726	5.205027	6.290410	4.842006	-2.120117	-14.441091	-1.838456	3.558582	-1.663340	6.775440	4.532220	-0.849790	-0.038818	0.517333	-1.000000	-1.000000	-1.000000	-1.000000	-1.000000	-1.000000	-1.000000	54.000000	0.000000	-1.000000	-1.000000	2782559.000000	1776581969.785745
5758.920000	-1981.890000	26650.125000	56335.320000	44159.535000	30142.935000	-2357.730000	-2749.185000	4.874058	5.743343	5.475237	9.389893	-0.530003	-22.111901	-3.369723	4.230499	-1.663340	6.775440	4.532220	-0.849790	-0.038818	0.517333	-1.000000	-1.000000	-1.000000	-1.000000	-1.000000	-1.000000	-1.000000	54.000000	0.000000	-1.000000	-1.000000	2782560.000000	1776581969.792465
5763.915000	-1969.470000	26676.045000	56345.445000	44149.950000	30131.910000	-2355.255000	-2745.360000	3.026604	2.941889	1.347261	7.624430	-0.682200	-20.211617	-3.032154	2.887976	-1.663340	6.775440	4.532220	-0.849790	-0.038818	0.517333	-1.000000	-1.000000	-1.000000	-1.000000	-1.000000	-1.000000	-1.000000	54.000000	0.000000	-1.000000	-1.000000	2782561.000000	1776581969.792495
5761.710000	-1969.290000	26678.115000	56346.975000	44151.030000	30127.635000	-2357.505000	-2748.600000	-0.071678	-0.160223	-0.868743	3.176993	-1.709879	-11.906565	-1.979331	0.244162	-0.747740	6.912780	3.509800	-0.850340	-0.039184	0.518675	-1.000000	-1.000000	-1.000000	-1.000000	-1.000000	-1.000000	-1.000000	54.000000	0.000000	-1.000000	-1.000000	2782562.000000	1776581969.793805
5764.230000	-1966.545000	26674.380000	56347.785000	44163.900000	30139.515000	-2356.200000	-2746.395000	-2.304892	-1.212181	0.850042	0.396132	-1.356063	-1.569637	-1.060404	-2.183380	-0.747740	6.912780	3.509800	-0.850340	-0.039184	0.518675	-1.000000	-1.000000	-1.000000	-1.000000	-1.000000	-1.000000	-1.000000	54.000000	0.000000	-1.000000	-1.000000	2782563.000000	1776581969.793818
5768.775000	-1961.640000	26676.855000	56350.890000	44166.420000	30135.960000	-2357.640000	-2744.685000	-2.709805	-0.543665	3.340317	0.052263	1.798450	7.865533	-0.426770	-3.277881	-0.747740	6.912780	3.509800	-0.850340	-0.039184	0.518675	-1.000000	-1.000000	-1.000000	-1.000000	-1.000000	-1.000000	-1.000000	54.000000	0.000000	-1.000000	-1.000000	2782564.000000	1776581969.797869
5771.070000	-1959.795000	26682.840000	56361.960000	44168.085000	30104.685000	-2362.185000	-2744.820000	-1.491241	0.462198	3.468200	0.876016	6.303554	13.490020	-0.035226	-2.778568	-0.747740	6.912780	3.509800	-0.850340	-0.039184	0.518675	-1.000000	-1.000000	-1.000000	-1.000000	-1.000000	-1.000000	-1.000000	54.000000	0.000000	-1.000000	-1.000000	2782565.000000	1776581969.797881
5768.910000	-1961.370000	26680.770000	56362.185000	44165.700000	30113.100000	-2356.470000	-2745.135000	0.259514	0.719744	1.185401	1.676165	8.817169	12.767199	0.194949	-1.327059	-0.747740	6.912780	3.509800	-0.850340	-0.039184	0.518675	-1.000000	-1.000000	-1.000000	-1.000000	-1.000000	-1.000000	-1.000000	54.000000	0.000000	-1.000000	-1.000000	2782566.000000	1776581969.801685
5761.710000	-1972.170000	26666.640000	56351.115000	44157.600000	30145.365000	-2349.765000	-2749.545000	1.055868	-0.397079	-2.230632	1.302093	7.094147	7.845665	0.731329	-0.001711	-0.747740	6.912780	3.509800	-0.850340	-0.039184	0.518675	-1.000000	-1.000000	-1.000000	-1.000000	-1.000000	-1.000000	-1.000000	54.000000	0.000000	-1.000000	-1.000000	2782567.000000	1776581969.801693
5747.895000	-1994.580000	26639.235000	56342.430000	44172.540000	30169.485000	-2349.585000	-2761.200000	-0.075093	-3.111316	-6.197102	-1.259406	1.956945	4.831796	1.915044	0.265158	-0.747740	6.912780	3.509800	-0.850340	-0.039184	0.518675	-1.000000	-1.000000	-1.000000	-1.000000	-1.000000	-1.000000	-1.000000	54.000000	0.000000	-1.000000	-1.000000	2782568.000000	1776581969.805837
5739.075000	-2004.120000	26638.020000	56344.500000	44186.085000	30172.455000	-2350.215000	-2765.115000	-2.808947	-6.763875	-9.984930	-5.226509	-2.946212	6.152798	2.992171	-0.780954	-0.747740	6.912780	3.509800	-0.850340	-0.039184	0.518675	-1.000000	-1.000000	-1.000000	-1.000000	-1.000000	-1.000000	-1.000000	54.000000	0.000000	-1.000000	-1.000000	2782569.000000	1776581969.805844
5740.605000	-1995.120000	26663.130000	56348.505000	44179.605000	30160.980000	-2352.105000	-2761.470000	-5.234401	-8.850566	-10.612139	-7.713558	-4.600945	7.450686	2.750065	-2.057634	-0.747740	6.912780	3.509800	-0.850340	-0.039184	0.518675	-1.000000	-1.000000	-1.000000	-1.000000	-1.000000	-1.000000	-1.000000	54.000000	0.000000	-1.000000	-1.000000	2782570.000000	1776581969.809867
5749.335000	-1981.665000	26677.755000	56363.130000	44172.360000	30148.875000	-2353.140000	-2755.530000	-4.784883	-6.097969	-4.658270	-6.147530	-3.893265	3.229516	0.931466	-1.694461	-0.747740	6.912780	3.509800	-0.850340	-0.039184	0.518675	-1.000000	-1.000000	-1.000000	-1.000000	-1.000000	-1.000000	-1.000000	54.000000	0.000000	-1.000000	-1.000000	2782571.000000	1776581969.809879
5764.545000	-1963.170000	26671.995000	56371.860000	44185.455000	30152.610000	-2346.165000	-2746.665000	-0.299362	2.108055	6.265890	-0.595524	-3.294311	-6.452108	-1.364804	1.082324	0.701960	6.912780	2.502640	-0.850950	-0.037414	0.517821	-1.000000	-1.000000	-1.000000	-1.000000	-1.000000	-1.000000	-1.000000	54.000000	0.000000	-1.000000	-1.000000	2782572.000000	1776581969.813818
5773.185000	-1949.400000	26662.860000	56345.220000	44177.805000	30151.710000	-2340.180000	-2740.455000	6.565760	12.172140	14.902096	5.433906	-3.199832	-15.697024	-2.467577	5.004893	0.701960	6.912780	2.502640	-0.850950	-0.037414	0.517821	-1.000000	-1.000000	-1.000000	-1.000000	-1.000000	-1.000000	-1.000000	54.000000	0.000000	-1.000000	-1.000000	2782573.000000	1776581969.813837
5755.410000	-1959.390000	26685.945000	56353.005000	44173.710000	30147.705000	-2341.710000	-2748.195000	11.558695	18.190024	15.545978	7.219046	-2.963508	-18.595350	-1.713651	7.452463	0.701960	6.912780	2.502640	-0.850950	-0.037414	0.517821	-1.000000	-1.000000	-1.000000	-1.000000	-1.000000	-1.000000	-1.000000	54.000000	0.000000	-1.000000	-1.000000	2782574.000000	1776581969.817863
5745.285000	-1974.465000	26680.005000	56351.385000	44166.240000	30136.950000	-2348.820000	-2757.690000	10.304635	15.405147	9.350441	3.885241	-2.681871	-14.203958	-0.322814	6.020541	0.701960	6.912780	2.502640	-0.850950	-0.037414	0.517821	-1.000000	-1.000000	-1.000000	-1.000000	-1.000000	-1.000000	-1.000000	54.000000	0.000000	-1.000000	-1.000000	2782575.000000	1776581969.817890
5758.155000	-1973.475000	26673.075000	56347.785000	44157.915000	30122.640000	-2351.925000	-2755.530000	2.829150	4.106161	0.780926	-1.032848	-2.533909	-6.121710	-0.062535	0.734101	0.701960	6.912780	2.502640	-0.850950	-0.037414	0.517821	-1.000000	-1.000000	-1.000000	-1.000000	-1.000000	-1.000000	-1.000000	54.000000	0.000000	-1.000000	-1.000000	2782576.000000	1776581969.821834
5772.960000	-1961.910000	26677.125000	56361.285000	44165.790000	30127.005000	-2342.565000	-2747.205000	-5.212540	-9.176948	-6.865066	-3.889460	-1.990638	1.476340	-1.002686	-5.079708	0.701960	6.912780	2.502640	-0.850950	-0.037414	0.517821	-1.000000	-1.000000	-1.000000	-1.000000	-1.000000	-1.000000	-1.000000	54.000000	0.000000	-1.000000	-1.000000	2782577.000000	1776581969.821850
5776.560000	-1966.905000	26659.890000	56361.150000	44168.625000	30130.155000	-2341.305000	-2741.445000	-8.086983	-16.592432	-11.567941	-3.221946	-0.038574	6.981905	-1.456799	-7.411077	0.701960	6.912780	2.502640	-0.850950	-0.037414	0.517821	-1.000000	-1.000000	-1.000000	-1.000000	-1.000000	-1.000000	-1.000000	54.000000	0.000000	-1.000000	-1.000000	2782578.000000	1776581969.826198
5766.345000	-1979.055000	26642.610000	56351.655000	44166.105000	30136.905000	-2340.180000	-2743.380000	-5.669083	-15.657195	-12.857815	-0.325516	3.300628	10.725851	-0.397413	-5.263662	0.701960	6.912780	2.502640	-0.850950	-0.037414	0.517821	-1.000000	-1.000000	-1.000000	-1.000000	-1.000000	-1.000000	-1.000000	54.000000	0.000000	-1.000000	-1.000000	2782579.000000	1776581969.826210
5763.420000	-1964.790000	26682.480000	56368.890000	44167.185000	30141.090000	-2341.215000	-2750.265000	-2.225190	-9.397262	-10.723531	2.078993	6.201245	12.714606	1.296511	-1.242907	0.701960	6.912780	2.502640	-0.850950	-0.037414	0.517821	-1.000000	-1.000000	-1.000000	-1.000000	-1.000000	-1.000000	-1.000000	54.000000	0.000000	-1.000000	-1.000000	2782580.000000	1776581969.829885
5767.110000	-1952.910000	26704.575000	56387.655000	44179.065000	30138.165000	-2339.055000	-2751.165000	-0.895355	-1.286759	-3.669036	3.285066	7.028359	12.089008	2.213905	1.340112	0.701960	6.912780	2.502640	-0.850950	-0.037414	0.517821	-1.000000	-1.000000	-1.000000	-1.000000	-1.000000	-1.000000	-1.000000	54.000000	0.000000	-1.000000	-1.000000	2782581.000000	1776581969.829898
5762.520000	-1962.090000	26691.120000	56362.905000	44174.610000	30148.560000	-2334.690000	-2750.130000	-1.289660	6.209573	7.169659	3.801970	5.802681	8.372120	1.950547	1.470290	0.991900	7.004340	1.373400	-0.852049	-0.032715	0.514281	-1.000000	-1.000000	-1.000000	-1.000000	-1.000000	-1.000000	-1.000000	54.000000	0.000000	-1.000000	-1.000000	2782582.000000	1776581969.833886
5763.060000	-1972.890000	26668.485000	56336.490000	44174.880000	30161.655000	-2328.030000	-2744.685000	-1.704026	9.999770	14.608309	1.849816	3.085179	2.947205	1.187464	0.554946	0.991900	7.004340	1.373400	-0.852049	-0.032715	0.514281	-1.000000	-1.000000	-1.000000	-1.000000	-1.000000	-1.000000	-1.000000	54.000000	0.000000	-1.000000	-1.000000	2782583.000000	1776581969.833901
5768.235000	-1968.615000	26674.650000	56352.645000	44186.085000	30160.035000	-2332.620000	-2745.450000	-1.108806	8.241655	12.397085	-3.659397	-0.363828	-1.845832	0.564863	0.276460	0.991900	7.004340	1.373400	-0.852049	-0.032715	0.514281	-1.000000	-1.000000	-1.000000	-1.000000	-1.000000	-1.000000	-1.000000	54.000000	0.000000	-1.000000	-1.000000	2782584.000000	1776581969.837879
5764.635000	-1963.710000	26683.560000	56358.675000	44193.780000	30156.975000	-2336.760000	-2748.015000	0.575635	3.108881	3.013794	-8.576246	-2.936989	-5.180376	-0.220411	0.833275	0.991900	7.004340	1.373400	-0.852049	-0.032715	0.514281	-1.000000	-1.000000	-1.000000	-1.000000	-1.000000	-1.000000	-1.000000	54.000000	0.000000	-1.000000	-1.000000	2782585.000000	1776581969.837892
5766.390000	-1957.410000	26695.845000	56371.320000	44202.060000	30161.520000	-2331.495000	-2743.380000	2.438913	-1.172359	-5.415243	-7.675819	-3.386767	-7.499389	-1.518088	1.344763	0.991900	7.004340	1.373400	-0.852049	-0.032715	0.514281	-1.000000	-1.000000	-1.000000	-1.000000	-1.000000	-1.000000	-1.000000	54.000000	0.000000	-1.000000	-1.000000	2782586.000000	1776581969.841973
5763.645000	-1964.385000	26686.530000	56367.135000	44183.430000	30135.285000	-2338.830000	-2748.645000	3.314300	-2.467627	-7.783723	-1.112951	-2.588689	-9.055035	-2.703246	1.238580	0.991900	7.004340	1.373400	-0.852049	-0.032715	0.514281	-1.000000	-1.000000	-1.000000	-1.000000	-1.000000	-1.000000	-1.000000	54.000000	0.000000	-1.000000	-1.000000	2782587.000000	1776581969.841990
