Channel1	Channel2	Channel3	Channel4	Channel5	Channel6	Channel7	Channel8	FilteredChannel1	FilteredChannel2	FilteredChannel3	FilteredChannel4	FilteredChannel5	FilteredChannel6	FilteredChannel7	FilteredChannel8	GyroX	GyroY	GyroZ	AccX	AccY	AccZ	PPG1	PPG2	rawPPG1	rawPPG2	rawPPG3	Hr	Hrv	Battery	Trigger	PhysicalTrigger	AutoTrigger	NumMeasurements	Timestamp
2409.210000	-9253.755000	20857.275000	63025.920000	48352.500000	32680.260000	440.910000	-5991.840000	4.557450	7.812429	4.267745	0.189692	-1.020619	-9.922897	-1.225715	2.309168	-4.242280	0.412020	1.113980	-0.840025	0.012451	0.530577	-1.000000	-1.000000	-1.000000	-1.000000	-1.000000	-1.000000	-1.000000	54.000000	0.000000	-1.000000	-1.000000	2555434.000000	1776581514.952485
2410.605000	-9257.895000	20851.875000	63023.310000	48354.750000	32666.175000	438.615000	-5993.190000	3.599170	5.779370	3.452027	1.273921	-5.452527	-15.888912	-1.714242	2.830573	-4.242280	0.412020	1.113980	-0.840025	0.012451	0.530577	-1.000000	-1.000000	-1.000000	-1.000000	-1.000000	-1.000000	-1.000000	54.000000	0.000000	-1.000000	-1.000000	2555435.000000	1776581514.952499
2411.730000	-9260.055000	20848.680000	63024.930000	48371.400000	32686.875000	437.400000	-5999.040000	1.643824	1.328958	0.479715	0.997579	-6.841160	-16.690385	-2.199618	2.127177	-4.242280	0.412020	1.113980	-0.840025	0.012451	0.530577	-1.000000	-1.000000	-1.000000	-1.000000	-1.000000	-1.000000	-1.000000	54.000000	0.000000	-1.000000	-1.000000	2555436.000000	1776581514.956499
2408.805000	-9260.190000	20847.285000	63023.445000	48373.830000	32713.830000	439.020000	-6005.070000	-0.319382	-3.107828	-3.021622	-0.264301	-3.840178	-9.764412	-2.276207	-0.059956	-4.242280	0.412020	1.113980	-0.840025	0.012451	0.530577	-1.000000	-1.000000	-1.000000	-1.000000	-1.000000	-1.000000	-1.000000	54.000000	0.000000	-1.000000	-1.000000	2555437.000000	1776581514.956506
2399.940000	-9266.850000	20842.560000	63018.765000	48364.245000	32696.325000	436.590000	-6007.725000	-1.890428	-5.566466	-5.164192	-1.539706	1.299733	3.110115	-1.524994	-2.867369	-4.242280	0.412020	1.113980	-0.840025	0.012451	0.530577	-1.000000	-1.000000	-1.000000	-1.000000	-1.000000	-1.000000	-1.000000	54.000000	0.000000	-1.000000	-1.000000	2555438.000000	1776581514.962305
2395.530000	-9270.225000	20842.065000	63017.955000	48356.055000	32671.440000	437.085000	-6008.220000	-3.201446	-5.576629	-5.024560	-2.288383	4.240494	13.969977	-0.132077	-4.648398	-4.242280	0.412020	1.113980	-0.840025	0.012451	0.530577	-1.000000	-1.000000	-1.000000	-1.000000	-1.000000	-1.000000	-1.000000	54.000000	0.000000	-1.000000	-1.000000	2555439.000000	1776581514.962314
2396.295000	-9277.650000	20831.355000	63004.950000	48349.395000	32690.340000	441.360000	-6008.805000	-3.949939	-3.929151	-3.078472	-2.502030	2.731381	15.547003	1.353632	-4.164195	-4.242280	0.412020	1.113980	-0.840025	0.012451	0.530577	-1.000000	-1.000000	-1.000000	-1.000000	-1.000000	-1.000000	-1.000000	54.000000	0.000000	-1.000000	-1.000000	2555440.000000	1776581514.964499
2401.830000	-9269.955000	20835.900000	63009.180000	48355.965000	32721.975000	443.520000	-6005.160000	-3.184947	-1.503373	-0.546725	-2.345059	-1.327467	9.810703	2.573981	-1.518144	-4.242280	0.412020	1.113980	-0.840025	0.012451	0.530577	-1.000000	-1.000000	-1.000000	-1.000000	-1.000000	-1.000000	-1.000000	54.000000	0.000000	-1.000000	-1.000000	2555441.000000	1776581514.964508
2400.435000	-9268.920000	20834.505000	63006.885000	48355.155000	32709.105000	430.650000	-6010.290000	-0.551488	1.386160	1.779113	-1.550953	-4.060164	4.011036	2.980099	1.917601	-2.350040	0.473060	0.885080	-0.838926	0.012329	0.531249	-1.000000	-1.000000	-1.000000	-1.000000	-1.000000	-1.000000	-1.000000	54.000000	0.000000	-1.000000	-1.000000	2555442.000000	1776581514.968606
2415.285000	-9253.755000	20849.085000	63018.270000	48352.905000	32682.690000	431.460000	-5996.340000	2.970486	4.511140	3.888920	0.397735	-3.417487	0.289964	1.802636	4.531285	-2.350040	0.473060	0.885080	-0.838926	0.012329	0.531249	-1.000000	-1.000000	-1.000000	-1.000000	-1.000000	-1.000000	-1.000000	54.000000	0.000000	-1.000000	-1.000000	2555443.000000	1776581514.968615
2419.110000	-9246.825000	20860.560000	63031.455000	48362.490000	32688.270000	439.245000	-5992.605000	5.948000	7.193019	5.969519	3.503953	-0.321796	-4.044923	-0.387537	5.716436	-2.350040	0.473060	0.885080	-0.838926	0.012329	0.531249	-1.000000	-1.000000	-1.000000	-1.000000	-1.000000	-1.000000	-1.000000	54.000000	0.000000	-1.000000	-1.000000	2555444.000000	1776581514.972728
2411.955000	-9256.455000	20849.805000	63023.760000	48357.630000	32696.730000	443.070000	-5998.095000	6.900133	7.988530	7.250740	6.550293	3.135626	-8.632863	-1.567087	5.381491	-2.350040	0.473060	0.885080	-0.838926	0.012329	0.531249	-1.000000	-1.000000	-1.000000	-1.000000	-1.000000	-1.000000	-1.000000	54.000000	0.000000	-1.000000	-1.000000	2555445.000000	1776581514.972746
2403.180000	-9266.130000	20840.940000	63017.100000	48346.785000	32682.915000	434.880000	-6005.925000	4.439029	5.111313	5.639063	6.991680	4.812738	-9.986598	-0.906977	2.952151	-2.350040	0.473060	0.885080	-0.838926	0.012329	0.531249	-1.000000	-1.000000	-1.000000	-1.000000	-1.000000	-1.000000	-1.000000	54.000000	0.000000	-1.000000	-1.000000	2555446.000000	1776581514.976493
2392.875000	-9270.225000	20844.765000	63022.995000	48344.895000	32674.725000	428.985000	-6010.470000	-1.203650	-1.312151	0.415050	3.455333	3.388920	-7.365405	0.081326	-1.485212	-2.350040	0.473060	0.885080	-0.838926	0.012329	0.531249	-1.000000	-1.000000	-1.000000	-1.000000	-1.000000	-1.000000	-1.000000	54.000000	0.000000	-1.000000	-1.000000	2555447.000000	1776581514.976508
2384.730000	-9273.330000	20854.125000	63040.005000	48365.370000	32680.935000	429.660000	-6011.505000	-7.464847	-8.085513	-5.468079	-1.697800	0.266576	-2.973781	-0.138340	-6.011043	-2.350040	0.473060	0.885080	-0.838926	0.012329	0.531249	-1.000000	-1.000000	-1.000000	-1.000000	-1.000000	-1.000000	-1.000000	54.000000	0.000000	-1.000000	-1.000000	2555448.000000	1776581514.980577
2393.190000	-9271.980000	20851.290000	63037.620000	48364.695000	32688.675000	433.755000	-6010.290000	-10.778602	-11.270573	-8.077672	-4.650727	-1.297363	1.710362	-1.059550	-8.013015	-2.350040	0.473060	0.885080	-0.838926	0.012329	0.531249	-1.000000	-1.000000	-1.000000	-1.000000	-1.000000	-1.000000	-1.000000	54.000000	0.000000	-1.000000	-1.000000	2555449.000000	1776581514.980590
2384.370000	-9269.820000	20845.800000	63020.835000	48343.185000	32690.880000	427.770000	-6018.210000	-8.904043	-9.146564	-6.648794	-4.757893	-0.660171	6.134687	-1.280765	-6.422857	-2.350040	0.473060	0.885080	-0.838926	0.012329	0.531249	-1.000000	-1.000000	-1.000000	-1.000000	-1.000000	-1.000000	-1.000000	54.000000	0.000000	-1.000000	-1.000000	2555450.000000	1776581514.984727
2393.550000	-9270.000000	20842.155000	63020.565000	48344.805000	32686.560000	433.620000	-6008.895000	-2.783686	-3.101003	-3.503918	-4.437628	-0.514076	8.916235	-0.458648	-2.376957	-2.350040	0.473060	0.885080	-0.838926	0.012329	0.531249	-1.000000	-1.000000	-1.000000	-1.000000	-1.000000	-1.000000	-1.000000	54.000000	0.000000	-1.000000	-1.000000	2555451.000000	1776581514.984754
2407.995000	-9267.705000	20839.230000	63030.915000	48358.755000	32680.665000	438.930000	-5998.500000	4.633386	3.574506	-0.926932	-4.603811	-1.811923	8.286559	0.954981	2.443928	-0.396760	0.885080	0.289940	-0.839903	0.011780	0.534178	-1.000000	-1.000000	-1.000000	-1.000000	-1.000000	-1.000000	-1.000000	54.000000	0.000000	-1.000000	-1.000000	2555452.000000	1776581514.988596
2415.240000	-9264.420000	20830.770000	63021.960000	48362.985000	32687.955000	443.205000	-5994.630000	10.664441	7.912189	0.371857	-3.728068	-2.180846	4.260373	2.500849	6.720296	-0.396760	0.885080	0.289940	-0.839903	0.011780	0.534178	-1.000000	-1.000000	-1.000000	-1.000000	-1.000000	-1.000000	-1.000000	54.000000	0.000000	-1.000000	-1.000000	2555453.000000	1776581514.988612
2425.500000	-9258.390000	20831.715000	63023.490000	48360.330000	32679.405000	447.210000	-5987.340000	13.231539	8.807083	0.751680	-1.271042	-0.306492	-0.862844	3.513529	8.940230	-0.396760	0.885080	0.289940	-0.839903	0.011780	0.534178	-1.000000	-1.000000	-1.000000	-1.000000	-1.000000	-1.000000	-1.000000	54.000000	0.000000	-1.000000	-1.000000	2555454.000000	1776581514.992617
2407.635000	-9267.885000	20828.430000	63023.130000	48361.860000	32688.945000	448.380000	-5994.720000	10.837719	6.670872	1.023032	1.537037	2.061105	-4.515787	3.268092	7.799271	-0.396760	0.885080	0.289940	-0.839903	0.011780	0.534178	-1.000000	-1.000000	-1.000000	-1.000000	-1.000000	-1.000000	-1.000000	54.000000	0.000000	-1.000000	-1.000000	2555455.000000	1776581514.992635
2403.045000	-9262.620000	20843.055000	63024.255000	48359.295000	32687.055000	438.165000	-6004.170000	3.378556	2.497825	2.015934	3.562396	2.753784	-5.400933	1.364152	3.074193	-0.396760	0.885080	0.289940	-0.839903	0.011780	0.534178	-1.000000	-1.000000	-1.000000	-1.000000	-1.000000	-1.000000	-1.000000	54.000000	0.000000	-1.000000	-1.000000	2555456.000000	1776581514.996562
2416.320000	-9242.595000	20853.990000	63022.635000	48352.545000	32670.990000	429.120000	-6005.565000	-6.167578	-1.666880	4.171134	4.333595	1.244537	-4.128710	-2.111935	-3.716196	-0.396760	0.885080	0.289940	-0.839903	0.011780	0.534178	-1.000000	-1.000000	-1.000000	-1.000000	-1.000000	-1.000000	-1.000000	54.000000	0.000000	-1.000000	-1.000000	2555457.000000	1776581514.996574
2405.610000	-9238.815000	20862.315000	63022.320000	48346.515000	32671.080000	435.105000	-6007.725000	-12.577765	-3.263072	6.829029	3.786756	-1.613379	-2.729800	-5.835833	-9.325999	-0.396760	0.885080	0.289940	-0.839903	0.011780	0.534178	-1.000000	-1.000000	-1.000000	-1.000000	-1.000000	-1.000000	-1.000000	54.000000	0.000000	-1.000000	-1.000000	2555458.000000	1776581515.000642
2402.550000	-9245.520000	20881.755000	63049.320000	48348.630000	32670.225000	427.230000	-6014.655000	-13.115338	-2.238885	8.299740	2.757498	-4.166346	-2.091332	-7.429331	-10.908579	-0.396760	0.885080	0.289940	-0.839903	0.011780	0.534178	-1.000000	-1.000000	-1.000000	-1.000000	-1.000000	-1.000000	-1.000000	54.000000	0.000000	-1.000000	-1.000000	2555459.000000	1776581515.000656
2390.535000	-9267.840000	20867.670000	63037.620000	48343.725000	32676.570000	425.655000	-6019.605000	-9.313142	-1.674951	6.976995	2.488244	-4.741967	-1.130864	-5.761958	-8.229992	-0.396760	0.885080	0.289940	-0.839903	0.011780	0.534178	-1.000000	-1.000000	-1.000000	-1.000000	-1.000000	-1.000000	-1.000000	54.000000	0.000000	-1.000000	-1.000000	2555460.000000	1776581515.004603
2398.410000	-9273.465000	20826.090000	62982.450000	48327.705000	32686.470000	438.120000	-6006.105000	-3.950960	-4.012841	1.243057	1.364540	-3.226300	1.235727	-1.683554	-2.900417	-0.396760	0.885080	0.289940	-0.839903	0.011780	0.534178	-1.000000	-1.000000	-1.000000	-1.000000	-1.000000	-1.000000	-1.000000	54.000000	0.000000	-1.000000	-1.000000	2555461.000000	1776581515.004611
2416.095000	-9250.785000	20837.655000	62991.495000	48340.305000	32692.545000	440.235000	-5998.590000	1.743533	-7.267011	-8.662466	-3.743703	-0.897359	4.629933	3.378216	3.495165	0.045780	1.709120	-1.648080	-0.838194	0.010620	0.536376	-1.000000	-1.000000	-1.000000	-1.000000	-1.000000	-1.000000	-1.000000	54.000000	0.000000	-1.000000	-1.000000	2555462.000000	1776581515.008626
2418.930000	-9248.535000	20848.410000	63012.600000	48362.445000	32709.555000	441.405000	-5998.455000	7.506812	-6.705757	-17.028788	-9.977127	2.100203	7.473391	7.548514	9.112152	0.045780	1.709120	-1.648080	-0.838194	0.010620	0.536376	-1.000000	-1.000000	-1.000000	-1.000000	-1.000000	-1.000000	-1.000000	54.000000	0.000000	-1.000000	-1.000000	2555463.000000	1776581515.008640
2419.020000	-9246.915000	20857.050000	63027.630000	48365.100000	32707.890000	444.780000	-5994.000000	11.619770	-1.044396	-16.660884	-9.783813	6.321344	8.137616	8.798618	11.494267	0.045780	1.709120	-1.648080	-0.838194	0.010620	0.536376	-1.000000	-1.000000	-1.000000	-1.000000	-1.000000	-1.000000	-1.000000	54.000000	0.000000	-1.000000	-1.000000	2555464.000000	1776581515.012678
2415.105000	-9251.505000	20853.900000	63027.090000	48354.660000	32690.700000	440.595000	-5995.170000	11.420791	5.704531	-7.103936	-1.246572	9.691870	5.271548	6.479409	9.363718	0.045780	1.709120	-1.648080	-0.838194	0.010620	0.536376	-1.000000	-1.000000	-1.000000	-1.000000	-1.000000	-1.000000	-1.000000	54.000000	0.000000	-1.000000	-1.000000	2555465.000000	1776581515.012695
2418.255000	-9245.430000	20853.765000	63019.980000	48362.535000	32701.095000	449.055000	-5986.755000	6.393303	8.950332	5.037244	9.102899	8.730414	-1.158997	1.859810	3.931202	0.045780	1.709120	-1.648080	-0.838194	0.010620	0.536376	-1.000000	-1.000000	-1.000000	-1.000000	-1.000000	-1.000000	-1.000000	54.000000	0.000000	-1.000000	-1.000000	2555466.000000	1776581515.016791
2411.910000	-9251.865000	20842.020000	62996.445000	48344.355000	32696.280000	451.080000	-5991.120000	-0.946732	7.461128	12.453677	13.075424	2.922266	-8.111702	-2.621700	-2.076184	0.045780	1.709120	-1.648080	-0.838194	0.010620	0.536376	-1.000000	-1.000000	-1.000000	-1.000000	-1.000000	-1.000000	-1.000000	54.000000	0.000000	-1.000000	-1.000000	2555467.000000	1776581515.016814
2404.620000	-9260.190000	20844.855000	63011.385000	48340.305000	32670.720000	447.210000	-6000.255000	-7.281714	2.766026	12.213768	8.168383	-5.008795	-12.040694	-5.108667	-6.597890	0.045780	1.709120	-1.648080	-0.838194	0.010620	0.536376	-1.000000	-1.000000	-1.000000	-1.000000	-1.000000	-1.000000	-1.000000	54.000000	0.000000	-1.000000	-1.000000	2555468.000000	1776581515.020517
2408.130000	-9258.030000	20840.310000	63009.630000	48331.710000	32656.005000	451.755000	-5992.470000	-10.405911	-2.659073	6.552669	-0.694003	-11.380359	-12.527635	-5.474991	-8.878174	0.045780	1.709120	-1.648080	-0.838194	0.010620	0.536376	-1.000000	-1.000000	-1.000000	-1.000000	-1.000000	-1.000000	-1.000000	54.000000	0.000000	-1.000000	-1.000000	2555469.000000	1776581515.020529
2406.825000	-9263.205000	20826.360000	63002.835000	48327.030000	32644.665000	449.010000	-5993.145000	-9.407621	-6.225042	-0.251085	-6.889979	-13.260227	-10.604400	-4.437478	-8.356712	0.045780	1.709120	-1.648080	-0.838194	0.010620	0.536376	-1.000000	-1.000000	-1.000000	-1.000000	-1.000000	-1.000000	-1.000000	54.000000	0.000000	-1.000000	-1.000000	2555470.000000	1776581515.026066
2406.780000	-9258.345000	20834.640000	63009.360000	48334.050000	32668.200000	453.555000	-5992.380000	-4.978007	-6.391214	-5.051350	-7.957791	-9.766427	-5.810278	-2.653246	-5.073343	0.045780	1.709120	-1.648080	-0.838194	0.010620	0.536376	-1.000000	-1.000000	-1.000000	-1.000000	-1.000000	-1.000000	-1.000000	54.000000	0.000000	-1.000000	-1.000000	2555471.000000	1776581515.026091
2404.260000	-9256.230000	20853.360000	63015.975000	48351.960000	32713.110000	446.445000	-6000.975000	0.589621	-3.427279	-5.792906	-4.920469	-1.970333	3.467025	-0.774124	-0.707172	-0.595140	3.052000	-3.860780	-0.835325	0.011414	0.538817	-1.000000	-1.000000	-1.000000	-1.000000	-1.000000	-1.000000	-1.000000	54.000000	0.000000	-1.000000	-1.000000	2555472.000000	1776581515.029953
2411.010000	-9247.005000	20873.070000	63037.935000	48369.780000	32716.710000	442.170000	-5998.095000	4.918371	1.119491	-1.597693	0.395106	7.706210	16.169886	0.430268	2.536307	-0.595140	3.052000	-3.860780	-0.835325	0.011414	0.538817	-1.000000	-1.000000	-1.000000	-1.000000	-1.000000	-1.000000	-1.000000	54.000000	0.000000	-1.000000	-1.000000	2555473.000000	1776581515.029969
2421.900000	-9232.650000	20886.795000	63061.425000	48376.170000	32690.520000	435.465000	-5994.990000	7.129183	5.446917	5.481593	6.248650	15.525399	25.062800	0.481520	3.889845	-0.595140	3.052000	-3.860780	-0.835325	0.011414	0.538817	-1.000000	-1.000000	-1.000000	-1.000000	-1.000000	-1.000000	-1.000000	54.000000	0.000000	-1.000000	-1.000000	2555474.000000	1776581515.032773
2423.070000	-9236.070000	20867.715000	63031.770000	48367.125000	32689.170000	435.330000	-5991.435000	7.533154	7.973320	10.375258	9.933485	17.281888	21.775352	-0.177058	4.122100	-0.595140	3.052000	-3.860780	-0.835325	0.011414	0.538817	-1.000000	-1.000000	-1.000000	-1.000000	-1.000000	-1.000000	-1.000000	54.000000	0.000000	-1.000000	-1.000000	2555475.000000	1776581515.032788
2426.400000	-9240.345000	20854.890000	63014.085000	48369.555000	32711.355000	449.910000	-5981.580000	6.236667	7.150713	8.110805	7.387428	11.048422	7.078420	-0.154728	4.129416	-0.595140	3.052000	-3.860780	-0.835325	0.011414	0.538817	-1.000000	-1.000000	-1.000000	-1.000000	-1.000000	-1.000000	-1.000000	54.000000	0.000000	-1.000000	-1.000000	2555476.000000	1776581515.036826
2419.335000	-9246.240000	20855.430000	63021.375000	48357.855000	32709.150000	446.220000	-5987.475000	3.049917	2.476184	-1.270479	-1.923278	-0.548672	-9.011149	1.637589	3.976489	-0.595140	3.052000	-3.860780	-0.835325	0.011414	0.538817	-1.000000	-1.000000	-1.000000	-1.000000	-1.000000	-1.000000	-1.000000	54.000000	0.000000	-1.000000	-1.000000	2555477.000000	1776581515.036855
2422.980000	-9242.820000	20859.930000	63027.405000	48347.820000	32691.780000	442.395000	-5984.280000	-1.480295	-4.024115	-11.513821	-11.640218	-12.046024	-18.115133	4.126075	2.912066	-0.595140	3.052000	-3.860780	-0.835325	0.011414	0.538817	-1.000000	-1.000000	-1.000000	-1.000000	-1.000000	-1.000000	-1.000000	54.000000	0.000000	-1.000000	-1.000000	2555478.000000	1776581515.091160
2413.395000	-9252.090000	20851.605000	63019.530000	48347.055000	32683.635000	437.670000	-5994.720000	-5.773436	-8.877890	-15.797601	-14.663292	-18.592796	-19.468803	4.810174	0.396140	-0.595140	3.052000	-3.860780	-0.835325	0.011414	0.538817	-1.000000	-1.000000	-1.000000	-1.000000	-1.000000	-1.000000	-1.000000	54.000000	0.000000	-1.000000	-1.000000	2555479.000000	1776581515.091187
2414.745000	-9249.705000	20854.080000	63018.675000	48347.820000	32677.425000	442.170000	-5993.685000	-8.173145	-9.882827	-12.435426	-10.083953	-17.675169	-15.902646	2.804046	-2.982375	-0.595140	3.052000	-3.860780	-0.835325	0.011414	0.538817	-1.000000	-1.000000	-1.000000	-1.000000	-1.000000	-1.000000	-1.000000	54.000000	0.000000	-1.000000	-1.000000	2555480.000000	1776581515.091210
2415.060000	-9251.145000	20851.650000	63016.650000	48341.250000	32671.170000	439.875000	-5993.730000	-7.762558	-7.060847	-4.454309	-2.006037	-10.115431	-9.597122	-0.320070	-5.597901	-0.595140	3.052000	-3.860780	-0.835325	0.011414	0.538817	-1.000000	-1.000000	-1.000000	-1.000000	-1.000000	-1.000000	-1.000000	54.000000	0.000000	-1.000000	-1.000000	2555481.000000	1776581515.091218
2409.120000	-9259.515000	20845.530000	63016.155000	48348.855000	32682.960000	440.055000	-5998.095000	-4.738959	-2.106442	3.726064	5.125745	0.254479	-1.804888	-2.570308	-5.927673	0.839300	2.975700	-2.472120	-0.833555	0.014038	0.540526	-1.000000	-1.000000	-1.000000	-1.000000	-1.000000	-1.000000	-1.000000	54.000000	0.000000	-1.000000	-1.000000	2555482.000000	1776581515.091223
2418.255000	-9249.435000	20855.295000	63023.715000	48356.955000	32689.260000	450.630000	-5987.970000	-0.434489	2.679145	8.868561	9.023736	9.314463	6.429525	-2.975398	-3.746112	0.839300	2.975700	-2.472120	-0.833555	0.014038	0.540526	-1.000000	-1.000000	-1.000000	-1.000000	-1.000000	-1.000000	-1.000000	54.000000	0.000000	-1.000000	-1.000000	2555483.000000	1776581515.091228
2418.705000	-9240.210000	20868.210000	63037.485000	48375.585000	32710.410000	454.770000	-5990.130000	3.682195	6.145034	10.523901	9.872130	14.833477	13.625954	-1.458678	0.013724	0.839300	2.975700	-2.472120	-0.833555	0.014038	0.540526	-1.000000	-1.000000	-1.000000	-1.000000	-1.000000	-1.000000	-1.000000	54.000000	0.000000	-1.000000	-1.000000	2555484.000000	1776581515.091234
2416.095000	-9242.730000	20867.175000	63039.870000	48380.535000	32716.395000	453.195000	-5993.370000	6.385069	8.139365	9.935397	8.911026	16.175205	17.761651	0.936160	3.569426	0.839300	2.975700	-2.472120	-0.833555	0.014038	0.540526	-1.000000	-1.000000	-1.000000	-1.000000	-1.000000	-1.000000	-1.000000	54.000000	0.000000	-1.000000	-1.000000	2555485.000000	1776581515.091238
2417.985000	-9244.170000	20864.520000	63038.610000	48379.185000	32713.740000	452.745000	-5989.635000	6.640195	7.920374	7.474660	6.488180	13.069247	16.759504	2.285583	5.078143	0.839300	2.975700	-2.472120	-0.833555	0.014038	0.540526	-1.000000	-1.000000	-1.000000	-1.000000	-1.000000	-1.000000	-1.000000	54.000000	0.000000	-1.000000	-1.000000	2555486.000000	1776581515.091242
2416.320000	-9246.690000	20858.535000	63029.475000	48369.870000	32714.865000	451.080000	-5990.130000	4.489852	4.848863	2.806010	2.113470	5.626468	9.804241	1.479256	4.211253	0.839300	2.975700	-2.472120	-0.833555	0.014038	0.540526	-1.000000	-1.000000	-1.000000	-1.000000	-1.000000	-1.000000	-1.000000	54.000000	0.000000	-1.000000	-1.000000	2555487.000000	1776581515.091247
2405.925000	-9257.130000	20847.510000	63015.570000	48358.755000	32715.135000	453.015000	-5992.155000	0.986285	-0.236260	-3.345983	-3.990805	-4.470481	-0.882298	-0.791214	2.004075	0.839300	2.975700	-2.472120	-0.833555	0.014038	0.540526	-1.000000	-1.000000	-1.000000	-1.000000	-1.000000	-1.000000	-1.000000	54.000000	0.000000	-1.000000	-1.000000	2555488.000000	1776581515.091252
2409.165000	-9253.845000	20857.455000	63026.280000	48357.810000	32705.280000	452.070000	-5991.840000	-2.607239	-5.283144	-8.671279	-9.735811	-13.594621	-10.905427	-2.852083	-0.401671	0.839300	2.975700	-2.472120	-0.833555	0.014038	0.540526	-1.000000	-1.000000	-1.000000	-1.000000	-1.000000	-1.000000	-1.000000	54.000000	0.000000	-1.000000	-1.000000	2555489.000000	1776581515.091256
2416.005000	-9247.680000	20863.260000	63031.230000	48347.775000	32691.420000	443.970000	-5994.180000	-4.665121	-7.792594	-10.175949	-11.634469	-17.785674	-16.870641	-3.631899	-2.174287	0.839300	2.975700	-2.472120	-0.833555	0.014038	0.540526	-1.000000	-1.000000	-1.000000	-1.000000	-1.000000	-1.000000	-1.000000	54.000000	0.000000	-1.000000	-1.000000	2555490.000000	1776581515.091260
2424.510000	-9242.955000	20861.325000	63029.205000	48350.295000	32697.045000	454.815000	-5984.145000	-3.758181	-6.222039	-6.757920	-7.986719	-15.310686	-17.489117	-3.069299	-2.696512	0.839300	2.975700	-2.472120	-0.833555	0.014038	0.540526	-1.000000	-1.000000	-1.000000	-1.000000	-1.000000	-1.000000	-1.000000	54.000000	0.000000	-1.000000	-1.000000	2555491.000000	1776581515.091264
2427.480000	-9239.760000	20863.755000	63031.230000	48364.740000	32706.045000	459.135000	-5980.770000	-0.297698	-1.544515	-0.779989	-1.119908	-7.254429	-12.481294	-1.161146	-1.617240	0.259420	3.433500	-0.366240	-0.834471	0.014282	0.539855	-1.000000	-1.000000	-1.000000	-1.000000	-1.000000	-1.000000	-1.000000	54.000000	0.000000	-1.000000	-1.000000	2555492.000000	1776581515.091269
2424.375000	-9241.155000	20862.090000	63033.885000	48365.820000	32702.625000	454.230000	-5986.080000	3.243270	3.271866	4.117842	4.959982	3.435956	-3.122053	1.634977	0.399204	0.259420	3.433500	-0.366240	-0.834471	0.014282	0.539855	-1.000000	-1.000000	-1.000000	-1.000000	-1.000000	-1.000000	-1.000000	54.000000	0.000000	-1.000000	-1.000000	2555493.000000	1776581515.091273
2425.500000	-9238.680000	20866.095000	63049.770000	48380.085000	32701.230000	455.850000	-5982.705000	4.282805	5.523297	5.908124	8.047850	12.634103	6.641626	3.666160	1.686927	0.259420	3.433500	-0.366240	-0.834471	0.014282	0.539855	-1.000000	-1.000000	-1.000000	-1.000000	-1.000000	-1.000000	-1.000000	54.000000	0.000000	-1.000000	-1.000000	2555494.000000	1776581515.091278
2416.410000	-9247.095000	20855.790000	63034.515000	48368.385000	32686.470000	454.905000	-5983.605000	2.154070	4.388723	4.642954	7.997438	16.528585	12.134369	3.642457	1.346106	0.259420	3.433500	-0.366240	-0.834471	0.014282	0.539855	-1.000000	-1.000000	-1.000000	-1.000000	-1.000000	-1.000000	-1.000000	54.000000	0.000000	-1.000000	-1.000000	2555495.000000	1776581515.091282
2406.195000	-9251.190000	20862.315000	63028.845000	48355.470000	32676.660000	446.310000	-5992.650000	-1.937050	0.807010	1.570060	4.880960	13.205673	11.127401	1.761674	-0.191019	0.259420	3.433500	-0.366240	-0.834471	0.014282	0.539855	-1.000000	-1.000000	-1.000000	-1.000000	-1.000000	-1.000000	-1.000000	54.000000	0.000000	-1.000000	-1.000000	2555496.000000	1776581515.091294
2403.405000	-9250.200000	20870.955000	63027.135000	48351.600000	32682.960000	443.610000	-5993.955000	-5.918810	-3.185152	-1.240392	-0.581492	3.923800	5.434202	-1.007883	-2.145668	0.259420	3.433500	-0.366240	-0.834471	0.014282	0.539855	-1.000000	-1.000000	-1.000000	-1.000000	-1.000000	-1.000000	-1.000000	54.000000	0.000000	-1.000000	-1.000000	2555497.000000	1776581515.091299
2414.295000	-9241.740000	20876.805000	63045.405000	48368.790000	32694.750000	452.655000	-5986.170000	-7.308446	-5.121790	-1.851276	-5.386139	-6.134615	-0.097184	-3.148369	-3.362374	0.259420	3.433500	-0.366240	-0.834471	0.014282	0.539855	-1.000000	-1.000000	-1.000000	-1.000000	-1.000000	-1.000000	-1.000000	54.000000	0.000000	-1.000000	-1.000000	2555498.000000	1776581515.091305
2404.890000	-9254.520000	20868.030000	63047.520000	48372.930000	32698.935000	448.335000	-5996.070000	-4.692583	-3.908422	-0.487150	-6.108422	-10.826711	-1.568297	-3.117924	-2.735560	0.259420	3.433500	-0.366240	-0.834471	0.014282	0.539855	-1.000000	-1.000000	-1.000000	-1.000000	-1.000000	-1.000000	-1.000000	54.000000	0.000000	-1.000000	-1.000000	2555499.000000	1776581515.091309
2417.670000	-9248.940000	20875.860000	63064.395000	48387.870000	32712.030000	446.535000	-5993.415000	0.601153	-0.973608	0.743744	-2.381182	-8.103916	0.856180	-1.084964	-0.689774	0.259420	3.433500	-0.366240	-0.834471	0.014282	0.539855	-1.000000	-1.000000	-1.000000	-1.000000	-1.000000	-1.000000	-1.000000	54.000000	0.000000	-1.000000	-1.000000	2555500.000000	1776581515.091314
2438.955000	-9236.880000	20871.270000	63055.935000	48386.655000	32702.355000	452.340000	-5978.880000	6.140226	1.862462	0.548827	2.749750	-1.163101	3.905896	1.280465	1.664691	0.259420	3.433500	-0.366240	-0.834471	0.014282	0.539855	-1.000000	-1.000000	-1.000000	-1.000000	-1.000000	-1.000000	-1.000000	54.000000	0.000000	-1.000000	-1.000000	2555501.000000	1776581515.091318
2442.330000	-9233.235000	20854.530000	63035.505000	48369.600000	32693.535000	458.955000	-5968.890000	10.276420	4.176634	-0.999531	4.940655	4.366162	3.941515	2.922619	4.122020	0.122080	5.005280	-0.610400	-0.835996	0.013000	0.539061	-1.000000	-1.000000	-1.000000	-1.000000	-1.000000	-1.000000	-1.000000	54.000000	0.000000	-1.000000	-1.000000	2555502.000000	1776581515.091324
2435.130000	-9246.420000	20850.570000	63026.055000	48346.830000	32686.155000	452.835000	-5973.435000	11.051572	5.287584	-3.480374	1.656366	4.034537	-0.313395	3.586758	6.119257	0.122080	5.005280	-0.610400	-0.835996	0.013000	0.539061	-1.000000	-1.000000	-1.000000	-1.000000	-1.000000	-1.000000	-1.000000	54.000000	0.000000	-1.000000	-1.000000	2555503.000000	1776581515.091328
2398.005000	-9251.010000	20868.750000	63024.480000	48344.220000	32700.870000	445.275000	-5996.115000	6.102854	3.660817	-5.180955	-4.931835	-1.975396	-6.129995	2.686693	5.450140	0.122080	5.005280	-0.610400	-0.835996	0.013000	0.539061	-1.000000	-1.000000	-1.000000	-1.000000	-1.000000	-1.000000	-1.000000	54.000000	0.000000	-1.000000	-1.000000	2555504.000000	1776581515.092897
2373.255000	-9262.305000	20849.220000	63006.480000	48355.110000	32710.320000	438.795000	-6011.640000	-4.675967	-0.754536	-3.879661	-9.725550	-8.211878	-8.695382	-0.111664	0.340169	0.122080	5.005280	-0.610400	-0.835996	0.013000	0.539061	-1.000000	-1.000000	-1.000000	-1.000000	-1.000000	-1.000000	-1.000000	54.000000	0.000000	-1.000000	-1.000000	2555505.000000	1776581515.092919
2396.565000	-9250.155000	20859.120000	63014.220000	48360.510000	32702.220000	445.770000	-6001.920000	-16.056697	-5.352147	-0.104241	-9.456437	-8.577428	-5.966256	-3.454677	-7.054110	0.122080	5.005280	-0.610400	-0.835996	0.013000	0.539061	-1.000000	-1.000000	-1.000000	-1.000000	-1.000000	-1.000000	-1.000000	54.000000	0.000000	-1.000000	-1.000000	2555506.000000	1776581515.096676
2420.235000	-9234.675000	20857.410000	63028.935000	48365.010000	32707.170000	459.720000	-5985.495000	-19.008994	-6.436028	3.674545	-3.830345	-2.089566	-0.676522	-4.630302	-10.877624	0.122080	5.005280	-0.610400	-0.835996	0.013000	0.539061	-1.000000	-1.000000	-1.000000	-1.000000	-1.000000	-1.000000	-1.000000	54.000000	0.000000	-1.000000	-1.000000	2555507.000000	1776581515.096690
2444.760000	-9229.770000	20855.160000	63027.585000	48359.835000	32699.340000	455.760000	-5977.665000	-8.990093	-2.466215	5.792633	5.105901	6.585010	3.152990	-2.232460	-7.106860	0.122080	5.005280	-0.610400	-0.835996	0.013000	0.539061	-1.000000	-1.000000	-1.000000	-1.000000	-1.000000	-1.000000	-1.000000	54.000000	0.000000	-1.000000	-1.000000	2555508.000000	1776581515.100849
2427.165000	-9242.010000	20864.700000	63025.605000	48353.850000	32684.580000	450.585000	-5982.840000	7.960252	3.575034	5.773596	12.815945	11.508410	3.465035	1.699642	1.812297	0.122080	5.005280	-0.610400	-0.835996	0.013000	0.539061	-1.000000	-1.000000	-1.000000	-1.000000	-1.000000	-1.000000	-1.000000	54.000000	0.000000	-1.000000	-1.000000	2555509.000000	1776581515.100864
2429.415000	-9226.890000	20882.970000	63040.230000	48355.875000	32668.605000	450.765000	-5975.730000	19.747936	6.836810	4.571025	15.073390	10.054939	0.361848	3.716320	9.330432	0.122080	5.005280	-0.610400	-0.835996	0.013000	0.539061	-1.000000	-1.000000	-1.000000	-1.000000	-1.000000	-1.000000	-1.000000	54.000000	0.000000	-1.000000	-1.000000	2555510.000000	1776581515.104661
2439.180000	-9218.835000	20889.585000	63043.695000	48349.215000	32653.845000	449.505000	-5970.735000	19.247015	5.855895	3.726463	11.586595	4.117722	-4.210509	2.658875	11.102522	0.122080	5.005280	-0.610400	-0.835996	0.013000	0.539061	-1.000000	-1.000000	-1.000000	-1.000000	-1.000000	-1.000000	-1.000000	54.000000	0.000000	-1.000000	-1.000000	2555511.000000	1776581515.104674
2436.210000	-9222.615000	20880.855000	63036.315000	48346.830000	32658.120000	446.580000	-5977.440000	9.217159	2.637051	2.955505	4.797025	-2.456726	-7.040895	-0.026950	7.368758	-0.595140	5.508860	-2.060100	-0.836912	0.013794	0.537352	-1.000000	-1.000000	-1.000000	-1.000000	-1.000000	-1.000000	-1.000000	54.000000	0.000000	-1.000000	-1.000000	2555512.000000	1776581515.108651
2428.605000	-9232.020000	20869.965000	63030.510000	48360.240000	32683.230000	445.230000	-5985.810000	-3.167880	-1.203424	0.223412	-3.030656	-6.404982	-4.919572	-2.388982	0.598806	-0.595140	5.508860	-2.060100	-0.836912	0.013794	0.537352	-1.000000	-1.000000	-1.000000	-1.000000	-1.000000	-1.000000	-1.000000	54.000000	0.000000	-1.000000	-1.000000	2555513.000000	1776581515.108671
2430.495000	-9233.505000	20870.550000	63034.425000	48372.930000	32716.485000	458.055000	-5980.950000	-12.334404	-5.105581	-4.971898	-9.736489	-5.842187	3.357749	-3.019418	-6.194885	-0.595140	5.508860	-2.060100	-0.836912	0.013794	0.537352	-1.000000	-1.000000	-1.000000	-1.000000	-1.000000	-1.000000	-1.000000	54.000000	0.000000	-1.000000	-1.000000	2555514.000000	1776581515.112628
2429.595000	-9234.315000	20869.380000	63029.655000	48364.155000	32717.475000	464.175000	-5978.250000	-15.477866	-7.839467	-9.872709	-12.897498	-1.616474	14.453996	-1.247740	-9.821517	-0.595140	5.508860	-2.060100	-0.836912	0.013794	0.537352	-1.000000	-1.000000	-1.000000	-1.000000	-1.000000	-1.000000	-1.000000	54.000000	0.000000	-1.000000	-1.000000	2555515.000000	1776581515.112642
2428.200000	-9236.250000	20868.345000	63030.420000	48360.825000	32718.285000	465.030000	-5977.350000	-12.523883	-7.833639	-11.054707	-11.462711	2.421940	20.893958	2.012230	-8.623427	-0.595140	5.508860	-2.060100	-0.836912	0.013794	0.537352	-1.000000	-1.000000	-1.000000	-1.000000	-1.000000	-1.000000	-1.000000	54.000000	0.000000	-1.000000	-1.000000	2555516.000000	1776581515.116673
2420.685000	-9244.665000	20860.785000	63030.735000	48370.230000	32733.495000	463.815000	-5982.255000	-5.988989	-4.993106	-7.777945	-6.565656	3.146634	17.229030	4.312078	-3.977182	-0.595140	5.508860	-2.060100	-0.836912	0.013794	0.537352	-1.000000	-1.000000	-1.000000	-1.000000	-1.000000	-1.000000	-1.000000	54.000000	0.000000	-1.000000	-1.000000	2555517.000000	1776581515.116688
2416.095000	-9251.190000	20852.100000	63021.960000	48359.115000	32718.375000	461.655000	-5985.540000	0.562393	-1.029149	-2.295582	-0.640534	0.984154	5.032070	3.745483	0.915669	-0.595140	5.508860	-2.060100	-0.836912	0.013794	0.537352	-1.000000	-1.000000	-1.000000	-1.000000	-1.000000	-1.000000	-1.000000	54.000000	0.000000	-1.000000	-1.000000	2555518.000000	1776581515.120766
2415.015000	-9249.165000	20855.160000	63022.635000	48349.890000	32695.785000	452.745000	-5987.655000	4.749228	2.270418	2.577735	3.812303	-2.203350	-10.053898	0.454397	3.641210	-0.595140	5.508860	-2.060100	-0.836912	0.013794	0.537352	-1.000000	-1.000000	-1.000000	-1.000000	-1.000000	-1.000000	-1.000000	54.000000	0.000000	-1.000000	-1.000000	2555519.000000	1776581515.120778
2422.755000	-9239.535000	20866.680000	63036.000000	48353.895000	32684.850000	450.675000	-5981.310000	6.468412	4.622637	5.900776	5.929226	-4.919820	-22.554560	-3.791108	4.029866	-0.595140	5.508860	-2.060100	-0.836912	0.013794	0.537352	-1.000000	-1.000000	-1.000000	-1.000000	-1.000000	-1.000000	-1.000000	54.000000	0.000000	-1.000000	-1.000000	2555520.000000	1776581515.124676
2418.975000	-9247.230000	20858.310000	63030.825000	48347.685000	32675.805000	445.860000	-5985.495000	6.830586	6.398630	8.008889	6.580203	-5.636081	-27.815545	-6.696236	3.363074	-0.595140	5.508860	-2.060100	-0.836912	0.013794	0.537352	-1.000000	-1.000000	-1.000000	-1.000000	-1.000000	-1.000000	-1.000000	54.000000	0.000000	-1.000000	-1.000000	2555521.000000	1776581515.124694
2414.610000	-9250.830000	20856.735000	63029.655000	48359.655000	32698.170000	452.835000	-5991.795000	6.211249	6.862618	8.333452	6.120708	-3.507786	-22.863661	-6.553110	2.407039	-2.456860	4.074420	-2.304260	-0.839720	0.014404	0.534117	-1.000000	-1.000000	-1.000000	-1.000000	-1.000000	-1.000000	-1.000000	54.000000	0.000000	-1.000000	-1.000000	2555522.000000	1776581515.128780
2418.480000	-9238.095000	20872.080000	63041.535000	48363.435000	32699.610000	447.075000	-5992.605000	4.302702	5.257818	6.330449	4.285592	0.872760	-8.531820	-3.243427	1.023861	-2.456860	4.074420	-2.304260	-0.839720	0.014404	0.534117	-1.000000	-1.000000	-1.000000	-1.000000	-1.000000	-1.000000	-1.000000	54.000000	0.000000	-1.000000	-1.000000	2555523.000000	1776581515.128789
2430.000000	-9221.715000	20891.655000	63063.495000	48374.955000	32695.695000	450.945000	-5982.480000	1.801846	2.912113	3.616186	2.201706	5.757093	9.097700	1.486240	-0.348517	-2.456860	4.074420	-2.304260	-0.839720	0.014404	0.534117	-1.000000	-1.000000	-1.000000	-1.000000	-1.000000	-1.000000	-1.000000	54.000000	0.000000	-1.000000	-1.000000	2555524.000000	1776581515.132712
2432.520000	-9223.020000	20884.635000	63052.290000	48360.690000	32655.870000	447.750000	-5978.385000	0.184655	1.625777	1.991916	1.214353	8.608738	20.707684	5.226594	-0.498218	-2.456860	4.074420	-2.304260	-0.839720	0.014404	0.534117	-1.000000	-1.000000	-1.000000	-1.000000	-1.000000	-1.000000	-1.000000	54.000000	0.000000	-1.000000	-1.000000	2555525.000000	1776581515.132722
2445.255000	-9217.215000	20882.205000	63044.775000	48356.820000	32630.670000	448.920000	-5963.625000	-0.063493	0.995001	0.521365	0.137665	7.174641	19.773206	6.497190	1.011550	-2.456860	4.074420	-2.304260	-0.839720	0.014404	0.534117	-1.000000	-1.000000	-1.000000	-1.000000	-1.000000	-1.000000	-1.000000	54.000000	0.000000	-1.000000	-1.000000	2555526.000000	1776581515.136761
2432.295000	-9224.820000	20883.960000	63059.445000	48370.680000	32646.240000	438.075000	-5975.280000	0.037862	-0.627879	-2.513460	-2.623006	1.964912	8.622906	5.091676	2.915087	-2.456860	4.074420	-2.304260	-0.839720	0.014404	0.534117	-1.000000	-1.000000	-1.000000	-1.000000	-1.000000	-1.000000	-1.000000	54.000000	0.000000	-1.000000	-1.000000	2555527.000000	1776581515.136774
2409.435000	-9244.800000	20870.910000	63049.680000	48384.405000	32720.355000	449.055000	-5990.130000	-1.527988	-4.122416	-6.617282	-5.782044	-3.025907	-1.368646	1.972649	2.669198	-2.456860	4.074420	-2.304260	-0.839720	0.014404	0.534117	-1.000000	-1.000000	-1.000000	-1.000000	-1.000000	-1.000000	-1.000000	54.000000	0.000000	-1.000000	-1.000000	2555528.000000	1776581515.140766
2409.390000	-9255.465000	20848.680000	63014.760000	48367.260000	32752.530000	467.955000	-5989.185000	-5.657500	-8.915998	-10.221135	-7.858705	-4.628558	0.496635	-0.521389	-1.038199	-2.456860	4.074420	-2.304260	-0.839720	0.014404	0.534117	-1.000000	-1.000000	-1.000000	-1.000000	-1.000000	-1.000000	-1.000000	54.000000	0.000000	-1.000000	-1.000000	2555529.000000	1776581515.140777
2418.165000	-9249.255000	20845.215000	62998.695000	48345.750000	32728.770000	458.910000	-5987.925000	-9.525963	-12.337302	-12.110140	-9.593878	-4.367491	11.598828	-0.522209	-5.839659	-2.456860	4.074420	-2.304260	-0.839720	0.014404	0.534117	-1.000000	-1.000000	-1.000000	-1.000000	-1.000000	-1.000000	-1.000000	54.000000	0.000000	-1.000000	-1.000000	2555530.000000	1776581515.144909
2422.530000	-9239.670000	20864.835000	63028.260000	48358.395000	32698.755000	444.285000	-5988.960000	-8.787247	-10.727208	-10.336429	-10.035290	-5.006947	17.210065	0.422802	-7.832029	-2.456860	4.074420	-2.304260	-0.839720	0.014404	0.534117	-1.000000	-1.000000	-1.000000	-1.000000	-1.000000	-1.000000	-1.000000	54.000000	0.000000	-1.000000	-1.000000	2555531.000000	1776581515.144925
2426.310000	-9236.925000	20867.670000	63029.520000	48357.225000	32688.945000	448.470000	-5981.355000	-2.667404	-3.159483	-3.212956	-5.394908	-5.580512	7.181280	-0.628528	-5.468008	-0.564620	3.769220	-1.541260	-0.842344	0.013061	0.531004	-1.000000	-1.000000	-1.000000	-1.000000	-1.000000	-1.000000	-1.000000	54.000000	0.000000	-1.000000	-1.000000	2555532.000000	1776581515.148824
2429.010000	-9239.355000	20857.905000	63014.715000	48357.405000	32718.105000	466.290000	-5971.860000	5.229608	6.637176	6.879827	4.298673	-3.610452	-12.400947	-3.108448	-0.046275	-0.564620	3.769220	-1.541260	-0.842344	0.013061	0.531004	-1.000000	-1.000000	-1.000000	-1.000000	-1.000000	-1.000000	-1.000000	54.000000	0.000000	-1.000000	-1.000000	2555533.000000	1776581515.148840
2423.205000	-9247.365000	20844.045000	63014.310000	48354.435000	32735.880000	471.600000	-5974.920000	10.270322	12.959095	13.757093	12.896509	0.596575	-25.936484	-3.648834	5.629138	-0.564620	3.769220	-1.541260	-0.842344	0.013061	0.531004	-1.000000	-1.000000	-1.000000	-1.000000	-1.000000	-1.000000	-1.000000	54.000000	0.000000	-1.000000	-1.000000	2555534.000000	1776581515.152879
2425.095000	-9244.485000	20842.200000	63014.085000	48334.185000	32692.635000	462.195000	-5975.415000	9.989976	12.655221	13.194372	15.098944	4.218442	-24.895048	-1.335362	8.445723	-0.564620	3.769220	-1.541260	-0.842344	0.013061	0.531004	-1.000000	-1.000000	-1.000000	-1.000000	-1.000000	-1.000000	-1.000000	54.000000	0.000000	-1.000000	-1.000000	2555535.000000	1776581515.152896
2428.920000	-9236.790000	20858.085000	63018.585000	48330.360000	32643.045000	450.630000	-5975.865000	5.424156	7.312041	7.076903	11.185304	4.686602	-15.396927	0.870840	6.894562	-0.564620	3.769220	-1.541260	-0.842344	0.013061	0.531004	-1.000000	-1.000000	-1.000000	-1.000000	-1.000000	-1.000000	-1.000000	54.000000	0.000000	-1.000000	-1.000000	2555536.000000	1776581515.156878
2424.645000	-9235.980000	20870.685000	63019.035000	48327.930000	32616.810000	433.665000	-5983.695000	-0.227303	1.155091	1.171369	4.762734	2.283599	-8.169014	-0.000134	2.109376	-0.564620	3.769220	-1.541260	-0.842344	0.013061	0.531004	-1.000000	-1.000000	-1.000000	-1.000000	-1.000000	-1.000000	-1.000000	54.000000	0.000000	-1.000000	-1.000000	2555537.000000	1776581515.156900
2421.135000	-9238.185000	20869.785000	63021.240000	48345.975000	32652.000000	437.535000	-5984.775000	-4.435443	-2.925737	-0.862200	-0.884524	0.141586	-4.816109	-3.413657	-3.338012	-0.564620	3.769220	-1.541260	-0.842344	0.013061	0.531004	-1.000000	-1.000000	-1.000000	-1.000000	-1.000000	-1.000000	-1.000000	54.000000	0.000000	-1.000000	-1.000000	2555538.000000	1776581515.160798
2402.685000	-9258.030000	20848.410000	63018.945000	48376.980000	32730.435000	449.820000	-5997.060000	-6.656519	-5.033771	-0.683548	-4.344924	1.529954	2.774739	-5.544393	-7.105127	-0.564620	3.769220	-1.541260	-0.842344	0.013061	0.531004	-1.000000	-1.000000	-1.000000	-1.000000	-1.000000	-1.000000	-1.000000	54.000000	0.000000	-1.000000	-1.000000	2555539.000000	1776581515.160825
2395.350000	-9261.765000	20848.320000	63022.635000	48382.470000	32756.085000	454.590000	-6002.730000	-7.505894	-6.594879	-2.080850	-5.673975	6.633024	19.913685	-3.047073	-8.112975	-0.564620	3.769220	-1.541260	-0.842344	0.013061	0.531004	-1.000000	-1.000000	-1.000000	-1.000000	-1.000000	-1.000000	-1.000000	54.000000	0.000000	-1.000000	-1.000000	2555540.000000	1776581515.164782
2398.545000	-9259.830000	20858.985000	63029.880000	48379.050000	32742.225000	458.865000	-5995.800000	-6.943590	-7.525612	-5.338681	-5.258509	11.078816	38.057529	3.191165	-6.283767	-0.564620	3.769220	-1.541260	-0.842344	0.013061	0.531004	-1.000000	-1.000000	-1.000000	-1.000000	-1.000000	-1.000000	-1.000000	54.000000	0.000000	-1.000000	-1.000000	2555541.000000	1776581515.164812
2405.070000	-9257.220000	20858.400000	63032.985000	48374.685000	32724.585000	458.055000	-5994.405000	-3.858036	-6.079349	-7.065977	-3.437670	9.468316	40.895534	8.860251	-1.891928	1.495480	3.753960	0.793520	-0.843565	0.010010	0.528502	-1.000000	-1.000000	-1.000000	-1.000000	-1.000000	-1.000000	-1.000000	54.000000	0.000000	-1.000000	-1.000000	2555542.000000	1776581515.168911
2411.505000	-9244.845000	20864.295000	63044.055000	48366.810000	32704.020000	453.645000	-5991.615000	1.905297	-1.450187	-5.132691	-0.893510	0.918314	21.530431	10.106817	3.741993	1.495480	3.753960	0.793520	-0.843565	0.010010	0.528502	-1.000000	-1.000000	-1.000000	-1.000000	-1.000000	-1.000000	-1.000000	54.000000	0.000000	-1.000000	-1.000000	2555543.000000	1776581515.168930
2418.255000	-9243.495000	20869.065000	63056.160000	48369.420000	32698.575000	453.555000	-5982.345000	8.219147	4.809971	-0.731479	1.569601	-10.031233	-10.398954	6.213399	8.291144	1.495480	3.753960	0.793520	-0.843565	0.010010	0.528502	-1.000000	-1.000000	-1.000000	-1.000000	-1.000000	-1.000000	-1.000000	54.000000	0.000000	-1.000000	-1.000000	2555544.000000	1776581515.172819
2413.620000	-9252.180000	20856.150000	63020.430000	48350.430000	32696.145000	451.530000	-5982.300000	11.825173	9.349406	3.269780	2.561771	-17.436851	-37.031812	-0.333947	9.956071	1.495480	3.753960	0.793520	-0.843565	0.010010	0.528502	-1.000000	-1.000000	-1.000000	-1.000000	-1.000000	-1.000000	-1.000000	54.000000	0.000000	-1.000000	-1.000000	2555545.000000	1776581515.172834
2414.925000	-9247.455000	20857.815000	63009.630000	48345.930000	32693.580000	449.010000	-5986.170000	10.501048	9.268243	4.326953	-0.120214	-18.328343	-45.269155	-5.969708	8.055147	1.495480	3.753960	0.793520	-0.843565	0.010010	0.528502	-1.000000	-1.000000	-1.000000	-1.000000	-1.000000	-1.000000	-1.000000	54.000000	0.000000	-1.000000	-1.000000	2555546.000000	1776581515.176997
2419.020000	-9248.625000	20855.655000	63023.265000	48363.660000	32701.185000	451.710000	-5987.385000	4.866032	4.854856	2.260828	-5.672250	-12.863595	-33.739866	-8.322889	3.078050	1.495480	3.753960	0.793520	-0.843565	0.010010	0.528502	-1.000000	-1.000000	-1.000000	-1.000000	-1.000000	-1.000000	-1.000000	54.000000	0.000000	-1.000000	-1.000000	2555547.000000	1776581515.177035
2414.835000	-9253.530000	20857.815000	63026.955000	48363.120000	32702.220000	449.370000	-5991.840000	-2.027050	-0.990047	-0.697130	-8.781732	-2.656131	-10.757163	-7.000732	-3.051654	1.495480	3.753960	0.793520	-0.843565	0.010010	0.528502	-1.000000	-1.000000	-1.000000	-1.000000	-1.000000	-1.000000	-1.000000	54.000000	0.000000	-1.000000	-1.000000	2555548.000000	1776581515.181266
2408.895000	-9263.700000	20846.115000	63017.010000	48348.765000	32691.780000	444.240000	-5994.540000	-7.310201	-5.705524	-2.485108	-5.921323	8.254658	11.823515	-3.431023	-7.797124	1.495480	3.753960	0.793520	-0.843565	0.010010	0.528502	-1.000000	-1.000000	-1.000000	-1.000000	-1.000000	-1.000000	-1.000000	54.000000	0.000000	-1.000000	-1.000000	2555549.000000	1776581515.181290
2420.055000	-9256.140000	20839.680000	63027.765000	48362.130000	32698.080000	455.535000	-5981.040000	-9.509570	-7.966724	-2.901970	0.699466	14.611356	24.752462	0.383763	-9.143958	1.495480	3.753960	0.793520	-0.843565	0.010010	0.528502	-1.000000	-1.000000	-1.000000	-1.000000	-1.000000	-1.000000	-1.000000	54.000000	0.000000	-1.000000	-1.000000	2555550.000000	1776581515.219290
2424.555000	-9250.155000	20839.545000	63041.490000	48374.370000	32695.740000	457.875000	-5977.080000	-7.957899	-6.882166	-2.548458	7.112929	14.809775	25.580061	3.456294	-6.296482	1.495480	3.753960	0.793520	-0.843565	0.010010	0.528502	-1.000000	-1.000000	-1.000000	-1.000000	-1.000000	-1.000000	-1.000000	54.000000	0.000000	-1.000000	-1.000000	2555551.000000	1776581515.219320
2406.510000	-9245.070000	20861.460000	63039.645000	48364.155000	32675.445000	440.460000	-5990.130000	-3.730133	-2.562728	-0.990510	10.953442	11.015100	17.474127	5.070949	-0.979364	1.693860	2.899400	1.663340	-0.843931	0.008240	0.528014	-1.000000	-1.000000	-1.000000	-1.000000	-1.000000	-1.000000	-1.000000	54.000000	0.000000	-1.000000	-1.000000	2555552.000000	1776581515.219340
2395.035000	-9236.835000	20885.355000	63032.805000	48346.470000	32662.035000	435.285000	-5990.445000	-0.150566	3.005061	2.961812	10.664002	4.820877	5.107584	3.928308	3.047892	1.693860	2.899400	1.663340	-0.843931	0.008240	0.528014	-1.000000	-1.000000	-1.000000	-1.000000	-1.000000	-1.000000	-1.000000	54.000000	0.000000	-1.000000	-1.000000	2555553.000000	1776581515.219346
2399.220000	-9255.645000	20849.355000	63008.820000	48334.410000	32671.305000	440.145000	-5992.110000	0.611341	6.680125	7.856568	5.365669	-3.163001	-6.420344	0.378463	3.623987	1.693860	2.899400	1.663340	-0.843931	0.008240	0.528014	-1.000000	-1.000000	-1.000000	-1.000000	-1.000000	-1.000000	-1.000000	54.000000	0.000000	-1.000000	-1.000000	2555554.000000	1776581515.219352
2398.005000	-9259.695000	20839.230000	63009.090000	48343.185000	32685.480000	436.995000	-5999.400000	0.037415	5.885563	8.458232	-3.400674	-10.379278	-11.773169	-2.760577	1.731728	1.693860	2.899400	1.663340	-0.843931	0.008240	0.528014	-1.000000	-1.000000	-1.000000	-1.000000	-1.000000	-1.000000	-1.000000	54.000000	0.000000	-1.000000	-1.000000	2555555.000000	1776581515.219356
2424.060000	-9238.950000	20864.385000	63018.810000	48343.725000	32690.925000	442.080000	-5989.365000	1.031979	1.436617	2.632254	-10.833911	-12.695683	-8.702555	-3.190029	-0.391994	1.693860	2.899400	1.663340	-0.843931	0.008240	0.528014	-1.000000	-1.000000	-1.000000	-1.000000	-1.000000	-1.000000	-1.000000	54.000000	0.000000	-1.000000	-1.000000	2555556.000000	1776581515.219363
2429.280000	-9237.870000	20870.910000	63016.740000	48334.410000	32676.120000	441.225000	-5986.755000	4.766350	-2.344659	-4.223332	-11.984762	-8.712006	-0.876729	-1.056118	-0.845885	1.693860	2.899400	1.663340	-0.843931	0.008240	0.528014	-1.000000	-1.000000	-1.000000	-1.000000	-1.000000	-1.000000	-1.000000	54.000000	0.000000	-1.000000	-1.000000	2555557.000000	1776581515.219367
2429.730000	-9234.225000	20874.285000	63020.970000	48336.300000	32668.875000	438.030000	-5987.115000	9.077816	-2.623502	-6.291962	-6.467395	-1.518410	4.849090	1.765889	0.701808	1.693860	2.899400	1.663340	-0.843931	0.008240	0.528014	-1.000000	-1.000000	-1.000000	-1.000000	-1.000000	-1.000000	-1.000000	54.000000	0.000000	-1.000000	-1.000000	2555558.000000	1776581515.219372
2426.895000	-9236.250000	20863.080000	63021.195000	48345.210000	32694.435000	448.785000	-5982.795000	9.907407	-0.714065	-3.977046	1.638624	4.891914	5.157212	3.433186	2.705713	1.693860	2.899400	1.663340	-0.843931	0.008240	0.528014	-1.000000	-1.000000	-1.000000	-1.000000	-1.000000	-1.000000	-1.000000	54.000000	0.000000	-1.000000	-1.000000	2555559.000000	1776581515.219377
2419.245000	-9243.855000	20858.220000	63017.010000	48347.685000	32703.750000	448.875000	-5984.820000	5.281809	0.531372	-1.446603	7.599470	8.663359	2.842079	3.572626	3.448554	1.693860	2.899400	1.663340	-0.843931	0.008240	0.528014	-1.000000	-1.000000	-1.000000	-1.000000	-1.000000	-1.000000	-1.000000	54.000000	0.000000	-1.000000	-1.000000	2555560.000000	1776581515.219382
2416.545000	-9247.770000	20858.085000	63018.135000	48344.445000	32691.015000	443.520000	-5989.815000	-2.839785	-0.408778	-1.215553	8.850716	9.281714	1.264305	2.529547	2.256405	1.693860	2.899400	1.663340	-0.843931	0.008240	0.528014	-1.000000	-1.000000	-1.000000	-1.000000	-1.000000	-1.000000	-1.000000	54.000000	0.000000	-1.000000	-1.000000	2555561.000000	1776581515.219387
2412.945000	-9245.970000	20865.150000	63031.680000	48350.430000	32686.695000	449.055000	-5989.770000	-10.177786	-2.686832	-2.186288	6.168157	6.765954	-0.187275	0.470767	-0.434743	-0.717220	4.089680	-1.022420	-0.842588	0.012024	0.525572	-1.000000	-1.000000	-1.000000	-1.000000	-1.000000	-1.000000	-1.000000	54.000000	0.000000	-1.000000	-1.000000	2555562.000000	1776581515.219392
2411.280000	-9251.685000	20858.130000	63022.905000	48335.085000	32673.870000	444.330000	-5990.580000	-13.065539	-4.140830	-2.100014	2.318478	2.049280	-3.186945	-1.921180	-3.178390	-0.717220	4.089680	-1.022420	-0.842588	0.012024	0.525572	-1.000000	-1.000000	-1.000000	-1.000000	-1.000000	-1.000000	-1.000000	54.000000	0.000000	-1.000000	-1.000000	2555563.000000	1776581515.219396
2426.265000	-9238.590000	20868.795000	63028.125000	48337.560000	32662.665000	449.415000	-5979.645000	-10.261615	-3.296938	-0.350370	-0.896740	-3.318299	-7.135087	-3.546903	-4.217008	-0.717220	4.089680	-1.022420	-0.842588	0.012024	0.525572	-1.000000	-1.000000	-1.000000	-1.000000	-1.000000	-1.000000	-1.000000	54.000000	0.000000	-1.000000	-1.000000	2555564.000000	1776581515.219402
2446.245000	-9216.315000	20886.570000	63045.360000	48341.655000	32631.795000	445.320000	-5968.305000	-2.705850	0.251061	2.511074	-2.776588	-7.250400	-10.201000	-3.780177	-2.520637	-0.717220	4.089680	-1.022420	-0.842588	0.012024	0.525572	-1.000000	-1.000000	-1.000000	-1.000000	-1.000000	-1.000000	-1.000000	54.000000	0.000000	-1.000000	-1.000000	2555565.000000	1776581515.219408
2441.655000	-9216.900000	20894.085000	63059.670000	48344.535000	32628.060000	433.710000	-5975.865000	6.497957	5.522180	5.797333	-2.424191	-7.708835	-10.951622	-3.024031	1.036432	-0.717220	4.089680	-1.022420	-0.842588	0.012024	0.525572	-1.000000	-1.000000	-1.000000	-1.000000	-1.000000	-1.000000	-1.000000	54.000000	0.000000	-1.000000	-1.000000	2555566.000000	1776581515.219412
2423.880000	-9233.955000	20892.060000	63073.395000	48377.475000	32698.755000	437.220000	-5988.555000	12.045174	8.962340	7.794833	0.109585	-4.056000	-6.774561	-2.234857	3.406413	-0.717220	4.089680	-1.022420	-0.842588	0.012024	0.525572	-1.000000	-1.000000	-1.000000	-1.000000	-1.000000	-1.000000	-1.000000	54.000000	0.000000	-1.000000	-1.000000	2555567.000000	1776581515.219417
2416.860000	-9248.130000	20867.985000	63043.380000	48379.545000	32739.300000	445.410000	-5989.545000	9.853957	6.575418	5.874577	2.208797	2.463194	5.619561	-1.287435	2.126135	-0.717220	4.089680	-1.022420	-0.842588	0.012024	0.525572	-1.000000	-1.000000	-1.000000	-1.000000	-1.000000	-1.000000	-1.000000	54.000000	0.000000	-1.000000	-1.000000	2555568.000000	1776581515.220894
2409.975000	-9261.270000	20844.180000	63010.845000	48352.545000	32720.580000	449.685000	-5990.715000	1.400141	-1.481035	-1.195604	-0.240492	7.727791	22.290540	0.795726	-1.676025	-0.717220	4.089680	-1.022420	-0.842588	0.012024	0.525572	-1.000000	-1.000000	-1.000000	-1.000000	-1.000000	-1.000000	-1.000000	54.000000	0.000000	-1.000000	-1.000000	2555569.000000	1776581515.220899
2406.825000	-9261.720000	20841.165000	63003.510000	48342.645000	32704.245000	447.030000	-5992.875000	-7.371531	-10.171935	-10.702030	-8.031879	6.533153	30.190169	3.630119	-4.624354	-0.717220	4.089680	-1.022420	-0.842588	0.012024	0.525572	-1.000000	-1.000000	-1.000000	-1.000000	-1.000000	-1.000000	-1.000000	54.000000	0.000000	-1.000000	-1.000000	2555570.000000	1776581515.224937
2402.685000	-9266.805000	20825.640000	62988.435000	48335.985000	32698.980000	444.420000	-5995.665000	-11.183115	-13.685787	-16.734395	-15.739229	-1.321220	20.334616	5.222047	-4.636568	-0.717220	4.089680	-1.022420	-0.842588	0.012024	0.525572	-1.000000	-1.000000	-1.000000	-1.000000	-1.000000	-1.000000	-1.000000	54.000000	0.000000	-1.000000	-1.000000	2555571.000000	1776581515.224951
2400.525000	-9256.905000	20838.195000	62991.360000	48326.805000	32683.635000	435.870000	-5997.825000	-8.724423	-9.726819	-14.808419	-16.509898	-9.985310	-2.151638	4.023022	-2.129312	-1.861720	3.494540	-2.227960	-0.842893	0.017883	0.526305	-1.000000	-1.000000	-1.000000	-1.000000	-1.000000	-1.000000	-1.000000	54.000000	0.000000	-1.000000	-1.000000	2555572.000000	1776581515.234557
2405.880000	-9251.280000	20849.985000	63011.475000	48334.860000	32684.445000	438.930000	-5993.415000	-2.178189	-0.396830	-4.879485	-7.881704	-13.241051	-23.685994	0.525706	1.265636	-1.861720	3.494540	-2.227960	-0.842893	0.017883	0.526305	-1.000000	-1.000000	-1.000000	-1.000000	-1.000000	-1.000000	-1.000000	54.000000	0.000000	-1.000000	-1.000000	2555573.000000	1776581515.234578
2407.995000	-9260.730000	20838.420000	63010.305000	48350.295000	32708.745000	450.810000	-5989.725000	5.060007	9.324725	8.529239	6.912221	-8.631955	-32.537706	-2.753055	4.201553	-1.861720	3.494540	-2.227960	-0.842893	0.017883	0.526305	-1.000000	-1.000000	-1.000000	-1.000000	-1.000000	-1.000000	-1.000000	54.000000	0.000000	-1.000000	-1.000000	2555574.000000	1776581515.234598
2393.595000	-9276.345000	20838.285000	63001.665000	48339.945000	32700.330000	442.035000	-6000.705000	9.719278	13.909892	18.160286	20.164803	1.454487	-25.132140	-3.456925	5.663781	-1.861720	3.494540	-2.227960	-0.842893	0.017883	0.526305	-1.000000	-1.000000	-1.000000	-1.000000	-1.000000	-1.000000	-1.000000	54.000000	0.000000	-1.000000	-1.000000	2555575.000000	1776581515.234603
2396.970000	-9260.280000	20868.480000	63025.605000	48333.240000	32679.135000	429.030000	-6005.745000	9.649262	11.229685	19.691357	24.798838	10.677992	-8.182164	-2.178306	4.648483	-1.861720	3.494540	-2.227960	-0.842893	0.017883	0.526305	-1.000000	-1.000000	-1.000000	-1.000000	-1.000000	-1.000000	-1.000000	54.000000	0.000000	-1.000000	-1.000000	2555576.000000	1776581515.236809
2402.055000	-9247.410000	20870.145000	63023.130000	48329.460000	32666.445000	427.860000	-6001.380000	5.664584	4.874014	14.973756	19.955021	13.425087	6.680972	-1.339301	1.440670	-1.861720	3.494540	-2.227960	-0.842893	0.017883	0.526305	-1.000000	-1.000000	-1.000000	-1.000000	-1.000000	-1.000000	-1.000000	54.000000	0.000000	-1.000000	-1.000000	2555577.000000	1776581515.236819
2414.385000	-9257.670000	20839.320000	62994.060000	48333.780000	32684.850000	444.960000	-5990.715000	1.193108	-0.124391	7.041216	8.945141	9.407098	13.082906	-1.257542	-1.579315	-1.861720	3.494540	-2.227960	-0.842893	0.017883	0.526305	-1.000000	-1.000000	-1.000000	-1.000000	-1.000000	-1.000000	-1.000000	54.000000	0.000000	-1.000000	-1.000000	2555578.000000	1776581515.240893
2425.320000	-9248.490000	20848.995000	63004.365000	48335.670000	32689.350000	447.795000	-5983.965000	-0.870988	-2.491668	-3.104731	-4.575546	2.744728	13.200682	0.005743	-2.015917	-1.861720	3.494540	-2.227960	-0.842893	0.017883	0.526305	-1.000000	-1.000000	-1.000000	-1.000000	-1.000000	-1.000000	-1.000000	54.000000	0.000000	-1.000000	-1.000000	2555579.000000	1776581515.240909
2418.570000	-9251.505000	20847.420000	63001.305000	48325.230000	32669.865000	441.045000	-5987.745000	-0.570497	-3.489427	-12.682518	-15.605179	-2.555743	11.144978	2.734226	-0.092247	-1.861720	3.494540	-2.227960	-0.842893	0.017883	0.526305	-1.000000	-1.000000	-1.000000	-1.000000	-1.000000	-1.000000	-1.000000	54.000000	0.000000	-1.000000	-1.000000	2555580.000000	1776581515.244912
2417.085000	-9251.235000	20850.705000	63005.085000	48325.230000	32662.260000	437.085000	-5990.040000	-0.397098	-4.040622	-17.006564	-19.236451	-5.257703	7.532036	4.423950	1.605850	-1.861720	3.494540	-2.227960	-0.842893	0.017883	0.526305	-1.000000	-1.000000	-1.000000	-1.000000	-1.000000	-1.000000	-1.000000	54.000000	0.000000	-1.000000	-1.000000	2555581.000000	1776581515.244921
2425.410000	-9241.155000	20862.135000	63015.165000	48331.845000	32650.695000	436.050000	-5983.560000	-2.022373	-4.207784	-14.065339	-14.606557	-5.594375	1.951583	3.169923	1.162400	-1.648080	1.434440	-0.412020	-0.844969	0.017761	0.526366	-1.000000	-1.000000	-1.000000	-1.000000	-1.000000	-1.000000	-1.000000	54.000000	0.000000	-1.000000	-1.000000	2555582.000000	1776581515.249142
2437.380000	-9227.970000	20876.445000	63030.420000	48341.070000	32632.875000	438.705000	-5972.490000	-4.107594	-3.230717	-5.652872	-4.741188	-3.618705	-4.102491	-0.033637	-0.596950	-1.648080	1.434440	-0.412020	-0.844969	0.017761	0.526366	-1.000000	-1.000000	-1.000000	-1.000000	-1.000000	-1.000000	-1.000000	54.000000	0.000000	-1.000000	-1.000000	2555583.000000	1776581515.249161
2439.855000	-9226.215000	20879.190000	63034.245000	48344.805000	32636.340000	441.270000	-5970.420000	-4.401627	-0.752439	4.125617	5.666991	0.068928	-8.116485	-2.668540	-1.636608	-1.648080	1.434440	-0.412020	-0.844969	0.017761	0.526366	-1.000000	-1.000000	-1.000000	-1.000000	-1.000000	-1.000000	-1.000000	54.000000	0.000000	-1.000000	-1.000000	2555584.000000	1776581515.253026
2424.510000	-9242.280000	20867.040000	63032.310000	48371.940000	32717.745000	456.255000	-5978.115000	-3.053115	1.507276	10.291956	11.882680	3.992631	-6.466055	-2.892874	-1.559988	-1.648080	1.434440	-0.412020	-0.844969	0.017761	0.526366	-1.000000	-1.000000	-1.000000	-1.000000	-1.000000	-1.000000	-1.000000	54.000000	0.000000	-1.000000	-1.000000	2555585.000000	1776581515.253039
2411.460000	-9255.465000	20855.835000	63023.220000	48378.060000	32761.980000	463.770000	-5984.055000	-2.483852	0.837880	9.434770	11.104431	6.846266	4.150152	-0.503209	-1.777897	-1.648080	1.434440	-0.412020	-0.844969	0.017761	0.526366	-1.000000	-1.000000	-1.000000	-1.000000	-1.000000	-1.000000	-1.000000	54.000000	0.000000	-1.000000	-1.000000	2555586.000000	1776581515.256918
2406.420000	-9260.730000	20847.780000	63009.990000	48349.485000	32716.035000	450.720000	-5987.295000	-3.925605	-3.051416	2.396524	4.045089	6.739117	18.594190	2.550496	-3.094049	-1.648080	1.434440	-0.412020	-0.844969	0.017761	0.526366	-1.000000	-1.000000	-1.000000	-1.000000	-1.000000	-1.000000	-1.000000	54.000000	0.000000	-1.000000	-1.000000	2555587.000000	1776581515.256928
2413.755000	-9253.620000	20855.205000	63019.080000	48355.785000	32704.875000	448.605000	-5982.930000	-5.353593	-6.787765	-5.770625	-5.108935	1.635874	22.646257	3.121629	-4.340361	-1.648080	1.434440	-0.412020	-0.844969	0.017761	0.526366	-1.000000	-1.000000	-1.000000	-1.000000	-1.000000	-1.000000	-1.000000	54.000000	0.000000	-1.000000	-1.000000	2555588.000000	1776581515.261042
2415.915000	-9251.460000	20857.320000	63023.985000	48358.080000	32702.085000	447.795000	-5985.675000	-3.733123	-6.408315	-9.407956	-10.686245	-6.481932	8.986934	0.209523	-3.754585	-1.648080	1.434440	-0.412020	-0.844969	0.017761	0.526366	-1.000000	-1.000000	-1.000000	-1.000000	-1.000000	-1.000000	-1.000000	54.000000	0.000000	-1.000000	-1.000000	2555589.000000	1776581515.261055
2414.970000	-9246.870000	20866.050000	63028.800000	48351.600000	32705.955000	446.940000	-5989.140000	1.277764	-1.267958	-6.439303	-9.448759	-12.142350	-13.298035	-3.800843	-1.157372	-1.648080	1.434440	-0.412020	-0.844969	0.017761	0.526366	-1.000000	-1.000000	-1.000000	-1.000000	-1.000000	-1.000000	-1.000000	54.000000	0.000000	-1.000000	-1.000000	2555590.000000	1776581515.264985
2408.445000	-9251.370000	20867.310000	63041.175000	48353.220000	32689.035000	438.345000	-5993.730000	6.682791	5.457992	0.634421	-2.845166	-12.104565	-29.288983	-6.027805	1.847530	-1.648080	1.434440	-0.412020	-0.844969	0.017761	0.526366	-1.000000	-1.000000	-1.000000	-1.000000	-1.000000	-1.000000	-1.000000	54.000000	0.000000	-1.000000	-1.000000	2555591.000000	1776581515.265002
2410.560000	-9260.865000	20851.335000	63032.445000	48352.230000	32684.535000	446.130000	-5989.140000	9.096472	9.427732	6.846747	4.678612	-7.172155	-31.369617	-5.411048	3.730277	-1.526000	1.205540	1.648080	-0.845091	0.014587	0.525572	-1.000000	-1.000000	-1.000000	-1.000000	-1.000000	-1.000000	-1.000000	54.000000	0.000000	-1.000000	-1.000000	2555592.000000	1776581515.269649
2419.650000	-9254.835000	20847.735000	63019.620000	48350.070000	32690.205000	454.500000	-5981.310000	7.834908	8.470792	8.059484	8.375967	-0.243359	-21.054629	-2.170420	4.443260	-1.526000	1.205540	1.648080	-0.845091	0.014587	0.525572	-1.000000	-1.000000	-1.000000	-1.000000	-1.000000	-1.000000	-1.000000	54.000000	0.000000	-1.000000	-1.000000	2555593.000000	1776581515.269660
2434.860000	-9242.955000	20859.210000	63031.950000	48353.535000	32692.680000	459.360000	-5969.250000	5.018114	4.367396	4.379803	6.338964	5.622670	-4.314255	2.662294	4.882459	-1.526000	1.205540	1.648080	-0.845091	0.014587	0.525572	-1.000000	-1.000000	-1.000000	-1.000000	-1.000000	-1.000000	-1.000000	54.000000	0.000000	-1.000000	-1.000000	2555594.000000	1776581515.273127
2438.910000	-9234.810000	20868.930000	63032.400000	48352.455000	32689.980000	454.725000	-5970.375000	2.882260	0.835434	0.025464	1.347157	8.642056	11.780029	6.777068	5.265762	-1.526000	1.205540	1.648080	-0.845091	0.014587	0.525572	-1.000000	-1.000000	-1.000000	-1.000000	-1.000000	-1.000000	-1.000000	54.000000	0.000000	-1.000000	-1.000000	2555595.000000	1776581515.273150
2436.705000	-9220.860000	20888.010000	63034.290000	48350.070000	32691.420000	448.200000	-5976.675000	1.425271	-0.146972	-1.106512	-2.384229	8.498537	21.321777	7.519750	4.378665	-1.526000	1.205540	1.648080	-0.845091	0.014587	0.525572	-1.000000	-1.000000	-1.000000	-1.000000	-1.000000	-1.000000	-1.000000	54.000000	0.000000	-1.000000	-1.000000	2555596.000000	1776581515.276991
2428.785000	-9222.165000	20877.885000	63022.590000	48337.695000	32683.860000	444.105000	-5982.840000	-0.961674	0.541916	0.939590	-3.465926	5.628969	21.902603	4.127038	0.979208	-1.526000	1.205540	1.648080	-0.845091	0.014587	0.525572	-1.000000	-1.000000	-1.000000	-1.000000	-1.000000	-1.000000	-1.000000	54.000000	0.000000	-1.000000	-1.000000	2555597.000000	1776581515.277011
2428.785000	-9224.505000	20872.620000	63024.075000	48343.545000	32687.370000	450.540000	-5976.900000	-4.861487	0.515819	2.559516	-3.120089	1.199773	15.166073	-1.202249	-3.991582	-1.526000	1.205540	1.648080	-0.845091	0.014587	0.525572	-1.000000	-1.000000	-1.000000	-1.000000	-1.000000	-1.000000	-1.000000	54.000000	0.000000	-1.000000	-1.000000	2555598.000000	1776581515.281084
2415.600000	-9232.785000	20876.310000	63034.470000	48357.630000	32707.485000	460.395000	-5975.910000	-8.765638	-1.911057	0.797572	-2.226401	-2.328625	5.786505	-4.744466	-7.551660	-1.526000	1.205540	1.648080	-0.845091	0.014587	0.525572	-1.000000	-1.000000	-1.000000	-1.000000	-1.000000	-1.000000	-1.000000	54.000000	0.000000	-1.000000	-1.000000	2555599.000000	1776581515.281093
2407.635000	-9246.915000	20867.535000	63030.420000	48357.270000	32698.170000	459.135000	-5976.945000	-10.703721	-6.279245	-3.417941	-0.494386	-2.668402	-1.384445	-4.372876	-7.535839	-1.526000	1.205540	1.648080	-0.845091	0.014587	0.525572	-1.000000	-1.000000	-1.000000	-1.000000	-1.000000	-1.000000	-1.000000	54.000000	0.000000	-1.000000	-1.000000	2555600.000000	1776581515.285136
2397.375000	-9256.995000	20853.450000	63013.545000	48342.195000	32684.985000	458.730000	-5977.350000	-9.757155	-10.450109	-7.339571	1.348308	-0.701981	-5.222108	-1.375506	-4.482792	-1.526000	1.205540	1.648080	-0.845091	0.014587	0.525572	-1.000000	-1.000000	-1.000000	-1.000000	-1.000000	-1.000000	-1.000000	54.000000	0.000000	-1.000000	-1.000000	2555601.000000	1776581515.285151
2411.505000	-9242.055000	20857.770000	63014.580000	48342.375000	32678.460000	456.210000	-5975.820000	-5.752723	-11.501183	-9.039628	1.500077	0.331035	-7.733599	1.249683	-0.495946	-3.692920	0.518840	0.503580	-0.844053	0.011963	0.527098	-1.000000	-1.000000	-1.000000	-1.000000	-1.000000	-1.000000	-1.000000	54.000000	0.000000	-1.000000	-1.000000	2555602.000000	1776581515.289037
2435.220000	-9229.275000	20867.490000	63025.245000	48352.545000	32691.420000	456.615000	-5971.095000	1.374536	-6.972228	-7.141265	0.198825	-0.679323	-9.423536	1.740464	2.715755	-3.692920	0.518840	0.503580	-0.844053	0.011963	0.527098	-1.000000	-1.000000	-1.000000	-1.000000	-1.000000	-1.000000	-1.000000	54.000000	0.000000	-1.000000	-1.000000	2555603.000000	1776581515.289059
2429.100000	-9232.380000	20868.840000	63030.780000	48358.620000	32708.295000	455.040000	-5978.295000	10.126990	2.255742	-1.430063	-0.120548	-1.623907	-8.092324	0.464952	4.320247	-3.692920	0.518840	0.503580	-0.844053	0.011963	0.527098	-1.000000	-1.000000	-1.000000	-1.000000	-1.000000	-1.000000	-1.000000	54.000000	0.000000	-1.000000	-1.000000	2555604.000000	1776581515.293071
2430.135000	-9237.150000	20862.360000	63024.075000	48341.700000	32690.160000	436.635000	-5988.600000	16.014960	10.987483	5.478243	1.474180	-1.086084	-2.977521	-1.480321	3.762844	-3.692920	0.518840	0.503580	-0.844053	0.011963	0.527098	-1.000000	-1.000000	-1.000000	-1.000000	-1.000000	-1.000000	-1.000000	54.000000	0.000000	-1.000000	-1.000000	2555605.000000	1776581515.293086
2427.570000	-9235.620000	20866.320000	63032.085000	48344.040000	32684.085000	431.640000	-5989.275000	14.886636	13.949744	9.616462	3.223215	-0.376700	2.400578	-3.514571	1.152614	-3.692920	0.518840	0.503580	-0.844053	0.011963	0.527098	-1.000000	-1.000000	-1.000000	-1.000000	-1.000000	-1.000000	-1.000000	54.000000	0.000000	-1.000000	-1.000000	2555606.000000	1776581515.296885
2434.410000	-9229.725000	20863.485000	63040.545000	48359.205000	32684.490000	441.720000	-5977.890000	7.308025	10.442253	9.175717	3.585438	-0.392078	4.146497	-4.568275	-1.623782	-3.692920	0.518840	0.503580	-0.844053	0.011963	0.527098	-1.000000	-1.000000	-1.000000	-1.000000	-1.000000	-1.000000	-1.000000	54.000000	0.000000	-1.000000	-1.000000	2555607.000000	1776581515.296895
2426.895000	-9246.690000	20838.825000	63010.170000	48351.915000	32694.615000	460.485000	-5973.615000	-2.279274	3.544942	4.877471	2.171907	-0.042487	2.668829	-2.549508	-2.007317	-3.692920	0.518840	0.503580	-0.844053	0.011963	0.527098	-1.000000	-1.000000	-1.000000	-1.000000	-1.000000	-1.000000	-1.000000	54.000000	0.000000	-1.000000	-1.000000	2555608.000000	1776581515.300940
2424.195000	-9246.870000	20854.710000	63018.270000	48357.270000	32709.015000	461.970000	-5976.495000	-9.583337	-3.511782	-1.259673	-1.310665	1.019048	1.326116	2.990143	0.294353	-3.692920	0.518840	0.503580	-0.844053	0.011963	0.527098	-1.000000	-1.000000	-1.000000	-1.000000	-1.000000	-1.000000	-1.000000	54.000000	0.000000	-1.000000	-1.000000	2555609.000000	1776581515.300951
2415.420000	-9248.445000	20864.475000	63023.895000	48349.080000	32695.335000	448.920000	-5986.980000	-12.684365	-8.318804	-5.558499	-5.253783	1.615886	1.870090	8.545330	2.673512	-3.692920	0.518840	0.503580	-0.844053	0.011963	0.527098	-1.000000	-1.000000	-1.000000	-1.000000	-1.000000	-1.000000	-1.000000	54.000000	0.000000	-1.000000	-1.000000	2555610.000000	1776581515.304944
2403.585000	-9242.280000	20880.270000	63031.860000	48346.830000	32685.660000	444.195000	-5988.780000	-11.829014	-9.039249	-4.711851	-6.195273	0.826257	2.401972	9.282536	2.495627	-3.692920	0.518840	0.503580	-0.844053	0.011963	0.527098	-1.000000	-1.000000	-1.000000	-1.000000	-1.000000	-1.000000	-1.000000	54.000000	0.000000	-1.000000	-1.000000	2555611.000000	1776581515.304962
2418.030000	-9239.085000	20873.700000	63031.005000	48342.015000	32680.215000	445.230000	-5978.025000	-8.042405	-5.498107	0.320946	-3.002642	-1.092962	0.467067	4.236709	0.111544	-4.608520	0.167860	-0.381500	-0.842527	0.013123	0.528258	-1.000000	-1.000000	-1.000000	-1.000000	-1.000000	-1.000000	-1.000000	54.000000	0.000000	-1.000000	-1.000000	2555612.000000	1776581515.308987
2424.960000	-9246.465000	20861.550000	63023.580000	48342.780000	32687.820000	450.450000	-5979.465000	-1.859565	0.089430	4.604681	1.637389	-2.859783	-3.048722	-2.684695	-1.796053	-4.608520	0.167860	-0.381500	-0.842527	0.013123	0.528258	-1.000000	-1.000000	-1.000000	-1.000000	-1.000000	-1.000000	-1.000000	54.000000	0.000000	-1.000000	-1.000000	2555613.000000	1776581515.308999
2423.430000	-9246.690000	20856.555000	63012.645000	48341.160000	32694.480000	455.130000	-5983.065000	5.454885	4.332009	3.943550	3.954738	-3.153765	-4.789749	-6.727963	-1.757445	-4.608520	0.167860	-0.381500	-0.842527	0.013123	0.528258	-1.000000	-1.000000	-1.000000	-1.000000	-1.000000	-1.000000	-1.000000	54.000000	0.000000	-1.000000	-1.000000	2555614.000000	1776581515.357553
2409.300000	-9252.405000	20854.845000	63009.945000	48333.870000	32681.925000	443.250000	-5992.920000	10.490149	5.195620	-1.079858	2.470457	-1.810233	-3.117231	-6.381521	-0.903833	-4.608520	0.167860	-0.381500	-0.842527	0.013123	0.528258	-1.000000	-1.000000	-1.000000	-1.000000	-1.000000	-1.000000	-1.000000	54.000000	0.000000	-1.000000	-1.000000	2555615.000000	1776581515.357574
2404.620000	-9249.570000	20856.960000	63011.070000	48338.280000	32684.805000	441.900000	-5994.135000	10.075169	3.231148	-6.134409	-0.895603	0.205041	0.105920	-3.745627	-0.818601	-4.608520	0.167860	-0.381500	-0.842527	0.013123	0.528258	-1.000000	-1.000000	-1.000000	-1.000000	-1.000000	-1.000000	-1.000000	54.000000	0.000000	-1.000000	-1.000000	2555616.000000	1776581515.357594
2412.000000	-9248.490000	20851.830000	63008.955000	48339.630000	32688.315000	446.355000	-5988.150000	4.910898	0.557595	-7.529454	-2.976222	2.071431	2.430622	-1.259420	-1.334424	-4.608520	0.167860	-0.381500	-0.842527	0.013123	0.528258	-1.000000	-1.000000	-1.000000	-1.000000	-1.000000	-1.000000	-1.000000	54.000000	0.000000	-1.000000	-1.000000	2555617.000000	1776581515.357599
2416.320000	-9247.635000	20855.430000	63020.160000	48335.715000	32668.785000	439.020000	-5988.105000	-0.740661	-0.970918	-4.846880	-2.117305	3.396317	2.959511	0.460661	-1.016873	-4.608520	0.167860	-0.381500	-0.842527	0.013123	0.528258	-1.000000	-1.000000	-1.000000	-1.000000	-1.000000	-1.000000	-1.000000	54.000000	0.000000	-1.000000	-1.000000	2555618.000000	1776581515.357605
2430.090000	-9242.910000	20857.275000	63026.190000	48333.735000	32644.980000	439.785000	-5977.395000	-3.072562	-0.889819	-0.051695	1.233030	3.594342	1.091755	1.493558	0.788822	-4.608520	0.167860	-0.381500	-0.842527	0.013123	0.528258	-1.000000	-1.000000	-1.000000	-1.000000	-1.000000	-1.000000	-1.000000	54.000000	0.000000	-1.000000	-1.000000	2555619.000000	1776581515.357609
2423.160000	-9246.870000	20851.245000	63012.240000	48319.200000	32630.220000	434.880000	-5985.045000	-1.739477	0.068845	4.312729	4.795136	2.150746	-3.126671	1.795666	3.123641	-4.608520	0.167860	-0.381500	-0.842527	0.013123	0.528258	-1.000000	-1.000000	-1.000000	-1.000000	-1.000000	-1.000000	-1.000000	54.000000	0.000000	-1.000000	-1.000000	2555620.000000	1776581515.357614
2410.695000	-9252.945000	20853.135000	63008.820000	48332.385000	32672.970000	436.230000	-5995.350000	0.281370	0.600699	6.227631	5.469638	-0.413507	-6.330344	1.558472	3.930419	-4.608520	0.167860	-0.381500	-0.842527	0.013123	0.528258	-1.000000	-1.000000	-1.000000	-1.000000	-1.000000	-1.000000	-1.000000	54.000000	0.000000	-1.000000	-1.000000	2555621.000000	1776581515.357618
2404.305000	-9257.355000	20857.680000	63012.195000	48343.680000	32707.845000	440.865000	-5997.870000	-0.233582	-0.226016	5.385340	2.411932	-1.967267	-2.882616	1.305583	1.831190	-3.738700	0.183120	0.595140	-0.840269	0.012634	0.530638	-1.000000	-1.000000	-1.000000	-1.000000	-1.000000	-1.000000	-1.000000	54.000000	0.000000	-1.000000	-1.000000	2555622.000000	1776581515.357622
2412.720000	-9247.545000	20865.330000	63023.220000	48347.685000	32695.065000	443.340000	-5987.115000	-3.074422	-1.764740	3.286298	-1.618334	-0.708642	7.598161	1.552879	-1.743202	-3.738700	0.183120	0.595140	-0.840269	0.012634	0.530638	-1.000000	-1.000000	-1.000000	-1.000000	-1.000000	-1.000000	-1.000000	54.000000	0.000000	-1.000000	-1.000000	2555623.000000	1776581515.357627
2419.380000	-9244.215000	20863.575000	63027.720000	48345.660000	32678.550000	443.655000	-5979.960000	-4.871325	-2.147225	1.457064	-3.248407	2.152901	16.391766	2.129477	-3.502631	-3.738700	0.183120	0.595140	-0.840269	0.012634	0.530638	-1.000000	-1.000000	-1.000000	-1.000000	-1.000000	-1.000000	-1.000000	54.000000	0.000000	-1.000000	-1.000000	2555624.000000	1776581515.357631
2409.750000	-9246.420000	20861.730000	63028.530000	48343.860000	32670.630000	436.365000	-5989.590000	-3.413756	-0.608115	0.027173	-1.892808	3.539615	14.437785	2.067615	-2.116471	-3.738700	0.183120	0.595140	-0.840269	0.012634	0.530638	-1.000000	-1.000000	-1.000000	-1.000000	-1.000000	-1.000000	-1.000000	54.000000	0.000000	-1.000000	-1.000000	2555625.000000	1776581515.357635
2422.980000	-9237.465000	20867.310000	63025.920000	48345.120000	32672.925000	439.470000	-5983.560000	0.088141	1.608657	-1.479058	0.264044	1.901441	2.392924	0.655378	0.441422	-3.738700	0.183120	0.595140	-0.840269	0.012634	0.530638	-1.000000	-1.000000	-1.000000	-1.000000	-1.000000	-1.000000	-1.000000	54.000000	0.000000	-1.000000	-1.000000	2555626.000000	1776581515.357640
2435.175000	-9234.720000	20865.645000	63018.675000	48342.060000	32674.365000	437.985000	-5977.485000	3.599036	3.056127	-2.815753	0.791009	-1.624576	-10.943755	-1.483780	1.987818	-3.738700	0.183120	0.595140	-0.840269	0.012634	0.530638	-1.000000	-1.000000	-1.000000	-1.000000	-1.000000	-1.000000	-1.000000	54.000000	0.000000	-1.000000	-1.000000	2555627.000000	1776581515.357644
2416.275000	-9248.670000	20854.845000	63026.370000	48348.405000	32687.640000	440.685000	-5984.820000	5.712021	2.878851	-3.624334	-0.752271	-4.662806	-17.123909	-2.925206	2.102997	-3.738700	0.183120	0.595140	-0.840269	0.012634	0.530638	-1.000000	-1.000000	-1.000000	-1.000000	-1.000000	-1.000000	-1.000000	54.000000	0.000000	-1.000000	-1.000000	2555628.000000	1776581515.357648
2402.055000	-9260.820000	20846.970000	63036.495000	48358.530000	32705.730000	442.755000	-5993.640000	4.491818	0.348648	-4.253826	-2.418052	-5.212828	-13.406888	-2.812140	0.787750	-3.738700	0.183120	0.595140	-0.840269	0.012634	0.530638	-1.000000	-1.000000	-1.000000	-1.000000	-1.000000	-1.000000	-1.000000	54.000000	0.000000	-1.000000	-1.000000	2555629.000000	1776581515.357652
2422.215000	-9246.960000	20850.390000	63016.830000	48347.325000	32700.060000	446.220000	-5979.915000	-0.173045	-3.630287	-4.642388	-2.443026	-3.045755	-3.240332	-1.322722	-1.482283	-3.738700	0.183120	0.595140	-0.840269	0.012634	0.530638	-1.000000	-1.000000	-1.000000	-1.000000	-1.000000	-1.000000	-1.000000	54.000000	0.000000	-1.000000	-1.000000	2555630.000000	1776581515.357657
2436.300000	-9224.730000	20880.585000	63025.920000	48344.850000	32684.535000	442.440000	-5974.110000	-4.147659	-5.431992	-3.121946	-1.522433	-0.292978	6.012822	0.541010	-2.732563	-3.738700	0.183120	0.595140	-0.840269	0.012634	0.530638	-1.000000	-1.000000	-1.000000	-1.000000	-1.000000	-1.000000	-1.000000	54.000000	0.000000	-1.000000	-1.000000	2555631.000000	1776581515.357661
2429.370000	-9234.270000	20874.780000	63021.420000	48330.990000	32681.520000	444.780000	-5977.215000	-3.706220	-2.510843	1.635170	-0.796249	0.623557	8.336716	1.575276	-1.597497	-1.541260	0.259420	0.091560	-0.839536	0.010132	0.532164	-1.000000	-1.000000	-1.000000	-1.000000	-1.000000	-1.000000	-1.000000	54.000000	0.000000	-1.000000	-1.000000	2555632.000000	1776581515.357668
2429.370000	-9237.645000	20863.035000	63009.495000	48323.700000	32663.115000	445.410000	-5973.435000	-0.371915	2.523940	7.011367	-0.385038	-0.712887	3.617134	1.364478	0.674998	-1.541260	0.259420	0.091560	-0.839536	0.010132	0.532164	-1.000000	-1.000000	-1.000000	-1.000000	-1.000000	-1.000000	-1.000000	54.000000	0.000000	-1.000000	-1.000000	2555633.000000	1776581515.357671
2433.960000	-9231.435000	20868.975000	63013.545000	48321.495000	32621.580000	439.380000	-5970.150000	2.033027	5.050089	8.320476	-0.333435	-2.667553	-4.267068	0.346460	2.111484	-1.541260	0.259420	0.091560	-0.839536	0.010132	0.532164	-1.000000	-1.000000	-1.000000	-1.000000	-1.000000	-1.000000	-1.000000	54.000000	0.000000	-1.000000	-1.000000	2555634.000000	1776581515.357677
2421.090000	-9242.460000	20862.720000	63012.735000	48329.640000	32638.095000	438.705000	-5979.240000	1.799599	3.631214	4.542474	-0.204587	-2.800106	-10.856786	-0.956078	1.896966	-1.541260	0.259420	0.091560	-0.839536	0.010132	0.532164	-1.000000	-1.000000	-1.000000	-1.000000	-1.000000	-1.000000	-1.000000	54.000000	0.000000	-1.000000	-1.000000	2555635.000000	1776581515.357681
2414.160000	-9250.020000	20856.060000	63016.380000	48353.130000	32719.095000	451.080000	-5982.390000	-0.715103	-0.295279	-1.408731	0.800129	0.543327	-9.947518	-1.748412	0.065514	-1.541260	0.259420	0.091560	-0.839536	0.010132	0.532164	-1.000000	-1.000000	-1.000000	-1.000000	-1.000000	-1.000000	-1.000000	54.000000	0.000000	-1.000000	-1.000000	2555636.000000	1776581515.357686
2413.935000	-9250.515000	20849.130000	63016.380000	48355.830000	32737.230000	447.120000	-5987.700000	-3.934864	-4.455040	-6.330502	2.549282	6.624804	3.026302	-1.084746	-2.555699	-1.541260	0.259420	0.091560	-0.839536	0.010132	0.532164	-1.000000	-1.000000	-1.000000	-1.000000	-1.000000	-1.000000	-1.000000	54.000000	0.000000	-1.000000	-1.000000	2555637.000000	1776581515.357690
2415.240000	-9246.465000	20861.100000	63036.045000	48362.625000	32718.105000	441.045000	-5991.840000	-5.433258	-6.330419	-8.051137	4.302252	11.781690	21.156434	0.510354	-4.448748	-1.541260	0.259420	0.091560	-0.839536	0.010132	0.532164	-1.000000	-1.000000	-1.000000	-1.000000	-1.000000	-1.000000	-1.000000	54.000000	0.000000	-1.000000	-1.000000	2555638.000000	1776581515.361080
2412.765000	-9256.140000	20855.385000	63028.620000	48349.980000	32702.085000	443.700000	-5990.580000	-3.778798	-4.701964	-5.679326	5.423064	11.768257	28.695106	1.330262	-4.381649	-1.541260	0.259420	0.091560	-0.839536	0.010132	0.532164	-1.000000	-1.000000	-1.000000	-1.000000	-1.000000	-1.000000	-1.000000	54.000000	0.000000	-1.000000	-1.000000	2555639.000000	1776581515.361102
2413.080000	-9275.130000	20829.600000	62987.670000	48328.200000	32698.395000	454.005000	-5980.770000	0.098568	-1.260361	-1.125058	4.110522	4.965663	17.630211	1.032377	-1.934157	-1.541260	0.259420	0.091560	-0.839536	0.010132	0.532164	-1.000000	-1.000000	-1.000000	-1.000000	-1.000000	-1.000000	-1.000000	54.000000	0.000000	-1.000000	-1.000000	2555640.000000	1776581515.365162
2418.975000	-9257.220000	20847.420000	63003.195000	48320.010000	32679.405000	443.610000	-5981.670000	4.064439	1.449095	2.164162	-1.283237	-6.211389	-4.892714	0.617138	2.219455	-1.541260	0.259420	0.091560	-0.839536	0.010132	0.532164	-1.000000	-1.000000	-1.000000	-1.000000	-1.000000	-1.000000	-1.000000	54.000000	0.000000	-1.000000	-1.000000	2555641.000000	1776581515.365188
2429.145000	-9227.070000	20861.460000	63009.000000	48308.085000	32643.270000	431.820000	-5980.320000	6.690106	3.871786	3.776610	-7.579718	-16.043886	-25.587848	0.018072	6.027171	1.663340	-0.610400	0.366240	-0.839231	0.007874	0.535094	-1.000000	-1.000000	-1.000000	-1.000000	-1.000000	-1.000000	-1.000000	54.000000	0.000000	-1.000000	-1.000000	2555642.000000	1776581515.369922
2431.620000	-9214.425000	20877.660000	63014.130000	48315.915000	32624.235000	431.775000	-5977.665000	7.535436	7.956956	5.923992	-9.009272	-18.860747	-35.460712	-1.524165	7.302731	1.663340	-0.610400	0.366240	-0.839231	0.007874	0.535094	-1.000000	-1.000000	-1.000000	-1.000000	-1.000000	-1.000000	-1.000000	54.000000	0.000000	-1.000000	-1.000000	2555643.000000	1776581515.369965
2405.835000	-9252.135000	20859.210000	63021.330000	48363.705000	32700.510000	445.770000	-5991.795000	5.835140	11.451572	8.322367	-4.208151	-11.904006	-30.306299	-2.924127	5.272116	1.663340	-0.610400	0.366240	-0.839231	0.007874	0.535094	-1.000000	-1.000000	-1.000000	-1.000000	-1.000000	-1.000000	-1.000000	54.000000	0.000000	-1.000000	-1.000000	2555644.000000	1776581515.373029
2387.115000	-9278.865000	20838.510000	63016.335000	48360.330000	32718.420000	436.500000	-6007.140000	0.444566	8.292808	7.236009	3.000626	2.949791	-9.367793	-2.165697	0.411603	1.663340	-0.610400	0.366240	-0.839231	0.007874	0.535094	-1.000000	-1.000000	-1.000000	-1.000000	-1.000000	-1.000000	-1.000000	54.000000	0.000000	-1.000000	-1.000000	2555645.000000	1776581515.373037
2390.310000	-9278.550000	20830.905000	63000.765000	48343.590000	32712.210000	433.845000	-6002.955000	-7.208759	-2.870349	0.494508	7.365779	17.349753	18.847602	0.375361	-5.402026	1.663340	-0.610400	0.366240	-0.839231	0.007874	0.535094	-1.000000	-1.000000	-1.000000	-1.000000	-1.000000	-1.000000	-1.000000	54.000000	0.000000	-1.000000	-1.000000	2555646.000000	1776581515.377015
2395.755000	-9263.385000	20833.605000	62989.740000	48321.180000	32692.905000	436.410000	-5996.835000	-12.037476	-14.340378	-8.372781	5.852272	20.981005	37.287636	2.455460	-8.623032	1.663340	-0.610400	0.366240	-0.839231	0.007874	0.535094	-1.000000	-1.000000	-1.000000	-1.000000	-1.000000	-1.000000	-1.000000	54.000000	0.000000	-1.000000	-1.000000	2555647.000000	1776581515.377028
2392.020000	-9262.935000	20838.690000	62995.005000	48305.340000	32668.740000	429.030000	-6000.660000	-9.999196	-16.873336	-12.907616	0.066163	11.028309	34.243501	2.865258	-6.770811	1.663340	-0.610400	0.366240	-0.839231	0.007874	0.535094	-1.000000	-1.000000	-1.000000	-1.000000	-1.000000	-1.000000	-1.000000	54.000000	0.000000	-1.000000	-1.000000	2555648.000000	1776581515.381080
2394.405000	-9260.145000	20847.555000	63012.195000	48318.435000	32664.150000	430.740000	-5998.950000	-2.403604	-9.021186	-9.745927	-4.702415	-4.989869	13.035324	1.835024	-1.229696	1.663340	-0.610400	0.366240	-0.839231	0.007874	0.535094	-1.000000	-1.000000	-1.000000	-1.000000	-1.000000	-1.000000	-1.000000	54.000000	0.000000	-1.000000	-1.000000	2555649.000000	1776581515.381089
2404.080000	-9255.375000	20843.595000	63001.080000	48315.510000	32671.935000	437.130000	-5993.595000	6.069100	3.022846	-1.143461	-4.467862	-15.770255	-11.724391	0.422056	4.411779	1.663340	-0.610400	0.366240	-0.839231	0.007874	0.535094	-1.000000	-1.000000	-1.000000	-1.000000	-1.000000	-1.000000	-1.000000	54.000000	0.000000	-1.000000	-1.000000	2555650.000000	1776581515.385209
2406.645000	-9256.635000	20832.750000	62981.280000	48311.550000	32677.245000	436.455000	-5996.565000	11.529908	11.957446	7.021772	-0.891572	-15.567783	-25.434019	-0.139791	7.485039	1.663340	-0.610400	0.366240	-0.839231	0.007874	0.535094	-1.000000	-1.000000	-1.000000	-1.000000	-1.000000	-1.000000	-1.000000	54.000000	0.000000	-1.000000	-1.000000	2555651.000000	1776581515.385226
2405.430000	-9255.465000	20838.465000	62988.660000	48317.760000	32674.635000	430.065000	-6002.415000	12.172667	13.962048	9.922627	1.489944	-7.101381	-23.171469	0.146579	6.960691	2.014320	-0.427280	1.892240	-0.838682	0.007690	0.537718	-1.000000	-1.000000	-1.000000	-1.000000	-1.000000	-1.000000	-1.000000	54.000000	0.000000	-1.000000	-1.000000	2555652.000000	1776581515.389022
2402.955000	-9252.000000	20849.715000	63003.960000	48327.885000	32676.435000	430.830000	-5999.445000	8.039168	9.615593	7.601605	1.664703	3.462347	-10.464908	0.154728	3.388770	2.014320	-0.427280	1.892240	-0.838682	0.007690	0.537718	-1.000000	-1.000000	-1.000000	-1.000000	-1.000000	-1.000000	-1.000000	54.000000	0.000000	-1.000000	-1.000000	2555653.000000	1776581515.389028
2400.435000	-9249.570000	20857.635000	63007.650000	48329.055000	32681.880000	436.185000	-5996.115000	1.022682	2.454203	3.714632	2.097757	11.204675	3.480666	-0.461506	-1.003829	2.014320	-0.427280	1.892240	-0.838682	0.007690	0.537718	-1.000000	-1.000000	-1.000000	-1.000000	-1.000000	-1.000000	-1.000000	54.000000	0.000000	-1.000000	-1.000000	2555654.000000	1776581515.392980
2394.360000	-9266.130000	20841.615000	62996.085000	48313.485000	32662.710000	429.120000	-5999.670000	-5.893534	-4.079282	0.716665	3.446334	13.134855	11.867907	-0.990934	-3.813566	2.014320	-0.427280	1.892240	-0.838682	0.007690	0.537718	-1.000000	-1.000000	-1.000000	-1.000000	-1.000000	-1.000000	-1.000000	54.000000	0.000000	-1.000000	-1.000000	2555655.000000	1776581515.393002
2389.185000	-9282.150000	20809.170000	62990.145000	48314.025000	32655.600000	429.030000	-5995.890000	-10.190269	-8.771403	-2.510571	3.394374	8.553134	12.029182	-1.148912	-4.286172	2.014320	-0.427280	1.892240	-0.838682	0.007690	0.537718	-1.000000	-1.000000	-1.000000	-1.000000	-1.000000	-1.000000	-1.000000	54.000000	0.000000	-1.000000	-1.000000	2555656.000000	1776581515.397107
2381.985000	-9265.185000	20818.620000	63005.490000	48329.865000	32663.655000	439.110000	-5988.555000	-10.820925	-11.066094	-7.251491	0.851161	0.590286	6.025141	-0.970815	-2.937701	2.014320	-0.427280	1.892240	-0.838682	0.007690	0.537718	-1.000000	-1.000000	-1.000000	-1.000000	-1.000000	-1.000000	-1.000000	54.000000	0.000000	-1.000000	-1.000000	2555657.000000	1776581515.397141
2412.450000	-9244.080000	20855.070000	63014.310000	48323.250000	32661.225000	433.530000	-5986.170000	-7.599053	-8.887896	-10.104870	-1.818615	-5.482959	-0.655642	-0.186515	-0.568321	2.014320	-0.427280	1.892240	-0.838682	0.007690	0.537718	-1.000000	-1.000000	-1.000000	-1.000000	-1.000000	-1.000000	-1.000000	54.000000	0.000000	-1.000000	-1.000000	2555658.000000	1776581515.401107
2419.020000	-9233.370000	20870.595000	63008.145000	48319.470000	32672.880000	429.345000	-5992.515000	-0.680940	-1.240347	-5.823530	-2.275790	-7.244211	-3.610294	0.740223	1.518717	2.014320	-0.427280	1.892240	-0.838682	0.007690	0.537718	-1.000000	-1.000000	-1.000000	-1.000000	-1.000000	-1.000000	-1.000000	54.000000	0.000000	-1.000000	-1.000000	2555659.000000	1776581515.401122
2436.570000	-9223.200000	20876.940000	63014.265000	48335.805000	32681.205000	429.435000	-5982.435000	7.766199	8.366384	4.608660	-1.239548	-5.798593	-2.114795	0.759581	2.041603	2.014320	-0.427280	1.892240	-0.838682	0.007690	0.537718	-1.000000	-1.000000	-1.000000	-1.000000	-1.000000	-1.000000	-1.000000	54.000000	0.000000	-1.000000	-1.000000	2555660.000000	1776581515.405182
2431.035000	-9231.120000	20870.955000	63020.430000	48336.120000	32663.070000	430.920000	-5983.740000	13.276212	13.895720	13.391274	-0.396814	-2.603776	1.300165	-0.094626	1.145125	2.014320	-0.427280	1.892240	-0.838682	0.007690	0.537718	-1.000000	-1.000000	-1.000000	-1.000000	-1.000000	-1.000000	-1.000000	54.000000	0.000000	-1.000000	-1.000000	2555661.000000	1776581515.405215
2428.200000	-9233.955000	20866.185000	63014.085000	48321.810000	32648.445000	433.575000	-5979.960000	12.124773	11.545032	13.568285	-0.295125	0.636778	2.450481	-0.746154	-0.074686	-1.632820	0.686700	2.853620	-0.837156	0.009705	0.537291	-1.000000	-1.000000	-1.000000	-1.000000	-1.000000	-1.000000	-1.000000	54.000000	0.000000	-1.000000	-1.000000	2555662.000000	1776581515.409145
2431.845000	-9231.390000	20868.120000	63016.335000	48335.445000	32675.490000	447.525000	-5972.265000	4.491273	2.685767	5.025023	-0.974457	1.865513	-0.096780	-0.242028	-0.808622	-1.632820	0.686700	2.853620	-0.837156	0.009705	0.537291	-1.000000	-1.000000	-1.000000	-1.000000	-1.000000	-1.000000	-1.000000	54.000000	0.000000	-1.000000	-1.000000	2555663.000000	1776581515.409156
2423.790000	-9239.220000	20863.260000	63020.385000	48357.180000	32712.885000	456.120000	-5976.540000	-5.378588	-7.302771	-6.367127	-2.001290	1.537019	-2.143832	1.639189	-0.828525	-1.632820	0.686700	2.853620	-0.837156	0.009705	0.537291	-1.000000	-1.000000	-1.000000	-1.000000	-1.000000	-1.000000	-1.000000	54.000000	0.000000	-1.000000	-1.000000	2555664.000000	1776581515.413050
2411.460000	-9250.470000	20852.955000	63013.050000	48350.970000	32715.540000	451.575000	-5985.630000	-12.742768	-13.545835	-14.253409	-2.495134	1.856053	0.633956	3.738196	-0.839067	-1.632820	0.686700	2.853620	-0.837156	0.009705	0.537291	-1.000000	-1.000000	-1.000000	-1.000000	-1.000000	-1.000000	-1.000000	54.000000	0.000000	-1.000000	-1.000000	2555665.000000	1776581515.413058
2422.215000	-9238.320000	20864.745000	63022.995000	48346.560000	32704.245000	451.305000	-5979.105000	-14.998961	-14.086744	-15.570311	-2.066798	2.512666	5.613690	3.856748	-1.621011	-1.632820	0.686700	2.853620	-0.837156	0.009705	0.537291	-1.000000	-1.000000	-1.000000	-1.000000	-1.000000	-1.000000	-1.000000	54.000000	0.000000	-1.000000	-1.000000	2555666.000000	1776581515.417032
2414.565000	-9239.265000	20865.825000	63025.020000	48341.520000	32694.660000	447.480000	-5979.915000	-11.521659	-9.068769	-10.373727	-0.695903	1.271129	6.068349	1.009743	-2.464355	-1.632820	0.686700	2.853620	-0.837156	0.009705	0.537291	-1.000000	-1.000000	-1.000000	-1.000000	-1.000000	-1.000000	-1.000000	54.000000	0.000000	-1.000000	-1.000000	2555667.000000	1776581515.417041
2387.070000	-9256.230000	20859.120000	63023.175000	48332.430000	32673.510000	440.910000	-5992.830000	-4.546103	-1.048408	-1.500675	1.238572	-2.266067	-0.660874	-3.450405	-2.355187	-1.632820	0.686700	2.853620	-0.837156	0.009705	0.537291	-1.000000	-1.000000	-1.000000	-1.000000	-1.000000	-1.000000	-1.000000	54.000000	0.000000	-1.000000	-1.000000	2555668.000000	1776581515.421032
2375.865000	-9274.995000	20847.105000	63010.485000	48324.690000	32679.180000	436.590000	-6003.090000	1.368180	5.166757	6.144172	2.358440	-6.195597	-10.545805	-7.165340	-1.816173	-1.632820	0.686700	2.853620	-0.837156	0.009705	0.537291	-1.000000	-1.000000	-1.000000	-1.000000	-1.000000	-1.000000	-1.000000	54.000000	0.000000	-1.000000	-1.000000	2555669.000000	1776581515.421039
2398.905000	-9259.740000	20849.670000	63004.860000	48329.370000	32690.655000	435.060000	-5997.870000	4.326654	6.759971	8.992414	1.345222	-7.983061	-16.226327	-8.251006	-1.505239	-1.632820	0.686700	2.853620	-0.837156	0.009705	0.537291	-1.000000	-1.000000	-1.000000	-1.000000	-1.000000	-1.000000	-1.000000	54.000000	0.000000	-1.000000	-1.000000	2555670.000000	1776581515.425068
2425.005000	-9235.305000	20856.285000	63007.380000	48328.650000	32680.800000	436.545000	-5984.730000	7.229906	6.196407	7.610425	-1.147733	-5.947200	-13.118088	-6.017905	-0.358512	-1.632820	0.686700	2.853620	-0.837156	0.009705	0.537291	-1.000000	-1.000000	-1.000000	-1.000000	-1.000000	-1.000000	-1.000000	54.000000	0.000000	-1.000000	-1.000000	2555671.000000	1776581515.425078
2438.955000	-9225.810000	20863.125000	63014.220000	48329.595000	32673.060000	440.595000	-5977.440000	12.478328	7.453204	5.179035	-2.613478	-0.659901	-3.683679	-1.223560	2.882386	-3.570840	2.731540	0.549360	-0.835447	0.013550	0.539000	-1.000000	-1.000000	-1.000000	-1.000000	-1.000000	-1.000000	-1.000000	54.000000	0.000000	-1.000000	-1.000000	2555672.000000	1776581515.429210
2436.480000	-9228.690000	20867.355000	63021.870000	48331.665000	32667.120000	438.300000	-5977.260000	17.170440	10.072956	3.859138	-1.152476	5.210406	5.554412	4.151357	7.025951	-3.570840	2.731540	0.549360	-0.835447	0.013550	0.539000	-1.000000	-1.000000	-1.000000	-1.000000	-1.000000	-1.000000	-1.000000	54.000000	0.000000	-1.000000	-1.000000	2555673.000000	1776581515.429229
2426.805000	-9234.045000	20863.305000	63016.875000	48331.440000	32669.865000	440.415000	-5977.710000	15.693052	9.769038	3.267436	2.427749	8.882907	10.287767	7.740451	8.932562	-3.570840	2.731540	0.549360	-0.835447	0.013550	0.539000	-1.000000	-1.000000	-1.000000	-1.000000	-1.000000	-1.000000	-1.000000	54.000000	0.000000	-1.000000	-1.000000	2555674.000000	1776581515.433074
2420.370000	-9239.175000	20857.995000	63012.465000	48330.135000	32672.925000	441.720000	-5980.005000	5.959480	4.013660	1.735823	5.124502	8.992021	10.537746	8.199976	6.605820	-3.570840	2.731540	0.549360	-0.835447	0.013550	0.539000	-1.000000	-1.000000	-1.000000	-1.000000	-1.000000	-1.000000	-1.000000	54.000000	0.000000	-1.000000	-1.000000	2555675.000000	1776581515.433085
2418.525000	-9246.150000	20852.370000	63011.610000	48334.725000	32671.620000	439.965000	-5983.740000	-7.878593	-5.110673	-1.510252	4.610991	5.992583	8.390113	5.860177	0.933485	-3.570840	2.731540	0.549360	-0.835447	0.013550	0.539000	-1.000000	-1.000000	-1.000000	-1.000000	-1.000000	-1.000000	-1.000000	54.000000	0.000000	-1.000000	-1.000000	2555676.000000	1776581515.439685
2420.820000	-9243.135000	20855.655000	63013.725000	48327.705000	32651.280000	433.530000	-5984.685000	-18.473838	-12.803477	-5.214215	1.439072	1.600787	5.040766	1.932010	-5.223563	-3.570840	2.731540	0.549360	-0.835447	0.013550	0.539000	-1.000000	-1.000000	-1.000000	-1.000000	-1.000000	-1.000000	-1.000000	54.000000	0.000000	-1.000000	-1.000000	2555677.000000	1776581515.439698
2424.330000	-9238.140000	20859.345000	63013.050000	48314.250000	32647.815000	440.055000	-5976.090000	-20.595245	-14.912128	-6.968443	-1.935807	-2.747633	0.492503	-2.092555	-8.781635	-3.570840	2.731540	0.549360	-0.835447	0.013550	0.539000	-1.000000	-1.000000	-1.000000	-1.000000	-1.000000	-1.000000	-1.000000	54.000000	0.000000	-1.000000	-1.000000	2555678.000000	1776581515.441251
2409.525000	-9245.295000	20858.355000	63011.970000	48306.960000	32665.995000	434.655000	-5986.305000	-14.456224	-10.639414	-5.446934	-3.631940	-6.412272	-3.835319	-4.619607	-8.239646	-3.570840	2.731540	0.549360	-0.835447	0.013550	0.539000	-1.000000	-1.000000	-1.000000	-1.000000	-1.000000	-1.000000	-1.000000	54.000000	0.000000	-1.000000	-1.000000	2555679.000000	1776581515.441260
2418.210000	-9235.845000	20866.950000	63022.680000	48323.835000	32678.055000	434.745000	-5984.955000	-4.656178	-2.871419	-1.564129	-3.208148	-8.087494	-4.710954	-4.929039	-4.791241	-3.570840	2.731540	0.549360	-0.835447	0.013550	0.539000	-1.000000	-1.000000	-1.000000	-1.000000	-1.000000	-1.000000	-1.000000	54.000000	0.000000	-1.000000	-1.000000	2555680.000000	1776581515.445072
2414.070000	-9244.845000	20849.130000	63002.520000	48330.675000	32693.625000	443.655000	-5988.465000	4.117209	4.372913	2.289469	-1.470690	-5.777212	-0.912139	-3.399666	-0.885110	-3.570840	2.731540	0.549360	-0.835447	0.013550	0.539000	-1.000000	-1.000000	-1.000000	-1.000000	-1.000000	-1.000000	-1.000000	54.000000	0.000000	-1.000000	-1.000000	2555681.000000	1776581515.445090
2409.030000	-9251.190000	20842.155000	62995.455000	48334.140000	32704.245000	442.260000	-5995.890000	9.345299	8.094686	3.548068	-0.400861	0.253867	4.809985	-0.736416	1.802005	-3.631880	5.142620	-0.473060	-0.834226	0.013916	0.539977	-1.000000	-1.000000	-1.000000	-1.000000	-1.000000	-1.000000	-1.000000	54.000000	0.000000	-1.000000	-1.000000	2555682.000000	1776581515.449046
2409.570000	-9248.580000	20851.650000	63010.845000	48342.330000	32698.080000	436.095000	-5996.565000	10.276284	7.419383	1.771291	-0.857883	6.523203	7.970891	1.762776	2.728011	-3.631880	5.142620	-0.473060	-0.834226	0.013916	0.539977	-1.000000	-1.000000	-1.000000	-1.000000	-1.000000	-1.000000	-1.000000	54.000000	0.000000	-1.000000	-1.000000	2555683.000000	1776581515.449051
2418.525000	-9241.155000	20865.420000	63048.285000	48354.795000	32680.935000	435.285000	-5987.880000	8.058830	4.284831	-0.189191	-0.265909	9.597530	5.271036	2.513239	2.609117	-3.631880	5.142620	-0.473060	-0.834226	0.013916	0.539977	-1.000000	-1.000000	-1.000000	-1.000000	-1.000000	-1.000000	-1.000000	54.000000	0.000000	-1.000000	-1.000000	2555684.000000	1776581515.495806
2418.975000	-9252.990000	20840.985000	63019.890000	48326.760000	32657.400000	434.880000	-5983.920000	5.020795	1.409229	0.016848	3.367959	8.007810	-3.311906	1.316715	2.868561	-3.631880	5.142620	-0.473060	-0.834226	0.013916	0.539977	-1.000000	-1.000000	-1.000000	-1.000000	-1.000000	-1.000000	-1.000000	54.000000	0.000000	-1.000000	-1.000000	2555685.000000	1776581515.495822
2420.505000	-9252.270000	20834.775000	62992.980000	48328.155000	32679.585000	450.630000	-5976.045000	2.545849	-0.411983	0.782765	6.104072	1.760458	-13.198123	-0.184662	3.970050	-3.631880	5.142620	-0.473060	-0.834226	0.013916	0.539977	-1.000000	-1.000000	-1.000000	-1.000000	-1.000000	-1.000000	-1.000000	54.000000	0.000000	-1.000000	-1.000000	2555686.000000	1776581515.495835
2417.445000	-9235.620000	20868.210000	63006.660000	48334.770000	32694.255000	445.905000	-5982.300000	0.468094	-1.265223	0.462698	3.046334	-6.290998	-16.896947	-0.238906	4.776788	-3.631880	5.142620	-0.473060	-0.834226	0.013916	0.539977	-1.000000	-1.000000	-1.000000	-1.000000	-1.000000	-1.000000	-1.000000	54.000000	0.000000	-1.000000	-1.000000	2555687.000000	1776581515.495840
2415.870000	-9235.440000	20860.020000	62997.795000	48334.275000	32710.455000	442.350000	-5986.620000	-1.715695	-0.599259	0.786029	-3.641395	-11.011250	-10.344704	0.799669	3.594394	-3.631880	5.142620	-0.473060	-0.834226	0.013916	0.539977	-1.000000	-1.000000	-1.000000	-1.000000	-1.000000	-1.000000	-1.000000	54.000000	0.000000	-1.000000	-1.000000	2555688.000000	1776581515.495845
2420.505000	-9236.790000	20856.870000	62999.370000	48323.880000	32687.595000	447.075000	-5980.140000	-3.726028	1.100941	2.435396	-7.973297	-9.958166	2.127816	1.164100	0.159724	-3.631880	5.142620	-0.473060	-0.834226	0.013916	0.539977	-1.000000	-1.000000	-1.000000	-1.000000	-1.000000	-1.000000	-1.000000	54.000000	0.000000	-1.000000	-1.000000	2555689.000000	1776581515.495849
2418.750000	-9240.480000	20857.095000	63000.855000	48313.935000	32677.920000	447.390000	-5981.625000	-4.620778	1.810945	3.022735	-7.117179	-5.377913	11.136182	0.338309	-3.571721	-3.631880	5.142620	-0.473060	-0.834226	0.013916	0.539977	-1.000000	-1.000000	-1.000000	-1.000000	-1.000000	-1.000000	-1.000000	54.000000	0.000000	-1.000000	-1.000000	2555690.000000	1776581515.495854
2420.505000	-9240.120000	20860.740000	63007.740000	48317.130000	32674.500000	442.395000	-5982.165000	-3.946258	0.381131	1.276832	-2.140049	-0.692044	11.050549	-0.910325	-5.467719	-3.631880	5.142620	-0.473060	-0.834226	0.013916	0.539977	-1.000000	-1.000000	-1.000000	-1.000000	-1.000000	-1.000000	-1.000000	54.000000	0.000000	-1.000000	-1.000000	2555691.000000	1776581515.495858
2416.185000	-9243.135000	20859.570000	63003.510000	48311.865000	32649.480000	433.395000	-5987.295000	-2.287730	-2.259531	-1.466033	3.894290	2.690154	3.936940	-2.153666	-5.166750	-2.670500	4.898460	0.366240	-0.833006	0.011414	0.542845	-1.000000	-1.000000	-1.000000	-1.000000	-1.000000	-1.000000	-1.000000	54.000000	0.000000	-1.000000	-1.000000	2555692.000000	1776581515.495863
2416.590000	-9236.295000	20863.170000	63013.905000	48317.130000	32632.560000	429.435000	-5989.230000	-0.644440	-4.179983	-3.397942	7.819614	4.921142	-4.740141	-3.318007	-3.620736	-2.670500	4.898460	0.366240	-0.833006	0.011414	0.542845	-1.000000	-1.000000	-1.000000	-1.000000	-1.000000	-1.000000	-1.000000	54.000000	0.000000	-1.000000	-1.000000	2555693.000000	1776581515.495867
2423.700000	-9234.090000	20863.710000	63027.405000	48335.850000	32656.185000	436.590000	-5980.365000	0.551971	-3.927504	-3.662522	8.478914	6.585234	-9.786300	-3.669211	-1.593254	-2.670500	4.898460	0.366240	-0.833006	0.011414	0.542845	-1.000000	-1.000000	-1.000000	-1.000000	-1.000000	-1.000000	-1.000000	54.000000	0.000000	-1.000000	-1.000000	2555694.000000	1776581515.495872
2413.485000	-9251.865000	20850.345000	63013.230000	48338.595000	32697.585000	441.405000	-5985.630000	1.409620	-1.927082	-2.749674	6.480666	8.106697	-6.689183	-2.015311	0.744329	-2.670500	4.898460	0.366240	-0.833006	0.011414	0.542845	-1.000000	-1.000000	-1.000000	-1.000000	-1.000000	-1.000000	-1.000000	54.000000	0.000000	-1.000000	-1.000000	2555695.000000	1776581515.495876
2402.640000	-9258.840000	20839.455000	62996.670000	48337.335000	32707.440000	439.875000	-5995.755000	1.431599	-0.419619	-2.163609	1.934975	8.475358	4.862961	1.518922	2.605738	-2.670500	4.898460	0.366240	-0.833006	0.011414	0.542845	-1.000000	-1.000000	-1.000000	-1.000000	-1.000000	-1.000000	-1.000000	54.000000	0.000000	-1.000000	-1.000000	2555696.000000	1776581515.495881
2415.195000	-9233.460000	20862.315000	63004.410000	48331.800000	32688.720000	443.385000	-5984.505000	0.298936	-0.167319	-2.176615	-4.554765	5.787297	17.205646	4.917232	2.937569	-2.670500	4.898460	0.366240	-0.833006	0.011414	0.542845	-1.000000	-1.000000	-1.000000	-1.000000	-1.000000	-1.000000	-1.000000	54.000000	0.000000	-1.000000	-1.000000	2555697.000000	1776581515.495885
2416.005000	-9237.915000	20860.335000	63004.635000	48321.855000	32674.365000	440.370000	-5983.020000	-0.550824	0.864339	-0.863801	-9.663984	-0.255629	19.700160	6.092827	2.297892	-2.670500	4.898460	0.366240	-0.833006	0.011414	0.542845	-1.000000	-1.000000	-1.000000	-1.000000	-1.000000	-1.000000	-1.000000	54.000000	0.000000	-1.000000	-1.000000	2555698.000000	1776581515.495890
2417.265000	-9240.660000	20858.625000	63007.695000	48325.410000	32680.845000	440.505000	-5983.560000	0.251147	3.346717	2.405969	-9.935460	-7.287556	9.330708	4.479973	1.910419	-2.670500	4.898460	0.366240	-0.833006	0.011414	0.542845	-1.000000	-1.000000	-1.000000	-1.000000	-1.000000	-1.000000	-1.000000	54.000000	0.000000	-1.000000	-1.000000	2555699.000000	1776581515.495894
2424.600000	-9227.295000	20867.985000	63018.180000	48327.030000	32673.150000	442.935000	-5977.980000	2.070452	5.204367	5.418952	-5.238296	-11.531322	-6.510320	1.149984	1.816348	-2.670500	4.898460	0.366240	-0.833006	0.011414	0.542845	-1.000000	-1.000000	-1.000000	-1.000000	-1.000000	-1.000000	-1.000000	54.000000	0.000000	-1.000000	-1.000000	2555700.000000	1776581515.495899
2421.315000	-9228.465000	20872.710000	63027.045000	48340.530000	32679.045000	442.035000	-5982.570000	3.388783	5.079025	6.304212	1.813555	-10.372209	-17.783609	-2.027036	1.413139	-2.670500	4.898460	0.366240	-0.833006	0.011414	0.542845	-1.000000	-1.000000	-1.000000	-1.000000	-1.000000	-1.000000	-1.000000	54.000000	0.000000	-1.000000	-1.000000	2555701.000000	1776581515.495903
2415.870000	-9241.605000	20859.480000	63016.020000	48331.980000	32671.260000	442.845000	-5985.315000	2.971540	2.916969	4.727349	7.541005	-4.519426	-19.484901	-3.718732	0.246831	-0.076300	5.615680	-0.335720	-0.831480	0.012268	0.544493	-1.000000	-1.000000	-1.000000	-1.000000	-1.000000	-1.000000	-1.000000	54.000000	0.000000	-1.000000	-1.000000	2555702.000000	1776581515.495924
2418.570000	-9246.285000	20845.980000	62998.380000	48312.855000	32660.460000	442.980000	-5980.275000	0.581751	-1.157920	0.640426	8.379763	1.849306	-13.234715	-3.716294	-1.507223	-0.076300	5.615680	-0.335720	-0.831480	0.012268	0.544493	-1.000000	-1.000000	-1.000000	-1.000000	-1.000000	-1.000000	-1.000000	54.000000	0.000000	-1.000000	-1.000000	2555703.000000	1776581515.495929
2421.270000	-9242.595000	20850.705000	63000.000000	48319.605000	32691.420000	444.195000	-5978.745000	-2.344226	-5.651662	-4.828825	3.507664	4.504942	-3.637675	-2.531439	-2.745964	-0.076300	5.615680	-0.335720	-0.831480	0.012268	0.544493	-1.000000	-1.000000	-1.000000	-1.000000	-1.000000	-1.000000	-1.000000	54.000000	0.000000	-1.000000	-1.000000	2555704.000000	1776581515.495934
2411.010000	-9254.475000	20846.925000	63005.490000	48335.625000	32707.485000	434.430000	-5989.005000	-4.034945	-7.947950	-8.545609	-3.304422	3.725458	6.310914	-1.080099	-2.761050	-0.076300	5.615680	-0.335720	-0.831480	0.012268	0.544493	-1.000000	-1.000000	-1.000000	-1.000000	-1.000000	-1.000000	-1.000000	54.000000	0.000000	-1.000000	-1.000000	2555705.000000	1776581515.495938
2410.560000	-9256.545000	20841.075000	63004.860000	48324.870000	32679.180000	427.185000	-5989.860000	-4.179909	-6.966998	-8.098324	-6.827401	2.817485	13.909371	-0.444918	-2.206460	-0.076300	5.615680	-0.335720	-0.831480	0.012268	0.544493	-1.000000	-1.000000	-1.000000	-1.000000	-1.000000	-1.000000	-1.000000	54.000000	0.000000	-1.000000	-1.000000	2555706.000000	1776581515.497339
2405.430000	-9252.405000	20835.180000	62998.785000	48311.820000	32651.145000	424.080000	-5989.230000	-3.350320	-3.531791	-4.238499	-5.379394	2.583020	14.276391	-0.941821	-1.703346	-0.076300	5.615680	-0.335720	-0.831480	0.012268	0.544493	-1.000000	-1.000000	-1.000000	-1.000000	-1.000000	-1.000000	-1.000000	54.000000	0.000000	-1.000000	-1.000000	2555707.000000	1776581515.497348
2405.070000	-9248.265000	20851.335000	63003.195000	48327.255000	32665.995000	439.560000	-5984.010000	-1.886623	1.174529	0.815213	-1.239941	1.612979	5.847549	-1.251556	-0.808415	-0.076300	5.615680	-0.335720	-0.831480	0.012268	0.544493	-1.000000	-1.000000	-1.000000	-1.000000	-1.000000	-1.000000	-1.000000	54.000000	0.000000	-1.000000	-1.000000	2555708.000000	1776581515.501107
2417.760000	-9241.515000	20862.630000	63012.870000	48329.955000	32653.305000	444.330000	-5979.465000	0.259971	5.829258	5.828234	2.866245	0.348478	-5.179026	0.466200	0.998948	-0.076300	5.615680	-0.335720	-0.831480	0.012268	0.544493	-1.000000	-1.000000	-1.000000	-1.000000	-1.000000	-1.000000	-1.000000	54.000000	0.000000	-1.000000	-1.000000	2555709.000000	1776581515.501115
2410.335000	-9251.325000	20832.345000	63003.420000	48324.420000	32651.280000	446.130000	-5984.190000	2.989955	8.603167	9.260342	5.465578	0.098330	-11.179584	3.971721	3.119174	-0.076300	5.615680	-0.335720	-0.831480	0.012268	0.544493	-1.000000	-1.000000	-1.000000	-1.000000	-1.000000	-1.000000	-1.000000	54.000000	0.000000	-1.000000	-1.000000	2555710.000000	1776581515.505202
2389.095000	-9261.045000	20829.960000	63001.125000	48326.580000	32681.430000	439.560000	-5999.040000	4.678881	7.662426	8.189721	5.485508	0.358257	-9.340942	6.490975	3.775924	-0.076300	5.615680	-0.335720	-0.831480	0.012268	0.544493	-1.000000	-1.000000	-1.000000	-1.000000	-1.000000	-1.000000	-1.000000	54.000000	0.000000	-1.000000	-1.000000	2555711.000000	1776581515.505216
2378.475000	-9258.975000	20853.855000	63013.185000	48339.135000	32715.000000	440.550000	-6001.065000	3.041035	2.984118	2.754917	2.993609	0.315112	-0.552015	5.542211	1.701618	0.305200	7.248500	0.167860	-0.832029	0.015198	0.541747	-1.000000	-1.000000	-1.000000	-1.000000	-1.000000	-1.000000	-1.000000	54.000000	0.000000	-1.000000	-1.000000	2555712.000000	1776581515.509193
2413.035000	-9243.450000	20871.540000	63010.170000	48319.335000	32684.130000	435.915000	-5989.365000	-0.732096	-2.339769	-1.842347	-0.014494	-0.016541	10.503748	1.411413	-1.645159	0.305200	7.248500	0.167860	-0.832029	0.015198	0.541747	-1.000000	-1.000000	-1.000000	-1.000000	-1.000000	-1.000000	-1.000000	54.000000	0.000000	-1.000000	-1.000000	2555713.000000	1776581515.509198
2421.855000	-9233.100000	20874.420000	63012.015000	48314.295000	32672.520000	439.380000	-5982.435000	-1.768914	-4.315384	-1.686240	-1.829062	-1.189407	15.270762	-3.351441	-2.943802	0.305200	7.248500	0.167860	-0.832029	0.015198	0.541747	-1.000000	-1.000000	-1.000000	-1.000000	-1.000000	-1.000000	-1.000000	54.000000	0.000000	-1.000000	-1.000000	2555714.000000	1776581515.513126
2424.600000	-9236.295000	20861.415000	63006.885000	48312.945000	32669.100000	436.410000	-5986.080000	1.925394	-2.153044	0.966589	-2.520017	-3.398469	8.942129	-6.119070	-0.922245	0.305200	7.248500	0.167860	-0.832029	0.015198	0.541747	-1.000000	-1.000000	-1.000000	-1.000000	-1.000000	-1.000000	-1.000000	54.000000	0.000000	-1.000000	-1.000000	2555715.000000	1776581515.513131
2415.735000	-9249.345000	20850.795000	62993.160000	48313.620000	32681.385000	439.110000	-5990.310000	6.245151	0.789080	1.060681	-3.051334	-4.916921	-3.466789	-5.854608	2.085131	0.305200	7.248500	0.167860	-0.832029	0.015198	0.541747	-1.000000	-1.000000	-1.000000	-1.000000	-1.000000	-1.000000	-1.000000	54.000000	0.000000	-1.000000	-1.000000	2555716.000000	1776581515.517162
2411.595000	-9245.520000	20864.610000	63004.545000	48324.555000	32683.095000	435.735000	-5988.465000	6.071199	0.890718	-2.824802	-3.788127	-3.736984	-12.484602	-3.325649	3.130524	0.305200	7.248500	0.167860	-0.832029	0.015198	0.541747	-1.000000	-1.000000	-1.000000	-1.000000	-1.000000	-1.000000	-1.000000	54.000000	0.000000	-1.000000	-1.000000	2555717.000000	1776581515.517167
2406.735000	-9242.685000	20875.095000	63030.555000	48330.315000	32671.170000	430.380000	-5990.355000	0.673333	-1.665734	-6.802959	-3.103910	0.348970	-13.351797	-0.312739	1.686966	0.305200	7.248500	0.167860	-0.832029	0.015198	0.541747	-1.000000	-1.000000	-1.000000	-1.000000	-1.000000	-1.000000	-1.000000	54.000000	0.000000	-1.000000	-1.000000	2555718.000000	1776581515.521159
2403.945000	-9242.100000	20875.770000	63050.535000	48330.090000	32655.105000	415.935000	-6001.695000	-6.340566	-3.897357	-6.714696	1.086221	5.263751	-8.606545	1.349742	-0.950606	0.305200	7.248500	0.167860	-0.832029	0.015198	0.541747	-1.000000	-1.000000	-1.000000	-1.000000	-1.000000	-1.000000	-1.000000	54.000000	0.000000	-1.000000	-1.000000	2555719.000000	1776581515.521168
2402.550000	-9233.145000	20893.860000	63073.260000	48328.110000	32643.810000	407.385000	-6006.645000	-10.575371	-3.680513	-2.546448	7.757120	7.833786	-3.424817	0.811976	-3.538898	0.305200	7.248500	0.167860	-0.832029	0.015198	0.541747	-1.000000	-1.000000	-1.000000	-1.000000	-1.000000	-1.000000	-1.000000	54.000000	0.000000	-1.000000	-1.000000	2555720.000000	1776581515.525264
2398.275000	-9257.850000	20836.890000	62983.485000	48304.890000	32668.335000	432.000000	-5991.795000	-9.948074	-1.575952	1.803171	10.940467	5.902821	0.172058	-0.475811	-4.735358	0.305200	7.248500	0.167860	-0.832029	0.015198	0.541747	-1.000000	-1.000000	-1.000000	-1.000000	-1.000000	-1.000000	-1.000000	54.000000	0.000000	-1.000000	-1.000000	2555721.000000	1776581515.525271
2389.905000	-9277.155000	20788.830000	62902.755000	48273.840000	32666.760000	445.905000	-5984.730000	-5.526953	-0.407584	0.642851	2.321235	-0.664804	3.847694	0.682932	-2.936289	-2.411080	7.568960	-0.976640	-0.835508	0.019470	0.537169	-1.000000	-1.000000	-1.000000	-1.000000	-1.000000	-1.000000	-1.000000	54.000000	0.000000	-1.000000	-1.000000	2555722.000000	1776581515.529114
2400.705000	-9258.435000	20829.420000	62968.275000	48295.170000	32635.665000	432.675000	-5990.040000	0.106471	-1.537946	-6.528154	-16.557157	-8.784972	7.630747	4.838003	1.461036	-2.411080	7.568960	-0.976640	-0.835508	0.019470	0.537169	-1.000000	-1.000000	-1.000000	-1.000000	-1.000000	-1.000000	-1.000000	54.000000	0.000000	-1.000000	-1.000000	2555723.000000	1776581515.529120
2430.045000	-9231.930000	20853.585000	62999.010000	48312.270000	32641.920000	439.560000	-5979.465000	5.630901	-1.702468	-10.431157	-27.954018	-11.969452	8.278146	8.034817	5.455888	-2.411080	7.568960	-0.976640	-0.835508	0.019470	0.537169	-1.000000	-1.000000	-1.000000	-1.000000	-1.000000	-1.000000	-1.000000	54.000000	0.000000	-1.000000	-1.000000	2555724.000000	1776581515.533298
2427.885000	-9231.615000	20853.135000	62997.165000	48312.765000	32663.610000	438.570000	-5984.505000	10.707904	2.517581	-3.078512	-17.468068	-6.187707	5.350552	6.834867	6.491168	-2.411080	7.568960	-0.976640	-0.835508	0.019470	0.537169	-1.000000	-1.000000	-1.000000	-1.000000	-1.000000	-1.000000	-1.000000	54.000000	0.000000	-1.000000	-1.000000	2555725.000000	1776581515.533307
2413.620000	-9240.705000	20852.325000	63005.985000	48324.555000	32691.555000	431.100000	-5995.530000	12.910008	8.549062	10.910731	7.673866	4.844884	3.170528	1.808964	4.025940	-2.411080	7.568960	-0.976640	-0.835508	0.019470	0.537169	-1.000000	-1.000000	-1.000000	-1.000000	-1.000000	-1.000000	-1.000000	54.000000	0.000000	-1.000000	-1.000000	2555726.000000	1776581515.537461
2411.100000	-9253.215000	20830.860000	63000.765000	48330.585000	32688.180000	433.980000	-5992.065000	9.021863	10.220568	19.982181	28.626676	13.645004	4.397810	-4.237489	-0.851036	-2.411080	7.568960	-0.976640	-0.835508	0.019470	0.537169	-1.000000	-1.000000	-1.000000	-1.000000	-1.000000	-1.000000	-1.000000	54.000000	0.000000	-1.000000	-1.000000	2555727.000000	1776581515.537477
2416.860000	-9261.090000	20815.245000	62987.895000	48321.720000	32673.060000	445.905000	-5978.790000	0.151324	4.879086	17.081194	32.801019	15.234705	5.785002	-8.069672	-5.183139	-2.411080	7.568960	-0.976640	-0.835508	0.019470	0.537169	-1.000000	-1.000000	-1.000000	-1.000000	-1.000000	-1.000000	-1.000000	54.000000	0.000000	-1.000000	-1.000000	2555728.000000	1776581515.544060
2415.735000	-9251.505000	20841.930000	62991.720000	48297.510000	32646.735000	435.780000	-5983.065000	-8.279152	-3.897092	4.980257	20.179053	8.632784	2.096796	-7.744671	-5.959229	-2.411080	7.568960	-0.976640	-0.835508	0.019470	0.537169	-1.000000	-1.000000	-1.000000	-1.000000	-1.000000	-1.000000	-1.000000	54.000000	0.000000	-1.000000	-1.000000	2555729.000000	1776581515.544074
2425.905000	-9222.120000	20879.955000	63003.555000	48296.295000	32629.500000	431.685000	-5979.105000	-11.608796	-9.268912	-6.012847	0.556363	-3.240200	-7.394321	-4.524025	-3.262965	-2.411080	7.568960	-0.976640	-0.835508	0.019470	0.537169	-1.000000	-1.000000	-1.000000	-1.000000	-1.000000	-1.000000	-1.000000	54.000000	0.000000	-1.000000	-1.000000	2555730.000000	1776581515.545310
2413.665000	-9233.505000	20856.195000	62986.005000	48290.040000	32629.410000	428.670000	-5987.475000	-9.251588	-7.239185	-8.235648	-14.768879	-14.058635	-17.203885	-1.310316	0.155528	-2.411080	7.568960	-0.976640	-0.835508	0.019470	0.537169	-1.000000	-1.000000	-1.000000	-1.000000	-1.000000	-1.000000	-1.000000	54.000000	0.000000	-1.000000	-1.000000	2555731.000000	1776581515.545321
2401.335000	-9248.220000	20842.335000	62981.910000	48309.435000	32661.765000	423.450000	-5999.400000	-4.417427	-1.059286	-4.697749	-20.831278	-17.466817	-19.404793	0.422280	1.604785	-7.767340	7.980980	-4.486440	-0.839048	0.023560	0.534606	-1.000000	-1.000000	-1.000000	-1.000000	-1.000000	-1.000000	-1.000000	54.000000	0.000000	-1.000000	-1.000000	2555732.000000	1776581515.549322
2402.775000	-9246.015000	20852.370000	63003.330000	48329.505000	32689.080000	424.890000	-5999.400000	-0.795441	2.726084	-2.782768	-18.433503	-11.102806	-9.706702	1.018526	0.356766	-7.767340	7.980980	-4.486440	-0.839048	0.023560	0.534606	-1.000000	-1.000000	-1.000000	-1.000000	-1.000000	-1.000000	-1.000000	54.000000	0.000000	-1.000000	-1.000000	2555733.000000	1776581515.549334
2417.805000	-9231.165000	20868.210000	63021.690000	48334.635000	32685.480000	436.230000	-5984.010000	1.165404	2.194638	-3.807620	-9.621140	1.683898	7.626585	1.676719	-1.510283	-7.767340	7.980980	-4.486440	-0.839048	0.023560	0.534606	-1.000000	-1.000000	-1.000000	-1.000000	-1.000000	-1.000000	-1.000000	54.000000	0.000000	-1.000000	-1.000000	2555734.000000	1776581515.554634
2414.475000	-9233.235000	20864.835000	63021.735000	48338.595000	32693.850000	440.865000	-5984.280000	3.279570	0.442722	-4.214909	2.189146	13.309417	21.625594	3.362344	-1.057332	-7.767340	7.980980	-4.486440	-0.839048	0.023560	0.534606	-1.000000	-1.000000	-1.000000	-1.000000	-1.000000	-1.000000	-1.000000	54.000000	0.000000	-1.000000	-1.000000	2555735.000000	1776581515.554643
2414.520000	-9237.150000	20858.895000	63013.005000	48344.265000	32702.445000	443.610000	-5982.120000	5.693257	-0.164464	-2.622413	11.062040	17.178744	23.876674	5.489987	1.899045	-7.767340	7.980980	-4.486440	-0.839048	0.023560	0.534606	-1.000000	-1.000000	-1.000000	-1.000000	-1.000000	-1.000000	-1.000000	54.000000	0.000000	-1.000000	-1.000000	2555736.000000	1776581515.557384
2419.920000	-9237.015000	20858.445000	63006.930000	48330.450000	32680.710000	441.855000	-5976.810000	6.697305	-0.119759	-0.806006	12.081289	11.936693	14.266324	6.153198	4.809075	-7.767340	7.980980	-4.486440	-0.839048	0.023560	0.534606	-1.000000	-1.000000	-1.000000	-1.000000	-1.000000	-1.000000	-1.000000	54.000000	0.000000	-1.000000	-1.000000	2555737.000000	1776581515.557392
2425.770000	-9227.790000	20867.535000	63010.350000	48317.625000	32653.440000	436.545000	-5976.855000	5.544132	-0.184107	0.052245	5.740143	0.741045	-2.080482	3.976214	5.497595	-7.767340	7.980980	-4.486440	-0.839048	0.023560	0.534606	-1.000000	-1.000000	-1.000000	-1.000000	-1.000000	-1.000000	-1.000000	54.000000	0.000000	-1.000000	-1.000000	2555738.000000	1776581515.561327
2421.450000	-9230.445000	20861.685000	63001.485000	48315.330000	32661.405000	438.210000	-5980.005000	2.924508	-0.055596	0.540839	-2.810123	-11.002999	-18.037109	-0.487388	3.519827	-7.767340	7.980980	-4.486440	-0.839048	0.023560	0.534606	-1.000000	-1.000000	-1.000000	-1.000000	-1.000000	-1.000000	-1.000000	54.000000	0.000000	-1.000000	-1.000000	2555739.000000	1776581515.561335
2404.530000	-9250.290000	20846.835000	62992.710000	48302.775000	32665.095000	433.215000	-5993.955000	-0.667374	-0.024107	0.796705	-8.636484	-17.783206	-25.661902	-5.005695	-0.472831	-7.767340	7.980980	-4.486440	-0.839048	0.023560	0.534606	-1.000000	-1.000000	-1.000000	-1.000000	-1.000000	-1.000000	-1.000000	54.000000	0.000000	-1.000000	-1.000000	2555740.000000	1776581515.565168
2398.005000	-9258.840000	20839.275000	62986.635000	48309.210000	32665.680000	435.960000	-5995.440000	-5.018404	-1.364180	-0.070903	-9.951700	-16.756900	-20.818730	-7.326798	-5.094235	-7.767340	7.980980	-4.486440	-0.839048	0.023560	0.534606	-1.000000	-1.000000	-1.000000	-1.000000	-1.000000	-1.000000	-1.000000	54.000000	0.000000	-1.000000	-1.000000	2555741.000000	1776581515.565180
2401.020000	-9254.790000	20842.920000	62994.555000	48322.125000	32688.990000	441.180000	-5992.245000	-8.556535	-3.726254	-1.728604	-7.108351	-8.604609	-6.595101	-6.439716	-8.052192	-5.844580	7.172200	-5.295220	-0.841490	0.022461	0.530577	-1.000000	-1.000000	-1.000000	-1.000000	-1.000000	-1.000000	-1.000000	54.000000	0.000000	-1.000000	-1.000000	2555742.000000	1776581515.569378
2411.730000	-9257.175000	20834.460000	62996.355000	48328.920000	32710.545000	448.560000	-5983.020000	-8.491988	-4.518516	-2.284875	-1.255448	3.343076	9.989218	-2.736379	-7.101210	-5.844580	7.172200	-5.295220	-0.841490	0.022461	0.530577	-1.000000	-1.000000	-1.000000	-1.000000	-1.000000	-1.000000	-1.000000	54.000000	0.000000	-1.000000	-1.000000	2555743.000000	1776581515.569397
2414.430000	-9250.515000	20844.135000	63007.875000	48331.485000	32696.595000	446.580000	-5981.445000	-3.687116	-2.023125	-0.620676	5.585068	13.884799	21.724430	1.999113	-2.169468	-5.844580	7.172200	-5.295220	-0.841490	0.022461	0.530577	-1.000000	-1.000000	-1.000000	-1.000000	-1.000000	-1.000000	-1.000000	54.000000	0.000000	-1.000000	-1.000000	2555744.000000	1776581515.573643
2418.210000	-9229.995000	20858.670000	63008.460000	48321.225000	32684.310000	441.630000	-5983.245000	3.472584	3.084101	2.951261	10.744655	17.980689	22.783566	5.124610	3.922781	-5.844580	7.172200	-5.295220	-0.841490	0.022461	0.530577	-1.000000	-1.000000	-1.000000	-1.000000	-1.000000	-1.000000	-1.000000	54.000000	0.000000	-1.000000	-1.000000	2555745.000000	1776581515.573668
2414.970000	-9232.380000	20853.855000	62992.485000	48309.480000	32674.095000	436.410000	-5987.070000	8.758620	8.581352	7.032544	11.647499	13.590605	12.282193	4.812732	7.450005	-5.844580	7.172200	-5.295220	-0.841490	0.022461	0.530577	-1.000000	-1.000000	-1.000000	-1.000000	-1.000000	-1.000000	-1.000000	54.000000	0.000000	-1.000000	-1.000000	2555746.000000	1776581515.577306
2418.930000	-9230.175000	20861.145000	63002.385000	48307.635000	32638.275000	432.450000	-5983.695000	9.391874	11.250542	9.085395	7.325743	3.219621	-4.231529	1.527553	6.731964	-5.844580	7.172200	-5.295220	-0.841490	0.022461	0.530577	-1.000000	-1.000000	-1.000000	-1.000000	-1.000000	-1.000000	-1.000000	54.000000	0.000000	-1.000000	-1.000000	2555747.000000	1776581515.577335
2427.390000	-9222.750000	20871.000000	63012.285000	48297.645000	32607.315000	431.190000	-5977.440000	5.908702	8.938715	7.504295	0.436336	-7.395900	-19.150515	-2.372334	3.225323	-5.844580	7.172200	-5.295220	-0.841490	0.022461	0.530577	-1.000000	-1.000000	-1.000000	-1.000000	-1.000000	-1.000000	-1.000000	54.000000	0.000000	-1.000000	-1.000000	2555748.000000	1776581515.581314
2420.865000	-9230.670000	20859.210000	63000.945000	48292.785000	32616.135000	428.220000	-5982.165000	0.981218	2.655281	3.035722	-4.785764	-13.208125	-26.190227	-4.475109	-0.371352	-5.844580	7.172200	-5.295220	-0.841490	0.022461	0.530577	-1.000000	-1.000000	-1.000000	-1.000000	-1.000000	-1.000000	-1.000000	54.000000	0.000000	-1.000000	-1.000000	2555749.000000	1776581515.581324
