Channel1	Channel2	Channel3	Channel4	Channel5	Channel6	Channel7	Channel8	FilteredChannel1	FilteredChannel2	FilteredChannel3	FilteredChannel4	FilteredChannel5	FilteredChannel6	FilteredChannel7	FilteredChannel8	GyroX	GyroY	GyroZ	AccX	AccY	AccZ	PPG1	PPG2	rawPPG1	rawPPG2	rawPPG3	Hr	Hrv	Battery	Trigger	PhysicalTrigger	AutoTrigger	NumMeasurements	Timestamp
477.810000	-12193.695000	18514.575000	66118.995000	48838.185000	33887.070000	-120.420000	-11527.965000	-0.106715	0.831368	1.977821	-1.207891	-8.938025	-20.139353	1.704623	2.040591	-2.487380	2.838360	0.930860	-0.809995	-0.013061	0.576476	-1.000000	-1.000000	-1.000000	-1.000000	-1.000000	-1.000000	-1.000000	55.000000	0.000000	-1.000000	-1.000000	2478842.000000	1776581361.579961
469.260000	-12200.355000	18515.790000	66129.930000	48838.185000	33879.735000	-130.770000	-11537.640000	0.798164	0.036492	-1.485484	-5.400125	-10.590620	-18.552455	4.575542	4.084428	-2.487380	2.838360	0.930860	-0.809995	-0.013061	0.576476	-1.000000	-1.000000	-1.000000	-1.000000	-1.000000	-1.000000	-1.000000	55.000000	0.000000	-1.000000	-1.000000	2478843.000000	1776581361.579975
476.460000	-12187.665000	18532.395000	66156.120000	48852.270000	33877.710000	-133.245000	-11533.365000	1.600066	-1.335508	-5.626782	-7.957691	-7.343251	-8.874548	6.269168	5.380013	-2.487380	2.838360	0.930860	-0.809995	-0.013061	0.576476	-1.000000	-1.000000	-1.000000	-1.000000	-1.000000	-1.000000	-1.000000	55.000000	0.000000	-1.000000	-1.000000	2478844.000000	1776581361.583957
471.105000	-12190.545000	18530.595000	66160.350000	48852.720000	33869.745000	-135.405000	-11533.590000	2.033123	-1.101213	-4.972375	-2.819810	0.302674	1.616330	4.226194	4.565980	-2.487380	2.838360	0.930860	-0.809995	-0.013061	0.576476	-1.000000	-1.000000	-1.000000	-1.000000	-1.000000	-1.000000	-1.000000	55.000000	0.000000	-1.000000	-1.000000	2478845.000000	1776581361.583969
469.980000	-12196.125000	18533.970000	66158.235000	48850.830000	33872.310000	-140.220000	-11539.665000	1.940844	1.201970	1.264241	8.417192	8.509940	7.301744	-0.954383	1.758714	-2.487380	2.838360	0.930860	-0.809995	-0.013061	0.576476	-1.000000	-1.000000	-1.000000	-1.000000	-1.000000	-1.000000	-1.000000	55.000000	0.000000	-1.000000	-1.000000	2478846.000000	1776581361.587854
472.455000	-12185.010000	18554.085000	66165.165000	48863.295000	33905.970000	-130.095000	-11537.820000	1.268212	3.708441	8.839711	17.630898	12.836340	8.168589	-6.030253	-1.805096	-2.487380	2.838360	0.930860	-0.809995	-0.013061	0.576476	-1.000000	-1.000000	-1.000000	-1.000000	-1.000000	-1.000000	-1.000000	55.000000	0.000000	-1.000000	-1.000000	2478847.000000	1776581361.587864
467.190000	-12190.590000	18548.865000	66158.775000	48850.830000	33886.575000	-139.860000	-11545.380000	0.334310	4.861421	13.400467	18.653497	11.583496	7.358494	-8.013489	-4.641378	-2.487380	2.838360	0.930860	-0.809995	-0.013061	0.576476	-1.000000	-1.000000	-1.000000	-1.000000	-1.000000	-1.000000	-1.000000	55.000000	0.000000	-1.000000	-1.000000	2478848.000000	1776581361.592035
474.570000	-12185.055000	18554.310000	66170.925000	48849.255000	33857.505000	-139.995000	-11533.230000	-0.401317	4.280267	12.560101	11.517294	5.765236	5.180091	-6.506882	-5.505052	-2.487380	2.838360	0.930860	-0.809995	-0.013061	0.576476	-1.000000	-1.000000	-1.000000	-1.000000	-1.000000	-1.000000	-1.000000	55.000000	0.000000	-1.000000	-1.000000	2478849.000000	1776581361.592052
471.555000	-12184.650000	18555.390000	66172.860000	48845.880000	33844.815000	-139.230000	-11529.945000	-0.593509	2.302248	6.487478	0.958439	-1.987574	-0.558547	-3.200402	-3.755879	-2.487380	2.838360	0.930860	-0.809995	-0.013061	0.576476	-1.000000	-1.000000	-1.000000	-1.000000	-1.000000	-1.000000	-1.000000	55.000000	0.000000	-1.000000	-1.000000	2478850.000000	1776581361.595921
483.705000	-12181.995000	18550.755000	66165.705000	48837.195000	33841.710000	-139.545000	-11526.840000	-0.106461	-0.141968	-2.002818	-7.857364	-8.298514	-8.279414	0.285576	-0.066512	-2.487380	2.838360	0.930860	-0.809995	-0.013061	0.576476	-1.000000	-1.000000	-1.000000	-1.000000	-1.000000	-1.000000	-1.000000	55.000000	0.000000	-1.000000	-1.000000	2478851.000000	1776581361.595933
495.405000	-12174.615000	18548.010000	66158.910000	48842.730000	33860.295000	-135.990000	-11522.430000	1.079602	-2.016404	-9.415030	-12.716393	-10.742688	-12.112749	3.026437	3.475775	-4.913720	2.594200	-0.793520	-0.809080	-0.009705	0.577269	-1.000000	-1.000000	-1.000000	-1.000000	-1.000000	-1.000000	-1.000000	55.000000	0.000000	-1.000000	-1.000000	2478852.000000	1776581361.599977
496.080000	-12167.325000	18551.565000	66167.955000	48863.655000	33885.225000	-131.355000	-11523.150000	2.593206	-2.571224	-13.166997	-13.532987	-8.291933	-7.514069	4.618203	4.921904	-4.913720	2.594200	-0.793520	-0.809080	-0.009705	0.577269	-1.000000	-1.000000	-1.000000	-1.000000	-1.000000	-1.000000	-1.000000	55.000000	0.000000	-1.000000	-1.000000	2478853.000000	1776581361.599990
488.925000	-12171.105000	18553.635000	66176.460000	48872.205000	33893.235000	-134.280000	-11528.010000	2.952017	-1.923828	-12.080164	-10.310342	-1.474341	4.067769	4.934827	3.601804	-4.913720	2.594200	-0.793520	-0.809080	-0.009705	0.577269	-1.000000	-1.000000	-1.000000	-1.000000	-1.000000	-1.000000	-1.000000	55.000000	0.000000	-1.000000	-1.000000	2478854.000000	1776581361.603859
485.145000	-12178.575000	18543.330000	66160.035000	48847.545000	33901.020000	-132.570000	-11527.830000	0.681421	-1.401914	-7.173062	-4.175010	5.962624	15.424783	3.826202	0.221147	-4.913720	2.594200	-0.793520	-0.809080	-0.009705	0.577269	-1.000000	-1.000000	-1.000000	-1.000000	-1.000000	-1.000000	-1.000000	55.000000	0.000000	-1.000000	-1.000000	2478855.000000	1776581361.603868
484.830000	-12179.520000	18543.105000	66156.390000	48838.680000	33893.505000	-129.735000	-11526.480000	-3.513160	-2.172075	-1.365249	1.508860	8.335265	18.963516	1.597397	-3.319714	-4.913720	2.594200	-0.793520	-0.809080	-0.009705	0.577269	-1.000000	-1.000000	-1.000000	-1.000000	-1.000000	-1.000000	-1.000000	55.000000	0.000000	-1.000000	-1.000000	2478856.000000	1776581361.608007
481.725000	-12180.150000	18544.860000	66159.990000	48846.690000	33885.180000	-133.650000	-11531.295000	-6.981083	-3.622399	2.935827	4.107370	4.022138	12.123942	-0.823742	-5.103558	-4.913720	2.594200	-0.793520	-0.809080	-0.009705	0.577269	-1.000000	-1.000000	-1.000000	-1.000000	-1.000000	-1.000000	-1.000000	55.000000	0.000000	-1.000000	-1.000000	2478857.000000	1776581361.608037
481.230000	-12180.420000	18547.650000	66167.325000	48859.020000	33884.010000	-133.695000	-11532.060000	-7.536018	-4.047115	5.319006	4.361415	-2.154715	-1.321813	-2.680264	-4.622027	-4.913720	2.594200	-0.793520	-0.809080	-0.009705	0.577269	-1.000000	-1.000000	-1.000000	-1.000000	-1.000000	-1.000000	-1.000000	55.000000	0.000000	-1.000000	-1.000000	2478858.000000	1776581361.611966
471.510000	-12190.815000	18538.470000	66161.655000	48860.955000	33889.320000	-139.590000	-11541.240000	-5.113538	-2.741878	6.106076	4.225475	-4.542964	-13.800813	-3.704469	-2.755760	-4.913720	2.594200	-0.793520	-0.809080	-0.009705	0.577269	-1.000000	-1.000000	-1.000000	-1.000000	-1.000000	-1.000000	-1.000000	55.000000	0.000000	-1.000000	-1.000000	2478859.000000	1776581361.611986
483.435000	-12178.710000	18549.225000	66168.270000	48862.710000	33891.615000	-135.855000	-11531.565000	-1.146331	-0.371286	5.403844	4.150863	-2.305804	-18.843613	-3.770454	-0.554666	-4.913720	2.594200	-0.793520	-0.809080	-0.009705	0.577269	-1.000000	-1.000000	-1.000000	-1.000000	-1.000000	-1.000000	-1.000000	55.000000	0.000000	-1.000000	-1.000000	2478860.000000	1776581361.615959
479.565000	-12183.615000	18545.085000	66166.515000	48856.590000	33886.395000	-134.055000	-11533.635000	3.012736	2.321131	3.774817	3.602009	1.236996	-15.194659	-2.663713	1.670306	-4.913720	2.594200	-0.793520	-0.809080	-0.009705	0.577269	-1.000000	-1.000000	-1.000000	-1.000000	-1.000000	-1.000000	-1.000000	55.000000	0.000000	-1.000000	-1.000000	2478861.000000	1776581361.615973
476.730000	-12185.055000	18541.980000	66158.145000	48839.490000	33872.760000	-139.995000	-11537.865000	6.104003	4.508937	1.891037	2.130930	2.394056	-6.868488	-0.599044	3.597387	-5.676720	2.716280	-3.616620	-0.807737	-0.007324	0.578978	-1.000000	-1.000000	-1.000000	-1.000000	-1.000000	-1.000000	-1.000000	55.000000	0.000000	-1.000000	-1.000000	2478862.000000	1776581361.620093
477.945000	-12177.720000	18553.455000	66171.105000	48849.210000	33872.535000	-143.685000	-11539.215000	6.842759	5.221257	0.084433	-0.133253	0.166264	0.773549	1.276348	4.258488	-5.676720	2.716280	-3.616620	-0.807737	-0.007324	0.578978	-1.000000	-1.000000	-1.000000	-1.000000	-1.000000	-1.000000	-1.000000	55.000000	0.000000	-1.000000	-1.000000	2478863.000000	1776581361.620106
484.110000	-12171.420000	18561.510000	66181.455000	48863.385000	33889.950000	-134.640000	-11531.205000	5.269577	4.557350	-0.853042	-1.745654	-2.617500	5.492877	2.094732	3.385502	-5.676720	2.716280	-3.616620	-0.807737	-0.007324	0.578978	-1.000000	-1.000000	-1.000000	-1.000000	-1.000000	-1.000000	-1.000000	55.000000	0.000000	-1.000000	-1.000000	2478864.000000	1776581361.623977
473.940000	-12184.695000	18548.865000	66172.680000	48854.835000	33870.960000	-147.420000	-11540.520000	2.612693	3.074327	-0.654599	-1.516439	-2.540881	8.016010	2.104448	1.843282	-5.676720	2.716280	-3.616620	-0.807737	-0.007324	0.578978	-1.000000	-1.000000	-1.000000	-1.000000	-1.000000	-1.000000	-1.000000	55.000000	0.000000	-1.000000	-1.000000	2478865.000000	1776581361.623995
467.145000	-12186.405000	18558.810000	66188.745000	48855.285000	33846.480000	-151.245000	-11540.565000	-0.405907	0.527042	-0.568034	-0.341875	0.031119	7.974457	1.429982	0.194669	-5.676720	2.716280	-3.616620	-0.807737	-0.007324	0.578978	-1.000000	-1.000000	-1.000000	-1.000000	-1.000000	-1.000000	-1.000000	55.000000	0.000000	-1.000000	-1.000000	2478866.000000	1776581361.627975
474.570000	-12170.340000	18588.285000	66223.935000	48870.765000	33842.835000	-155.070000	-11538.630000	-3.246447	-2.516226	-0.758475	1.130340	2.529129	4.193436	-0.011716	-1.354389	-5.676720	2.716280	-3.616620	-0.807737	-0.007324	0.578978	-1.000000	-1.000000	-1.000000	-1.000000	-1.000000	-1.000000	-1.000000	55.000000	0.000000	-1.000000	-1.000000	2478867.000000	1776581361.627989
472.770000	-12179.970000	18566.595000	66201.705000	48865.860000	33861.060000	-151.380000	-11535.795000	-4.539253	-4.040737	-0.064758	3.027622	3.768554	-0.938206	-1.348524	-2.130764	-5.676720	2.716280	-3.616620	-0.807737	-0.007324	0.578978	-1.000000	-1.000000	-1.000000	-1.000000	-1.000000	-1.000000	-1.000000	55.000000	0.000000	-1.000000	-1.000000	2478868.000000	1776581361.633106
486.585000	-12179.970000	18535.095000	66141.045000	48836.700000	33876.585000	-129.330000	-11517.120000	-3.250378	-3.436608	-0.144892	2.117891	2.923855	-2.344075	-0.946239	-1.338227	-5.676720	2.716280	-3.616620	-0.807737	-0.007324	0.578978	-1.000000	-1.000000	-1.000000	-1.000000	-1.000000	-1.000000	-1.000000	55.000000	0.000000	-1.000000	-1.000000	2478869.000000	1776581361.633116
495.855000	-12179.970000	18521.955000	66109.320000	48795.165000	33852.465000	-133.560000	-11521.305000	0.215345	-2.042827	-4.029278	-5.970118	-1.719188	1.211124	1.863755	0.958305	-5.676720	2.716280	-3.616620	-0.807737	-0.007324	0.578978	-1.000000	-1.000000	-1.000000	-1.000000	-1.000000	-1.000000	-1.000000	55.000000	0.000000	-1.000000	-1.000000	2478870.000000	1776581361.636006
490.860000	-12180.060000	18530.370000	66132.000000	48818.340000	33860.205000	-124.695000	-11517.345000	3.968081	-0.848492	-9.761775	-17.472371	-8.967022	5.144030	5.174270	3.075206	-5.676720	2.716280	-3.616620	-0.807737	-0.007324	0.578978	-1.000000	-1.000000	-1.000000	-1.000000	-1.000000	-1.000000	-1.000000	55.000000	0.000000	-1.000000	-1.000000	2478871.000000	1776581361.636024
470.520000	-12204.360000	18521.280000	66144.960000	48860.055000	33900.030000	-123.750000	-11530.665000	4.936471	-0.394406	-11.380988	-20.819715	-11.706001	6.016731	6.096440	2.777489	-5.615680	2.136400	-2.105880	-0.808714	-0.010559	0.579222	-1.000000	-1.000000	-1.000000	-1.000000	-1.000000	-1.000000	-1.000000	55.000000	0.000000	-1.000000	-1.000000	2478872.000000	1776581361.640058
465.885000	-12211.965000	18524.745000	66157.110000	48879.090000	33920.685000	-123.660000	-11537.460000	1.262086	-1.417229	-6.122113	-9.535909	-3.602004	5.788202	3.631032	-0.608266	-5.615680	2.136400	-2.105880	-0.808714	-0.010559	0.579222	-1.000000	-1.000000	-1.000000	-1.000000	-1.000000	-1.000000	-1.000000	55.000000	0.000000	-1.000000	-1.000000	2478873.000000	1776581361.640080
478.935000	-12187.980000	18542.745000	66160.395000	48866.985000	33910.065000	-125.640000	-11530.440000	-4.627362	-2.814619	3.526652	10.251429	11.228954	5.955193	-1.065071	-5.161961	-5.615680	2.136400	-2.105880	-0.808714	-0.010559	0.579222	-1.000000	-1.000000	-1.000000	-1.000000	-1.000000	-1.000000	-1.000000	55.000000	0.000000	-1.000000	-1.000000	2478874.000000	1776581361.643958
476.820000	-12180.375000	18540.630000	66148.110000	48849.705000	33894.135000	-135.270000	-11536.695000	-7.628885	-1.311697	13.009694	25.821936	20.549950	3.433882	-5.952483	-7.521661	-5.615680	2.136400	-2.105880	-0.808714	-0.010559	0.579222	-1.000000	-1.000000	-1.000000	-1.000000	-1.000000	-1.000000	-1.000000	55.000000	0.000000	-1.000000	-1.000000	2478875.000000	1776581361.643973
477.990000	-12182.175000	18536.670000	66146.220000	48846.735000	33898.095000	-139.140000	-11537.145000	-5.444610	3.802600	17.711697	28.081127	16.369480	-4.100179	-9.230693	-6.042508	-5.615680	2.136400	-2.105880	-0.808714	-0.010559	0.579222	-1.000000	-1.000000	-1.000000	-1.000000	-1.000000	-1.000000	-1.000000	55.000000	0.000000	-1.000000	-1.000000	2478876.000000	1776581361.647973
474.975000	-12185.370000	18539.910000	66153.960000	48845.925000	33889.455000	-146.745000	-11539.980000	-0.352673	8.554531	15.014822	17.434128	2.115296	-13.281020	-9.788764	-1.991729	-5.615680	2.136400	-2.105880	-0.808714	-0.010559	0.579222	-1.000000	-1.000000	-1.000000	-1.000000	-1.000000	-1.000000	-1.000000	55.000000	0.000000	-1.000000	-1.000000	2478877.000000	1776581361.647992
477.630000	-12182.040000	18548.010000	66166.830000	48844.485000	33871.140000	-146.610000	-11536.470000	4.023759	8.857064	6.725363	2.073297	-12.086079	-18.605119	-7.335906	2.357943	-5.615680	2.136400	-2.105880	-0.808714	-0.010559	0.579222	-1.000000	-1.000000	-1.000000	-1.000000	-1.000000	-1.000000	-1.000000	55.000000	0.000000	-1.000000	-1.000000	2478878.000000	1776581361.651979
478.485000	-12176.595000	18560.655000	66187.260000	48856.770000	33861.150000	-145.665000	-11534.805000	5.734324	4.684835	-2.149572	-9.019428	-18.160861	-17.745339	-2.494610	5.437587	-5.615680	2.136400	-2.105880	-0.808714	-0.010559	0.579222	-1.000000	-1.000000	-1.000000	-1.000000	-1.000000	-1.000000	-1.000000	55.000000	0.000000	-1.000000	-1.000000	2478879.000000	1776581361.651994
481.455000	-12176.505000	18553.320000	66173.985000	48857.445000	33867.405000	-139.995000	-11529.990000	4.938694	-0.900481	-7.637775	-12.267035	-14.325295	-11.362089	3.361051	6.673467	-5.615680	2.136400	-2.105880	-0.808714	-0.010559	0.579222	-1.000000	-1.000000	-1.000000	-1.000000	-1.000000	-1.000000	-1.000000	55.000000	0.000000	-1.000000	-1.000000	2478880.000000	1776581361.656021
473.265000	-12185.955000	18543.960000	66165.210000	48853.755000	33866.955000	-151.920000	-11542.365000	2.660459	-5.234577	-9.555492	-10.690863	-4.681006	-1.192137	8.142658	5.876637	-5.615680	2.136400	-2.105880	-0.808714	-0.010559	0.579222	-1.000000	-1.000000	-1.000000	-1.000000	-1.000000	-1.000000	-1.000000	55.000000	0.000000	-1.000000	-1.000000	2478881.000000	1776581361.656033
476.730000	-12182.220000	18550.755000	66175.245000	48855.870000	33870.735000	-140.760000	-11535.435000	-0.179406	-7.473649	-9.661878	-8.796706	4.352594	9.724420	9.826814	3.095294	-3.677660	1.846460	-0.900340	-0.807981	-0.013733	0.580687	-1.000000	-1.000000	-1.000000	-1.000000	-1.000000	-1.000000	-1.000000	55.000000	0.000000	-1.000000	-1.000000	2478882.000000	1776581361.659933
473.220000	-12185.730000	18543.555000	66158.955000	48835.755000	33869.160000	-140.895000	-11536.020000	-2.593128	-7.474997	-8.511169	-7.671847	8.318375	17.390564	8.236783	-0.487232	-3.677660	1.846460	-0.900340	-0.807981	-0.013733	0.580687	-1.000000	-1.000000	-1.000000	-1.000000	-1.000000	-1.000000	-1.000000	55.000000	0.000000	-1.000000	-1.000000	2478883.000000	1776581361.659939
480.060000	-12180.420000	18545.760000	66155.175000	48844.440000	33884.370000	-141.165000	-11530.665000	-3.560109	-5.273091	-5.844259	-6.445078	6.586776	19.226496	4.846031	-2.930616	-3.677660	1.846460	-0.900340	-0.807981	-0.013733	0.580687	-1.000000	-1.000000	-1.000000	-1.000000	-1.000000	-1.000000	-1.000000	55.000000	0.000000	-1.000000	-1.000000	2478884.000000	1776581361.665180
471.150000	-12188.430000	18538.830000	66155.400000	48841.785000	33874.560000	-148.545000	-11538.540000	-2.837353	-1.693401	-2.153738	-4.467853	2.128627	15.415245	0.856063	-3.423997	-3.677660	1.846460	-0.900340	-0.807981	-0.013733	0.580687	-1.000000	-1.000000	-1.000000	-1.000000	-1.000000	-1.000000	-1.000000	55.000000	0.000000	-1.000000	-1.000000	2478885.000000	1776581361.665193
474.345000	-12184.695000	18548.280000	66167.955000	48833.640000	33857.640000	-156.060000	-11539.935000	-1.299142	1.704455	1.594787	-0.964347	-1.311060	7.392852	-3.170897	-2.821629	-3.677660	1.846460	-0.900340	-0.807981	-0.013733	0.580687	-1.000000	-1.000000	-1.000000	-1.000000	-1.000000	-1.000000	-1.000000	55.000000	0.000000	-1.000000	-1.000000	2478886.000000	1776581361.668097
477.675000	-12176.145000	18561.465000	66180.060000	48829.320000	33830.910000	-157.320000	-11532.915000	0.128873	3.920351	4.979785	4.378901	-2.468478	-3.290634	-6.423250	-2.053604	-3.677660	1.846460	-0.900340	-0.807981	-0.013733	0.580687	-1.000000	-1.000000	-1.000000	-1.000000	-1.000000	-1.000000	-1.000000	55.000000	0.000000	-1.000000	-1.000000	2478887.000000	1776581361.668113
476.145000	-12170.835000	18575.055000	66189.555000	48801.870000	33793.380000	-168.435000	-11535.840000	1.242178	5.145559	8.023291	10.135514	-2.467245	-14.235614	-7.770115	-1.049201	-3.677660	1.846460	-0.900340	-0.807981	-0.013733	0.580687	-1.000000	-1.000000	-1.000000	-1.000000	-1.000000	-1.000000	-1.000000	55.000000	0.000000	-1.000000	-1.000000	2478888.000000	1776581361.672159
473.445000	-12179.115000	18558.630000	66185.370000	48807.585000	33818.805000	-164.250000	-11537.190000	1.825734	5.367706	9.565698	13.271556	-2.623258	-21.114596	-6.622577	0.186171	-3.677660	1.846460	-0.900340	-0.807981	-0.013733	0.580687	-1.000000	-1.000000	-1.000000	-1.000000	-1.000000	-1.000000	-1.000000	55.000000	0.000000	-1.000000	-1.000000	2478889.000000	1776581361.672180
481.950000	-12188.340000	18512.820000	66132.630000	48844.080000	33904.935000	-131.580000	-11526.525000	1.658028	3.603739	6.499067	10.244062	-1.683771	-17.106054	-2.625472	1.207769	-3.677660	1.846460	-0.900340	-0.807981	-0.013733	0.580687	-1.000000	-1.000000	-1.000000	-1.000000	-1.000000	-1.000000	-1.000000	55.000000	0.000000	-1.000000	-1.000000	2478890.000000	1776581361.676089
469.170000	-12215.610000	18481.995000	66109.095000	48866.805000	33946.155000	-120.645000	-11537.505000	0.964334	-0.806944	-3.112801	-0.482706	3.317941	1.565005	4.281680	1.799302	-3.677660	1.846460	-0.900340	-0.807981	-0.013733	0.580687	-1.000000	-1.000000	-1.000000	-1.000000	-1.000000	-1.000000	-1.000000	55.000000	0.000000	-1.000000	-1.000000	2478891.000000	1776581361.676102
455.445000	-12227.355000	18491.580000	66112.920000	48859.155000	33926.760000	-127.665000	-11547.765000	-0.438722	-6.797924	-14.922280	-14.120475	11.115060	25.706205	11.222699	1.362166	-2.487380	2.807840	-1.205540	-0.806578	-0.016724	0.581480	-1.000000	-1.000000	-1.000000	-1.000000	-1.000000	-1.000000	-1.000000	55.000000	0.000000	-1.000000	-1.000000	2478892.000000	1776581361.679987
454.680000	-12211.020000	18528.300000	66134.745000	48857.760000	33906.105000	-138.285000	-11551.500000	-2.735811	-10.815938	-18.975336	-20.478735	15.010221	36.379667	12.735750	-0.655511	-2.487380	2.807840	-1.205540	-0.806578	-0.016724	0.581480	-1.000000	-1.000000	-1.000000	-1.000000	-1.000000	-1.000000	-1.000000	55.000000	0.000000	-1.000000	-1.000000	2478893.000000	1776581361.679998
464.040000	-12188.115000	18548.145000	66146.490000	48853.755000	33905.880000	-134.280000	-11540.430000	-4.326075	-8.305121	-8.856893	-13.121653	10.139067	23.338810	6.472925	-2.887245	-2.487380	2.807840	-1.205540	-0.806578	-0.016724	0.581480	-1.000000	-1.000000	-1.000000	-1.000000	-1.000000	-1.000000	-1.000000	55.000000	0.000000	-1.000000	-1.000000	2478894.000000	1776581361.684084
466.920000	-12187.170000	18546.570000	66154.635000	48852.180000	33891.750000	-141.075000	-11539.890000	-2.946684	1.343779	10.240876	3.908887	-1.305625	-4.935987	-3.783600	-2.867844	-2.487380	2.807840	-1.205540	-0.806578	-0.016724	0.581480	-1.000000	-1.000000	-1.000000	-1.000000	-1.000000	-1.000000	-1.000000	55.000000	0.000000	-1.000000	-1.000000	2478895.000000	1776581361.684107
475.560000	-12184.290000	18548.190000	66161.115000	48854.610000	33888.285000	-140.400000	-11534.265000	1.360415	12.288171	25.092358	19.709593	-12.602115	-30.679133	-11.880051	-0.049643	-2.487380	2.807840	-1.205540	-0.806578	-0.016724	0.581480	-1.000000	-1.000000	-1.000000	-1.000000	-1.000000	-1.000000	-1.000000	55.000000	0.000000	-1.000000	-1.000000	2478896.000000	1776581361.688072
472.950000	-12188.385000	18543.420000	66156.300000	48846.420000	33882.885000	-143.370000	-11538.405000	5.945026	17.033666	26.033430	25.183402	-18.009143	-40.847316	-14.062393	3.475719	-2.487380	2.807840	-1.205540	-0.806578	-0.016724	0.581480	-1.000000	-1.000000	-1.000000	-1.000000	-1.000000	-1.000000	-1.000000	55.000000	0.000000	-1.000000	-1.000000	2478897.000000	1776581361.688089
468.405000	-12193.920000	18537.795000	66154.590000	48840.795000	33867.945000	-153.630000	-11545.380000	7.656082	12.675150	13.538198	18.243865	-16.204093	-33.252849	-10.524716	4.944207	-2.487380	2.807840	-1.205540	-0.806578	-0.016724	0.581480	-1.000000	-1.000000	-1.000000	-1.000000	-1.000000	-1.000000	-1.000000	55.000000	0.000000	-1.000000	-1.000000	2478898.000000	1776581361.692133
463.635000	-12197.160000	18533.610000	66151.260000	48834.495000	33863.220000	-156.015000	-11548.260000	5.087631	2.143293	-4.417823	3.599295	-9.677280	-14.791046	-4.246852	3.122620	-2.487380	2.807840	-1.205540	-0.806578	-0.016724	0.581480	-1.000000	-1.000000	-1.000000	-1.000000	-1.000000	-1.000000	-1.000000	55.000000	0.000000	-1.000000	-1.000000	2478899.000000	1776581361.692150
474.210000	-12187.305000	18543.195000	66157.155000	48842.280000	33874.740000	-146.385000	-11537.595000	-0.116367	-8.399095	-18.362414	-10.829968	-1.691338	5.207553	1.917223	-0.489956	-2.487380	2.807840	-1.205540	-0.806578	-0.016724	0.581480	-1.000000	-1.000000	-1.000000	-1.000000	-1.000000	-1.000000	-1.000000	55.000000	0.000000	-1.000000	-1.000000	2478900.000000	1776581361.696020
476.055000	-12185.325000	18546.390000	66161.295000	48842.685000	33871.725000	-146.565000	-11536.110000	-4.363370	-13.437206	-22.270192	-18.476823	5.589663	20.272283	6.813895	-2.870270	-2.487380	2.807840	-1.205540	-0.806578	-0.016724	0.581480	-1.000000	-1.000000	-1.000000	-1.000000	-1.000000	-1.000000	-1.000000	55.000000	0.000000	-1.000000	-1.000000	2478901.000000	1776581361.696030
474.210000	-12186.855000	18544.410000	66156.750000	48837.870000	33868.800000	-150.570000	-11539.665000	-5.398512	-11.575188	-16.295864	-17.438549	10.565231	27.033643	9.639376	-2.630944	-0.015260	2.182180	-1.068200	-0.805784	-0.018921	0.582335	-1.000000	-1.000000	-1.000000	-1.000000	-1.000000	-1.000000	-1.000000	55.000000	0.000000	-1.000000	-1.000000	2478902.000000	1776581361.700013
469.620000	-12189.330000	18544.815000	66163.545000	48843.810000	33871.005000	-150.120000	-11543.355000	-4.001793	-5.760661	-5.677786	-10.511382	11.893941	24.719178	9.339151	-1.130490	-0.015260	2.182180	-1.068200	-0.805784	-0.018921	0.582335	-1.000000	-1.000000	-1.000000	-1.000000	-1.000000	-1.000000	-1.000000	55.000000	0.000000	-1.000000	-1.000000	2478903.000000	1776581361.700028
464.985000	-12191.310000	18547.470000	66170.385000	48845.250000	33869.205000	-151.830000	-11547.630000	-2.285144	-0.094074	3.696815	-1.965645	9.701071	15.730624	6.029046	-0.313395	-0.015260	2.182180	-1.068200	-0.805784	-0.018921	0.582335	-1.000000	-1.000000	-1.000000	-1.000000	-1.000000	-1.000000	-1.000000	55.000000	0.000000	-1.000000	-1.000000	2478904.000000	1776581361.703994
455.850000	-12199.005000	18543.195000	66166.830000	48835.935000	33846.255000	-166.860000	-11559.240000	-1.541921	2.973769	8.624912	4.924610	5.365065	4.042420	1.106304	-0.869977	-0.015260	2.182180	-1.068200	-0.805784	-0.018921	0.582335	-1.000000	-1.000000	-1.000000	-1.000000	-1.000000	-1.000000	-1.000000	55.000000	0.000000	-1.000000	-1.000000	2478905.000000	1776581361.704005
472.815000	-12187.530000	18544.905000	66162.780000	48821.985000	33813.405000	-154.665000	-11537.235000	-1.345415	3.406745	8.805258	8.019438	-0.039547	-7.506952	-3.615985	-1.807193	-0.015260	2.182180	-1.068200	-0.805784	-0.018921	0.582335	-1.000000	-1.000000	-1.000000	-1.000000	-1.000000	-1.000000	-1.000000	55.000000	0.000000	-1.000000	-1.000000	2478906.000000	1776581361.708106
482.670000	-12175.785000	18553.455000	66166.830000	48806.910000	33768.315000	-162.540000	-11526.345000	0.097950	3.136673	6.041109	6.889713	-5.690075	-17.404569	-6.106271	-0.854156	-0.015260	2.182180	-1.068200	-0.805784	-0.018921	0.582335	-1.000000	-1.000000	-1.000000	-1.000000	-1.000000	-1.000000	-1.000000	55.000000	0.000000	-1.000000	-1.000000	2478907.000000	1776581361.708118
484.920000	-12176.595000	18560.160000	66182.220000	48813.165000	33755.130000	-184.050000	-11532.240000	3.452477	3.809137	3.023159	3.646769	-9.753741	-23.451981	-5.858943	2.594761	-0.015260	2.182180	-1.068200	-0.805784	-0.018921	0.582335	-1.000000	-1.000000	-1.000000	-1.000000	-1.000000	-1.000000	-1.000000	55.000000	0.000000	-1.000000	-1.000000	2478908.000000	1776581361.712003
484.335000	-12179.745000	18556.785000	66184.245000	48837.330000	33820.020000	-167.940000	-11531.115000	6.524172	4.568765	1.236881	1.286582	-9.228493	-20.724174	-4.297862	5.623245	-0.015260	2.182180	-1.068200	-0.805784	-0.018921	0.582335	-1.000000	-1.000000	-1.000000	-1.000000	-1.000000	-1.000000	-1.000000	55.000000	0.000000	-1.000000	-1.000000	2478909.000000	1776581361.712014
478.620000	-12186.855000	18543.330000	66167.595000	48845.565000	33887.475000	-142.380000	-11530.980000	6.416517	3.338256	-0.125789	0.376378	-2.618094	-4.049957	-1.398015	5.232636	-0.015260	2.182180	-1.068200	-0.805784	-0.018921	0.582335	-1.000000	-1.000000	-1.000000	-1.000000	-1.000000	-1.000000	-1.000000	55.000000	0.000000	-1.000000	-1.000000	2478910.000000	1776581361.716133
454.815000	-12210.705000	18516.150000	66135.330000	48850.155000	33936.795000	-128.430000	-11546.595000	2.119513	-0.699509	-2.891447	-1.558982	6.871472	23.380502	4.045435	1.355092	-0.015260	2.182180	-1.068200	-0.805784	-0.018921	0.582335	-1.000000	-1.000000	-1.000000	-1.000000	-1.000000	-1.000000	-1.000000	55.000000	0.000000	-1.000000	-1.000000	2478911.000000	1776581361.716150
447.345000	-12218.265000	18506.205000	66118.095000	48844.260000	33920.370000	-141.165000	-11556.720000	-4.915549	-6.346729	-7.353403	-6.334958	12.905050	46.092896	9.857124	-4.195972	-0.595140	4.257540	-1.876980	-0.805296	-0.020386	0.580077	-1.000000	-1.000000	-1.000000	-1.000000	-1.000000	-1.000000	-1.000000	55.000000	0.000000	-1.000000	-1.000000	2478912.000000	1776581361.720275
450.000000	-12213.315000	18513.765000	66123.405000	48835.845000	33896.385000	-152.685000	-11556.045000	-10.821300	-10.341441	-10.578673	-11.309196	11.224865	46.174557	10.726168	-8.777188	-0.595140	4.257540	-1.876980	-0.805296	-0.020386	0.580077	-1.000000	-1.000000	-1.000000	-1.000000	-1.000000	-1.000000	-1.000000	55.000000	0.000000	-1.000000	-1.000000	2478913.000000	1776581361.720296
452.880000	-12204.090000	18527.805000	66138.975000	48843.810000	33897.195000	-150.345000	-11552.715000	-11.285965	-8.995334	-8.302639	-10.839484	3.003764	19.451959	4.341212	-9.491504	-0.595140	4.257540	-1.876980	-0.805296	-0.020386	0.580077	-1.000000	-1.000000	-1.000000	-1.000000	-1.000000	-1.000000	-1.000000	55.000000	0.000000	-1.000000	-1.000000	2478914.000000	1776581361.724180
451.170000	-12203.010000	18539.190000	66159.540000	48847.950000	33896.745000	-154.530000	-11557.485000	-5.405173	-1.831700	0.442278	-2.104541	-6.135298	-19.106269	-5.369917	-5.380136	-0.595140	4.257540	-1.876980	-0.805296	-0.020386	0.580077	-1.000000	-1.000000	-1.000000	-1.000000	-1.000000	-1.000000	-1.000000	55.000000	0.000000	-1.000000	-1.000000	2478915.000000	1776581361.724207
452.205000	-12211.425000	18519.705000	66137.895000	48831.165000	33890.805000	-152.730000	-11554.065000	3.309560	6.997745	10.925217	10.730159	-11.135709	-47.773575	-12.181832	1.309299	-0.595140	4.257540	-1.876980	-0.805296	-0.020386	0.580077	-1.000000	-1.000000	-1.000000	-1.000000	-1.000000	-1.000000	-1.000000	55.000000	0.000000	-1.000000	-1.000000	2478916.000000	1776581361.728127
459.900000	-12211.740000	18500.580000	66103.470000	48815.910000	33891.255000	-144.495000	-11544.795000	10.178614	11.961041	15.600794	18.269013	-11.522269	-53.981939	-12.552074	7.242888	-0.595140	4.257540	-1.876980	-0.805296	-0.020386	0.580077	-1.000000	-1.000000	-1.000000	-1.000000	-1.000000	-1.000000	-1.000000	55.000000	0.000000	-1.000000	-1.000000	2478917.000000	1776581361.728142
459.315000	-12202.965000	18521.820000	66131.595000	48826.935000	33882.570000	-152.145000	-11547.765000	12.581989	10.933172	11.273794	14.698337	-9.181926	-39.141314	-7.135297	10.296634	-0.595140	4.257540	-1.876980	-0.805296	-0.020386	0.580077	-1.000000	-1.000000	-1.000000	-1.000000	-1.000000	-1.000000	-1.000000	55.000000	0.000000	-1.000000	-1.000000	2478918.000000	1776581361.732122
462.375000	-12199.095000	18526.635000	66140.820000	48833.730000	33880.635000	-151.605000	-11543.490000	10.358525	6.204797	2.717166	4.707284	-4.533883	-13.776664	0.203745	9.654778	-0.595140	4.257540	-1.876980	-0.805296	-0.020386	0.580077	-1.000000	-1.000000	-1.000000	-1.000000	-1.000000	-1.000000	-1.000000	55.000000	0.000000	-1.000000	-1.000000	2478919.000000	1776581361.732142
459.585000	-12202.155000	18524.745000	66143.520000	48835.305000	33877.395000	-152.730000	-11545.155000	4.945274	1.069075	-3.401273	-2.849784	2.245477	10.184448	5.443282	5.769233	-0.595140	4.257540	-1.876980	-0.805296	-0.020386	0.580077	-1.000000	-1.000000	-1.000000	-1.000000	-1.000000	-1.000000	-1.000000	55.000000	0.000000	-1.000000	-1.000000	2478920.000000	1776581361.736134
466.245000	-12191.985000	18538.155000	66160.755000	48844.395000	33879.330000	-151.290000	-11542.140000	-1.292567	-2.755450	-4.998152	-4.558465	8.865482	25.100328	7.069266	0.402600	-0.595140	4.257540	-1.876980	-0.805296	-0.020386	0.580077	-1.000000	-1.000000	-1.000000	-1.000000	-1.000000	-1.000000	-1.000000	55.000000	0.000000	-1.000000	-1.000000	2478921.000000	1776581361.736151
462.825000	-12192.930000	18543.735000	66169.215000	48845.070000	33870.870000	-158.130000	-11550.195000	-5.973304	-4.702686	-3.478635	-2.342013	12.342102	28.925725	5.750153	-4.403153	-0.152600	3.418240	-1.068200	-0.808531	-0.018921	0.578429	-1.000000	-1.000000	-1.000000	-1.000000	-1.000000	-1.000000	-1.000000	55.000000	0.000000	-1.000000	-1.000000	2478922.000000	1776581361.740215
473.040000	-12189.285000	18537.525000	66153.240000	48843.720000	33881.085000	-143.100000	-11536.740000	-7.726807	-4.905779	-1.207698	0.039573	11.135493	23.834488	3.113023	-7.143319	-0.152600	3.418240	-1.068200	-0.808531	-0.018921	0.578429	-1.000000	-1.000000	-1.000000	-1.000000	-1.000000	-1.000000	-1.000000	55.000000	0.000000	-1.000000	-1.000000	2478923.000000	1776581361.740235
477.135000	-12185.235000	18538.110000	66149.505000	48839.265000	33877.305000	-141.570000	-11533.320000	-6.444338	-4.052215	-0.524880	-0.870431	5.713711	14.310352	1.111719	-6.827448	-0.152600	3.418240	-1.068200	-0.808531	-0.018921	0.578429	-1.000000	-1.000000	-1.000000	-1.000000	-1.000000	-1.000000	-1.000000	55.000000	0.000000	-1.000000	-1.000000	2478924.000000	1776581361.744130
474.165000	-12182.445000	18554.220000	66169.845000	48845.655000	33875.415000	-143.145000	-11535.345000	-3.286966	-2.737155	-1.731768	-4.840188	-1.476466	4.566331	0.530814	-3.809625	-0.152600	3.418240	-1.068200	-0.808531	-0.018921	0.578429	-1.000000	-1.000000	-1.000000	-1.000000	-1.000000	-1.000000	-1.000000	55.000000	0.000000	-1.000000	-1.000000	2478925.000000	1776581361.744148
437.670000	-12199.500000	18573.525000	66202.380000	48857.355000	33870.870000	-151.425000	-11554.020000	-1.017494	-1.707211	-2.463982	-7.110705	-6.817613	-3.166747	0.152401	-0.605638	-0.152600	3.418240	-1.068200	-0.808531	-0.018921	0.578429	-1.000000	-1.000000	-1.000000	-1.000000	-1.000000	-1.000000	-1.000000	55.000000	0.000000	-1.000000	-1.000000	2478926.000000	1776581361.752246
409.275000	-12217.545000	18565.920000	66207.195000	48852.675000	33846.705000	-163.665000	-11561.850000	-2.622382	-2.223200	-1.029731	-3.885331	-7.920108	-8.463232	-1.563175	0.021060	-0.152600	3.418240	-1.068200	-0.808531	-0.018921	0.578429	-1.000000	-1.000000	-1.000000	-1.000000	-1.000000	-1.000000	-1.000000	55.000000	0.000000	-1.000000	-1.000000	2478927.000000	1776581361.752266
461.070000	-12200.130000	18538.380000	66183.840000	48830.940000	33817.725000	-165.510000	-11535.120000	-6.446605	-4.051789	0.361204	1.999108	-6.042075	-12.130483	-4.469080	-1.358754	-0.152600	3.418240	-1.068200	-0.808531	-0.018921	0.578429	-1.000000	-1.000000	-1.000000	-1.000000	-1.000000	-1.000000	-1.000000	55.000000	0.000000	-1.000000	-1.000000	2478928.000000	1776581361.752402
485.685000	-12175.470000	18541.530000	66193.920000	48829.050000	33810.705000	-165.330000	-11529.045000	-5.135808	-3.776004	-1.567928	4.139972	-4.496696	-14.424561	-6.483578	-0.965012	-0.152600	3.418240	-1.068200	-0.808531	-0.018921	0.578429	-1.000000	-1.000000	-1.000000	-1.000000	-1.000000	-1.000000	-1.000000	55.000000	0.000000	-1.000000	-1.000000	2478929.000000	1776581361.752412
504.450000	-12170.115000	18529.920000	66156.345000	48832.920000	33854.985000	-137.070000	-11516.220000	4.995673	1.372053	-5.869793	0.147659	-4.134839	-12.538701	-4.994437	2.986839	-0.152600	3.418240	-1.068200	-0.808531	-0.018921	0.578429	-1.000000	-1.000000	-1.000000	-1.000000	-1.000000	-1.000000	-1.000000	55.000000	0.000000	-1.000000	-1.000000	2478930.000000	1776581361.756136
503.910000	-12180.465000	18515.970000	66119.220000	48835.035000	33877.080000	-138.690000	-11522.925000	17.334576	8.481470	-8.619248	-7.736641	-2.842075	-2.784746	0.722758	7.588285	-0.152600	3.418240	-1.068200	-0.808531	-0.018921	0.578429	-1.000000	-1.000000	-1.000000	-1.000000	-1.000000	-1.000000	-1.000000	55.000000	0.000000	-1.000000	-1.000000	2478931.000000	1776581361.756150
478.845000	-12178.710000	18545.220000	66151.890000	48876.975000	33919.695000	-134.730000	-11538.360000	21.230019	11.395861	-6.999697	-14.619000	1.374595	13.092752	7.562464	8.247200	-0.839300	4.898460	-1.281840	-0.810118	-0.017029	0.576903	-1.000000	-1.000000	-1.000000	-1.000000	-1.000000	-1.000000	-1.000000	55.000000	0.000000	-1.000000	-1.000000	2478932.000000	1776581361.760166
468.360000	-12191.355000	18526.725000	66130.560000	48844.080000	33893.775000	-142.110000	-11545.650000	11.771514	7.380822	-0.590026	-14.058596	7.679778	26.202462	10.539266	3.002415	-0.839300	4.898460	-1.281840	-0.810118	-0.017029	0.576903	-1.000000	-1.000000	-1.000000	-1.000000	-1.000000	-1.000000	-1.000000	55.000000	0.000000	-1.000000	-1.000000	2478933.000000	1776581361.760179
482.355000	-12182.580000	18529.020000	66134.340000	48831.210000	33875.055000	-135.045000	-11529.720000	-5.614235	-0.791545	7.398059	-4.405738	11.027960	26.142672	7.498625	-4.968213	-0.839300	4.898460	-1.281840	-0.810118	-0.017029	0.576903	-1.000000	-1.000000	-1.000000	-1.000000	-1.000000	-1.000000	-1.000000	55.000000	0.000000	-1.000000	-1.000000	2478934.000000	1776581361.765414
478.845000	-12185.820000	18530.955000	66139.920000	48829.905000	33881.400000	-137.115000	-11532.645000	-19.410066	-7.789422	12.126276	8.797667	7.098931	10.407070	0.765475	-9.689813	-0.839300	4.898460	-1.281840	-0.810118	-0.017029	0.576903	-1.000000	-1.000000	-1.000000	-1.000000	-1.000000	-1.000000	-1.000000	55.000000	0.000000	-1.000000	-1.000000	2478935.000000	1776581361.765433
479.160000	-12185.100000	18536.580000	66153.195000	48850.155000	33899.220000	-136.665000	-11532.420000	-22.062134	-9.918767	11.831088	19.034942	-1.078185	-11.198542	-5.536618	-8.317809	-0.839300	4.898460	-1.281840	-0.810118	-0.017029	0.576903	-1.000000	-1.000000	-1.000000	-1.000000	-1.000000	-1.000000	-1.000000	55.000000	0.000000	-1.000000	-1.000000	2478936.000000	1776581361.768163
474.255000	-12187.890000	18538.245000	66163.320000	48846.555000	33877.170000	-145.845000	-11537.280000	-14.684028	-7.271943	8.040738	22.886489	-6.450020	-25.381488	-8.810453	-3.140465	-0.839300	4.898460	-1.281840	-0.810118	-0.017029	0.576903	-1.000000	-1.000000	-1.000000	-1.000000	-1.000000	-1.000000	-1.000000	55.000000	0.000000	-1.000000	-1.000000	2478937.000000	1776581361.768179
482.130000	-12177.855000	18549.360000	66169.890000	48850.065000	33879.330000	-138.105000	-11527.785000	-3.236423	-2.228433	3.157375	19.802800	-6.003558	-26.947957	-8.656061	2.029070	-0.839300	4.898460	-1.281840	-0.810118	-0.017029	0.576903	-1.000000	-1.000000	-1.000000	-1.000000	-1.000000	-1.000000	-1.000000	55.000000	0.000000	-1.000000	-1.000000	2478938.000000	1776581361.772113
474.705000	-12184.965000	18538.515000	66146.220000	48834.405000	33879.105000	-142.425000	-11535.570000	6.623653	2.729464	-1.119735	10.762112	-2.436757	-18.885429	-5.719118	5.040636	-0.839300	4.898460	-1.281840	-0.810118	-0.017029	0.576903	-1.000000	-1.000000	-1.000000	-1.000000	-1.000000	-1.000000	-1.000000	55.000000	0.000000	-1.000000	-1.000000	2478939.000000	1776581361.772127
471.465000	-12187.215000	18539.865000	66151.845000	48837.060000	33872.220000	-149.580000	-11540.475000	11.531920	5.544417	-4.486180	-2.067195	0.151785	-6.630200	-1.477845	5.249275	-0.839300	4.898460	-1.281840	-0.810118	-0.017029	0.576903	-1.000000	-1.000000	-1.000000	-1.000000	-1.000000	-1.000000	-1.000000	55.000000	0.000000	-1.000000	-1.000000	2478940.000000	1776581361.776238
478.620000	-12180.420000	18550.485000	66167.055000	48843.315000	33874.560000	-144.945000	-11532.195000	11.008788	5.373128	-6.747742	-13.817527	0.512002	4.714332	2.109960	3.160385	-0.839300	4.898460	-1.281840	-0.810118	-0.017029	0.576903	-1.000000	-1.000000	-1.000000	-1.000000	-1.000000	-1.000000	-1.000000	55.000000	0.000000	-1.000000	-1.000000	2478941.000000	1776581361.776256
469.125000	-12196.125000	18525.735000	66138.480000	48829.815000	33871.680000	-147.330000	-11539.170000	7.145811	3.091609	-7.309837	-19.228213	0.029605	11.837582	4.122081	0.535777	-1.480220	3.982860	-2.517900	-0.810545	-0.014648	0.576598	-1.000000	-1.000000	-1.000000	-1.000000	-1.000000	-1.000000	-1.000000	55.000000	0.000000	-1.000000	-1.000000	2478942.000000	1776581361.780231
475.515000	-12188.025000	18532.890000	66145.680000	48838.545000	33876.900000	-143.595000	-11534.265000	2.532810	0.088952	-6.611133	-17.646245	-0.210539	13.995106	4.801106	-1.101666	-1.480220	3.982860	-2.517900	-0.810545	-0.014648	0.576598	-1.000000	-1.000000	-1.000000	-1.000000	-1.000000	-1.000000	-1.000000	55.000000	0.000000	-1.000000	-1.000000	2478943.000000	1776581361.780246
480.600000	-12181.050000	18544.680000	66160.710000	48847.770000	33880.320000	-140.535000	-11529.630000	-0.907803	-2.033340	-4.873930	-11.394765	0.293148	12.325564	4.609168	-1.331323	-1.480220	3.982860	-2.517900	-0.810545	-0.014648	0.576598	-1.000000	-1.000000	-1.000000	-1.000000	-1.000000	-1.000000	-1.000000	55.000000	0.000000	-1.000000	-1.000000	2478944.000000	1776581361.784260
474.435000	-12185.595000	18542.430000	66160.575000	48844.620000	33872.940000	-147.240000	-11535.345000	-2.261361	-1.979947	-1.307170	-2.378395	1.827973	8.444141	3.721748	-0.498883	-1.480220	3.982860	-2.517900	-0.810545	-0.014648	0.576598	-1.000000	-1.000000	-1.000000	-1.000000	-1.000000	-1.000000	-1.000000	55.000000	0.000000	-1.000000	-1.000000	2478945.000000	1776581361.784281
480.195000	-12174.480000	18560.880000	66180.780000	48853.710000	33869.340000	-150.075000	-11534.715000	-2.141692	-0.246478	3.546102	6.825455	3.456672	3.363368	1.889403	0.315118	-1.480220	3.982860	-2.517900	-0.810545	-0.014648	0.576598	-1.000000	-1.000000	-1.000000	-1.000000	-1.000000	-1.000000	-1.000000	55.000000	0.000000	-1.000000	-1.000000	2478946.000000	1776581361.788313
476.910000	-12173.625000	18568.980000	66190.995000	48851.460000	33856.020000	-158.220000	-11540.115000	-1.651543	1.692166	7.802233	13.190049	3.810158	-2.134629	-0.860296	0.171812	-1.480220	3.982860	-2.517900	-0.810545	-0.014648	0.576598	-1.000000	-1.000000	-1.000000	-1.000000	-1.000000	-1.000000	-1.000000	55.000000	0.000000	-1.000000	-1.000000	2478947.000000	1776581361.788330
481.230000	-12173.040000	18566.145000	66190.545000	48851.010000	33851.520000	-152.190000	-11532.870000	-1.272590	2.662581	9.540238	14.690691	2.361589	-6.822312	-3.474661	-0.686762	-1.480220	3.982860	-2.517900	-0.810545	-0.014648	0.576598	-1.000000	-1.000000	-1.000000	-1.000000	-1.000000	-1.000000	-1.000000	55.000000	0.000000	-1.000000	-1.000000	2478948.000000	1776581361.792207
492.390000	-12161.070000	18582.885000	66217.320000	48854.250000	33814.935000	-161.865000	-11525.220000	-0.787220	2.181396	7.570439	11.030524	-0.392030	-9.691015	-4.500040	-1.022233	-1.480220	3.982860	-2.517900	-0.810545	-0.014648	0.576598	-1.000000	-1.000000	-1.000000	-1.000000	-1.000000	-1.000000	-1.000000	55.000000	0.000000	-1.000000	-1.000000	2478949.000000	1776581361.792233
511.380000	-12147.210000	18585.000000	66208.680000	48815.820000	33793.650000	-146.745000	-11497.815000	0.561760	1.076711	2.846463	4.226641	-3.749420	-10.891415	-3.299045	0.478802	-1.480220	3.982860	-2.517900	-0.810545	-0.014648	0.576598	-1.000000	-1.000000	-1.000000	-1.000000	-1.000000	-1.000000	-1.000000	55.000000	0.000000	-1.000000	-1.000000	2478950.000000	1776581361.796162
502.785000	-12159.945000	18560.340000	66164.535000	48766.005000	33797.295000	-134.415000	-11494.305000	2.663460	0.229150	-2.804378	-4.026018	-8.384248	-10.138260	-0.024528	3.806380	-1.480220	3.982860	-2.517900	-0.810545	-0.014648	0.576598	-1.000000	-1.000000	-1.000000	-1.000000	-1.000000	-1.000000	-1.000000	55.000000	0.000000	-1.000000	-1.000000	2478951.000000	1776581361.796182
494.370000	-12175.380000	18538.380000	66132.360000	48774.825000	33816.330000	-130.455000	-11502.945000	3.306285	-1.383964	-8.926081	-13.867822	-13.851306	-5.158805	4.311759	6.341966	-4.791640	4.288060	-2.151660	-0.809873	-0.014587	0.576476	-1.000000	-1.000000	-1.000000	-1.000000	-1.000000	-1.000000	-1.000000	55.000000	0.000000	-1.000000	-1.000000	2478952.000000	1776581361.800363
491.265000	-12180.465000	18533.925000	66128.805000	48806.955000	33836.670000	-138.735000	-11514.015000	0.507233	-4.880454	-14.489982	-22.830218	-14.476802	5.272979	7.094069	4.469471	-4.791640	4.288060	-2.151660	-0.809873	-0.014587	0.576476	-1.000000	-1.000000	-1.000000	-1.000000	-1.000000	-1.000000	-1.000000	55.000000	0.000000	-1.000000	-1.000000	2478953.000000	1776581361.800383
481.680000	-12186.990000	18536.670000	66155.130000	48899.025000	33933.420000	-136.395000	-11530.395000	-4.537641	-8.598044	-15.966892	-23.913728	-3.073274	19.152825	5.780839	-2.443370	-4.791640	4.288060	-2.151660	-0.809873	-0.014587	0.576476	-1.000000	-1.000000	-1.000000	-1.000000	-1.000000	-1.000000	-1.000000	55.000000	0.000000	-1.000000	-1.000000	2478954.000000	1776581361.804227
465.165000	-12200.040000	18531.990000	66165.750000	48902.985000	33925.860000	-147.150000	-11548.980000	-8.794600	-9.603847	-10.544361	-12.151014	19.190632	31.720576	0.646200	-11.022993	-4.791640	4.288060	-2.151660	-0.809873	-0.014587	0.576476	-1.000000	-1.000000	-1.000000	-1.000000	-1.000000	-1.000000	-1.000000	55.000000	0.000000	-1.000000	-1.000000	2478955.000000	1776581361.804242
462.870000	-12200.445000	18529.605000	66157.290000	48863.880000	33892.785000	-149.265000	-11552.130000	-10.074697	-6.792181	0.005967	7.987002	37.696930	33.786322	-5.490539	-16.367003	-4.791640	4.288060	-2.151660	-0.809873	-0.014587	0.576476	-1.000000	-1.000000	-1.000000	-1.000000	-1.000000	-1.000000	-1.000000	55.000000	0.000000	-1.000000	-1.000000	2478956.000000	1776581361.808191
472.995000	-12192.165000	18532.035000	66145.815000	48864.870000	33926.400000	-129.510000	-11538.315000	-7.234060	-0.925310	10.545090	24.535571	35.444805	18.108242	-9.022453	-14.548658	-4.791640	4.288060	-2.151660	-0.809873	-0.014587	0.576476	-1.000000	-1.000000	-1.000000	-1.000000	-1.000000	-1.000000	-1.000000	55.000000	0.000000	-1.000000	-1.000000	2478957.000000	1776581361.808200
472.905000	-12189.600000	18538.020000	66152.475000	48869.820000	33934.545000	-126.720000	-11536.830000	-0.405521	6.328318	16.751193	28.332962	11.658399	-8.633161	-7.348787	-4.965171	-4.791640	4.288060	-2.151660	-0.809873	-0.014587	0.576476	-1.000000	-1.000000	-1.000000	-1.000000	-1.000000	-1.000000	-1.000000	55.000000	0.000000	-1.000000	-1.000000	2478958.000000	1776581361.813930
460.485000	-12200.490000	18531.045000	66150.135000	48856.185000	33925.275000	-136.980000	-11546.145000	7.490517	12.071151	17.052452	19.833045	-17.847545	-31.096258	-1.657007	7.863727	-4.791640	4.288060	-2.151660	-0.809873	-0.014587	0.576476	-1.000000	-1.000000	-1.000000	-1.000000	-1.000000	-1.000000	-1.000000	55.000000	0.000000	-1.000000	-1.000000	2478959.000000	1776581361.813937
470.160000	-12186.315000	18547.155000	66164.310000	48856.140000	33912.990000	-140.895000	-11540.385000	12.127220	13.411943	12.310801	6.291617	-36.736854	-40.180795	3.393850	16.877417	-4.791640	4.288060	-2.151660	-0.809873	-0.014587	0.576476	-1.000000	-1.000000	-1.000000	-1.000000	-1.000000	-1.000000	-1.000000	55.000000	0.000000	-1.000000	-1.000000	2478960.000000	1776581361.816206
464.220000	-12199.500000	18518.130000	66129.255000	48836.790000	33895.125000	-145.215000	-11542.230000	11.691218	10.011634	4.764480	-5.466397	-38.596541	-36.309101	4.444798	18.148367	-4.791640	4.288060	-2.151660	-0.809873	-0.014587	0.576476	-1.000000	-1.000000	-1.000000	-1.000000	-1.000000	-1.000000	-1.000000	55.000000	0.000000	-1.000000	-1.000000	2478961.000000	1776581361.816224
463.455000	-12210.435000	18500.760000	66126.420000	48838.005000	33893.910000	-139.230000	-11537.820000	7.459906	3.507562	-3.908268	-13.138103	-26.602524	-24.135832	2.248144	12.806488	-2.060100	3.067260	0.808780	-0.812193	-0.013306	0.573607	-1.000000	-1.000000	-1.000000	-1.000000	-1.000000	-1.000000	-1.000000	55.000000	0.000000	-1.000000	-1.000000	2478962.000000	1776581361.820418
471.510000	-12203.460000	18516.510000	66146.940000	48847.635000	33895.710000	-135.450000	-11531.925000	1.909168	-3.776627	-11.673768	-16.088310	-8.083908	-8.182373	-0.109064	4.712375	-2.060100	3.067260	0.808780	-0.812193	-0.013306	0.573607	-1.000000	-1.000000	-1.000000	-1.000000	-1.000000	-1.000000	-1.000000	55.000000	0.000000	-1.000000	-1.000000	2478963.000000	1776581361.820435
480.375000	-12181.995000	18549.270000	66161.700000	48852.450000	33891.480000	-135.270000	-11527.875000	-2.273249	-8.246285	-13.895250	-12.492869	10.156992	7.817623	-0.501383	-2.292074	-2.060100	3.067260	0.808780	-0.812193	-0.013306	0.573607	-1.000000	-1.000000	-1.000000	-1.000000	-1.000000	-1.000000	-1.000000	55.000000	0.000000	-1.000000	-1.000000	2478964.000000	1776581361.824266
474.210000	-12177.855000	18558.045000	66164.130000	48844.395000	33876.180000	-146.565000	-11537.460000	-3.756317	-7.056160	-7.381306	-3.015970	22.626913	19.729701	0.492036	-6.449595	-2.060100	3.067260	0.808780	-0.812193	-0.013306	0.573607	-1.000000	-1.000000	-1.000000	-1.000000	-1.000000	-1.000000	-1.000000	55.000000	0.000000	-1.000000	-1.000000	2478965.000000	1776581361.824287
479.250000	-12176.370000	18553.815000	66165.795000	48848.895000	33881.445000	-140.940000	-11530.665000	-3.541646	-1.722938	3.835115	6.924583	25.751083	24.211857	0.988742	-8.157544	-2.060100	3.067260	0.808780	-0.812193	-0.013306	0.573607	-1.000000	-1.000000	-1.000000	-1.000000	-1.000000	-1.000000	-1.000000	55.000000	0.000000	-1.000000	-1.000000	2478966.000000	1776581361.828152
485.280000	-12173.895000	18551.565000	66162.150000	48850.785000	33886.800000	-135.225000	-11524.770000	-3.041666	3.034307	11.198185	11.417092	20.019123	21.565493	0.578848	-7.900273	-2.060100	3.067260	0.808780	-0.812193	-0.013306	0.573607	-1.000000	-1.000000	-1.000000	-1.000000	-1.000000	-1.000000	-1.000000	55.000000	0.000000	-1.000000	-1.000000	2478967.000000	1776581361.828165
483.255000	-12174.525000	18552.240000	66164.355000	48851.955000	33883.830000	-139.950000	-11526.840000	-2.565195	3.908118	9.843414	8.711836	9.638426	15.068840	0.268029	-5.721159	-2.060100	3.067260	0.808780	-0.812193	-0.013306	0.573607	-1.000000	-1.000000	-1.000000	-1.000000	-1.000000	-1.000000	-1.000000	55.000000	0.000000	-1.000000	-1.000000	2478968.000000	1776581361.832207
492.660000	-12164.895000	18561.015000	66172.185000	48859.155000	33890.445000	-134.145000	-11517.705000	-2.003730	1.232090	2.146403	1.816987	-0.497430	7.716034	0.402790	-2.402048	-2.060100	3.067260	0.808780	-0.812193	-0.013306	0.573607	-1.000000	-1.000000	-1.000000	-1.000000	-1.000000	-1.000000	-1.000000	55.000000	0.000000	-1.000000	-1.000000	2478969.000000	1776581361.832222
489.465000	-12168.180000	18560.160000	66172.455000	48856.230000	33883.920000	-138.870000	-11523.510000	-1.330575	-2.376598	-5.838310	-4.455924	-7.179089	1.078056	0.522992	0.683215	-2.060100	3.067260	0.808780	-0.812193	-0.013306	0.573607	-1.000000	-1.000000	-1.000000	-1.000000	-1.000000	-1.000000	-1.000000	55.000000	0.000000	-1.000000	-1.000000	2478970.000000	1776581361.837645
486.045000	-12173.535000	18554.310000	66166.830000	48851.190000	33880.590000	-140.265000	-11525.715000	-0.840054	-4.836287	-9.897160	-7.328949	-9.829720	-4.277218	0.176885	2.263498	-2.060100	3.067260	0.808780	-0.812193	-0.013306	0.573607	-1.000000	-1.000000	-1.000000	-1.000000	-1.000000	-1.000000	-1.000000	55.000000	0.000000	-1.000000	-1.000000	2478971.000000	1776581361.837664
485.865000	-12176.100000	18549.585000	66164.355000	48849.075000	33880.545000	-137.295000	-11521.215000	-0.992978	-5.759214	-9.719683	-7.134666	-9.721595	-8.071309	-0.646891	1.926210	-2.624720	3.280900	1.037680	-0.814878	-0.019409	0.571776	-1.000000	-1.000000	-1.000000	-1.000000	-1.000000	-1.000000	-1.000000	55.000000	0.000000	-1.000000	-1.000000	2478972.000000	1776581361.840361
478.530000	-12182.625000	18540.765000	66151.710000	48837.150000	33871.095000	-140.265000	-11525.220000	-1.644854	-5.382734	-7.081282	-5.518672	-8.247000	-9.798876	-1.354471	0.629975	-2.624720	3.280900	1.037680	-0.814878	-0.019409	0.571776	-1.000000	-1.000000	-1.000000	-1.000000	-1.000000	-1.000000	-1.000000	55.000000	0.000000	-1.000000	-1.000000	2478973.000000	1776581361.840381
488.475000	-12172.995000	18553.140000	66164.805000	48846.690000	33876.180000	-130.905000	-11515.995000	-1.971359	-3.666844	-3.398016	-3.456297	-5.989126	-9.162105	-1.302172	-0.276529	-2.624720	3.280900	1.037680	-0.814878	-0.019409	0.571776	-1.000000	-1.000000	-1.000000	-1.000000	-1.000000	-1.000000	-1.000000	55.000000	0.000000	-1.000000	-1.000000	2478974.000000	1776581361.844337
480.510000	-12175.605000	18561.870000	66182.445000	48851.820000	33869.655000	-137.205000	-11524.545000	-1.151523	-0.504578	1.176290	-0.298044	-2.567562	-6.384092	-0.398763	-0.217594	-2.624720	3.280900	1.037680	-0.814878	-0.019409	0.571776	-1.000000	-1.000000	-1.000000	-1.000000	-1.000000	-1.000000	-1.000000	55.000000	0.000000	-1.000000	-1.000000	2478975.000000	1776581361.844362
469.215000	-12177.270000	18579.105000	66214.980000	48859.740000	33849.180000	-155.745000	-11541.195000	0.374758	3.236414	6.529415	5.065039	2.190850	-2.744473	0.282580	-0.037726	-2.624720	3.280900	1.037680	-0.814878	-0.019409	0.571776	-1.000000	-1.000000	-1.000000	-1.000000	-1.000000	-1.000000	-1.000000	55.000000	0.000000	-1.000000	-1.000000	2478976.000000	1776581361.848240
474.615000	-12185.325000	18555.750000	66179.745000	48850.065000	33844.860000	-155.880000	-11533.815000	1.277817	5.606039	10.612335	10.746968	6.638682	-0.282294	-0.671463	-0.875633	-2.624720	3.280900	1.037680	-0.814878	-0.019409	0.571776	-1.000000	-1.000000	-1.000000	-1.000000	-1.000000	-1.000000	-1.000000	55.000000	0.000000	-1.000000	-1.000000	2478977.000000	1776581361.848258
486.315000	-12192.525000	18524.250000	66144.735000	48820.455000	33841.665000	-151.830000	-11523.870000	1.705997	5.183230	9.477965	10.739729	7.572719	0.553410	-2.484881	-1.687673	-2.624720	3.280900	1.037680	-0.814878	-0.019409	0.571776	-1.000000	-1.000000	-1.000000	-1.000000	-1.000000	-1.000000	-1.000000	55.000000	0.000000	-1.000000	-1.000000	2478978.000000	1776581361.852573
505.755000	-12160.485000	18555.930000	66197.160000	48825.135000	33802.920000	-165.240000	-11514.375000	3.232366	3.012031	2.197370	2.603422	3.338322	0.634189	-2.900044	-0.260967	-2.624720	3.280900	1.037680	-0.814878	-0.019409	0.571776	-1.000000	-1.000000	-1.000000	-1.000000	-1.000000	-1.000000	-1.000000	55.000000	0.000000	-1.000000	-1.000000	2478979.000000	1776581361.852597
518.355000	-12131.595000	18595.035000	66230.010000	48851.820000	33779.205000	-167.715000	-11509.470000	6.251948	2.613066	-4.700571	-5.739850	-2.511318	-0.377707	-1.451792	3.363327	-2.624720	3.280900	1.037680	-0.814878	-0.019409	0.571776	-1.000000	-1.000000	-1.000000	-1.000000	-1.000000	-1.000000	-1.000000	55.000000	0.000000	-1.000000	-1.000000	2478980.000000	1776581361.856326
505.170000	-12148.605000	18577.305000	66170.835000	48849.030000	33814.260000	-158.220000	-11516.760000	8.408074	5.283441	-4.300950	-6.670689	-4.023090	-1.666138	0.857876	6.376790	-2.624720	3.280900	1.037680	-0.814878	-0.019409	0.571776	-1.000000	-1.000000	-1.000000	-1.000000	-1.000000	-1.000000	-1.000000	55.000000	0.000000	-1.000000	-1.000000	2478981.000000	1776581361.856341
488.475000	-12167.370000	18556.965000	66142.530000	48842.820000	33880.860000	-141.795000	-11525.265000	5.977369	6.477314	0.661778	-4.630843	-0.396826	1.858116	3.785134	5.710749	0.259420	2.578940	-0.976640	-0.812681	-0.022827	0.573302	-1.000000	-1.000000	-1.000000	-1.000000	-1.000000	-1.000000	-1.000000	55.000000	0.000000	-1.000000	-1.000000	2478982.000000	1776581361.860262
468.135000	-12189.015000	18537.615000	66137.760000	48852.360000	33930.495000	-133.245000	-11538.405000	-2.200614	1.147193	1.995106	-6.733863	3.818212	13.876147	7.193873	0.755101	0.259420	2.578940	-0.976640	-0.812681	-0.022827	0.573302	-1.000000	-1.000000	-1.000000	-1.000000	-1.000000	-1.000000	-1.000000	55.000000	0.000000	-1.000000	-1.000000	2478983.000000	1776581361.860275
455.310000	-12198.555000	18536.895000	66150.585000	48882.105000	33965.325000	-131.490000	-11547.450000	-12.481467	-9.235870	-2.840280	-10.505254	5.644038	28.820710	9.392573	-6.005637	0.259420	2.578940	-0.976640	-0.812681	-0.022827	0.573302	-1.000000	-1.000000	-1.000000	-1.000000	-1.000000	-1.000000	-1.000000	55.000000	0.000000	-1.000000	-1.000000	2478984.000000	1776581361.864667
457.200000	-12206.970000	18521.145000	66134.160000	48862.620000	33945.030000	-133.155000	-11546.055000	-18.578814	-17.720396	-9.035311	-9.055197	5.416971	34.031218	7.994819	-10.584839	0.259420	2.578940	-0.976640	-0.812681	-0.022827	0.573302	-1.000000	-1.000000	-1.000000	-1.000000	-1.000000	-1.000000	-1.000000	55.000000	0.000000	-1.000000	-1.000000	2478985.000000	1776581361.864678
469.035000	-12196.080000	18527.580000	66132.900000	48851.280000	33923.430000	-129.060000	-11533.185000	-15.781535	-17.976340	-10.857271	-1.294913	2.717466	20.123540	2.541639	-9.726700	0.259420	2.578940	-0.976640	-0.812681	-0.022827	0.573302	-1.000000	-1.000000	-1.000000	-1.000000	-1.000000	-1.000000	-1.000000	55.000000	0.000000	-1.000000	-1.000000	2478986.000000	1776581361.868835
471.780000	-12190.635000	18535.410000	66143.295000	48848.130000	33905.385000	-137.115000	-11534.490000	-4.444596	-8.736961	-6.151456	8.250153	-3.128292	-9.847708	-4.668624	-3.173507	0.259420	2.578940	-0.976640	-0.812681	-0.022827	0.573302	-1.000000	-1.000000	-1.000000	-1.000000	-1.000000	-1.000000	-1.000000	55.000000	0.000000	-1.000000	-1.000000	2478987.000000	1776581361.868865
475.020000	-12189.240000	18537.975000	66148.515000	48848.580000	33898.005000	-140.445000	-11534.220000	9.613473	5.446652	3.122075	15.237600	-9.454758	-40.729296	-10.521958	5.390741	0.259420	2.578940	-0.976640	-0.812681	-0.022827	0.573302	-1.000000	-1.000000	-1.000000	-1.000000	-1.000000	-1.000000	-1.000000	55.000000	0.000000	-1.000000	-1.000000	2478988.000000	1776581361.872510
477.495000	-12183.930000	18545.445000	66157.830000	48849.210000	33891.255000	-142.875000	-11531.970000	19.046860	17.161327	12.155315	17.546058	-11.944832	-55.901530	-12.877554	10.966988	0.259420	2.578940	-0.976640	-0.812681	-0.022827	0.573302	-1.000000	-1.000000	-1.000000	-1.000000	-1.000000	-1.000000	-1.000000	55.000000	0.000000	-1.000000	-1.000000	2478989.000000	1776581361.872540
479.970000	-12177.675000	18552.555000	66165.435000	48852.990000	33890.445000	-143.955000	-11530.305000	19.892272	21.157125	16.451096	14.824596	-8.800389	-48.316887	-11.006152	11.129559	0.259420	2.578940	-0.976640	-0.812681	-0.022827	0.573302	-1.000000	-1.000000	-1.000000	-1.000000	-1.000000	-1.000000	-1.000000	55.000000	0.000000	-1.000000	-1.000000	2478990.000000	1776581361.876231
482.535000	-12178.620000	18545.130000	66154.815000	48850.425000	33891.660000	-138.465000	-11525.040000	13.149290	16.914136	14.296517	8.013480	-1.875792	-23.171522	-5.658709	6.963117	0.259420	2.578940	-0.976640	-0.812681	-0.022827	0.573302	-1.000000	-1.000000	-1.000000	-1.000000	-1.000000	-1.000000	-1.000000	55.000000	0.000000	-1.000000	-1.000000	2478991.000000	1776581361.876240
476.775000	-12184.605000	18541.530000	66152.970000	48846.330000	33884.325000	-141.165000	-11531.070000	2.857340	7.269492	6.674639	-1.251392	4.936277	6.992324	1.165092	1.181953	-0.152600	0.976640	-1.007160	-0.811399	-0.022095	0.574522	-1.000000	-1.000000	-1.000000	-1.000000	-1.000000	-1.000000	-1.000000	55.000000	0.000000	-1.000000	-1.000000	2478992.000000	1776581361.880309
480.510000	-12176.505000	18556.560000	66170.295000	48856.230000	33885.135000	-139.770000	-11529.045000	-6.634195	-3.559597	-2.964643	-9.938034	8.568031	29.641957	6.837332	-3.925451	-0.152600	0.976640	-1.007160	-0.811399	-0.022095	0.574522	-1.000000	-1.000000	-1.000000	-1.000000	-1.000000	-1.000000	-1.000000	55.000000	0.000000	-1.000000	-1.000000	2478993.000000	1776581361.880319
480.645000	-12170.700000	18570.960000	66188.520000	48858.795000	33876.180000	-147.420000	-11533.275000	-12.164906	-11.164702	-9.582826	-13.778644	8.694549	37.984743	9.211812	-7.049967	-0.152600	0.976640	-1.007160	-0.811399	-0.022095	0.574522	-1.000000	-1.000000	-1.000000	-1.000000	-1.000000	-1.000000	-1.000000	55.000000	0.000000	-1.000000	-1.000000	2478994.000000	1776581361.884245
476.685000	-12170.970000	18574.470000	66193.245000	48852.270000	33867.630000	-157.815000	-11541.420000	-12.640178	-13.011520	-10.164340	-10.873624	6.484916	32.366487	7.574349	-7.825918	-0.152600	0.976640	-1.007160	-0.811399	-0.022095	0.574522	-1.000000	-1.000000	-1.000000	-1.000000	-1.000000	-1.000000	-1.000000	55.000000	0.000000	-1.000000	-1.000000	2478995.000000	1776581361.884255
484.695000	-12169.665000	18568.260000	66183.660000	48847.545000	33870.555000	-148.995000	-11530.980000	-9.146251	-10.001716	-6.478595	-4.414536	2.694592	18.274224	3.209158	-6.531582	-0.152600	0.976640	-1.007160	-0.811399	-0.022095	0.574522	-1.000000	-1.000000	-1.000000	-1.000000	-1.000000	-1.000000	-1.000000	55.000000	0.000000	-1.000000	-1.000000	2478996.000000	1776581361.888392
484.110000	-12178.665000	18549.135000	66164.535000	48852.585000	33882.705000	-136.935000	-11525.760000	-3.695544	-5.227196	-3.164692	-0.160579	-1.703717	3.450784	-0.647865	-3.279876	-0.152600	0.976640	-1.007160	-0.811399	-0.022095	0.574522	-1.000000	-1.000000	-1.000000	-1.000000	-1.000000	-1.000000	-1.000000	55.000000	0.000000	-1.000000	-1.000000	2478997.000000	1776581361.888407
484.785000	-12184.920000	18528.795000	66132.405000	48842.055000	33882.930000	-129.690000	-11519.820000	1.587809	-1.596862	-3.517180	-1.590757	-4.986675	-5.998547	-1.213619	1.410561	-0.152600	0.976640	-1.007160	-0.811399	-0.022095	0.574522	-1.000000	-1.000000	-1.000000	-1.000000	-1.000000	-1.000000	-1.000000	55.000000	0.000000	-1.000000	-1.000000	2478998.000000	1776581361.892258
490.770000	-12178.530000	18539.865000	66144.735000	48838.185000	33865.560000	-136.305000	-11514.735000	4.964952	0.001478	-6.458750	-6.845344	-6.175951	-9.159547	0.873404	5.742683	-0.152600	0.976640	-1.007160	-0.811399	-0.022095	0.574522	-1.000000	-1.000000	-1.000000	-1.000000	-1.000000	-1.000000	-1.000000	55.000000	0.000000	-1.000000	-1.000000	2478999.000000	1776581361.892267
488.385000	-12178.935000	18545.895000	66158.730000	48840.660000	33858.540000	-136.800000	-11516.400000	5.853774	0.862840	-7.211901	-9.412260	-5.402946	-9.369140	2.337193	7.601604	-0.152600	0.976640	-1.007160	-0.811399	-0.022095	0.574522	-1.000000	-1.000000	-1.000000	-1.000000	-1.000000	-1.000000	-1.000000	55.000000	0.000000	-1.000000	-1.000000	2479000.000000	1776581361.896381
480.375000	-12182.895000	18547.425000	66164.220000	48842.595000	33854.805000	-145.170000	-11527.920000	4.449026	2.181899	-2.521070	-4.231607	-2.907049	-9.316536	0.921649	5.781312	-0.152600	0.976640	-1.007160	-0.811399	-0.022095	0.574522	-1.000000	-1.000000	-1.000000	-1.000000	-1.000000	-1.000000	-1.000000	55.000000	0.000000	-1.000000	-1.000000	2479001.000000	1776581361.896391
473.805000	-12192.255000	18536.265000	66149.370000	48838.995000	33879.015000	-134.280000	-11528.370000	1.218122	3.354814	5.293814	6.194454	0.626861	-8.180027	-2.500367	0.781820	0.137340	2.533160	-2.044840	-0.810789	-0.019043	0.573546	-1.000000	-1.000000	-1.000000	-1.000000	-1.000000	-1.000000	-1.000000	55.000000	0.000000	-1.000000	-1.000000	2479002.000000	1776581361.900351
472.680000	-12198.060000	18533.835000	66155.445000	48859.020000	33905.205000	-120.555000	-11522.295000	-2.533679	3.131644	10.819314	14.316230	3.991794	-3.448799	-4.788253	-4.648809	0.137340	2.533160	-2.044840	-0.810789	-0.019043	0.573546	-1.000000	-1.000000	-1.000000	-1.000000	-1.000000	-1.000000	-1.000000	55.000000	0.000000	-1.000000	-1.000000	2479003.000000	1776581361.900360
474.345000	-12194.910000	18545.130000	66170.430000	48859.740000	33887.520000	-133.695000	-11525.805000	-4.724953	1.594805	11.181926	15.643235	6.452421	4.324813	-3.886567	-7.156061	0.137340	2.533160	-2.044840	-0.810789	-0.019043	0.573546	-1.000000	-1.000000	-1.000000	-1.000000	-1.000000	-1.000000	-1.000000	55.000000	0.000000	-1.000000	-1.000000	2479004.000000	1776581361.904364
474.570000	-12178.620000	18564.795000	66174.615000	48844.080000	33860.835000	-152.460000	-11533.095000	-3.985631	0.576193	8.243911	11.612140	6.948862	9.265544	-1.679776	-5.885330	0.137340	2.533160	-2.044840	-0.810789	-0.019043	0.573546	-1.000000	-1.000000	-1.000000	-1.000000	-1.000000	-1.000000	-1.000000	55.000000	0.000000	-1.000000	-1.000000	2479005.000000	1776581361.904375
483.705000	-12161.250000	18576.810000	66175.425000	48837.285000	33851.385000	-156.870000	-11533.995000	-0.716744	1.992138	5.478252	5.478526	3.849185	5.970487	-1.422019	-2.721982	0.137340	2.533160	-2.044840	-0.810789	-0.019043	0.573546	-1.000000	-1.000000	-1.000000	-1.000000	-1.000000	-1.000000	-1.000000	55.000000	0.000000	-1.000000	-1.000000	2479006.000000	1776581361.908300
488.430000	-12163.500000	18556.155000	66160.575000	48837.105000	33861.060000	-141.210000	-11525.130000	3.439893	5.287553	3.451786	-1.123486	-2.185790	-3.155471	-2.738676	0.496346	0.137340	2.533160	-2.044840	-0.810789	-0.019043	0.573546	-1.000000	-1.000000	-1.000000	-1.000000	-1.000000	-1.000000	-1.000000	55.000000	0.000000	-1.000000	-1.000000	2479007.000000	1776581361.908312
489.825000	-12167.280000	18557.910000	66172.455000	48845.475000	33871.545000	-134.235000	-11522.565000	6.458695	7.017111	-0.198901	-7.297573	-7.300249	-9.857384	-2.112844	3.329833	0.137340	2.533160	-2.044840	-0.810789	-0.019043	0.573546	-1.000000	-1.000000	-1.000000	-1.000000	-1.000000	-1.000000	-1.000000	55.000000	0.000000	-1.000000	-1.000000	2479008.000000	1776581361.912459
498.960000	-12153.780000	18586.575000	66217.770000	48872.610000	33883.155000	-137.880000	-11517.345000	6.833294	4.523748	-5.483625	-10.254838	-7.452123	-8.463040	1.803771	5.517746	0.137340	2.533160	-2.044840	-0.810789	-0.019043	0.573546	-1.000000	-1.000000	-1.000000	-1.000000	-1.000000	-1.000000	-1.000000	55.000000	0.000000	-1.000000	-1.000000	2479009.000000	1776581361.912485
500.130000	-12151.035000	18580.995000	66202.020000	48856.860000	33875.865000	-141.480000	-11517.480000	4.566546	-0.811922	-8.610287	-7.269613	-2.221045	-0.657161	6.084200	6.228626	0.137340	2.533160	-2.044840	-0.810789	-0.019043	0.573546	-1.000000	-1.000000	-1.000000	-1.000000	-1.000000	-1.000000	-1.000000	55.000000	0.000000	-1.000000	-1.000000	2479010.000000	1776581361.916451
499.680000	-12158.595000	18563.805000	66165.210000	48832.425000	33867.945000	-133.605000	-11512.755000	0.786207	-5.800362	-8.016808	-1.800995	3.451008	6.889743	7.315416	4.876615	0.137340	2.533160	-2.044840	-0.810789	-0.019043	0.573546	-1.000000	-1.000000	-1.000000	-1.000000	-1.000000	-1.000000	-1.000000	55.000000	0.000000	-1.000000	-1.000000	2479011.000000	1776581361.916468
492.255000	-12169.125000	18552.375000	66144.780000	48832.155000	33859.350000	-130.680000	-11514.330000	-3.363415	-8.991227	-6.532708	-1.198004	3.874720	8.634132	5.230120	1.874517	0.778260	2.655240	-0.015260	-0.810362	-0.031250	0.574828	-1.000000	-1.000000	-1.000000	-1.000000	-1.000000	-1.000000	-1.000000	55.000000	0.000000	-1.000000	-1.000000	2479012.000000	1776581361.920257
489.105000	-12169.845000	18554.760000	66146.220000	48844.260000	33846.030000	-140.265000	-11518.605000	-6.893853	-10.277898	-6.138979	-6.588603	-0.351217	4.132151	1.580384	-1.723697	0.778260	2.655240	-0.015260	-0.810362	-0.031250	0.574828	-1.000000	-1.000000	-1.000000	-1.000000	-1.000000	-1.000000	-1.000000	55.000000	0.000000	-1.000000	-1.000000	2479013.000000	1776581361.920268
494.055000	-12153.915000	18586.575000	66201.885000	48891.420000	33877.260000	-135.450000	-11518.380000	-8.539623	-8.854201	-4.721663	-10.195172	-2.821073	-2.267987	-2.199497	-4.821789	0.778260	2.655240	-0.015260	-0.810362	-0.031250	0.574828	-1.000000	-1.000000	-1.000000	-1.000000	-1.000000	-1.000000	-1.000000	55.000000	0.000000	-1.000000	-1.000000	2479014.000000	1776581361.924319
468.540000	-12181.725000	18558.315000	66181.725000	48885.255000	33925.815000	-132.075000	-11534.130000	-7.592003	-4.336748	0.067039	-4.588067	0.926797	-3.971972	-4.821584	-6.619449	0.778260	2.655240	-0.015260	-0.810362	-0.031250	0.574828	-1.000000	-1.000000	-1.000000	-1.000000	-1.000000	-1.000000	-1.000000	55.000000	0.000000	-1.000000	-1.000000	2479015.000000	1776581361.924332
472.050000	-12191.805000	18511.155000	66096.270000	48856.185000	33961.905000	-107.100000	-11514.960000	-5.028484	0.704616	4.904308	5.713056	6.967956	2.607399	-4.704576	-6.555782	0.778260	2.655240	-0.015260	-0.810362	-0.031250	0.574828	-1.000000	-1.000000	-1.000000	-1.000000	-1.000000	-1.000000	-1.000000	55.000000	0.000000	-1.000000	-1.000000	2479016.000000	1776581361.928302
472.230000	-12192.840000	18526.095000	66125.880000	48847.680000	33928.380000	-114.480000	-11523.105000	-1.844732	3.262316	4.424715	9.046171	7.064512	12.262797	-1.524770	-4.052314	0.778260	2.655240	-0.015260	-0.810362	-0.031250	0.574828	-1.000000	-1.000000	-1.000000	-1.000000	-1.000000	-1.000000	-1.000000	55.000000	0.000000	-1.000000	-1.000000	2479017.000000	1776581361.928310
475.245000	-12185.280000	18543.960000	66152.385000	48850.920000	33907.365000	-124.425000	-11523.195000	2.089726	3.892387	0.613184	4.560570	-0.542528	13.672328	2.022297	0.197456	0.778260	2.655240	-0.015260	-0.810362	-0.031250	0.574828	-1.000000	-1.000000	-1.000000	-1.000000	-1.000000	-1.000000	-1.000000	55.000000	0.000000	-1.000000	-1.000000	2479018.000000	1776581361.932446
466.335000	-12194.775000	18533.880000	66142.260000	48837.645000	33893.550000	-131.805000	-11526.120000	6.130647	4.782814	0.020122	1.733247	-9.496628	1.559181	2.244632	3.837543	0.778260	2.655240	-0.015260	-0.810362	-0.031250	0.574828	-1.000000	-1.000000	-1.000000	-1.000000	-1.000000	-1.000000	-1.000000	55.000000	0.000000	-1.000000	-1.000000	2479019.000000	1776581361.932465
477.135000	-12188.700000	18534.870000	66144.195000	48833.595000	33886.620000	-132.795000	-11520.090000	8.547058	6.160834	3.781839	4.302000	-13.399390	-16.693849	-1.220872	5.256374	0.778260	2.655240	-0.015260	-0.810362	-0.031250	0.574828	-1.000000	-1.000000	-1.000000	-1.000000	-1.000000	-1.000000	-1.000000	55.000000	0.000000	-1.000000	-1.000000	2479020.000000	1776581361.936450
480.285000	-12181.500000	18544.905000	66155.670000	48847.950000	33892.965000	-128.115000	-11516.670000	8.585084	6.960240	7.858411	8.053120	-10.348700	-28.252756	-4.999099	4.810193	0.778260	2.655240	-0.015260	-0.810362	-0.031250	0.574828	-1.000000	-1.000000	-1.000000	-1.000000	-1.000000	-1.000000	-1.000000	55.000000	0.000000	-1.000000	-1.000000	2479021.000000	1776581361.936468
485.640000	-12176.055000	18553.905000	66164.355000	48858.570000	33894.045000	-134.505000	-11520.270000	6.839965	6.690511	9.300398	9.129230	-1.768778	-25.538203	-5.723093	3.484707	-1.907500	0.900340	-0.747740	-0.809385	-0.014465	0.577696	-1.000000	-1.000000	-1.000000	-1.000000	-1.000000	-1.000000	-1.000000	55.000000	0.000000	-1.000000	-1.000000	2479022.000000	1776581361.940385
493.605000	-12171.645000	18556.695000	66164.445000	48854.385000	33893.505000	-138.465000	-11522.115000	4.100496	5.239627	7.735617	6.739960	8.348828	-10.695847	-3.132112	1.604291	-1.907500	0.900340	-0.747740	-0.809385	-0.014465	0.577696	-1.000000	-1.000000	-1.000000	-1.000000	-1.000000	-1.000000	-1.000000	55.000000	0.000000	-1.000000	-1.000000	2479023.000000	1776581361.940404
502.200000	-12159.315000	18566.730000	66172.590000	48858.120000	33898.410000	-132.705000	-11514.825000	1.118162	2.698703	3.897079	1.752541	14.620654	7.500474	0.733019	-0.565891	-1.907500	0.900340	-0.747740	-0.809385	-0.014465	0.577696	-1.000000	-1.000000	-1.000000	-1.000000	-1.000000	-1.000000	-1.000000	55.000000	0.000000	-1.000000	-1.000000	2479024.000000	1776581361.944519
495.495000	-12165.570000	18561.510000	66168.630000	48852.495000	33885.675000	-136.080000	-11516.940000	-1.649621	-0.445937	-1.035995	-4.063735	13.865975	20.150647	4.048138	-2.122822	-1.907500	0.900340	-0.747740	-0.809385	-0.014465	0.577696	-1.000000	-1.000000	-1.000000	-1.000000	-1.000000	-1.000000	-1.000000	55.000000	0.000000	-1.000000	-1.000000	2479025.000000	1776581361.944536
492.570000	-12165.795000	18564.795000	66178.125000	48854.880000	33878.880000	-136.125000	-11517.840000	-4.456564	-3.871488	-5.830692	-8.649335	7.191592	22.557557	5.766124	-2.547400	-1.907500	0.900340	-0.747740	-0.809385	-0.014465	0.577696	-1.000000	-1.000000	-1.000000	-1.000000	-1.000000	-1.000000	-1.000000	55.000000	0.000000	-1.000000	-1.000000	2479026.000000	1776581361.948519
500.355000	-12154.995000	18578.880000	66199.860000	48870.360000	33881.580000	-128.565000	-11509.245000	-7.087049	-6.926215	-9.008627	-10.038778	-1.088107	15.769224	5.570454	-2.097905	-1.907500	0.900340	-0.747740	-0.809385	-0.014465	0.577696	-1.000000	-1.000000	-1.000000	-1.000000	-1.000000	-1.000000	-1.000000	55.000000	0.000000	-1.000000	-1.000000	2479027.000000	1776581361.948538
497.610000	-12155.130000	18576.405000	66193.605000	48864.960000	33871.815000	-135.270000	-11509.695000	-8.113416	-8.083130	-9.105639	-7.440327	-6.486749	5.165738	4.003720	-1.026130	-1.907500	0.900340	-0.747740	-0.809385	-0.014465	0.577696	-1.000000	-1.000000	-1.000000	-1.000000	-1.000000	-1.000000	-1.000000	55.000000	0.000000	-1.000000	-1.000000	2479028.000000	1776581361.952410
482.535000	-12170.790000	18561.960000	66170.115000	48837.555000	33869.565000	-141.120000	-11517.390000	-6.917607	-6.937622	-6.714361	-3.423661	-8.193038	-3.817492	1.535095	0.077507	-1.907500	0.900340	-0.747740	-0.809385	-0.014465	0.577696	-1.000000	-1.000000	-1.000000	-1.000000	-1.000000	-1.000000	-1.000000	55.000000	0.000000	-1.000000	-1.000000	2479029.000000	1776581361.952423
461.700000	-12176.730000	18580.410000	66201.660000	48845.160000	33864.795000	-150.390000	-11533.140000	-5.059472	-5.155257	-3.958676	-1.443733	-8.516660	-8.456005	-1.671872	-0.091507	-1.907500	0.900340	-0.747740	-0.809385	-0.014465	0.577696	-1.000000	-1.000000	-1.000000	-1.000000	-1.000000	-1.000000	-1.000000	55.000000	0.000000	-1.000000	-1.000000	2479030.000000	1776581361.956482
473.715000	-12169.395000	18593.595000	66237.705000	48872.880000	33872.445000	-143.595000	-11530.215000	-3.766031	-3.723068	-1.118802	-0.199374	-7.529449	-8.387581	-4.625071	-1.955911	-1.907500	0.900340	-0.747740	-0.809385	-0.014465	0.577696	-1.000000	-1.000000	-1.000000	-1.000000	-1.000000	-1.000000	-1.000000	55.000000	0.000000	-1.000000	-1.000000	2479031.000000	1776581361.956490
480.150000	-12189.690000	18519.975000	66152.925000	48844.440000	33894.090000	-123.930000	-11516.715000	-1.541514	-1.918478	1.294290	2.140082	-3.444237	-4.344779	-5.134897	-3.461380	-3.815000	1.358140	-1.205540	-0.810240	-0.014893	0.576842	-1.000000	-1.000000	-1.000000	-1.000000	-1.000000	-1.000000	-1.000000	55.000000	0.000000	-1.000000	-1.000000	2479032.000000	1776581361.960377
493.335000	-12194.325000	18483.660000	66103.695000	48839.310000	33912.225000	-106.515000	-11501.370000	3.403894	0.273843	-0.753797	0.489106	1.757085	2.296312	-1.557796	-1.705794	-3.815000	1.358140	-1.205540	-0.810240	-0.014893	0.576842	-1.000000	-1.000000	-1.000000	-1.000000	-1.000000	-1.000000	-1.000000	55.000000	0.000000	-1.000000	-1.000000	2479033.000000	1776581361.960394
509.490000	-12169.395000	18539.550000	66149.910000	48847.050000	33894.495000	-117.630000	-11501.235000	9.953933	2.566160	-6.955347	-7.707609	4.344517	8.276349	4.322653	3.330807	-3.815000	1.358140	-1.205540	-0.810240	-0.014893	0.576842	-1.000000	-1.000000	-1.000000	-1.000000	-1.000000	-1.000000	-1.000000	55.000000	0.000000	-1.000000	-1.000000	2479034.000000	1776581361.964529
504.765000	-12145.815000	18590.580000	66179.520000	48843.765000	33881.040000	-130.005000	-11509.335000	14.559054	6.252230	-7.105779	-12.431978	4.237301	8.747526	7.379076	7.797864	-3.815000	1.358140	-1.205540	-0.810240	-0.014893	0.576842	-1.000000	-1.000000	-1.000000	-1.000000	-1.000000	-1.000000	-1.000000	55.000000	0.000000	-1.000000	-1.000000	2479035.000000	1776581361.964543
506.655000	-12138.480000	18592.020000	66179.070000	48847.005000	33892.245000	-128.565000	-11506.095000	13.670902	11.488156	5.533637	-4.112647	3.434071	2.227541	4.230241	7.683170	-3.815000	1.358140	-1.205540	-0.810240	-0.014893	0.576842	-1.000000	-1.000000	-1.000000	-1.000000	-1.000000	-1.000000	-1.000000	55.000000	0.000000	-1.000000	-1.000000	2479036.000000	1776581361.975145
503.910000	-12147.030000	18575.460000	66168.720000	48845.205000	33895.260000	-128.205000	-11506.320000	6.637950	14.510648	21.996510	11.954805	2.856170	-6.402846	-2.756710	2.944655	-3.815000	1.358140	-1.205540	-0.810240	-0.014893	0.576842	-1.000000	-1.000000	-1.000000	-1.000000	-1.000000	-1.000000	-1.000000	55.000000	0.000000	-1.000000	-1.000000	2479037.000000	1776581361.975158
506.205000	-12146.265000	18581.805000	66184.785000	48868.875000	33896.205000	-131.490000	-11506.905000	-3.267068	10.981725	27.311927	22.809969	2.730361	-10.898078	-8.274473	-3.036069	-3.815000	1.358140	-1.205540	-0.810240	-0.014893	0.576842	-1.000000	-1.000000	-1.000000	-1.000000	-1.000000	-1.000000	-1.000000	55.000000	0.000000	-1.000000	-1.000000	2479038.000000	1776581361.975194
498.060000	-12156.795000	18573.660000	66183.075000	48884.355000	33908.130000	-126.135000	-11510.865000	-11.366842	1.093362	16.756979	21.895098	3.585044	-9.232127	-9.085569	-7.005242	-3.815000	1.358140	-1.205540	-0.810240	-0.014893	0.576842	-1.000000	-1.000000	-1.000000	-1.000000	-1.000000	-1.000000	-1.000000	55.000000	0.000000	-1.000000	-1.000000	2479039.000000	1776581361.975199
496.620000	-12159.990000	18570.645000	66179.835000	48862.080000	33884.595000	-124.155000	-11510.190000	-14.719562	-10.355180	-2.265542	11.559171	4.611947	-3.862589	-5.360408	-7.725902	-3.815000	1.358140	-1.205540	-0.810240	-0.014893	0.576842	-1.000000	-1.000000	-1.000000	-1.000000	-1.000000	-1.000000	-1.000000	55.000000	0.000000	-1.000000	-1.000000	2479040.000000	1776581361.976293
506.295000	-12154.680000	18570.915000	66180.555000	48840.660000	33856.605000	-117.675000	-11496.870000	-12.740743	-17.567498	-18.791104	-2.086925	2.468494	0.256300	0.556177	-5.371957	-3.815000	1.358140	-1.205540	-0.810240	-0.014893	0.576842	-1.000000	-1.000000	-1.000000	-1.000000	-1.000000	-1.000000	-1.000000	55.000000	0.000000	-1.000000	-1.000000	2479041.000000	1776581361.976314
512.055000	-12147.120000	18585.360000	66204.945000	48858.885000	33873.705000	-111.825000	-11490.840000	-6.386531	-16.964405	-25.146250	-12.555398	-4.031258	0.208171	5.802364	-0.732882	-3.769220	3.723440	-0.579880	-0.808897	-0.014770	0.576781	-1.000000	-1.000000	-1.000000	-1.000000	-1.000000	-1.000000	-1.000000	55.000000	0.000000	-1.000000	-1.000000	2479042.000000	1776581361.980334
502.785000	-12150.720000	18595.530000	66228.570000	48904.200000	33930.945000	-115.290000	-11501.595000	1.597202	-9.284536	-19.665233	-15.015835	-9.403984	-0.180845	8.236346	4.102856	-3.769220	3.723440	-0.579880	-0.808897	-0.014770	0.576781	-1.000000	-1.000000	-1.000000	-1.000000	-1.000000	-1.000000	-1.000000	55.000000	0.000000	-1.000000	-1.000000	2479043.000000	1776581361.980341
507.060000	-12158.865000	18561.960000	66169.620000	48898.755000	33962.625000	-96.885000	-11490.390000	7.312112	0.625248	-7.379205	-10.508851	-7.276501	5.390042	7.274168	6.298368	-3.769220	3.723440	-0.579880	-0.808897	-0.014770	0.576781	-1.000000	-1.000000	-1.000000	-1.000000	-1.000000	-1.000000	-1.000000	55.000000	0.000000	-1.000000	-1.000000	2479044.000000	1776581361.984492
497.880000	-12168.765000	18546.345000	66146.670000	48879.360000	33944.490000	-111.555000	-11502.000000	8.488439	7.237722	2.792611	-6.664828	0.162560	15.247115	3.981549	4.886900	-3.769220	3.723440	-0.579880	-0.808897	-0.014770	0.576781	-1.000000	-1.000000	-1.000000	-1.000000	-1.000000	-1.000000	-1.000000	55.000000	0.000000	-1.000000	-1.000000	2479045.000000	1776581361.984502
502.920000	-12156.570000	18568.260000	66175.605000	48883.500000	33932.205000	-113.220000	-11501.505000	5.824659	8.503809	6.047007	-7.724486	4.725024	19.104431	-0.453099	1.145865	-3.769220	3.723440	-0.579880	-0.808897	-0.014770	0.576781	-1.000000	-1.000000	-1.000000	-1.000000	-1.000000	-1.000000	-1.000000	55.000000	0.000000	-1.000000	-1.000000	2479046.000000	1776581361.988401
496.710000	-12161.340000	18566.550000	66174.930000	48863.430000	33907.185000	-115.830000	-11507.670000	1.767711	6.547381	5.561093	-8.302330	2.519230	9.810739	-5.027477	-2.896434	-3.769220	3.723440	-0.579880	-0.808897	-0.014770	0.576781	-1.000000	-1.000000	-1.000000	-1.000000	-1.000000	-1.000000	-1.000000	55.000000	0.000000	-1.000000	-1.000000	2479047.000000	1776581361.988410
496.845000	-12161.250000	18566.370000	66170.385000	48852.225000	33896.430000	-125.820000	-11511.540000	-1.420353	4.166610	5.822343	-2.959851	-3.829967	-8.665164	-8.138260	-5.395781	-3.769220	3.723440	-0.579880	-0.808897	-0.014770	0.576781	-1.000000	-1.000000	-1.000000	-1.000000	-1.000000	-1.000000	-1.000000	55.000000	0.000000	-1.000000	-1.000000	2479048.000000	1776581361.992313
503.235000	-12156.255000	18569.745000	66176.955000	48860.190000	33896.610000	-122.310000	-11506.005000	-2.613534	2.406440	7.057883	6.039407	-9.185865	-24.946631	-8.473687	-5.321754	-3.769220	3.723440	-0.579880	-0.808897	-0.014770	0.576781	-1.000000	-1.000000	-1.000000	-1.000000	-1.000000	-1.000000	-1.000000	55.000000	0.000000	-1.000000	-1.000000	2479049.000000	1776581361.992323
505.935000	-12149.910000	18585.630000	66202.875000	48882.420000	33900.570000	-118.260000	-11502.360000	-1.638126	1.437941	7.644027	13.621089	-8.716733	-29.036499	-5.656985	-2.592488	-3.769220	3.723440	-0.579880	-0.808897	-0.014770	0.576781	-1.000000	-1.000000	-1.000000	-1.000000	-1.000000	-1.000000	-1.000000	55.000000	0.000000	-1.000000	-1.000000	2479050.000000	1776581361.996560
500.805000	-12156.705000	18579.735000	66195.720000	48869.055000	33898.410000	-117.090000	-11502.630000	0.495497	1.005732	6.802232	16.948413	-1.438906	-19.023758	-0.428495	1.654214	-3.769220	3.723440	-0.579880	-0.808897	-0.014770	0.576781	-1.000000	-1.000000	-1.000000	-1.000000	-1.000000	-1.000000	-1.000000	55.000000	0.000000	-1.000000	-1.000000	2479051.000000	1776581361.996574
508.005000	-12156.975000	18566.685000	66166.200000	48852.180000	33909.255000	-105.030000	-11490.705000	2.027815	0.174754	3.840145	14.118502	7.383773	-1.232464	5.224346	5.385666	-3.204600	2.395820	-1.846460	-0.807676	-0.016174	0.580870	-1.000000	-1.000000	-1.000000	-1.000000	-1.000000	-1.000000	-1.000000	55.000000	0.000000	-1.000000	-1.000000	2479052.000000	1776581362.000440
508.995000	-12151.800000	18576.000000	66182.445000	48865.140000	33908.310000	-107.190000	-11492.325000	2.160176	-1.426895	-1.372900	4.751833	11.211150	15.231925	9.054306	7.071994	-3.204600	2.395820	-1.846460	-0.807676	-0.016174	0.580870	-1.000000	-1.000000	-1.000000	-1.000000	-1.000000	-1.000000	-1.000000	55.000000	0.000000	-1.000000	-1.000000	2479053.000000	1776581362.000455
508.230000	-12143.610000	18593.730000	66212.550000	48880.485000	33895.170000	-114.480000	-11494.800000	1.274738	-2.679709	-6.216006	-5.950401	9.408095	23.381131	9.294248	6.042290	-3.204600	2.395820	-1.846460	-0.807676	-0.016174	0.580870	-1.000000	-1.000000	-1.000000	-1.000000	-1.000000	-1.000000	-1.000000	55.000000	0.000000	-1.000000	-1.000000	2479054.000000	1776581362.004509
495.360000	-12159.495000	18573.165000	66189.285000	48862.530000	33891.930000	-119.970000	-11503.620000	-0.355442	-2.704283	-7.567801	-10.936951	5.565114	20.727963	5.349700	2.306344	-3.204600	2.395820	-1.846460	-0.807676	-0.016174	0.580870	-1.000000	-1.000000	-1.000000	-1.000000	-1.000000	-1.000000	-1.000000	55.000000	0.000000	-1.000000	-1.000000	2479055.000000	1776581362.004537
506.070000	-12154.590000	18571.365000	66179.655000	48858.345000	33902.955000	-110.070000	-11493.135000	-2.437099	-2.297942	-6.080858	-9.856131	1.372878	10.560995	-0.846530	-2.674100	-3.204600	2.395820	-1.846460	-0.807676	-0.016174	0.580870	-1.000000	-1.000000	-1.000000	-1.000000	-1.000000	-1.000000	-1.000000	55.000000	0.000000	-1.000000	-1.000000	2479056.000000	1776581362.008471
515.340000	-12140.100000	18595.440000	66216.870000	48878.685000	33886.755000	-114.390000	-11490.885000	-3.477208	-1.893722	-3.849054	-6.598033	-2.724097	-0.533540	-5.607166	-6.046889	-3.204600	2.395820	-1.846460	-0.807676	-0.016174	0.580870	-1.000000	-1.000000	-1.000000	-1.000000	-1.000000	-1.000000	-1.000000	55.000000	0.000000	-1.000000	-1.000000	2479057.000000	1776581362.008489
510.300000	-12147.840000	18580.050000	66194.685000	48868.155000	33875.685000	-118.170000	-11496.150000	-2.140812	-0.654979	-1.012371	-2.580711	-4.928081	-8.191009	-6.822982	-6.045135	-3.204600	2.395820	-1.846460	-0.807676	-0.016174	0.580870	-1.000000	-1.000000	-1.000000	-1.000000	-1.000000	-1.000000	-1.000000	55.000000	0.000000	-1.000000	-1.000000	2479058.000000	1776581362.012522
510.840000	-12153.195000	18566.595000	66166.290000	48861.405000	33879.510000	-116.505000	-11494.755000	0.447249	0.979613	1.554335	0.625314	-4.698244	-11.492158	-5.201077	-3.668340	-3.204600	2.395820	-1.846460	-0.807676	-0.016174	0.580870	-1.000000	-1.000000	-1.000000	-1.000000	-1.000000	-1.000000	-1.000000	55.000000	0.000000	-1.000000	-1.000000	2479059.000000	1776581362.012557
513.720000	-12151.305000	18571.995000	66170.340000	48857.985000	33882.075000	-111.510000	-11489.400000	2.099821	1.403444	1.862781	0.223439	-3.784633	-10.325731	-2.253076	-0.831822	-3.204600	2.395820	-1.846460	-0.807676	-0.016174	0.580870	-1.000000	-1.000000	-1.000000	-1.000000	-1.000000	-1.000000	-1.000000	55.000000	0.000000	-1.000000	-1.000000	2479060.000000	1776581362.016410
513.945000	-12147.255000	18576.945000	66181.005000	48863.655000	33900.435000	-114.075000	-11492.640000	2.095084	0.570227	0.560143	-2.322800	-3.099118	-4.981576	0.897980	1.443688	-3.204600	2.395820	-1.846460	-0.807676	-0.016174	0.580870	-1.000000	-1.000000	-1.000000	-1.000000	-1.000000	-1.000000	-1.000000	55.000000	0.000000	-1.000000	-1.000000	2479061.000000	1776581362.016423
511.560000	-12146.805000	18581.760000	66193.155000	48868.695000	33923.520000	-107.640000	-11494.620000	0.984147	-0.142478	0.220532	-2.147140	-1.780546	2.999234	3.237704	2.576218	0.885080	1.770160	0.015260	-0.808653	-0.020996	0.579649	-1.000000	-1.000000	-1.000000	-1.000000	-1.000000	-1.000000	-1.000000	55.000000	0.000000	-1.000000	-1.000000	2479062.000000	1776581362.020293
498.735000	-12153.015000	18595.575000	66227.355000	48892.500000	33935.355000	-109.755000	-11506.140000	-0.724626	-0.118706	1.940841	3.020469	1.129480	10.726624	4.097672	2.065863	0.885080	1.770160	0.015260	-0.808653	-0.020996	0.579649	-1.000000	-1.000000	-1.000000	-1.000000	-1.000000	-1.000000	-1.000000	55.000000	0.000000	-1.000000	-1.000000	2479063.000000	1776581362.020307
504.810000	-12148.920000	18606.510000	66238.920000	48889.305000	33918.120000	-119.880000	-11505.600000	-2.587319	0.098364	4.810453	10.925277	5.153661	13.982181	3.194874	0.129288	0.885080	1.770160	0.015260	-0.808653	-0.020996	0.579649	-1.000000	-1.000000	-1.000000	-1.000000	-1.000000	-1.000000	-1.000000	55.000000	0.000000	-1.000000	-1.000000	2479064.000000	1776581362.024495
509.355000	-12161.115000	18559.035000	66167.145000	48862.395000	33930.495000	-103.680000	-11490.930000	-3.353292	-0.048468	5.982379	14.891131	7.246724	9.655678	0.911998	-1.565835	0.885080	1.770160	0.015260	-0.808653	-0.020996	0.579649	-1.000000	-1.000000	-1.000000	-1.000000	-1.000000	-1.000000	-1.000000	55.000000	0.000000	-1.000000	-1.000000	2479065.000000	1776581362.024507
506.070000	-12164.445000	18542.700000	66138.660000	48857.580000	33941.745000	-96.345000	-11488.590000	-1.930779	-0.760591	1.737696	7.394308	3.960143	-0.070346	-0.914314	-0.923568	0.885080	1.770160	0.015260	-0.808653	-0.020996	0.579649	-1.000000	-1.000000	-1.000000	-1.000000	-1.000000	-1.000000	-1.000000	55.000000	0.000000	-1.000000	-1.000000	2479066.000000	1776581362.028367
501.120000	-12157.695000	18558.270000	66157.335000	48865.005000	33924.780000	-103.005000	-11494.755000	0.735926	-1.552224	-6.844029	-9.510843	-3.358719	-9.313036	-0.868469	1.762971	0.885080	1.770160	0.015260	-0.808653	-0.020996	0.579649	-1.000000	-1.000000	-1.000000	-1.000000	-1.000000	-1.000000	-1.000000	55.000000	0.000000	-1.000000	-1.000000	2479067.000000	1776581362.028378
499.455000	-12162.645000	18559.260000	66162.735000	48852.675000	33887.295000	-109.890000	-11495.655000	2.555954	-1.272753	-12.356776	-22.302797	-9.050359	-15.061922	-0.220881	3.700959	0.885080	1.770160	0.015260	-0.808653	-0.020996	0.579649	-1.000000	-1.000000	-1.000000	-1.000000	-1.000000	-1.000000	-1.000000	55.000000	0.000000	-1.000000	-1.000000	2479068.000000	1776581362.032455
494.550000	-12164.760000	18564.255000	66173.715000	48845.385000	33860.610000	-121.815000	-11503.620000	2.533115	0.242704	-9.392070	-20.140327	-9.593088	-18.215672	-1.085147	2.857829	0.885080	1.770160	0.015260	-0.808653	-0.020996	0.579649	-1.000000	-1.000000	-1.000000	-1.000000	-1.000000	-1.000000	-1.000000	55.000000	0.000000	-1.000000	-1.000000	2479069.000000	1776581362.032465
488.070000	-12168.045000	18563.535000	66172.005000	48846.330000	33883.695000	-123.975000	-11511.945000	1.112869	1.774426	-0.167655	-5.177002	-5.831289	-18.119999	-3.536351	-0.373158	0.885080	1.770160	0.015260	-0.808653	-0.020996	0.579649	-1.000000	-1.000000	-1.000000	-1.000000	-1.000000	-1.000000	-1.000000	55.000000	0.000000	-1.000000	-1.000000	2479070.000000	1776581362.036516
491.625000	-12165.795000	18559.890000	66165.120000	48864.510000	33939.405000	-109.755000	-11508.075000	-0.564360	2.357572	8.841725	11.628881	0.197133	-10.230425	-5.190563	-3.914171	0.885080	1.770160	0.015260	-0.808653	-0.020996	0.579649	-1.000000	-1.000000	-1.000000	-1.000000	-1.000000	-1.000000	-1.000000	55.000000	0.000000	-1.000000	-1.000000	2479071.000000	1776581362.036530
490.995000	-12166.335000	18557.685000	66167.460000	48863.880000	33924.195000	-120.555000	-11514.555000	-1.218021	2.093862	12.457178	20.277397	6.795441	6.822260	-3.651022	-5.392573	1.281840	1.602300	1.999060	-0.809629	-0.022339	0.579161	-1.000000	-1.000000	-1.000000	-1.000000	-1.000000	-1.000000	-1.000000	55.000000	0.000000	-1.000000	-1.000000	2479072.000000	1776581362.043537
495.810000	-12161.025000	18564.885000	66174.210000	48860.460000	33911.235000	-117.675000	-11509.695000	-0.278160	1.592673	9.885802	18.194984	11.370665	23.968366	0.414069	-3.868181	1.281840	1.602300	1.999060	-0.809629	-0.022339	0.579161	-1.000000	-1.000000	-1.000000	-1.000000	-1.000000	-1.000000	-1.000000	55.000000	0.000000	-1.000000	-1.000000	2479073.000000	1776581362.043554
501.075000	-12156.165000	18570.960000	66177.270000	48870.810000	33928.380000	-106.110000	-11501.955000	1.694811	1.349483	4.229894	9.563812	11.378040	29.234747	4.401047	-0.145181	1.281840	1.602300	1.999060	-0.809629	-0.022339	0.579161	-1.000000	-1.000000	-1.000000	-1.000000	-1.000000	-1.000000	-1.000000	55.000000	0.000000	-1.000000	-1.000000	2479074.000000	1776581362.044638
495.810000	-12161.295000	18564.075000	66165.885000	48858.975000	33920.280000	-112.455000	-11504.565000	3.389062	1.269718	-0.961227	-0.103759	6.847156	20.443227	6.659298	4.060422	1.281840	1.602300	1.999060	-0.809629	-0.022339	0.579161	-1.000000	-1.000000	-1.000000	-1.000000	-1.000000	-1.000000	-1.000000	55.000000	0.000000	-1.000000	-1.000000	2479075.000000	1776581362.044650
498.645000	-12157.380000	18568.485000	66167.820000	48854.475000	33909.345000	-114.615000	-11502.225000	3.428285	0.675502	-4.285746	-7.573804	-0.136853	4.351250	6.344453	6.603455	1.281840	1.602300	1.999060	-0.809629	-0.022339	0.579161	-1.000000	-1.000000	-1.000000	-1.000000	-1.000000	-1.000000	-1.000000	55.000000	0.000000	-1.000000	-1.000000	2479076.000000	1776581362.048678
496.755000	-12158.865000	18574.965000	66181.320000	48863.475000	33908.445000	-117.315000	-11508.615000	1.528543	-0.667980	-5.623476	-11.121286	-6.701647	-11.043030	3.296618	6.012452	1.281840	1.602300	1.999060	-0.809629	-0.022339	0.579161	-1.000000	-1.000000	-1.000000	-1.000000	-1.000000	-1.000000	-1.000000	55.000000	0.000000	-1.000000	-1.000000	2479077.000000	1776581362.048699
500.670000	-12159.180000	18571.905000	66187.260000	48864.285000	33908.625000	-113.130000	-11502.855000	-1.151641	-2.160008	-5.031020	-9.697914	-9.744714	-19.797338	-0.978870	2.680882	1.281840	1.602300	1.999060	-0.809629	-0.022339	0.579161	-1.000000	-1.000000	-1.000000	-1.000000	-1.000000	-1.000000	-1.000000	55.000000	0.000000	-1.000000	-1.000000	2479078.000000	1776581362.052692
493.785000	-12166.830000	18553.320000	66182.220000	48863.880000	33906.690000	-114.615000	-11505.555000	-3.199715	-3.225925	-3.651969	-4.608441	-8.135068	-19.489857	-4.119419	-1.374598	1.281840	1.602300	1.999060	-0.809629	-0.022339	0.579161	-1.000000	-1.000000	-1.000000	-1.000000	-1.000000	-1.000000	-1.000000	55.000000	0.000000	-1.000000	-1.000000	2479079.000000	1776581362.052718
484.785000	-12166.830000	18561.195000	66191.085000	48866.355000	33904.710000	-108.810000	-11503.440000	-4.211668	-3.687375	-3.077882	0.623374	-3.707463	-12.082613	-4.741809	-4.091576	1.281840	1.602300	1.999060	-0.809629	-0.022339	0.579161	-1.000000	-1.000000	-1.000000	-1.000000	-1.000000	-1.000000	-1.000000	55.000000	0.000000	-1.000000	-1.000000	2479080.000000	1776581362.056511
491.040000	-12152.430000	18600.975000	66224.070000	48870.720000	33888.060000	-123.480000	-11508.255000	-4.378032	-3.041685	-2.213975	3.985231	0.843106	-2.466652	-3.348535	-4.740564	1.281840	1.602300	1.999060	-0.809629	-0.022339	0.579161	-1.000000	-1.000000	-1.000000	-1.000000	-1.000000	-1.000000	-1.000000	55.000000	0.000000	-1.000000	-1.000000	2479081.000000	1776581362.056522
512.505000	-12126.375000	18633.555000	66254.895000	48890.250000	33898.320000	-122.040000	-11497.275000	-2.927060	-0.149650	2.231224	6.615193	4.139332	4.796130	-1.713368	-3.660390	-1.464960	2.853620	0.137340	-0.809751	-0.021912	0.578124	-1.000000	-1.000000	-1.000000	-1.000000	-1.000000	-1.000000	-1.000000	55.000000	0.000000	-1.000000	-1.000000	2479082.000000	1776581362.060428
524.520000	-12142.215000	18573.075000	66168.945000	48860.955000	33912.270000	-100.800000	-11480.130000	1.181954	4.568453	8.757460	7.549106	5.559745	8.584262	-0.477260	-1.079985	-1.464960	2.853620	0.137340	-0.809751	-0.021912	0.578124	-1.000000	-1.000000	-1.000000	-1.000000	-1.000000	-1.000000	-1.000000	55.000000	0.000000	-1.000000	-1.000000	2479083.000000	1776581362.060443
531.810000	-12141.405000	18571.500000	66163.005000	48851.730000	33884.595000	-96.435000	-11468.655000	6.586241	7.457873	9.407744	1.482298	3.639964	9.817298	1.579964	2.756989	-1.464960	2.853620	0.137340	-0.809751	-0.021912	0.578124	-1.000000	-1.000000	-1.000000	-1.000000	-1.000000	-1.000000	-1.000000	55.000000	0.000000	-1.000000	-1.000000	2479084.000000	1776581362.064492
532.485000	-12130.740000	18594.180000	66192.840000	48851.145000	33850.260000	-110.610000	-11474.370000	9.598740	5.594211	1.258100	-10.632119	-1.640772	7.426137	4.176683	6.077642	-1.464960	2.853620	0.137340	-0.809751	-0.021912	0.578124	-1.000000	-1.000000	-1.000000	-1.000000	-1.000000	-1.000000	-1.000000	55.000000	0.000000	-1.000000	-1.000000	2479085.000000	1776581362.064506
530.685000	-12126.240000	18589.905000	66187.665000	48848.400000	33858.405000	-116.595000	-11479.140000	7.484217	0.700575	-8.102685	-17.911225	-6.642032	0.669591	4.455056	5.962015	-1.464960	2.853620	0.137340	-0.809751	-0.021912	0.578124	-1.000000	-1.000000	-1.000000	-1.000000	-1.000000	-1.000000	-1.000000	55.000000	0.000000	-1.000000	-1.000000	2479086.000000	1776581362.068460
523.800000	-12136.815000	18574.695000	66185.235000	48877.830000	33942.465000	-100.665000	-11483.730000	0.768501	-3.802397	-11.406493	-13.428413	-7.000323	-4.677583	1.397760	1.382116	-1.464960	2.853620	0.137340	-0.809751	-0.021912	0.578124	-1.000000	-1.000000	-1.000000	-1.000000	-1.000000	-1.000000	-1.000000	55.000000	0.000000	-1.000000	-1.000000	2479087.000000	1776581362.068468
512.235000	-12152.295000	18568.935000	66197.835000	48894.435000	33961.680000	-90.945000	-11489.490000	-7.416004	-6.802884	-9.000257	-1.215025	-1.146624	-0.319605	-1.926607	-5.256128	-1.464960	2.853620	0.137340	-0.809751	-0.021912	0.578124	-1.000000	-1.000000	-1.000000	-1.000000	-1.000000	-1.000000	-1.000000	55.000000	0.000000	-1.000000	-1.000000	2479088.000000	1776581362.072615
506.745000	-12154.095000	18574.245000	66185.460000	48886.290000	33953.445000	-92.565000	-11493.000000	-13.375752	-8.608225	-4.266085	10.625388	7.700706	11.654166	-2.487440	-10.102411	-1.464960	2.853620	0.137340	-0.809751	-0.021912	0.578124	-1.000000	-1.000000	-1.000000	-1.000000	-1.000000	-1.000000	-1.000000	55.000000	0.000000	-1.000000	-1.000000	2479089.000000	1776581362.072635
509.670000	-12139.965000	18590.670000	66181.635000	48878.100000	33948.855000	-98.370000	-11494.125000	-14.323200	-8.217256	1.210917	15.975925	12.663104	18.437058	-1.049254	-10.584789	-1.464960	2.853620	0.137340	-0.809751	-0.021912	0.578124	-1.000000	-1.000000	-1.000000	-1.000000	-1.000000	-1.000000	-1.000000	55.000000	0.000000	-1.000000	-1.000000	2479090.000000	1776581362.076435
512.055000	-12142.980000	18578.295000	66169.305000	48868.785000	33935.670000	-97.245000	-11487.870000	-9.412799	-4.109843	6.667027	13.046916	9.222765	11.287127	-0.244213	-6.468648	-1.464960	2.853620	0.137340	-0.809751	-0.021912	0.578124	-1.000000	-1.000000	-1.000000	-1.000000	-1.000000	-1.000000	-1.000000	55.000000	0.000000	-1.000000	-1.000000	2479091.000000	1776581362.076445
510.390000	-12144.780000	18581.535000	66181.320000	48878.460000	33927.255000	-102.195000	-11491.155000	-0.655928	2.476262	9.914139	4.997613	-0.281215	-6.251506	-1.068921	0.349665	-2.380560	4.684820	0.793520	-0.810362	-0.018799	0.576170	-1.000000	-1.000000	-1.000000	-1.000000	-1.000000	-1.000000	-1.000000	55.000000	0.000000	-1.000000	-1.000000	2479092.000000	1776581362.080619
514.755000	-12140.865000	18585.270000	66186.045000	48878.055000	33925.410000	-96.570000	-11483.370000	7.896829	7.902981	9.144839	-2.372280	-9.026389	-23.258475	-2.433022	6.789950	-2.380560	4.684820	0.793520	-0.810362	-0.018799	0.576170	-1.000000	-1.000000	-1.000000	-1.000000	-1.000000	-1.000000	-1.000000	55.000000	0.000000	-1.000000	-1.000000	2479093.000000	1776581362.080632
514.215000	-12140.460000	18583.695000	66183.120000	48875.895000	33927.435000	-92.520000	-11478.870000	12.735943	9.691038	5.245899	-5.180780	-11.932513	-29.958266	-2.649249	10.392094	-2.380560	4.684820	0.793520	-0.810362	-0.018799	0.576170	-1.000000	-1.000000	-1.000000	-1.000000	-1.000000	-1.000000	-1.000000	55.000000	0.000000	-1.000000	-1.000000	2479094.000000	1776581362.084525
506.970000	-12142.395000	18585.225000	66189.015000	48873.555000	33924.735000	-97.965000	-11484.585000	12.452127	7.800762	0.469873	-3.913556	-9.000918	-23.484773	-1.126153	10.246766	-2.380560	4.684820	0.793520	-0.810362	-0.018799	0.576170	-1.000000	-1.000000	-1.000000	-1.000000	-1.000000	-1.000000	-1.000000	55.000000	0.000000	-1.000000	-1.000000	2479095.000000	1776581362.084540
509.175000	-12148.425000	18580.095000	66182.085000	48862.935000	33920.010000	-99.630000	-11485.485000	7.792315	3.507698	-3.434556	-1.388424	-3.564941	-8.493310	0.922021	6.572912	-2.380560	4.684820	0.793520	-0.810362	-0.018799	0.576170	-1.000000	-1.000000	-1.000000	-1.000000	-1.000000	-1.000000	-1.000000	55.000000	0.000000	-1.000000	-1.000000	2479096.000000	1776581362.088682
508.725000	-12155.850000	18572.625000	66177.405000	48859.650000	33905.655000	-110.790000	-11495.115000	1.378360	-1.545983	-5.766233	-0.056203	0.943341	6.765861	1.783226	0.696515	-2.380560	4.684820	0.793520	-0.810362	-0.018799	0.576170	-1.000000	-1.000000	-1.000000	-1.000000	-1.000000	-1.000000	-1.000000	55.000000	0.000000	-1.000000	-1.000000	2479097.000000	1776581362.088705
512.685000	-12147.840000	18577.665000	66181.905000	48865.995000	33900.210000	-115.110000	-11497.140000	-3.653100	-5.466408	-6.425811	-0.614968	3.277948	15.689947	0.856604	-5.115083	-2.380560	4.684820	0.793520	-0.810362	-0.018799	0.576170	-1.000000	-1.000000	-1.000000	-1.000000	-1.000000	-1.000000	-1.000000	55.000000	0.000000	-1.000000	-1.000000	2479098.000000	1776581362.092543
514.530000	-12144.105000	18580.635000	66181.410000	48866.535000	33912.225000	-110.385000	-11492.370000	-5.538134	-6.340638	-5.096435	-1.764813	4.400459	16.928664	-0.780718	-8.411806	-2.380560	4.684820	0.793520	-0.810362	-0.018799	0.576170	-1.000000	-1.000000	-1.000000	-1.000000	-1.000000	-1.000000	-1.000000	55.000000	0.000000	-1.000000	-1.000000	2479099.000000	1776581362.092554
524.385000	-12133.980000	18592.560000	66193.245000	48883.410000	33938.550000	-95.400000	-11479.860000	-4.387007	-3.587867	-1.648574	-1.757973	5.514508	14.196346	-0.928300	-7.440917	-2.380560	4.684820	0.793520	-0.810362	-0.018799	0.576170	-1.000000	-1.000000	-1.000000	-1.000000	-1.000000	-1.000000	-1.000000	55.000000	0.000000	-1.000000	-1.000000	2479100.000000	1776581362.096569
519.435000	-12134.115000	18600.930000	66204.810000	48882.600000	33927.255000	-101.115000	-11483.145000	-1.647944	1.096660	2.986697	0.138411	6.709710	11.441996	1.454323	-2.600198	-2.380560	4.684820	0.793520	-0.810362	-0.018799	0.576170	-1.000000	-1.000000	-1.000000	-1.000000	-1.000000	-1.000000	-1.000000	55.000000	0.000000	-1.000000	-1.000000	2479101.000000	1776581362.096578
510.840000	-12130.965000	18622.170000	66236.220000	48884.535000	33906.600000	-114.615000	-11492.415000	0.418194	4.760011	7.134017	3.623921	6.770788	8.062815	4.219915	2.834495	-5.539380	4.852680	1.281840	-0.812132	-0.018066	0.576170	-1.000000	-1.000000	-1.000000	-1.000000	-1.000000	-1.000000	-1.000000	55.000000	0.000000	-1.000000	-1.000000	2479102.000000	1776581362.100568
514.080000	-12134.385000	18607.410000	66215.610000	48879.855000	33902.415000	-110.160000	-11488.905000	0.233326	5.247211	8.864622	6.928806	4.277732	1.358269	4.212216	5.179985	-5.539380	4.852680	1.281840	-0.812132	-0.018066	0.576170	-1.000000	-1.000000	-1.000000	-1.000000	-1.000000	-1.000000	-1.000000	55.000000	0.000000	-1.000000	-1.000000	2479103.000000	1776581362.100580
523.260000	-12145.230000	18565.560000	66164.310000	48864.870000	33908.130000	-86.265000	-11467.845000	-1.254149	2.321977	5.573334	5.669604	-0.835211	-7.299684	1.772527	4.205203	-5.539380	4.852680	1.281840	-0.812132	-0.018066	0.576170	-1.000000	-1.000000	-1.000000	-1.000000	-1.000000	-1.000000	-1.000000	55.000000	0.000000	-1.000000	-1.000000	2479104.000000	1776581362.104545
517.455000	-12151.665000	18559.980000	66162.510000	48856.770000	33902.685000	-91.170000	-11474.820000	-1.835042	-2.601430	-3.732814	-3.200535	-7.018761	-12.891121	0.094547	2.548395	-5.539380	4.852680	1.281840	-0.812132	-0.018066	0.576170	-1.000000	-1.000000	-1.000000	-1.000000	-1.000000	-1.000000	-1.000000	55.000000	0.000000	-1.000000	-1.000000	2479105.000000	1776581362.104559
514.755000	-12146.580000	18576.945000	66185.010000	48864.510000	33908.220000	-101.295000	-11484.315000	-1.053788	-6.847626	-13.875652	-14.238855	-11.324318	-12.339222	-0.026681	1.233141	-5.539380	4.852680	1.281840	-0.812132	-0.018066	0.576170	-1.000000	-1.000000	-1.000000	-1.000000	-1.000000	-1.000000	-1.000000	55.000000	0.000000	-1.000000	-1.000000	2479106.000000	1776581362.108508
526.770000	-12129.705000	18596.655000	66205.485000	48872.970000	33898.860000	-107.775000	-11480.310000	0.114140	-7.322917	-16.066976	-16.806418	-10.578116	-6.873036	-0.870854	-0.806556	-5.539380	4.852680	1.281840	-0.812132	-0.018066	0.576170	-1.000000	-1.000000	-1.000000	-1.000000	-1.000000	-1.000000	-1.000000	55.000000	0.000000	-1.000000	-1.000000	2479107.000000	1776581362.108516
527.760000	-12124.215000	18606.735000	66216.330000	48860.010000	33873.165000	-124.695000	-11487.780000	1.337021	-2.837331	-7.066020	-6.948695	-4.574720	-0.672023	-3.711290	-3.459399	-5.539380	4.852680	1.281840	-0.812132	-0.018066	0.576170	-1.000000	-1.000000	-1.000000	-1.000000	-1.000000	-1.000000	-1.000000	55.000000	0.000000	-1.000000	-1.000000	2479108.000000	1776581362.112607
527.130000	-12130.110000	18595.035000	66200.040000	48853.125000	33897.960000	-111.960000	-11481.750000	2.426814	3.891688	6.934731	8.164462	2.650625	2.781014	-6.875797	-5.128193	-5.539380	4.852680	1.281840	-0.812132	-0.018066	0.576170	-1.000000	-1.000000	-1.000000	-1.000000	-1.000000	-1.000000	-1.000000	55.000000	0.000000	-1.000000	-1.000000	2479109.000000	1776581362.112627
525.240000	-12136.095000	18588.780000	66194.595000	48866.220000	33918.480000	-101.160000	-11477.160000	2.500450	7.891014	15.875467	17.281157	6.916630	4.531625	-6.967050	-4.468961	-5.539380	4.852680	1.281840	-0.812132	-0.018066	0.576170	-1.000000	-1.000000	-1.000000	-1.000000	-1.000000	-1.000000	-1.000000	55.000000	0.000000	-1.000000	-1.000000	2479110.000000	1776581362.116822
523.395000	-12137.535000	18587.520000	66192.480000	48856.770000	33908.220000	-100.845000	-11474.640000	1.065487	6.437867	14.522479	15.044980	7.609012	7.112716	-2.322098	-1.444062	-5.539380	4.852680	1.281840	-0.812132	-0.018066	0.576170	-1.000000	-1.000000	-1.000000	-1.000000	-1.000000	-1.000000	-1.000000	55.000000	0.000000	-1.000000	-1.000000	2479111.000000	1776581362.116843
519.930000	-12136.680000	18586.845000	66187.305000	48845.385000	33897.600000	-102.510000	-11476.980000	-1.237918	1.249861	5.685053	5.012991	5.741592	8.822341	4.373850	2.274645	-4.776380	5.066320	0.259420	-0.812559	-0.019653	0.574095	-1.000000	-1.000000	-1.000000	-1.000000	-1.000000	-1.000000	-1.000000	55.000000	0.000000	-1.000000	-1.000000	2479112.000000	1776581362.120655
522.315000	-12125.070000	18597.060000	66191.220000	48863.520000	33895.260000	-103.500000	-11480.265000	-3.123740	-3.508126	-3.742934	-5.363767	2.387546	6.221110	8.527501	4.365136	-4.776380	5.066320	0.259420	-0.812559	-0.019653	0.574095	-1.000000	-1.000000	-1.000000	-1.000000	-1.000000	-1.000000	-1.000000	55.000000	0.000000	-1.000000	-1.000000	2479113.000000	1776581362.120667
517.680000	-12128.850000	18603.495000	66210.705000	48894.210000	33907.095000	-101.925000	-11486.655000	-3.538903	-4.797835	-8.268991	-10.158783	0.263997	0.049265	7.932534	3.634132	-4.776380	5.066320	0.259420	-0.812559	-0.019653	0.574095	-1.000000	-1.000000	-1.000000	-1.000000	-1.000000	-1.000000	-1.000000	55.000000	0.000000	-1.000000	-1.000000	2479114.000000	1776581362.124635
495.135000	-12155.265000	18576.180000	66192.210000	48885.885000	33946.965000	-103.950000	-11504.475000	-2.816158	-3.387162	-7.344041	-7.947109	1.557966	-4.589877	3.804855	0.492381	-4.776380	5.066320	0.259420	-0.812559	-0.019653	0.574095	-1.000000	-1.000000	-1.000000	-1.000000	-1.000000	-1.000000	-1.000000	55.000000	0.000000	-1.000000	-1.000000	2479115.000000	1776581362.124652
505.260000	-12151.935000	18563.220000	66178.845000	48884.445000	33962.805000	-92.835000	-11489.715000	-2.142535	-2.410681	-4.966034	-2.722302	3.843910	-3.315858	-0.921158	-3.222441	-4.776380	5.066320	0.259420	-0.812559	-0.019653	0.574095	-1.000000	-1.000000	-1.000000	-1.000000	-1.000000	-1.000000	-1.000000	55.000000	0.000000	-1.000000	-1.000000	2479116.000000	1776581362.128508
511.155000	-12143.745000	18574.920000	66184.785000	48874.005000	33938.235000	-97.380000	-11486.790000	-1.111567	-2.498433	-4.064818	0.473073	2.699664	1.835801	-3.722994	-4.553059	-4.776380	5.066320	0.259420	-0.812559	-0.019653	0.574095	-1.000000	-1.000000	-1.000000	-1.000000	-1.000000	-1.000000	-1.000000	55.000000	0.000000	-1.000000	-1.000000	2479117.000000	1776581362.128525
512.460000	-12134.565000	18609.480000	66222.090000	48904.920000	33943.725000	-98.370000	-11486.925000	1.578302	-1.201302	-2.430965	1.594716	-2.118914	3.844518	-4.130209	-1.994474	-4.776380	5.066320	0.259420	-0.812559	-0.019653	0.574095	-1.000000	-1.000000	-1.000000	-1.000000	-1.000000	-1.000000	-1.000000	55.000000	0.000000	-1.000000	-1.000000	2479118.000000	1776581362.132532
524.430000	-12129.615000	18601.875000	66199.995000	48919.320000	33973.155000	-76.860000	-11468.655000	5.335881	2.614394	2.878568	3.559550	-5.990773	0.020419	-2.957511	2.758333	-4.776380	5.066320	0.259420	-0.812559	-0.019653	0.574095	-1.000000	-1.000000	-1.000000	-1.000000	-1.000000	-1.000000	-1.000000	55.000000	0.000000	-1.000000	-1.000000	2479119.000000	1776581362.132539
522.900000	-12134.880000	18584.145000	66177.045000	48886.830000	33951.960000	-83.565000	-11472.480000	8.041397	6.722795	9.010219	5.218674	-5.984439	-5.384210	-0.714970	6.833119	-4.776380	5.066320	0.259420	-0.812559	-0.019653	0.574095	-1.000000	-1.000000	-1.000000	-1.000000	-1.000000	-1.000000	-1.000000	55.000000	0.000000	-1.000000	-1.000000	2479120.000000	1776581362.136528
526.815000	-12127.905000	18594.540000	66191.085000	48883.230000	33936.930000	-89.145000	-11472.705000	7.865545	7.944767	10.109668	3.072401	-4.920526	-8.945752	1.321417	7.834334	-4.776380	5.066320	0.259420	-0.812559	-0.019653	0.574095	-1.000000	-1.000000	-1.000000	-1.000000	-1.000000	-1.000000	-1.000000	55.000000	0.000000	-1.000000	-1.000000	2479121.000000	1776581362.136540
530.820000	-12121.875000	18608.985000	66212.280000	48892.230000	33933.960000	-90.990000	-11470.590000	4.517543	5.511507	5.515926	-1.240780	-5.481527	-10.755299	1.233956	4.821945	-2.609460	4.852680	1.251320	-0.811338	-0.020630	0.573973	-1.000000	-1.000000	-1.000000	-1.000000	-1.000000	-1.000000	-1.000000	55.000000	0.000000	-1.000000	-1.000000	2479122.000000	1776581362.140502
529.155000	-12128.130000	18592.155000	66185.280000	48877.560000	33925.905000	-88.290000	-11470.320000	-0.475696	1.170021	-0.503660	-3.227700	-5.914674	-10.440108	-0.878192	-0.598098	-2.609460	4.852680	1.251320	-0.811338	-0.020630	0.573973	-1.000000	-1.000000	-1.000000	-1.000000	-1.000000	-1.000000	-1.000000	55.000000	0.000000	-1.000000	-1.000000	2479123.000000	1776581362.140509
530.370000	-12123.720000	18599.445000	66195.360000	48891.420000	33943.680000	-77.085000	-11466.720000	-5.040747	-3.134489	-4.946240	-2.570271	-3.969049	-6.587350	-2.668373	-5.439046	-2.609460	4.852680	1.251320	-0.811338	-0.020630	0.573973	-1.000000	-1.000000	-1.000000	-1.000000	-1.000000	-1.000000	-1.000000	55.000000	0.000000	-1.000000	-1.000000	2479124.000000	1776581362.146002
512.415000	-12133.755000	18603.675000	66203.910000	48894.660000	33945.435000	-83.790000	-11475.270000	-7.986957	-6.184656	-6.938353	-1.256779	0.515131	0.993373	-2.255642	-7.684600	-2.609460	4.852680	1.251320	-0.811338	-0.020630	0.573973	-1.000000	-1.000000	-1.000000	-1.000000	-1.000000	-1.000000	-1.000000	55.000000	0.000000	-1.000000	-1.000000	2479125.000000	1776581362.146013
495.495000	-12150.810000	18596.430000	66203.685000	48895.155000	33946.245000	-83.565000	-11479.140000	-9.488838	-7.712371	-6.232110	0.326364	5.970200	9.665922	-0.287255	-7.347628	-2.609460	4.852680	1.251320	-0.811338	-0.020630	0.573973	-1.000000	-1.000000	-1.000000	-1.000000	-1.000000	-1.000000	-1.000000	55.000000	0.000000	-1.000000	-1.000000	2479126.000000	1776581362.148981
509.580000	-12155.940000	18570.555000	66179.835000	48872.160000	33925.455000	-90.540000	-11472.930000	-9.493395	-8.118156	-4.303896	1.441240	9.191673	14.617985	1.176085	-5.332053	-2.609460	4.852680	1.251320	-0.811338	-0.020630	0.573973	-1.000000	-1.000000	-1.000000	-1.000000	-1.000000	-1.000000	-1.000000	55.000000	0.000000	-1.000000	-1.000000	2479127.000000	1776581362.148990
525.420000	-12137.220000	18578.610000	66193.830000	48877.470000	33923.340000	-88.785000	-11463.525000	-6.131834	-6.661443	-3.278647	0.603122	7.607730	12.545156	1.103921	-1.919448	-2.609460	4.852680	1.251320	-0.811338	-0.020630	0.573973	-1.000000	-1.000000	-1.000000	-1.000000	-1.000000	-1.000000	-1.000000	55.000000	0.000000	-1.000000	-1.000000	2479128.000000	1776581362.152668
530.460000	-12128.715000	18592.875000	66203.235000	48884.805000	33929.505000	-89.145000	-11465.865000	1.503580	-1.685751	-2.397758	-1.123574	2.676696	5.167390	0.176707	2.450916	-2.609460	4.852680	1.251320	-0.811338	-0.020630	0.573973	-1.000000	-1.000000	-1.000000	-1.000000	-1.000000	-1.000000	-1.000000	55.000000	0.000000	-1.000000	-1.000000	2479129.000000	1776581362.152678
522.990000	-12128.220000	18601.065000	66192.480000	48871.485000	33918.030000	-96.750000	-11475.630000	9.934594	5.916357	0.912403	-1.252322	-1.598597	-2.290918	-0.483563	5.783765	-2.609460	4.852680	1.251320	-0.811338	-0.020630	0.573973	-1.000000	-1.000000	-1.000000	-1.000000	-1.000000	-1.000000	-1.000000	55.000000	0.000000	-1.000000	-1.000000	2479130.000000	1776581362.156618
522.630000	-12121.920000	18601.110000	66191.670000	48870.495000	33912.135000	-97.155000	-11473.785000	13.662129	11.960119	6.327619	0.036621	-3.369454	-6.307948	-0.589666	5.916376	-2.609460	4.852680	1.251320	-0.811338	-0.020630	0.573973	-1.000000	-1.000000	-1.000000	-1.000000	-1.000000	-1.000000	-1.000000	55.000000	0.000000	-1.000000	-1.000000	2479131.000000	1776581362.156633
531.270000	-12118.455000	18600.885000	66196.710000	48871.620000	33910.560000	-97.515000	-11471.085000	10.676434	12.888345	10.161103	0.972626	-3.209593	-6.703718	-0.287039	3.189266	-1.083460	5.020540	0.686700	-0.812498	-0.023132	0.573729	-1.000000	-1.000000	-1.000000	-1.000000	-1.000000	-1.000000	-1.000000	55.000000	0.000000	-1.000000	-1.000000	2479132.000000	1776581362.160626
528.930000	-12124.305000	18598.770000	66198.510000	48868.875000	33910.830000	-99.765000	-11472.795000	3.816436	8.425776	9.333176	1.200036	-1.833339	-4.504743	0.414302	0.027610	-1.083460	5.020540	0.686700	-0.812498	-0.023132	0.573729	-1.000000	-1.000000	-1.000000	-1.000000	-1.000000	-1.000000	-1.000000	55.000000	0.000000	-1.000000	-1.000000	2479133.000000	1776581362.160633
531.630000	-12116.970000	18609.075000	66213.585000	48879.045000	33904.395000	-98.730000	-11470.230000	-2.812835	0.927076	4.291774	1.485985	0.230947	-1.017336	1.308666	-1.717103	-1.083460	5.020540	0.686700	-0.812498	-0.023132	0.573729	-1.000000	-1.000000	-1.000000	-1.000000	-1.000000	-1.000000	-1.000000	55.000000	0.000000	-1.000000	-1.000000	2479134.000000	1776581362.164879
531.450000	-12114.045000	18617.130000	66227.985000	48877.560000	33867.045000	-107.505000	-11470.815000	-6.780963	-5.962546	-1.552015	2.524976	2.396341	1.462477	1.858921	-1.781840	-1.083460	5.020540	0.686700	-0.812498	-0.023132	0.573729	-1.000000	-1.000000	-1.000000	-1.000000	-1.000000	-1.000000	-1.000000	55.000000	0.000000	-1.000000	-1.000000	2479135.000000	1776581362.164887
536.580000	-12110.130000	18618.030000	66223.080000	48867.075000	33860.205000	-101.565000	-11462.580000	-7.486005	-9.257139	-5.017804	3.865269	3.572327	0.653491	1.642425	-0.745173	-1.083460	5.020540	0.686700	-0.812498	-0.023132	0.573729	-1.000000	-1.000000	-1.000000	-1.000000	-1.000000	-1.000000	-1.000000	55.000000	0.000000	-1.000000	-1.000000	2479136.000000	1776581362.168789
531.810000	-12116.880000	18607.860000	66207.510000	48857.400000	33879.825000	-99.180000	-11464.020000	-5.653031	-8.567347	-5.813436	3.278349	2.350944	-1.974947	1.048019	0.658728	-1.083460	5.020540	0.686700	-0.812498	-0.023132	0.573729	-1.000000	-1.000000	-1.000000	-1.000000	-1.000000	-1.000000	-1.000000	55.000000	0.000000	-1.000000	-1.000000	2479137.000000	1776581362.168801
527.445000	-12124.980000	18601.605000	66204.405000	48882.060000	33946.065000	-85.680000	-11464.290000	-2.953141	-5.905678	-5.768329	-0.929756	-0.655588	-0.527221	1.058599	1.555831	-1.083460	5.020540	0.686700	-0.812498	-0.023132	0.573729	-1.000000	-1.000000	-1.000000	-1.000000	-1.000000	-1.000000	-1.000000	55.000000	0.000000	-1.000000	-1.000000	2479138.000000	1776581362.176200
518.850000	-12134.430000	18591.570000	66188.835000	48883.230000	33972.480000	-85.230000	-11472.615000	-1.074553	-3.593583	-6.088395	-7.127341	-2.295393	8.801605	1.990506	1.090539	-1.083460	5.020540	0.686700	-0.812498	-0.023132	0.573729	-1.000000	-1.000000	-1.000000	-1.000000	-1.000000	-1.000000	-1.000000	55.000000	0.000000	-1.000000	-1.000000	2479139.000000	1776581362.176218
513.675000	-12136.140000	18592.695000	66194.910000	48878.460000	33948.495000	-95.490000	-11481.840000	-0.602327	-2.326439	-6.127556	-11.399888	-1.050233	20.157489	2.566853	-0.950839	-1.083460	5.020540	0.686700	-0.812498	-0.023132	0.573729	-1.000000	-1.000000	-1.000000	-1.000000	-1.000000	-1.000000	-1.000000	55.000000	0.000000	-1.000000	-1.000000	2479140.000000	1776581362.176684
507.240000	-12143.610000	18581.670000	66186.585000	48873.645000	33931.530000	-102.240000	-11486.070000	-0.853955	-1.215488	-4.579843	-10.698738	0.794873	21.237542	0.890340	-3.682900	-1.083460	5.020540	0.686700	-0.812498	-0.023132	0.573729	-1.000000	-1.000000	-1.000000	-1.000000	-1.000000	-1.000000	-1.000000	55.000000	0.000000	-1.000000	-1.000000	2479141.000000	1776581362.176693
508.410000	-12144.780000	18579.465000	66174.525000	48870.270000	33940.170000	-93.375000	-11478.105000	-0.642058	0.610530	-1.293881	-5.310466	0.652114	7.119182	-2.810406	-5.141098	-0.167860	4.410140	0.030520	-0.812742	-0.020996	0.572020	-1.000000	-1.000000	-1.000000	-1.000000	-1.000000	-1.000000	-1.000000	55.000000	0.000000	-1.000000	-1.000000	2479142.000000	1776581362.180679
513.810000	-12139.020000	18583.830000	66173.265000	48865.680000	33935.850000	-97.065000	-11477.205000	0.920224	3.210232	2.743374	1.490840	-1.460794	-13.533459	-5.737038	-3.553895	-0.167860	4.410140	0.030520	-0.812742	-0.020996	0.572020	-1.000000	-1.000000	-1.000000	-1.000000	-1.000000	-1.000000	-1.000000	55.000000	0.000000	-1.000000	-1.000000	2479143.000000	1776581362.180689
516.510000	-12135.105000	18588.420000	66186.270000	48880.935000	33947.685000	-93.825000	-11478.195000	3.756787	6.113494	6.578434	6.968714	-3.409100	-27.558463	-5.686559	0.623376	-0.167860	4.410140	0.030520	-0.812742	-0.020996	0.572020	-1.000000	-1.000000	-1.000000	-1.000000	-1.000000	-1.000000	-1.000000	55.000000	0.000000	-1.000000	-1.000000	2479144.000000	1776581362.184538
513.360000	-12137.850000	18589.230000	66184.785000	48877.875000	33936.435000	-95.355000	-11481.165000	6.418855	8.195534	9.256858	10.507156	-2.978636	-28.228596	-3.011759	4.709221	-0.167860	4.410140	0.030520	-0.812742	-0.020996	0.572020	-1.000000	-1.000000	-1.000000	-1.000000	-1.000000	-1.000000	-1.000000	55.000000	0.000000	-1.000000	-1.000000	2479145.000000	1776581362.184549
512.325000	-12141.135000	18588.915000	66187.395000	48872.205000	33926.625000	-99.945000	-11483.055000	6.921439	7.891076	9.563112	11.707913	-0.380009	-18.140524	0.343247	6.197088	-0.167860	4.410140	0.030520	-0.812742	-0.020996	0.572020	-1.000000	-1.000000	-1.000000	-1.000000	-1.000000	-1.000000	-1.000000	55.000000	0.000000	-1.000000	-1.000000	2479146.000000	1776581362.188580
511.695000	-12140.865000	18585.180000	66186.360000	48863.430000	33923.700000	-100.395000	-11481.615000	4.552343	4.658548	6.842210	9.795147	1.783589	-4.759280	2.483321	4.683386	-0.167860	4.410140	0.030520	-0.812742	-0.020996	0.572020	-1.000000	-1.000000	-1.000000	-1.000000	-1.000000	-1.000000	-1.000000	55.000000	0.000000	-1.000000	-1.000000	2479147.000000	1776581362.188588
513.765000	-12140.595000	18580.545000	66181.725000	48865.860000	33927.930000	-96.435000	-11477.115000	0.568133	-0.099254	1.771567	4.932784	1.715706	6.113281	2.899948	1.751203	-0.167860	4.410140	0.030520	-0.812742	-0.020996	0.572020	-1.000000	-1.000000	-1.000000	-1.000000	-1.000000	-1.000000	-1.000000	55.000000	0.000000	-1.000000	-1.000000	2479148.000000	1776581362.192623
510.390000	-12143.340000	18578.610000	66180.420000	48869.910000	33928.245000	-97.695000	-11479.230000	-3.001455	-4.143434	-3.766444	-1.348736	0.351176	12.599162	2.413941	-0.674295	-0.167860	4.410140	0.030520	-0.812742	-0.020996	0.572020	-1.000000	-1.000000	-1.000000	-1.000000	-1.000000	-1.000000	-1.000000	55.000000	0.000000	-1.000000	-1.000000	2479149.000000	1776581362.192634
512.775000	-12140.955000	18584.505000	66187.530000	48872.340000	33923.790000	-98.460000	-11477.790000	-4.851259	-6.025955	-7.405338	-6.586595	-0.243011	14.752859	1.766833	-1.845157	-0.167860	4.410140	0.030520	-0.812742	-0.020996	0.572020	-1.000000	-1.000000	-1.000000	-1.000000	-1.000000	-1.000000	-1.000000	55.000000	0.000000	-1.000000	-1.000000	2479150.000000	1776581362.196626
519.345000	-12133.215000	18594.315000	66197.160000	48874.950000	33923.160000	-95.040000	-11471.895000	-4.611863	-5.371639	-7.359683	-8.375247	0.669139	12.985869	1.103596	-1.970359	-0.167860	4.410140	0.030520	-0.812742	-0.020996	0.572020	-1.000000	-1.000000	-1.000000	-1.000000	-1.000000	-1.000000	-1.000000	55.000000	0.000000	-1.000000	-1.000000	2479151.000000	1776581362.196635
519.750000	-12130.740000	18599.310000	66205.305000	48875.130000	33916.545000	-97.155000	-11472.345000	-2.600247	-2.646000	-3.689130	-6.020482	2.111361	8.293705	0.473192	-1.377383	-1.526000	3.235120	-0.946120	-0.812620	-0.017761	0.572386	-1.000000	-1.000000	-1.000000	-1.000000	-1.000000	-1.000000	-1.000000	55.000000	0.000000	-1.000000	-1.000000	2479152.000000	1776581362.200735
514.890000	-12127.545000	18615.015000	66228.795000	48878.145000	33903.585000	-111.870000	-11483.325000	-0.103966	0.724560	1.529225	-0.992487	2.739086	2.222688	-0.380365	-0.797449	-1.526000	3.235120	-0.946120	-0.812620	-0.017761	0.572386	-1.000000	-1.000000	-1.000000	-1.000000	-1.000000	-1.000000	-1.000000	55.000000	0.000000	-1.000000	-1.000000	2479153.000000	1776581362.200754
516.285000	-12129.885000	18599.580000	66204.630000	48877.110000	33913.575000	-103.770000	-11478.105000	1.234913	2.885544	5.305587	3.689422	1.997234	-3.327503	-1.768080	-1.101887	-1.526000	3.235120	-0.946120	-0.812620	-0.017761	0.572386	-1.000000	-1.000000	-1.000000	-1.000000	-1.000000	-1.000000	-1.000000	55.000000	0.000000	-1.000000	-1.000000	2479154.000000	1776581362.204780
501.210000	-12154.590000	18554.850000	66149.190000	48851.955000	33915.060000	-98.910000	-11480.715000	0.709112	2.319950	4.286430	3.415305	-0.214354	-6.041935	-2.694802	-1.931317	-1.526000	3.235120	-0.946120	-0.812620	-0.017761	0.572386	-1.000000	-1.000000	-1.000000	-1.000000	-1.000000	-1.000000	-1.000000	55.000000	0.000000	-1.000000	-1.000000	2479155.000000	1776581362.204790
