Channel1	Channel2	Channel3	Channel4	Channel5	Channel6	Channel7	Channel8	FilteredChannel1	FilteredChannel2	FilteredChannel3	FilteredChannel4	FilteredChannel5	FilteredChannel6	FilteredChannel7	FilteredChannel8	GyroX	GyroY	GyroZ	AccX	AccY	AccZ	PPG1	PPG2	rawPPG1	rawPPG2	rawPPG3	Hr	Hrv	Battery	Trigger	PhysicalTrigger	AutoTrigger	NumMeasurements	Timestamp
-11457.405000	-24852.330000	2199.870000	20171.835000	6596.415000	-10909.890000	-47845.710000	-38447.460000	-0.278121	-0.762608	-0.631108	-0.977577	3.488258	-0.875177	-1.005015	-0.858833	-0.808780	1.526000	1.510740	-0.579100	0.168640	0.784483	-1.000000	-1.000000	-1.000000	-1.000000	-1.000000	-1.000000	-1.000000	50.000000	0.000000	-1.000000	-1.000000	459794.000000	1775804192.098688
-11456.190000	-24851.430000	2201.130000	20173.275000	6595.695000	-10908.540000	-47846.115000	-38445.705000	-1.772938	-1.882332	-1.542921	-1.559798	6.690315	0.285229	-1.529815	-2.244975	-0.808780	1.526000	1.510740	-0.579100	0.168640	0.784483	-1.000000	-1.000000	-1.000000	-1.000000	-1.000000	-1.000000	-1.000000	50.000000	0.000000	-1.000000	-1.000000	459795.000000	1775804192.098725
-11456.055000	-24853.590000	2198.205000	20168.190000	6586.605000	-10911.780000	-47844.765000	-38446.065000	-2.732349	-2.425332	-1.924863	-1.569874	6.650502	1.470551	-1.622027	-2.961735	-0.808780	1.526000	1.510740	-0.579100	0.168640	0.784483	-1.000000	-1.000000	-1.000000	-1.000000	-1.000000	-1.000000	-1.000000	50.000000	0.000000	-1.000000	-1.000000	459796.000000	1775804192.106002
-11460.510000	-24858.540000	2193.165000	20162.835000	6581.115000	-10917.405000	-47849.265000	-38452.320000	-2.601353	-2.181770	-1.765921	-1.405084	3.868017	1.753172	-1.389028	-2.706817	-0.808780	1.526000	1.510740	-0.579100	0.168640	0.784483	-1.000000	-1.000000	-1.000000	-1.000000	-1.000000	-1.000000	-1.000000	50.000000	0.000000	-1.000000	-1.000000	459797.000000	1775804192.106026
-11460.825000	-24858.270000	2194.785000	20167.200000	6586.110000	-10920.375000	-47851.515000	-38454.390000	-1.707679	-1.528318	-1.447111	-1.437108	-0.029185	0.599650	-1.147885	-1.954809	-0.808780	1.526000	1.510740	-0.579100	0.168640	0.784483	-1.000000	-1.000000	-1.000000	-1.000000	-1.000000	-1.000000	-1.000000	50.000000	0.000000	-1.000000	-1.000000	459798.000000	1775804192.106086
-11454.615000	-24851.565000	2201.985000	20173.635000	6591.870000	-10917.990000	-47851.470000	-38449.440000	-0.487490	-0.553248	-0.798421	-1.054392	-2.499675	-1.206912	-1.050872	-1.059689	-0.808780	1.526000	1.510740	-0.579100	0.168640	0.784483	-1.000000	-1.000000	-1.000000	-1.000000	-1.000000	-1.000000	-1.000000	50.000000	0.000000	-1.000000	-1.000000	459799.000000	1775804192.106098
-11458.215000	-24856.380000	2196.045000	20167.200000	6588.360000	-10915.245000	-47848.635000	-38448.720000	0.945880	0.900025	0.524112	0.311541	-2.135708	-2.085263	-0.738071	0.250753	3.357200	2.212700	-0.457800	-0.573607	0.165710	0.781919	-1.000000	-1.000000	-1.000000	-1.000000	-1.000000	-1.000000	-1.000000	50.000000	0.000000	-1.000000	-1.000000	459800.000000	1775804192.108249
-11459.880000	-24857.955000	2193.480000	20164.455000	6597.405000	-10911.420000	-47847.555000	-38449.620000	2.098160	2.239760	1.829769	1.763740	0.089132	-1.137057	0.194889	1.915903	3.357200	2.212700	-0.457800	-0.573607	0.165710	0.781919	-1.000000	-1.000000	-1.000000	-1.000000	-1.000000	-1.000000	-1.000000	50.000000	0.000000	-1.000000	-1.000000	459801.000000	1775804192.108274
-11462.895000	-24863.355000	2188.260000	20160.585000	6599.295000	-10909.215000	-47845.395000	-38448.990000	2.187698	2.426788	1.942838	1.945686	2.325047	1.058807	1.535327	3.090776	3.357200	2.212700	-0.457800	-0.573607	0.165710	0.781919	-1.000000	-1.000000	-1.000000	-1.000000	-1.000000	-1.000000	-1.000000	50.000000	0.000000	-1.000000	-1.000000	459802.000000	1775804192.112465
-11467.080000	-24869.565000	2181.960000	20155.005000	6591.420000	-10912.050000	-47846.970000	-38450.655000	1.084187	1.158574	0.638631	0.698662	3.134907	2.936289	2.516710	3.042977	3.357200	2.212700	-0.457800	-0.573607	0.165710	0.781919	-1.000000	-1.000000	-1.000000	-1.000000	-1.000000	-1.000000	-1.000000	50.000000	0.000000	-1.000000	-1.000000	459803.000000	1775804192.112495
-11465.640000	-24866.100000	2184.525000	20156.760000	6591.600000	-10915.740000	-47851.335000	-38452.995000	-0.485325	-0.738021	-1.121950	-0.957523	1.713116	3.043561	2.357659	1.771151	3.357200	2.212700	-0.457800	-0.573607	0.165710	0.781919	-1.000000	-1.000000	-1.000000	-1.000000	-1.000000	-1.000000	-1.000000	50.000000	0.000000	-1.000000	-1.000000	459804.000000	1775804192.116507
-11468.475000	-24867.450000	2182.635000	20152.980000	6580.980000	-10923.075000	-47856.240000	-38456.775000	-1.478323	-1.801941	-1.916249	-1.753719	-1.439130	1.034730	0.807619	-0.172527	3.357200	2.212700	-0.457800	-0.573607	0.165710	0.781919	-1.000000	-1.000000	-1.000000	-1.000000	-1.000000	-1.000000	-1.000000	50.000000	0.000000	-1.000000	-1.000000	459805.000000	1775804192.116534
-11469.150000	-24866.505000	2184.885000	20153.385000	6576.570000	-10925.055000	-47858.265000	-38458.890000	-1.371257	-1.224288	-1.045642	-1.174781	-4.706899	-2.041654	-1.474773	-1.996068	3.357200	2.212700	-0.457800	-0.573607	0.165710	0.781919	-1.000000	-1.000000	-1.000000	-1.000000	-1.000000	-1.000000	-1.000000	50.000000	0.000000	-1.000000	-1.000000	459806.000000	1775804192.120783
-11466.720000	-24862.275000	2188.755000	20158.020000	6582.060000	-10923.885000	-47858.040000	-38458.755000	-0.402219	0.512057	0.973557	0.384719	-6.239950	-4.279510	-3.136616	-2.907540	3.357200	2.212700	-0.457800	-0.573607	0.165710	0.781919	-1.000000	-1.000000	-1.000000	-1.000000	-1.000000	-1.000000	-1.000000	50.000000	0.000000	-1.000000	-1.000000	459807.000000	1775804192.120807
-11463.975000	-24859.080000	2191.455000	20161.395000	6586.380000	-10919.025000	-47856.015000	-38457.540000	0.951291	2.382196	3.044554	2.261681	-4.645153	-4.065707	-3.037219	-2.420566	3.357200	2.212700	-0.457800	-0.573607	0.165710	0.781919	-1.000000	-1.000000	-1.000000	-1.000000	-1.000000	-1.000000	-1.000000	50.000000	0.000000	-1.000000	-1.000000	459808.000000	1775804192.134634
-11466.900000	-24863.895000	2186.190000	20156.535000	6582.285000	-10920.960000	-47858.040000	-38460.240000	2.103617	3.345163	3.977193	3.567234	-0.364860	-1.359580	-1.177160	-0.775158	3.357200	2.212700	-0.457800	-0.573607	0.165710	0.781919	-1.000000	-1.000000	-1.000000	-1.000000	-1.000000	-1.000000	-1.000000	50.000000	0.000000	-1.000000	-1.000000	459809.000000	1775804192.134662
-11463.615000	-24860.655000	2190.870000	20160.495000	6586.605000	-10915.605000	-47854.755000	-38457.045000	2.387827	2.653174	3.022301	3.351212	4.107949	2.180246	1.298461	1.112555	3.250380	2.411080	-0.228900	-0.578795	0.166992	0.780699	-1.000000	-1.000000	-1.000000	-1.000000	-1.000000	-1.000000	-1.000000	50.000000	0.000000	-1.000000	-1.000000	459810.000000	1775804192.134688
-11464.740000	-24860.025000	2191.770000	20161.530000	6588.810000	-10912.095000	-47851.065000	-38456.685000	1.628852	0.625984	0.713131	1.635736	6.449902	4.667571	3.161251	2.404980	3.250380	2.411080	-0.228900	-0.578795	0.166992	0.780699	-1.000000	-1.000000	-1.000000	-1.000000	-1.000000	-1.000000	-1.000000	50.000000	0.000000	-1.000000	-1.000000	459811.000000	1775804192.134699
-11466.675000	-24862.950000	2187.495000	20157.480000	6585.840000	-10913.805000	-47849.850000	-38457.225000	0.229949	-1.565357	-1.640470	-0.603613	6.010309	5.132864	3.838549	2.735237	3.250380	2.411080	-0.228900	-0.578795	0.166992	0.780699	-1.000000	-1.000000	-1.000000	-1.000000	-1.000000	-1.000000	-1.000000	50.000000	0.000000	-1.000000	-1.000000	459812.000000	1775804192.134711
-11472.120000	-24869.385000	2180.835000	20149.695000	6577.110000	-10923.030000	-47855.790000	-38462.265000	-1.366703	-3.148484	-3.361165	-2.663650	3.195559	3.303040	3.091969	1.968363	3.250380	2.411080	-0.228900	-0.578795	0.166992	0.780699	-1.000000	-1.000000	-1.000000	-1.000000	-1.000000	-1.000000	-1.000000	50.000000	0.000000	-1.000000	-1.000000	459813.000000	1775804192.134721
-11471.940000	-24868.755000	2182.095000	20148.480000	6572.880000	-10927.350000	-47857.815000	-38462.850000	-2.736137	-3.941370	-4.327093	-4.249930	-1.013344	-0.414181	0.893005	0.268615	3.250380	2.411080	-0.228900	-0.578795	0.166992	0.780699	-1.000000	-1.000000	-1.000000	-1.000000	-1.000000	-1.000000	-1.000000	50.000000	0.000000	-1.000000	-1.000000	459814.000000	1775804192.135990
-11468.025000	-24864.795000	2185.470000	20150.145000	6570.495000	-10928.700000	-47857.500000	-38461.590000	-3.167205	-3.583982	-4.054448	-4.702435	-4.858725	-4.397189	-1.958071	-1.554360	3.250380	2.411080	-0.228900	-0.578795	0.166992	0.780699	-1.000000	-1.000000	-1.000000	-1.000000	-1.000000	-1.000000	-1.000000	50.000000	0.000000	-1.000000	-1.000000	459815.000000	1775804192.136013
-11463.210000	-24860.115000	2191.320000	20156.580000	6575.175000	-10922.805000	-47853.405000	-38458.710000	-1.995977	-1.658361	-2.018250	-3.201238	-6.326551	-6.291446	-3.850097	-2.362801	3.250380	2.411080	-0.228900	-0.578795	0.166992	0.780699	-1.000000	-1.000000	-1.000000	-1.000000	-1.000000	-1.000000	-1.000000	50.000000	0.000000	-1.000000	-1.000000	459816.000000	1775804192.140386
-11464.830000	-24860.070000	2192.895000	20162.025000	6585.300000	-10918.305000	-47854.215000	-38460.420000	0.432464	1.321842	1.269857	0.182659	-4.330347	-4.683302	-3.640731	-1.709461	3.250380	2.411080	-0.228900	-0.578795	0.166992	0.780699	-1.000000	-1.000000	-1.000000	-1.000000	-1.000000	-1.000000	-1.000000	50.000000	0.000000	-1.000000	-1.000000	459817.000000	1775804192.140404
-11462.355000	-24857.730000	2195.685000	20166.480000	6592.050000	-10917.225000	-47856.015000	-38459.070000	2.650302	3.819704	4.185155	4.044754	0.421591	-0.416831	-1.760361	-0.270834	3.250380	2.411080	-0.228900	-0.578795	0.166992	0.780699	-1.000000	-1.000000	-1.000000	-1.000000	-1.000000	-1.000000	-1.000000	50.000000	0.000000	-1.000000	-1.000000	459818.000000	1775804192.146286
-11461.815000	-24855.615000	2198.565000	20168.325000	6594.165000	-10915.380000	-47856.420000	-38460.015000	3.359774	4.525993	5.205339	6.381677	5.406685	3.887407	0.302864	0.905503	3.250380	2.411080	-0.228900	-0.578795	0.166992	0.780699	-1.000000	-1.000000	-1.000000	-1.000000	-1.000000	-1.000000	-1.000000	50.000000	0.000000	-1.000000	-1.000000	459819.000000	1775804192.146312
-11466.135000	-24860.070000	2195.055000	20164.635000	6589.935000	-10916.370000	-47855.295000	-38462.535000	2.328090	3.225065	3.914914	5.810702	7.570113	5.814893	1.466814	1.199581	1.632820	1.007160	-1.846460	-0.585387	0.171630	0.779966	-1.000000	-1.000000	-1.000000	-1.000000	-1.000000	-1.000000	-1.000000	50.000000	0.000000	-1.000000	-1.000000	459820.000000	1775804192.148886
-11468.700000	-24864.660000	2188.440000	20157.210000	6581.790000	-10920.330000	-47853.945000	-38461.545000	0.099056	0.478852	0.828087	2.290657	5.304567	4.599217	1.679981	0.618942	1.632820	1.007160	-1.846460	-0.585387	0.171630	0.779966	-1.000000	-1.000000	-1.000000	-1.000000	-1.000000	-1.000000	-1.000000	50.000000	0.000000	-1.000000	-1.000000	459821.000000	1775804192.148908
-11462.265000	-24858.405000	2193.885000	20162.835000	6585.705000	-10916.325000	-47848.050000	-38454.525000	-2.161741	-2.508818	-2.790929	-2.596168	-0.218711	1.255917	1.495057	-0.136076	1.632820	1.007160	-1.846460	-0.585387	0.171630	0.779966	-1.000000	-1.000000	-1.000000	-1.000000	-1.000000	-1.000000	-1.000000	50.000000	0.000000	-1.000000	-1.000000	459822.000000	1775804192.152938
-11467.665000	-24863.580000	2189.115000	20158.335000	6581.025000	-10921.455000	-47851.245000	-38459.205000	-3.109140	-4.143690	-5.108859	-6.198558	-5.629723	-2.191586	1.331417	-0.277819	1.632820	1.007160	-1.846460	-0.585387	0.171630	0.779966	-1.000000	-1.000000	-1.000000	-1.000000	-1.000000	-1.000000	-1.000000	50.000000	0.000000	-1.000000	-1.000000	459823.000000	1775804192.152965
-11467.080000	-24865.245000	2187.135000	20155.905000	6572.205000	-10924.515000	-47850.570000	-38456.865000	-2.466982	-3.797778	-5.088507	-6.805463	-8.134077	-4.221479	0.991882	0.065417	1.632820	1.007160	-1.846460	-0.585387	0.171630	0.779966	-1.000000	-1.000000	-1.000000	-1.000000	-1.000000	-1.000000	-1.000000	50.000000	0.000000	-1.000000	-1.000000	459824.000000	1775804192.157302
-11467.755000	-24866.145000	2186.010000	20154.690000	6557.040000	-10924.020000	-47849.445000	-38457.000000	-1.053369	-2.204522	-3.239396	-4.779885	-7.593191	-4.478538	0.175952	0.246739	1.632820	1.007160	-1.846460	-0.585387	0.171630	0.779966	-1.000000	-1.000000	-1.000000	-1.000000	-1.000000	-1.000000	-1.000000	50.000000	0.000000	-1.000000	-1.000000	459825.000000	1775804192.157330
-11465.505000	-24862.365000	2190.195000	20157.885000	6555.420000	-10922.715000	-47851.560000	-38457.945000	0.370954	-0.239674	-0.592539	-1.456688	-5.384490	-3.145434	-0.875716	0.038039	1.632820	1.007160	-1.846460	-0.585387	0.171630	0.779966	-1.000000	-1.000000	-1.000000	-1.000000	-1.000000	-1.000000	-1.000000	50.000000	0.000000	-1.000000	-1.000000	459826.000000	1775804192.161210
-11461.590000	-24858.765000	2194.470000	20163.150000	6573.555000	-10915.020000	-47849.760000	-38455.155000	1.533898	1.706448	2.132399	2.034119	-1.887091	-0.595096	-1.672767	-0.362522	1.632820	1.007160	-1.846460	-0.585387	0.171630	0.779966	-1.000000	-1.000000	-1.000000	-1.000000	-1.000000	-1.000000	-1.000000	50.000000	0.000000	-1.000000	-1.000000	459827.000000	1775804192.161229
-11465.415000	-24863.490000	2188.260000	20159.460000	6604.695000	-10912.905000	-47853.180000	-38458.980000	2.261611	3.185861	4.166582	4.722793	3.903503	2.428580	-1.907605	-0.663377	1.632820	1.007160	-1.846460	-0.585387	0.171630	0.779966	-1.000000	-1.000000	-1.000000	-1.000000	-1.000000	-1.000000	-1.000000	50.000000	0.000000	-1.000000	-1.000000	459828.000000	1775804192.163672
-11467.890000	-24864.615000	2187.135000	20157.705000	6602.220000	-10914.345000	-47854.755000	-38462.265000	2.108541	3.391032	4.462585	5.528375	11.332157	4.630015	-1.627813	-0.851671	1.632820	1.007160	-1.846460	-0.585387	0.171630	0.779966	-1.000000	-1.000000	-1.000000	-1.000000	-1.000000	-1.000000	-1.000000	50.000000	0.000000	-1.000000	-1.000000	459829.000000	1775804192.163691
-11464.065000	-24858.045000	2194.155000	20164.095000	6595.200000	-10915.605000	-47853.315000	-38460.240000	0.944577	2.152854	2.871090	4.128602	15.790337	4.684378	-1.047800	-1.033344	-0.030520	0.549360	-2.914660	-0.584532	0.172912	0.781797	-1.000000	-1.000000	-1.000000	-1.000000	-1.000000	-1.000000	-1.000000	50.000000	0.000000	-1.000000	-1.000000	459830.000000	1775804192.168488
-11463.930000	-24857.280000	2195.370000	20163.060000	6588.855000	-10921.995000	-47856.465000	-38461.455000	-0.431646	0.529592	0.759149	1.640498	12.475895	2.328103	-0.265014	-0.946307	-0.030520	0.549360	-2.914660	-0.584532	0.172912	0.781797	-1.000000	-1.000000	-1.000000	-1.000000	-1.000000	-1.000000	-1.000000	50.000000	0.000000	-1.000000	-1.000000	459831.000000	1775804192.168512
-11461.095000	-24855.030000	2197.170000	20163.915000	6587.235000	-10919.970000	-47853.945000	-38458.890000	-1.084727	-0.448154	-0.554792	-0.569314	2.060466	-1.257788	0.588528	-0.294915	-0.030520	0.549360	-2.914660	-0.584532	0.172912	0.781797	-1.000000	-1.000000	-1.000000	-1.000000	-1.000000	-1.000000	-1.000000	50.000000	0.000000	-1.000000	-1.000000	459832.000000	1775804192.173251
-11466.180000	-24861.600000	2190.195000	20158.650000	6584.085000	-10923.255000	-47855.835000	-38462.040000	-0.941275	-0.867187	-1.120083	-2.053404	-9.559542	-4.112472	1.298434	0.707358	-0.030520	0.549360	-2.914660	-0.584532	0.172912	0.781797	-1.000000	-1.000000	-1.000000	-1.000000	-1.000000	-1.000000	-1.000000	50.000000	0.000000	-1.000000	-1.000000	459833.000000	1775804192.173274
-11463.795000	-24858.765000	2193.120000	20163.420000	6592.230000	-10915.245000	-47851.200000	-38458.935000	-0.617276	-1.356209	-1.664408	-2.874576	-16.105562	-4.685928	1.735786	1.492490	-0.030520	0.549360	-2.914660	-0.584532	0.172912	0.781797	-1.000000	-1.000000	-1.000000	-1.000000	-1.000000	-1.000000	-1.000000	50.000000	0.000000	-1.000000	-1.000000	459834.000000	1775804192.176206
-11467.395000	-24861.915000	2192.760000	20164.905000	6593.400000	-10911.330000	-47852.820000	-38462.490000	-0.546821	-1.979899	-2.245317	-2.830880	-14.805748	-2.654753	1.863199	1.652039	-0.030520	0.549360	-2.914660	-0.584532	0.172912	0.781797	-1.000000	-1.000000	-1.000000	-1.000000	-1.000000	-1.000000	-1.000000	50.000000	0.000000	-1.000000	-1.000000	459835.000000	1775804192.176227
-11471.940000	-24868.890000	2184.300000	20154.285000	6580.260000	-10915.695000	-47854.530000	-38463.975000	-0.750132	-2.364272	-2.417174	-1.952299	-7.728993	0.743431	1.541231	1.100172	-0.030520	0.549360	-2.914660	-0.584532	0.172912	0.781797	-1.000000	-1.000000	-1.000000	-1.000000	-1.000000	-1.000000	-1.000000	50.000000	0.000000	-1.000000	-1.000000	459836.000000	1775804192.180641
-11467.665000	-24865.515000	2186.370000	20155.905000	6581.430000	-10925.145000	-47854.935000	-38459.520000	-1.000690	-2.299363	-2.141246	-1.058830	0.101433	3.057431	0.612500	0.146632	-0.030520	0.549360	-2.914660	-0.584532	0.172912	0.781797	-1.000000	-1.000000	-1.000000	-1.000000	-1.000000	-1.000000	-1.000000	50.000000	0.000000	-1.000000	-1.000000	459837.000000	1775804192.180668
-11470.185000	-24867.945000	2184.660000	20152.305000	6570.765000	-10926.225000	-47854.125000	-38462.265000	-0.799493	-1.533465	-1.441115	-0.646419	4.862510	2.575303	-0.622549	-0.544593	-0.030520	0.549360	-2.914660	-0.584532	0.172912	0.781797	-1.000000	-1.000000	-1.000000	-1.000000	-1.000000	-1.000000	-1.000000	50.000000	0.000000	-1.000000	-1.000000	459838.000000	1775804192.184393
-11467.845000	-24866.055000	2185.425000	20149.830000	6561.180000	-10925.460000	-47849.400000	-38458.620000	0.080188	0.019227	-0.181795	-0.356639	5.724744	0.129871	-1.409032	-0.611125	-0.030520	0.549360	-2.914660	-0.584532	0.172912	0.781797	-1.000000	-1.000000	-1.000000	-1.000000	-1.000000	-1.000000	-1.000000	50.000000	0.000000	-1.000000	-1.000000	459839.000000	1775804192.184419
-11468.925000	-24867.585000	2183.265000	20147.805000	6558.975000	-10928.925000	-47853.540000	-38461.275000	1.206957	1.814227	1.350784	0.141709	3.913699	-1.943262	-1.287306	-0.273234	-3.128300	0.122080	-3.052000	-0.578429	0.168273	0.785398	-1.000000	-1.000000	-1.000000	-1.000000	-1.000000	-1.000000	-1.000000	50.000000	0.000000	-1.000000	-1.000000	459840.000000	1775804192.188610
-11467.755000	-24865.155000	2188.035000	20158.695000	6582.960000	-10923.615000	-47854.620000	-38462.265000	1.947413	3.056838	2.567635	1.044643	2.156278	-2.148234	-0.694536	-0.004254	-3.128300	0.122080	-3.052000	-0.578429	0.168273	0.785398	-1.000000	-1.000000	-1.000000	-1.000000	-1.000000	-1.000000	-1.000000	50.000000	0.000000	-1.000000	-1.000000	459841.000000	1775804192.188632
-11470.860000	-24867.945000	2186.685000	20160.045000	6592.995000	-10919.070000	-47851.830000	-38464.155000	1.891276	3.246764	3.111904	2.553897	3.219311	-0.456668	-0.309515	-0.156581	-3.128300	0.122080	-3.052000	-0.578429	0.168273	0.785398	-1.000000	-1.000000	-1.000000	-1.000000	-1.000000	-1.000000	-1.000000	50.000000	0.000000	-1.000000	-1.000000	459842.000000	1775804192.195783
-11474.415000	-24871.590000	2182.725000	20155.410000	6590.880000	-10921.815000	-47855.250000	-38469.105000	0.952778	2.261631	2.755346	3.988412	6.629858	2.049651	-0.200812	-0.706386	-3.128300	0.122080	-3.052000	-0.578429	0.168273	0.785398	-1.000000	-1.000000	-1.000000	-1.000000	-1.000000	-1.000000	-1.000000	50.000000	0.000000	-1.000000	-1.000000	459843.000000	1775804192.195810
-11475.090000	-24869.745000	2184.345000	20156.985000	6587.595000	-10918.755000	-47855.115000	-38470.680000	-0.529812	0.448553	1.395697	3.883290	8.382611	3.675549	-0.191838	-1.347900	-3.128300	0.122080	-3.052000	-0.578429	0.168273	0.785398	-1.000000	-1.000000	-1.000000	-1.000000	-1.000000	-1.000000	-1.000000	50.000000	0.000000	-1.000000	-1.000000	459844.000000	1775804192.199978
-11470.815000	-24864.390000	2189.610000	20160.315000	6586.695000	-10918.755000	-47855.205000	-38467.350000	-1.679804	-1.156472	-0.311487	1.887968	5.392236	3.401699	-0.199425	-1.533251	-3.128300	0.122080	-3.052000	-0.578429	0.168273	0.785398	-1.000000	-1.000000	-1.000000	-1.000000	-1.000000	-1.000000	-1.000000	50.000000	0.000000	-1.000000	-1.000000	459845.000000	1775804192.200004
-11466.045000	-24860.295000	2193.930000	20162.655000	6586.740000	-10918.395000	-47851.290000	-38461.815000	-1.533902	-1.446782	-1.191515	-0.677265	-1.244641	1.570713	-0.017277	-0.626492	-3.128300	0.122080	-3.052000	-0.578429	0.168273	0.785398	-1.000000	-1.000000	-1.000000	-1.000000	-1.000000	-1.000000	-1.000000	50.000000	0.000000	-1.000000	-1.000000	459846.000000	1775804192.201303
-11465.685000	-24861.420000	2191.905000	20160.045000	6581.205000	-10923.030000	-47851.065000	-38461.095000	-0.038624	-0.445586	-0.887052	-2.448987	-7.788762	-0.844173	0.523849	1.328773	-3.128300	0.122080	-3.052000	-0.578429	0.168273	0.785398	-1.000000	-1.000000	-1.000000	-1.000000	-1.000000	-1.000000	-1.000000	50.000000	0.000000	-1.000000	-1.000000	459847.000000	1775804192.201321
-11471.760000	-24868.395000	2184.615000	20153.295000	6574.860000	-10928.925000	-47854.215000	-38465.685000	1.534431	0.501562	-0.408015	-3.259392	-11.229420	-3.053056	1.100730	3.098505	-3.128300	0.122080	-3.052000	-0.578429	0.168273	0.785398	-1.000000	-1.000000	-1.000000	-1.000000	-1.000000	-1.000000	-1.000000	50.000000	0.000000	-1.000000	-1.000000	459848.000000	1775804192.204341
-11474.280000	-24870.060000	2183.445000	20154.960000	6579.045000	-10927.755000	-47854.170000	-38466.990000	1.633132	0.072734	-0.919126	-3.563778	-10.621476	-4.440873	1.072310	3.164936	-3.128300	0.122080	-3.052000	-0.578429	0.168273	0.785398	-1.000000	-1.000000	-1.000000	-1.000000	-1.000000	-1.000000	-1.000000	50.000000	0.000000	-1.000000	-1.000000	459849.000000	1775804192.204358
-11472.840000	-24868.710000	2182.320000	20152.845000	6579.585000	-10926.585000	-47854.260000	-38466.270000	0.102546	-1.486017	-2.205688	-3.312659	-6.460582	-4.284002	0.315846	1.339442	-3.036740	1.754900	-3.525060	-0.571532	0.165649	0.787474	-1.000000	-1.000000	-1.000000	-1.000000	-1.000000	-1.000000	-1.000000	50.000000	0.000000	-1.000000	-1.000000	459850.000000	1775804192.208393
-11467.890000	-24862.230000	2188.755000	20159.550000	6583.005000	-10921.230000	-47851.200000	-38462.265000	-1.553475	-2.513589	-2.830706	-2.042920	-0.348809	-2.211254	-0.537234	-0.963672	-3.036740	1.754900	-3.525060	-0.571532	0.165649	0.787474	-1.000000	-1.000000	-1.000000	-1.000000	-1.000000	-1.000000	-1.000000	50.000000	0.000000	-1.000000	-1.000000	459851.000000	1775804192.208410
-11467.620000	-24861.060000	2191.500000	20161.170000	6583.275000	-10920.645000	-47853.270000	-38463.615000	-1.802687	-1.718387	-1.659587	0.294551	5.298246	1.085635	-0.838285	-2.180471	-3.036740	1.754900	-3.525060	-0.571532	0.165649	0.787474	-1.000000	-1.000000	-1.000000	-1.000000	-1.000000	-1.000000	-1.000000	50.000000	0.000000	-1.000000	-1.000000	459852.000000	1775804192.216574
-11475.090000	-24866.775000	2185.380000	20153.475000	6576.210000	-10927.440000	-47860.965000	-38472.345000	-0.762212	0.332778	0.788899	2.708418	8.206603	3.847449	-0.730569	-2.137539	-3.036740	1.754900	-3.525060	-0.571532	0.165649	0.787474	-1.000000	-1.000000	-1.000000	-1.000000	-1.000000	-1.000000	-1.000000	50.000000	0.000000	-1.000000	-1.000000	459853.000000	1775804192.216599
-11477.700000	-24868.485000	2184.075000	20153.160000	6576.210000	-10928.205000	-47861.685000	-38474.820000	0.110579	1.775685	2.610727	3.586263	7.348510	4.337912	-0.870976	-1.848586	-3.036740	1.754900	-3.525060	-0.571532	0.165649	0.787474	-1.000000	-1.000000	-1.000000	-1.000000	-1.000000	-1.000000	-1.000000	50.000000	0.000000	-1.000000	-1.000000	459854.000000	1775804192.219717
-11479.320000	-24868.575000	2185.155000	20155.230000	6578.280000	-10928.115000	-47861.685000	-38475.720000	-0.052199	1.556347	2.570994	2.470932	3.788101	2.469865	-1.251429	-1.829784	-3.036740	1.754900	-3.525060	-0.571532	0.165649	0.787474	-1.000000	-1.000000	-1.000000	-1.000000	-1.000000	-1.000000	-1.000000	50.000000	0.000000	-1.000000	-1.000000	459855.000000	1775804192.219751
-11475.315000	-24865.605000	2186.370000	20155.725000	6578.010000	-10927.755000	-47859.165000	-38470.770000	-0.597824	0.383433	1.262493	0.614671	-0.023926	-0.128783	-1.081229	-1.424563	-3.036740	1.754900	-3.525060	-0.571532	0.165649	0.787474	-1.000000	-1.000000	-1.000000	-1.000000	-1.000000	-1.000000	-1.000000	50.000000	0.000000	-1.000000	-1.000000	459856.000000	1775804192.227759
-11475.540000	-24865.065000	2184.885000	20153.070000	6574.095000	-10928.250000	-47854.305000	-38465.820000	-0.413778	-0.407843	-0.036795	-0.662160	-2.342347	-1.789685	0.157733	0.140108	-3.036740	1.754900	-3.525060	-0.571532	0.165649	0.787474	-1.000000	-1.000000	-1.000000	-1.000000	-1.000000	-1.000000	-1.000000	50.000000	0.000000	-1.000000	-1.000000	459857.000000	1775804192.227781
-11477.340000	-24869.070000	2181.150000	20151.135000	6572.835000	-10928.565000	-47854.935000	-38467.620000	0.637249	-0.353207	-0.765219	-1.132334	-3.034289	-1.987852	2.031809	2.505464	-3.036740	1.754900	-3.525060	-0.571532	0.165649	0.787474	-1.000000	-1.000000	-1.000000	-1.000000	-1.000000	-1.000000	-1.000000	50.000000	0.000000	-1.000000	-1.000000	459858.000000	1775804192.227806
-11477.115000	-24872.040000	2177.370000	20146.905000	6573.780000	-10927.395000	-47855.250000	-38468.520000	1.661822	-0.079531	-1.152018	-1.229373	-2.657475	-1.163649	3.326852	4.129883	-3.036740	1.754900	-3.525060	-0.571532	0.165649	0.787474	-1.000000	-1.000000	-1.000000	-1.000000	-1.000000	-1.000000	-1.000000	50.000000	0.000000	-1.000000	-1.000000	459859.000000	1775804192.227819
-11478.195000	-24873.210000	2177.010000	20148.435000	6581.340000	-10925.325000	-47856.645000	-38469.645000	1.868073	-0.224049	-1.419491	-1.218581	-1.471730	0.001982	3.009349	3.721136	-3.769220	3.662400	-3.601360	-0.577818	0.165039	0.785826	-1.000000	-1.000000	-1.000000	-1.000000	-1.000000	-1.000000	-1.000000	50.000000	0.000000	-1.000000	-1.000000	459860.000000	1775804192.232208
-11477.430000	-24871.680000	2179.260000	20151.675000	6579.405000	-10926.090000	-47858.715000	-38470.770000	1.229904	-0.587260	-1.281642	-0.844960	0.344924	0.961736	1.119929	1.469704	-3.769220	3.662400	-3.601360	-0.577818	0.165039	0.785826	-1.000000	-1.000000	-1.000000	-1.000000	-1.000000	-1.000000	-1.000000	50.000000	0.000000	-1.000000	-1.000000	459861.000000	1775804192.232229
-11477.340000	-24870.915000	2179.530000	20148.705000	6552.675000	-10932.435000	-47859.615000	-38471.535000	0.252452	-0.518550	-0.371610	0.130162	1.487800	1.189455	-1.335975	-1.290520	-3.769220	3.662400	-3.601360	-0.577818	0.165039	0.785826	-1.000000	-1.000000	-1.000000	-1.000000	-1.000000	-1.000000	-1.000000	50.000000	0.000000	-1.000000	-1.000000	459862.000000	1775804192.246329
-11479.320000	-24871.815000	2179.080000	20147.400000	6545.520000	-10936.485000	-47859.390000	-38473.065000	-0.562791	0.181580	1.030484	1.193208	0.043806	0.310142	-3.095655	-3.186466	-3.769220	3.662400	-3.601360	-0.577818	0.165039	0.785826	-1.000000	-1.000000	-1.000000	-1.000000	-1.000000	-1.000000	-1.000000	50.000000	0.000000	-1.000000	-1.000000	459863.000000	1775804192.246352
-11482.515000	-24874.560000	2177.010000	20145.870000	6552.045000	-10938.825000	-47862.945000	-38476.395000	-1.097720	0.968083	2.052260	1.536542	-3.241924	-1.295283	-3.415285	-3.614895	-3.769220	3.662400	-3.601360	-0.577818	0.165039	0.785826	-1.000000	-1.000000	-1.000000	-1.000000	-1.000000	-1.000000	-1.000000	50.000000	0.000000	-1.000000	-1.000000	459864.000000	1775804192.246380
-11481.390000	-24873.930000	2177.235000	20146.860000	6584.715000	-10933.425000	-47865.240000	-38475.855000	-1.408398	1.175027	2.031134	1.026134	-4.106704	-2.365382	-2.500799	-2.791310	-3.769220	3.662400	-3.601360	-0.577818	0.165039	0.785826	-1.000000	-1.000000	-1.000000	-1.000000	-1.000000	-1.000000	-1.000000	50.000000	0.000000	-1.000000	-1.000000	459865.000000	1775804192.246389
-11478.825000	-24872.355000	2175.930000	20143.035000	6582.330000	-10933.650000	-47865.735000	-38473.245000	-1.284662	0.778497	1.072666	0.158014	0.453274	-1.755215	-1.071668	-1.176193	-3.769220	3.662400	-3.601360	-0.577818	0.165039	0.785826	-1.000000	-1.000000	-1.000000	-1.000000	-1.000000	-1.000000	-1.000000	50.000000	0.000000	-1.000000	-1.000000	459866.000000	1775804192.246401
-11477.610000	-24871.050000	2177.415000	20143.845000	6567.255000	-10932.930000	-47864.880000	-38471.670000	-0.471837	0.307216	-0.148891	-0.585079	7.224100	0.319214	0.370530	0.808638	-3.769220	3.662400	-3.601360	-0.577818	0.165039	0.785826	-1.000000	-1.000000	-1.000000	-1.000000	-1.000000	-1.000000	-1.000000	50.000000	0.000000	-1.000000	-1.000000	459867.000000	1775804192.246409
-11480.265000	-24871.590000	2180.205000	20149.155000	6576.660000	-10929.420000	-47864.745000	-38473.560000	0.686945	0.111460	-0.896171	-0.811517	9.781781	2.479991	1.618881	2.501383	-3.769220	3.662400	-3.601360	-0.577818	0.165039	0.785826	-1.000000	-1.000000	-1.000000	-1.000000	-1.000000	-1.000000	-1.000000	50.000000	0.000000	-1.000000	-1.000000	459868.000000	1775804192.246419
-11476.215000	-24868.305000	2182.320000	20154.195000	6587.685000	-10922.220000	-47856.555000	-38467.440000	1.431965	0.109987	-0.791219	-0.150909	6.328012	3.649904	2.588472	3.198672	-3.769220	3.662400	-3.601360	-0.577818	0.165039	0.785826	-1.000000	-1.000000	-1.000000	-1.000000	-1.000000	-1.000000	-1.000000	50.000000	0.000000	-1.000000	-1.000000	459869.000000	1775804192.246427
-11474.190000	-24865.020000	2185.110000	20155.905000	6586.875000	-10920.960000	-47855.430000	-38466.630000	1.484369	0.190689	-0.053658	1.186270	0.503113	3.633303	3.256612	2.827379	-1.922760	3.662400	-4.776380	-0.582945	0.163024	0.784300	-1.000000	-1.000000	-1.000000	-1.000000	-1.000000	-1.000000	-1.000000	50.000000	0.000000	-1.000000	-1.000000	459870.000000	1775804192.247097
-11472.750000	-24864.570000	2185.200000	20153.655000	6584.760000	-10922.760000	-47854.395000	-38464.290000	1.128616	0.315294	0.674917	2.136229	-4.175006	2.453845	3.315437	1.797274	-1.922760	3.662400	-4.776380	-0.582945	0.163024	0.784300	-1.000000	-1.000000	-1.000000	-1.000000	-1.000000	-1.000000	-1.000000	50.000000	0.000000	-1.000000	-1.000000	459871.000000	1775804192.247119
-11473.830000	-24869.070000	2177.820000	20146.635000	6577.200000	-10924.605000	-47850.840000	-38461.365000	0.551290	0.176021	0.648765	1.529668	-6.854481	0.146805	2.317705	0.492995	-1.922760	3.662400	-4.776380	-0.582945	0.163024	0.784300	-1.000000	-1.000000	-1.000000	-1.000000	-1.000000	-1.000000	-1.000000	50.000000	0.000000	-1.000000	-1.000000	459872.000000	1775804192.252377
-11477.340000	-24870.555000	2177.055000	20148.165000	6579.855000	-10928.655000	-47855.565000	-38465.955000	-0.334403	-0.623118	-0.520645	-0.721242	-7.806614	-2.724843	0.331338	-0.842265	-1.922760	3.662400	-4.776380	-0.582945	0.163024	0.784300	-1.000000	-1.000000	-1.000000	-1.000000	-1.000000	-1.000000	-1.000000	50.000000	0.000000	-1.000000	-1.000000	459873.000000	1775804192.252404
-11479.320000	-24870.780000	2178.450000	20149.335000	6579.720000	-10932.165000	-47861.370000	-38471.265000	-1.516663	-1.833598	-2.156913	-3.146413	-6.916559	-5.075139	-2.184065	-2.229639	-1.922760	3.662400	-4.776380	-0.582945	0.163024	0.784300	-1.000000	-1.000000	-1.000000	-1.000000	-1.000000	-1.000000	-1.000000	50.000000	0.000000	-1.000000	-1.000000	459874.000000	1775804192.258438
-11478.690000	-24870.645000	2178.180000	20148.705000	6576.750000	-10932.345000	-47861.370000	-38471.130000	-2.518915	-2.547777	-2.868566	-3.960391	-4.147854	-5.853920	-4.522923	-3.565756	-1.922760	3.662400	-4.776380	-0.582945	0.163024	0.784300	-1.000000	-1.000000	-1.000000	-1.000000	-1.000000	-1.000000	-1.000000	50.000000	0.000000	-1.000000	-1.000000	459875.000000	1775804192.258461
-11477.295000	-24869.340000	2179.710000	20151.225000	6574.770000	-10926.045000	-47857.680000	-38469.195000	-2.582813	-2.078140	-1.968180	-2.697073	-0.485322	-4.431888	-5.479338	-4.060711	-1.922760	3.662400	-4.776380	-0.582945	0.163024	0.784300	-1.000000	-1.000000	-1.000000	-1.000000	-1.000000	-1.000000	-1.000000	50.000000	0.000000	-1.000000	-1.000000	459876.000000	1775804192.264687
-11475.990000	-24868.260000	2180.745000	20152.035000	6574.185000	-10918.755000	-47852.460000	-38466.360000	-1.386770	-0.543339	0.015312	-0.242723	2.627690	-0.905960	-4.022445	-2.868658	-1.922760	3.662400	-4.776380	-0.582945	0.163024	0.784300	-1.000000	-1.000000	-1.000000	-1.000000	-1.000000	-1.000000	-1.000000	50.000000	0.000000	-1.000000	-1.000000	459877.000000	1775804192.264714
-11477.295000	-24867.855000	2180.790000	20151.405000	6576.210000	-10921.050000	-47857.995000	-38468.340000	0.507362	1.281958	1.965898	2.045967	4.405229	3.399608	-0.645727	-0.255024	-1.922760	3.662400	-4.776380	-0.582945	0.163024	0.784300	-1.000000	-1.000000	-1.000000	-1.000000	-1.000000	-1.000000	-1.000000	50.000000	0.000000	-1.000000	-1.000000	459878.000000	1775804192.264742
-11470.455000	-24857.415000	2187.405000	20153.970000	6579.540000	-10915.740000	-47849.445000	-38457.675000	2.146158	2.668608	3.032821	3.128556	4.928956	6.262627	2.728470	2.546430	-1.922760	3.662400	-4.776380	-0.582945	0.163024	0.784300	-1.000000	-1.000000	-1.000000	-1.000000	-1.000000	-1.000000	-1.000000	50.000000	0.000000	-1.000000	-1.000000	459879.000000	1775804192.264754
-11469.330000	-24855.255000	2186.055000	20150.460000	6576.030000	-10919.430000	-47843.370000	-38452.005000	3.010783	3.433917	3.051374	2.752594	4.511607	6.195095	4.668339	4.575022	1.052940	5.020540	-3.540320	-0.580687	0.162841	0.784727	-1.000000	-1.000000	-1.000000	-1.000000	-1.000000	-1.000000	-1.000000	50.000000	0.000000	-1.000000	-1.000000	459880.000000	1775804192.270788
-11470.950000	-24860.160000	2186.505000	20154.240000	6575.760000	-10936.035000	-47857.905000	-38461.905000	2.918096	3.301751	2.142053	1.364390	3.176906	3.114363	4.719208	5.135442	1.052940	5.020540	-3.540320	-0.580687	0.162841	0.784727	-1.000000	-1.000000	-1.000000	-1.000000	-1.000000	-1.000000	-1.000000	50.000000	0.000000	-1.000000	-1.000000	459881.000000	1775804192.270812
-11466.315000	-24855.480000	2194.380000	20161.890000	6580.845000	-10929.690000	-47857.410000	-38461.275000	1.794555	1.757452	0.635605	-0.045181	1.178055	-1.804074	2.531219	3.388957	1.052940	5.020540	-3.540320	-0.580687	0.162841	0.784727	-1.000000	-1.000000	-1.000000	-1.000000	-1.000000	-1.000000	-1.000000	50.000000	0.000000	-1.000000	-1.000000	459882.000000	1775804192.272263
-11472.075000	-24858.405000	2192.220000	20159.730000	6579.000000	-10928.205000	-47861.190000	-38467.170000	0.001751	-0.812622	-0.735430	-0.561556	-0.646695	-5.793329	-1.192230	-0.369386	1.052940	5.020540	-3.540320	-0.580687	0.162841	0.784727	-1.000000	-1.000000	-1.000000	-1.000000	-1.000000	-1.000000	-1.000000	50.000000	0.000000	-1.000000	-1.000000	459883.000000	1775804192.272284
-11474.595000	-24861.195000	2190.465000	20158.785000	6580.260000	-10922.040000	-47858.400000	-38466.720000	-1.911918	-3.221354	-1.615791	-0.411438	-1.705168	-6.115596	-4.236014	-4.206742	1.052940	5.020540	-3.540320	-0.580687	0.162841	0.784727	-1.000000	-1.000000	-1.000000	-1.000000	-1.000000	-1.000000	-1.000000	50.000000	0.000000	-1.000000	-1.000000	459884.000000	1775804192.275690
-11471.490000	-24859.980000	2191.995000	20160.720000	6582.780000	-10915.830000	-47851.290000	-38459.745000	-3.352195	-4.519954	-2.231137	-0.482202	-2.007799	-2.602633	-4.607730	-5.895692	1.052940	5.020540	-3.540320	-0.580687	0.162841	0.784727	-1.000000	-1.000000	-1.000000	-1.000000	-1.000000	-1.000000	-1.000000	50.000000	0.000000	-1.000000	-1.000000	459885.000000	1775804192.275709
-11467.125000	-24857.370000	2194.020000	20162.520000	6577.560000	-10920.105000	-47851.515000	-38456.190000	-3.441335	-4.163215	-2.500792	-0.939291	-1.819510	2.283167	-2.074661	-4.321456	1.052940	5.020540	-3.540320	-0.580687	0.162841	0.784727	-1.000000	-1.000000	-1.000000	-1.000000	-1.000000	-1.000000	-1.000000	50.000000	0.000000	-1.000000	-1.000000	459886.000000	1775804192.282460
-11469.825000	-24862.725000	2186.280000	20154.195000	6570.855000	-10923.435000	-47851.875000	-38457.270000	-1.851158	-2.279578	-2.197743	-1.426769	-1.696398	5.255166	1.559453	-0.466750	1.052940	5.020540	-3.540320	-0.580687	0.162841	0.784727	-1.000000	-1.000000	-1.000000	-1.000000	-1.000000	-1.000000	-1.000000	50.000000	0.000000	-1.000000	-1.000000	459887.000000	1775804192.282492
-11469.915000	-24862.770000	2187.135000	20155.455000	6579.945000	-10920.555000	-47850.165000	-38456.955000	0.402747	0.044678	-1.604091	-1.860276	-1.853081	4.651748	3.887294	3.113068	1.052940	5.020540	-3.540320	-0.580687	0.162841	0.784727	-1.000000	-1.000000	-1.000000	-1.000000	-1.000000	-1.000000	-1.000000	50.000000	0.000000	-1.000000	-1.000000	459888.000000	1775804192.295676
-11472.300000	-24863.355000	2187.180000	20154.735000	6581.655000	-10923.030000	-47853.675000	-38460.240000	1.867273	1.685761	-0.951206	-2.030525	-1.443489	1.581271	3.787497	4.345851	1.052940	5.020540	-3.540320	-0.580687	0.162841	0.784727	-1.000000	-1.000000	-1.000000	-1.000000	-1.000000	-1.000000	-1.000000	50.000000	0.000000	-1.000000	-1.000000	459889.000000	1775804192.295699
-11475.270000	-24867.945000	2182.545000	20149.560000	6571.845000	-10931.580000	-47857.455000	-38462.940000	1.894304	2.281250	-0.110956	-1.537731	-0.051004	-1.800631	1.661087	2.933748	1.846460	2.960440	-2.777320	-0.579283	0.163940	0.785276	-1.000000	-1.000000	-1.000000	-1.000000	-1.000000	-1.000000	-1.000000	50.000000	0.000000	-1.000000	-1.000000	459890.000000	1775804192.295727
-11472.615000	-24865.695000	2184.795000	20152.305000	6573.330000	-10929.105000	-47855.565000	-38459.880000	0.900405	2.014818	0.833116	-0.446798	1.184520	-4.079575	-1.182877	0.185378	1.846460	2.960440	-2.777320	-0.579283	0.163940	0.785276	-1.000000	-1.000000	-1.000000	-1.000000	-1.000000	-1.000000	-1.000000	50.000000	0.000000	-1.000000	-1.000000	459891.000000	1775804192.295740
-11467.575000	-24858.405000	2191.680000	20159.460000	6566.085000	-10931.715000	-47856.600000	-38457.855000	0.016358	1.553891	1.796816	1.043477	1.231893	-4.489087	-3.118296	-1.931762	1.846460	2.960440	-2.777320	-0.579283	0.163940	0.785276	-1.000000	-1.000000	-1.000000	-1.000000	-1.000000	-1.000000	-1.000000	50.000000	0.000000	-1.000000	-1.000000	459892.000000	1775804192.295752
-11471.715000	-24860.430000	2189.655000	20158.245000	6559.380000	-10931.805000	-47860.650000	-38462.580000	0.044581	1.601222	2.817896	2.781066	0.234473	-2.922137	-3.281359	-2.315800	1.846460	2.960440	-2.777320	-0.579283	0.163940	0.785276	-1.000000	-1.000000	-1.000000	-1.000000	-1.000000	-1.000000	-1.000000	50.000000	0.000000	-1.000000	-1.000000	459893.000000	1775804192.295763
-11475.405000	-24863.985000	2185.785000	20153.160000	6554.745000	-10934.730000	-47865.240000	-38466.990000	0.491169	1.810283	3.294132	3.885042	-1.101583	-0.286013	-2.178966	-1.549805	1.846460	2.960440	-2.777320	-0.579283	0.163940	0.785276	-1.000000	-1.000000	-1.000000	-1.000000	-1.000000	-1.000000	-1.000000	50.000000	0.000000	-1.000000	-1.000000	459894.000000	1775804192.297180
-11471.535000	-24859.485000	2190.735000	20158.875000	6580.980000	-10927.350000	-47863.485000	-38464.065000	0.444409	1.279325	2.463238	3.325451	-1.359860	2.207104	-0.779019	-0.731649	1.846460	2.960440	-2.777320	-0.579283	0.163940	0.785276	-1.000000	-1.000000	-1.000000	-1.000000	-1.000000	-1.000000	-1.000000	50.000000	0.000000	-1.000000	-1.000000	459895.000000	1775804192.297201
-11475.225000	-24861.555000	2189.745000	20158.920000	6608.700000	-10923.255000	-47863.530000	-38467.935000	-0.083696	0.019301	0.685112	1.434449	1.480485	3.976133	0.544529	-0.141646	1.846460	2.960440	-2.777320	-0.579283	0.163940	0.785276	-1.000000	-1.000000	-1.000000	-1.000000	-1.000000	-1.000000	-1.000000	50.000000	0.000000	-1.000000	-1.000000	459896.000000	1775804192.301045
-11480.445000	-24866.730000	2183.760000	20152.440000	6586.965000	-10932.840000	-47866.140000	-38471.040000	-0.674863	-1.345067	-1.115050	-0.657674	6.749812	4.616128	1.725807	0.327272	1.846460	2.960440	-2.777320	-0.579283	0.163940	0.785276	-1.000000	-1.000000	-1.000000	-1.000000	-1.000000	-1.000000	-1.000000	50.000000	0.000000	-1.000000	-1.000000	459897.000000	1775804192.301072
-11479.680000	-24867.045000	2184.660000	20153.880000	6580.035000	-10934.730000	-47867.805000	-38470.320000	-1.189394	-2.451102	-2.494037	-2.345973	9.204907	3.361372	2.393090	0.607322	1.846460	2.960440	-2.777320	-0.579283	0.163940	0.785276	-1.000000	-1.000000	-1.000000	-1.000000	-1.000000	-1.000000	-1.000000	50.000000	0.000000	-1.000000	-1.000000	459898.000000	1775804192.314085
-11473.965000	-24862.230000	2189.835000	20159.820000	6586.065000	-10926.315000	-47860.155000	-38464.965000	-1.218465	-2.831791	-3.015524	-3.125583	4.959152	0.511202	2.358825	0.889590	1.846460	2.960440	-2.777320	-0.579283	0.163940	0.785276	-1.000000	-1.000000	-1.000000	-1.000000	-1.000000	-1.000000	-1.000000	50.000000	0.000000	-1.000000	-1.000000	459899.000000	1775804192.314109
-11472.435000	-24863.040000	2187.450000	20157.930000	6584.130000	-10923.570000	-47856.780000	-38462.580000	-0.206277	-1.937626	-2.190874	-2.437995	-3.199050	-1.913913	2.118097	1.555599	-2.105880	-0.198380	-1.709120	-0.572936	0.164123	0.785581	-1.000000	-1.000000	-1.000000	-1.000000	-1.000000	-1.000000	-1.000000	50.000000	0.000000	-1.000000	-1.000000	459900.000000	1775804192.314136
-11477.835000	-24869.790000	2180.205000	20151.000000	6576.885000	-10925.370000	-47859.030000	-38464.650000	1.391699	-0.207114	-0.584604	-0.834084	-9.684503	-2.443979	1.963258	2.342194	-2.105880	-0.198380	-1.709120	-0.572936	0.164123	0.785581	-1.000000	-1.000000	-1.000000	-1.000000	-1.000000	-1.000000	-1.000000	50.000000	0.000000	-1.000000	-1.000000	459901.000000	1775804192.314148
-11474.640000	-24867.675000	2182.860000	20152.935000	6578.235000	-10921.005000	-47854.440000	-38459.565000	2.247555	1.075745	0.511888	0.302804	-11.514227	-1.586562	1.425132	2.429445	-2.105880	-0.198380	-1.709120	-0.572936	0.164123	0.785581	-1.000000	-1.000000	-1.000000	-1.000000	-1.000000	-1.000000	-1.000000	50.000000	0.000000	-1.000000	-1.000000	459902.000000	1775804192.314164
-11476.350000	-24869.475000	2181.510000	20151.585000	6577.380000	-10921.365000	-47854.305000	-38461.005000	1.749590	1.326761	0.724198	0.486748	-8.756306	-0.532577	0.231771	1.494090	-2.105880	-0.198380	-1.709120	-0.572936	0.164123	0.785581	-1.000000	-1.000000	-1.000000	-1.000000	-1.000000	-1.000000	-1.000000	50.000000	0.000000	-1.000000	-1.000000	459903.000000	1775804192.314175
-11477.565000	-24870.060000	2180.700000	20150.235000	6574.545000	-10926.540000	-47858.670000	-38463.570000	0.415044	0.978059	0.630932	0.291046	-3.253693	-0.091939	-1.320026	-0.141267	-2.105880	-0.198380	-1.709120	-0.572936	0.164123	0.785581	-1.000000	-1.000000	-1.000000	-1.000000	-1.000000	-1.000000	-1.000000	50.000000	0.000000	-1.000000	-1.000000	459904.000000	1775804192.316306
-11473.875000	-24865.965000	2186.460000	20153.610000	6574.320000	-10926.270000	-47858.310000	-38461.635000	-0.895194	0.646833	0.751180	0.297001	2.367149	-0.582973	-2.846695	-1.935765	-2.105880	-0.198380	-1.709120	-0.572936	0.164123	0.785581	-1.000000	-1.000000	-1.000000	-1.000000	-1.000000	-1.000000	-1.000000	50.000000	0.000000	-1.000000	-1.000000	459905.000000	1775804192.316326
-11469.735000	-24861.465000	2191.095000	20157.300000	6568.065000	-10922.715000	-47854.575000	-38458.260000	-1.378952	0.792200	1.341798	0.785899	5.938326	-1.444436	-3.720972	-3.063656	-2.105880	-0.198380	-1.709120	-0.572936	0.164123	0.785581	-1.000000	-1.000000	-1.000000	-1.000000	-1.000000	-1.000000	-1.000000	50.000000	0.000000	-1.000000	-1.000000	459906.000000	1775804192.322531
-11473.020000	-24863.940000	2187.360000	20150.505000	6553.485000	-10925.595000	-47857.230000	-38461.725000	-0.834741	1.355134	2.119518	1.504493	6.359244	-1.638184	-3.275401	-2.904698	-2.105880	-0.198380	-1.709120	-0.572936	0.164123	0.785581	-1.000000	-1.000000	-1.000000	-1.000000	-1.000000	-1.000000	-1.000000	50.000000	0.000000	-1.000000	-1.000000	459907.000000	1775804192.322556
-11471.760000	-24862.770000	2189.520000	20153.070000	6563.880000	-10925.010000	-47856.150000	-38459.835000	-0.014598	1.575339	2.161326	1.622652	4.065237	-0.892481	-1.685654	-1.774777	-2.105880	-0.198380	-1.709120	-0.572936	0.164123	0.785581	-1.000000	-1.000000	-1.000000	-1.000000	-1.000000	-1.000000	-1.000000	50.000000	0.000000	-1.000000	-1.000000	459908.000000	1775804192.323818
-11475.405000	-24866.190000	2186.685000	20155.230000	6581.520000	-10931.085000	-47862.405000	-38463.705000	0.210204	0.806159	0.947256	0.852880	1.694700	0.121987	0.058065	-0.511057	-2.105880	-0.198380	-1.709120	-0.572936	0.164123	0.785581	-1.000000	-1.000000	-1.000000	-1.000000	-1.000000	-1.000000	-1.000000	50.000000	0.000000	-1.000000	-1.000000	459909.000000	1775804192.323836
-11476.395000	-24865.650000	2187.630000	20159.325000	6595.560000	-10928.070000	-47865.285000	-38466.630000	-0.328389	-0.754626	-0.995576	-0.049721	2.124102	0.707262	0.983030	0.238413	-4.379620	0.778260	1.007160	-0.568175	0.165588	0.784361	-1.000000	-1.000000	-1.000000	-1.000000	-1.000000	-1.000000	-1.000000	50.000000	0.000000	-1.000000	-1.000000	459910.000000	1775804192.327700
-11473.560000	-24861.510000	2192.220000	20161.980000	6591.915000	-10921.770000	-47862.720000	-38463.930000	-1.071719	-2.154857	-2.528399	-0.330616	4.833690	0.984745	0.951863	0.372316	-4.379620	0.778260	1.007160	-0.568175	0.165588	0.784361	-1.000000	-1.000000	-1.000000	-1.000000	-1.000000	-1.000000	-1.000000	50.000000	0.000000	-1.000000	-1.000000	459911.000000	1775804192.327716
-11471.085000	-24857.370000	2196.990000	20164.770000	6586.380000	-10917.945000	-47857.770000	-38461.635000	-1.157207	-2.329961	-2.623212	-0.012019	5.976211	1.611296	0.847362	0.454452	-4.379620	0.778260	1.007160	-0.568175	0.165588	0.784361	-1.000000	-1.000000	-1.000000	-1.000000	-1.000000	-1.000000	-1.000000	50.000000	0.000000	-1.000000	-1.000000	459912.000000	1775804192.335691
-11472.390000	-24858.495000	2195.325000	20162.070000	6583.050000	-10922.175000	-47858.400000	-38462.175000	-0.289884	-1.120261	-1.262472	0.272340	2.671473	2.454629	1.452892	0.986692	-4.379620	0.778260	1.007160	-0.568175	0.165588	0.784361	-1.000000	-1.000000	-1.000000	-1.000000	-1.000000	-1.000000	-1.000000	50.000000	0.000000	-1.000000	-1.000000	459913.000000	1775804192.335716
-11477.745000	-24864.570000	2189.205000	20156.355000	6575.895000	-10929.150000	-47862.855000	-38465.865000	0.759751	0.324361	0.253011	-0.224005	-3.936718	2.297061	2.276215	1.601387	-4.379620	0.778260	1.007160	-0.568175	0.165588	0.784361	-1.000000	-1.000000	-1.000000	-1.000000	-1.000000	-1.000000	-1.000000	50.000000	0.000000	-1.000000	-1.000000	459914.000000	1775804192.336342
-11482.110000	-24870.465000	2183.355000	20150.640000	6570.405000	-10933.425000	-47865.330000	-38469.330000	0.899576	0.558419	0.430792	-1.734780	-10.088513	0.330028	2.120749	1.474518	-4.379620	0.778260	1.007160	-0.568175	0.165588	0.784361	-1.000000	-1.000000	-1.000000	-1.000000	-1.000000	-1.000000	-1.000000	50.000000	0.000000	-1.000000	-1.000000	459915.000000	1775804192.336356
-11482.695000	-24872.895000	2179.665000	20147.130000	6567.660000	-10933.470000	-47865.060000	-38469.330000	-0.042229	-0.660785	-0.900002	-3.538546	-12.483854	-2.522932	0.678222	0.410021	-4.379620	0.778260	1.007160	-0.568175	0.165588	0.784361	-1.000000	-1.000000	-1.000000	-1.000000	-1.000000	-1.000000	-1.000000	50.000000	0.000000	-1.000000	-1.000000	459916.000000	1775804192.340374
-11478.825000	-24867.135000	2185.785000	20152.980000	6571.890000	-10926.540000	-47861.055000	-38467.080000	-1.010781	-1.971621	-2.290500	-4.185932	-9.894648	-4.124318	-0.993834	-0.781704	-4.379620	0.778260	1.007160	-0.568175	0.165588	0.784361	-1.000000	-1.000000	-1.000000	-1.000000	-1.000000	-1.000000	-1.000000	50.000000	0.000000	-1.000000	-1.000000	459917.000000	1775804192.340382
-11478.105000	-24865.560000	2188.035000	20155.995000	6573.780000	-10923.570000	-47860.155000	-38466.495000	-0.815446	-1.678461	-1.947369	-2.510246	-3.372977	-2.982595	-1.604848	-1.099272	-4.379620	0.778260	1.007160	-0.568175	0.165588	0.784361	-1.000000	-1.000000	-1.000000	-1.000000	-1.000000	-1.000000	-1.000000	50.000000	0.000000	-1.000000	-1.000000	459918.000000	1775804192.343696
-11476.755000	-24863.580000	2189.340000	20157.390000	6574.995000	-10923.255000	-47861.145000	-38466.990000	0.581106	0.456285	0.425053	1.088160	4.230856	0.262430	-0.956301	-0.398263	-4.379620	0.778260	1.007160	-0.568175	0.165588	0.784361	-1.000000	-1.000000	-1.000000	-1.000000	-1.000000	-1.000000	-1.000000	50.000000	0.000000	-1.000000	-1.000000	459919.000000	1775804192.343712
-11478.465000	-24864.255000	2187.720000	20156.985000	6577.470000	-10924.830000	-47863.080000	-38468.790000	2.069475	2.954910	3.213787	4.579752	9.646851	3.288372	0.017267	0.554993	-6.363420	0.717220	2.182180	-0.577696	0.167480	0.783567	-1.000000	-1.000000	-1.000000	-1.000000	-1.000000	-1.000000	-1.000000	50.000000	0.000000	-1.000000	-1.000000	459920.000000	1775804192.348576
-11470.770000	-24854.535000	2195.955000	20162.835000	6584.490000	-10918.890000	-47853.765000	-38459.745000	2.630532	4.246989	4.604296	6.023129	11.079070	4.230229	0.541492	1.099801	-6.363420	0.717220	2.182180	-0.577696	0.167480	0.783567	-1.000000	-1.000000	-1.000000	-1.000000	-1.000000	-1.000000	-1.000000	50.000000	0.000000	-1.000000	-1.000000	459921.000000	1775804192.348595
-11471.400000	-24856.695000	2194.380000	20162.205000	6582.375000	-10919.835000	-47852.595000	-38459.295000	2.203353	3.931985	4.132434	5.024020	8.817328	3.066454	0.805345	1.341615	-6.363420	0.717220	2.182180	-0.577696	0.167480	0.783567	-1.000000	-1.000000	-1.000000	-1.000000	-1.000000	-1.000000	-1.000000	50.000000	0.000000	-1.000000	-1.000000	459922.000000	1775804192.360380
-11476.260000	-24863.445000	2189.070000	20157.930000	6575.445000	-10926.630000	-47859.210000	-38465.460000	1.062606	2.159361	2.185370	2.306596	4.096386	0.742641	0.926533	1.286207	-6.363420	0.717220	2.182180	-0.577696	0.167480	0.783567	-1.000000	-1.000000	-1.000000	-1.000000	-1.000000	-1.000000	-1.000000	50.000000	0.000000	-1.000000	-1.000000	459923.000000	1775804192.360406
-11475.180000	-24862.230000	2190.060000	20157.750000	6572.880000	-10925.055000	-47857.500000	-38464.380000	-0.697736	-0.797891	-0.696440	-1.133624	-1.661508	-1.891254	0.333665	0.397998	-6.363420	0.717220	2.182180	-0.577696	0.167480	0.783567	-1.000000	-1.000000	-1.000000	-1.000000	-1.000000	-1.000000	-1.000000	50.000000	0.000000	-1.000000	-1.000000	459924.000000	1775804192.360433
-11470.905000	-24856.965000	2194.965000	20160.945000	6573.285000	-10918.665000	-47853.720000	-38461.455000	-2.427679	-3.667352	-3.309907	-3.966441	-6.502950	-3.688031	-0.906190	-1.144755	-6.363420	0.717220	2.182180	-0.577696	0.167480	0.783567	-1.000000	-1.000000	-1.000000	-1.000000	-1.000000	-1.000000	-1.000000	50.000000	0.000000	-1.000000	-1.000000	459925.000000	1775804192.360445
-11472.120000	-24857.190000	2195.280000	20161.530000	6575.715000	-10915.245000	-47853.540000	-38463.030000	-3.040157	-4.673308	-4.177462	-4.878241	-8.388279	-3.425845	-1.731477	-2.232276	-6.363420	0.717220	2.182180	-0.577696	0.167480	0.783567	-1.000000	-1.000000	-1.000000	-1.000000	-1.000000	-1.000000	-1.000000	50.000000	0.000000	-1.000000	-1.000000	459926.000000	1775804192.360981
-11475.045000	-24860.745000	2190.555000	20157.570000	6571.035000	-10926.945000	-47858.355000	-38464.380000	-2.346703	-3.480012	-3.125813	-3.728832	-6.726160	-1.449512	-1.618192	-2.245670	-6.363420	0.717220	2.182180	-0.577696	0.167480	0.783567	-1.000000	-1.000000	-1.000000	-1.000000	-1.000000	-1.000000	-1.000000	50.000000	0.000000	-1.000000	-1.000000	459927.000000	1775804192.361014
-11472.300000	-24858.135000	2193.030000	20160.405000	6569.010000	-10924.245000	-47853.855000	-38460.780000	-1.132307	-1.352126	-1.368285	-1.628759	-2.985741	0.306035	-1.024706	-1.441229	-6.363420	0.717220	2.182180	-0.577696	0.167480	0.783567	-1.000000	-1.000000	-1.000000	-1.000000	-1.000000	-1.000000	-1.000000	50.000000	0.000000	-1.000000	-1.000000	459928.000000	1775804192.375966
-11470.455000	-24855.930000	2196.090000	20163.375000	6573.150000	-10922.130000	-47855.340000	-38460.285000	0.022707	0.528860	0.119241	0.375692	0.739240	0.770009	-0.345325	-0.224717	-6.363420	0.717220	2.182180	-0.577696	0.167480	0.783567	-1.000000	-1.000000	-1.000000	-1.000000	-1.000000	-1.000000	-1.000000	50.000000	0.000000	-1.000000	-1.000000	459929.000000	1775804192.375991
-11469.330000	-24855.705000	2193.840000	20160.315000	6576.660000	-10921.365000	-47852.280000	-38457.495000	1.017537	1.782859	1.172285	1.829514	3.395927	0.659951	0.375960	1.028093	-4.578000	0.625660	1.236060	-0.585570	0.159973	0.783567	-1.000000	-1.000000	-1.000000	-1.000000	-1.000000	-1.000000	-1.000000	50.000000	0.000000	-1.000000	-1.000000	459930.000000	1775804192.376018
-11473.965000	-24860.790000	2187.720000	20155.950000	6583.320000	-10921.410000	-47851.065000	-38459.880000	1.595817	2.186637	1.557659	2.281754	4.904702	0.786323	1.051493	1.816250	-4.578000	0.625660	1.236060	-0.585570	0.159973	0.783567	-1.000000	-1.000000	-1.000000	-1.000000	-1.000000	-1.000000	-1.000000	50.000000	0.000000	-1.000000	-1.000000	459931.000000	1775804192.376029
-11471.670000	-24861.105000	2190.735000	20160.630000	6583.455000	-10920.870000	-47853.720000	-38460.915000	1.375515	1.518662	1.007609	1.568353	5.255867	1.096356	1.424451	1.686297	-4.578000	0.625660	1.236060	-0.585570	0.159973	0.783567	-1.000000	-1.000000	-1.000000	-1.000000	-1.000000	-1.000000	-1.000000	50.000000	0.000000	-1.000000	-1.000000	459932.000000	1775804192.376044
-11472.390000	-24860.340000	2191.095000	20159.820000	6575.220000	-10924.695000	-47858.130000	-38463.120000	0.530926	0.187410	0.072938	0.447749	4.033568	1.128936	1.083626	0.619034	-4.578000	0.625660	1.236060	-0.585570	0.159973	0.783567	-1.000000	-1.000000	-1.000000	-1.000000	-1.000000	-1.000000	-1.000000	50.000000	0.000000	-1.000000	-1.000000	459933.000000	1775804192.376062
-11474.100000	-24859.530000	2192.760000	20161.485000	6560.730000	-10930.590000	-47862.990000	-38467.530000	-0.316232	-0.817039	-0.302115	-0.162922	0.733491	0.471333	-0.143452	-0.872167	-4.578000	0.625660	1.236060	-0.585570	0.159973	0.783567	-1.000000	-1.000000	-1.000000	-1.000000	-1.000000	-1.000000	-1.000000	50.000000	0.000000	-1.000000	-1.000000	459934.000000	1775804192.377286
-11468.340000	-24853.005000	2200.185000	20168.910000	6560.955000	-10926.000000	-47858.670000	-38464.695000	-0.685297	-0.752100	0.253829	0.019451	-3.936752	-0.722327	-1.608273	-2.012040	-4.578000	0.625660	1.236060	-0.585570	0.159973	0.783567	-1.000000	-1.000000	-1.000000	-1.000000	-1.000000	-1.000000	-1.000000	50.000000	0.000000	-1.000000	-1.000000	459935.000000	1775804192.377302
-11468.340000	-24854.355000	2199.150000	20167.695000	6567.795000	-10921.860000	-47856.105000	-38464.110000	-0.340916	0.321758	1.390480	0.766231	-7.267990	-1.407156	-2.032282	-2.047969	-4.578000	0.625660	1.236060	-0.585570	0.159973	0.783567	-1.000000	-1.000000	-1.000000	-1.000000	-1.000000	-1.000000	-1.000000	50.000000	0.000000	-1.000000	-1.000000	459936.000000	1775804192.390892
-11475.180000	-24861.105000	2192.985000	20163.645000	6594.480000	-10920.420000	-47860.920000	-38468.790000	0.337146	1.357499	2.048748	1.264198	-6.086551	-0.684477	-0.883822	-0.898639	-4.578000	0.625660	1.236060	-0.585570	0.159973	0.783567	-1.000000	-1.000000	-1.000000	-1.000000	-1.000000	-1.000000	-1.000000	50.000000	0.000000	-1.000000	-1.000000	459937.000000	1775804192.390917
-11470.680000	-24855.570000	2198.295000	20167.110000	6605.055000	-10918.890000	-47859.840000	-38465.820000	0.502211	1.211910	1.269217	0.678347	0.249577	0.970582	0.846159	0.598077	-4.578000	0.625660	1.236060	-0.585570	0.159973	0.783567	-1.000000	-1.000000	-1.000000	-1.000000	-1.000000	-1.000000	-1.000000	50.000000	0.000000	-1.000000	-1.000000	459938.000000	1775804192.390943
-11468.205000	-24854.490000	2199.195000	20166.930000	6591.105000	-10921.455000	-47857.230000	-38463.165000	0.116367	0.134320	-0.449147	-0.692327	7.801945	2.168067	1.950221	1.702771	-4.578000	0.625660	1.236060	-0.585570	0.159973	0.783567	-1.000000	-1.000000	-1.000000	-1.000000	-1.000000	-1.000000	-1.000000	50.000000	0.000000	-1.000000	-1.000000	459939.000000	1775804192.390954
-11469.240000	-24856.560000	2196.720000	20165.265000	6586.065000	-10923.345000	-47856.735000	-38462.670000	-0.110216	-0.770061	-1.795306	-1.833876	10.332462	1.883617	2.176719	2.290967	-0.869820	1.663340	1.876980	-0.582884	0.152282	0.783873	-1.000000	-1.000000	-1.000000	-1.000000	-1.000000	-1.000000	-1.000000	50.000000	0.000000	-1.000000	-1.000000	459940.000000	1775804192.397409
-11471.400000	-24858.945000	2193.885000	20163.330000	6581.970000	-10926.990000	-47860.290000	-38466.090000	-0.033212	-1.127934	-2.281215	-2.235629	5.384141	0.174519	1.696996	2.221061	-0.869820	1.663340	1.876980	-0.582884	0.152282	0.783873	-1.000000	-1.000000	-1.000000	-1.000000	-1.000000	-1.000000	-1.000000	50.000000	0.000000	-1.000000	-1.000000	459941.000000	1775804192.397435
-11468.565000	-24857.550000	2195.820000	20165.490000	6583.860000	-10921.365000	-47855.070000	-38462.220000	-0.029860	-1.188679	-2.134379	-1.924759	-3.304748	-1.828413	0.688232	1.324131	-0.869820	1.663340	1.876980	-0.582884	0.152282	0.783873	-1.000000	-1.000000	-1.000000	-1.000000	-1.000000	-1.000000	-1.000000	50.000000	0.000000	-1.000000	-1.000000	459942.000000	1775804192.397457
-11469.870000	-24858.855000	2194.560000	20165.130000	6583.635000	-10919.025000	-47855.070000	-38462.670000	-0.162551	-1.011000	-1.470542	-1.004186	-9.753866	-2.621591	-0.336478	0.005830	-0.869820	1.663340	1.876980	-0.582884	0.152282	0.783873	-1.000000	-1.000000	-1.000000	-1.000000	-1.000000	-1.000000	-1.000000	50.000000	0.000000	-1.000000	-1.000000	459943.000000	1775804192.397469
-11470.680000	-24859.485000	2194.335000	20163.960000	6581.385000	-10920.285000	-47856.195000	-38463.885000	-0.277013	-0.552727	-0.400984	0.231686	-10.610134	-1.657753	-0.898987	-1.070803	-0.869820	1.663340	1.876980	-0.582884	0.152282	0.783873	-1.000000	-1.000000	-1.000000	-1.000000	-1.000000	-1.000000	-1.000000	50.000000	0.000000	-1.000000	-1.000000	459944.000000	1775804192.398102
-11471.220000	-24861.915000	2191.455000	20159.865000	6575.535000	-10922.985000	-47857.320000	-38463.615000	-0.363267	-0.001378	0.654729	1.155292	-6.696998	0.040205	-1.112215	-1.643694	-0.869820	1.663340	1.876980	-0.582884	0.152282	0.783873	-1.000000	-1.000000	-1.000000	-1.000000	-1.000000	-1.000000	-1.000000	50.000000	0.000000	-1.000000	-1.000000	459945.000000	1775804192.398118
-11475.630000	-24866.865000	2185.020000	20153.520000	6567.345000	-10929.510000	-47862.135000	-38467.710000	-0.486227	0.295958	1.125011	1.166827	-1.295656	0.935422	-1.337140	-1.789570	-0.869820	1.663340	1.876980	-0.582884	0.152282	0.783873	-1.000000	-1.000000	-1.000000	-1.000000	-1.000000	-1.000000	-1.000000	50.000000	0.000000	-1.000000	-1.000000	459946.000000	1775804192.399599
-11477.205000	-24867.630000	2185.110000	20155.185000	6570.675000	-10933.965000	-47864.385000	-38471.220000	-0.694495	0.154257	0.762311	0.315935	2.776231	0.351413	-1.702259	-1.727242	-0.869820	1.663340	1.876980	-0.582884	0.152282	0.783873	-1.000000	-1.000000	-1.000000	-1.000000	-1.000000	-1.000000	-1.000000	50.000000	0.000000	-1.000000	-1.000000	459947.000000	1775804192.399615
-11475.045000	-24862.590000	2190.420000	20157.840000	6570.900000	-10927.890000	-47858.670000	-38467.665000	-0.798362	-0.031344	0.184699	-0.435514	4.867120	-0.923819	-1.807918	-1.502838	-0.869820	1.663340	1.876980	-0.582884	0.152282	0.783873	-1.000000	-1.000000	-1.000000	-1.000000	-1.000000	-1.000000	-1.000000	50.000000	0.000000	-1.000000	-1.000000	459948.000000	1775804192.414600
-11474.145000	-24861.240000	2190.150000	20154.060000	6563.070000	-10925.235000	-47854.665000	-38464.470000	-0.362288	0.445207	0.377461	-0.185535	5.492755	-1.229706	-0.891761	-0.712606	-0.869820	1.663340	1.876980	-0.582884	0.152282	0.783873	-1.000000	-1.000000	-1.000000	-1.000000	-1.000000	-1.000000	-1.000000	50.000000	0.000000	-1.000000	-1.000000	459949.000000	1775804192.414626
-11478.015000	-24867.990000	2187.180000	20156.265000	6569.235000	-10928.385000	-47861.820000	-38471.220000	0.600446	1.438227	1.300472	0.812397	4.923726	0.102837	0.957840	0.699228	1.312360	2.807840	1.754900	-0.579894	0.154663	0.782957	-1.000000	-1.000000	-1.000000	-1.000000	-1.000000	-1.000000	-1.000000	50.000000	0.000000	-1.000000	-1.000000	459950.000000	1775804192.414655
-11474.505000	-24863.985000	2191.995000	20163.060000	6578.415000	-10923.345000	-47857.590000	-38467.845000	1.444728	1.895516	1.960864	1.819357	3.765497	1.988455	2.410352	1.868015	1.312360	2.807840	1.754900	-0.579894	0.154663	0.782957	-1.000000	-1.000000	-1.000000	-1.000000	-1.000000	-1.000000	-1.000000	50.000000	0.000000	-1.000000	-1.000000	459951.000000	1775804192.414667
-11471.490000	-24860.025000	2194.965000	20166.480000	6583.770000	-10919.700000	-47855.790000	-38466.810000	1.783029	1.445010	1.875610	2.556624	3.030068	3.137950	2.559808	2.133963	1.312360	2.807840	1.754900	-0.579894	0.154663	0.782957	-1.000000	-1.000000	-1.000000	-1.000000	-1.000000	-1.000000	-1.000000	50.000000	0.000000	-1.000000	-1.000000	459952.000000	1775804192.414682
-11474.010000	-24861.555000	2192.985000	20163.825000	6580.035000	-10922.715000	-47859.165000	-38469.465000	1.699838	0.716930	1.263947	2.721506	2.626402	3.070587	1.700761	1.673159	1.312360	2.807840	1.754900	-0.579894	0.154663	0.782957	-1.000000	-1.000000	-1.000000	-1.000000	-1.000000	-1.000000	-1.000000	50.000000	0.000000	-1.000000	-1.000000	459953.000000	1775804192.414693
-11472.885000	-24860.880000	2193.525000	20164.185000	6578.685000	-10922.940000	-47857.680000	-38466.720000	1.156001	0.082027	0.248961	1.723666	1.298164	1.712365	0.380327	0.837336	1.312360	2.807840	1.754900	-0.579894	0.154663	0.782957	-1.000000	-1.000000	-1.000000	-1.000000	-1.000000	-1.000000	-1.000000	50.000000	0.000000	-1.000000	-1.000000	459954.000000	1775804192.420547
-11474.325000	-24864.390000	2188.485000	20159.460000	6573.645000	-10926.675000	-47858.895000	-38467.440000	0.132176	-0.622041	-1.121727	-0.487079	-1.562403	-0.582899	-0.916566	-0.031741	1.312360	2.807840	1.754900	-0.579894	0.154663	0.782957	-1.000000	-1.000000	-1.000000	-1.000000	-1.000000	-1.000000	-1.000000	50.000000	0.000000	-1.000000	-1.000000	459955.000000	1775804192.420573
-11470.365000	-24860.295000	2192.670000	20162.970000	6575.040000	-10924.470000	-47855.700000	-38464.605000	-0.955680	-1.389787	-2.443493	-2.975001	-4.901156	-2.833982	-1.647498	-0.579254	1.312360	2.807840	1.754900	-0.579894	0.154663	0.782957	-1.000000	-1.000000	-1.000000	-1.000000	-1.000000	-1.000000	-1.000000	50.000000	0.000000	-1.000000	-1.000000	459956.000000	1775804192.427851
-11470.500000	-24859.620000	2193.975000	20162.385000	6573.330000	-10926.855000	-47857.230000	-38465.595000	-1.503837	-1.759974	-2.926469	-4.354557	-6.830298	-3.927078	-1.536469	-0.693930	1.312360	2.807840	1.754900	-0.579894	0.154663	0.782957	-1.000000	-1.000000	-1.000000	-1.000000	-1.000000	-1.000000	-1.000000	50.000000	0.000000	-1.000000	-1.000000	459957.000000	1775804192.427876
-11475.990000	-24864.390000	2189.385000	20155.725000	6563.565000	-10932.975000	-47863.620000	-38471.805000	-1.423565	-1.459714	-2.182267	-3.987378	-6.373576	-3.527199	-0.962354	-0.689752	1.312360	2.807840	1.754900	-0.579894	0.154663	0.782957	-1.000000	-1.000000	-1.000000	-1.000000	-1.000000	-1.000000	-1.000000	50.000000	0.000000	-1.000000	-1.000000	459958.000000	1775804192.427902
-11478.645000	-24866.280000	2189.880000	20156.670000	6560.460000	-10931.850000	-47866.095000	-38474.640000	-1.293749	-0.950708	-0.847788	-2.502303	-4.234487	-2.228621	-0.699969	-1.075896	1.312360	2.807840	1.754900	-0.579894	0.154663	0.782957	-1.000000	-1.000000	-1.000000	-1.000000	-1.000000	-1.000000	-1.000000	50.000000	0.000000	-1.000000	-1.000000	459959.000000	1775804192.427914
-11476.845000	-24863.760000	2193.480000	20162.025000	6564.780000	-10928.070000	-47865.510000	-38474.415000	-1.393599	-0.648476	0.322557	-0.634380	-1.461491	-0.538848	-0.899909	-1.761554	1.480220	3.540320	2.289000	-0.578246	0.157226	0.782652	-1.000000	-1.000000	-1.000000	-1.000000	-1.000000	-1.000000	-1.000000	50.000000	0.000000	-1.000000	-1.000000	459960.000000	1775804192.431851
-11470.860000	-24860.430000	2193.660000	20163.105000	6572.250000	-10923.390000	-47860.380000	-38469.060000	-1.100593	-0.219533	1.228482	1.447900	1.734111	1.500538	-0.770695	-1.827649	1.480220	3.540320	2.289000	-0.578246	0.157226	0.782652	-1.000000	-1.000000	-1.000000	-1.000000	-1.000000	-1.000000	-1.000000	50.000000	0.000000	-1.000000	-1.000000	459961.000000	1775804192.431880
-11469.645000	-24857.550000	2197.080000	20167.335000	6576.885000	-10921.725000	-47859.120000	-38467.755000	0.199881	0.752880	1.900740	3.368510	5.158647	3.537895	0.377953	-0.542694	1.480220	3.540320	2.289000	-0.578246	0.157226	0.782652	-1.000000	-1.000000	-1.000000	-1.000000	-1.000000	-1.000000	-1.000000	50.000000	0.000000	-1.000000	-1.000000	459962.000000	1775804192.433318
-11471.895000	-24859.215000	2195.190000	20164.905000	6575.130000	-10925.415000	-47859.840000	-38469.105000	1.950187	1.915537	2.115174	4.291245	7.576912	4.543459	2.083220	1.552968	1.480220	3.540320	2.289000	-0.578246	0.157226	0.782652	-1.000000	-1.000000	-1.000000	-1.000000	-1.000000	-1.000000	-1.000000	50.000000	0.000000	-1.000000	-1.000000	459963.000000	1775804192.433335
-11475.900000	-24864.840000	2189.475000	20159.685000	6576.840000	-10931.130000	-47865.195000	-38473.290000	2.723891	2.251664	1.494776	3.464950	7.382992	3.492083	2.975676	2.917595	1.480220	3.540320	2.289000	-0.578246	0.157226	0.782652	-1.000000	-1.000000	-1.000000	-1.000000	-1.000000	-1.000000	-1.000000	50.000000	0.000000	-1.000000	-1.000000	459964.000000	1775804192.436149
-11474.730000	-24864.255000	2189.475000	20159.955000	6579.495000	-10930.140000	-47865.285000	-38472.435000	1.774448	1.130623	-0.065105	0.938433	4.336518	0.543237	2.129725	2.506858	1.480220	3.540320	2.289000	-0.578246	0.157226	0.782652	-1.000000	-1.000000	-1.000000	-1.000000	-1.000000	-1.000000	-1.000000	50.000000	0.000000	-1.000000	-1.000000	459965.000000	1775804192.436164
-11472.750000	-24862.320000	2192.175000	20162.790000	6577.650000	-10927.305000	-47862.315000	-38471.085000	-0.093033	-0.741299	-1.764217	-1.949321	-0.061820	-2.564082	0.128452	0.808460	1.480220	3.540320	2.289000	-0.578246	0.157226	0.782652	-1.000000	-1.000000	-1.000000	-1.000000	-1.000000	-1.000000	-1.000000	50.000000	0.000000	-1.000000	-1.000000	459966.000000	1775804192.445903
-11477.295000	-24866.415000	2189.205000	20159.775000	6573.960000	-10929.690000	-47865.015000	-38475.765000	-1.506960	-1.997281	-2.413665	-3.491299	-3.989949	-3.917599	-1.535387	-0.890088	1.480220	3.540320	2.289000	-0.578246	0.157226	0.782652	-1.000000	-1.000000	-1.000000	-1.000000	-1.000000	-1.000000	-1.000000	50.000000	0.000000	-1.000000	-1.000000	459967.000000	1775804192.445924
-11475.810000	-24863.130000	2192.220000	20161.845000	6575.085000	-10931.985000	-47868.165000	-38476.485000	-1.906499	-2.017546	-1.690114	-3.138258	-6.297110	-3.188681	-2.086863	-1.858525	1.480220	3.540320	2.289000	-0.578246	0.157226	0.782652	-1.000000	-1.000000	-1.000000	-1.000000	-1.000000	-1.000000	-1.000000	50.000000	0.000000	-1.000000	-1.000000	459968.000000	1775804192.445949
-11474.910000	-24861.060000	2195.145000	20162.970000	6574.995000	-10931.445000	-47868.120000	-38476.935000	-1.443786	-0.991128	-0.130091	-1.514368	-6.417694	-1.443559	-1.813122	-2.014975	1.480220	3.540320	2.289000	-0.578246	0.157226	0.782652	-1.000000	-1.000000	-1.000000	-1.000000	-1.000000	-1.000000	-1.000000	50.000000	0.000000	-1.000000	-1.000000	459969.000000	1775804192.445960
-11474.505000	-24861.645000	2194.695000	20162.610000	6572.610000	-10929.600000	-47865.420000	-38475.135000	-0.414044	0.534486	1.500959	0.412051	-4.507514	0.293614	-1.074031	-1.387108	0.579880	4.104940	3.555580	-0.579832	0.162048	0.782102	-1.000000	-1.000000	-1.000000	-1.000000	-1.000000	-1.000000	-1.000000	50.000000	0.000000	-1.000000	-1.000000	459970.000000	1775804192.454326
-11474.505000	-24863.355000	2192.175000	20159.730000	6551.595000	-10930.590000	-47862.180000	-38471.670000	0.709227	1.685449	2.339362	1.695048	-1.955707	1.569229	0.090975	-0.096864	0.579880	4.104940	3.555580	-0.579832	0.162048	0.782102	-1.000000	-1.000000	-1.000000	-1.000000	-1.000000	-1.000000	-1.000000	50.000000	0.000000	-1.000000	-1.000000	459971.000000	1775804192.454347
-11468.790000	-24859.980000	2194.110000	20159.865000	6539.760000	-10930.095000	-47856.870000	-38464.650000	1.485056	1.820526	1.875166	1.785520	-0.766205	2.145669	1.539772	1.542291	0.579880	4.104940	3.555580	-0.579832	0.162048	0.782102	-1.000000	-1.000000	-1.000000	-1.000000	-1.000000	-1.000000	-1.000000	50.000000	0.000000	-1.000000	-1.000000	459972.000000	1775804192.454370
-11473.110000	-24863.985000	2189.880000	20157.570000	6548.085000	-10929.330000	-47857.185000	-38468.430000	1.743758	1.072475	0.456596	0.907670	-1.095926	1.949159	2.721519	2.892442	0.579880	4.104940	3.555580	-0.579832	0.162048	0.782102	-1.000000	-1.000000	-1.000000	-1.000000	-1.000000	-1.000000	-1.000000	50.000000	0.000000	-1.000000	-1.000000	459973.000000	1775804192.454382
-11478.105000	-24866.730000	2187.765000	20160.000000	6590.880000	-10923.615000	-47859.255000	-38473.380000	1.214500	-0.116481	-1.147286	-0.164684	0.179946	1.311687	2.801309	2.895931	0.579880	4.104940	3.555580	-0.579832	0.162048	0.782102	-1.000000	-1.000000	-1.000000	-1.000000	-1.000000	-1.000000	-1.000000	50.000000	0.000000	-1.000000	-1.000000	459974.000000	1775804192.457358
-11479.455000	-24866.595000	2187.315000	20159.370000	6597.765000	-10922.130000	-47859.435000	-38474.280000	-0.264798	-1.327683	-2.263165	-0.693832	5.903816	0.777558	1.345518	0.987287	0.579880	4.104940	3.555580	-0.579832	0.162048	0.782102	-1.000000	-1.000000	-1.000000	-1.000000	-1.000000	-1.000000	-1.000000	50.000000	0.000000	-1.000000	-1.000000	459975.000000	1775804192.457380
-11477.340000	-24863.940000	2189.970000	20160.495000	6583.500000	-10922.670000	-47861.145000	-38474.280000	-1.928877	-1.923524	-2.328775	-0.468072	12.963146	0.459863	-1.035695	-1.833359	0.579880	4.104940	3.555580	-0.579832	0.162048	0.782102	-1.000000	-1.000000	-1.000000	-1.000000	-1.000000	-1.000000	-1.000000	50.000000	0.000000	-1.000000	-1.000000	459976.000000	1775804192.462948
-11476.350000	-24860.790000	2193.435000	20163.960000	6582.510000	-10922.850000	-47865.510000	-38473.200000	-2.490174	-1.343958	-1.108283	0.219123	14.136458	-0.049508	-3.151208	-3.699931	0.579880	4.104940	3.555580	-0.579832	0.162048	0.782102	-1.000000	-1.000000	-1.000000	-1.000000	-1.000000	-1.000000	-1.000000	50.000000	0.000000	-1.000000	-1.000000	459977.000000	1775804192.462973
-11476.395000	-24860.340000	2194.425000	20165.940000	6584.220000	-10920.915000	-47863.440000	-38473.065000	-1.487448	0.206441	0.915891	0.978819	6.746325	-0.924590	-4.077675	-3.529130	0.579880	4.104940	3.555580	-0.579832	0.162048	0.782102	-1.000000	-1.000000	-1.000000	-1.000000	-1.000000	-1.000000	-1.000000	50.000000	0.000000	-1.000000	-1.000000	459978.000000	1775804192.465011
-11475.450000	-24858.765000	2194.920000	20165.490000	6581.385000	-10921.950000	-47861.955000	-38472.615000	0.325599	1.749947	2.624918	1.410998	-4.567217	-1.765322	-3.358611	-1.681489	0.579880	4.104940	3.555580	-0.579832	0.162048	0.782102	-1.000000	-1.000000	-1.000000	-1.000000	-1.000000	-1.000000	-1.000000	50.000000	0.000000	-1.000000	-1.000000	459979.000000	1775804192.465034
-11478.735000	-24861.915000	2191.185000	20161.260000	6573.465000	-10927.260000	-47865.645000	-38477.565000	1.750223	2.270780	2.944783	1.049255	-13.338134	-2.216258	-1.266900	0.522446	-2.807840	2.823100	3.494540	-0.580443	0.169006	0.784239	-1.000000	-1.000000	-1.000000	-1.000000	-1.000000	-1.000000	-1.000000	50.000000	0.000000	-1.000000	-1.000000	459980.000000	1775804192.471306
-11475.450000	-24861.195000	2192.085000	20161.620000	6571.845000	-10926.360000	-47863.485000	-38475.045000	2.055217	1.426072	1.625325	-0.227592	-16.127636	-2.291297	1.086381	1.829764	-2.807840	2.823100	3.494540	-0.580443	0.169006	0.784239	-1.000000	-1.000000	-1.000000	-1.000000	-1.000000	-1.000000	-1.000000	50.000000	0.000000	-1.000000	-1.000000	459981.000000	1775804192.471328
-11470.455000	-24858.540000	2193.885000	20163.960000	6575.310000	-10921.905000	-47858.895000	-38469.780000	1.513387	-0.163576	-0.450972	-1.705903	-12.842847	-1.816765	2.730542	2.073692	-2.807840	2.823100	3.494540	-0.580443	0.169006	0.784239	-1.000000	-1.000000	-1.000000	-1.000000	-1.000000	-1.000000	-1.000000	50.000000	0.000000	-1.000000	-1.000000	459982.000000	1775804192.473998
-11473.560000	-24859.260000	2192.895000	20161.800000	6573.465000	-10933.470000	-47865.825000	-38473.470000	0.870027	-1.394880	-1.955655	-2.339889	-5.486356	-0.670468	3.331423	1.884989	-2.807840	2.823100	3.494540	-0.580443	0.169006	0.784239	-1.000000	-1.000000	-1.000000	-1.000000	-1.000000	-1.000000	-1.000000	50.000000	0.000000	-1.000000	-1.000000	459983.000000	1775804192.474014
-11467.350000	-24849.630000	2198.520000	20162.835000	6568.335000	-10925.595000	-47855.610000	-38462.760000	0.381502	-1.530796	-2.158705	-1.820099	2.570671	0.567886	2.843615	1.641405	-2.807840	2.823100	3.494540	-0.580443	0.169006	0.784239	-1.000000	-1.000000	-1.000000	-1.000000	-1.000000	-1.000000	-1.000000	50.000000	0.000000	-1.000000	-1.000000	459984.000000	1775804192.475788
-11469.555000	-24854.985000	2193.345000	20157.570000	6563.430000	-10922.895000	-47853.225000	-38462.085000	-0.052958	-0.617624	-1.259766	-0.724503	7.906952	1.543808	1.800422	1.463569	-2.807840	2.823100	3.494540	-0.580443	0.169006	0.784239	-1.000000	-1.000000	-1.000000	-1.000000	-1.000000	-1.000000	-1.000000	50.000000	0.000000	-1.000000	-1.000000	459985.000000	1775804192.475801
-11475.090000	-24861.600000	2189.880000	20158.470000	6571.125000	-10926.180000	-47859.930000	-38471.355000	-0.648570	0.278640	-0.238338	0.170921	9.160401	2.388820	0.787279	1.048730	-2.807840	2.823100	3.494540	-0.580443	0.169006	0.784239	-1.000000	-1.000000	-1.000000	-1.000000	-1.000000	-1.000000	-1.000000	50.000000	0.000000	-1.000000	-1.000000	459986.000000	1775804192.486049
-11481.030000	-24868.620000	2185.380000	20159.145000	6580.755000	-10930.680000	-47866.050000	-38478.555000	-1.735190	-0.159457	-0.074792	0.615717	7.748898	2.608121	-0.574075	-0.498831	-2.807840	2.823100	3.494540	-0.580443	0.169006	0.784239	-1.000000	-1.000000	-1.000000	-1.000000	-1.000000	-1.000000	-1.000000	50.000000	0.000000	-1.000000	-1.000000	459987.000000	1775804192.486073
-11481.120000	-24869.655000	2183.895000	20155.725000	6570.945000	-10932.615000	-47864.790000	-38477.700000	-3.053889	-1.833572	-0.740997	0.840370	5.644426	1.557472	-2.529206	-3.118994	-2.807840	2.823100	3.494540	-0.580443	0.169006	0.784239	-1.000000	-1.000000	-1.000000	-1.000000	-1.000000	-1.000000	-1.000000	50.000000	0.000000	-1.000000	-1.000000	459988.000000	1775804192.486100
-11479.680000	-24867.540000	2185.020000	20155.680000	6568.560000	-10933.695000	-47863.395000	-38477.565000	-3.492286	-3.067010	-1.280243	0.922358	3.040810	-0.336588	-3.973700	-5.004237	-2.807840	2.823100	3.494540	-0.580443	0.169006	0.784239	-1.000000	-1.000000	-1.000000	-1.000000	-1.000000	-1.000000	-1.000000	50.000000	0.000000	-1.000000	-1.000000	459989.000000	1775804192.486112
-11475.000000	-24861.960000	2191.545000	20160.720000	6572.745000	-10930.770000	-47862.360000	-38474.685000	-2.095351	-2.223016	-0.688844	0.908748	-0.343344	-1.800340	-3.581872	-4.389897	-5.463080	1.983800	2.380560	-0.580931	0.169006	0.786070	-1.000000	-1.000000	-1.000000	-1.000000	-1.000000	-1.000000	-1.000000	50.000000	0.000000	-1.000000	-1.000000	459990.000000	1775804192.497335
-11476.530000	-24862.635000	2191.455000	20160.360000	6572.745000	-10932.525000	-47866.410000	-38476.305000	0.799084	0.690404	1.176465	1.065946	-3.368823	-1.886289	-1.461458	-1.378758	-5.463080	1.983800	2.380560	-0.580931	0.169006	0.786070	-1.000000	-1.000000	-1.000000	-1.000000	-1.000000	-1.000000	-1.000000	50.000000	0.000000	-1.000000	-1.000000	459991.000000	1775804192.497362
-11474.685000	-24860.970000	2192.535000	20162.295000	6576.480000	-10926.450000	-47861.280000	-38473.785000	3.595482	3.892967	3.213247	1.349858	-4.587268	-0.681273	1.046452	2.266662	-5.463080	1.983800	2.380560	-0.580931	0.169006	0.786070	-1.000000	-1.000000	-1.000000	-1.000000	-1.000000	-1.000000	-1.000000	50.000000	0.000000	-1.000000	-1.000000	459992.000000	1775804192.497390
-11478.150000	-24862.095000	2190.420000	20160.720000	6573.735000	-10927.035000	-47865.240000	-38478.420000	4.681030	5.349765	3.904400	1.288821	-3.826155	1.013124	2.746225	4.586166	-5.463080	1.983800	2.380560	-0.580931	0.169006	0.786070	-1.000000	-1.000000	-1.000000	-1.000000	-1.000000	-1.000000	-1.000000	50.000000	0.000000	-1.000000	-1.000000	459993.000000	1775804192.497399
-11476.080000	-24857.460000	2194.740000	20164.005000	6571.260000	-10926.450000	-47864.880000	-38476.665000	3.597662	4.390288	2.718492	0.617430	-2.159938	2.197665	3.110788	4.613362	-5.463080	1.983800	2.380560	-0.580931	0.169006	0.786070	-1.000000	-1.000000	-1.000000	-1.000000	-1.000000	-1.000000	-1.000000	50.000000	0.000000	-1.000000	-1.000000	459994.000000	1775804192.500947
-11472.975000	-24856.695000	2195.010000	20165.085000	6570.900000	-10924.425000	-47859.345000	-38470.770000	1.274788	1.923593	0.507380	-0.349078	-0.829914	2.178431	2.325151	2.902625	-5.463080	1.983800	2.380560	-0.580931	0.169006	0.786070	-1.000000	-1.000000	-1.000000	-1.000000	-1.000000	-1.000000	-1.000000	50.000000	0.000000	-1.000000	-1.000000	459995.000000	1775804192.500971
-11476.125000	-24862.230000	2189.250000	20160.495000	6574.050000	-10927.035000	-47860.965000	-38473.020000	-0.861142	-0.767174	-1.583015	-1.176038	-0.150142	1.024480	1.194890	0.905792	-5.463080	1.983800	2.380560	-0.580931	0.169006	0.786070	-1.000000	-1.000000	-1.000000	-1.000000	-1.000000	-1.000000	-1.000000	50.000000	0.000000	-1.000000	-1.000000	459996.000000	1775804192.500996
-11473.380000	-24858.090000	2194.650000	20166.570000	6579.630000	-10925.460000	-47859.480000	-38471.895000	-2.062656	-2.924467	-2.974196	-1.704709	0.457554	-0.635617	0.277577	-0.523263	-5.463080	1.983800	2.380560	-0.580931	0.169006	0.786070	-1.000000	-1.000000	-1.000000	-1.000000	-1.000000	-1.000000	-1.000000	50.000000	0.000000	-1.000000	-1.000000	459997.000000	1775804192.501008
-11474.595000	-24859.170000	2194.380000	20165.985000	6577.110000	-10925.595000	-47857.815000	-38473.110000	-2.313099	-3.978796	-3.264261	-1.706284	1.369710	-2.008962	-0.414211	-1.434861	-5.463080	1.983800	2.380560	-0.580931	0.169006	0.786070	-1.000000	-1.000000	-1.000000	-1.000000	-1.000000	-1.000000	-1.000000	50.000000	0.000000	-1.000000	-1.000000	459998.000000	1775804192.514385
-11479.095000	-24862.725000	2186.460000	20155.410000	6566.760000	-10929.465000	-47856.330000	-38474.010000	-1.962161	-3.663081	-2.460221	-1.260498	1.854189	-2.560466	-0.880013	-2.018511	-5.463080	1.983800	2.380560	-0.580931	0.169006	0.786070	-1.000000	-1.000000	-1.000000	-1.000000	-1.000000	-1.000000	-1.000000	50.000000	0.000000	-1.000000	-1.000000	459999.000000	1775804192.514430
-11477.070000	-24861.600000	2189.160000	20159.010000	6567.480000	-10927.305000	-47858.265000	-38475.360000	-1.489646	-2.436469	-1.347434	-1.030088	0.905264	-2.301449	-1.112848	-2.291506	-4.059160	1.358140	0.549360	-0.577330	0.164489	0.787351	-1.000000	-1.000000	-1.000000	-1.000000	-1.000000	-1.000000	-1.000000	50.000000	0.000000	-1.000000	-1.000000	460000.000000	1775804192.514459
-11475.765000	-24860.745000	2190.870000	20163.735000	6572.475000	-10924.380000	-47857.905000	-38474.235000	-0.947887	-0.885165	-0.380832	-0.940736	-0.895221	-1.371106	-1.258929	-2.132662	-4.059160	1.358140	0.549360	-0.577330	0.164489	0.787351	-1.000000	-1.000000	-1.000000	-1.000000	-1.000000	-1.000000	-1.000000	50.000000	0.000000	-1.000000	-1.000000	460001.000000	1775804192.514472
-11477.205000	-24861.645000	2189.295000	20162.070000	6579.045000	-10922.175000	-47858.715000	-38476.305000	-0.115516	0.655294	0.644478	-0.162108	-1.622915	0.133348	-1.373918	-1.449446	-4.059160	1.358140	0.549360	-0.577330	0.164489	0.787351	-1.000000	-1.000000	-1.000000	-1.000000	-1.000000	-1.000000	-1.000000	50.000000	0.000000	-1.000000	-1.000000	460002.000000	1775804192.514486
-11483.505000	-24865.965000	2185.920000	20155.725000	6571.395000	-10928.430000	-47866.410000	-38484.765000	0.696263	1.730218	1.556737	1.108475	-0.500364	1.601876	-1.442141	-0.581663	-4.059160	1.358140	0.549360	-0.577330	0.164489	0.787351	-1.000000	-1.000000	-1.000000	-1.000000	-1.000000	-1.000000	-1.000000	50.000000	0.000000	-1.000000	-1.000000	460003.000000	1775804192.514497
-11482.695000	-24863.850000	2188.080000	20157.480000	6569.235000	-10930.455000	-47867.220000	-38483.415000	0.873137	1.925733	1.847220	1.729974	1.033097	1.997269	-1.551332	-0.109235	-4.059160	1.358140	0.549360	-0.577330	0.164489	0.787351	-1.000000	-1.000000	-1.000000	-1.000000	-1.000000	-1.000000	-1.000000	50.000000	0.000000	-1.000000	-1.000000	460004.000000	1775804192.521520
-11480.625000	-24862.590000	2189.205000	20157.570000	6566.535000	-10934.595000	-47868.255000	-38481.210000	0.525321	1.477596	1.546590	1.361232	1.275857	0.954056	-1.501001	0.098130	-4.059160	1.358140	0.549360	-0.577330	0.164489	0.787351	-1.000000	-1.000000	-1.000000	-1.000000	-1.000000	-1.000000	-1.000000	50.000000	0.000000	-1.000000	-1.000000	460005.000000	1775804192.521542
-11480.400000	-24864.120000	2188.170000	20157.120000	6569.190000	-10934.235000	-47866.995000	-38480.310000	0.397862	0.989343	1.093222	0.672460	0.253609	-0.694847	-0.772091	0.742966	-4.059160	1.358140	0.549360	-0.577330	0.164489	0.787351	-1.000000	-1.000000	-1.000000	-1.000000	-1.000000	-1.000000	-1.000000	50.000000	0.000000	-1.000000	-1.000000	460006.000000	1775804192.521569
-11476.710000	-24860.520000	2191.500000	20159.280000	6568.605000	-10930.545000	-47864.205000	-38477.655000	0.839314	0.712366	0.709391	0.270659	-0.758547	-1.594941	0.789138	1.925467	-4.059160	1.358140	0.549360	-0.577330	0.164489	0.787351	-1.000000	-1.000000	-1.000000	-1.000000	-1.000000	-1.000000	-1.000000	50.000000	0.000000	-1.000000	-1.000000	460007.000000	1775804192.521581
-11479.140000	-24863.040000	2189.655000	20157.570000	6563.070000	-10932.795000	-47865.780000	-38478.690000	1.470371	0.553917	0.389057	0.249715	-0.957048	-0.997342	2.608545	2.930701	-4.059160	1.358140	0.549360	-0.577330	0.164489	0.787351	-1.000000	-1.000000	-1.000000	-1.000000	-1.000000	-1.000000	-1.000000	50.000000	0.000000	-1.000000	-1.000000	460008.000000	1775804192.524509
-11482.830000	-24868.170000	2183.715000	20151.945000	6553.710000	-10937.115000	-47867.355000	-38479.545000	1.522464	0.192830	-0.093764	0.218023	-0.798805	0.461501	3.632823	2.920344	-4.059160	1.358140	0.549360	-0.577330	0.164489	0.787351	-1.000000	-1.000000	-1.000000	-1.000000	-1.000000	-1.000000	-1.000000	50.000000	0.000000	-1.000000	-1.000000	460009.000000	1775804192.524526
-11480.490000	-24864.345000	2187.810000	20156.265000	6564.420000	-10931.040000	-47865.555000	-38479.230000	0.580219	-0.587700	-0.923930	-0.212815	-0.804248	1.545996	3.174771	1.646531	-2.380560	1.739640	-0.061040	-0.571349	0.164795	0.788511	-1.000000	-1.000000	-1.000000	-1.000000	-1.000000	-1.000000	-1.000000	50.000000	0.000000	-1.000000	-1.000000	460010.000000	1775804192.530633
-11482.290000	-24865.290000	2188.080000	20156.265000	6574.410000	-10928.835000	-47866.275000	-38482.425000	-0.806606	-1.305342	-1.597519	-0.699034	-0.159795	1.919195	1.577143	-0.335988	-2.380560	1.739640	-0.061040	-0.571349	0.164795	0.788511	-1.000000	-1.000000	-1.000000	-1.000000	-1.000000	-1.000000	-1.000000	50.000000	0.000000	-1.000000	-1.000000	460011.000000	1775804192.530660
-11478.150000	-24861.330000	2191.905000	20159.370000	6573.465000	-10928.115000	-47862.675000	-38478.375000	-1.657744	-1.250621	-1.364860	-0.596918	1.889387	1.917345	-0.185017	-2.078303	-2.380560	1.739640	-0.061040	-0.571349	0.164795	0.788511	-1.000000	-1.000000	-1.000000	-1.000000	-1.000000	-1.000000	-1.000000	50.000000	0.000000	-1.000000	-1.000000	460012.000000	1775804192.544579
-11483.370000	-24866.190000	2187.630000	20155.770000	6570.630000	-10933.515000	-47865.330000	-38482.065000	-1.547759	-0.441816	-0.305423	0.051238	3.975431	1.439643	-1.339828	-2.793633	-2.380560	1.739640	-0.061040	-0.571349	0.164795	0.788511	-1.000000	-1.000000	-1.000000	-1.000000	-1.000000	-1.000000	-1.000000	50.000000	0.000000	-1.000000	-1.000000	460013.000000	1775804192.544605
-11484.135000	-24867.945000	2186.145000	20154.825000	6567.300000	-10934.955000	-47865.105000	-38482.200000	-0.921768	0.323830	0.635684	0.528684	3.874334	0.120450	-1.775978	-2.391943	-2.380560	1.739640	-0.061040	-0.571349	0.164795	0.788511	-1.000000	-1.000000	-1.000000	-1.000000	-1.000000	-1.000000	-1.000000	50.000000	0.000000	-1.000000	-1.000000	460014.000000	1775804192.544631
-11483.865000	-24867.315000	2185.560000	20152.440000	6548.670000	-10937.700000	-47863.665000	-38480.805000	-0.410829	0.396721	0.696610	0.286943	0.838670	-1.746369	-1.746599	-1.363152	-2.380560	1.739640	-0.061040	-0.571349	0.164795	0.788511	-1.000000	-1.000000	-1.000000	-1.000000	-1.000000	-1.000000	-1.000000	50.000000	0.000000	-1.000000	-1.000000	460015.000000	1775804192.544643
-11479.455000	-24861.645000	2191.230000	20157.120000	6540.345000	-10935.315000	-47861.145000	-38477.880000	-0.005261	0.114170	0.183626	-0.392366	-4.038494	-3.108217	-1.327105	-0.099421	-2.380560	1.739640	-0.061040	-0.571349	0.164795	0.788511	-1.000000	-1.000000	-1.000000	-1.000000	-1.000000	-1.000000	-1.000000	50.000000	0.000000	-1.000000	-1.000000	460016.000000	1775804192.544854
-11477.115000	-24858.360000	2191.860000	20154.645000	6540.210000	-10936.440000	-47861.415000	-38474.460000	0.674465	0.308749	0.004498	-0.738895	-8.119304	-3.025996	-0.553027	1.200865	-2.380560	1.739640	-0.061040	-0.571349	0.164795	0.788511	-1.000000	-1.000000	-1.000000	-1.000000	-1.000000	-1.000000	-1.000000	50.000000	0.000000	-1.000000	-1.000000	460017.000000	1775804192.544880
-11469.420000	-24845.580000	2194.875000	20153.880000	6579.630000	-10918.890000	-47839.545000	-38455.605000	1.675301	1.321267	0.484554	-0.489774	-7.713466	-1.219879	0.613255	2.522519	-2.380560	1.739640	-0.061040	-0.571349	0.164795	0.788511	-1.000000	-1.000000	-1.000000	-1.000000	-1.000000	-1.000000	-1.000000	50.000000	0.000000	-1.000000	-1.000000	460018.000000	1775804192.561159
-11478.600000	-24857.640000	2192.355000	20161.440000	6607.755000	-10920.825000	-47854.980000	-38474.865000	2.384234	2.460516	1.053205	0.081434	-0.421462	1.840970	2.073601	3.525388	-2.380560	1.739640	-0.061040	-0.571349	0.164795	0.788511	-1.000000	-1.000000	-1.000000	-1.000000	-1.000000	-1.000000	-1.000000	50.000000	0.000000	-1.000000	-1.000000	460019.000000	1775804192.561185
-11483.235000	-24862.365000	2192.310000	20164.815000	6593.085000	-10924.605000	-47865.060000	-38485.530000	1.694520	2.076834	0.944083	0.896072	10.570735	4.401429	2.334329	2.557807	-2.380560	2.319520	-0.473060	-0.570616	0.169494	0.788023	-1.000000	-1.000000	-1.000000	-1.000000	-1.000000	-1.000000	-1.000000	50.000000	0.000000	-1.000000	-1.000000	460020.000000	1775804192.561212
-11480.805000	-24860.385000	2194.335000	20164.320000	6579.990000	-10927.305000	-47866.995000	-38483.460000	-0.623822	-0.544904	0.041817	1.746327	16.471119	4.263421	-0.117563	-1.270459	-2.380560	2.319520	-0.473060	-0.570616	0.169494	0.788023	-1.000000	-1.000000	-1.000000	-1.000000	-1.000000	-1.000000	-1.000000	50.000000	0.000000	-1.000000	-1.000000	460021.000000	1775804192.561225
-11475.540000	-24856.515000	2197.260000	20166.030000	6579.585000	-10928.115000	-47863.530000	-38477.115000	-2.908744	-3.585176	-0.939803	1.908249	11.308891	1.197552	-3.791806	-5.377624	-2.380560	2.319520	-0.473060	-0.570616	0.169494	0.788023	-1.000000	-1.000000	-1.000000	-1.000000	-1.000000	-1.000000	-1.000000	50.000000	0.000000	-1.000000	-1.000000	460022.000000	1775804192.561239
-11480.940000	-24864.390000	2188.485000	20158.875000	6575.130000	-10928.925000	-47860.515000	-38479.095000	-3.332893	-4.714833	-1.409067	0.836499	-1.553461	-2.712095	-5.391769	-6.214282	-2.380560	2.319520	-0.473060	-0.570616	0.169494	0.788023	-1.000000	-1.000000	-1.000000	-1.000000	-1.000000	-1.000000	-1.000000	50.000000	0.000000	-1.000000	-1.000000	460023.000000	1775804192.561251
-11486.970000	-24871.185000	2181.420000	20152.710000	6568.785000	-10933.200000	-47864.655000	-38484.315000	-2.098828	-3.767548	-1.731867	-1.358662	-13.546061	-5.138949	-3.528638	-3.386550	-2.380560	2.319520	-0.473060	-0.570616	0.169494	0.788023	-1.000000	-1.000000	-1.000000	-1.000000	-1.000000	-1.000000	-1.000000	50.000000	0.000000	-1.000000	-1.000000	460024.000000	1775804192.561265
-11485.620000	-24868.440000	2183.760000	20153.970000	6567.255000	-10934.820000	-47867.940000	-38484.630000	-0.680500	-2.005346	-2.269982	-3.745529	-18.394864	-5.176408	0.148482	0.566066	-2.380560	2.319520	-0.473060	-0.570616	0.169494	0.788023	-1.000000	-1.000000	-1.000000	-1.000000	-1.000000	-1.000000	-1.000000	50.000000	0.000000	-1.000000	-1.000000	460025.000000	1775804192.561275
-11485.710000	-24866.730000	2185.020000	20153.970000	6562.575000	-10934.955000	-47869.380000	-38485.440000	0.269639	-0.023142	-2.256768	-4.731730	-14.999898	-3.269446	3.027508	3.255106	-2.380560	2.319520	-0.473060	-0.570616	0.169494	0.788023	-1.000000	-1.000000	-1.000000	-1.000000	-1.000000	-1.000000	-1.000000	50.000000	0.000000	-1.000000	-1.000000	460026.000000	1775804192.561289
-11482.560000	-24864.165000	2187.900000	20155.455000	6563.475000	-10928.880000	-47865.240000	-38482.020000	1.093430	2.196545	-0.790710	-3.333343	-6.296587	-0.291571	3.958794	4.084091	-2.380560	2.319520	-0.473060	-0.570616	0.169494	0.788023	-1.000000	-1.000000	-1.000000	-1.000000	-1.000000	-1.000000	-1.000000	50.000000	0.000000	-1.000000	-1.000000	460027.000000	1775804192.561300
-11480.490000	-24861.240000	2191.725000	20159.910000	6568.605000	-10925.730000	-47863.440000	-38481.120000	2.052149	4.216350	1.806504	-0.108946	3.413633	2.901448	3.535346	3.674525	-2.380560	2.319520	-0.473060	-0.570616	0.169494	0.788023	-1.000000	-1.000000	-1.000000	-1.000000	-1.000000	-1.000000	-1.000000	50.000000	0.000000	-1.000000	-1.000000	460028.000000	1775804192.565230
-11481.480000	-24861.465000	2191.365000	20159.775000	6572.610000	-10926.225000	-47863.215000	-38482.110000	2.820487	5.170403	4.181419	3.346940	10.740466	5.249433	2.679169	2.695173	-2.380560	2.319520	-0.473060	-0.570616	0.169494	0.788023	-1.000000	-1.000000	-1.000000	-1.000000	-1.000000	-1.000000	-1.000000	50.000000	0.000000	-1.000000	-1.000000	460029.000000	1775804192.565255
-11480.040000	-24861.825000	2190.645000	20157.930000	6570.135000	-10925.955000	-47861.415000	-38481.030000	2.770742	4.409125	4.906399	5.298792	13.770653	5.627255	1.686362	1.383047	-4.272800	3.982860	-0.732480	-0.574828	0.170715	0.787413	-1.000000	-1.000000	-1.000000	-1.000000	-1.000000	-1.000000	-1.000000	50.000000	0.000000	-1.000000	-1.000000	460030.000000	1775804192.568673
-11476.080000	-24858.270000	2193.930000	20161.575000	6572.205000	-10934.955000	-47862.090000	-38479.095000	1.758595	2.120923	3.510972	4.848549	12.012056	3.595046	0.515089	-0.044289	-4.272800	3.982860	-0.732480	-0.574828	0.170715	0.787413	-1.000000	-1.000000	-1.000000	-1.000000	-1.000000	-1.000000	-1.000000	50.000000	0.000000	-1.000000	-1.000000	460031.000000	1775804192.568697
-11481.120000	-24862.050000	2191.590000	20161.755000	6575.175000	-10936.530000	-47863.845000	-38483.820000	0.254903	-0.673345	0.832858	2.592445	6.752757	-0.164738	-0.802010	-1.260586	-4.272800	3.982860	-0.732480	-0.574828	0.170715	0.787413	-1.000000	-1.000000	-1.000000	-1.000000	-1.000000	-1.000000	-1.000000	50.000000	0.000000	-1.000000	-1.000000	460032.000000	1775804192.571803
-11486.205000	-24867.675000	2186.100000	20155.320000	6568.380000	-10938.690000	-47869.290000	-38490.300000	-1.415249	-3.055112	-1.932150	-0.199114	0.453478	-3.905812	-2.152547	-2.273674	-4.272800	3.982860	-0.732480	-0.574828	0.170715	0.787413	-1.000000	-1.000000	-1.000000	-1.000000	-1.000000	-1.000000	-1.000000	50.000000	0.000000	-1.000000	-1.000000	460033.000000	1775804192.571822
-11482.650000	-24862.185000	2191.230000	20159.055000	6570.585000	-10935.765000	-47867.580000	-38487.960000	-2.968239	-4.493197	-3.904376	-2.592555	-4.765347	-5.618262	-3.229781	-3.114494	-4.272800	3.982860	-0.732480	-0.574828	0.170715	0.787413	-1.000000	-1.000000	-1.000000	-1.000000	-1.000000	-1.000000	-1.000000	50.000000	0.000000	-1.000000	-1.000000	460034.000000	1775804192.575831
-11480.400000	-24857.640000	2195.280000	20163.195000	6573.195000	-10933.650000	-47866.545000	-38487.960000	-3.528339	-4.278939	-4.222526	-3.731040	-7.520245	-4.378576	-3.383096	-3.184555	-4.272800	3.982860	-0.732480	-0.574828	0.170715	0.787413	-1.000000	-1.000000	-1.000000	-1.000000	-1.000000	-1.000000	-1.000000	50.000000	0.000000	-1.000000	-1.000000	460035.000000	1775804192.575848
-11483.415000	-24860.430000	2193.300000	20161.170000	6573.105000	-10933.605000	-47865.555000	-38489.490000	-2.481246	-2.206364	-2.603930	-3.067577	-7.209529	-1.020398	-2.157422	-1.953557	-4.272800	3.982860	-0.732480	-0.574828	0.170715	0.787413	-1.000000	-1.000000	-1.000000	-1.000000	-1.000000	-1.000000	-1.000000	50.000000	0.000000	-1.000000	-1.000000	460036.000000	1775804192.581720
-11483.730000	-24862.905000	2190.015000	20159.100000	6572.835000	-10932.345000	-47862.360000	-38485.890000	-0.516916	0.442710	-0.211500	-1.296586	-4.574275	2.461959	0.047886	0.158313	-4.272800	3.982860	-0.732480	-0.574828	0.170715	0.787413	-1.000000	-1.000000	-1.000000	-1.000000	-1.000000	-1.000000	-1.000000	50.000000	0.000000	-1.000000	-1.000000	460037.000000	1775804192.581744
-11483.325000	-24864.075000	2187.540000	20154.825000	6563.340000	-10934.370000	-47861.955000	-38483.280000	1.149791	1.961662	1.272731	0.145181	-1.464159	4.280686	2.217238	2.267258	-4.272800	3.982860	-0.732480	-0.574828	0.170715	0.787413	-1.000000	-1.000000	-1.000000	-1.000000	-1.000000	-1.000000	-1.000000	50.000000	0.000000	-1.000000	-1.000000	460038.000000	1775804192.587732
-11483.640000	-24864.885000	2187.045000	20155.185000	6564.195000	-10935.720000	-47861.100000	-38484.270000	1.928907	1.853012	1.256309	0.499257	0.444818	3.806139	3.357883	3.590432	-4.272800	3.982860	-0.732480	-0.574828	0.170715	0.787413	-1.000000	-1.000000	-1.000000	-1.000000	-1.000000	-1.000000	-1.000000	50.000000	0.000000	-1.000000	-1.000000	460039.000000	1775804192.587753
-11480.490000	-24862.185000	2190.285000	20157.975000	6565.545000	-10935.000000	-47859.570000	-38482.695000	1.935271	0.908202	0.514082	0.232428	0.980029	1.677577	3.034427	3.554209	-6.638100	3.647140	-1.419180	-0.579344	0.163635	0.787840	-1.000000	-1.000000	-1.000000	-1.000000	-1.000000	-1.000000	-1.000000	50.000000	0.000000	-1.000000	-1.000000	460040.000000	1775804192.589236
-11480.265000	-24862.815000	2189.070000	20157.300000	6565.680000	-10933.920000	-47858.940000	-38482.380000	1.573443	0.193364	0.145801	0.264375	1.195796	-0.686144	1.599605	2.179015	-6.638100	3.647140	-1.419180	-0.579344	0.163635	0.787840	-1.000000	-1.000000	-1.000000	-1.000000	-1.000000	-1.000000	-1.000000	50.000000	0.000000	-1.000000	-1.000000	460041.000000	1775804192.589254
-11482.065000	-24863.940000	2188.305000	20157.165000	6568.380000	-10931.490000	-47859.975000	-38483.820000	1.055134	0.091860	0.430305	0.818814	1.806320	-2.014681	-0.191186	0.136465	-6.638100	3.647140	-1.419180	-0.579344	0.163635	0.787840	-1.000000	-1.000000	-1.000000	-1.000000	-1.000000	-1.000000	-1.000000	50.000000	0.000000	-1.000000	-1.000000	460042.000000	1775804192.596152
-11483.100000	-24862.725000	2189.565000	20158.020000	6569.955000	-10931.625000	-47863.215000	-38487.015000	0.279627	0.273543	0.864848	1.381667	2.622799	-1.936216	-1.749886	-1.817247	-6.638100	3.647140	-1.419180	-0.579344	0.163635	0.787840	-1.000000	-1.000000	-1.000000	-1.000000	-1.000000	-1.000000	-1.000000	50.000000	0.000000	-1.000000	-1.000000	460043.000000	1775804192.596175
-11483.280000	-24862.635000	2188.620000	20156.310000	6567.885000	-10932.525000	-47863.305000	-38487.555000	-0.702849	0.388102	0.997766	1.455752	2.987860	-1.032502	-2.754406	-3.144163	-6.638100	3.647140	-1.419180	-0.579344	0.163635	0.787840	-1.000000	-1.000000	-1.000000	-1.000000	-1.000000	-1.000000	-1.000000	50.000000	0.000000	-1.000000	-1.000000	460044.000000	1775804192.596870
-11488.005000	-24866.775000	2181.735000	20147.580000	6561.225000	-10936.125000	-47861.640000	-38487.420000	-1.554006	0.273496	0.606200	0.763230	2.194408	-0.267068	-2.885214	-3.425488	-6.638100	3.647140	-1.419180	-0.579344	0.163635	0.787840	-1.000000	-1.000000	-1.000000	-1.000000	-1.000000	-1.000000	-1.000000	50.000000	0.000000	-1.000000	-1.000000	460045.000000	1775804192.596886
-11488.185000	-24868.080000	2182.320000	20148.795000	6561.180000	-10939.050000	-47864.610000	-38489.580000	-1.993903	-0.198945	-0.361062	-0.656470	0.133685	-0.247220	-1.988484	-2.531103	-6.638100	3.647140	-1.419180	-0.579344	0.163635	0.787840	-1.000000	-1.000000	-1.000000	-1.000000	-1.000000	-1.000000	-1.000000	50.000000	0.000000	-1.000000	-1.000000	460046.000000	1775804192.601309
-11484.135000	-24866.865000	2184.030000	20151.585000	6563.655000	-10937.745000	-47862.990000	-38485.980000	-1.750102	-0.833813	-1.338331	-1.924842	-2.120740	-0.770525	-0.475167	-0.829945	-6.638100	3.647140	-1.419180	-0.579344	0.163635	0.787840	-1.000000	-1.000000	-1.000000	-1.000000	-1.000000	-1.000000	-1.000000	50.000000	0.000000	-1.000000	-1.000000	460047.000000	1775804192.601327
-11485.125000	-24867.495000	2183.670000	20149.515000	6556.230000	-10939.590000	-47863.170000	-38486.745000	-0.611045	-1.068594	-1.435925	-1.903548	-3.177164	-1.060752	0.983732	1.057448	-6.638100	3.647140	-1.419180	-0.579344	0.163635	0.787840	-1.000000	-1.000000	-1.000000	-1.000000	-1.000000	-1.000000	-1.000000	50.000000	0.000000	-1.000000	-1.000000	460048.000000	1775804192.607971
-11485.080000	-24866.145000	2184.975000	20148.435000	6549.705000	-10940.985000	-47865.915000	-38489.130000	0.979807	-0.600709	-0.487337	-0.616110	-2.900685	-0.650548	1.879989	2.413816	-6.638100	3.647140	-1.419180	-0.579344	0.163635	0.787840	-1.000000	-1.000000	-1.000000	-1.000000	-1.000000	-1.000000	-1.000000	50.000000	0.000000	-1.000000	-1.000000	460049.000000	1775804192.607995
-11487.330000	-24868.080000	2183.670000	20146.545000	6552.090000	-10943.010000	-47870.100000	-38492.910000	2.041952	0.273769	0.807863	0.844390	-2.027414	0.190680	1.851757	2.557441	-4.516960	2.792580	-2.487380	-0.577330	0.158996	0.786924	-1.000000	-1.000000	-1.000000	-1.000000	-1.000000	-1.000000	-1.000000	50.000000	0.000000	-1.000000	-1.000000	460050.000000	1775804192.614702
-11485.170000	-24865.785000	2188.530000	20156.580000	6572.745000	-10937.340000	-47865.915000	-38490.345000	2.001803	0.995946	1.676987	1.744020	-0.383768	1.040995	1.004621	1.480773	-4.516960	2.792580	-2.487380	-0.577330	0.158996	0.786924	-1.000000	-1.000000	-1.000000	-1.000000	-1.000000	-1.000000	-1.000000	50.000000	0.000000	-1.000000	-1.000000	460051.000000	1775804192.614726
-11489.490000	-24872.355000	2178.765000	20149.335000	6567.480000	-10937.970000	-47865.690000	-38491.695000	1.078861	1.136237	1.695463	2.123950	2.582010	1.796032	0.151707	0.072807	-4.516960	2.792580	-2.487380	-0.577330	0.158996	0.786924	-1.000000	-1.000000	-1.000000	-1.000000	-1.000000	-1.000000	-1.000000	50.000000	0.000000	-1.000000	-1.000000	460052.000000	1775804192.614789
-11496.240000	-24880.680000	2168.055000	20136.960000	6555.420000	-10944.090000	-47870.730000	-38497.320000	-0.291877	0.379759	0.469364	1.620951	5.228534	2.151649	-0.113300	-0.854363	-4.516960	2.792580	-2.487380	-0.577330	0.158996	0.786924	-1.000000	-1.000000	-1.000000	-1.000000	-1.000000	-1.000000	-1.000000	50.000000	0.000000	-1.000000	-1.000000	460053.000000	1775804192.614805
-11493.225000	-24876.810000	2172.780000	20139.930000	6540.255000	-10950.210000	-47872.035000	-38496.330000	-1.677160	-1.081547	-1.781495	-0.298277	4.429812	1.396411	-0.135151	-1.238791	-4.516960	2.792580	-2.487380	-0.577330	0.158996	0.786924	-1.000000	-1.000000	-1.000000	-1.000000	-1.000000	-1.000000	-1.000000	50.000000	0.000000	-1.000000	-1.000000	460054.000000	1775804192.621070
-11485.080000	-24865.920000	2184.120000	20147.535000	6522.795000	-10951.560000	-47867.850000	-38490.390000	-2.123689	-1.854237	-3.163896	-2.415033	-0.602502	-0.520421	-0.269644	-1.049862	-4.516960	2.792580	-2.487380	-0.577330	0.158996	0.786924	-1.000000	-1.000000	-1.000000	-1.000000	-1.000000	-1.000000	-1.000000	50.000000	0.000000	-1.000000	-1.000000	460055.000000	1775804192.621091
-11483.865000	-24863.670000	2185.875000	20148.255000	6522.390000	-10950.840000	-47865.690000	-38488.950000	-0.798218	-0.524136	-1.744494	-2.574733	-6.873076	-2.369735	-0.156139	-0.018229	-4.516960	2.792580	-2.487380	-0.577330	0.158996	0.786924	-1.000000	-1.000000	-1.000000	-1.000000	-1.000000	-1.000000	-1.000000	50.000000	0.000000	-1.000000	-1.000000	460056.000000	1775804192.621116
-11486.790000	-24868.845000	2181.690000	20147.985000	6555.960000	-10943.595000	-47864.565000	-38490.165000	1.510891	2.114148	1.636712	-0.550533	-9.155942	-2.590879	0.480995	1.444231	-4.516960	2.792580	-2.487380	-0.577330	0.158996	0.786924	-1.000000	-1.000000	-1.000000	-1.000000	-1.000000	-1.000000	-1.000000	50.000000	0.000000	-1.000000	-1.000000	460057.000000	1775804192.621127
-11491.740000	-24874.380000	2176.110000	20146.680000	6593.670000	-10936.890000	-47865.195000	-38493.180000	2.770621	3.469371	3.929021	1.773560	-3.327595	-0.611525	1.164167	2.152829	-4.516960	2.792580	-2.487380	-0.577330	0.158996	0.786924	-1.000000	-1.000000	-1.000000	-1.000000	-1.000000	-1.000000	-1.000000	50.000000	0.000000	-1.000000	-1.000000	460058.000000	1775804192.624040
-11494.125000	-24876.720000	2173.680000	20140.785000	6569.010000	-10943.055000	-47867.040000	-38494.935000	1.789566	2.028428	3.140763	2.513545	8.307717	2.380696	1.152078	1.346571	-4.516960	2.792580	-2.487380	-0.577330	0.158996	0.786924	-1.000000	-1.000000	-1.000000	-1.000000	-1.000000	-1.000000	-1.000000	50.000000	0.000000	-1.000000	-1.000000	460059.000000	1775804192.624058
-11490.165000	-24871.635000	2178.720000	20146.410000	6570.360000	-10939.680000	-47864.205000	-38491.920000	-0.571793	-1.019557	0.191349	1.334702	16.364923	4.075235	0.276547	-0.439578	-0.534100	3.021480	-2.121140	-0.575072	0.159790	0.782896	-1.000000	-1.000000	-1.000000	-1.000000	-1.000000	-1.000000	-1.000000	50.000000	0.000000	-1.000000	-1.000000	460060.000000	1775804192.628673
-11493.540000	-24873.840000	2176.920000	20146.770000	6573.735000	-10939.140000	-47865.960000	-38495.250000	-2.372126	-3.172275	-2.363554	-0.455239	13.763211	3.247432	-0.868002	-1.904668	-0.534100	3.021480	-2.121140	-0.575072	0.159790	0.782896	-1.000000	-1.000000	-1.000000	-1.000000	-1.000000	-1.000000	-1.000000	50.000000	0.000000	-1.000000	-1.000000	460061.000000	1775804192.628693
-11490.345000	-24869.340000	2181.510000	20150.235000	6572.295000	-10934.415000	-47861.640000	-38492.235000	-2.494737	-3.070787	-2.869098	-1.330087	2.885078	0.807724	-1.530937	-2.226496	-0.534100	3.021480	-2.121140	-0.575072	0.159790	0.782896	-1.000000	-1.000000	-1.000000	-1.000000	-1.000000	-1.000000	-1.000000	50.000000	0.000000	-1.000000	-1.000000	460062.000000	1775804192.639554
-11494.575000	-24872.625000	2179.080000	20148.570000	6568.920000	-10937.970000	-47864.565000	-38496.555000	-1.270655	-1.256962	-1.551962	-0.978879	-8.798521	-1.586558	-1.410883	-1.518554	-0.534100	3.021480	-2.121140	-0.575072	0.159790	0.782896	-1.000000	-1.000000	-1.000000	-1.000000	-1.000000	-1.000000	-1.000000	50.000000	0.000000	-1.000000	-1.000000	460063.000000	1775804192.639579
-11500.965000	-24879.690000	2172.690000	20142.945000	6561.720000	-10949.085000	-47871.135000	-38502.045000	0.105476	0.621719	0.120839	-0.291739	-15.608973	-3.250218	-0.939795	-0.560536	-0.534100	3.021480	-2.121140	-0.575072	0.159790	0.782896	-1.000000	-1.000000	-1.000000	-1.000000	-1.000000	-1.000000	-1.000000	50.000000	0.000000	-1.000000	-1.000000	460064.000000	1775804192.639606
-11501.100000	-24881.850000	2169.135000	20138.985000	6553.935000	-10952.055000	-47871.540000	-38500.695000	0.589796	1.112841	0.659515	-0.338607	-15.962679	-4.447829	-0.839055	-0.088689	-0.534100	3.021480	-2.121140	-0.575072	0.159790	0.782896	-1.000000	-1.000000	-1.000000	-1.000000	-1.000000	-1.000000	-1.000000	50.000000	0.000000	-1.000000	-1.000000	460065.000000	1775804192.639618
-11498.715000	-24879.195000	2169.945000	20139.120000	6554.610000	-10950.840000	-47871.855000	-38500.605000	0.339239	0.304889	-0.093923	-1.193987	-11.255029	-4.913677	-1.063811	0.032184	-0.534100	3.021480	-2.121140	-0.575072	0.159790	0.782896	-1.000000	-1.000000	-1.000000	-1.000000	-1.000000	-1.000000	-1.000000	50.000000	0.000000	-1.000000	-1.000000	460066.000000	1775804192.647967
-11498.670000	-24878.295000	2171.070000	20140.155000	6554.610000	-10948.950000	-47872.620000	-38501.415000	0.327346	-0.402527	-0.913856	-1.814610	-3.840182	-3.652120	-0.891946	0.388863	-0.534100	3.021480	-2.121140	-0.575072	0.159790	0.782896	-1.000000	-1.000000	-1.000000	-1.000000	-1.000000	-1.000000	-1.000000	50.000000	0.000000	-1.000000	-1.000000	460067.000000	1775804192.647988
-11497.590000	-24875.775000	2173.095000	20142.720000	6558.075000	-10946.520000	-47873.295000	-38500.740000	0.955333	-0.009588	-0.646873	-1.207358	3.905776	-0.458462	-0.010990	1.058134	-0.534100	3.021480	-2.121140	-0.575072	0.159790	0.782896	-1.000000	-1.000000	-1.000000	-1.000000	-1.000000	-1.000000	-1.000000	50.000000	0.000000	-1.000000	-1.000000	460068.000000	1775804192.648009
-11494.710000	-24871.860000	2177.505000	20147.535000	6563.565000	-10943.415000	-47872.530000	-38496.870000	1.775589	1.260643	0.757648	0.628978	9.851418	3.418520	1.193211	1.716265	-0.534100	3.021480	-2.121140	-0.575072	0.159790	0.782896	-1.000000	-1.000000	-1.000000	-1.000000	-1.000000	-1.000000	-1.000000	50.000000	0.000000	-1.000000	-1.000000	460069.000000	1775804192.648018
-11490.210000	-24867.270000	2181.960000	20151.765000	6567.345000	-10940.760000	-47867.265000	-38492.280000	2.257127	2.554743	2.502178	2.823643	12.573748	6.186238	2.228486	2.177455	-0.015260	2.090620	-1.922760	-0.577818	0.160095	0.782225	-1.000000	-1.000000	-1.000000	-1.000000	-1.000000	-1.000000	-1.000000	50.000000	0.000000	-1.000000	-1.000000	460070.000000	1775804192.649468
-11487.825000	-24865.425000	2183.670000	20152.935000	6568.245000	-10941.030000	-47865.060000	-38490.345000	2.184853	3.076826	3.579698	4.199962	11.592762	6.619838	2.875693	2.337407	-0.015260	2.090620	-1.922760	-0.577818	0.160095	0.782225	-1.000000	-1.000000	-1.000000	-1.000000	-1.000000	-1.000000	-1.000000	50.000000	0.000000	-1.000000	-1.000000	460071.000000	1775804192.649494
-11489.130000	-24867.315000	2182.590000	20151.045000	6565.185000	-10943.910000	-47865.915000	-38492.505000	1.438563	2.315567	3.197565	3.814811	7.340207	4.523835	2.891232	1.855972	-0.015260	2.090620	-1.922760	-0.577818	0.160095	0.782225	-1.000000	-1.000000	-1.000000	-1.000000	-1.000000	-1.000000	-1.000000	50.000000	0.000000	-1.000000	-1.000000	460072.000000	1775804192.656130
-11496.690000	-24874.695000	2176.020000	20142.675000	6548.490000	-10951.965000	-47874.150000	-38501.280000	-0.183577	0.137820	1.101015	1.406501	0.915575	0.625677	1.766558	0.258079	-0.015260	2.090620	-1.922760	-0.577818	0.160095	0.782225	-1.000000	-1.000000	-1.000000	-1.000000	-1.000000	-1.000000	-1.000000	50.000000	0.000000	-1.000000	-1.000000	460073.000000	1775804192.656154
-11496.690000	-24875.820000	2173.860000	20140.695000	6546.060000	-10951.155000	-47873.610000	-38500.155000	-2.524656	-2.894723	-2.123976	-2.274059	-5.991541	-3.610003	-0.622554	-2.323001	-0.015260	2.090620	-1.922760	-0.577818	0.160095	0.782225	-1.000000	-1.000000	-1.000000	-1.000000	-1.000000	-1.000000	-1.000000	50.000000	0.000000	-1.000000	-1.000000	460074.000000	1775804192.657602
-11491.110000	-24869.160000	2179.305000	20146.635000	6554.520000	-10943.505000	-47865.105000	-38492.100000	-4.396851	-5.191278	-4.872113	-5.315331	-10.602890	-6.115521	-3.040126	-4.402129	-0.015260	2.090620	-1.922760	-0.577818	0.160095	0.782225	-1.000000	-1.000000	-1.000000	-1.000000	-1.000000	-1.000000	-1.000000	50.000000	0.000000	-1.000000	-1.000000	460075.000000	1775804192.657626
-11494.305000	-24871.050000	2175.840000	20144.790000	6557.490000	-10944.765000	-47866.320000	-38494.350000	-4.330532	-5.055893	-5.395797	-5.702168	-10.153745	-5.376918	-3.637842	-4.202987	-0.015260	2.090620	-1.922760	-0.577818	0.160095	0.782225	-1.000000	-1.000000	-1.000000	-1.000000	-1.000000	-1.000000	-1.000000	50.000000	0.000000	-1.000000	-1.000000	460076.000000	1775804192.660671
-11491.875000	-24872.085000	2176.335000	20146.095000	6561.360000	-10939.410000	-47866.950000	-38494.575000	-2.272099	-2.531325	-3.475144	-3.234714	-4.735496	-1.990671	-2.144044	-1.826188	-0.015260	2.090620	-1.922760	-0.577818	0.160095	0.782225	-1.000000	-1.000000	-1.000000	-1.000000	-1.000000	-1.000000	-1.000000	50.000000	0.000000	-1.000000	-1.000000	460077.000000	1775804192.660689
-11494.170000	-24874.200000	2175.165000	20144.835000	6557.355000	-10937.970000	-47865.555000	-38495.520000	0.422333	0.582527	-0.494816	0.345323	2.228480	1.864272	-0.038896	0.884547	-0.015260	2.090620	-1.922760	-0.577818	0.160095	0.782225	-1.000000	-1.000000	-1.000000	-1.000000	-1.000000	-1.000000	-1.000000	50.000000	0.000000	-1.000000	-1.000000	460078.000000	1775804192.670419
-11500.740000	-24879.285000	2170.035000	20140.605000	6552.270000	-10942.245000	-47869.425000	-38501.280000	2.214122	2.485771	1.905951	2.965598	6.618453	4.107021	1.234090	2.270605	-0.015260	2.090620	-1.922760	-0.577818	0.160095	0.782225	-1.000000	-1.000000	-1.000000	-1.000000	-1.000000	-1.000000	-1.000000	50.000000	0.000000	-1.000000	-1.000000	460079.000000	1775804192.670444
-11496.690000	-24875.955000	2172.060000	20141.730000	6553.530000	-10946.880000	-47868.390000	-38497.230000	2.363146	2.633978	2.815578	3.547587	6.537460	3.641961	1.212901	1.957493	-3.128300	1.876980	-1.800680	-0.581847	0.158935	0.783262	-1.000000	-1.000000	-1.000000	-1.000000	-1.000000	-1.000000	-1.000000	50.000000	0.000000	-1.000000	-1.000000	460080.000000	1775804192.670502
-11490.705000	-24872.580000	2174.040000	20143.890000	6552.720000	-10950.435000	-47864.700000	-38490.390000	1.599915	1.884596	2.506941	2.527231	3.267778	0.878389	0.442979	0.989883	-3.128300	1.876980	-1.800680	-0.581847	0.158935	0.783262	-1.000000	-1.000000	-1.000000	-1.000000	-1.000000	-1.000000	-1.000000	50.000000	0.000000	-1.000000	-1.000000	460081.000000	1775804192.670516
-11490.390000	-24871.545000	2175.435000	20144.295000	6549.345000	-10948.095000	-47864.520000	-38491.920000	1.247126	1.424726	1.923367	1.183264	-0.492108	-2.314702	-0.083288	0.688644	-3.128300	1.876980	-1.800680	-0.581847	0.158935	0.783262	-1.000000	-1.000000	-1.000000	-1.000000	-1.000000	-1.000000	-1.000000	50.000000	0.000000	-1.000000	-1.000000	460082.000000	1775804192.680262
-11492.775000	-24871.950000	2174.805000	20145.150000	6550.560000	-10950.795000	-47868.480000	-38495.925000	1.446311	1.457940	1.538496	0.341620	-2.850051	-3.872305	-0.054177	0.972757	-3.128300	1.876980	-1.800680	-0.581847	0.158935	0.783262	-1.000000	-1.000000	-1.000000	-1.000000	-1.000000	-1.000000	-1.000000	50.000000	0.000000	-1.000000	-1.000000	460083.000000	1775804192.680292
-11494.125000	-24873.615000	2171.745000	20142.180000	6555.240000	-10949.715000	-47868.075000	-38496.735000	1.243844	1.305143	1.067787	-0.055049	-3.133429	-3.075244	0.007481	0.743474	-3.128300	1.876980	-1.800680	-0.581847	0.158935	0.783262	-1.000000	-1.000000	-1.000000	-1.000000	-1.000000	-1.000000	-1.000000	50.000000	0.000000	-1.000000	-1.000000	460084.000000	1775804192.680324
-11500.110000	-24879.465000	2166.975000	20139.750000	6558.075000	-10945.620000	-47868.120000	-38499.570000	0.035808	0.356502	0.057814	-0.482569	-1.547056	-0.673171	-0.217968	-0.385467	-3.128300	1.876980	-1.800680	-0.581847	0.158935	0.783262	-1.000000	-1.000000	-1.000000	-1.000000	-1.000000	-1.000000	-1.000000	50.000000	0.000000	-1.000000	-1.000000	460085.000000	1775804192.680337
-11495.340000	-24874.245000	2173.680000	20147.985000	6564.555000	-10939.590000	-47865.420000	-38494.755000	-1.691855	-1.196663	-1.285453	-0.989407	0.926789	2.153148	-0.403555	-1.625032	-3.128300	1.876980	-1.800680	-0.581847	0.158935	0.783262	-1.000000	-1.000000	-1.000000	-1.000000	-1.000000	-1.000000	-1.000000	50.000000	0.000000	-1.000000	-1.000000	460086.000000	1775804192.682538
-11485.620000	-24863.220000	2182.905000	20155.680000	6570.810000	-10935.315000	-47858.220000	-38485.440000	-2.512814	-2.088777	-1.790074	-0.817903	3.031346	4.362463	-0.036793	-1.728715	-3.128300	1.876980	-1.800680	-0.581847	0.158935	0.783262	-1.000000	-1.000000	-1.000000	-1.000000	-1.000000	-1.000000	-1.000000	50.000000	0.000000	-1.000000	-1.000000	460087.000000	1775804192.682556
-11489.940000	-24866.595000	2177.820000	20148.435000	6562.845000	-10942.335000	-47860.605000	-38488.410000	-1.432821	-1.227144	-0.703140	0.310768	3.652821	4.921096	0.927199	-0.241058	-3.128300	1.876980	-1.800680	-0.581847	0.158935	0.783262	-1.000000	-1.000000	-1.000000	-1.000000	-1.000000	-1.000000	-1.000000	50.000000	0.000000	-1.000000	-1.000000	460088.000000	1775804192.685813
-11485.890000	-24862.050000	2182.860000	20151.450000	6565.770000	-10940.715000	-47858.175000	-38485.620000	0.660542	0.647579	0.960410	1.214620	2.088017	3.128194	1.726741	1.665804	-3.128300	1.876980	-1.800680	-0.581847	0.158935	0.783262	-1.000000	-1.000000	-1.000000	-1.000000	-1.000000	-1.000000	-1.000000	50.000000	0.000000	-1.000000	-1.000000	460089.000000	1775804192.685835
-11483.550000	-24857.370000	2185.785000	20152.620000	6559.965000	-10940.490000	-47856.240000	-38483.730000	2.080209	1.917780	1.748063	0.856964	-1.119901	-0.318048	1.578033	2.414802	-6.058220	1.144500	-0.991900	-0.581175	0.157104	0.783506	-1.000000	-1.000000	-1.000000	-1.000000	-1.000000	-1.000000	-1.000000	50.000000	0.000000	-1.000000	-1.000000	460090.000000	1775804192.688154
-11484.585000	-24860.790000	2185.290000	20152.395000	6536.385000	-10947.420000	-47862.855000	-38490.255000	2.092369	1.830959	1.325065	-0.351364	-4.671347	-3.594708	0.429004	1.505777	-6.058220	1.144500	-0.991900	-0.581175	0.157104	0.783506	-1.000000	-1.000000	-1.000000	-1.000000	-1.000000	-1.000000	-1.000000	50.000000	0.000000	-1.000000	-1.000000	460091.000000	1775804192.688175
-11487.510000	-24863.940000	2183.175000	20149.785000	6528.600000	-10947.870000	-47865.510000	-38494.170000	0.839748	0.389802	0.026487	-1.526126	-7.702109	-5.364512	-1.372437	-0.673814	-6.058220	1.144500	-0.991900	-0.581175	0.157104	0.783506	-1.000000	-1.000000	-1.000000	-1.000000	-1.000000	-1.000000	-1.000000	50.000000	0.000000	-1.000000	-1.000000	460092.000000	1775804192.693251
-11494.080000	-24871.230000	2177.055000	20145.150000	6536.025000	-10944.090000	-47868.525000	-38498.850000	-1.195760	-1.978951	-1.743352	-2.273310	-8.746602	-5.103252	-3.159201	-3.178405	-6.058220	1.144500	-0.991900	-0.581175	0.157104	0.783506	-1.000000	-1.000000	-1.000000	-1.000000	-1.000000	-1.000000	-1.000000	50.000000	0.000000	-1.000000	-1.000000	460093.000000	1775804192.693277
-11493.315000	-24870.870000	2177.055000	20150.550000	6581.385000	-10931.670000	-47863.710000	-38495.025000	-3.181617	-4.224488	-3.385196	-2.418689	-4.938837	-2.602303	-3.837616	-4.581983	-6.058220	1.144500	-0.991900	-0.581175	0.157104	0.783506	-1.000000	-1.000000	-1.000000	-1.000000	-1.000000	-1.000000	-1.000000	50.000000	0.000000	-1.000000	-1.000000	460094.000000	1775804192.697754
-11492.595000	-24871.230000	2175.570000	20148.255000	6578.370000	-10936.890000	-47862.180000	-38492.145000	-3.958507	-4.939395	-4.016501	-1.649439	4.614615	1.421046	-2.579317	-3.691482	-6.058220	1.144500	-0.991900	-0.581175	0.157104	0.783506	-1.000000	-1.000000	-1.000000	-1.000000	-1.000000	-1.000000	-1.000000	50.000000	0.000000	-1.000000	-1.000000	460095.000000	1775804192.697777
-11494.890000	-24875.415000	2170.485000	20140.245000	6554.340000	-10945.665000	-47864.205000	-38493.045000	-2.839364	-3.438465	-3.115966	-0.223839	14.320020	4.576797	0.170164	-0.661632	-6.058220	1.144500	-0.991900	-0.581175	0.157104	0.783506	-1.000000	-1.000000	-1.000000	-1.000000	-1.000000	-1.000000	-1.000000	50.000000	0.000000	-1.000000	-1.000000	460096.000000	1775804192.714576
-11494.800000	-24876.180000	2168.955000	20138.580000	6558.030000	-10947.285000	-47864.295000	-38493.630000	-0.410265	-0.514598	-1.150387	0.806877	15.849600	4.494522	2.758965	2.767906	-6.058220	1.144500	-0.991900	-0.581175	0.157104	0.783506	-1.000000	-1.000000	-1.000000	-1.000000	-1.000000	-1.000000	-1.000000	50.000000	0.000000	-1.000000	-1.000000	460097.000000	1775804192.714604
-11493.540000	-24874.380000	2171.745000	20143.305000	6566.850000	-10946.790000	-47865.240000	-38494.125000	2.044810	2.398724	1.042141	1.054254	7.925416	1.521472	3.759608	4.645224	-6.058220	1.144500	-0.991900	-0.581175	0.157104	0.783506	-1.000000	-1.000000	-1.000000	-1.000000	-1.000000	-1.000000	-1.000000	50.000000	0.000000	-1.000000	-1.000000	460098.000000	1775804192.714633
-11491.335000	-24871.140000	2175.345000	20147.985000	6565.815000	-10944.720000	-47862.540000	-38492.640000	3.608711	4.408893	3.032148	1.353236	-2.801454	-1.668360	3.045386	4.301954	-6.058220	1.144500	-0.991900	-0.581175	0.157104	0.783506	-1.000000	-1.000000	-1.000000	-1.000000	-1.000000	-1.000000	-1.000000	50.000000	0.000000	-1.000000	-1.000000	460099.000000	1775804192.714645
-11496.870000	-24875.820000	2171.925000	20146.185000	6566.265000	-10943.100000	-47864.430000	-38497.770000	3.868686	5.116943	4.441534	2.246842	-9.750208	-2.813443	1.466438	2.364029	-5.691980	1.800680	-0.122080	-0.578673	0.157348	0.783567	-1.000000	-1.000000	-1.000000	-1.000000	-1.000000	-1.000000	-1.000000	50.000000	0.000000	-1.000000	-1.000000	460100.000000	1775804192.714660
-11493.135000	-24871.365000	2176.245000	20149.830000	6568.245000	-10937.295000	-47862.495000	-38495.565000	2.766668	4.307405	4.637450	3.048255	-10.934084	-1.571343	-0.074669	-0.093162	-5.691980	1.800680	-0.122080	-0.578673	0.157348	0.783567	-1.000000	-1.000000	-1.000000	-1.000000	-1.000000	-1.000000	-1.000000	50.000000	0.000000	-1.000000	-1.000000	460101.000000	1775804192.714670
-11491.245000	-24867.945000	2179.800000	20152.620000	6567.075000	-10937.655000	-47864.970000	-38496.555000	0.949749	2.423122	3.498956	2.897612	-7.813065	0.856836	-1.109523	-1.991655	-5.691980	1.800680	-0.122080	-0.578673	0.157348	0.783567	-1.000000	-1.000000	-1.000000	-1.000000	-1.000000	-1.000000	-1.000000	50.000000	0.000000	-1.000000	-1.000000	460102.000000	1775804192.714708
-11491.740000	-24866.730000	2181.510000	20154.330000	6566.220000	-10939.725000	-47867.445000	-38498.220000	-0.549678	0.473719	1.692532	1.749055	-3.108582	2.667921	-1.625286	-2.652840	-5.691980	1.800680	-0.122080	-0.578673	0.157348	0.783567	-1.000000	-1.000000	-1.000000	-1.000000	-1.000000	-1.000000	-1.000000	50.000000	0.000000	-1.000000	-1.000000	460103.000000	1775804192.714719
-11493.900000	-24870.375000	2178.405000	20151.270000	6563.655000	-10940.355000	-47865.105000	-38498.715000	-1.344799	-1.028582	-0.203011	0.001650	0.789397	2.581407	-1.757918	-2.190874	-5.691980	1.800680	-0.122080	-0.578673	0.157348	0.783567	-1.000000	-1.000000	-1.000000	-1.000000	-1.000000	-1.000000	-1.000000	50.000000	0.000000	-1.000000	-1.000000	460104.000000	1775804192.717934
-11501.100000	-24877.890000	2169.765000	20141.910000	6552.945000	-10950.930000	-47872.665000	-38505.645000	-1.834419	-2.383048	-2.187353	-2.102831	2.581409	0.591686	-1.547887	-1.276791	-5.691980	1.800680	-0.122080	-0.578673	0.157348	0.783567	-1.000000	-1.000000	-1.000000	-1.000000	-1.000000	-1.000000	-1.000000	50.000000	0.000000	-1.000000	-1.000000	460105.000000	1775804192.717959
-11505.780000	-24883.245000	2163.285000	20135.745000	6546.330000	-10955.790000	-47876.265000	-38507.535000	-2.474548	-3.881733	-4.316201	-4.345863	2.077644	-2.342890	-1.230895	-0.616102	-5.691980	1.800680	-0.122080	-0.578673	0.157348	0.783567	-1.000000	-1.000000	-1.000000	-1.000000	-1.000000	-1.000000	-1.000000	50.000000	0.000000	-1.000000	-1.000000	460106.000000	1775804192.733639
