Channel1	Channel2	Channel3	Channel4	Channel5	Channel6	Channel7	Channel8	FilteredChannel1	FilteredChannel2	FilteredChannel3	FilteredChannel4	FilteredChannel5	FilteredChannel6	FilteredChannel7	FilteredChannel8	GyroX	GyroY	GyroZ	AccX	AccY	AccZ	PPG1	PPG2	rawPPG1	rawPPG2	rawPPG3	Hr	Hrv	Battery	Trigger	PhysicalTrigger	AutoTrigger	NumMeasurements	Timestamp
-16162.560000	-29256.165000	1437.480000	21530.430000	7079.130000	-9949.275000	-38961.720000	-27921.825000	-3.241728	-3.678680	-0.413996	7.977372	8.178636	-1.068921	-6.482474	-5.271596	-0.152600	3.708180	1.068200	-0.828245	0.137329	0.525450	-1.000000	-1.000000	-1.000000	-1.000000	-1.000000	-1.000000	-1.000000	50.000000	0.000000	-1.000000	-1.000000	313414.000000	1775803899.192402
-16168.995000	-29264.985000	1426.905000	21521.520000	7068.780000	-9950.715000	-38956.545000	-27924.660000	-1.302918	-1.386363	1.942752	11.424258	2.277245	-3.292213	-9.522606	-4.283528	-0.152600	3.708180	1.068200	-0.828245	0.137329	0.525450	-1.000000	-1.000000	-1.000000	-1.000000	-1.000000	-1.000000	-1.000000	50.000000	0.000000	-1.000000	-1.000000	313415.000000	1775803899.192431
-16174.530000	-29271.690000	1421.100000	21514.995000	7059.555000	-9956.385000	-38957.490000	-27928.980000	0.561978	0.413972	2.319198	9.415057	-5.027487	-4.841871	-8.256511	-1.612009	-0.152600	3.708180	1.068200	-0.828245	0.137329	0.525450	-1.000000	-1.000000	-1.000000	-1.000000	-1.000000	-1.000000	-1.000000	50.000000	0.000000	-1.000000	-1.000000	313416.000000	1775803899.192458
-16170.255000	-29266.290000	1426.005000	21519.180000	7059.780000	-9955.980000	-38953.395000	-27925.785000	0.739732	0.384071	0.041952	2.995052	-9.922368	-4.655865	-2.717394	0.678366	-0.152600	3.708180	1.068200	-0.828245	0.137329	0.525450	-1.000000	-1.000000	-1.000000	-1.000000	-1.000000	-1.000000	-1.000000	50.000000	0.000000	-1.000000	-1.000000	313417.000000	1775803899.192471
-16167.105000	-29263.455000	1427.355000	21516.750000	7052.535000	-9956.025000	-38951.955000	-27924.165000	-0.064674	-0.327438	-2.693845	-3.895751	-10.302949	-2.706647	4.194906	1.861161	-0.152600	3.708180	1.068200	-0.828245	0.137329	0.525450	-1.000000	-1.000000	-1.000000	-1.000000	-1.000000	-1.000000	-1.000000	50.000000	0.000000	-1.000000	-1.000000	313418.000000	1775803899.192486
-16173.720000	-29269.440000	1420.110000	21505.590000	7040.295000	-9959.355000	-38956.860000	-27930.870000	-0.430357	-0.166739	-3.581913	-7.780376	-6.533840	0.256673	8.952997	2.167770	-0.152600	3.708180	1.068200	-0.828245	0.137329	0.525450	-1.000000	-1.000000	-1.000000	-1.000000	-1.000000	-1.000000	-1.000000	50.000000	0.000000	-1.000000	-1.000000	313419.000000	1775803899.192497
-16172.730000	-29267.145000	1423.350000	21512.700000	7044.210000	-9958.320000	-38956.050000	-27930.420000	-0.198357	0.749437	-2.505872	-7.892434	-0.979661	2.969316	9.441083	1.677806	-0.152600	3.708180	1.068200	-0.828245	0.137329	0.525450	-1.000000	-1.000000	-1.000000	-1.000000	-1.000000	-1.000000	-1.000000	50.000000	0.000000	-1.000000	-1.000000	313420.000000	1775803899.192511
-16166.745000	-29261.115000	1429.830000	21519.585000	7055.685000	-9953.730000	-38951.460000	-27926.370000	0.223476	1.636413	-0.393070	-4.839969	4.510693	4.526283	6.166369	0.708272	-0.152600	3.708180	1.068200	-0.828245	0.137329	0.525450	-1.000000	-1.000000	-1.000000	-1.000000	-1.000000	-1.000000	-1.000000	50.000000	0.000000	-1.000000	-1.000000	313421.000000	1775803899.192521
-16167.735000	-29262.105000	1428.750000	21515.130000	7053.660000	-9950.535000	-38950.605000	-27926.820000	0.864556	2.253069	2.020405	0.122185	9.142281	4.901601	1.631616	0.087652	-3.982860	2.685760	0.900340	-0.830076	0.138672	0.525755	-1.000000	-1.000000	-1.000000	-1.000000	-1.000000	-1.000000	-1.000000	50.000000	0.000000	-1.000000	-1.000000	313422.000000	1775803899.192533
-16170.075000	-29264.985000	1425.330000	21512.655000	7063.335000	-9948.780000	-38951.505000	-27927.810000	1.477071	2.292797	3.675721	4.483189	11.696708	4.350386	-1.934909	0.126748	-3.982860	2.685760	0.900340	-0.830076	0.138672	0.525755	-1.000000	-1.000000	-1.000000	-1.000000	-1.000000	-1.000000	-1.000000	50.000000	0.000000	-1.000000	-1.000000	313423.000000	1775803899.192544
-16171.830000	-29265.570000	1427.760000	21521.205000	7079.670000	-9949.905000	-38953.080000	-27929.070000	1.348201	1.284734	3.538056	6.102209	11.239492	2.889538	-3.847272	0.298449	-3.982860	2.685760	0.900340	-0.830076	0.138672	0.525755	-1.000000	-1.000000	-1.000000	-1.000000	-1.000000	-1.000000	-1.000000	50.000000	0.000000	-1.000000	-1.000000	313424.000000	1775803899.197474
-16176.870000	-29269.935000	1424.655000	21519.720000	7075.890000	-9954.045000	-38956.815000	-27933.795000	0.222585	-0.579895	1.771599	5.099127	8.146860	0.512012	-4.445684	0.022955	-3.982860	2.685760	0.900340	-0.830076	0.138672	0.525755	-1.000000	-1.000000	-1.000000	-1.000000	-1.000000	-1.000000	-1.000000	50.000000	0.000000	-1.000000	-1.000000	313425.000000	1775803899.197500
-16178.895000	-29272.545000	1421.460000	21510.675000	7061.805000	-9959.175000	-38958.435000	-27936.855000	-1.376772	-2.464511	-0.560619	2.606868	2.730556	-2.413264	-4.220947	-0.809170	-3.982860	2.685760	0.900340	-0.830076	0.138672	0.525755	-1.000000	-1.000000	-1.000000	-1.000000	-1.000000	-1.000000	-1.000000	50.000000	0.000000	-1.000000	-1.000000	313426.000000	1775803899.197528
-16179.390000	-29274.255000	1419.660000	21509.730000	7056.855000	-9959.895000	-38958.930000	-27938.340000	-2.502847	-3.492538	-2.468167	-0.655924	-4.706434	-4.942211	-3.360034	-1.744790	-3.982860	2.685760	0.900340	-0.830076	0.138672	0.525755	-1.000000	-1.000000	-1.000000	-1.000000	-1.000000	-1.000000	-1.000000	50.000000	0.000000	-1.000000	-1.000000	313427.000000	1775803899.197540
-16176.735000	-29269.620000	1424.070000	21515.355000	7061.130000	-9955.485000	-38956.185000	-27938.025000	-2.311854	-3.047796	-3.175609	-3.534417	-11.712656	-5.754758	-1.795503	-2.016746	-3.982860	2.685760	0.900340	-0.830076	0.138672	0.525755	-1.000000	-1.000000	-1.000000	-1.000000	-1.000000	-1.000000	-1.000000	50.000000	0.000000	-1.000000	-1.000000	313428.000000	1775803899.199795
-16171.650000	-29261.745000	1432.305000	21522.060000	7062.480000	-9954.090000	-38950.155000	-27932.715000	-0.606156	-0.936846	-2.108559	-4.271300	-14.403858	-4.053137	0.452125	-1.086417	-3.982860	2.685760	0.900340	-0.830076	0.138672	0.525755	-1.000000	-1.000000	-1.000000	-1.000000	-1.000000	-1.000000	-1.000000	50.000000	0.000000	-1.000000	-1.000000	313429.000000	1775803899.199820
-16175.475000	-29267.280000	1426.140000	21516.255000	7055.820000	-9962.100000	-38952.810000	-27936.405000	1.814078	2.071168	0.354935	-2.424433	-11.231865	-0.709632	2.836685	0.807877	-3.982860	2.685760	0.900340	-0.830076	0.138672	0.525755	-1.000000	-1.000000	-1.000000	-1.000000	-1.000000	-1.000000	-1.000000	50.000000	0.000000	-1.000000	-1.000000	313430.000000	1775803899.204965
-16181.820000	-29278.440000	1411.650000	21503.475000	7039.305000	-9974.655000	-38962.080000	-27940.410000	3.291778	3.912186	2.219796	0.017932	-4.766410	1.894146	4.019782	2.442621	-3.982860	2.685760	0.900340	-0.830076	0.138672	0.525755	-1.000000	-1.000000	-1.000000	-1.000000	-1.000000	-1.000000	-1.000000	50.000000	0.000000	-1.000000	-1.000000	313431.000000	1775803899.204993
-16177.635000	-29275.200000	1412.595000	21504.735000	7042.590000	-9965.745000	-38959.920000	-27934.470000	2.693061	2.944666	1.561900	0.690679	0.998992	2.224012	2.925813	2.688814	-3.967600	1.602300	1.129240	-0.830320	0.135437	0.524047	-1.000000	-1.000000	-1.000000	-1.000000	-1.000000	-1.000000	-1.000000	50.000000	0.000000	-1.000000	-1.000000	313432.000000	1775803899.209646
-16152.930000	-29248.245000	1440.855000	21526.740000	7076.970000	-9934.245000	-38941.200000	-27914.220000	1.187801	0.610891	-0.367733	0.066297	5.048248	1.945367	0.673828	2.160768	-3.967600	1.602300	1.129240	-0.830320	0.135437	0.524047	-1.000000	-1.000000	-1.000000	-1.000000	-1.000000	-1.000000	-1.000000	50.000000	0.000000	-1.000000	-1.000000	313433.000000	1775803899.209671
-16152.705000	-29245.230000	1444.140000	21529.710000	7082.235000	-9940.230000	-38939.265000	-27913.860000	1.087927	0.183698	-0.139383	0.751821	9.159152	3.681075	-0.194153	2.351448	-3.967600	1.602300	1.129240	-0.830320	0.135437	0.524047	-1.000000	-1.000000	-1.000000	-1.000000	-1.000000	-1.000000	-1.000000	50.000000	0.000000	-1.000000	-1.000000	313434.000000	1775803899.217144
-16168.140000	-29259.090000	1433.340000	21531.105000	7069.500000	-9957.510000	-38954.340000	-27929.880000	2.013551	1.826825	2.535974	3.211758	12.613913	5.964835	0.572340	2.639797	-3.967600	1.602300	1.129240	-0.830320	0.135437	0.524047	-1.000000	-1.000000	-1.000000	-1.000000	-1.000000	-1.000000	-1.000000	50.000000	0.000000	-1.000000	-1.000000	313435.000000	1775803899.217173
-16166.835000	-29258.865000	1434.330000	21524.760000	7055.235000	-9959.355000	-38953.215000	-27927.945000	1.069438	2.128747	3.986087	4.773670	11.248018	4.576198	0.508944	0.736590	-3.967600	1.602300	1.129240	-0.830320	0.135437	0.524047	-1.000000	-1.000000	-1.000000	-1.000000	-1.000000	-1.000000	-1.000000	50.000000	0.000000	-1.000000	-1.000000	313436.000000	1775803899.217201
-16171.065000	-29265.345000	1424.520000	21513.555000	7043.715000	-9971.235000	-38955.690000	-27930.015000	-2.489701	-0.740861	1.749892	2.943657	3.245590	-1.201528	-1.512374	-3.330731	-3.967600	1.602300	1.129240	-0.830320	0.135437	0.524047	-1.000000	-1.000000	-1.000000	-1.000000	-1.000000	-1.000000	-1.000000	50.000000	0.000000	-1.000000	-1.000000	313437.000000	1775803899.217215
-16177.680000	-29269.980000	1416.870000	21503.880000	7009.155000	-9986.445000	-38960.235000	-27934.965000	-6.247873	-4.954620	-2.991245	-2.077005	-8.082417	-7.911202	-3.895336	-6.812102	-3.967600	1.602300	1.129240	-0.830320	0.135437	0.524047	-1.000000	-1.000000	-1.000000	-1.000000	-1.000000	-1.000000	-1.000000	50.000000	0.000000	-1.000000	-1.000000	313438.000000	1775803899.221124
-16177.725000	-29268.540000	1417.905000	21504.555000	6982.560000	-9987.390000	-38964.240000	-27937.755000	-7.697139	-7.533528	-7.207119	-7.397934	-17.607504	-11.707614	-4.837277	-7.528907	-3.967600	1.602300	1.129240	-0.830320	0.135437	0.524047	-1.000000	-1.000000	-1.000000	-1.000000	-1.000000	-1.000000	-1.000000	50.000000	0.000000	-1.000000	-1.000000	313439.000000	1775803899.221151
-16176.915000	-29266.425000	1422.405000	21508.695000	7001.190000	-9972.630000	-38971.170000	-27941.625000	-5.894238	-6.607470	-8.009980	-9.295841	-20.637115	-10.062610	-3.922931	-5.362657	-3.967600	1.602300	1.129240	-0.830320	0.135437	0.524047	-1.000000	-1.000000	-1.000000	-1.000000	-1.000000	-1.000000	-1.000000	50.000000	0.000000	-1.000000	-1.000000	313440.000000	1775803899.225827
-16172.370000	-29261.700000	1427.895000	21517.560000	7085.655000	-9943.110000	-38959.515000	-27936.630000	-1.454869	-2.355933	-4.404785	-5.939183	-12.312051	-2.259585	-1.550417	-1.435212	-3.967600	1.602300	1.129240	-0.830320	0.135437	0.524047	-1.000000	-1.000000	-1.000000	-1.000000	-1.000000	-1.000000	-1.000000	50.000000	0.000000	-1.000000	-1.000000	313441.000000	1775803899.225956
-16173.675000	-29263.905000	1423.485000	21511.485000	7072.200000	-9949.905000	-38952.270000	-27934.200000	3.729282	3.083362	1.695725	0.955207	7.685153	8.894324	1.985834	2.918340	-0.335720	0.808780	0.915600	-0.829832	0.131897	0.520629	-1.000000	-1.000000	-1.000000	-1.000000	-1.000000	-1.000000	-1.000000	50.000000	0.000000	-1.000000	-1.000000	313442.000000	1775803899.228627
-16168.050000	-29261.340000	1425.330000	21518.325000	7070.310000	-9956.430000	-38947.365000	-27926.550000	7.388675	6.924697	6.686201	7.253200	28.138456	16.706645	5.931335	6.498413	-0.335720	0.808780	0.915600	-0.829832	0.131897	0.520629	-1.000000	-1.000000	-1.000000	-1.000000	-1.000000	-1.000000	-1.000000	50.000000	0.000000	-1.000000	-1.000000	313443.000000	1775803899.228648
-16165.665000	-29260.350000	1426.230000	21520.260000	7076.295000	-9950.310000	-38945.880000	-27924.930000	8.222235	7.566063	8.086284	9.767097	34.020845	15.652063	8.382146	8.256003	-0.335720	0.808780	0.915600	-0.829832	0.131897	0.520629	-1.000000	-1.000000	-1.000000	-1.000000	-1.000000	-1.000000	-1.000000	50.000000	0.000000	-1.000000	-1.000000	313444.000000	1775803899.232798
-16168.545000	-29263.365000	1424.610000	21520.395000	7065.270000	-9949.770000	-38944.215000	-27926.415000	6.293862	5.279580	5.982271	8.109492	21.480449	6.832560	7.591446	7.438099	-0.335720	0.808780	0.915600	-0.829832	0.131897	0.520629	-1.000000	-1.000000	-1.000000	-1.000000	-1.000000	-1.000000	-1.000000	50.000000	0.000000	-1.000000	-1.000000	313445.000000	1775803899.232821
-16172.640000	-29265.345000	1424.655000	21519.135000	7054.470000	-9945.630000	-38942.280000	-27928.035000	2.390086	1.408927	2.059382	3.717544	-1.178448	-3.802151	3.639374	4.001551	-0.335720	0.808780	0.915600	-0.829832	0.131897	0.520629	-1.000000	-1.000000	-1.000000	-1.000000	-1.000000	-1.000000	-1.000000	50.000000	0.000000	-1.000000	-1.000000	313446.000000	1775803899.237160
-16176.105000	-29266.830000	1423.755000	21518.055000	7057.530000	-9945.585000	-38947.005000	-27933.075000	-2.227745	-2.421356	-1.750641	-1.394759	-21.891221	-10.875221	-1.690146	-0.958077	-0.335720	0.808780	0.915600	-0.829832	0.131897	0.520629	-1.000000	-1.000000	-1.000000	-1.000000	-1.000000	-1.000000	-1.000000	50.000000	0.000000	-1.000000	-1.000000	313447.000000	1775803899.237191
-16173.180000	-29261.970000	1425.555000	21517.830000	7090.785000	-9938.745000	-38949.705000	-27934.650000	-5.789582	-4.677470	-4.029870	-5.310698	-30.755480	-12.287532	-6.309126	-5.532754	-0.335720	0.808780	0.915600	-0.829832	0.131897	0.520629	-1.000000	-1.000000	-1.000000	-1.000000	-1.000000	-1.000000	-1.000000	50.000000	0.000000	-1.000000	-1.000000	313448.000000	1775803899.240804
-16168.905000	-29256.075000	1432.080000	21524.310000	7093.260000	-9944.865000	-38951.370000	-27932.715000	-6.636502	-4.404056	-4.158051	-6.705266	-24.241665	-9.080191	-8.721041	-7.845142	-0.335720	0.808780	0.915600	-0.829832	0.131897	0.520629	-1.000000	-1.000000	-1.000000	-1.000000	-1.000000	-1.000000	-1.000000	50.000000	0.000000	-1.000000	-1.000000	313449.000000	1775803899.240835
-16166.115000	-29256.165000	1430.595000	21521.925000	7075.170000	-9947.520000	-38943.270000	-27926.235000	-4.380431	-1.933514	-2.434903	-5.319207	-8.280482	-4.156792	-8.068853	-6.825868	-0.335720	0.808780	0.915600	-0.829832	0.131897	0.520629	-1.000000	-1.000000	-1.000000	-1.000000	-1.000000	-1.000000	-1.000000	50.000000	0.000000	-1.000000	-1.000000	313450.000000	1775803899.249207
-16174.845000	-29267.415000	1417.995000	21510.045000	7062.435000	-9953.370000	-38942.550000	-27928.845000	-0.613361	0.791361	-0.381505	-2.534895	5.624402	-0.296357	-4.418107	-2.995841	-0.335720	0.808780	0.915600	-0.829832	0.131897	0.520629	-1.000000	-1.000000	-1.000000	-1.000000	-1.000000	-1.000000	-1.000000	50.000000	0.000000	-1.000000	-1.000000	313451.000000	1775803899.249234
-16176.240000	-29270.655000	1412.820000	21504.870000	7055.910000	-9957.420000	-38942.595000	-27927.765000	2.080876	1.533324	0.092350	-0.593462	10.187631	1.443139	0.641008	1.473618	2.746800	0.183120	0.045780	-0.832273	0.131286	0.520140	-1.000000	-1.000000	-1.000000	-1.000000	-1.000000	-1.000000	-1.000000	50.000000	0.000000	-1.000000	-1.000000	313452.000000	1775803899.249263
-16175.610000	-29268.675000	1415.835000	21506.670000	7054.830000	-9957.060000	-38945.520000	-27927.090000	2.446069	0.089111	-1.120694	-0.251196	6.900913	1.719069	4.549737	4.287799	2.746800	0.183120	0.045780	-0.832273	0.131286	0.520140	-1.000000	-1.000000	-1.000000	-1.000000	-1.000000	-1.000000	-1.000000	50.000000	0.000000	-1.000000	-1.000000	313453.000000	1775803899.249277
-16171.830000	-29259.720000	1428.435000	21521.565000	7068.060000	-9949.590000	-38941.065000	-27928.530000	1.451386	-1.389993	-1.822590	0.074890	2.111554	1.987588	5.682239	4.590431	2.746800	0.183120	0.045780	-0.832273	0.131286	0.520140	-1.000000	-1.000000	-1.000000	-1.000000	-1.000000	-1.000000	-1.000000	50.000000	0.000000	-1.000000	-1.000000	313454.000000	1775803899.252745
-16179.795000	-29264.895000	1426.320000	21525.255000	7075.395000	-9939.285000	-38935.800000	-27936.765000	0.558300	-0.980109	-0.142617	2.150787	0.983563	3.391569	4.497183	2.793789	2.746800	0.183120	0.045780	-0.832273	0.131286	0.520140	-1.000000	-1.000000	-1.000000	-1.000000	-1.000000	-1.000000	-1.000000	50.000000	0.000000	-1.000000	-1.000000	313455.000000	1775803899.252774
-16178.310000	-29265.435000	1423.530000	21522.285000	7070.535000	-9940.095000	-38938.725000	-27934.920000	0.099071	0.814846	2.901611	5.234973	3.813508	5.596484	2.495476	-0.067265	2.746800	0.183120	0.045780	-0.832273	0.131286	0.520140	-1.000000	-1.000000	-1.000000	-1.000000	-1.000000	-1.000000	-1.000000	50.000000	0.000000	-1.000000	-1.000000	313456.000000	1775803899.255410
-16169.625000	-29263.095000	1420.785000	21516.030000	7059.330000	-9958.050000	-38958.120000	-27926.190000	0.014805	2.193312	4.536903	6.452065	6.610909	6.363523	0.184381	-2.274489	2.746800	0.183120	0.045780	-0.832273	0.131286	0.520140	-1.000000	-1.000000	-1.000000	-1.000000	-1.000000	-1.000000	-1.000000	50.000000	0.000000	-1.000000	-1.000000	313457.000000	1775803899.255434
-16161.570000	-29253.735000	1430.685000	21529.260000	7065.810000	-9957.960000	-38953.755000	-27920.295000	0.762265	2.478984	3.572891	4.289432	5.760996	3.534313	-2.710529	-2.154788	2.746800	0.183120	0.045780	-0.832273	0.131286	0.520140	-1.000000	-1.000000	-1.000000	-1.000000	-1.000000	-1.000000	-1.000000	50.000000	0.000000	-1.000000	-1.000000	313458.000000	1775803899.259403
-16163.145000	-29251.440000	1434.915000	21534.030000	7062.525000	-9959.805000	-38951.280000	-27923.490000	2.228597	2.265183	1.410630	0.541424	1.706773	-1.862893	-5.008863	0.089680	2.746800	0.183120	0.045780	-0.832273	0.131286	0.520140	-1.000000	-1.000000	-1.000000	-1.000000	-1.000000	-1.000000	-1.000000	50.000000	0.000000	-1.000000	-1.000000	313459.000000	1775803899.259421
-16166.250000	-29254.860000	1430.280000	21512.340000	7050.285000	-9964.260000	-38952.945000	-27926.055000	2.944917	1.790309	-0.280539	-2.553817	-2.797477	-6.266731	-4.684598	2.205296	2.746800	0.183120	0.045780	-0.832273	0.131286	0.520140	-1.000000	-1.000000	-1.000000	-1.000000	-1.000000	-1.000000	-1.000000	50.000000	0.000000	-1.000000	-1.000000	313460.000000	1775803899.273661
-16166.520000	-29256.615000	1427.715000	21511.035000	7056.225000	-9957.105000	-38948.220000	-27925.020000	1.601562	0.501846	-1.461581	-5.014126	-5.772814	-7.073156	-1.605567	2.255187	2.746800	0.183120	0.045780	-0.832273	0.131286	0.520140	-1.000000	-1.000000	-1.000000	-1.000000	-1.000000	-1.000000	-1.000000	50.000000	0.000000	-1.000000	-1.000000	313461.000000	1775803899.273688
-16170.345000	-29261.025000	1423.035000	21508.470000	7052.130000	-9957.600000	-38949.615000	-27927.360000	-1.346808	-1.735923	-2.743150	-6.942979	-6.184820	-4.123096	2.367229	0.409870	1.037680	0.534100	-1.510740	-0.833250	0.134887	0.521117	-1.000000	-1.000000	-1.000000	-1.000000	-1.000000	-1.000000	-1.000000	50.000000	0.000000	-1.000000	-1.000000	313462.000000	1775803899.273717
-16165.755000	-29256.390000	1425.600000	21509.280000	7048.935000	-9953.235000	-38944.125000	-27923.130000	-4.087901	-3.907036	-3.871743	-6.899564	-4.043636	0.723008	5.152042	-1.731258	1.037680	0.534100	-1.510740	-0.833250	0.134887	0.521117	-1.000000	-1.000000	-1.000000	-1.000000	-1.000000	-1.000000	-1.000000	50.000000	0.000000	-1.000000	-1.000000	313463.000000	1775803899.273729
-16166.565000	-29256.615000	1426.680000	21513.195000	7050.960000	-9954.720000	-38943.990000	-27923.760000	-4.910370	-4.537150	-3.852779	-3.902781	-0.713548	4.775245	5.683415	-2.684181	1.037680	0.534100	-1.510740	-0.833250	0.134887	0.521117	-1.000000	-1.000000	-1.000000	-1.000000	-1.000000	-1.000000	-1.000000	50.000000	0.000000	-1.000000	-1.000000	313464.000000	1775803899.273744
-16168.365000	-29257.245000	1430.325000	21524.265000	7071.660000	-9951.930000	-38944.890000	-27925.020000	-3.484997	-3.105123	-2.115705	1.287999	2.659602	6.154622	4.061155	-2.114188	1.037680	0.534100	-1.510740	-0.833250	0.134887	0.521117	-1.000000	-1.000000	-1.000000	-1.000000	-1.000000	-1.000000	-1.000000	50.000000	0.000000	-1.000000	-1.000000	313465.000000	1775803899.273756
-16166.340000	-29255.400000	1432.170000	21528.045000	7079.040000	-9948.015000	-38943.495000	-27923.265000	-0.932401	-0.529217	0.738571	6.684574	5.900963	4.765000	1.105730	-0.773858	1.037680	0.534100	-1.510740	-0.833250	0.134887	0.521117	-1.000000	-1.000000	-1.000000	-1.000000	-1.000000	-1.000000	-1.000000	50.000000	0.000000	-1.000000	-1.000000	313466.000000	1775803899.275401
-16166.430000	-29254.770000	1431.360000	21525.975000	7071.345000	-9952.290000	-38943.090000	-27923.355000	1.411837	1.845876	3.274379	9.748116	7.956063	1.839073	-1.915977	0.486442	1.037680	0.534100	-1.510740	-0.833250	0.134887	0.521117	-1.000000	-1.000000	-1.000000	-1.000000	-1.000000	-1.000000	-1.000000	50.000000	0.000000	-1.000000	-1.000000	313467.000000	1775803899.275418
-16168.725000	-29259.045000	1426.365000	21517.650000	7062.885000	-9961.245000	-38947.230000	-27924.795000	2.738082	3.063452	4.080985	8.486232	6.450746	-1.485571	-3.898619	1.207689	1.037680	0.534100	-1.510740	-0.833250	0.134887	0.521117	-1.000000	-1.000000	-1.000000	-1.000000	-1.000000	-1.000000	-1.000000	50.000000	0.000000	-1.000000	-1.000000	313468.000000	1775803899.282428
-16170.975000	-29261.295000	1422.495000	21510.810000	7061.085000	-9962.190000	-38947.905000	-27926.145000	2.711344	2.690891	2.640956	2.977191	0.753942	-4.504208	-4.512803	1.202926	1.037680	0.534100	-1.510740	-0.833250	0.134887	0.521117	-1.000000	-1.000000	-1.000000	-1.000000	-1.000000	-1.000000	-1.000000	50.000000	0.000000	-1.000000	-1.000000	313469.000000	1775803899.282451
-16171.065000	-29261.295000	1422.765000	21511.890000	7056.900000	-9960.795000	-38948.130000	-27926.190000	1.589843	1.116819	-0.147672	-4.063915	-6.244289	-6.118566	-3.911827	0.619673	1.037680	0.534100	-1.510740	-0.833250	0.134887	0.521117	-1.000000	-1.000000	-1.000000	-1.000000	-1.000000	-1.000000	-1.000000	50.000000	0.000000	-1.000000	-1.000000	313470.000000	1775803899.295426
-16167.195000	-29254.905000	1426.860000	21515.220000	7054.695000	-9954.630000	-38943.090000	-27920.790000	0.272348	-0.408179	-2.384441	-8.690945	-10.538302	-5.126061	-2.247725	0.033215	1.037680	0.534100	-1.510740	-0.833250	0.134887	0.521117	-1.000000	-1.000000	-1.000000	-1.000000	-1.000000	-1.000000	-1.000000	50.000000	0.000000	-1.000000	-1.000000	313471.000000	1775803899.295455
-16158.645000	-29242.980000	1437.480000	21524.220000	7058.610000	-9946.800000	-38937.330000	-27914.715000	-0.162598	-0.502638	-2.416682	-8.340481	-10.006788	-1.473940	0.262690	0.156489	-2.166920	1.327620	-1.632820	-0.829710	0.137329	0.523497	-1.000000	-1.000000	-1.000000	-1.000000	-1.000000	-1.000000	-1.000000	50.000000	0.000000	-1.000000	-1.000000	313472.000000	1775803899.295609
-16160.670000	-29245.500000	1439.550000	21529.845000	7063.830000	-9944.595000	-38940.210000	-27920.430000	0.597677	1.038876	-0.111660	-3.488868	-5.113083	3.240608	2.855507	0.965854	-2.166920	1.327620	-1.632820	-0.829710	0.137329	0.523497	-1.000000	-1.000000	-1.000000	-1.000000	-1.000000	-1.000000	-1.000000	50.000000	0.000000	-1.000000	-1.000000	313473.000000	1775803899.295628
-16163.640000	-29246.715000	1441.035000	21533.625000	7076.430000	-9944.730000	-38941.470000	-27925.470000	1.477241	2.565233	2.774798	2.811486	1.913354	6.474109	4.145718	1.278213	-2.166920	1.327620	-1.632820	-0.829710	0.137329	0.523497	-1.000000	-1.000000	-1.000000	-1.000000	-1.000000	-1.000000	-1.000000	50.000000	0.000000	-1.000000	-1.000000	313474.000000	1775803899.295651
-16167.870000	-29250.045000	1438.245000	21527.145000	7070.400000	-9952.920000	-38947.050000	-27932.490000	1.016851	2.115247	3.893604	6.823946	8.006512	6.236912	3.180006	0.021305	-2.166920	1.327620	-1.632820	-0.829710	0.137329	0.523497	-1.000000	-1.000000	-1.000000	-1.000000	-1.000000	-1.000000	-1.000000	50.000000	0.000000	-1.000000	-1.000000	313475.000000	1775803899.295664
-16163.865000	-29251.395000	1432.305000	21518.640000	7064.010000	-9952.695000	-38940.840000	-27925.155000	-0.844226	-0.457561	2.170290	6.221785	10.094427	2.511463	0.572979	-2.150410	-2.166920	1.327620	-1.632820	-0.829710	0.137329	0.523497	-1.000000	-1.000000	-1.000000	-1.000000	-1.000000	-1.000000	-1.000000	50.000000	0.000000	-1.000000	-1.000000	313476.000000	1775803899.298395
-16162.740000	-29251.890000	1430.775000	21520.170000	7057.755000	-9955.710000	-38940.750000	-27922.905000	-2.593153	-3.477050	-1.510522	1.607636	6.869269	-2.502668	-1.786748	-3.183469	-2.166920	1.327620	-1.632820	-0.829710	0.137329	0.523497	-1.000000	-1.000000	-1.000000	-1.000000	-1.000000	-1.000000	-1.000000	50.000000	0.000000	-1.000000	-1.000000	313477.000000	1775803899.298420
-16166.835000	-29254.680000	1428.480000	21518.730000	7035.120000	-9963.990000	-38945.205000	-27927.180000	-2.913501	-5.053417	-4.941802	-3.712177	-0.066261	-6.074261	-2.551603	-1.967151	-2.166920	1.327620	-1.632820	-0.829710	0.137329	0.523497	-1.000000	-1.000000	-1.000000	-1.000000	-1.000000	-1.000000	-1.000000	50.000000	0.000000	-1.000000	-1.000000	313478.000000	1775803899.300960
-16166.250000	-29253.105000	1429.110000	21516.570000	7007.310000	-9962.820000	-38943.360000	-27926.730000	-1.956010	-4.413339	-6.082273	-6.392771	-7.773259	-6.843164	-1.986276	0.374528	-2.166920	1.327620	-1.632820	-0.829710	0.137329	0.523497	-1.000000	-1.000000	-1.000000	-1.000000	-1.000000	-1.000000	-1.000000	50.000000	0.000000	-1.000000	-1.000000	313479.000000	1775803899.300984
-16161.795000	-29248.245000	1432.215000	21512.385000	7014.150000	-9949.905000	-38938.410000	-27921.240000	-0.494952	-1.926290	-4.301472	-5.541949	-13.024383	-4.602695	-0.830660	2.186811	-2.166920	1.327620	-1.632820	-0.829710	0.137329	0.523497	-1.000000	-1.000000	-1.000000	-1.000000	-1.000000	-1.000000	-1.000000	50.000000	0.000000	-1.000000	-1.000000	313480.000000	1775803899.304976
-16165.755000	-29251.890000	1430.505000	21520.845000	7083.630000	-9936.945000	-38939.580000	-27924.570000	0.960966	1.315193	-0.580611	-2.333610	-11.060079	0.316074	0.555205	2.878685	-2.166920	1.327620	-1.632820	-0.829710	0.137329	0.523497	-1.000000	-1.000000	-1.000000	-1.000000	-1.000000	-1.000000	-1.000000	50.000000	0.000000	-1.000000	-1.000000	313481.000000	1775803899.305003
-16164.630000	-29247.705000	1439.910000	21536.145000	7117.335000	-9947.295000	-38947.770000	-27928.485000	1.883306	3.809622	3.257474	1.931386	1.651995	5.940403	1.507294	2.367467	-1.037680	2.731540	-1.266580	-0.827696	0.139038	0.525023	-1.000000	-1.000000	-1.000000	-1.000000	-1.000000	-1.000000	-1.000000	50.000000	0.000000	-1.000000	-1.000000	313482.000000	1775803899.308679
-16161.345000	-29245.725000	1439.640000	21531.915000	7089.795000	-9958.005000	-38947.320000	-27925.740000	1.957617	4.595565	5.737506	6.048254	19.234484	8.449519	1.184425	0.802880	-1.037680	2.731540	-1.266580	-0.827696	0.139038	0.525023	-1.000000	-1.000000	-1.000000	-1.000000	-1.000000	-1.000000	-1.000000	50.000000	0.000000	-1.000000	-1.000000	313483.000000	1775803899.308705
-16162.065000	-29250.810000	1431.270000	21520.755000	7068.285000	-9953.955000	-38938.635000	-27920.430000	1.485597	3.684435	5.916348	7.749042	27.086583	5.631033	0.014149	-0.831841	-1.037680	2.731540	-1.266580	-0.827696	0.139038	0.525023	-1.000000	-1.000000	-1.000000	-1.000000	-1.000000	-1.000000	-1.000000	50.000000	0.000000	-1.000000	-1.000000	313484.000000	1775803899.314184
-16164.855000	-29250.990000	1432.890000	21521.610000	7056.900000	-9954.945000	-38939.040000	-27924.525000	0.772174	1.508954	3.437974	5.155631	16.587704	-0.258248	-0.480540	-1.437858	-1.037680	2.731540	-1.266580	-0.827696	0.139038	0.525023	-1.000000	-1.000000	-1.000000	-1.000000	-1.000000	-1.000000	-1.000000	50.000000	0.000000	-1.000000	-1.000000	313485.000000	1775803899.314209
-16167.330000	-29252.070000	1433.745000	21525.795000	7055.865000	-9966.645000	-38943.270000	-27928.530000	-0.215656	-1.091815	-0.471244	-0.303652	-5.469699	-5.166017	0.129303	-1.184709	-1.037680	2.731540	-1.266580	-0.827696	0.139038	0.525023	-1.000000	-1.000000	-1.000000	-1.000000	-1.000000	-1.000000	-1.000000	50.000000	0.000000	-1.000000	-1.000000	313486.000000	1775803899.316172
-16170.255000	-29255.355000	1430.550000	21525.480000	7056.135000	-9974.520000	-38949.255000	-27931.230000	-1.366129	-2.992528	-3.566743	-4.854790	-24.156467	-7.223359	0.612184	-1.044998	-1.037680	2.731540	-1.266580	-0.827696	0.139038	0.525023	-1.000000	-1.000000	-1.000000	-1.000000	-1.000000	-1.000000	-1.000000	50.000000	0.000000	-1.000000	-1.000000	313487.000000	1775803899.316196
-16166.205000	-29252.655000	1429.380000	21518.505000	7032.870000	-9967.590000	-38947.005000	-27926.280000	-2.110757	-3.481318	-4.587295	-6.218297	-29.463431	-6.482071	0.018173	-1.210449	-1.037680	2.731540	-1.266580	-0.827696	0.139038	0.525023	-1.000000	-1.000000	-1.000000	-1.000000	-1.000000	-1.000000	-1.000000	50.000000	0.000000	-1.000000	-1.000000	313488.000000	1775803899.320904
-16157.970000	-29241.945000	1437.255000	21521.745000	7033.770000	-9944.055000	-38941.290000	-27920.970000	-1.625525	-2.285000	-3.564579	-4.879430	-21.775469	-2.777626	-0.927195	-0.846887	-1.037680	2.731540	-1.266580	-0.827696	0.139038	0.525023	-1.000000	-1.000000	-1.000000	-1.000000	-1.000000	-1.000000	-1.000000	50.000000	0.000000	-1.000000	-1.000000	313489.000000	1775803899.320932
-16157.115000	-29237.040000	1446.975000	21535.335000	7044.435000	-9942.480000	-38938.815000	-27922.365000	0.312582	0.440382	-0.894217	-2.007425	-7.223574	3.560617	-0.841994	0.514920	-1.037680	2.731540	-1.266580	-0.827696	0.139038	0.525023	-1.000000	-1.000000	-1.000000	-1.000000	-1.000000	-1.000000	-1.000000	50.000000	0.000000	-1.000000	-1.000000	313490.000000	1775803899.325262
-16166.925000	-29252.565000	1429.605000	21517.695000	7067.610000	-9959.805000	-38942.730000	-27926.595000	2.362583	3.150678	2.196991	1.364558	8.461570	9.202139	0.371430	1.935685	-1.037680	2.731540	-1.266580	-0.827696	0.139038	0.525023	-1.000000	-1.000000	-1.000000	-1.000000	-1.000000	-1.000000	-1.000000	50.000000	0.000000	-1.000000	-1.000000	313491.000000	1775803899.325289
-16174.170000	-29263.320000	1419.615000	21510.225000	7070.175000	-9977.895000	-38949.975000	-27932.580000	2.411751	3.206871	3.177524	3.206045	20.817111	9.210777	1.272283	1.952680	-0.320460	2.975700	-0.228900	-0.827635	0.139648	0.526610	-1.000000	-1.000000	-1.000000	-1.000000	-1.000000	-1.000000	-1.000000	50.000000	0.000000	-1.000000	-1.000000	313492.000000	1775803899.328882
-16173.765000	-29262.690000	1418.535000	21503.070000	7071.300000	-9969.840000	-38950.425000	-27933.660000	0.022774	-0.096195	0.814180	1.984148	25.649073	2.682068	0.656354	0.271485	-0.320460	2.975700	-0.228900	-0.827635	0.139648	0.526610	-1.000000	-1.000000	-1.000000	-1.000000	-1.000000	-1.000000	-1.000000	50.000000	0.000000	-1.000000	-1.000000	313493.000000	1775803899.328904
-16163.595000	-29251.440000	1425.870000	21487.905000	7063.335000	-9944.415000	-38940.480000	-27925.245000	-2.584106	-3.785401	-2.554719	-1.248761	20.658160	-4.822196	-0.766746	-1.663250	-0.320460	2.975700	-0.228900	-0.827635	0.139648	0.526610	-1.000000	-1.000000	-1.000000	-1.000000	-1.000000	-1.000000	-1.000000	50.000000	0.000000	-1.000000	-1.000000	313494.000000	1775803899.344130
-16157.430000	-29244.555000	1434.375000	21508.605000	7063.155000	-9932.175000	-38931.165000	-27918.720000	-2.669500	-4.074083	-3.318796	-3.660677	7.929244	-6.539838	-0.990735	-1.855859	-0.320460	2.975700	-0.228900	-0.827635	0.139648	0.526610	-1.000000	-1.000000	-1.000000	-1.000000	-1.000000	-1.000000	-1.000000	50.000000	0.000000	-1.000000	-1.000000	313495.000000	1775803899.344157
-16166.880000	-29254.545000	1427.760000	21534.165000	7068.465000	-9945.855000	-38941.290000	-27925.920000	-0.105965	-0.632047	-0.574998	-2.066249	-6.410077	-1.974524	0.568559	-0.012649	-0.320460	2.975700	-0.228900	-0.827635	0.139648	0.526610	-1.000000	-1.000000	-1.000000	-1.000000	-1.000000	-1.000000	-1.000000	50.000000	0.000000	-1.000000	-1.000000	313496.000000	1775803899.344186
-16165.305000	-29249.955000	1434.510000	21540.015000	7081.470000	-9941.175000	-38938.590000	-27925.425000	2.437056	3.227512	3.183535	4.255088	-15.568248	3.104313	2.026938	1.902570	-0.320460	2.975700	-0.228900	-0.827635	0.139648	0.526610	-1.000000	-1.000000	-1.000000	-1.000000	-1.000000	-1.000000	-1.000000	50.000000	0.000000	-1.000000	-1.000000	313497.000000	1775803899.344199
-16165.530000	-29248.605000	1434.555000	21528.810000	7072.740000	-9936.900000	-38935.350000	-27926.055000	2.787069	4.614659	5.130632	10.831731	-16.409883	4.025216	1.728891	2.075040	-0.320460	2.975700	-0.228900	-0.827635	0.139648	0.526610	-1.000000	-1.000000	-1.000000	-1.000000	-1.000000	-1.000000	-1.000000	50.000000	0.000000	-1.000000	-1.000000	313498.000000	1775803899.344213
-16169.805000	-29251.710000	1430.955000	21515.445000	7048.080000	-9944.505000	-38940.705000	-27931.455000	1.178001	3.369040	4.339443	11.218262	-11.648756	1.101493	0.101096	0.571472	-0.320460	2.975700	-0.228900	-0.827635	0.139648	0.526610	-1.000000	-1.000000	-1.000000	-1.000000	-1.000000	-1.000000	-1.000000	50.000000	0.000000	-1.000000	-1.000000	313499.000000	1775803899.344223
-16171.380000	-29253.780000	1430.370000	21523.320000	7062.795000	-9952.470000	-38943.270000	-27930.780000	-1.026501	0.706971	1.414708	3.831431	-6.319400	-3.181185	-1.764084	-1.443426	-0.320460	2.975700	-0.228900	-0.827635	0.139648	0.526610	-1.000000	-1.000000	-1.000000	-1.000000	-1.000000	-1.000000	-1.000000	50.000000	0.000000	-1.000000	-1.000000	313500.000000	1775803899.346395
-16166.025000	-29251.620000	1430.505000	21528.585000	7082.910000	-9961.605000	-38942.595000	-27924.390000	-2.476631	-1.964131	-2.090132	-6.067990	-1.732842	-6.764829	-3.080602	-2.577636	-0.320460	2.975700	-0.228900	-0.827635	0.139648	0.526610	-1.000000	-1.000000	-1.000000	-1.000000	-1.000000	-1.000000	-1.000000	50.000000	0.000000	-1.000000	-1.000000	313501.000000	1775803899.346421
-16160.445000	-29245.365000	1435.635000	21527.910000	7075.260000	-9950.850000	-38936.835000	-27921.420000	-2.148755	-3.251468	-4.296229	-11.788978	3.558787	-7.908345	-3.065510	-1.837077	-0.717220	2.807840	1.312360	-0.828855	0.135864	0.525267	-1.000000	-1.000000	-1.000000	-1.000000	-1.000000	-1.000000	-1.000000	50.000000	0.000000	-1.000000	-1.000000	313502.000000	1775803899.356817
-16161.255000	-29244.420000	1435.410000	21522.870000	7055.640000	-9949.140000	-38939.220000	-27925.065000	-0.146557	-2.486269	-4.155270	-11.152829	8.013302	-5.289343	-1.425599	0.301967	-0.717220	2.807840	1.312360	-0.828855	0.135864	0.525267	-1.000000	-1.000000	-1.000000	-1.000000	-1.000000	-1.000000	-1.000000	50.000000	0.000000	-1.000000	-1.000000	313503.000000	1775803899.356843
-16161.570000	-29247.705000	1430.370000	21521.205000	7060.995000	-9948.060000	-38937.330000	-27923.085000	2.002049	-0.513068	-2.287123	-6.564701	8.144824	0.398564	0.940924	2.097242	-0.717220	2.807840	1.312360	-0.828855	0.135864	0.525267	-1.000000	-1.000000	-1.000000	-1.000000	-1.000000	-1.000000	-1.000000	50.000000	0.000000	-1.000000	-1.000000	313504.000000	1775803899.356871
-16165.215000	-29253.690000	1424.700000	21520.980000	7072.695000	-9950.355000	-38939.580000	-27925.065000	2.613761	0.849592	-0.465850	-1.380808	4.367748	6.071579	2.592769	2.311876	-0.717220	2.807840	1.312360	-0.828855	0.135864	0.525267	-1.000000	-1.000000	-1.000000	-1.000000	-1.000000	-1.000000	-1.000000	50.000000	0.000000	-1.000000	-1.000000	313505.000000	1775803899.356884
-16169.670000	-29255.130000	1424.565000	21522.465000	7074.900000	-9944.685000	-38939.220000	-27928.935000	1.218852	0.520342	0.131673	2.505161	0.732319	8.745609	2.742898	1.035297	-0.717220	2.807840	1.312360	-0.828855	0.135864	0.525267	-1.000000	-1.000000	-1.000000	-1.000000	-1.000000	-1.000000	-1.000000	50.000000	0.000000	-1.000000	-1.000000	313506.000000	1775803899.361428
-16169.355000	-29253.870000	1425.780000	21522.330000	7068.645000	-9944.055000	-38933.055000	-27927.855000	-1.234037	-0.826177	-0.053768	4.652673	-0.497054	7.773582	1.747660	-0.850207	-0.717220	2.807840	1.312360	-0.828855	0.135864	0.525267	-1.000000	-1.000000	-1.000000	-1.000000	-1.000000	-1.000000	-1.000000	50.000000	0.000000	-1.000000	-1.000000	313507.000000	1775803899.361448
-16169.895000	-29252.295000	1427.580000	21523.005000	7066.845000	-9944.730000	-38926.215000	-27928.755000	-3.069353	-1.584415	0.143281	5.206755	-0.517307	4.399499	0.773249	-2.202223	-0.717220	2.807840	1.312360	-0.828855	0.135864	0.525267	-1.000000	-1.000000	-1.000000	-1.000000	-1.000000	-1.000000	-1.000000	50.000000	0.000000	-1.000000	-1.000000	313508.000000	1775803899.361471
-16168.545000	-29250.810000	1429.155000	21521.880000	7066.710000	-9947.925000	-38930.130000	-27929.250000	-3.088248	-0.860935	1.180747	4.448271	-0.979678	0.216683	0.511912	-2.278801	-0.717220	2.807840	1.312360	-0.828855	0.135864	0.525267	-1.000000	-1.000000	-1.000000	-1.000000	-1.000000	-1.000000	-1.000000	50.000000	0.000000	-1.000000	-1.000000	313509.000000	1775803899.361483
-16157.835000	-29241.720000	1436.220000	21528.765000	7069.230000	-9959.130000	-38947.230000	-27921.420000	-1.188739	1.015377	2.587844	2.903478	-1.845871	-3.636856	0.046211	-1.087852	-0.717220	2.807840	1.312360	-0.828855	0.135864	0.525267	-1.000000	-1.000000	-1.000000	-1.000000	-1.000000	-1.000000	-1.000000	50.000000	0.000000	-1.000000	-1.000000	313510.000000	1775803899.374340
-16155.720000	-29237.040000	1440.045000	21536.460000	7075.710000	-9951.615000	-38942.100000	-27919.800000	1.847505	3.150090	3.657238	1.485137	-2.036107	-6.251343	-1.798538	0.909245	-0.717220	2.807840	1.312360	-0.828855	0.135864	0.525267	-1.000000	-1.000000	-1.000000	-1.000000	-1.000000	-1.000000	-1.000000	50.000000	0.000000	-1.000000	-1.000000	313511.000000	1775803899.374366
-16159.320000	-29239.335000	1438.065000	21539.610000	7075.395000	-9947.295000	-38937.105000	-27922.140000	4.352401	4.380106	3.703783	0.858588	-0.967442	-6.397602	-3.910060	2.720021	-3.113040	2.197440	1.510740	-0.831419	0.132812	0.522399	-1.000000	-1.000000	-1.000000	-1.000000	-1.000000	-1.000000	-1.000000	50.000000	0.000000	-1.000000	-1.000000	313512.000000	1775803899.374395
-16159.905000	-29241.585000	1437.480000	21534.480000	7072.920000	-9942.255000	-38932.380000	-27921.015000	4.486099	3.535944	2.176763	0.530239	0.603785	-3.474528	-3.809900	3.104997	-3.113040	2.197440	1.510740	-0.831419	0.132812	0.522399	-1.000000	-1.000000	-1.000000	-1.000000	-1.000000	-1.000000	-1.000000	50.000000	0.000000	-1.000000	-1.000000	313513.000000	1775803899.374407
-16158.465000	-29240.820000	1437.120000	21520.980000	7063.785000	-9942.480000	-38932.155000	-27921.015000	2.018303	0.574365	-0.648042	-0.852759	1.164016	1.078857	-0.971992	1.769906	-3.113040	2.197440	1.510740	-0.831419	0.132812	0.522399	-1.000000	-1.000000	-1.000000	-1.000000	-1.000000	-1.000000	-1.000000	50.000000	0.000000	-1.000000	-1.000000	313514.000000	1775803899.374422
-16162.830000	-29245.005000	1432.080000	21519.765000	7055.370000	-9951.705000	-38938.230000	-27925.515000	-1.434253	-3.011768	-3.571572	-3.773930	-0.133977	4.412682	2.466285	-0.441786	-3.113040	2.197440	1.510740	-0.831419	0.132812	0.522399	-1.000000	-1.000000	-1.000000	-1.000000	-1.000000	-1.000000	-1.000000	50.000000	0.000000	-1.000000	-1.000000	313515.000000	1775803899.374433
-16163.415000	-29243.340000	1434.420000	21523.455000	7052.985000	-9955.125000	-38939.850000	-27927.315000	-4.048578	-5.380273	-5.314173	-6.480598	-2.525856	4.395085	3.920134	-2.497650	-3.113040	2.197440	1.510740	-0.831419	0.132812	0.522399	-1.000000	-1.000000	-1.000000	-1.000000	-1.000000	-1.000000	-1.000000	50.000000	0.000000	-1.000000	-1.000000	313516.000000	1775803899.390015
-16154.415000	-29230.830000	1448.280000	21537.270000	7066.620000	-9948.960000	-38934.405000	-27919.215000	-4.670844	-5.247983	-4.839042	-6.147378	-3.763341	1.553251	2.816643	-3.449470	-3.113040	2.197440	1.510740	-0.831419	0.132812	0.522399	-1.000000	-1.000000	-1.000000	-1.000000	-1.000000	-1.000000	-1.000000	50.000000	0.000000	-1.000000	-1.000000	313517.000000	1775803899.390041
-16147.080000	-29222.595000	1457.415000	21546.135000	7080.255000	-9941.850000	-38929.950000	-27912.825000	-2.798379	-2.236681	-1.665879	-1.707656	-1.664822	-1.240224	0.839388	-2.446975	-3.113040	2.197440	1.510740	-0.831419	0.132812	0.522399	-1.000000	-1.000000	-1.000000	-1.000000	-1.000000	-1.000000	-1.000000	50.000000	0.000000	-1.000000	-1.000000	313518.000000	1775803899.390095
-16165.440000	-29243.295000	1436.265000	21523.905000	7057.800000	-9956.700000	-38943.045000	-27929.790000	0.428141	1.899721	2.524961	4.198818	2.966593	-1.966848	-0.486405	-0.044243	-3.113040	2.197440	1.510740	-0.831419	0.132812	0.522399	-1.000000	-1.000000	-1.000000	-1.000000	-1.000000	-1.000000	-1.000000	50.000000	0.000000	-1.000000	-1.000000	313519.000000	1775803899.390108
-16164.945000	-29248.245000	1428.435000	21519.225000	7055.280000	-9952.335000	-38937.555000	-27923.805000	2.249840	3.606945	4.036921	6.744121	5.907180	-1.378762	-1.290744	1.580525	-3.113040	2.197440	1.510740	-0.831419	0.132812	0.522399	-1.000000	-1.000000	-1.000000	-1.000000	-1.000000	-1.000000	-1.000000	50.000000	0.000000	-1.000000	-1.000000	313520.000000	1775803899.390124
-16158.465000	-29241.180000	1433.385000	21527.055000	7068.240000	-9942.030000	-38932.515000	-27919.755000	1.525457	1.588004	1.415029	4.153598	4.601353	-0.606170	-1.731988	1.453903	-3.113040	2.197440	1.510740	-0.831419	0.132812	0.522399	-1.000000	-1.000000	-1.000000	-1.000000	-1.000000	-1.000000	-1.000000	50.000000	0.000000	-1.000000	-1.000000	313521.000000	1775803899.390135
-16162.470000	-29241.225000	1437.255000	21531.420000	7069.455000	-9943.020000	-38937.825000	-27928.305000	0.030157	-1.378907	-2.289844	-0.209857	1.305839	0.562868	-1.303521	0.646534	-1.144500	1.144500	0.244160	-0.833860	0.129333	0.521178	-1.000000	-1.000000	-1.000000	-1.000000	-1.000000	-1.000000	-1.000000	50.000000	0.000000	-1.000000	-1.000000	313522.000000	1775803899.390149
-16165.350000	-29243.880000	1435.095000	21528.540000	7073.370000	-9941.400000	-38937.555000	-27930.375000	-0.583025	-2.305478	-3.398922	-2.411621	-0.805710	1.947642	-0.302175	-0.118929	-1.144500	1.144500	0.244160	-0.833860	0.129333	0.521178	-1.000000	-1.000000	-1.000000	-1.000000	-1.000000	-1.000000	-1.000000	50.000000	0.000000	-1.000000	-1.000000	313523.000000	1775803899.390160
-16160.805000	-29238.120000	1440.810000	21531.060000	7079.175000	-9937.215000	-38933.280000	-27926.640000	-0.297466	-0.934219	-1.374963	-1.844602	-1.040119	2.532811	0.473342	-0.751442	-1.144500	1.144500	0.244160	-0.833860	0.129333	0.521178	-1.000000	-1.000000	-1.000000	-1.000000	-1.000000	-1.000000	-1.000000	50.000000	0.000000	-1.000000	-1.000000	313524.000000	1775803899.394500
-16156.620000	-29234.475000	1440.855000	21529.395000	7071.930000	-9940.275000	-38929.590000	-27921.510000	0.570157	1.460568	1.904303	-0.167470	-0.501051	1.833280	0.967387	-0.659786	-1.144500	1.144500	0.244160	-0.833860	0.129333	0.521178	-1.000000	-1.000000	-1.000000	-1.000000	-1.000000	-1.000000	-1.000000	50.000000	0.000000	-1.000000	-1.000000	313525.000000	1775803899.394526
-16150.680000	-29228.535000	1442.655000	21528.225000	7067.385000	-9941.805000	-38922.795000	-27912.960000	1.834021	3.599281	4.278725	0.984819	-0.729744	0.082662	1.512280	0.671357	-1.144500	1.144500	0.244160	-0.833860	0.129333	0.521178	-1.000000	-1.000000	-1.000000	-1.000000	-1.000000	-1.000000	-1.000000	50.000000	0.000000	-1.000000	-1.000000	313526.000000	1775803899.403185
-16163.775000	-29243.565000	1430.010000	21517.335000	7056.630000	-9952.965000	-38935.305000	-27927.855000	2.680411	4.211721	4.286466	0.768235	-2.445828	-2.230267	1.794143	2.401535	-1.144500	1.144500	0.244160	-0.833860	0.129333	0.521178	-1.000000	-1.000000	-1.000000	-1.000000	-1.000000	-1.000000	-1.000000	50.000000	0.000000	-1.000000	-1.000000	313527.000000	1775803899.403213
-16164.315000	-29245.455000	1425.780000	21508.380000	7062.165000	-9948.870000	-38935.170000	-27928.215000	1.814460	2.251989	1.603879	-0.901231	-4.627009	-4.301836	0.845558	2.547821	-1.144500	1.144500	0.244160	-0.833860	0.129333	0.521178	-1.000000	-1.000000	-1.000000	-1.000000	-1.000000	-1.000000	-1.000000	50.000000	0.000000	-1.000000	-1.000000	313528.000000	1775803899.403278
-16164.495000	-29243.835000	1424.790000	21512.835000	7046.955000	-9947.070000	-38930.625000	-27925.515000	-0.746102	-1.549558	-2.357445	-2.992043	-5.397688	-4.819729	-1.258047	0.476166	-1.144500	1.144500	0.244160	-0.833860	0.129333	0.521178	-1.000000	-1.000000	-1.000000	-1.000000	-1.000000	-1.000000	-1.000000	50.000000	0.000000	-1.000000	-1.000000	313529.000000	1775803899.403292
-16158.465000	-29238.120000	1434.735000	21525.525000	6999.255000	-9964.170000	-38933.550000	-27922.365000	-3.038077	-4.452244	-4.814188	-3.303238	-4.883937	-3.233965	-2.875693	-1.941460	-1.144500	1.144500	0.244160	-0.833860	0.129333	0.521178	-1.000000	-1.000000	-1.000000	-1.000000	-1.000000	-1.000000	-1.000000	50.000000	0.000000	-1.000000	-1.000000	313530.000000	1775803899.408190
-16161.030000	-29243.385000	1430.100000	21515.445000	6981.615000	-9968.895000	-38938.725000	-27925.110000	-3.239268	-4.409294	-3.881439	-0.648765	-5.326733	-0.971931	-2.956796	-2.735918	-1.144500	1.144500	0.244160	-0.833860	0.129333	0.521178	-1.000000	-1.000000	-1.000000	-1.000000	-1.000000	-1.000000	-1.000000	50.000000	0.000000	-1.000000	-1.000000	313531.000000	1775803899.408229
-16167.285000	-29246.175000	1430.730000	21521.835000	7048.935000	-9948.465000	-38938.275000	-27930.870000	-1.639948	-2.104078	-0.517960	3.161669	-5.138886	0.883321	-1.979819	-1.959369	3.967600	1.251320	0.457800	-0.832639	0.126526	0.521666	-1.000000	-1.000000	-1.000000	-1.000000	-1.000000	-1.000000	-1.000000	50.000000	0.000000	-1.000000	-1.000000	313532.000000	1775803899.417995
-16163.055000	-29240.280000	1433.655000	21526.470000	7125.525000	-9929.385000	-38930.220000	-27925.965000	0.110305	0.468977	2.695198	5.466181	2.852533	3.583501	-0.497701	-0.809587	3.967600	1.251320	0.457800	-0.832639	0.126526	0.521666	-1.000000	-1.000000	-1.000000	-1.000000	-1.000000	-1.000000	-1.000000	50.000000	0.000000	-1.000000	-1.000000	313533.000000	1775803899.418025
-16157.970000	-29237.355000	1435.950000	21526.740000	7101.405000	-9939.465000	-38928.420000	-27922.320000	1.218297	2.300065	4.141989	5.382223	19.714813	7.488948	1.461272	0.229693	3.967600	1.251320	0.457800	-0.832639	0.126526	0.521666	-1.000000	-1.000000	-1.000000	-1.000000	-1.000000	-1.000000	-1.000000	50.000000	0.000000	-1.000000	-1.000000	313534.000000	1775803899.418098
-16164.135000	-29243.160000	1431.630000	21522.330000	7080.030000	-9949.410000	-38936.430000	-27929.295000	1.875774	3.180878	3.632483	3.246059	32.074065	9.287135	3.227646	1.205693	3.967600	1.251320	0.457800	-0.832639	0.126526	0.521666	-1.000000	-1.000000	-1.000000	-1.000000	-1.000000	-1.000000	-1.000000	50.000000	0.000000	-1.000000	-1.000000	313535.000000	1775803899.418113
-16164.855000	-29244.105000	1429.470000	21519.945000	7081.290000	-9945.720000	-38934.495000	-27928.665000	1.877717	2.711183	1.567404	-0.245974	25.807342	5.868867	3.425929	1.614205	3.967600	1.251320	0.457800	-0.832639	0.126526	0.521666	-1.000000	-1.000000	-1.000000	-1.000000	-1.000000	-1.000000	-1.000000	50.000000	0.000000	-1.000000	-1.000000	313536.000000	1775803899.418129
-16172.145000	-29251.755000	1421.910000	21512.250000	7071.975000	-9944.325000	-38937.645000	-27934.965000	0.832601	0.823017	-1.289440	-3.925240	2.934266	-1.081971	1.740681	0.983329	3.967600	1.251320	0.457800	-0.832639	0.126526	0.521666	-1.000000	-1.000000	-1.000000	-1.000000	-1.000000	-1.000000	-1.000000	50.000000	0.000000	-1.000000	-1.000000	313537.000000	1775803899.418141
-16170.075000	-29246.850000	1428.750000	21518.460000	7069.320000	-9948.465000	-38945.970000	-27936.450000	-0.864598	-1.547031	-3.682949	-6.276954	-21.947623	-7.060220	-0.777799	-0.352552	3.967600	1.251320	0.457800	-0.832639	0.126526	0.521666	-1.000000	-1.000000	-1.000000	-1.000000	-1.000000	-1.000000	-1.000000	50.000000	0.000000	-1.000000	-1.000000	313538.000000	1775803899.420716
-16168.410000	-29241.270000	1436.760000	21527.820000	7064.730000	-9950.625000	-38947.455000	-27937.890000	-2.031714	-2.757505	-4.044430	-5.824008	-35.448013	-9.281590	-2.963357	-1.528148	3.967600	1.251320	0.457800	-0.832639	0.126526	0.521666	-1.000000	-1.000000	-1.000000	-1.000000	-1.000000	-1.000000	-1.000000	50.000000	0.000000	-1.000000	-1.000000	313539.000000	1775803899.420743
-16163.280000	-29237.445000	1439.550000	21529.755000	7050.420000	-9946.845000	-38939.895000	-27931.545000	-1.613579	-1.730020	-1.723238	-2.267210	-33.199410	-7.692613	-3.712583	-1.614684	3.967600	1.251320	0.457800	-0.832639	0.126526	0.521666	-1.000000	-1.000000	-1.000000	-1.000000	-1.000000	-1.000000	-1.000000	50.000000	0.000000	-1.000000	-1.000000	313540.000000	1775803899.425220
-16164.405000	-29239.065000	1434.960000	21519.405000	7039.125000	-9950.310000	-38939.490000	-27933.840000	0.246134	0.760648	1.721097	2.242359	-19.716238	-3.681668	-2.198220	-0.285169	3.967600	1.251320	0.457800	-0.832639	0.126526	0.521666	-1.000000	-1.000000	-1.000000	-1.000000	-1.000000	-1.000000	-1.000000	50.000000	0.000000	-1.000000	-1.000000	313541.000000	1775803899.425245
-16172.235000	-29248.380000	1425.420000	21512.430000	7043.760000	-9965.115000	-38942.865000	-27940.230000	2.027472	2.495957	3.457624	4.343728	-2.910924	0.480211	0.839047	1.492228	4.486440	2.273740	0.320460	-0.830015	0.132324	0.523497	-1.000000	-1.000000	-1.000000	-1.000000	-1.000000	-1.000000	-1.000000	50.000000	0.000000	-1.000000	-1.000000	313542.000000	1775803899.428088
-16169.130000	-29245.770000	1428.120000	21521.970000	7064.055000	-9976.005000	-38942.550000	-27936.135000	2.174602	1.889438	2.096070	2.939700	11.670672	2.412927	3.281408	2.237412	4.486440	2.273740	0.320460	-0.830015	0.132324	0.523497	-1.000000	-1.000000	-1.000000	-1.000000	-1.000000	-1.000000	-1.000000	50.000000	0.000000	-1.000000	-1.000000	313543.000000	1775803899.428110
-16170.705000	-29245.545000	1428.660000	21523.635000	7078.320000	-9962.235000	-38945.745000	-27939.870000	0.772270	-0.349604	-0.871831	0.334031	21.869569	1.927871	3.649179	1.625817	4.486440	2.273740	0.320460	-0.830015	0.132324	0.523497	-1.000000	-1.000000	-1.000000	-1.000000	-1.000000	-1.000000	-1.000000	50.000000	0.000000	-1.000000	-1.000000	313544.000000	1775803899.434057
-16165.170000	-29238.840000	1436.085000	21526.875000	7072.380000	-9941.985000	-38944.440000	-27936.630000	-0.723359	-2.041780	-2.685983	-0.819759	26.093013	1.866118	2.133289	0.462259	4.486440	2.273740	0.320460	-0.830015	0.132324	0.523497	-1.000000	-1.000000	-1.000000	-1.000000	-1.000000	-1.000000	-1.000000	50.000000	0.000000	-1.000000	-1.000000	313545.000000	1775803899.434084
-16158.870000	-29234.070000	1441.080000	21532.185000	7069.455000	-9934.830000	-38932.155000	-27927.630000	-1.014781	-1.724817	-1.884328	-0.098949	22.340509	4.613190	0.227315	-0.240530	4.486440	2.273740	0.320460	-0.830015	0.132324	0.523497	-1.000000	-1.000000	-1.000000	-1.000000	-1.000000	-1.000000	-1.000000	50.000000	0.000000	-1.000000	-1.000000	313546.000000	1775803899.436044
-16161.795000	-29238.705000	1435.995000	21528.540000	7067.070000	-9940.905000	-38930.355000	-27928.305000	-0.013139	0.130751	0.636458	1.227061	11.090342	8.319548	-0.432761	0.100569	4.486440	2.273740	0.320460	-0.830015	0.132324	0.523497	-1.000000	-1.000000	-1.000000	-1.000000	-1.000000	-1.000000	-1.000000	50.000000	0.000000	-1.000000	-1.000000	313547.000000	1775803899.436065
-16170.435000	-29246.130000	1427.625000	21521.205000	7069.545000	-9951.165000	-38933.415000	-27936.180000	0.895424	1.512533	2.371231	1.479901	-2.998250	8.478462	0.165885	0.756075	4.486440	2.273740	0.320460	-0.830015	0.132324	0.523497	-1.000000	-1.000000	-1.000000	-1.000000	-1.000000	-1.000000	-1.000000	50.000000	0.000000	-1.000000	-1.000000	313548.000000	1775803899.440096
-16177.680000	-29252.745000	1419.705000	21508.605000	7053.030000	-9957.465000	-38932.425000	-27942.840000	0.122004	0.782040	1.447287	-0.346151	-14.065234	3.000527	0.469456	0.167837	4.486440	2.273740	0.320460	-0.830015	0.132324	0.523497	-1.000000	-1.000000	-1.000000	-1.000000	-1.000000	-1.000000	-1.000000	50.000000	0.000000	-1.000000	-1.000000	313549.000000	1775803899.440116
-16172.280000	-29246.940000	1425.375000	21513.015000	7044.705000	-9946.170000	-38928.870000	-27938.925000	-2.063563	-1.475392	-1.398020	-3.441558	-19.017058	-5.148995	-0.391789	-1.871971	4.486440	2.273740	0.320460	-0.830015	0.132324	0.523497	-1.000000	-1.000000	-1.000000	-1.000000	-1.000000	-1.000000	-1.000000	50.000000	0.000000	-1.000000	-1.000000	313550.000000	1775803899.448712
-16153.380000	-29228.670000	1442.565000	21529.620000	7058.835000	-9937.890000	-38934.720000	-27924.390000	-3.165730	-2.621080	-3.127504	-5.000978	-17.494946	-10.306472	-1.819224	-3.324910	4.486440	2.273740	0.320460	-0.830015	0.132324	0.523497	-1.000000	-1.000000	-1.000000	-1.000000	-1.000000	-1.000000	-1.000000	50.000000	0.000000	-1.000000	-1.000000	313551.000000	1775803899.448741
-16152.795000	-29227.815000	1443.960000	21533.085000	7074.000000	-9940.815000	-38939.220000	-27923.490000	-1.072793	-0.637776	-1.379240	-2.612337	-9.951491	-9.341572	-3.069313	-2.099103	-2.029580	3.143560	1.327620	-0.829527	0.141967	0.523985	-1.000000	-1.000000	-1.000000	-1.000000	-1.000000	-1.000000	-1.000000	50.000000	0.000000	-1.000000	-1.000000	313552.000000	1775803899.448772
-16157.880000	-29233.305000	1439.460000	21532.455000	7084.665000	-9941.445000	-38932.695000	-27926.280000	2.839063	3.027977	2.522614	2.535199	1.501834	-4.203655	-3.629431	1.079346	-2.029580	3.143560	1.327620	-0.829527	0.141967	0.523985	-1.000000	-1.000000	-1.000000	-1.000000	-1.000000	-1.000000	-1.000000	50.000000	0.000000	-1.000000	-1.000000	313553.000000	1775803899.448786
-16157.835000	-29233.890000	1437.210000	21526.875000	7074.585000	-9938.880000	-38931.345000	-27926.055000	4.894939	4.759303	4.808372	6.350600	11.786150	0.976515	-2.777510	3.336796	-2.029580	3.143560	1.327620	-0.829527	0.141967	0.523985	-1.000000	-1.000000	-1.000000	-1.000000	-1.000000	-1.000000	-1.000000	50.000000	0.000000	-1.000000	-1.000000	313554.000000	1775803899.452909
-16161.030000	-29237.265000	1432.530000	21519.630000	7065.585000	-9940.410000	-38934.990000	-27929.430000	3.293889	2.868355	3.374296	5.796575	15.209517	3.696685	-0.515968	2.891365	-2.029580	3.143560	1.327620	-0.829527	0.141967	0.523985	-1.000000	-1.000000	-1.000000	-1.000000	-1.000000	-1.000000	-1.000000	50.000000	0.000000	-1.000000	-1.000000	313555.000000	1775803899.452935
-16164.990000	-29240.280000	1430.370000	21522.555000	7074.405000	-9944.955000	-38937.555000	-27933.795000	-0.643539	-1.186917	-0.637846	1.404059	10.289759	3.660013	1.770394	0.273431	-2.029580	3.143560	1.327620	-0.829527	0.141967	0.523985	-1.000000	-1.000000	-1.000000	-1.000000	-1.000000	-1.000000	-1.000000	50.000000	0.000000	-1.000000	-1.000000	313556.000000	1775803899.458977
-16161.840000	-29235.960000	1436.085000	21530.430000	7081.785000	-9945.090000	-38935.305000	-27931.905000	-4.286954	-4.654245	-4.325891	-3.337696	1.500060	1.779010	2.756334	-2.693359	-2.029580	3.143560	1.327620	-0.829527	0.141967	0.523985	-1.000000	-1.000000	-1.000000	-1.000000	-1.000000	-1.000000	-1.000000	50.000000	0.000000	-1.000000	-1.000000	313557.000000	1775803899.458997
-16163.820000	-29238.345000	1432.710000	21513.555000	7050.780000	-9950.220000	-38935.665000	-27932.625000	-5.530372	-5.479062	-5.300971	-5.350251	-5.679091	-0.506863	2.455654	-4.132933	-2.029580	3.143560	1.327620	-0.829527	0.141967	0.523985	-1.000000	-1.000000	-1.000000	-1.000000	-1.000000	-1.000000	-1.000000	50.000000	0.000000	-1.000000	-1.000000	313558.000000	1775803899.459671
-16163.190000	-29239.740000	1426.545000	21487.905000	7008.345000	-9948.825000	-38933.055000	-27930.960000	-3.972052	-3.578207	-3.519937	-5.163173	-10.393738	-1.926354	1.671711	-3.251776	-2.029580	3.143560	1.327620	-0.829527	0.141967	0.523985	-1.000000	-1.000000	-1.000000	-1.000000	-1.000000	-1.000000	-1.000000	50.000000	0.000000	-1.000000	-1.000000	313559.000000	1775803899.459689
-16162.965000	-29238.750000	1426.140000	21503.790000	7032.870000	-9954.405000	-38935.935000	-27931.950000	-0.855447	-0.506136	-0.851307	-4.756622	-13.508238	-1.951994	0.961286	-0.762777	-2.029580	3.143560	1.327620	-0.829527	0.141967	0.523985	-1.000000	-1.000000	-1.000000	-1.000000	-1.000000	-1.000000	-1.000000	50.000000	0.000000	-1.000000	-1.000000	313560.000000	1775803899.466204
-16161.435000	-29233.980000	1438.875000	21555.495000	7100.685000	-9945.720000	-38934.090000	-27932.130000	2.148811	2.212096	1.413270	-2.468508	-10.968768	-0.749299	0.363507	1.813680	-2.029580	3.143560	1.327620	-0.829527	0.141967	0.523985	-1.000000	-1.000000	-1.000000	-1.000000	-1.000000	-1.000000	-1.000000	50.000000	0.000000	-1.000000	-1.000000	313561.000000	1775803899.466230
-16163.370000	-29237.130000	1433.430000	21539.610000	7080.750000	-9939.870000	-38930.175000	-27932.220000	3.860700	3.823257	3.278043	4.379465	1.220800	1.338422	-0.113985	3.222245	-5.966660	2.334780	1.648080	-0.831114	0.145446	0.522765	-1.000000	-1.000000	-1.000000	-1.000000	-1.000000	-1.000000	-1.000000	50.000000	0.000000	-1.000000	-1.000000	313562.000000	1775803899.481594
-16167.015000	-29240.190000	1428.975000	21528.135000	7071.885000	-9940.005000	-38931.120000	-27934.560000	3.772140	3.878548	4.268985	11.854010	16.252333	3.638760	-0.283104	3.076962	-5.966660	2.334780	1.648080	-0.831114	0.145446	0.522765	-1.000000	-1.000000	-1.000000	-1.000000	-1.000000	-1.000000	-1.000000	50.000000	0.000000	-1.000000	-1.000000	313563.000000	1775803899.481620
-16164.270000	-29236.545000	1431.810000	21513.510000	7059.510000	-9946.350000	-38932.650000	-27934.245000	2.181896	2.397357	3.437765	12.248841	21.628670	4.653905	-0.276177	1.775381	-5.966660	2.334780	1.648080	-0.831114	0.145446	0.522765	-1.000000	-1.000000	-1.000000	-1.000000	-1.000000	-1.000000	-1.000000	50.000000	0.000000	-1.000000	-1.000000	313564.000000	1775803899.481649
-16165.395000	-29237.310000	1430.055000	21511.395000	7034.175000	-9956.520000	-38934.360000	-27935.730000	0.189634	0.347103	1.156138	3.908502	12.925963	2.972518	-0.524599	0.130583	-5.966660	2.334780	1.648080	-0.831114	0.145446	0.522765	-1.000000	-1.000000	-1.000000	-1.000000	-1.000000	-1.000000	-1.000000	50.000000	0.000000	-1.000000	-1.000000	313565.000000	1775803899.481662
-16171.695000	-29244.600000	1425.420000	21515.760000	7032.285000	-9961.965000	-38941.110000	-27941.400000	-1.236924	-1.270110	-1.233194	-7.046765	-3.622123	-1.117822	-1.208766	-1.184776	-5.966660	2.334780	1.648080	-0.831114	0.145446	0.522765	-1.000000	-1.000000	-1.000000	-1.000000	-1.000000	-1.000000	-1.000000	50.000000	0.000000	-1.000000	-1.000000	313566.000000	1775803899.481677
-16167.870000	-29240.505000	1429.110000	21516.705000	7044.210000	-9956.745000	-38939.040000	-27937.440000	-1.898763	-2.208573	-2.750353	-13.074298	-17.081296	-5.196140	-2.024711	-1.879456	-5.966660	2.334780	1.648080	-0.831114	0.145446	0.522765	-1.000000	-1.000000	-1.000000	-1.000000	-1.000000	-1.000000	-1.000000	50.000000	0.000000	-1.000000	-1.000000	313567.000000	1775803899.481689
-16164.810000	-29238.705000	1425.510000	21508.245000	7079.985000	-9945.315000	-38934.495000	-27934.515000	-1.687474	-2.266043	-2.931146	-11.436295	-18.680826	-6.132708	-2.131968	-1.638197	-5.966660	2.334780	1.648080	-0.831114	0.145446	0.522765	-1.000000	-1.000000	-1.000000	-1.000000	-1.000000	-1.000000	-1.000000	50.000000	0.000000	-1.000000	-1.000000	313568.000000	1775803899.481704
-16164.540000	-29237.895000	1430.910000	21528.900000	7090.110000	-9946.440000	-38935.890000	-27935.415000	-0.512529	-1.215742	-1.839074	-4.628005	-7.507886	-2.830225	-0.870896	-0.373748	-5.966660	2.334780	1.648080	-0.831114	0.145446	0.522765	-1.000000	-1.000000	-1.000000	-1.000000	-1.000000	-1.000000	-1.000000	50.000000	0.000000	-1.000000	-1.000000	313569.000000	1775803899.481715
-16164.720000	-29236.815000	1436.400000	21536.685000	7079.355000	-9951.345000	-38938.455000	-27937.215000	0.986891	0.435526	0.064726	3.611579	8.148397	2.252723	1.123426	1.111211	-5.966660	2.334780	1.648080	-0.831114	0.145446	0.522765	-1.000000	-1.000000	-1.000000	-1.000000	-1.000000	-1.000000	-1.000000	50.000000	0.000000	-1.000000	-1.000000	313570.000000	1775803899.485001
-16167.060000	-29238.435000	1432.080000	21531.510000	7080.750000	-9945.990000	-38938.140000	-27939.780000	1.755987	1.679788	2.019489	9.938192	16.941756	5.379370	2.430620	1.685162	-5.966660	2.334780	1.648080	-0.831114	0.145446	0.522765	-1.000000	-1.000000	-1.000000	-1.000000	-1.000000	-1.000000	-1.000000	50.000000	0.000000	-1.000000	-1.000000	313571.000000	1775803899.485022
-16169.355000	-29239.380000	1431.315000	21529.575000	7069.185000	-9941.175000	-38937.735000	-27941.220000	1.250941	1.806403	2.848143	11.271459	13.757994	5.190720	2.390383	0.984007	-5.127360	0.289940	0.274680	-0.831846	0.139404	0.522093	-1.000000	-1.000000	-1.000000	-1.000000	-1.000000	-1.000000	-1.000000	50.000000	0.000000	-1.000000	-1.000000	313572.000000	1775803899.491135
-16167.015000	-29237.580000	1437.210000	21534.615000	7071.480000	-9937.395000	-38933.730000	-27937.170000	-0.114086	0.895628	2.004184	7.014337	2.348263	3.009327	1.505931	-0.282040	-5.127360	0.289940	0.274680	-0.831846	0.139404	0.522093	-1.000000	-1.000000	-1.000000	-1.000000	-1.000000	-1.000000	-1.000000	50.000000	0.000000	-1.000000	-1.000000	313573.000000	1775803899.491165
-16167.780000	-29244.195000	1438.920000	21534.435000	7073.685000	-9938.070000	-38932.650000	-27935.145000	-1.286976	-0.394127	0.409928	0.144096	-9.227794	0.504531	0.650152	-0.951065	-5.127360	0.289940	0.274680	-0.831846	0.139404	0.522093	-1.000000	-1.000000	-1.000000	-1.000000	-1.000000	-1.000000	-1.000000	50.000000	0.000000	-1.000000	-1.000000	313574.000000	1775803899.497863
-16167.825000	-29245.095000	1441.170000	21524.985000	7068.645000	-9942.615000	-38935.170000	-27936.630000	-1.535879	-1.533987	-0.727516	-5.661171	-14.578501	-1.686806	0.141139	-0.561849	-5.127360	0.289940	0.274680	-0.831846	0.139404	0.522093	-1.000000	-1.000000	-1.000000	-1.000000	-1.000000	-1.000000	-1.000000	50.000000	0.000000	-1.000000	-1.000000	313575.000000	1775803899.497887
-16164.315000	-29229.435000	1454.085000	21540.285000	7066.980000	-9952.200000	-38944.350000	-27942.705000	-0.898078	-1.870414	-0.892774	-8.363263	-12.516753	-3.686224	-0.518300	0.126542	-5.127360	0.289940	0.274680	-0.831846	0.139404	0.522093	-1.000000	-1.000000	-1.000000	-1.000000	-1.000000	-1.000000	-1.000000	50.000000	0.000000	-1.000000	-1.000000	313576.000000	1775803899.501085
-16152.255000	-29231.010000	1443.780000	21534.210000	7065.945000	-9945.990000	-38935.350000	-27930.465000	0.403703	-0.582684	-0.305999	-7.337159	-5.993254	-5.259732	-1.622424	0.314300	-5.127360	0.289940	0.274680	-0.831846	0.139404	0.522093	-1.000000	-1.000000	-1.000000	-1.000000	-1.000000	-1.000000	-1.000000	50.000000	0.000000	-1.000000	-1.000000	313577.000000	1775803899.501107
-16158.780000	-29234.610000	1431.405000	21525.030000	7059.960000	-9950.490000	-38940.840000	-27935.955000	1.985392	1.642485	-0.317775	-3.815865	1.079993	-5.332825	-2.366567	0.273072	-5.127360	0.289940	0.274680	-0.831846	0.139404	0.522093	-1.000000	-1.000000	-1.000000	-1.000000	-1.000000	-1.000000	-1.000000	50.000000	0.000000	-1.000000	-1.000000	313578.000000	1775803899.501129
-16164.135000	-29229.255000	1440.585000	21526.155000	7056.585000	-9953.640000	-38944.845000	-27941.130000	2.579611	2.791497	-1.940079	-0.470944	5.795517	-3.381166	-2.073773	0.220340	-5.127360	0.289940	0.274680	-0.831846	0.139404	0.522093	-1.000000	-1.000000	-1.000000	-1.000000	-1.000000	-1.000000	-1.000000	50.000000	0.000000	-1.000000	-1.000000	313579.000000	1775803899.501139
-16166.880000	-29242.170000	1428.030000	21520.080000	7057.125000	-9946.890000	-38937.915000	-27940.500000	1.031602	1.836416	-3.895828	1.228994	7.191414	-0.238393	-1.048892	-0.310839	-5.127360	0.289940	0.274680	-0.831846	0.139404	0.522093	-1.000000	-1.000000	-1.000000	-1.000000	-1.000000	-1.000000	-1.000000	50.000000	0.000000	-1.000000	-1.000000	313580.000000	1775803899.513687
-16161.840000	-29241.225000	1417.320000	21514.365000	7057.170000	-9939.780000	-38927.790000	-27932.580000	-1.791603	-0.740753	-4.571953	1.571213	6.199729	3.097209	0.576131	-1.027288	-5.127360	0.289940	0.274680	-0.831846	0.139404	0.522093	-1.000000	-1.000000	-1.000000	-1.000000	-1.000000	-1.000000	-1.000000	50.000000	0.000000	-1.000000	-1.000000	313581.000000	1775803899.513716
-16160.355000	-29230.470000	1435.185000	21525.840000	7065.180000	-9934.875000	-38927.790000	-27936.270000	-3.578063	-3.203656	-3.511507	1.527448	4.479574	5.889736	2.745905	-0.924445	-0.167860	-0.824040	0.106820	-0.832517	0.131347	0.519896	-1.000000	-1.000000	-1.000000	-1.000000	-1.000000	-1.000000	-1.000000	50.000000	0.000000	-1.000000	-1.000000	313582.000000	1775803899.513746
-16158.420000	-29230.290000	1438.740000	21528.360000	7066.305000	-9936.495000	-38927.070000	-27931.995000	-2.988775	-3.397410	-0.227585	2.283116	3.198286	7.058063	4.310744	0.068541	-0.167860	-0.824040	0.106820	-0.832517	0.131347	0.519896	-1.000000	-1.000000	-1.000000	-1.000000	-1.000000	-1.000000	-1.000000	50.000000	0.000000	-1.000000	-1.000000	313583.000000	1775803899.513759
-16158.150000	-29233.170000	1439.100000	21526.830000	7062.345000	-9944.415000	-38932.245000	-27930.780000	-0.711987	-1.174739	4.634947	3.910695	2.265316	5.461263	3.753933	1.125509	-0.167860	-0.824040	0.106820	-0.832517	0.131347	0.519896	-1.000000	-1.000000	-1.000000	-1.000000	-1.000000	-1.000000	-1.000000	50.000000	0.000000	-1.000000	-1.000000	313584.000000	1775803899.513774
-16161.075000	-29247.075000	1430.910000	21517.740000	7052.355000	-9955.485000	-38940.750000	-27932.040000	1.502241	1.099312	8.098068	4.678316	0.584710	0.963066	0.736155	1.556122	-0.167860	-0.824040	0.106820	-0.832517	0.131347	0.519896	-1.000000	-1.000000	-1.000000	-1.000000	-1.000000	-1.000000	-1.000000	50.000000	0.000000	-1.000000	-1.000000	313585.000000	1775803899.513786
-16160.535000	-29252.790000	1435.725000	21518.145000	7056.270000	-9950.985000	-38936.970000	-27924.570000	2.309020	1.127391	7.570636	3.025999	-2.249423	-4.637350	-3.358080	1.204114	-0.167860	-0.824040	0.106820	-0.832517	0.131347	0.519896	-1.000000	-1.000000	-1.000000	-1.000000	-1.000000	-1.000000	-1.000000	50.000000	0.000000	-1.000000	-1.000000	313586.000000	1775803899.518318
-16176.420000	-29242.530000	1444.905000	21532.005000	7069.095000	-9940.095000	-38933.595000	-27938.520000	1.351525	-0.661593	3.779134	-0.110438	-4.576242	-7.898405	-5.948646	0.262030	-0.167860	-0.824040	0.106820	-0.832517	0.131347	0.519896	-1.000000	-1.000000	-1.000000	-1.000000	-1.000000	-1.000000	-1.000000	50.000000	0.000000	-1.000000	-1.000000	313587.000000	1775803899.518345
-16174.530000	-29242.440000	1412.055000	21534.435000	7074.270000	-9934.245000	-38931.570000	-27945.540000	-0.877946	-1.570803	-0.870554	-2.058870	-4.125234	-6.289792	-5.193095	-1.366789	-0.167860	-0.824040	0.106820	-0.832517	0.131347	0.519896	-1.000000	-1.000000	-1.000000	-1.000000	-1.000000	-1.000000	-1.000000	50.000000	0.000000	-1.000000	-1.000000	313588.000000	1775803899.522540
-16164.270000	-29224.035000	1423.170000	21529.170000	7065.225000	-9942.480000	-38940.075000	-27948.600000	-2.672282	0.206600	-5.190666	-1.794660	-1.173118	-1.048780	-1.861150	-3.500055	-0.167860	-0.824040	0.106820	-0.832517	0.131347	0.519896	-1.000000	-1.000000	-1.000000	-1.000000	-1.000000	-1.000000	-1.000000	50.000000	0.000000	-1.000000	-1.000000	313589.000000	1775803899.522565
-16167.690000	-29234.655000	1455.300000	21526.110000	7060.095000	-9941.220000	-38935.530000	-27945.810000	-2.054541	3.693606	-7.249634	-0.968838	1.277415	3.694809	1.512091	-4.677665	-0.167860	-0.824040	0.106820	-0.832517	0.131347	0.519896	-1.000000	-1.000000	-1.000000	-1.000000	-1.000000	-1.000000	-1.000000	50.000000	0.000000	-1.000000	-1.000000	313590.000000	1775803899.525037
-16165.980000	-29241.585000	1433.970000	21521.880000	7059.150000	-9941.580000	-38931.840000	-27941.490000	0.705521	5.724271	-4.592482	-1.282971	1.042584	5.013308	3.333400	-3.307694	-0.167860	-0.824040	0.106820	-0.832517	0.131347	0.519896	-1.000000	-1.000000	-1.000000	-1.000000	-1.000000	-1.000000	-1.000000	50.000000	0.000000	-1.000000	-1.000000	313591.000000	1775803899.525061
-16161.165000	-29228.715000	1435.095000	21525.930000	7062.435000	-9941.085000	-38930.355000	-27939.690000	3.438923	4.107272	0.679496	-2.485035	-0.953917	3.235099	3.762084	0.482542	6.836480	-0.015260	-2.563680	-0.834226	0.133056	0.517760	-1.000000	-1.000000	-1.000000	-1.000000	-1.000000	-1.000000	-1.000000	50.000000	0.000000	-1.000000	-1.000000	313592.000000	1775803899.541979
-16160.355000	-29226.870000	1439.055000	21528.630000	7062.885000	-9942.930000	-38929.185000	-27938.565000	4.558554	0.383980	3.869829	-2.989774	-2.285997	0.377847	3.310777	4.667580	6.836480	-0.015260	-2.563680	-0.834226	0.133056	0.517760	-1.000000	-1.000000	-1.000000	-1.000000	-1.000000	-1.000000	-1.000000	50.000000	0.000000	-1.000000	-1.000000	313593.000000	1775803899.542004
-16161.840000	-29232.990000	1433.205000	21520.035000	7058.385000	-9946.395000	-38927.880000	-27935.190000	3.699743	-2.628617	3.519133	-1.939006	-1.796830	-1.899238	2.170507	6.918250	6.836480	-0.015260	-2.563680	-0.834226	0.133056	0.517760	-1.000000	-1.000000	-1.000000	-1.000000	-1.000000	-1.000000	-1.000000	50.000000	0.000000	-1.000000	-1.000000	313594.000000	1775803899.542030
-16168.995000	-29241.315000	1423.935000	21510.090000	7048.890000	-9954.630000	-38935.620000	-27940.500000	1.151619	-4.261180	0.900275	-0.397691	-0.427761	-3.063785	0.433483	6.168853	6.836480	-0.015260	-2.563680	-0.834226	0.133056	0.517760	-1.000000	-1.000000	-1.000000	-1.000000	-1.000000	-1.000000	-1.000000	50.000000	0.000000	-1.000000	-1.000000	313595.000000	1775803899.542042
-16167.330000	-29238.795000	1426.680000	21513.285000	7052.805000	-9950.220000	-38934.270000	-27940.185000	-2.176345	-5.055960	-2.258998	0.250363	0.416116	-3.198412	-1.684726	2.862521	6.836480	-0.015260	-2.563680	-0.834226	0.133056	0.517760	-1.000000	-1.000000	-1.000000	-1.000000	-1.000000	-1.000000	-1.000000	50.000000	0.000000	-1.000000	-1.000000	313596.000000	1775803899.542057
-16170.120000	-29243.565000	1422.585000	21511.800000	7052.490000	-9949.590000	-38932.380000	-27941.355000	-4.726583	-4.831299	-4.096020	0.299886	0.691399	-2.148957	-3.373760	-1.389806	6.836480	-0.015260	-2.563680	-0.834226	0.133056	0.517760	-1.000000	-1.000000	-1.000000	-1.000000	-1.000000	-1.000000	-1.000000	50.000000	0.000000	-1.000000	-1.000000	313597.000000	1775803899.542067
-16176.465000	-29248.290000	1417.995000	21507.255000	7043.580000	-9954.990000	-38936.520000	-27948.780000	-5.321084	-3.273857	-3.625260	0.749376	1.006736	-0.041857	-3.638147	-4.714452	6.836480	-0.015260	-2.563680	-0.834226	0.133056	0.517760	-1.000000	-1.000000	-1.000000	-1.000000	-1.000000	-1.000000	-1.000000	50.000000	0.000000	-1.000000	-1.000000	313598.000000	1775803899.542080
-16176.015000	-29245.995000	1420.335000	21509.730000	7042.410000	-9956.295000	-38937.015000	-27948.915000	-4.053143	-0.833804	-1.432630	1.656172	1.186158	1.991044	-2.479481	-6.098810	6.836480	-0.015260	-2.563680	-0.834226	0.133056	0.517760	-1.000000	-1.000000	-1.000000	-1.000000	-1.000000	-1.000000	-1.000000	50.000000	0.000000	-1.000000	-1.000000	313599.000000	1775803899.542090
-16170.840000	-29238.885000	1429.245000	21519.945000	7048.935000	-9961.200000	-38939.850000	-27947.430000	-1.555589	1.942954	1.482797	2.710956	1.077328	2.777797	-0.774107	-5.327255	6.836480	-0.015260	-2.563680	-0.834226	0.133056	0.517760	-1.000000	-1.000000	-1.000000	-1.000000	-1.000000	-1.000000	-1.000000	50.000000	0.000000	-1.000000	-1.000000	313600.000000	1775803899.546352
-16174.350000	-29241.720000	1425.420000	21515.220000	7047.945000	-9969.615000	-38944.035000	-27953.145000	1.508596	4.573516	4.285114	3.721577	1.261572	2.039046	0.617450	-2.781033	6.836480	-0.015260	-2.563680	-0.834226	0.133056	0.517760	-1.000000	-1.000000	-1.000000	-1.000000	-1.000000	-1.000000	-1.000000	50.000000	0.000000	-1.000000	-1.000000	313601.000000	1775803899.546378
-16169.040000	-29241.585000	1423.935000	21512.025000	7046.010000	-9969.075000	-38942.370000	-27949.275000	4.074469	5.998086	5.681326	3.815376	1.813780	0.348645	1.309257	0.383437	13.810300	2.411080	-10.620960	-0.832823	0.139465	0.521971	-1.000000	-1.000000	-1.000000	-1.000000	-1.000000	-1.000000	-1.000000	50.000000	0.000000	-1.000000	-1.000000	313602.000000	1775803899.548076
-16164.720000	-29246.670000	1417.680000	21509.685000	7042.905000	-9970.425000	-38945.790000	-27946.980000	5.236549	5.170409	4.516202	2.043353	1.863555	-1.052177	1.489509	3.011960	13.810300	2.411080	-10.620960	-0.832823	0.139465	0.521971	-1.000000	-1.000000	-1.000000	-1.000000	-1.000000	-1.000000	-1.000000	50.000000	0.000000	-1.000000	-1.000000	313603.000000	1775803899.548094
-16161.435000	-29259.405000	1408.455000	21511.845000	7047.855000	-9964.755000	-38943.270000	-27935.370000	4.900846	2.031137	0.988999	-1.016861	0.935293	-1.011747	1.518905	4.740399	13.810300	2.411080	-10.620960	-0.832823	0.139465	0.521971	-1.000000	-1.000000	-1.000000	-1.000000	-1.000000	-1.000000	-1.000000	50.000000	0.000000	-1.000000	-1.000000	313604.000000	1775803899.564875
-16173.090000	-29306.880000	1397.700000	21505.185000	7042.995000	-9966.195000	-38942.730000	-27928.530000	3.128820	-3.115574	-3.439193	-3.661469	-0.409502	0.528601	1.589600	5.672586	13.810300	2.411080	-10.620960	-0.832823	0.139465	0.521971	-1.000000	-1.000000	-1.000000	-1.000000	-1.000000	-1.000000	-1.000000	50.000000	0.000000	-1.000000	-1.000000	313605.000000	1775803899.564901
-16188.255000	-29317.545000	1407.555000	21505.185000	7037.820000	-9971.370000	-38943.675000	-27932.850000	-0.361607	-9.532244	-6.539797	-4.749052	-1.585641	2.282115	1.651035	5.465581	13.810300	2.411080	-10.620960	-0.832823	0.139465	0.521971	-1.000000	-1.000000	-1.000000	-1.000000	-1.000000	-1.000000	-1.000000	50.000000	0.000000	-1.000000	-1.000000	313606.000000	1775803899.564954
-16213.590000	-29305.530000	1416.060000	21516.795000	7047.945000	-9963.450000	-38933.145000	-27950.535000	-5.408352	-13.574548	-5.968818	-3.908435	-2.290645	2.788651	1.589928	2.949053	13.810300	2.411080	-10.620960	-0.832823	0.139465	0.521971	-1.000000	-1.000000	-1.000000	-1.000000	-1.000000	-1.000000	-1.000000	50.000000	0.000000	-1.000000	-1.000000	313607.000000	1775803899.564968
-16197.255000	-29286.945000	1424.655000	21522.870000	7053.525000	-9956.295000	-38930.580000	-27957.780000	-9.877994	-9.851600	-1.230527	-1.075253	-1.811606	2.102932	1.572842	-2.365789	13.810300	2.411080	-10.620960	-0.832823	0.139465	0.521971	-1.000000	-1.000000	-1.000000	-1.000000	-1.000000	-1.000000	-1.000000	50.000000	0.000000	-1.000000	-1.000000	313608.000000	1775803899.564987
-16186.455000	-29240.460000	1435.770000	21514.320000	7047.585000	-9963.990000	-38937.735000	-27962.145000	-9.691474	2.997984	5.201497	2.526933	-0.038664	1.115290	1.391853	-8.329424	13.810300	2.411080	-10.620960	-0.832823	0.139465	0.521971	-1.000000	-1.000000	-1.000000	-1.000000	-1.000000	-1.000000	-1.000000	50.000000	0.000000	-1.000000	-1.000000	313609.000000	1775803899.564998
-16169.490000	-29216.790000	1423.305000	21502.800000	7048.845000	-9963.495000	-38935.665000	-27952.515000	-2.687359	19.780650	9.344238	4.138601	1.541216	-0.181783	0.223475	-10.983734	13.810300	2.411080	-10.620960	-0.832823	0.139465	0.521971	-1.000000	-1.000000	-1.000000	-1.000000	-1.000000	-1.000000	-1.000000	50.000000	0.000000	-1.000000	-1.000000	313610.000000	1775803899.570990
-16168.635000	-29221.830000	1424.250000	21509.820000	7044.750000	-9967.545000	-38938.590000	-27952.650000	7.844383	30.868779	8.198969	2.279658	1.506031	-2.035260	-1.929862	-7.912250	13.810300	2.411080	-10.620960	-0.832823	0.139465	0.521971	-1.000000	-1.000000	-1.000000	-1.000000	-1.000000	-1.000000	-1.000000	50.000000	0.000000	-1.000000	-1.000000	313611.000000	1775803899.571016
-16175.565000	-29233.485000	1424.520000	21513.780000	7037.415000	-9967.230000	-38939.580000	-27954.900000	15.093217	27.564696	2.230240	-1.045533	-0.120358	-3.786909	-3.884656	-0.709137	1.037680	0.259420	-5.569900	-0.827024	0.153320	0.522643	-1.000000	-1.000000	-1.000000	-1.000000	-1.000000	-1.000000	-1.000000	50.000000	0.000000	-1.000000	-1.000000	313612.000000	1775803899.571044
-16171.605000	-29225.880000	1432.575000	21519.495000	7047.045000	-9957.645000	-38934.450000	-27951.030000	14.247967	9.510582	-4.584857	-2.615802	-2.123235	-4.211314	-4.411560	6.306264	1.037680	0.259420	-5.569900	-0.827024	0.153320	0.522643	-1.000000	-1.000000	-1.000000	-1.000000	-1.000000	-1.000000	-1.000000	50.000000	0.000000	-1.000000	-1.000000	313613.000000	1775803899.571057
-16170.615000	-29226.870000	1432.755000	21522.690000	7050.060000	-9957.465000	-38936.295000	-27951.705000	6.327919	-13.626755	-8.166786	-1.410128	-2.694473	-2.536707	-3.046666	9.734198	1.037680	0.259420	-5.569900	-0.827024	0.153320	0.522643	-1.000000	-1.000000	-1.000000	-1.000000	-1.000000	-1.000000	-1.000000	50.000000	0.000000	-1.000000	-1.000000	313614.000000	1775803899.572508
-16176.825000	-29238.030000	1423.170000	21518.010000	7043.220000	-9965.070000	-38939.715000	-27955.485000	-3.556104	-29.960903	-7.600548	0.969371	-1.188489	0.291588	-0.588843	8.766538	1.037680	0.259420	-5.569900	-0.827024	0.153320	0.522643	-1.000000	-1.000000	-1.000000	-1.000000	-1.000000	-1.000000	-1.000000	50.000000	0.000000	-1.000000	-1.000000	313615.000000	1775803899.572532
-16184.295000	-29247.885000	1415.250000	21510.045000	7030.350000	-9973.080000	-38937.195000	-27960.750000	-10.843679	-33.777519	-5.062504	2.040569	0.643932	1.949318	1.474504	4.484215	1.037680	0.259420	-5.569900	-0.827024	0.153320	0.522643	-1.000000	-1.000000	-1.000000	-1.000000	-1.000000	-1.000000	-1.000000	50.000000	0.000000	-1.000000	-1.000000	313616.000000	1775803899.591989
-16190.280000	-29250.990000	1416.420000	21502.935000	7030.080000	-9973.755000	-38934.675000	-27967.905000	-13.592150	-26.379858	-2.785998	0.539130	0.761092	1.218170	2.448005	-1.062810	1.037680	0.259420	-5.569900	-0.827024	0.153320	0.522643	-1.000000	-1.000000	-1.000000	-1.000000	-1.000000	-1.000000	-1.000000	50.000000	0.000000	-1.000000	-1.000000	313617.000000	1775803899.592016
-16184.835000	-29247.840000	1417.095000	21508.290000	7035.480000	-9970.155000	-38936.565000	-27963.945000	-11.687327	-12.351468	-0.938310	-2.356008	-0.402539	-0.606883	2.559403	-5.486825	1.037680	0.259420	-5.569900	-0.827024	0.153320	0.522643	-1.000000	-1.000000	-1.000000	-1.000000	-1.000000	-1.000000	-1.000000	50.000000	0.000000	-1.000000	-1.000000	313618.000000	1775803899.592044
-16170.975000	-29234.295000	1425.060000	21506.130000	7023.600000	-9988.470000	-38957.130000	-27956.925000	-5.777340	3.381775	1.384250	-4.009614	-0.936354	-1.634648	1.675375	-6.694998	1.037680	0.259420	-5.569900	-0.827024	0.153320	0.522643	-1.000000	-1.000000	-1.000000	-1.000000	-1.000000	-1.000000	-1.000000	50.000000	0.000000	-1.000000	-1.000000	313619.000000	1775803899.592058
-16177.275000	-29237.490000	1425.420000	21505.455000	7016.715000	-9988.560000	-38957.220000	-27963.090000	2.277908	16.394910	4.296968	-2.978383	-0.449582	-1.651689	-0.638857	-4.257892	1.037680	0.259420	-5.569900	-0.827024	0.153320	0.522643	-1.000000	-1.000000	-1.000000	-1.000000	-1.000000	-1.000000	-1.000000	50.000000	0.000000	-1.000000	-1.000000	313620.000000	1775803899.592072
-16186.095000	-29246.895000	1417.320000	21502.710000	7017.570000	-9988.965000	-38952.765000	-27965.970000	8.668527	22.690720	6.407138	-0.193836	0.146267	-1.093307	-3.185274	-0.298436	1.037680	0.259420	-5.569900	-0.827024	0.153320	0.522643	-1.000000	-1.000000	-1.000000	-1.000000	-1.000000	-1.000000	-1.000000	50.000000	0.000000	-1.000000	-1.000000	313621.000000	1775803899.592083
-16176.915000	-29246.130000	1414.485000	21499.785000	7018.155000	-9996.795000	-38948.085000	-27955.170000	10.120268	20.285457	5.888228	2.379670	0.721729	0.133018	-3.416774	2.598067	-7.645260	0.824040	-2.258480	-0.822691	0.156555	0.524352	-1.000000	-1.000000	-1.000000	-1.000000	-1.000000	-1.000000	-1.000000	50.000000	0.000000	-1.000000	-1.000000	313622.000000	1775803899.592097
-16166.655000	-29238.345000	1420.965000	21503.700000	7018.695000	-9979.515000	-38941.380000	-27949.005000	7.330475	11.558365	2.778230	3.514910	1.704469	2.008098	-0.421881	3.894528	-7.645260	0.824040	-2.258480	-0.822691	0.156555	0.524352	-1.000000	-1.000000	-1.000000	-1.000000	-1.000000	-1.000000	-1.000000	50.000000	0.000000	-1.000000	-1.000000	313623.000000	1775803899.592108
-16177.320000	-29250.315000	1407.105000	21486.105000	6956.910000	-9989.730000	-38942.640000	-27953.955000	3.340324	1.651466	-0.922054	3.020644	1.776117	4.154506	3.915909	4.078960	-7.645260	0.824040	-2.258480	-0.822691	0.156555	0.524352	-1.000000	-1.000000	-1.000000	-1.000000	-1.000000	-1.000000	-1.000000	50.000000	0.000000	-1.000000	-1.000000	313624.000000	1775803899.597587
-16177.005000	-29246.805000	1413.540000	21491.865000	6923.340000	-9981.315000	-38944.080000	-27955.845000	-0.321124	-5.665539	-3.504026	1.172079	-2.156511	5.530259	6.536346	2.869996	-7.645260	0.824040	-2.258480	-0.822691	0.156555	0.524352	-1.000000	-1.000000	-1.000000	-1.000000	-1.000000	-1.000000	-1.000000	50.000000	0.000000	-1.000000	-1.000000	313625.000000	1775803899.597611
-16177.365000	-29248.335000	1415.790000	21502.080000	6944.400000	-9987.480000	-38944.350000	-27954.855000	-3.403763	-9.033315	-4.119927	-0.696715	-8.952792	4.944478	5.615247	0.162985	-7.645260	0.824040	-2.258480	-0.822691	0.156555	0.524352	-1.000000	-1.000000	-1.000000	-1.000000	-1.000000	-1.000000	-1.000000	50.000000	0.000000	-1.000000	-1.000000	313626.000000	1775803899.597633
-16183.890000	-29256.165000	1409.670000	21508.425000	7054.380000	-9979.695000	-38947.860000	-27959.715000	-5.320623	-8.678335	-2.680301	-0.605515	-9.033006	2.431211	1.792334	-2.894721	-7.645260	0.824040	-2.258480	-0.822691	0.156555	0.524352	-1.000000	-1.000000	-1.000000	-1.000000	-1.000000	-1.000000	-1.000000	50.000000	0.000000	-1.000000	-1.000000	313627.000000	1775803899.597641
-16191.765000	-29263.995000	1401.570000	21496.185000	7091.010000	-9967.770000	-38950.650000	-27965.610000	-5.749864	-6.225511	-0.576124	1.276900	6.106035	-0.499000	-2.756010	-4.954044	-7.645260	0.824040	-2.258480	-0.822691	0.156555	0.524352	-1.000000	-1.000000	-1.000000	-1.000000	-1.000000	-1.000000	-1.000000	50.000000	0.000000	-1.000000	-1.000000	313628.000000	1775803899.602098
-16192.890000	-29263.140000	1402.830000	21498.165000	7090.560000	-9967.725000	-38950.740000	-27966.780000	-4.946213	-3.433150	0.516549	2.375745	29.023356	-2.120207	-5.877127	-5.406592	-7.645260	0.824040	-2.258480	-0.822691	0.156555	0.524352	-1.000000	-1.000000	-1.000000	-1.000000	-1.000000	-1.000000	-1.000000	50.000000	0.000000	-1.000000	-1.000000	313629.000000	1775803899.602124
-16190.820000	-29261.295000	1404.225000	21500.460000	7100.640000	-9948.195000	-38939.940000	-27962.550000	-2.966891	-0.756339	0.581947	1.212231	40.036098	-2.019092	-6.148714	-4.036196	-7.645260	0.824040	-2.258480	-0.822691	0.156555	0.524352	-1.000000	-1.000000	-1.000000	-1.000000	-1.000000	-1.000000	-1.000000	50.000000	0.000000	-1.000000	-1.000000	313630.000000	1775803899.605890
-16185.330000	-29252.610000	1409.265000	21498.165000	7076.475000	-9945.855000	-38932.605000	-27956.430000	0.245281	2.162325	0.793117	-1.071896	27.320234	-0.885789	-3.247009	-0.893216	-7.645260	0.824040	-2.258480	-0.822691	0.156555	0.524352	-1.000000	-1.000000	-1.000000	-1.000000	-1.000000	-1.000000	-1.000000	50.000000	0.000000	-1.000000	-1.000000	313631.000000	1775803899.605904
-16181.865000	-29246.895000	1413.360000	21479.985000	7047.810000	-9944.370000	-38930.220000	-27954.360000	4.047048	5.222839	1.809178	-3.105588	-3.762176	0.023123	1.411439	3.115134	-9.186520	1.373400	-0.503580	-0.828855	0.139770	0.526793	-1.000000	-1.000000	-1.000000	-1.000000	-1.000000	-1.000000	-1.000000	50.000000	0.000000	-1.000000	-1.000000	313632.000000	1775803899.610201
-16189.650000	-29255.985000	1407.870000	21474.765000	7029.855000	-9939.330000	-38929.230000	-27963.045000	6.760090	7.150215	2.972198	-4.752541	-37.178954	-0.541320	5.037082	5.980619	-9.186520	1.373400	-0.503580	-0.828855	0.139770	0.526793	-1.000000	-1.000000	-1.000000	-1.000000	-1.000000	-1.000000	-1.000000	50.000000	0.000000	-1.000000	-1.000000	313633.000000	1775803899.610224
-16199.415000	-29263.140000	1406.070000	21504.960000	7029.405000	-9937.890000	-38926.305000	-27972.315000	6.430068	6.057986	2.873365	-5.044970	-56.112049	-2.455172	5.527151	5.636699	-9.186520	1.373400	-0.503580	-0.828855	0.139770	0.526793	-1.000000	-1.000000	-1.000000	-1.000000	-1.000000	-1.000000	-1.000000	50.000000	0.000000	-1.000000	-1.000000	313634.000000	1775803899.615469
-16197.840000	-29260.170000	1414.485000	21526.155000	7029.720000	-9968.355000	-38946.195000	-27976.050000	2.759229	1.726814	1.128070	-1.463913	-51.531484	-4.942469	2.642652	1.920173	-9.186520	1.373400	-0.503580	-0.828855	0.139770	0.526793	-1.000000	-1.000000	-1.000000	-1.000000	-1.000000	-1.000000	-1.000000	50.000000	0.000000	-1.000000	-1.000000	313635.000000	1775803899.615495
-16176.060000	-29244.645000	1420.830000	21519.495000	7052.760000	-9995.805000	-38971.755000	-27958.185000	-1.515888	-3.007084	-0.807557	5.676377	-26.342178	-8.201889	-2.880761	-2.418640	-9.186520	1.373400	-0.503580	-0.828855	0.139770	0.526793	-1.000000	-1.000000	-1.000000	-1.000000	-1.000000	-1.000000	-1.000000	50.000000	0.000000	-1.000000	-1.000000	313636.000000	1775803899.616950
-16165.575000	-29236.815000	1426.005000	21521.835000	7087.320000	-9981.945000	-38967.075000	-27948.015000	-2.614670	-4.560686	-1.381916	11.073934	7.899961	-11.236110	-9.019157	-3.577961	-9.186520	1.373400	-0.503580	-0.828855	0.139770	0.526793	-1.000000	-1.000000	-1.000000	-1.000000	-1.000000	-1.000000	-1.000000	50.000000	0.000000	-1.000000	-1.000000	313637.000000	1775803899.616974
-16176.780000	-29249.280000	1414.485000	21512.295000	7083.495000	-9982.620000	-38958.390000	-27955.395000	-0.176860	-2.590166	-0.926195	9.770385	37.100410	-10.094170	-11.514015	-0.762667	-9.186520	1.373400	-0.503580	-0.828855	0.139770	0.526793	-1.000000	-1.000000	-1.000000	-1.000000	-1.000000	-1.000000	-1.000000	50.000000	0.000000	-1.000000	-1.000000	313638.000000	1775803899.622459
-16184.790000	-29254.770000	1409.355000	21500.280000	7060.995000	-9973.890000	-38953.350000	-27962.235000	1.898801	-0.397465	-1.199129	1.921920	49.034506	-2.388847	-7.067679	2.551466	-9.186520	1.373400	-0.503580	-0.828855	0.139770	0.526793	-1.000000	-1.000000	-1.000000	-1.000000	-1.000000	-1.000000	-1.000000	50.000000	0.000000	-1.000000	-1.000000	313639.000000	1775803899.622484
-16199.100000	-29270.475000	1390.185000	21473.145000	6999.750000	-9974.655000	-38947.545000	-27970.470000	0.150260	-0.930938	-3.216949	-8.463343	37.979585	8.751920	2.539749	2.599415	-9.186520	1.373400	-0.503580	-0.828855	0.139770	0.526793	-1.000000	-1.000000	-1.000000	-1.000000	-1.000000	-1.000000	-1.000000	50.000000	0.000000	-1.000000	-1.000000	313640.000000	1775803899.624985
-16206.840000	-29279.295000	1377.900000	21458.655000	6983.325000	-9986.670000	-38949.840000	-27976.365000	-4.755461	-3.927314	-6.195234	-16.670300	9.297725	16.994508	11.616254	-0.842957	-9.186520	1.373400	-0.503580	-0.828855	0.139770	0.526793	-1.000000	-1.000000	-1.000000	-1.000000	-1.000000	-1.000000	-1.000000	50.000000	0.000000	-1.000000	-1.000000	313641.000000	1775803899.625003
-16205.220000	-29275.605000	1383.075000	21466.620000	6991.335000	-9997.200000	-38962.665000	-27979.515000	-8.981157	-6.544789	-7.857604	-18.607545	-20.792433	17.455166	14.822100	-4.944707	-0.640920	1.587040	6.454980	-0.831480	0.117553	0.522887	-1.000000	-1.000000	-1.000000	-1.000000	-1.000000	-1.000000	-1.000000	50.000000	0.000000	-1.000000	-1.000000	313642.000000	1775803899.628870
-16180.155000	-29244.465000	1425.915000	21521.250000	7003.260000	-10009.125000	-38968.695000	-27964.710000	-8.374503	-5.161033	-4.927703	-11.103527	-34.598586	10.021601	10.413772	-6.316409	-0.640920	1.587040	6.454980	-0.831480	0.117553	0.522887	-1.000000	-1.000000	-1.000000	-1.000000	-1.000000	-1.000000	-1.000000	50.000000	0.000000	-1.000000	-1.000000	313643.000000	1775803899.628891
-16163.190000	-29225.655000	1450.575000	21547.620000	7022.970000	-10018.215000	-38973.735000	-27950.310000	-1.362594	1.938142	4.369200	5.599384	-25.747451	-0.842236	1.276190	-3.065296	-0.640920	1.587040	6.454980	-0.831480	0.117553	0.522887	-1.000000	-1.000000	-1.000000	-1.000000	-1.000000	-1.000000	-1.000000	50.000000	0.000000	-1.000000	-1.000000	313644.000000	1775803899.632994
-16167.240000	-29230.245000	1443.330000	21541.455000	7061.175000	-9953.820000	-38958.165000	-27951.345000	8.691603	11.448574	15.967123	23.846311	-1.938985	-8.191235	-6.861372	3.464622	-0.640920	1.587040	6.454980	-0.831480	0.117553	0.522887	-1.000000	-1.000000	-1.000000	-1.000000	-1.000000	-1.000000	-1.000000	50.000000	0.000000	-1.000000	-1.000000	313645.000000	1775803899.633019
-16173.180000	-29241.945000	1426.455000	21530.430000	7103.160000	-9929.430000	-38944.440000	-27952.245000	14.822147	16.093344	20.775995	31.313478	23.086960	-5.949738	-9.072416	8.832460	-0.640920	1.587040	6.454980	-0.831480	0.117553	0.522887	-1.000000	-1.000000	-1.000000	-1.000000	-1.000000	-1.000000	-1.000000	50.000000	0.000000	-1.000000	-1.000000	313646.000000	1775803899.636265
-16179.165000	-29248.155000	1419.210000	21517.110000	7095.870000	-9944.865000	-38950.020000	-27958.680000	12.307161	11.161916	13.141525	21.554499	37.094694	4.019450	-4.899614	9.030612	-0.640920	1.587040	6.454980	-0.831480	0.117553	0.522887	-1.000000	-1.000000	-1.000000	-1.000000	-1.000000	-1.000000	-1.000000	50.000000	0.000000	-1.000000	-1.000000	313647.000000	1775803899.636289
-16179.210000	-29248.470000	1417.500000	21513.015000	7046.145000	-9964.125000	-38954.250000	-27960.210000	2.829121	-0.691281	-2.936012	0.018391	32.039021	10.861353	1.103942	3.849626	-0.640920	1.587040	6.454980	-0.831480	0.117553	0.522887	-1.000000	-1.000000	-1.000000	-1.000000	-1.000000	-1.000000	-1.000000	50.000000	0.000000	-1.000000	-1.000000	313648.000000	1775803899.640260
-16175.970000	-29245.500000	1418.535000	21510.000000	7010.055000	-9969.255000	-38950.020000	-27955.710000	-7.387715	-11.891359	-17.385478	-20.710199	7.566536	6.264618	3.963455	-3.233594	-0.640920	1.587040	6.454980	-0.831480	0.117553	0.522887	-1.000000	-1.000000	-1.000000	-1.000000	-1.000000	-1.000000	-1.000000	50.000000	0.000000	-1.000000	-1.000000	313649.000000	1775803899.640281
-16177.590000	-29243.655000	1426.815000	21529.035000	7041.195000	-9970.470000	-38952.405000	-27958.140000	-12.660391	-16.170390	-22.204821	-29.767043	-24.145894	-6.671288	2.680747	-7.929052	-0.640920	1.587040	6.454980	-0.831480	0.117553	0.522887	-1.000000	-1.000000	-1.000000	-1.000000	-1.000000	-1.000000	-1.000000	50.000000	0.000000	-1.000000	-1.000000	313650.000000	1775803899.644255
-16181.955000	-29249.280000	1420.560000	21517.380000	7124.130000	-9953.460000	-38951.190000	-27962.055000	-11.496299	-12.578515	-16.279188	-24.118653	-41.955193	-17.645081	-0.553249	-8.346454	-0.640920	1.587040	6.454980	-0.831480	0.117553	0.522887	-1.000000	-1.000000	-1.000000	-1.000000	-1.000000	-1.000000	-1.000000	50.000000	0.000000	-1.000000	-1.000000	313651.000000	1775803899.644305
-16184.520000	-29255.175000	1411.920000	21514.095000	7103.205000	-9955.665000	-38952.855000	-27962.415000	-6.302519	-4.890347	-4.874834	-9.530296	-32.972381	-18.827300	-3.251132	-5.560864	-0.640920	4.654300	14.497000	-0.831724	0.107483	0.523680	-1.000000	-1.000000	-1.000000	-1.000000	-1.000000	-1.000000	-1.000000	50.000000	0.000000	-1.000000	-1.000000	313652.000000	1775803899.650112
-16184.610000	-29252.745000	1418.220000	21525.705000	7074.945000	-9966.240000	-38958.660000	-27965.295000	-0.464182	2.217224	5.172360	4.960262	-7.185241	-10.731414	-4.212309	-1.689154	-0.640920	4.654300	14.497000	-0.831724	0.107483	0.523680	-1.000000	-1.000000	-1.000000	-1.000000	-1.000000	-1.000000	-1.000000	50.000000	0.000000	-1.000000	-1.000000	313653.000000	1775803899.650138
-16179.030000	-29246.625000	1424.295000	21518.235000	7073.055000	-9959.490000	-38952.630000	-27961.335000	3.968767	6.513264	10.525742	13.737650	13.295776	0.078720	-3.498139	1.702814	-0.640920	4.654300	14.497000	-0.831724	0.107483	0.523680	-1.000000	-1.000000	-1.000000	-1.000000	-1.000000	-1.000000	-1.000000	50.000000	0.000000	-1.000000	-1.000000	313654.000000	1775803899.653260
-16182.855000	-29250.945000	1412.910000	21498.750000	7066.125000	-9951.840000	-38948.805000	-27962.190000	6.401968	8.083360	11.358721	15.119535	17.169338	8.058577	-1.452503	3.942278	-0.640920	4.654300	14.497000	-0.831724	0.107483	0.523680	-1.000000	-1.000000	-1.000000	-1.000000	-1.000000	-1.000000	-1.000000	50.000000	0.000000	-1.000000	-1.000000	313655.000000	1775803899.653285
-16187.355000	-29256.165000	1411.245000	21506.760000	7066.035000	-9949.815000	-38948.670000	-27964.755000	6.601651	7.271233	8.570103	10.049890	9.069427	11.646249	1.362011	4.777515	-0.640920	4.654300	14.497000	-0.831724	0.107483	0.523680	-1.000000	-1.000000	-1.000000	-1.000000	-1.000000	-1.000000	-1.000000	50.000000	0.000000	-1.000000	-1.000000	313656.000000	1775803899.656281
-16184.520000	-29253.960000	1415.745000	21511.845000	7066.620000	-9948.330000	-38945.295000	-27961.470000	4.659484	4.415254	3.657549	2.704624	-0.745074	11.236098	3.720099	4.146030	-0.640920	4.654300	14.497000	-0.831724	0.107483	0.523680	-1.000000	-1.000000	-1.000000	-1.000000	-1.000000	-1.000000	-1.000000	50.000000	0.000000	-1.000000	-1.000000	313657.000000	1775803899.656301
-16184.340000	-29253.825000	1414.440000	21506.985000	7060.095000	-9952.470000	-38946.465000	-27961.335000	1.727467	0.828092	-0.843109	-2.116324	-5.403019	7.652752	4.460767	2.553920	-0.640920	4.654300	14.497000	-0.831724	0.107483	0.523680	-1.000000	-1.000000	-1.000000	-1.000000	-1.000000	-1.000000	-1.000000	50.000000	0.000000	-1.000000	-1.000000	313658.000000	1775803899.660867
-16178.220000	-29246.130000	1421.505000	21513.555000	7057.305000	-9953.910000	-38944.665000	-27957.015000	-0.556336	-1.675387	-3.024553	-2.986229	-4.138629	2.220262	3.338634	0.886012	-0.640920	4.654300	14.497000	-0.831724	0.107483	0.523680	-1.000000	-1.000000	-1.000000	-1.000000	-1.000000	-1.000000	-1.000000	50.000000	0.000000	-1.000000	-1.000000	313659.000000	1775803899.660887
-16181.865000	-29247.120000	1422.225000	21515.040000	7055.730000	-9959.625000	-38950.425000	-27963.855000	-1.397182	-2.174423	-2.722883	-1.372486	0.065716	-3.214670	0.952356	-0.384250	-0.640920	4.654300	14.497000	-0.831724	0.107483	0.523680	-1.000000	-1.000000	-1.000000	-1.000000	-1.000000	-1.000000	-1.000000	50.000000	0.000000	-1.000000	-1.000000	313660.000000	1775803899.664225
-16182.315000	-29245.905000	1425.105000	21519.720000	7060.005000	-9961.020000	-38952.180000	-27964.440000	-1.311225	-1.286382	-1.103904	0.757488	4.138264	-6.848579	-1.760854	-1.456834	-0.640920	4.654300	14.497000	-0.831724	0.107483	0.523680	-1.000000	-1.000000	-1.000000	-1.000000	-1.000000	-1.000000	-1.000000	50.000000	0.000000	-1.000000	-1.000000	313661.000000	1775803899.664246
-16180.785000	-29242.350000	1430.955000	21526.245000	7060.770000	-9959.130000	-38952.630000	-27964.665000	-1.207299	-0.331051	0.384071	2.050090	6.515399	-7.541394	-3.770450	-2.445808	-3.906560	2.502640	12.940480	-0.835996	0.106384	0.529479	-1.000000	-1.000000	-1.000000	-1.000000	-1.000000	-1.000000	-1.000000	50.000000	0.000000	-1.000000	-1.000000	313662.000000	1775803899.669034
-16173.405000	-29239.065000	1429.560000	21523.410000	7063.650000	-9949.455000	-38943.720000	-27955.170000	-1.162802	0.032625	0.939966	1.981407	6.800769	-5.049853	-4.010488	-2.688055	-3.906560	2.502640	12.940480	-0.835996	0.106384	0.529479	-1.000000	-1.000000	-1.000000	-1.000000	-1.000000	-1.000000	-1.000000	50.000000	0.000000	-1.000000	-1.000000	313663.000000	1775803899.669056
-16172.730000	-29239.605000	1422.180000	21513.870000	7060.140000	-9945.315000	-38935.575000	-27948.915000	-0.676552	-0.116115	0.237768	0.334457	5.122518	-0.274742	-1.906970	-1.374207	-3.906560	2.502640	12.940480	-0.835996	0.106384	0.529479	-1.000000	-1.000000	-1.000000	-1.000000	-1.000000	-1.000000	-1.000000	50.000000	0.000000	-1.000000	-1.000000	313664.000000	1775803899.674146
-16170.120000	-29231.100000	1420.380000	21504.690000	7048.845000	-9947.430000	-38926.170000	-27941.670000	0.194588	-0.481960	-1.686225	-2.821981	1.778584	4.515837	1.840936	1.233564	-3.906560	2.502640	12.940480	-0.835996	0.106384	0.529479	-1.000000	-1.000000	-1.000000	-1.000000	-1.000000	-1.000000	-1.000000	50.000000	0.000000	-1.000000	-1.000000	313665.000000	1775803899.674176
-16180.605000	-29247.525000	1413.900000	21507.795000	7046.010000	-9956.340000	-38941.020000	-27957.915000	0.571126	-0.959814	-3.913568	-6.156428	-2.561565	6.515651	4.933722	3.282593	-3.906560	2.502640	12.940480	-0.835996	0.106384	0.529479	-1.000000	-1.000000	-1.000000	-1.000000	-1.000000	-1.000000	-1.000000	50.000000	0.000000	-1.000000	-1.000000	313666.000000	1775803899.676165
-16179.885000	-29246.715000	1417.860000	21512.070000	7050.285000	-9956.520000	-38942.955000	-27959.040000	-0.333680	-1.934591	-4.941129	-7.178441	-6.142579	4.475906	4.672388	2.546449	-3.906560	2.502640	12.940480	-0.835996	0.106384	0.529479	-1.000000	-1.000000	-1.000000	-1.000000	-1.000000	-1.000000	-1.000000	50.000000	0.000000	-1.000000	-1.000000	313667.000000	1775803899.676184
-16185.240000	-29249.370000	1418.445000	21510.855000	7044.885000	-9958.140000	-38945.925000	-27964.305000	-2.092233	-3.240794	-3.697221	-4.487735	-6.917854	0.015731	0.742691	-0.996985	-3.906560	2.502640	12.940480	-0.835996	0.106384	0.529479	-1.000000	-1.000000	-1.000000	-1.000000	-1.000000	-1.000000	-1.000000	50.000000	0.000000	-1.000000	-1.000000	313668.000000	1775803899.680099
-16184.205000	-29248.920000	1419.480000	21511.350000	7042.725000	-9953.955000	-38944.980000	-27963.000000	-3.291691	-3.609897	-0.437717	0.516420	-4.683543	-3.701808	-4.011458	-4.701710	-3.906560	2.502640	12.940480	-0.835996	0.106384	0.529479	-1.000000	-1.000000	-1.000000	-1.000000	-1.000000	-1.000000	-1.000000	50.000000	0.000000	-1.000000	-1.000000	313669.000000	1775803899.680115
-16184.295000	-29252.880000	1412.730000	21507.660000	7038.945000	-9954.450000	-38945.700000	-27962.460000	-2.837111	-2.239049	3.085668	4.867604	-1.183559	-4.530586	-6.329937	-5.795494	-3.906560	2.502640	12.940480	-0.835996	0.106384	0.529479	-1.000000	-1.000000	-1.000000	-1.000000	-1.000000	-1.000000	-1.000000	50.000000	0.000000	-1.000000	-1.000000	313670.000000	1775803899.684168
-16179.030000	-29245.185000	1419.210000	21513.735000	7050.510000	-9950.445000	-38944.980000	-27960.480000	-0.661023	0.398647	4.962428	6.543015	1.950651	-2.574753	-5.098826	-3.540512	-3.906560	2.502640	12.940480	-0.835996	0.106384	0.529479	-1.000000	-1.000000	-1.000000	-1.000000	-1.000000	-1.000000	-1.000000	50.000000	0.000000	-1.000000	-1.000000	313671.000000	1775803899.684185
-16182.090000	-29247.255000	1417.320000	21511.260000	7062.120000	-9947.475000	-38946.690000	-27962.730000	2.258914	3.267506	4.748044	5.562684	4.468751	0.543329	-1.531916	0.577088	1.861720	4.410140	5.142620	-0.830259	0.120361	0.526305	-1.000000	-1.000000	-1.000000	-1.000000	-1.000000	-1.000000	-1.000000	50.000000	0.000000	-1.000000	-1.000000	313672.000000	1775803899.688131
-16183.215000	-29248.965000	1417.320000	21509.505000	7060.050000	-9945.045000	-38943.360000	-27961.425000	4.298454	5.123510	3.197954	3.041295	6.349297	3.069015	2.222221	4.141113	1.861720	4.410140	5.142620	-0.830259	0.120361	0.526305	-1.000000	-1.000000	-1.000000	-1.000000	-1.000000	-1.000000	-1.000000	50.000000	0.000000	-1.000000	-1.000000	313673.000000	1775803899.688153
-16181.595000	-29246.670000	1418.670000	21507.705000	7048.845000	-9947.880000	-38943.855000	-27961.470000	4.334773	4.996770	1.162138	0.048294	6.217245	3.837449	4.572743	5.532432	1.861720	4.410140	5.142620	-0.830259	0.120361	0.526305	-1.000000	-1.000000	-1.000000	-1.000000	-1.000000	-1.000000	-1.000000	50.000000	0.000000	-1.000000	-1.000000	313674.000000	1775803899.696778
-16186.815000	-29251.980000	1413.405000	21503.565000	7038.585000	-9956.745000	-38948.940000	-27967.410000	2.576640	3.009107	-0.739376	-2.524229	2.561939	2.394178	4.854814	4.532560	1.861720	4.410140	5.142620	-0.830259	0.120361	0.526305	-1.000000	-1.000000	-1.000000	-1.000000	-1.000000	-1.000000	-1.000000	50.000000	0.000000	-1.000000	-1.000000	313675.000000	1775803899.696804
-16183.755000	-29250.495000	1415.205000	21509.100000	7049.700000	-9957.015000	-38945.880000	-27963.585000	0.095530	0.170236	-2.155109	-3.873753	-3.356838	-0.723608	3.214579	1.943180	1.861720	4.410140	5.142620	-0.830259	0.120361	0.526305	-1.000000	-1.000000	-1.000000	-1.000000	-1.000000	-1.000000	-1.000000	50.000000	0.000000	-1.000000	-1.000000	313676.000000	1775803899.700171
-16183.845000	-29251.035000	1414.710000	21507.840000	7058.565000	-9961.560000	-38948.670000	-27962.865000	-1.857644	-2.257791	-2.796936	-3.466513	-7.393086	-3.818992	0.699081	-0.732878	1.861720	4.410140	5.142620	-0.830259	0.120361	0.526305	-1.000000	-1.000000	-1.000000	-1.000000	-1.000000	-1.000000	-1.000000	50.000000	0.000000	-1.000000	-1.000000	313677.000000	1775803899.700194
-16187.355000	-29254.320000	1409.985000	21498.210000	7056.315000	-9966.510000	-38953.260000	-27966.915000	-2.530795	-3.359076	-2.521107	-1.789732	-6.592143	-5.147805	-1.471211	-2.224896	1.861720	4.410140	5.142620	-0.830259	0.120361	0.526305	-1.000000	-1.000000	-1.000000	-1.000000	-1.000000	-1.000000	-1.000000	50.000000	0.000000	-1.000000	-1.000000	313678.000000	1775803899.701714
-16187.265000	-29254.995000	1409.580000	21497.310000	7052.715000	-9961.965000	-38951.370000	-27965.970000	-2.150570	-3.105827	-1.690877	-0.314900	-2.386510	-4.111748	-2.690498	-2.440425	1.861720	4.410140	5.142620	-0.830259	0.120361	0.526305	-1.000000	-1.000000	-1.000000	-1.000000	-1.000000	-1.000000	-1.000000	50.000000	0.000000	-1.000000	-1.000000	313679.000000	1775803899.701734
-16188.570000	-29254.680000	1411.335000	21500.460000	7050.825000	-9949.545000	-38951.820000	-27968.490000	-1.330557	-2.002123	-0.698771	0.275586	1.466866	-0.918673	-2.701825	-1.938256	1.861720	4.410140	5.142620	-0.830259	0.120361	0.526305	-1.000000	-1.000000	-1.000000	-1.000000	-1.000000	-1.000000	-1.000000	50.000000	0.000000	-1.000000	-1.000000	313680.000000	1775803899.708248
-16185.150000	-29249.190000	1417.230000	21503.295000	7034.445000	-9947.565000	-38951.235000	-27966.015000	-0.380468	-0.422313	0.519452	0.730104	2.481449	3.552708	-1.560684	-1.126825	1.861720	4.410140	5.142620	-0.830259	0.120361	0.526305	-1.000000	-1.000000	-1.000000	-1.000000	-1.000000	-1.000000	-1.000000	50.000000	0.000000	-1.000000	-1.000000	313681.000000	1775803899.708273
-16178.805000	-29241.540000	1425.870000	21509.730000	7014.060000	-9954.045000	-38947.590000	-27961.920000	0.739197	1.477666	2.126023	1.788261	0.251474	7.050661	0.176643	-0.104579	0.946120	3.448760	0.152600	-0.826963	0.145752	0.521117	-1.000000	-1.000000	-1.000000	-1.000000	-1.000000	-1.000000	-1.000000	50.000000	0.000000	-1.000000	-1.000000	313682.000000	1775803899.708870
-16179.705000	-29242.980000	1420.965000	21499.560000	7000.335000	-9963.720000	-38946.510000	-27960.075000	1.961252	3.249236	3.627790	2.958311	-3.879040	6.885284	1.789061	1.095500	0.946120	3.448760	0.152600	-0.826963	0.145752	0.521117	-1.000000	-1.000000	-1.000000	-1.000000	-1.000000	-1.000000	-1.000000	50.000000	0.000000	-1.000000	-1.000000	313683.000000	1775803899.708892
-16182.315000	-29249.910000	1415.475000	21497.625000	7004.205000	-9975.240000	-38953.665000	-27962.505000	2.572861	3.706750	3.642307	2.812193	-6.815504	2.402280	2.500983	2.010374	0.946120	3.448760	0.152600	-0.826963	0.145752	0.521117	-1.000000	-1.000000	-1.000000	-1.000000	-1.000000	-1.000000	-1.000000	50.000000	0.000000	-1.000000	-1.000000	313684.000000	1775803899.711940
-16187.895000	-29255.130000	1411.740000	21500.010000	7030.575000	-9972.315000	-38958.885000	-27967.770000	1.691030	1.820766	1.264977	0.859957	-4.869273	-3.897239	1.607767	1.819099	0.946120	3.448760	0.152600	-0.826963	0.145752	0.521117	-1.000000	-1.000000	-1.000000	-1.000000	-1.000000	-1.000000	-1.000000	50.000000	0.000000	-1.000000	-1.000000	313685.000000	1775803899.711958
-16189.695000	-29255.805000	1412.955000	21501.405000	7023.330000	-9965.925000	-38956.230000	-27969.030000	-0.598159	-1.725029	-2.393552	-1.471097	2.810063	-7.787281	-0.571136	0.248789	0.946120	3.448760	0.152600	-0.826963	0.145752	0.521117	-1.000000	-1.000000	-1.000000	-1.000000	-1.000000	-1.000000	-1.000000	50.000000	0.000000	-1.000000	-1.000000	313686.000000	1775803899.717877
-16190.100000	-29254.365000	1415.430000	21506.220000	7074.540000	-9942.975000	-38951.325000	-27969.165000	-2.970399	-4.636515	-4.889080	-2.429678	12.558322	-6.201095	-2.321500	-1.791727	0.946120	3.448760	0.152600	-0.826963	0.145752	0.521117	-1.000000	-1.000000	-1.000000	-1.000000	-1.000000	-1.000000	-1.000000	50.000000	0.000000	-1.000000	-1.000000	313687.000000	1775803899.717902
-16192.440000	-29257.020000	1413.945000	21502.845000	7082.730000	-9936.540000	-38949.390000	-27970.695000	-3.903491	-5.004456	-4.641737	-1.666248	19.568527	0.399855	-2.091686	-2.902485	0.946120	3.448760	0.152600	-0.826963	0.145752	0.521117	-1.000000	-1.000000	-1.000000	-1.000000	-1.000000	-1.000000	-1.000000	50.000000	0.000000	-1.000000	-1.000000	313688.000000	1775803899.720800
-16192.710000	-29255.535000	1416.510000	21507.930000	7086.645000	-9936.765000	-38942.505000	-27971.415000	-2.922000	-2.843549	-2.117997	-0.184102	20.104257	7.696106	-0.030644	-2.455021	0.946120	3.448760	0.152600	-0.826963	0.145752	0.521117	-1.000000	-1.000000	-1.000000	-1.000000	-1.000000	-1.000000	-1.000000	50.000000	0.000000	-1.000000	-1.000000	313689.000000	1775803899.720827
-16193.700000	-29254.365000	1417.410000	21508.335000	7088.355000	-9925.830000	-38933.145000	-27972.180000	-0.720890	0.406008	1.011571	0.925678	12.063976	10.614718	2.535311	-0.895124	0.946120	3.448760	0.152600	-0.826963	0.145752	0.521117	-1.000000	-1.000000	-1.000000	-1.000000	-1.000000	-1.000000	-1.000000	50.000000	0.000000	-1.000000	-1.000000	313690.000000	1775803899.724672
-16195.815000	-29258.280000	1413.585000	21501.990000	7065.945000	-9939.690000	-38947.590000	-27976.455000	1.526691	3.090164	3.147173	1.103390	-2.746075	7.346237	3.958292	0.796713	0.946120	3.448760	0.152600	-0.826963	0.145752	0.521117	-1.000000	-1.000000	-1.000000	-1.000000	-1.000000	-1.000000	-1.000000	50.000000	0.000000	-1.000000	-1.000000	313691.000000	1775803899.724698
-16176.915000	-29242.620000	1427.805000	21513.510000	7062.525000	-9950.130000	-38959.065000	-27959.985000	3.187169	4.318651	3.647045	0.365675	-18.716445	-0.455809	2.505413	2.047551	-0.198380	2.990960	-4.516960	-0.830259	0.160583	0.516600	-1.000000	-1.000000	-1.000000	-1.000000	-1.000000	-1.000000	-1.000000	50.000000	0.000000	-1.000000	-1.000000	313692.000000	1775803899.728107
-16179.390000	-29244.870000	1425.015000	21512.070000	7062.930000	-9953.910000	-38954.115000	-27961.920000	4.458554	4.386803	3.115458	-0.424268	-28.853209	-9.208255	-1.784555	3.109861	-0.198380	2.990960	-4.516960	-0.830259	0.160583	0.516600	-1.000000	-1.000000	-1.000000	-1.000000	-1.000000	-1.000000	-1.000000	50.000000	0.000000	-1.000000	-1.000000	313693.000000	1775803899.728120
-16178.130000	-29242.845000	1427.490000	21514.005000	7058.745000	-9952.605000	-38950.245000	-27961.020000	4.959037	3.628755	2.164582	-0.525475	-28.208698	-14.433674	-5.767243	3.804080	-0.198380	2.990960	-4.516960	-0.830259	0.160583	0.516600	-1.000000	-1.000000	-1.000000	-1.000000	-1.000000	-1.000000	-1.000000	50.000000	0.000000	-1.000000	-1.000000	313694.000000	1775803899.733440
-16180.110000	-29244.915000	1424.880000	21509.685000	7046.415000	-9956.250000	-38953.530000	-27963.315000	3.554504	1.769994	0.669045	-0.321475	-17.588389	-13.246960	-6.201040	3.097016	-0.198380	2.990960	-4.516960	-0.830259	0.160583	0.516600	-1.000000	-1.000000	-1.000000	-1.000000	-1.000000	-1.000000	-1.000000	50.000000	0.000000	-1.000000	-1.000000	313695.000000	1775803899.733468
-16181.370000	-29244.960000	1424.700000	21508.470000	7057.620000	-9949.410000	-38952.000000	-27964.845000	0.179651	-1.019530	-1.337481	-0.543956	-2.631059	-6.414100	-3.100581	0.657500	-0.198380	2.990960	-4.516960	-0.830259	0.160583	0.516600	-1.000000	-1.000000	-1.000000	-1.000000	-1.000000	-1.000000	-1.000000	50.000000	0.000000	-1.000000	-1.000000	313696.000000	1775803899.737292
-16188.795000	-29253.375000	1411.965000	21491.235000	7059.645000	-9945.045000	-38954.475000	-27969.930000	-3.800282	-3.845955	-3.398936	-1.531395	10.918639	2.673698	1.080765	-2.541136	-0.198380	2.990960	-4.516960	-0.830259	0.160583	0.516600	-1.000000	-1.000000	-1.000000	-1.000000	-1.000000	-1.000000	-1.000000	50.000000	0.000000	-1.000000	-1.000000	313697.000000	1775803899.737322
-16185.690000	-29243.340000	1427.355000	21515.400000	7066.620000	-9943.785000	-38959.155000	-27973.665000	-6.634739	-5.566719	-4.722988	-2.651644	19.530813	10.152233	3.889644	-5.081150	-0.198380	2.990960	-4.516960	-0.830259	0.160583	0.516600	-1.000000	-1.000000	-1.000000	-1.000000	-1.000000	-1.000000	-1.000000	50.000000	0.000000	-1.000000	-1.000000	313698.000000	1775803899.740845
-16182.630000	-29235.330000	1443.735000	21533.265000	7067.790000	-9939.465000	-38954.115000	-27972.135000	-6.868916	-4.927213	-3.744647	-1.697945	21.574607	13.227536	4.317174	-5.826577	-0.198380	2.990960	-4.516960	-0.830259	0.160583	0.516600	-1.000000	-1.000000	-1.000000	-1.000000	-1.000000	-1.000000	-1.000000	50.000000	0.000000	-1.000000	-1.000000	313699.000000	1775803899.740869
-16185.645000	-29243.835000	1431.135000	21514.005000	7048.845000	-9947.070000	-38950.290000	-27968.220000	-4.223128	-1.844180	0.016689	2.117370	16.932507	11.151713	3.186996	-4.214964	-0.198380	2.990960	-4.516960	-0.830259	0.160583	0.516600	-1.000000	-1.000000	-1.000000	-1.000000	-1.000000	-1.000000	-1.000000	50.000000	0.000000	-1.000000	-1.000000	313700.000000	1775803899.746922
-16185.420000	-29247.345000	1423.935000	21508.380000	7043.490000	-9947.880000	-38947.905000	-27965.835000	-0.199725	1.468166	3.644207	5.209634	7.048003	5.200603	1.968797	-0.663452	-0.198380	2.990960	-4.516960	-0.830259	0.160583	0.516600	-1.000000	-1.000000	-1.000000	-1.000000	-1.000000	-1.000000	-1.000000	50.000000	0.000000	-1.000000	-1.000000	313701.000000	1775803899.746945
-16181.370000	-29245.590000	1422.135000	21507.795000	7051.455000	-9937.890000	-38941.020000	-27959.940000	3.168885	2.709180	3.777732	3.976853	-4.107833	-1.693563	1.311942	3.340724	-5.203660	1.464960	-6.622840	-0.830808	0.162658	0.518553	-1.000000	-1.000000	-1.000000	-1.000000	-1.000000	-1.000000	-1.000000	50.000000	0.000000	-1.000000	-1.000000	313702.000000	1775803899.754672
-16178.580000	-29240.460000	1425.960000	21509.865000	7046.280000	-9948.645000	-38943.405000	-27957.960000	4.904509	2.044169	0.830624	-0.372430	-11.212026	-6.307065	0.940324	6.048062	-5.203660	1.464960	-6.622840	-0.830808	0.162658	0.518553	-1.000000	-1.000000	-1.000000	-1.000000	-1.000000	-1.000000	-1.000000	50.000000	0.000000	-1.000000	-1.000000	313703.000000	1775803899.754694
-16175.475000	-29238.930000	1426.905000	21509.775000	7033.230000	-9952.965000	-38944.350000	-27955.845000	5.029920	1.154879	-2.045225	-3.991905	-11.996887	-7.631659	0.147708	6.351310	-5.203660	1.464960	-6.622840	-0.830808	0.162658	0.518553	-1.000000	-1.000000	-1.000000	-1.000000	-1.000000	-1.000000	-1.000000	50.000000	0.000000	-1.000000	-1.000000	313704.000000	1775803899.754718
-16178.175000	-29239.785000	1427.805000	21510.180000	7026.660000	-9947.070000	-38949.390000	-27963.360000	3.807904	0.928323	-2.617576	-4.573667	-8.608666	-6.604666	-1.507115	4.071742	-5.203660	1.464960	-6.622840	-0.830808	0.162658	0.518553	-1.000000	-1.000000	-1.000000	-1.000000	-1.000000	-1.000000	-1.000000	50.000000	0.000000	-1.000000	-1.000000	313705.000000	1775803899.754729
-16185.330000	-29241.630000	1431.585000	21519.270000	7060.410000	-9943.020000	-38953.530000	-27971.010000	1.399032	0.904215	-1.013040	-2.328595	-3.497698	-3.875709	-3.618999	-0.148269	-5.203660	1.464960	-6.622840	-0.830808	0.162658	0.518553	-1.000000	-1.000000	-1.000000	-1.000000	-1.000000	-1.000000	-1.000000	50.000000	0.000000	-1.000000	-1.000000	313706.000000	1775803899.756283
-16186.680000	-29245.140000	1427.130000	21519.855000	7092.810000	-9937.215000	-38947.545000	-27968.445000	-1.764129	0.339029	1.220756	1.201918	3.509263	0.076910	-4.982829	-4.685416	-5.203660	1.464960	-6.622840	-0.830808	0.162658	0.518553	-1.000000	-1.000000	-1.000000	-1.000000	-1.000000	-1.000000	-1.000000	50.000000	0.000000	-1.000000	-1.000000	313707.000000	1775803899.756339
-16183.845000	-29249.145000	1417.500000	21503.610000	7069.185000	-9944.280000	-38943.990000	-27962.730000	-4.370840	-0.884923	2.259921	3.736742	11.296523	3.765355	-4.250257	-7.060572	-5.203660	1.464960	-6.622840	-0.830808	0.162658	0.518553	-1.000000	-1.000000	-1.000000	-1.000000	-1.000000	-1.000000	-1.000000	50.000000	0.000000	-1.000000	-1.000000	313708.000000	1775803899.761954
-16180.695000	-29244.870000	1421.190000	21483.405000	7041.870000	-9952.290000	-38945.700000	-27962.055000	-4.810686	-2.076410	1.263771	2.865370	13.817032	5.066721	-1.327649	-5.674781	-5.203660	1.464960	-6.622840	-0.830808	0.162658	0.518553	-1.000000	-1.000000	-1.000000	-1.000000	-1.000000	-1.000000	-1.000000	50.000000	0.000000	-1.000000	-1.000000	313709.000000	1775803899.761981
-16175.880000	-29235.690000	1432.260000	21486.060000	7028.460000	-9954.990000	-38941.965000	-27957.870000	-2.653072	-2.025993	-0.434221	-1.449524	6.244153	3.080970	2.139157	-1.456015	-5.203660	1.464960	-6.622840	-0.830808	0.162658	0.518553	-1.000000	-1.000000	-1.000000	-1.000000	-1.000000	-1.000000	-1.000000	50.000000	0.000000	-1.000000	-1.000000	313710.000000	1775803899.775871
-16186.680000	-29246.535000	1424.925000	21512.205000	7041.420000	-9965.835000	-38947.320000	-27966.735000	0.640547	-0.357284	-0.801636	-5.120358	-7.168033	-0.788410	4.199810	2.823421	-5.203660	1.464960	-6.622840	-0.830808	0.162658	0.518553	-1.000000	-1.000000	-1.000000	-1.000000	-1.000000	-1.000000	-1.000000	50.000000	0.000000	-1.000000	-1.000000	313711.000000	1775803899.775892
-16187.085000	-29247.300000	1425.105000	21531.105000	7068.240000	-9962.055000	-38951.280000	-27967.950000	2.667300	1.427966	0.130921	-3.204640	-15.795855	-4.004977	3.873086	4.589757	-8.362480	0.427280	-6.729660	-0.828367	0.156799	0.521910	-1.000000	-1.000000	-1.000000	-1.000000	-1.000000	-1.000000	-1.000000	50.000000	0.000000	-1.000000	-1.000000	313712.000000	1775803899.775916
-16186.995000	-29242.395000	1432.575000	21526.335000	7067.430000	-9950.490000	-38956.815000	-27972.135000	2.355541	1.814687	0.987635	4.019606	-12.919876	-4.323167	1.467995	3.259510	-8.362480	0.427280	-6.729660	-0.828367	0.156799	0.521910	-1.000000	-1.000000	-1.000000	-1.000000	-1.000000	-1.000000	-1.000000	50.000000	0.000000	-1.000000	-1.000000	313713.000000	1775803899.775924
-16171.965000	-29225.295000	1449.045000	21536.100000	7087.500000	-9921.960000	-38947.005000	-27961.245000	1.072920	1.475778	1.587717	10.531711	-1.572137	-0.565159	-1.350888	0.599245	-8.362480	0.427280	-6.729660	-0.828367	0.156799	0.521910	-1.000000	-1.000000	-1.000000	-1.000000	-1.000000	-1.000000	-1.000000	50.000000	0.000000	-1.000000	-1.000000	313714.000000	1775803899.775932
-16177.230000	-29231.775000	1441.935000	21530.430000	7082.370000	-9925.155000	-38944.170000	-27964.215000	0.745101	1.794658	2.369523	10.901626	9.682431	5.913857	-2.407052	-0.971747	-8.362480	0.427280	-6.729660	-0.828367	0.156799	0.521910	-1.000000	-1.000000	-1.000000	-1.000000	-1.000000	-1.000000	-1.000000	50.000000	0.000000	-1.000000	-1.000000	313715.000000	1775803899.775938
-16181.865000	-29239.020000	1433.880000	21521.385000	7068.870000	-9938.565000	-38944.935000	-27967.590000	1.243048	2.109206	2.277256	4.583749	13.689953	10.363080	-1.031253	-0.779647	-8.362480	0.427280	-6.729660	-0.828367	0.156799	0.521910	-1.000000	-1.000000	-1.000000	-1.000000	-1.000000	-1.000000	-1.000000	50.000000	0.000000	-1.000000	-1.000000	313716.000000	1775803899.785081
-16182.990000	-29245.770000	1424.115000	21511.575000	7053.255000	-9956.340000	-38943.000000	-27962.505000	0.931208	0.580522	-0.242754	-5.111822	8.224402	7.889254	1.237648	0.035798	-8.362480	0.427280	-6.729660	-0.828367	0.156799	0.521910	-1.000000	-1.000000	-1.000000	-1.000000	-1.000000	-1.000000	-1.000000	50.000000	0.000000	-1.000000	-1.000000	313717.000000	1775803899.785110
-16182.450000	-29248.110000	1420.560000	21508.785000	7051.185000	-9960.615000	-38942.820000	-27961.380000	-0.628248	-2.749445	-4.540851	-13.320652	-2.952743	-1.254043	2.489273	0.581949	-8.362480	0.427280	-6.729660	-0.828367	0.156799	0.521910	-1.000000	-1.000000	-1.000000	-1.000000	-1.000000	-1.000000	-1.000000	50.000000	0.000000	-1.000000	-1.000000	313718.000000	1775803899.785174
-16189.740000	-29252.520000	1415.340000	21501.180000	7046.505000	-9958.590000	-38951.775000	-27970.515000	-2.353280	-5.677692	-7.840697	-16.043106	-12.495085	-11.044632	1.893126	0.606929	-8.362480	0.427280	-6.729660	-0.828367	0.156799	0.521910	-1.000000	-1.000000	-1.000000	-1.000000	-1.000000	-1.000000	-1.000000	50.000000	0.000000	-1.000000	-1.000000	313719.000000	1775803899.785191
-16179.480000	-29239.245000	1429.920000	21513.330000	7061.535000	-9936.945000	-38945.340000	-27963.765000	-3.070034	-5.874632	-7.479795	-12.072237	-14.527329	-14.441249	-0.179770	-0.071490	-8.362480	0.427280	-6.729660	-0.828367	0.156799	0.521910	-1.000000	-1.000000	-1.000000	-1.000000	-1.000000	-1.000000	-1.000000	50.000000	0.000000	-1.000000	-1.000000	313720.000000	1775803899.785210
-16177.545000	-29233.620000	1438.020000	21520.800000	7071.480000	-9925.920000	-38940.480000	-27965.340000	-2.032217	-2.443646	-2.631612	-3.014980	-7.954867	-8.679821	-2.123672	-0.963254	-8.362480	0.427280	-6.729660	-0.828367	0.156799	0.521910	-1.000000	-1.000000	-1.000000	-1.000000	-1.000000	-1.000000	-1.000000	50.000000	0.000000	-1.000000	-1.000000	313721.000000	1775803899.785222
-16182.270000	-29235.420000	1435.905000	21519.405000	7063.740000	-9935.055000	-38948.220000	-27971.370000	0.364898	3.031785	4.580221	7.298682	3.069702	2.315792	-2.470505	-1.345803	-4.776380	0.091560	-5.997180	-0.829099	0.145080	0.522704	-1.000000	-1.000000	-1.000000	-1.000000	-1.000000	-1.000000	-1.000000	50.000000	0.000000	-1.000000	-1.000000	313722.000000	1775803899.795398
-16176.195000	-29229.840000	1441.035000	21527.685000	7060.185000	-9939.285000	-38946.015000	-27964.665000	2.456498	7.163788	9.900098	14.167588	11.544248	10.665318	-1.559483	-1.182303	-4.776380	0.091560	-5.997180	-0.829099	0.145080	0.522704	-1.000000	-1.000000	-1.000000	-1.000000	-1.000000	-1.000000	-1.000000	50.000000	0.000000	-1.000000	-1.000000	313723.000000	1775803899.795423
-16176.645000	-29233.620000	1437.795000	21520.350000	7055.010000	-9938.115000	-38942.730000	-27961.470000	3.070876	7.562210	10.298261	14.770625	12.744742	11.299130	-0.440117	-0.457422	-4.776380	0.091560	-5.997180	-0.829099	0.145080	0.522704	-1.000000	-1.000000	-1.000000	-1.000000	-1.000000	-1.000000	-1.000000	50.000000	0.000000	-1.000000	-1.000000	313724.000000	1775803899.795453
-16181.280000	-29240.370000	1428.435000	21501.360000	7053.525000	-9943.290000	-38944.170000	-27964.665000	2.210394	4.214852	5.819355	9.155670	7.372120	5.494533	0.534579	0.784999	-4.776380	0.091560	-5.997180	-0.829099	0.145080	0.522704	-1.000000	-1.000000	-1.000000	-1.000000	-1.000000	-1.000000	-1.000000	50.000000	0.000000	-1.000000	-1.000000	313725.000000	1775803899.795466
-16178.895000	-29239.605000	1427.580000	21504.015000	7047.945000	-9945.855000	-38940.345000	-27960.435000	0.361785	-1.099738	-1.195139	-0.212544	-0.277599	-2.015837	1.255177	1.790128	-4.776380	0.091560	-5.997180	-0.829099	0.145080	0.522704	-1.000000	-1.000000	-1.000000	-1.000000	-1.000000	-1.000000	-1.000000	50.000000	0.000000	-1.000000	-1.000000	313726.000000	1775803899.808330
-16181.595000	-29240.730000	1428.480000	21505.995000	7047.000000	-9949.815000	-38943.135000	-27964.845000	-1.570814	-5.615887	-7.208935	-8.563089	-5.970399	-7.152668	1.509343	1.824756	-4.776380	0.091560	-5.997180	-0.829099	0.145080	0.522704	-1.000000	-1.000000	-1.000000	-1.000000	-1.000000	-1.000000	-1.000000	50.000000	0.000000	-1.000000	-1.000000	313727.000000	1775803899.808357
