Channel1	Channel2	Channel3	Channel4	Channel5	Channel6	Channel7	Channel8	FilteredChannel1	FilteredChannel2	FilteredChannel3	FilteredChannel4	FilteredChannel5	FilteredChannel6	FilteredChannel7	FilteredChannel8	GyroX	GyroY	GyroZ	AccX	AccY	AccZ	PPG1	PPG2	rawPPG1	rawPPG2	rawPPG3	Hr	Hrv	Battery	Trigger	PhysicalTrigger	AutoTrigger	NumMeasurements	Timestamp
-18714.420000	-39091.590000	-3843.225000	18927.810000	5098.095000	-13995.045000	-33550.695000	-16743.105000	-2.424981	-2.509424	-2.804886	-1.984104	1.869482	-3.146528	0.157926	-0.660674	-3.113040	3.143560	-1.129240	-0.726072	0.071960	0.668150	-1.000000	-1.000000	-1.000000	-1.000000	-1.000000	-1.000000	-1.000000	51.000000	0.000000	-1.000000	-1.000000	162239.000000	1775803596.864794
-18710.865000	-39085.695000	-3844.305000	18917.865000	5097.780000	-13989.780000	-33545.970000	-16738.695000	-2.850699	-3.207654	-2.940190	-1.376275	4.293062	-1.126900	0.342390	-0.156341	-3.113040	3.143560	-1.129240	-0.726072	0.071960	0.668150	-1.000000	-1.000000	-1.000000	-1.000000	-1.000000	-1.000000	-1.000000	51.000000	0.000000	-1.000000	-1.000000	162240.000000	1775803596.864819
-18710.415000	-39082.095000	-3839.985000	18926.100000	5103.270000	-13986.945000	-33545.520000	-16740.000000	-1.872729	-1.844594	-1.515142	-1.359752	4.513233	1.379546	0.134381	0.136659	4.501700	2.838360	-0.900340	-0.722715	0.065368	0.668150	-1.000000	-1.000000	-1.000000	-1.000000	-1.000000	-1.000000	-1.000000	51.000000	0.000000	-1.000000	-1.000000	162241.000000	1775803596.864846
-18710.235000	-39083.625000	-3833.505000	18938.745000	5108.895000	-13995.585000	-33552.990000	-16741.845000	-0.140070	0.822716	1.043404	-0.488566	3.736449	2.857078	-0.512128	0.036587	4.501700	2.838360	-0.900340	-0.722715	0.065368	0.668150	-1.000000	-1.000000	-1.000000	-1.000000	-1.000000	-1.000000	-1.000000	51.000000	0.000000	-1.000000	-1.000000	162242.000000	1775803596.864858
-18701.280000	-39074.490000	-3822.570000	18952.650000	5115.735000	-13991.220000	-33547.545000	-16735.365000	1.415796	3.033173	3.797781	2.638752	3.179401	2.294746	-1.513148	-0.358793	4.501700	2.838360	-0.900340	-0.722715	0.065368	0.668150	-1.000000	-1.000000	-1.000000	-1.000000	-1.000000	-1.000000	-1.000000	51.000000	0.000000	-1.000000	-1.000000	162243.000000	1775803596.865195
-18708.075000	-39082.950000	-3834.135000	18934.425000	5100.975000	-13998.195000	-33549.930000	-16740.900000	2.236081	3.554131	5.430521	6.568312	2.627485	0.111396	-2.276011	-0.654506	4.501700	2.838360	-0.900340	-0.722715	0.065368	0.668150	-1.000000	-1.000000	-1.000000	-1.000000	-1.000000	-1.000000	-1.000000	51.000000	0.000000	-1.000000	-1.000000	162244.000000	1775803596.865210
-18711.990000	-39086.010000	-3838.230000	18928.260000	5100.030000	-14001.255000	-33552.315000	-16743.600000	1.808791	2.005968	4.314506	7.359494	0.774479	-2.286444	-2.161931	-0.790744	4.501700	2.838360	-0.900340	-0.722715	0.065368	0.668150	-1.000000	-1.000000	-1.000000	-1.000000	-1.000000	-1.000000	-1.000000	51.000000	0.000000	-1.000000	-1.000000	162245.000000	1775803596.865232
-18711.045000	-39084.120000	-3835.305000	18934.200000	5102.910000	-14000.130000	-33551.325000	-16742.340000	0.012247	-0.974076	0.338211	3.270234	-2.394445	-3.652520	-1.288483	-1.017913	4.501700	2.838360	-0.900340	-0.722715	0.065368	0.668150	-1.000000	-1.000000	-1.000000	-1.000000	-1.000000	-1.000000	-1.000000	51.000000	0.000000	-1.000000	-1.000000	162246.000000	1775803596.865243
-18713.565000	-39086.055000	-3836.655000	18933.705000	5100.930000	-14001.165000	-33553.215000	-16745.175000	-2.084922	-3.588792	-4.047927	-2.672678	-4.854326	-3.249548	-0.122139	-1.145519	4.501700	2.838360	-0.900340	-0.722715	0.065368	0.668150	-1.000000	-1.000000	-1.000000	-1.000000	-1.000000	-1.000000	-1.000000	51.000000	0.000000	-1.000000	-1.000000	162247.000000	1775803596.865258
-18715.680000	-39087.270000	-3838.410000	18933.030000	5097.555000	-14002.920000	-33556.590000	-16747.875000	-3.134314	-4.320520	-6.168302	-6.329988	-5.025538	-1.267184	0.878849	-0.885038	4.501700	2.838360	-0.900340	-0.722715	0.065368	0.668150	-1.000000	-1.000000	-1.000000	-1.000000	-1.000000	-1.000000	-1.000000	51.000000	0.000000	-1.000000	-1.000000	162248.000000	1775803596.865269
-18720.270000	-39094.245000	-3845.970000	18926.505000	5089.545000	-14005.395000	-33559.155000	-16751.070000	-2.770509	-3.217890	-5.486553	-6.396603	-3.373065	1.121526	1.287475	-0.377497	4.501700	2.838360	-0.900340	-0.722715	0.065368	0.668150	-1.000000	-1.000000	-1.000000	-1.000000	-1.000000	-1.000000	-1.000000	51.000000	0.000000	-1.000000	-1.000000	162249.000000	1775803596.865283
-18720.270000	-39097.080000	-3850.965000	18920.745000	5087.070000	-14005.890000	-33557.715000	-16748.325000	-1.477996	-1.418226	-3.292805	-4.261360	-1.343610	2.694832	1.105175	0.195724	4.501700	2.838360	-0.900340	-0.722715	0.065368	0.668150	-1.000000	-1.000000	-1.000000	-1.000000	-1.000000	-1.000000	-1.000000	51.000000	0.000000	-1.000000	-1.000000	162250.000000	1775803596.865293
-18718.065000	-39091.590000	-3843.810000	18921.240000	5090.175000	-14005.800000	-33558.615000	-16748.460000	0.211953	0.264339	-0.831567	-1.756725	0.323739	3.026148	0.829649	0.926125	4.822160	2.533160	-0.732480	-0.722166	0.065124	0.668272	-1.000000	-1.000000	-1.000000	-1.000000	-1.000000	-1.000000	-1.000000	51.000000	0.000000	-1.000000	-1.000000	162251.000000	1775803596.865307
-18719.730000	-39089.520000	-3838.995000	18925.155000	5093.550000	-14006.790000	-33561.945000	-16752.915000	1.934052	1.935930	1.785976	0.476830	1.936678	2.436682	0.773834	1.690371	4.822160	2.533160	-0.732480	-0.722166	0.065124	0.668272	-1.000000	-1.000000	-1.000000	-1.000000	-1.000000	-1.000000	-1.000000	51.000000	0.000000	-1.000000	-1.000000	162252.000000	1775803596.865317
-18715.995000	-39086.190000	-3837.555000	18928.530000	5100.570000	-14000.445000	-33555.915000	-16749.315000	3.205167	3.649258	4.503502	2.652644	3.783184	1.550906	0.841461	1.989383	4.822160	2.533160	-0.732480	-0.722166	0.065124	0.668272	-1.000000	-1.000000	-1.000000	-1.000000	-1.000000	-1.000000	-1.000000	51.000000	0.000000	-1.000000	-1.000000	162253.000000	1775803596.865330
-18726.165000	-39099.105000	-3852.990000	18911.475000	5092.065000	-14008.320000	-33560.955000	-16755.570000	3.417873	4.470805	5.949073	4.246515	5.165348	0.804823	0.935468	1.581093	4.822160	2.533160	-0.732480	-0.722166	0.065124	0.668272	-1.000000	-1.000000	-1.000000	-1.000000	-1.000000	-1.000000	-1.000000	51.000000	0.000000	-1.000000	-1.000000	162254.000000	1775803596.865341
-18728.145000	-39103.290000	-3855.420000	18918.450000	5092.920000	-14007.015000	-33558.165000	-16753.950000	2.119772	3.123722	4.425152	3.986533	4.719555	0.027552	0.885207	0.635421	4.822160	2.533160	-0.732480	-0.722166	0.065124	0.668272	-1.000000	-1.000000	-1.000000	-1.000000	-1.000000	-1.000000	-1.000000	51.000000	0.000000	-1.000000	-1.000000	162255.000000	1775803596.865354
-18723.690000	-39096.990000	-3845.160000	18928.170000	5095.215000	-14002.920000	-33554.655000	-16750.080000	-0.158157	-0.037778	0.612554	2.209495	2.149163	-0.882097	0.589314	-0.323194	4.822160	2.533160	-0.732480	-0.722166	0.065124	0.668272	-1.000000	-1.000000	-1.000000	-1.000000	-1.000000	-1.000000	-1.000000	51.000000	0.000000	-1.000000	-1.000000	162256.000000	1775803596.865364
-18726.255000	-39098.835000	-3847.770000	18923.985000	5094.405000	-14002.875000	-33557.715000	-16753.545000	-1.842182	-2.684646	-2.446784	0.837322	-1.073322	-1.362313	0.231240	-0.674401	4.822160	2.533160	-0.732480	-0.722166	0.065124	0.668272	-1.000000	-1.000000	-1.000000	-1.000000	-1.000000	-1.000000	-1.000000	51.000000	0.000000	-1.000000	-1.000000	162257.000000	1775803596.865378
-18726.930000	-39099.600000	-3851.640000	18918.360000	5092.920000	-14003.280000	-33558.165000	-16754.580000	-2.005914	-3.107783	-2.966133	0.338728	-3.318114	-1.120207	-0.216155	-0.505638	4.822160	2.533160	-0.732480	-0.722166	0.065124	0.668272	-1.000000	-1.000000	-1.000000	-1.000000	-1.000000	-1.000000	-1.000000	51.000000	0.000000	-1.000000	-1.000000	162258.000000	1775803596.865388
-18727.155000	-39100.320000	-3855.555000	18910.215000	5086.575000	-14008.365000	-33562.485000	-16755.210000	-1.111287	-1.745241	-1.934723	-0.551849	-4.131885	-0.699107	-0.955459	-0.399216	4.822160	2.533160	-0.732480	-0.722166	0.065124	0.668272	-1.000000	-1.000000	-1.000000	-1.000000	-1.000000	-1.000000	-1.000000	51.000000	0.000000	-1.000000	-1.000000	162259.000000	1775803596.865401
-18718.290000	-39091.005000	-3844.710000	18924.480000	5088.510000	-14008.005000	-33565.005000	-16749.225000	0.135013	0.187155	-0.743438	-2.100062	-3.861042	-0.722212	-1.873568	-0.419735	4.822160	2.533160	-0.732480	-0.722166	0.065124	0.668272	-1.000000	-1.000000	-1.000000	-1.000000	-1.000000	-1.000000	-1.000000	51.000000	0.000000	-1.000000	-1.000000	162260.000000	1775803596.865411
-18715.680000	-39088.035000	-3838.635000	18927.585000	5081.355000	-14009.445000	-33563.115000	-16747.740000	1.480064	2.007394	0.583459	-2.659169	-2.859042	-1.094985	-2.442554	-0.112480	-0.564620	1.541260	0.610400	-0.728758	0.070801	0.668028	-1.000000	-1.000000	-1.000000	-1.000000	-1.000000	-1.000000	-1.000000	51.000000	0.000000	-1.000000	-1.000000	162261.000000	1775803596.865443
-18720.540000	-39093.750000	-3845.070000	18924.210000	5090.985000	-14008.995000	-33563.205000	-16750.080000	2.414743	3.064725	2.075864	-1.238972	-1.269823	-1.199663	-2.021400	0.526380	-0.564620	1.541260	0.610400	-0.728758	0.070801	0.668028	-1.000000	-1.000000	-1.000000	-1.000000	-1.000000	-1.000000	-1.000000	51.000000	0.000000	-1.000000	-1.000000	162262.000000	1775803596.865454
-18715.230000	-39087.405000	-3838.590000	18931.905000	5086.215000	-14006.880000	-33557.625000	-16744.995000	2.069407	2.538315	2.679263	0.894529	0.797464	-0.619559	-0.455951	0.881217	-0.564620	1.541260	0.610400	-0.728758	0.070801	0.668028	-1.000000	-1.000000	-1.000000	-1.000000	-1.000000	-1.000000	-1.000000	51.000000	0.000000	-1.000000	-1.000000	162263.000000	1775803596.865468
-18716.220000	-39087.135000	-3839.085000	18930.600000	5073.075000	-14011.695000	-33559.425000	-16747.245000	0.459536	0.646859	1.744832	2.122964	2.490422	0.444066	1.626813	0.622974	-0.564620	1.541260	0.610400	-0.728758	0.070801	0.668028	-1.000000	-1.000000	-1.000000	-1.000000	-1.000000	-1.000000	-1.000000	51.000000	0.000000	-1.000000	-1.000000	162264.000000	1775803596.865478
-18718.965000	-39088.755000	-3840.255000	18928.530000	5063.175000	-14015.520000	-33563.835000	-16750.170000	-1.481251	-1.433878	-0.132108	1.838164	2.284688	1.191587	2.992200	-0.152262	-0.564620	1.541260	0.610400	-0.728758	0.070801	0.668028	-1.000000	-1.000000	-1.000000	-1.000000	-1.000000	-1.000000	-1.000000	51.000000	0.000000	-1.000000	-1.000000	162265.000000	1775803596.865492
-18717.705000	-39086.505000	-3835.845000	18932.580000	5086.755000	-14007.465000	-33562.530000	-16750.485000	-2.934654	-2.832112	-1.971472	0.285374	0.517403	1.166867	2.657717	-1.240438	-0.564620	1.541260	0.610400	-0.728758	0.070801	0.668028	-1.000000	-1.000000	-1.000000	-1.000000	-1.000000	-1.000000	-1.000000	51.000000	0.000000	-1.000000	-1.000000	162266.000000	1775803596.865502
-18715.230000	-39082.455000	-3832.335000	18920.070000	5109.570000	-13993.605000	-33559.065000	-16749.405000	-3.324362	-3.108869	-2.841315	-1.710407	0.382761	1.215800	1.029151	-2.096759	-0.564620	1.541260	0.610400	-0.728758	0.070801	0.668028	-1.000000	-1.000000	-1.000000	-1.000000	-1.000000	-1.000000	-1.000000	51.000000	0.000000	-1.000000	-1.000000	162267.000000	1775803596.865515
-18717.480000	-39087.270000	-3841.245000	18908.190000	5089.995000	-14000.220000	-33558.390000	-16749.540000	-2.433770	-2.254929	-2.497001	-3.646346	3.372187	2.138755	-0.497172	-2.062900	-0.564620	1.541260	0.610400	-0.728758	0.070801	0.668028	-1.000000	-1.000000	-1.000000	-1.000000	-1.000000	-1.000000	-1.000000	51.000000	0.000000	-1.000000	-1.000000	162268.000000	1775803596.865525
-18719.370000	-39091.455000	-3843.495000	18936.720000	5115.195000	-14000.940000	-33556.770000	-16749.675000	-0.854239	-1.079726	-1.833075	-4.672401	6.313854	2.821308	-1.058698	-1.067959	-0.564620	1.541260	0.610400	-0.728758	0.070801	0.668028	-1.000000	-1.000000	-1.000000	-1.000000	-1.000000	-1.000000	-1.000000	51.000000	0.000000	-1.000000	-1.000000	162269.000000	1775803596.865538
-18712.530000	-39085.200000	-3835.530000	18951.300000	5124.060000	-13998.780000	-33550.875000	-16742.295000	0.599333	-0.364273	-1.438045	-2.533001	6.235336	1.712360	-0.728990	0.437511	-0.564620	1.541260	0.610400	-0.728758	0.070801	0.668028	-1.000000	-1.000000	-1.000000	-1.000000	-1.000000	-1.000000	-1.000000	51.000000	0.000000	-1.000000	-1.000000	162270.000000	1775803596.865548
-18715.140000	-39089.205000	-3842.145000	18931.095000	5105.880000	-14003.595000	-33552.405000	-16743.645000	1.669671	0.095622	-0.769122	2.776617	3.145397	-0.908814	0.004858	1.944508	-3.189340	1.739640	1.968540	-0.729124	0.074402	0.666807	-1.000000	-1.000000	-1.000000	-1.000000	-1.000000	-1.000000	-1.000000	51.000000	0.000000	-1.000000	-1.000000	162271.000000	1775803596.865561
-18715.320000	-39088.215000	-3840.480000	18924.975000	5103.630000	-14003.460000	-33554.565000	-16745.265000	2.201255	0.667452	0.381133	6.565606	-2.429922	-3.548010	0.404427	2.749979	-3.189340	1.739640	1.968540	-0.729124	0.074402	0.666807	-1.000000	-1.000000	-1.000000	-1.000000	-1.000000	-1.000000	-1.000000	51.000000	0.000000	-1.000000	-1.000000	162272.000000	1775803596.865572
-18714.870000	-39085.605000	-3835.665000	18934.335000	5111.280000	-13995.315000	-33552.990000	-16745.940000	1.907957	1.244462	1.526804	5.188570	-8.689965	-4.713226	-0.068827	2.186703	-3.189340	1.739640	1.968540	-0.729124	0.074402	0.666807	-1.000000	-1.000000	-1.000000	-1.000000	-1.000000	-1.000000	-1.000000	51.000000	0.000000	-1.000000	-1.000000	162273.000000	1775803596.865585
-18722.745000	-39090.645000	-3838.455000	18938.745000	5110.470000	-13996.710000	-33560.775000	-16755.120000	0.809020	1.593624	2.358898	0.744988	-11.902954	-3.568577	-1.199300	0.313268	-3.189340	1.739640	1.968540	-0.729124	0.074402	0.666807	-1.000000	-1.000000	-1.000000	-1.000000	-1.000000	-1.000000	-1.000000	51.000000	0.000000	-1.000000	-1.000000	162274.000000	1775803596.865595
-18715.095000	-39081.780000	-3829.860000	18943.695000	5114.655000	-13993.155000	-33557.220000	-16749.000000	-0.625829	1.561670	2.703051	-2.500306	-9.935277	-0.782308	-2.299997	-1.967130	-3.189340	1.739640	1.968540	-0.729124	0.074402	0.666807	-1.000000	-1.000000	-1.000000	-1.000000	-1.000000	-1.000000	-1.000000	51.000000	0.000000	-1.000000	-1.000000	162275.000000	1775803596.865609
-18713.520000	-39078.945000	-3827.070000	18944.730000	5113.305000	-13994.865000	-33557.310000	-16748.145000	-1.413088	1.406964	2.566327	-2.830600	-4.184430	1.881728	-2.546626	-3.169406	-3.189340	1.739640	1.968540	-0.729124	0.074402	0.666807	-1.000000	-1.000000	-1.000000	-1.000000	-1.000000	-1.000000	-1.000000	51.000000	0.000000	-1.000000	-1.000000	162276.000000	1775803596.865620
-18710.730000	-39078.720000	-3828.555000	18939.645000	5110.605000	-13993.830000	-33554.205000	-16743.735000	-0.840872	1.410503	2.007944	-1.476862	2.026611	3.033611	-1.424693	-2.284216	-3.189340	1.739640	1.968540	-0.729124	0.074402	0.666807	-1.000000	-1.000000	-1.000000	-1.000000	-1.000000	-1.000000	-1.000000	51.000000	0.000000	-1.000000	-1.000000	162277.000000	1775803596.865633
-18715.095000	-39086.820000	-3839.850000	18926.145000	5100.210000	-13998.285000	-33553.710000	-16744.275000	0.477222	1.023418	0.570705	-0.741058	5.659423	2.374595	0.653764	0.115095	-3.189340	1.739640	1.968540	-0.729124	0.074402	0.666807	-1.000000	-1.000000	-1.000000	-1.000000	-1.000000	-1.000000	-1.000000	51.000000	0.000000	-1.000000	-1.000000	162278.000000	1775803596.865644
-18721.170000	-39095.820000	-3844.845000	18922.185000	5092.380000	-14002.830000	-33552.495000	-16745.220000	1.088377	-0.611267	-2.109870	-1.860294	5.458070	0.461302	2.576210	2.330743	-3.189340	1.739640	1.968540	-0.729124	0.074402	0.666807	-1.000000	-1.000000	-1.000000	-1.000000	-1.000000	-1.000000	-1.000000	51.000000	0.000000	-1.000000	-1.000000	162279.000000	1775803596.866208
-18722.475000	-39102.570000	-3843.765000	18922.455000	5077.755000	-14002.605000	-33550.605000	-16744.500000	0.209094	-3.330438	-4.988337	-3.704663	2.329823	-1.665523	3.379606	2.971673	-3.189340	1.739640	1.968540	-0.729124	0.074402	0.666807	-1.000000	-1.000000	-1.000000	-1.000000	-1.000000	-1.000000	-1.000000	51.000000	0.000000	-1.000000	-1.000000	162280.000000	1775803596.866223
-18714.600000	-39090.330000	-3835.305000	18924.930000	5072.940000	-13991.355000	-33544.710000	-16739.505000	-1.251051	-5.305637	-5.802943	-3.863999	-1.452023	-2.573636	2.930215	2.025910	-3.341940	1.190280	1.022420	-0.725279	0.071594	0.668028	-1.000000	-1.000000	-1.000000	-1.000000	-1.000000	-1.000000	-1.000000	51.000000	0.000000	-1.000000	-1.000000	162281.000000	1775803596.870511
-18710.325000	-39080.115000	-3836.115000	18929.835000	5085.855000	-13994.865000	-33548.895000	-16738.695000	-1.486907	-4.100018	-3.263381	-1.165764	-3.152813	-1.319830	1.712798	0.574383	-3.341940	1.190280	1.022420	-0.725279	0.071594	0.668028	-1.000000	-1.000000	-1.000000	-1.000000	-1.000000	-1.000000	-1.000000	51.000000	0.000000	-1.000000	-1.000000	162282.000000	1775803596.870538
-18709.515000	-39077.415000	-3833.100000	18941.490000	5120.145000	-13993.965000	-33552.045000	-16740.270000	0.073468	0.621194	1.299069	3.418421	-0.351353	1.173595	0.010699	-0.538967	-3.341940	1.190280	1.022420	-0.725279	0.071594	0.668028	-1.000000	-1.000000	-1.000000	-1.000000	-1.000000	-1.000000	-1.000000	51.000000	0.000000	-1.000000	-1.000000	162283.000000	1775803596.873650
-18716.535000	-39088.890000	-3844.755000	18927.855000	5120.145000	-13994.595000	-33555.060000	-16745.220000	1.940528	5.693318	4.878460	7.402577	6.706984	2.868388	-2.022722	-1.365091	-3.341940	1.190280	1.022420	-0.725279	0.071594	0.668028	-1.000000	-1.000000	-1.000000	-1.000000	-1.000000	-1.000000	-1.000000	51.000000	0.000000	-1.000000	-1.000000	162284.000000	1775803596.873677
-18712.845000	-39085.380000	-3839.895000	18927.630000	5106.285000	-13994.640000	-33551.820000	-16742.340000	2.255351	7.153901	5.286277	7.955331	12.883233	2.701288	-3.638385	-2.126948	-3.341940	1.190280	1.022420	-0.725279	0.071594	0.668028	-1.000000	-1.000000	-1.000000	-1.000000	-1.000000	-1.000000	-1.000000	51.000000	0.000000	-1.000000	-1.000000	162285.000000	1775803596.878330
-18711.495000	-39082.140000	-3835.485000	18929.970000	5101.335000	-13998.240000	-33552.765000	-16743.105000	0.908129	4.335280	3.041820	4.408317	11.810445	1.051774	-3.784627	-2.449671	-3.341940	1.190280	1.022420	-0.725279	0.071594	0.668028	-1.000000	-1.000000	-1.000000	-1.000000	-1.000000	-1.000000	-1.000000	51.000000	0.000000	-1.000000	-1.000000	162286.000000	1775803596.878352
-18709.425000	-39079.080000	-3832.740000	18933.660000	5103.135000	-13997.340000	-33551.370000	-16741.620000	-0.693777	0.006391	0.535375	-0.668852	2.920533	-1.027012	-2.224761	-1.834223	-3.341940	1.190280	1.022420	-0.725279	0.071594	0.668028	-1.000000	-1.000000	-1.000000	-1.000000	-1.000000	-1.000000	-1.000000	51.000000	0.000000	-1.000000	-1.000000	162287.000000	1775803596.882385
-18712.980000	-39081.420000	-3834.945000	18929.880000	5099.805000	-13998.510000	-33553.890000	-16744.455000	-1.498362	-3.028444	-0.722943	-4.183975	-7.952712	-2.433114	0.126422	-0.475170	-3.341940	1.190280	1.022420	-0.725279	0.071594	0.668028	-1.000000	-1.000000	-1.000000	-1.000000	-1.000000	-1.000000	-1.000000	51.000000	0.000000	-1.000000	-1.000000	162288.000000	1775803596.882408
-18705.690000	-39074.355000	-3829.095000	18934.155000	5100.705000	-14003.820000	-33553.935000	-16737.615000	-1.438579	-3.874807	-0.940104	-5.047392	-14.437424	-2.643237	1.975104	0.971780	-3.341940	1.190280	1.022420	-0.725279	0.071594	0.668028	-1.000000	-1.000000	-1.000000	-1.000000	-1.000000	-1.000000	-1.000000	51.000000	0.000000	-1.000000	-1.000000	162289.000000	1775803596.887277
-18713.655000	-39085.740000	-3841.020000	18925.020000	5096.610000	-14004.270000	-33553.395000	-16740.810000	-0.867781	-3.134129	-0.965967	-3.989291	-14.085380	-1.966790	2.610945	2.035753	-3.341940	1.190280	1.022420	-0.725279	0.071594	0.668028	-1.000000	-1.000000	-1.000000	-1.000000	-1.000000	-1.000000	-1.000000	51.000000	0.000000	-1.000000	-1.000000	162290.000000	1775803596.887310
-18714.870000	-39083.895000	-3836.475000	18932.220000	5106.105000	-13995.945000	-33552.990000	-16742.790000	-0.416703	-2.096884	-1.478893	-2.293238	-8.357828	-0.733088	2.208574	2.320140	-0.793520	1.617560	1.510740	-0.725401	0.069946	0.669188	-1.000000	-1.000000	-1.000000	-1.000000	-1.000000	-1.000000	-1.000000	51.000000	0.000000	-1.000000	-1.000000	162291.000000	1775803596.900730
-18708.165000	-39077.865000	-3831.345000	18938.835000	5109.885000	-13991.760000	-33548.805000	-16735.860000	-0.393007	-1.372571	-2.125569	-0.501628	-0.381745	1.159860	1.416063	1.665233	-0.793520	1.617560	1.510740	-0.725401	0.069946	0.669188	-1.000000	-1.000000	-1.000000	-1.000000	-1.000000	-1.000000	-1.000000	51.000000	0.000000	-1.000000	-1.000000	162292.000000	1775803596.900759
-18704.700000	-39076.065000	-3831.705000	18937.035000	5104.215000	-13990.365000	-33543.045000	-16731.540000	-0.131231	-0.353052	-1.795985	1.435504	6.468807	3.298319	0.895277	0.761184	-0.793520	1.617560	1.510740	-0.725401	0.069946	0.669188	-1.000000	-1.000000	-1.000000	-1.000000	-1.000000	-1.000000	-1.000000	51.000000	0.000000	-1.000000	-1.000000	162293.000000	1775803596.900789
-18708.570000	-39077.640000	-3831.390000	18934.830000	5105.295000	-13988.070000	-33544.980000	-16737.480000	0.778567	1.187359	-0.380083	2.821166	9.400915	4.424896	0.830539	0.260168	-0.793520	1.617560	1.510740	-0.725401	0.069946	0.669188	-1.000000	-1.000000	-1.000000	-1.000000	-1.000000	-1.000000	-1.000000	51.000000	0.000000	-1.000000	-1.000000	162294.000000	1775803596.900807
-18708.390000	-39076.695000	-3830.355000	18937.080000	5106.330000	-13990.635000	-33543.450000	-16737.525000	1.522100	2.359756	1.073749	2.680180	7.838430	3.577147	0.671845	-0.245546	-0.793520	1.617560	1.510740	-0.725401	0.069946	0.669188	-1.000000	-1.000000	-1.000000	-1.000000	-1.000000	-1.000000	-1.000000	51.000000	0.000000	-1.000000	-1.000000	162295.000000	1775803596.900824
-18706.050000	-39074.445000	-3829.275000	18938.295000	5106.330000	-13990.050000	-33541.830000	-16735.500000	1.316715	2.423199	1.717301	1.223165	3.706020	0.956135	-0.088082	-1.151031	-0.793520	1.617560	1.510740	-0.725401	0.069946	0.669188	-1.000000	-1.000000	-1.000000	-1.000000	-1.000000	-1.000000	-1.000000	51.000000	0.000000	-1.000000	-1.000000	162296.000000	1775803596.900836
-18709.740000	-39076.515000	-3831.930000	18935.010000	5103.810000	-13994.910000	-33550.110000	-16741.305000	0.382994	1.523035	1.403479	-0.494874	-0.506891	-2.261135	-1.348336	-2.012063	-0.793520	1.617560	1.510740	-0.725401	0.069946	0.669188	-1.000000	-1.000000	-1.000000	-1.000000	-1.000000	-1.000000	-1.000000	51.000000	0.000000	-1.000000	-1.000000	162297.000000	1775803596.903002
-18706.095000	-39071.610000	-3825.675000	18940.770000	5110.830000	-13992.930000	-33554.655000	-16739.685000	-0.631920	0.274552	0.512245	-1.638752	-3.160420	-4.642588	-2.840646	-2.334067	-0.793520	1.617560	1.510740	-0.725401	0.069946	0.669188	-1.000000	-1.000000	-1.000000	-1.000000	-1.000000	-1.000000	-1.000000	51.000000	0.000000	-1.000000	-1.000000	162298.000000	1775803596.903028
-18711.225000	-39079.170000	-3833.370000	18934.380000	5107.680000	-13990.365000	-33552.810000	-16740.855000	-1.247276	-0.787294	-0.368402	-1.873940	-3.641642	-5.091356	-3.995962	-1.933774	-0.793520	1.617560	1.510740	-0.725401	0.069946	0.669188	-1.000000	-1.000000	-1.000000	-1.000000	-1.000000	-1.000000	-1.000000	51.000000	0.000000	-1.000000	-1.000000	162299.000000	1775803596.905745
-18713.655000	-39082.905000	-3837.510000	18931.455000	5104.170000	-13989.240000	-33551.820000	-16742.655000	-1.415641	-1.635354	-1.115546	-1.534173	-2.580576	-3.349428	-3.744310	-0.868499	-0.793520	1.617560	1.510740	-0.725401	0.069946	0.669188	-1.000000	-1.000000	-1.000000	-1.000000	-1.000000	-1.000000	-1.000000	51.000000	0.000000	-1.000000	-1.000000	162300.000000	1775803596.905772
-18712.665000	-39082.680000	-3836.655000	18932.085000	5101.020000	-13991.895000	-33550.605000	-16741.080000	-1.317144	-2.349439	-1.841936	-1.188761	-1.385256	-0.420453	-1.603030	0.457821	1.938020	2.136400	1.541260	-0.725767	0.073608	0.668455	-1.000000	-1.000000	-1.000000	-1.000000	-1.000000	-1.000000	-1.000000	51.000000	0.000000	-1.000000	-1.000000	162301.000000	1775803596.910553
-18707.895000	-39078.630000	-3834.225000	18930.600000	5092.560000	-13995.405000	-33546.960000	-16735.815000	-0.764967	-2.355134	-2.012706	-0.810401	-0.974560	1.950491	1.575492	1.688407	1.938020	2.136400	1.541260	-0.725767	0.073608	0.668455	-1.000000	-1.000000	-1.000000	-1.000000	-1.000000	-1.000000	-1.000000	51.000000	0.000000	-1.000000	-1.000000	162302.000000	1775803596.910580
-18702.180000	-39072.330000	-3826.890000	18939.645000	5094.495000	-13993.830000	-33542.550000	-16730.280000	0.578661	-0.936498	-0.876105	0.051949	-1.210177	2.663637	4.349657	2.774294	1.938020	2.136400	1.541260	-0.725767	0.073608	0.668455	-1.000000	-1.000000	-1.000000	-1.000000	-1.000000	-1.000000	-1.000000	51.000000	0.000000	-1.000000	-1.000000	162303.000000	1775803596.913882
-18708.885000	-39080.160000	-3835.890000	18931.905000	5092.110000	-13998.285000	-33547.050000	-16734.420000	2.245969	1.462225	1.245700	1.441070	-1.176747	1.961948	5.501599	3.414242	1.938020	2.136400	1.541260	-0.725767	0.073608	0.668455	-1.000000	-1.000000	-1.000000	-1.000000	-1.000000	-1.000000	-1.000000	51.000000	0.000000	-1.000000	-1.000000	162304.000000	1775803596.913903
-18706.095000	-39077.370000	-3835.035000	18930.600000	5104.845000	-13993.875000	-33545.250000	-16731.225000	2.927585	3.157597	2.756789	2.437881	0.062004	0.817898	4.397223	2.890221	1.938020	2.136400	1.541260	-0.725767	0.073608	0.668455	-1.000000	-1.000000	-1.000000	-1.000000	-1.000000	-1.000000	-1.000000	51.000000	0.000000	-1.000000	-1.000000	162305.000000	1775803596.920534
-18708.660000	-39077.955000	-3835.800000	18929.520000	5112.360000	-13992.210000	-33549.075000	-16735.680000	1.932931	3.013022	2.497664	2.073925	2.713034	0.177603	1.480153	0.987273	1.938020	2.136400	1.541260	-0.725767	0.073608	0.668455	-1.000000	-1.000000	-1.000000	-1.000000	-1.000000	-1.000000	-1.000000	51.000000	0.000000	-1.000000	-1.000000	162306.000000	1775803596.920569
-18712.530000	-39081.105000	-3838.005000	18927.135000	5107.365000	-13993.515000	-33553.125000	-16740.315000	-0.133670	1.435630	0.941649	0.610754	5.549824	0.367533	-1.916380	-1.643662	1.938020	2.136400	1.541260	-0.725767	0.073608	0.668455	-1.000000	-1.000000	-1.000000	-1.000000	-1.000000	-1.000000	-1.000000	51.000000	0.000000	-1.000000	-1.000000	162307.000000	1775803596.923310
-18708.030000	-39076.290000	-3829.455000	18947.745000	5102.955000	-13989.645000	-33549.840000	-16737.030000	-2.097419	-0.454130	-0.577585	-0.533703	6.142439	0.886094	-4.348225	-3.896875	1.938020	2.136400	1.541260	-0.725767	0.073608	0.668455	-1.000000	-1.000000	-1.000000	-1.000000	-1.000000	-1.000000	-1.000000	51.000000	0.000000	-1.000000	-1.000000	162308.000000	1775803596.923340
-18708.975000	-39076.695000	-3827.205000	18935.595000	5098.095000	-13986.225000	-33547.905000	-16737.255000	-2.835896	-1.578875	-0.901700	-0.139273	3.147838	1.182468	-4.695895	-4.549932	1.938020	2.136400	1.541260	-0.725767	0.073608	0.668455	-1.000000	-1.000000	-1.000000	-1.000000	-1.000000	-1.000000	-1.000000	51.000000	0.000000	-1.000000	-1.000000	162309.000000	1775803596.926907
-18706.185000	-39073.005000	-3826.305000	18936.045000	5109.030000	-13985.370000	-33545.340000	-16735.590000	-1.977068	-1.464876	0.030106	0.963650	-1.781729	1.120494	-2.785264	-3.121371	1.938020	2.136400	1.541260	-0.725767	0.073608	0.668455	-1.000000	-1.000000	-1.000000	-1.000000	-1.000000	-1.000000	-1.000000	51.000000	0.000000	-1.000000	-1.000000	162310.000000	1775803596.926932
-18707.895000	-39075.345000	-3828.735000	18933.930000	5106.510000	-13996.980000	-33548.580000	-16737.435000	-0.231793	-0.554483	1.008052	0.888053	-5.287592	0.414587	0.176568	-0.466283	0.961380	2.105880	1.922760	-0.725096	0.077331	0.669310	-1.000000	-1.000000	-1.000000	-1.000000	-1.000000	-1.000000	-1.000000	51.000000	0.000000	-1.000000	-1.000000	162311.000000	1775803596.930670
-18703.440000	-39071.970000	-3824.820000	18941.445000	5094.585000	-14000.085000	-33545.925000	-16733.115000	1.321856	0.302854	0.918560	-0.475136	-5.785057	-1.352813	2.422623	1.984354	0.961380	2.105880	1.922760	-0.725096	0.077331	0.669310	-1.000000	-1.000000	-1.000000	-1.000000	-1.000000	-1.000000	-1.000000	51.000000	0.000000	-1.000000	-1.000000	162312.000000	1775803596.930724
-18702.900000	-39071.520000	-3825.495000	18943.785000	5094.990000	-13998.465000	-33545.610000	-16733.205000	2.074711	0.620713	-0.124901	-1.577000	-4.491763	-3.527459	3.028468	3.314126	0.961380	2.105880	1.922760	-0.725096	0.077331	0.669310	-1.000000	-1.000000	-1.000000	-1.000000	-1.000000	-1.000000	-1.000000	51.000000	0.000000	-1.000000	-1.000000	162313.000000	1775803596.934504
-18709.605000	-39078.315000	-3833.190000	18934.920000	5082.795000	-14001.750000	-33552.090000	-16738.785000	1.825559	0.316605	-1.427493	-1.582488	-2.976683	-4.406222	2.143220	3.207946	0.961380	2.105880	1.922760	-0.725096	0.077331	0.669310	-1.000000	-1.000000	-1.000000	-1.000000	-1.000000	-1.000000	-1.000000	51.000000	0.000000	-1.000000	-1.000000	162314.000000	1775803596.934528
-18712.845000	-39079.890000	-3833.460000	18934.785000	5102.595000	-13993.020000	-33551.820000	-16741.845000	0.459676	-0.629011	-2.600071	-1.252580	-1.346062	-2.959172	0.326770	1.647821	0.961380	2.105880	1.922760	-0.725096	0.077331	0.669310	-1.000000	-1.000000	-1.000000	-1.000000	-1.000000	-1.000000	-1.000000	51.000000	0.000000	-1.000000	-1.000000	162315.000000	1775803596.939646
-18713.745000	-39080.475000	-3831.075000	18932.355000	5124.105000	-13983.840000	-33549.480000	-16743.510000	-1.530280	-1.793851	-3.126245	-1.332355	1.696893	0.504495	-1.453742	-0.723422	0.961380	2.105880	1.922760	-0.725096	0.077331	0.669310	-1.000000	-1.000000	-1.000000	-1.000000	-1.000000	-1.000000	-1.000000	51.000000	0.000000	-1.000000	-1.000000	162316.000000	1775803596.939675
-18712.530000	-39077.370000	-3829.005000	18923.805000	5109.120000	-13984.785000	-33550.470000	-16744.050000	-2.858879	-2.188462	-2.268041	-1.614312	6.247759	4.519640	-2.094535	-2.586806	0.961380	2.105880	1.922760	-0.725096	0.077331	0.669310	-1.000000	-1.000000	-1.000000	-1.000000	-1.000000	-1.000000	-1.000000	51.000000	0.000000	-1.000000	-1.000000	162317.000000	1775803596.943065
-18702.720000	-39066.525000	-3823.380000	18919.035000	5095.620000	-13982.400000	-33544.080000	-16736.175000	-2.343372	-0.999173	0.006702	-1.772610	8.699700	6.788823	-1.268179	-2.752549	0.961380	2.105880	1.922760	-0.725096	0.077331	0.669310	-1.000000	-1.000000	-1.000000	-1.000000	-1.000000	-1.000000	-1.000000	51.000000	0.000000	-1.000000	-1.000000	162318.000000	1775803596.943092
-18702.090000	-39065.355000	-3823.245000	18938.475000	5100.525000	-13986.945000	-33543.495000	-16735.095000	0.096660	1.604806	2.695919	-1.175188	5.667733	5.716967	0.463127	-0.947587	0.961380	2.105880	1.922760	-0.725096	0.077331	0.669310	-1.000000	-1.000000	-1.000000	-1.000000	-1.000000	-1.000000	-1.000000	51.000000	0.000000	-1.000000	-1.000000	162319.000000	1775803596.948076
-18709.560000	-39073.050000	-3827.205000	18955.935000	5118.345000	-13995.765000	-33549.165000	-16740.720000	2.843186	3.935981	4.251110	1.496016	-0.624376	1.590018	1.930593	1.613516	0.961380	2.105880	1.922760	-0.725096	0.077331	0.669310	-1.000000	-1.000000	-1.000000	-1.000000	-1.000000	-1.000000	-1.000000	51.000000	0.000000	-1.000000	-1.000000	162320.000000	1775803596.948106
-18707.535000	-39072.600000	-3829.680000	18938.385000	5100.210000	-13997.565000	-33545.745000	-16737.525000	3.662398	3.879761	3.544555	5.717118	-5.116948	-3.716548	1.999555	2.972159	-1.358140	0.778260	1.785420	-0.723143	0.077148	0.669981	-1.000000	-1.000000	-1.000000	-1.000000	-1.000000	-1.000000	-1.000000	51.000000	0.000000	-1.000000	-1.000000	162321.000000	1775803597.075234
-18706.140000	-39073.050000	-3827.250000	18941.850000	5106.105000	-13993.110000	-33545.610000	-16735.950000	2.098583	1.256609	0.977265	7.787266	-6.049089	-7.427265	0.755576	2.424001	-1.358140	0.778260	1.785420	-0.723143	0.077148	0.669981	-1.000000	-1.000000	-1.000000	-1.000000	-1.000000	-1.000000	-1.000000	51.000000	0.000000	-1.000000	-1.000000	162322.000000	1775803597.075263
-18702.315000	-39068.955000	-3821.895000	18948.555000	5115.420000	-13989.735000	-33543.765000	-16732.305000	-0.225249	-1.906115	-1.589089	5.291846	-4.547867	-7.296968	-0.652402	0.931593	-1.358140	0.778260	1.785420	-0.723143	0.077148	0.669981	-1.000000	-1.000000	-1.000000	-1.000000	-1.000000	-1.000000	-1.000000	51.000000	0.000000	-1.000000	-1.000000	162323.000000	1775803597.075310
-18704.205000	-39069.270000	-3821.040000	18949.770000	5118.750000	-13989.420000	-33545.700000	-16735.050000	-1.651233	-3.485746	-2.458548	0.226294	-1.528087	-3.442499	-1.371083	-0.382980	-1.358140	0.778260	1.785420	-0.723143	0.077148	0.669981	-1.000000	-1.000000	-1.000000	-1.000000	-1.000000	-1.000000	-1.000000	51.000000	0.000000	-1.000000	-1.000000	162324.000000	1775803597.075324
-18706.365000	-39070.665000	-3823.155000	18945.495000	5116.500000	-13990.770000	-33547.995000	-16738.470000	-1.902243	-2.989363	-1.623384	-4.160761	1.799200	1.605774	-1.424191	-1.289989	-1.358140	0.778260	1.785420	-0.723143	0.077148	0.669981	-1.000000	-1.000000	-1.000000	-1.000000	-1.000000	-1.000000	-1.000000	51.000000	0.000000	-1.000000	-1.000000	162325.000000	1775803597.075343
-18705.240000	-39069.405000	-3822.615000	18944.550000	5114.790000	-13982.625000	-33542.415000	-16734.870000	-1.605096	-1.392311	-0.398690	-6.427815	3.517831	5.099899	-1.128000	-1.961416	-1.358140	0.778260	1.785420	-0.723143	0.077148	0.669981	-1.000000	-1.000000	-1.000000	-1.000000	-1.000000	-1.000000	-1.000000	51.000000	0.000000	-1.000000	-1.000000	162326.000000	1775803597.075355
-18706.770000	-39072.780000	-3825.900000	18939.465000	5106.420000	-13981.590000	-33539.445000	-16733.565000	-1.190124	0.110963	0.123920	-6.614773	2.569434	6.030889	-0.420366	-2.109394	-1.358140	0.778260	1.785420	-0.723143	0.077148	0.669981	-1.000000	-1.000000	-1.000000	-1.000000	-1.000000	-1.000000	-1.000000	51.000000	0.000000	-1.000000	-1.000000	162327.000000	1775803597.075372
-18706.050000	-39072.420000	-3827.205000	18932.535000	5100.030000	-13989.555000	-33541.740000	-16734.375000	-0.698316	0.860145	-0.213235	-5.339047	-0.448672	4.647014	0.654316	-1.407048	-1.358140	0.778260	1.785420	-0.723143	0.077148	0.669981	-1.000000	-1.000000	-1.000000	-1.000000	-1.000000	-1.000000	-1.000000	51.000000	0.000000	-1.000000	-1.000000	162328.000000	1775803597.075383
-18712.395000	-39077.280000	-3831.795000	18924.840000	5093.595000	-13999.005000	-33550.200000	-16742.295000	-0.223569	0.790647	-0.951347	-3.432504	-3.761391	1.296066	1.232567	-0.378270	-1.358140	0.778260	1.785420	-0.723143	0.077148	0.669981	-1.000000	-1.000000	-1.000000	-1.000000	-1.000000	-1.000000	-1.000000	51.000000	0.000000	-1.000000	-1.000000	162329.000000	1775803597.075397
-18717.165000	-39083.355000	-3835.980000	18930.105000	5090.940000	-13999.185000	-33553.080000	-16744.725000	-0.093501	0.135567	-1.545833	-1.307415	-5.409261	-3.012123	0.422989	0.012086	-1.358140	0.778260	1.785420	-0.723143	0.077148	0.669981	-1.000000	-1.000000	-1.000000	-1.000000	-1.000000	-1.000000	-1.000000	51.000000	0.000000	-1.000000	-1.000000	162330.000000	1775803597.075409
-18714.645000	-39084.975000	-3839.670000	18930.555000	5081.850000	-13999.635000	-33549.975000	-16738.920000	-0.341953	-0.748861	-1.662367	1.310234	-4.457291	-6.065446	-1.253567	-0.260174	-4.013380	0.488320	0.991900	-0.724791	0.076782	0.668333	-1.000000	-1.000000	-1.000000	-1.000000	-1.000000	-1.000000	-1.000000	51.000000	0.000000	-1.000000	-1.000000	162331.000000	1775803597.075422
-18711.630000	-39079.980000	-3833.370000	18938.115000	5096.160000	-13995.675000	-33550.875000	-16739.325000	-0.253728	-1.115241	-1.000832	4.439023	-1.260006	-5.907742	-2.143605	-0.142982	-4.013380	0.488320	0.991900	-0.724791	0.076782	0.668333	-1.000000	-1.000000	-1.000000	-1.000000	-1.000000	-1.000000	-1.000000	51.000000	0.000000	-1.000000	-1.000000	162332.000000	1775803597.075433
-18709.560000	-39073.905000	-3825.990000	18943.965000	5109.435000	-13999.770000	-33555.645000	-16740.135000	0.801743	-0.103213	0.807144	7.213159	3.504464	-2.645331	-1.432617	0.850963	-4.013380	0.488320	0.991900	-0.724791	0.076782	0.668333	-1.000000	-1.000000	-1.000000	-1.000000	-1.000000	-1.000000	-1.000000	51.000000	0.000000	-1.000000	-1.000000	162333.000000	1775803597.075447
-18719.055000	-39082.230000	-3834.270000	18929.610000	5089.320000	-14009.805000	-33563.340000	-16749.090000	2.193043	1.989607	3.284005	8.069244	8.165287	1.401755	-0.029983	1.797102	-4.013380	0.488320	0.991900	-0.724791	0.076782	0.668333	-1.000000	-1.000000	-1.000000	-1.000000	-1.000000	-1.000000	-1.000000	51.000000	0.000000	-1.000000	-1.000000	162334.000000	1775803597.075457
-18718.245000	-39085.785000	-3841.515000	18922.275000	5080.410000	-14003.415000	-33557.130000	-16745.040000	2.486151	3.331796	4.503726	5.440693	9.232637	3.723692	0.898315	1.623504	-4.013380	0.488320	0.991900	-0.724791	0.076782	0.668333	-1.000000	-1.000000	-1.000000	-1.000000	-1.000000	-1.000000	-1.000000	51.000000	0.000000	-1.000000	-1.000000	162335.000000	1775803597.075530
-18711.180000	-39080.070000	-3838.680000	18922.815000	5077.485000	-14000.040000	-33551.055000	-16739.100000	1.413756	2.638217	3.058109	-0.193950	4.917256	3.995922	1.519026	0.707016	-4.013380	0.488320	0.991900	-0.724791	0.076782	0.668333	-1.000000	-1.000000	-1.000000	-1.000000	-1.000000	-1.000000	-1.000000	51.000000	0.000000	-1.000000	-1.000000	162336.000000	1775803597.075541
-18711.540000	-39078.855000	-3834.630000	18929.880000	5087.565000	-14001.930000	-33551.415000	-16740.630000	0.262291	0.809043	0.139307	-5.462815	-1.726506	3.431876	2.500590	0.289342	-4.013380	0.488320	0.991900	-0.724791	0.076782	0.668333	-1.000000	-1.000000	-1.000000	-1.000000	-1.000000	-1.000000	-1.000000	51.000000	0.000000	-1.000000	-1.000000	162337.000000	1775803597.075552
-18713.880000	-39079.620000	-3833.730000	18936.135000	5107.320000	-13998.330000	-33552.405000	-16742.790000	-0.150390	-0.592540	-1.847466	-6.855008	-5.400086	2.650491	3.351719	0.536613	-4.013380	0.488320	0.991900	-0.724791	0.076782	0.668333	-1.000000	-1.000000	-1.000000	-1.000000	-1.000000	-1.000000	-1.000000	51.000000	0.000000	-1.000000	-1.000000	162338.000000	1775803597.075563
-18716.355000	-39081.105000	-3834.090000	18937.080000	5118.345000	-14000.355000	-33555.735000	-16745.715000	-0.342422	-1.167618	-1.939055	-3.912851	-3.404648	1.562849	2.888851	0.509600	-4.013380	0.488320	0.991900	-0.724791	0.076782	0.668333	-1.000000	-1.000000	-1.000000	-1.000000	-1.000000	-1.000000	-1.000000	51.000000	0.000000	-1.000000	-1.000000	162339.000000	1775803597.075574
-18718.470000	-39083.715000	-3837.195000	18930.960000	5103.675000	-14000.895000	-33555.825000	-16745.940000	-0.932292	-1.391795	-1.014203	0.547164	1.705555	0.107950	0.822366	-0.301345	-4.013380	0.488320	0.991900	-0.724791	0.076782	0.668333	-1.000000	-1.000000	-1.000000	-1.000000	-1.000000	-1.000000	-1.000000	51.000000	0.000000	-1.000000	-1.000000	162340.000000	1775803597.075585
-18721.170000	-39087.540000	-3842.280000	18923.760000	5085.360000	-14005.755000	-33558.930000	-16747.830000	-1.781805	-1.679250	-0.440533	2.969364	4.058520	-1.580339	-1.853917	-1.407521	-3.357200	0.198380	-0.091560	-0.726683	0.075683	0.666685	-1.000000	-1.000000	-1.000000	-1.000000	-1.000000	-1.000000	-1.000000	51.000000	0.000000	-1.000000	-1.000000	162341.000000	1775803597.075596
-18713.025000	-39080.385000	-3835.980000	18930.555000	5086.710000	-14001.030000	-33552.315000	-16739.910000	-2.132601	-1.849546	-0.671888	2.126718	0.495424	-3.009398	-3.637659	-1.861624	-3.357200	0.198380	-0.091560	-0.726683	0.075683	0.666685	-1.000000	-1.000000	-1.000000	-1.000000	-1.000000	-1.000000	-1.000000	51.000000	0.000000	-1.000000	-1.000000	162342.000000	1775803597.075606
-18709.830000	-39077.010000	-3833.595000	18930.600000	5087.925000	-14003.055000	-33551.010000	-16738.200000	-1.175528	-1.183653	-0.873197	-0.150399	-5.842643	-3.406871	-3.466703	-1.004537	-3.357200	0.198380	-0.091560	-0.726683	0.075683	0.666685	-1.000000	-1.000000	-1.000000	-1.000000	-1.000000	-1.000000	-1.000000	51.000000	0.000000	-1.000000	-1.000000	162343.000000	1775803597.075640
-18713.385000	-39080.925000	-3838.230000	18927.135000	5094.900000	-14004.315000	-33553.665000	-16741.035000	0.834011	0.421561	-0.310997	-1.548122	-9.127624	-2.522586	-1.602892	0.709329	-3.357200	0.198380	-0.091560	-0.726683	0.075683	0.666685	-1.000000	-1.000000	-1.000000	-1.000000	-1.000000	-1.000000	-1.000000	51.000000	0.000000	-1.000000	-1.000000	162344.000000	1775803597.075650
-18714.240000	-39080.430000	-3836.070000	18932.130000	5099.175000	-14006.655000	-33560.055000	-16743.420000	2.343376	1.814967	0.518084	-1.463188	-6.574785	-1.029203	0.331305	1.804915	-3.357200	0.198380	-0.091560	-0.726683	0.075683	0.666685	-1.000000	-1.000000	-1.000000	-1.000000	-1.000000	-1.000000	-1.000000	51.000000	0.000000	-1.000000	-1.000000	162345.000000	1775803597.075662
-18719.235000	-39086.280000	-3842.685000	18924.480000	5093.370000	-14006.745000	-33559.740000	-16744.950000	2.076653	1.836909	0.763379	-0.537847	-0.207571	0.235764	0.895603	1.305565	-3.357200	0.198380	-0.091560	-0.726683	0.075683	0.666685	-1.000000	-1.000000	-1.000000	-1.000000	-1.000000	-1.000000	-1.000000	51.000000	0.000000	-1.000000	-1.000000	162346.000000	1775803597.075672
-18713.565000	-39081.780000	-3840.030000	18927.135000	5092.335000	-13999.185000	-33553.755000	-16739.595000	0.357511	0.559781	0.234392	0.298702	5.451750	1.106074	0.357967	-0.200751	-3.357200	0.198380	-0.091560	-0.726683	0.075683	0.666685	-1.000000	-1.000000	-1.000000	-1.000000	-1.000000	-1.000000	-1.000000	51.000000	0.000000	-1.000000	-1.000000	162347.000000	1775803597.075683
-18713.925000	-39079.890000	-3837.330000	18926.505000	5092.020000	-13997.925000	-33554.790000	-16742.745000	-1.278420	-0.806684	-0.444571	0.580318	7.263631	1.947664	0.077915	-1.321013	-3.357200	0.198380	-0.091560	-0.726683	0.075683	0.666685	-1.000000	-1.000000	-1.000000	-1.000000	-1.000000	-1.000000	-1.000000	51.000000	0.000000	-1.000000	-1.000000	162348.000000	1775803597.075692
-18721.080000	-39084.120000	-3841.065000	18926.010000	5098.860000	-14004.990000	-33562.710000	-16750.305000	-1.795709	-1.204394	-0.513813	0.542252	5.489030	2.554600	0.447682	-1.545254	-3.357200	0.198380	-0.091560	-0.726683	0.075683	0.666685	-1.000000	-1.000000	-1.000000	-1.000000	-1.000000	-1.000000	-1.000000	51.000000	0.000000	-1.000000	-1.000000	162349.000000	1775803597.075703
-18724.230000	-39085.740000	-3841.740000	18925.785000	5097.420000	-14009.265000	-33568.290000	-16756.515000	-1.611521	-0.835298	-0.071367	0.467764	2.424410	1.934361	0.477080	-1.571850	-3.357200	0.198380	-0.091560	-0.726683	0.075683	0.666685	-1.000000	-1.000000	-1.000000	-1.000000	-1.000000	-1.000000	-1.000000	51.000000	0.000000	-1.000000	-1.000000	162350.000000	1775803597.075713
-18728.010000	-39089.565000	-3845.520000	18921.735000	5090.040000	-14009.445000	-33568.155000	-16758.720000	-1.446192	-0.507926	0.217112	0.334511	-0.267029	-0.129198	-0.395042	-1.858687	0.045780	1.083460	-0.732480	-0.726072	0.073608	0.666868	-1.000000	-1.000000	-1.000000	-1.000000	-1.000000	-1.000000	-1.000000	51.000000	0.000000	-1.000000	-1.000000	162351.000000	1775803597.075725
-18727.920000	-39091.995000	-3847.860000	18918.630000	5085.495000	-14010.840000	-33566.715000	-16756.515000	-1.234135	-0.554110	0.016172	-0.038580	-2.428672	-2.322347	-1.270446	-1.778256	0.045780	1.083460	-0.732480	-0.726072	0.073608	0.666868	-1.000000	-1.000000	-1.000000	-1.000000	-1.000000	-1.000000	-1.000000	51.000000	0.000000	-1.000000	-1.000000	162352.000000	1775803597.075736
-18722.610000	-39087.900000	-3845.520000	18920.880000	5085.540000	-14010.390000	-33560.730000	-16749.540000	-0.399960	-0.619637	-0.395652	-0.571852	-4.030665	-3.127073	-0.882779	-0.385296	0.045780	1.083460	-0.732480	-0.726072	0.073608	0.666868	-1.000000	-1.000000	-1.000000	-1.000000	-1.000000	-1.000000	-1.000000	51.000000	0.000000	-1.000000	-1.000000	162353.000000	1775803597.075748
-18728.820000	-39094.920000	-3853.170000	18914.535000	5079.060000	-14019.120000	-33565.185000	-16755.615000	1.202082	-0.210789	-0.529321	-0.842032	-4.452769	-2.293276	0.855596	2.188461	0.045780	1.083460	-0.732480	-0.726072	0.073608	0.666868	-1.000000	-1.000000	-1.000000	-1.000000	-1.000000	-1.000000	-1.000000	51.000000	0.000000	-1.000000	-1.000000	162354.000000	1775803597.075758
-18726.615000	-39092.625000	-3852.810000	18913.230000	5082.435000	-14014.170000	-33562.440000	-16753.590000	2.704337	0.539213	-0.355444	-0.717886	-3.319733	-0.715362	2.624691	4.334950	0.045780	1.083460	-0.732480	-0.726072	0.073608	0.666868	-1.000000	-1.000000	-1.000000	-1.000000	-1.000000	-1.000000	-1.000000	51.000000	0.000000	-1.000000	-1.000000	162355.000000	1775803597.075770
-18731.070000	-39097.665000	-3859.830000	18904.455000	5077.530000	-14018.400000	-33567.165000	-16758.630000	3.060322	1.091928	-0.174274	-0.524781	-0.988555	0.803433	3.021560	4.474754	0.045780	1.083460	-0.732480	-0.726072	0.073608	0.666868	-1.000000	-1.000000	-1.000000	-1.000000	-1.000000	-1.000000	-1.000000	51.000000	0.000000	-1.000000	-1.000000	162356.000000	1775803597.075780
-18727.605000	-39093.390000	-3852.090000	18917.280000	5082.885000	-14012.955000	-33563.880000	-16755.390000	2.138983	1.227457	0.032098	-0.276496	1.672925	1.993496	1.798860	2.563481	0.045780	1.083460	-0.732480	-0.726072	0.073608	0.666868	-1.000000	-1.000000	-1.000000	-1.000000	-1.000000	-1.000000	-1.000000	51.000000	0.000000	-1.000000	-1.000000	162357.000000	1775803597.075790
-18724.005000	-39087.225000	-3842.190000	18923.805000	5080.635000	-14010.660000	-33563.295000	-16752.645000	0.761455	1.282293	0.858589	0.784367	3.735272	2.803208	-0.111816	-0.017820	0.045780	1.083460	-0.732480	-0.726072	0.073608	0.666868	-1.000000	-1.000000	-1.000000	-1.000000	-1.000000	-1.000000	-1.000000	51.000000	0.000000	-1.000000	-1.000000	162358.000000	1775803597.075801
-18721.890000	-39084.570000	-3838.995000	18929.160000	5085.675000	-14011.830000	-33564.105000	-16752.330000	-0.090363	1.701508	2.652786	2.959237	4.593404	3.101698	-1.535791	-1.719213	0.045780	1.083460	-0.732480	-0.726072	0.073608	0.666868	-1.000000	-1.000000	-1.000000	-1.000000	-1.000000	-1.000000	-1.000000	51.000000	0.000000	-1.000000	-1.000000	162359.000000	1775803597.075814
-18724.905000	-39088.350000	-3844.395000	18922.725000	5081.085000	-14015.565000	-33566.220000	-16755.120000	-0.284704	2.109471	4.224713	4.757964	4.036099	2.445264	-2.057360	-2.129554	0.045780	1.083460	-0.732480	-0.726072	0.073608	0.666868	-1.000000	-1.000000	-1.000000	-1.000000	-1.000000	-1.000000	-1.000000	51.000000	0.000000	-1.000000	-1.000000	162360.000000	1775803597.075824
-18719.415000	-39082.275000	-3839.040000	18926.280000	5084.640000	-14008.050000	-33558.750000	-16748.955000	-0.405138	1.612516	3.743424	4.169907	2.251113	0.758764	-1.818494	-1.789695	4.257540	2.685760	-0.244160	-0.725035	0.073730	0.668455	-1.000000	-1.000000	-1.000000	-1.000000	-1.000000	-1.000000	-1.000000	51.000000	0.000000	-1.000000	-1.000000	162361.000000	1775803597.075836
-18717.210000	-39079.170000	-3836.295000	18927.090000	5084.055000	-14009.895000	-33559.065000	-16748.730000	-0.658737	0.222572	1.115350	1.081747	-0.066478	-1.045125	-0.893018	-1.099125	4.257540	2.685760	-0.244160	-0.725035	0.073730	0.668455	-1.000000	-1.000000	-1.000000	-1.000000	-1.000000	-1.000000	-1.000000	51.000000	0.000000	-1.000000	-1.000000	162362.000000	1775803597.075846
-18717.030000	-39079.755000	-3836.610000	18928.575000	5086.080000	-14010.255000	-33561.540000	-16748.370000	-0.814943	-1.209309	-1.993714	-2.602810	-1.956969	-2.085444	0.300315	-0.291063	4.257540	2.685760	-0.244160	-0.725035	0.073730	0.668455	-1.000000	-1.000000	-1.000000	-1.000000	-1.000000	-1.000000	-1.000000	51.000000	0.000000	-1.000000	-1.000000	162363.000000	1775803597.075859
-18720.630000	-39085.695000	-3844.845000	18918.990000	5082.570000	-14011.245000	-33560.955000	-16749.540000	-0.962241	-2.301477	-4.251694	-5.092248	-2.879556	-2.364417	0.887421	0.183893	4.257540	2.685760	-0.244160	-0.725035	0.073730	0.668455	-1.000000	-1.000000	-1.000000	-1.000000	-1.000000	-1.000000	-1.000000	51.000000	0.000000	-1.000000	-1.000000	162364.000000	1775803597.075869
-18720.180000	-39084.030000	-3844.170000	18918.585000	5072.130000	-14017.005000	-33561.000000	-16749.810000	-1.381724	-3.179735	-5.393994	-5.948215	-3.137101	-2.299409	0.537065	0.030911	4.257540	2.685760	-0.244160	-0.725035	0.073730	0.668455	-1.000000	-1.000000	-1.000000	-1.000000	-1.000000	-1.000000	-1.000000	51.000000	0.000000	-1.000000	-1.000000	162365.000000	1775803597.075880
-18717.705000	-39078.225000	-3837.420000	18923.715000	5061.870000	-14019.255000	-33562.395000	-16750.170000	-1.825078	-3.438635	-5.125538	-5.179475	-3.499474	-2.210284	-0.263103	-0.532730	4.257540	2.685760	-0.244160	-0.725035	0.073730	0.668455	-1.000000	-1.000000	-1.000000	-1.000000	-1.000000	-1.000000	-1.000000	51.000000	0.000000	-1.000000	-1.000000	162366.000000	1775803597.075891
-18716.220000	-39077.955000	-3836.745000	18909.810000	5055.750000	-14012.550000	-33559.245000	-16746.570000	-1.626917	-2.347759	-2.965121	-2.915191	-4.107674	-1.873400	-0.849692	-0.933218	4.257540	2.685760	-0.244160	-0.725035	0.073730	0.668455	-1.000000	-1.000000	-1.000000	-1.000000	-1.000000	-1.000000	-1.000000	51.000000	0.000000	-1.000000	-1.000000	162367.000000	1775803597.075903
-18720.045000	-39083.805000	-3843.630000	18899.910000	5069.160000	-14004.720000	-33555.915000	-16745.760000	-0.661688	-0.282300	0.327130	-0.432690	-3.710268	-0.499523	-0.734998	-0.676560	4.257540	2.685760	-0.244160	-0.725035	0.073730	0.668455	-1.000000	-1.000000	-1.000000	-1.000000	-1.000000	-1.000000	-1.000000	51.000000	0.000000	-1.000000	-1.000000	162368.000000	1775803597.075914
-18721.170000	-39084.705000	-3845.205000	18917.055000	5093.730000	-14009.490000	-33559.245000	-16748.730000	0.356286	1.289638	2.748542	1.164251	-0.351781	1.923434	0.045498	0.094895	4.257540	2.685760	-0.244160	-0.725035	0.073730	0.668455	-1.000000	-1.000000	-1.000000	-1.000000	-1.000000	-1.000000	-1.000000	51.000000	0.000000	-1.000000	-1.000000	162369.000000	1775803597.075927
-18726.975000	-39090.420000	-3849.885000	18929.520000	5115.465000	-14011.920000	-33561.855000	-16753.680000	0.684396	1.445583	3.059706	2.968280	6.358265	3.766717	0.706603	0.573283	4.257540	2.685760	-0.244160	-0.725035	0.073730	0.668455	-1.000000	-1.000000	-1.000000	-1.000000	-1.000000	-1.000000	-1.000000	51.000000	0.000000	-1.000000	-1.000000	162370.000000	1775803597.075938
-18727.380000	-39092.940000	-3849.885000	18933.660000	5105.025000	-14010.345000	-33559.380000	-16751.520000	0.258973	0.508551	1.775986	6.009855	13.018405	3.460367	0.578456	0.236914	2.105880	2.762060	-0.228900	-0.724424	0.075561	0.670775	-1.000000	-1.000000	-1.000000	-1.000000	-1.000000	-1.000000	-1.000000	51.000000	0.000000	-1.000000	-1.000000	162371.000000	1775803597.075951
-18720.270000	-39085.515000	-3841.740000	18937.215000	5088.285000	-14011.245000	-33555.915000	-16745.895000	-0.158448	-0.376048	0.472746	8.572574	13.680021	1.338605	0.038487	-0.302699	2.105880	2.762060	-0.228900	-0.724424	0.075561	0.670775	-1.000000	-1.000000	-1.000000	-1.000000	-1.000000	-1.000000	-1.000000	51.000000	0.000000	-1.000000	-1.000000	162372.000000	1775803597.075961
-18722.340000	-39083.715000	-3839.895000	18924.570000	5087.205000	-14007.870000	-33559.560000	-16750.170000	0.345356	-0.001871	0.516118	7.770578	5.584906	-0.984991	-0.175770	-0.126350	2.105880	2.762060	-0.228900	-0.724424	0.075561	0.670775	-1.000000	-1.000000	-1.000000	-1.000000	-1.000000	-1.000000	-1.000000	51.000000	0.000000	-1.000000	-1.000000	162373.000000	1775803597.075973
-18730.485000	-39090.555000	-3846.105000	18915.660000	5082.660000	-14012.415000	-33566.715000	-16758.315000	1.425225	1.508062	1.638812	2.456237	-6.940816	-2.258575	-0.200090	0.443482	2.105880	2.762060	-0.228900	-0.724424	0.075561	0.670775	-1.000000	-1.000000	-1.000000	-1.000000	-1.000000	-1.000000	-1.000000	51.000000	0.000000	-1.000000	-1.000000	162374.000000	1775803597.075982
-18727.020000	-39087.945000	-3843.090000	18926.640000	5090.130000	-14008.050000	-33562.935000	-16755.030000	1.766255	2.593741	2.211215	-5.082648	-16.042249	-2.280758	-0.574851	0.390059	2.105880	2.762060	-0.228900	-0.724424	0.075561	0.670775	-1.000000	-1.000000	-1.000000	-1.000000	-1.000000	-1.000000	-1.000000	51.000000	0.000000	-1.000000	-1.000000	162375.000000	1775803597.075993
-18727.110000	-39088.530000	-3845.565000	18922.905000	5087.385000	-14009.940000	-33565.275000	-16757.325000	1.066971	2.254772	1.344361	-10.179925	-16.774195	-1.456715	-1.014029	-0.231327	2.105880	2.762060	-0.228900	-0.724424	0.075561	0.670775	-1.000000	-1.000000	-1.000000	-1.000000	-1.000000	-1.000000	-1.000000	51.000000	0.000000	-1.000000	-1.000000	162376.000000	1775803597.076004
-18722.250000	-39086.415000	-3846.105000	18917.955000	5068.755000	-14012.460000	-33560.775000	-16751.070000	0.277276	0.974776	-0.392108	-10.085932	-10.314330	-0.392833	-0.773944	-0.447538	2.105880	2.762060	-0.228900	-0.724424	0.075561	0.670775	-1.000000	-1.000000	-1.000000	-1.000000	-1.000000	-1.000000	-1.000000	51.000000	0.000000	-1.000000	-1.000000	162377.000000	1775803597.076016
-18721.530000	-39084.480000	-3844.980000	18916.650000	5057.055000	-14022.900000	-33564.780000	-16752.465000	0.161298	-0.255851	-1.935363	-6.072908	-2.163077	0.096713	0.236603	0.267063	2.105880	2.762060	-0.228900	-0.724424	0.075561	0.670775	-1.000000	-1.000000	-1.000000	-1.000000	-1.000000	-1.000000	-1.000000	51.000000	0.000000	-1.000000	-1.000000	162378.000000	1775803597.076027
-18717.480000	-39078.270000	-3837.285000	18923.535000	5064.660000	-14017.770000	-33559.515000	-16749.720000	0.604031	-0.755599	-2.346780	-0.860429	3.402458	-0.332292	1.380292	1.436455	2.105880	2.762060	-0.228900	-0.724424	0.075561	0.670775	-1.000000	-1.000000	-1.000000	-1.000000	-1.000000	-1.000000	-1.000000	51.000000	0.000000	-1.000000	-1.000000	162379.000000	1775803597.076041
-18725.130000	-39085.470000	-3840.840000	18927.045000	5090.445000	-14016.105000	-33563.430000	-16755.570000	0.840110	-0.570461	-1.341647	3.785549	6.823587	-0.778315	1.976410	2.019274	2.105880	2.762060	-0.228900	-0.724424	0.075561	0.670775	-1.000000	-1.000000	-1.000000	-1.000000	-1.000000	-1.000000	-1.000000	51.000000	0.000000	-1.000000	-1.000000	162380.000000	1775803597.076052
-18722.205000	-39083.400000	-3838.545000	18932.625000	5106.735000	-14008.860000	-33557.355000	-16750.350000	0.142873	-0.489508	0.216578	6.903822	10.602834	-0.000167	1.786380	1.399713	-2.136400	2.014320	0.747740	-0.724546	0.077392	0.670531	-1.000000	-1.000000	-1.000000	-1.000000	-1.000000	-1.000000	-1.000000	51.000000	0.000000	-1.000000	-1.000000	162381.000000	1775803597.076064
-18722.295000	-39083.130000	-3838.545000	18933.030000	5102.685000	-14005.980000	-33555.960000	-16750.170000	-1.243223	-0.970515	1.127610	7.761187	14.243763	2.022591	1.111286	0.066104	-2.136400	2.014320	0.747740	-0.724546	0.077392	0.670531	-1.000000	-1.000000	-1.000000	-1.000000	-1.000000	-1.000000	-1.000000	51.000000	0.000000	-1.000000	-1.000000	162382.000000	1775803597.076076
-18720.000000	-39079.935000	-3834.990000	18937.755000	5102.685000	-14008.590000	-33561.900000	-16752.330000	-2.220103	-1.472849	1.052091	6.127791	13.889395	3.880743	0.286155	-1.048605	-2.136400	2.014320	0.747740	-0.724546	0.077392	0.670531	-1.000000	-1.000000	-1.000000	-1.000000	-1.000000	-1.000000	-1.000000	51.000000	0.000000	-1.000000	-1.000000	162383.000000	1775803597.076088
-18716.175000	-39074.175000	-3830.490000	18937.080000	5103.540000	-14011.785000	-33569.370000	-16753.140000	-1.992917	-1.219114	0.525390	2.687227	7.330704	3.851438	-0.930555	-1.621332	-2.136400	2.014320	0.747740	-0.724546	0.077392	0.670531	-1.000000	-1.000000	-1.000000	-1.000000	-1.000000	-1.000000	-1.000000	51.000000	0.000000	-1.000000	-1.000000	162384.000000	1775803597.076099
-18715.860000	-39069.990000	-3831.120000	18928.710000	5093.010000	-14008.545000	-33562.395000	-16750.890000	-0.689953	-0.017242	0.140998	-1.415924	-3.057917	1.550895	-2.488017	-1.720147	-2.136400	2.014320	0.747740	-0.724546	0.077392	0.670531	-1.000000	-1.000000	-1.000000	-1.000000	-1.000000	-1.000000	-1.000000	51.000000	0.000000	-1.000000	-1.000000	162385.000000	1775803597.077303
-18711.675000	-39060.360000	-3837.105000	18918.585000	5090.625000	-13997.790000	-33544.530000	-16741.170000	0.860698	1.628812	-0.216483	-5.315328	-12.606155	-1.351814	-2.875082	-1.122363	-2.136400	2.014320	0.747740	-0.724546	0.077392	0.670531	-1.000000	-1.000000	-1.000000	-1.000000	-1.000000	-1.000000	-1.000000	51.000000	0.000000	-1.000000	-1.000000	162386.000000	1775803597.077324
-18718.695000	-39079.755000	-3844.080000	18922.590000	5085.855000	-14007.735000	-33551.595000	-16745.130000	1.676491	2.499862	-1.160603	-8.001470	-17.379053	-2.877489	-0.803000	0.269254	-2.136400	2.014320	0.747740	-0.724546	0.077392	0.670531	-1.000000	-1.000000	-1.000000	-1.000000	-1.000000	-1.000000	-1.000000	51.000000	0.000000	-1.000000	-1.000000	162387.000000	1775803597.080686
-18722.790000	-39085.110000	-3843.990000	18923.580000	5083.380000	-14015.295000	-33560.595000	-16751.160000	1.065548	1.028366	-2.637796	-7.918863	-15.788306	-3.099515	2.042954	1.464535	-2.136400	2.014320	0.747740	-0.724546	0.077392	0.670531	-1.000000	-1.000000	-1.000000	-1.000000	-1.000000	-1.000000	-1.000000	51.000000	0.000000	-1.000000	-1.000000	162388.000000	1775803597.080708
-18722.655000	-39086.415000	-3846.690000	18917.280000	5081.940000	-14016.870000	-33561.270000	-16749.765000	-0.745354	-2.625712	-3.519338	-4.561635	-9.084023	-3.289843	2.606597	1.179956	-2.136400	2.014320	0.747740	-0.724546	0.077392	0.670531	-1.000000	-1.000000	-1.000000	-1.000000	-1.000000	-1.000000	-1.000000	51.000000	0.000000	-1.000000	-1.000000	162389.000000	1775803597.089876
-18720.045000	-39083.535000	-3844.170000	18918.945000	5082.255000	-14014.305000	-33560.865000	-16749.495000	-2.336110	-5.643373	-2.719850	0.338083	-0.349284	-3.411341	0.469869	-0.329291	-2.136400	2.014320	0.747740	-0.724546	0.077392	0.670531	-1.000000	-1.000000	-1.000000	-1.000000	-1.000000	-1.000000	-1.000000	51.000000	0.000000	-1.000000	-1.000000	162390.000000	1775803597.089903
-18724.995000	-39086.325000	-3845.205000	18918.990000	5077.980000	-14014.215000	-33565.950000	-16755.435000	-2.397445	-5.373420	-0.301212	4.423642	7.087865	-2.359658	-2.170934	-1.711376	-4.379620	1.953280	0.350980	-0.723448	0.077942	0.668883	-1.000000	-1.000000	-1.000000	-1.000000	-1.000000	-1.000000	-1.000000	51.000000	0.000000	-1.000000	-1.000000	162391.000000	1775803597.089933
-18724.590000	-39084.345000	-3843.810000	18920.385000	5081.220000	-14011.605000	-33565.500000	-16754.355000	-1.070771	-1.924815	2.577612	6.454347	10.959130	0.120570	-3.372801	-2.175785	-4.379620	1.953280	0.350980	-0.723448	0.077942	0.668883	-1.000000	-1.000000	-1.000000	-1.000000	-1.000000	-1.000000	-1.000000	51.000000	0.000000	-1.000000	-1.000000	162392.000000	1775803597.089945
-18717.705000	-39078.405000	-3839.175000	18928.440000	5095.305000	-14005.395000	-33558.255000	-16747.110000	0.746005	2.617942	4.592135	6.445366	11.135757	3.078253	-2.498444	-1.493488	-4.379620	1.953280	0.350980	-0.723448	0.077942	0.668883	-1.000000	-1.000000	-1.000000	-1.000000	-1.000000	-1.000000	-1.000000	51.000000	0.000000	-1.000000	-1.000000	162393.000000	1775803597.104750
-18720.810000	-39080.565000	-3841.470000	18926.235000	5089.230000	-14010.795000	-33559.920000	-16750.845000	2.422022	6.088756	5.040746	5.082327	9.035663	5.134822	0.067544	0.269394	-4.379620	1.953280	0.350980	-0.723448	0.077942	0.668883	-1.000000	-1.000000	-1.000000	-1.000000	-1.000000	-1.000000	-1.000000	51.000000	0.000000	-1.000000	-1.000000	162394.000000	1775803597.104779
-18716.040000	-39075.705000	-3836.970000	18925.830000	5085.495000	-14010.300000	-33556.005000	-16746.705000	3.369060	7.095460	3.876397	2.833033	5.453963	5.088370	2.929675	2.225227	-4.379620	1.953280	0.350980	-0.723448	0.077942	0.668883	-1.000000	-1.000000	-1.000000	-1.000000	-1.000000	-1.000000	-1.000000	51.000000	0.000000	-1.000000	-1.000000	162395.000000	1775803597.104838
-18716.805000	-39075.165000	-3841.830000	18916.605000	5073.570000	-14012.820000	-33556.815000	-16747.875000	3.133018	5.483846	1.570774	-0.220344	0.369582	2.778715	4.454492	3.193450	-4.379620	1.953280	0.350980	-0.723448	0.077942	0.668883	-1.000000	-1.000000	-1.000000	-1.000000	-1.000000	-1.000000	-1.000000	51.000000	0.000000	-1.000000	-1.000000	162396.000000	1775803597.104852
-18717.210000	-39073.545000	-3844.215000	18913.275000	5074.245000	-14010.210000	-33554.655000	-16748.190000	1.796585	2.282407	-1.161908	-3.669848	-5.248504	-0.498217	3.947729	2.701197	-4.379620	1.953280	0.350980	-0.723448	0.077942	0.668883	-1.000000	-1.000000	-1.000000	-1.000000	-1.000000	-1.000000	-1.000000	51.000000	0.000000	-1.000000	-1.000000	162397.000000	1775803597.104868
-18720.360000	-39080.835000	-3845.430000	18920.655000	5086.035000	-14011.155000	-33558.030000	-16750.170000	-0.207134	-1.259704	-3.551999	-6.151135	-8.785240	-2.964145	1.826442	1.041957	-4.379620	1.953280	0.350980	-0.723448	0.077942	0.668883	-1.000000	-1.000000	-1.000000	-1.000000	-1.000000	-1.000000	-1.000000	51.000000	0.000000	-1.000000	-1.000000	162398.000000	1775803597.104880
-18711.855000	-39070.395000	-3837.780000	18927.585000	5091.165000	-14002.380000	-33549.165000	-16741.080000	-2.071027	-4.077713	-4.584070	-5.834143	-7.789649	-3.502863	-0.747260	-0.828445	-4.379620	1.953280	0.350980	-0.723448	0.077942	0.668883	-1.000000	-1.000000	-1.000000	-1.000000	-1.000000	-1.000000	-1.000000	51.000000	0.000000	-1.000000	-1.000000	162399.000000	1775803597.107553
-18714.825000	-39074.670000	-3837.420000	18930.780000	5094.855000	-14001.795000	-33552.180000	-16744.860000	-2.791520	-5.134588	-3.496343	-2.354455	-2.732742	-2.085006	-2.438169	-1.769528	-4.379620	1.953280	0.350980	-0.723448	0.077942	0.668883	-1.000000	-1.000000	-1.000000	-1.000000	-1.000000	-1.000000	-1.000000	51.000000	0.000000	-1.000000	-1.000000	162400.000000	1775803597.107582
-18714.375000	-39073.410000	-3835.125000	18931.905000	5095.620000	-14002.875000	-33555.600000	-16746.885000	-2.196569	-4.206742	-0.829438	2.227364	2.976247	0.134353	-2.837218	-1.648929	-3.357200	1.037680	-0.183120	-0.723875	0.073913	0.668638	-1.000000	-1.000000	-1.000000	-1.000000	-1.000000	-1.000000	-1.000000	51.000000	0.000000	-1.000000	-1.000000	162401.000000	1775803597.120524
-18712.980000	-39072.465000	-3834.720000	18932.175000	5099.310000	-14000.445000	-33553.485000	-16744.950000	-1.074347	-2.220235	1.771080	5.066481	5.966912	1.534227	-2.560604	-1.258533	-3.357200	1.037680	-0.183120	-0.723875	0.073913	0.668638	-1.000000	-1.000000	-1.000000	-1.000000	-1.000000	-1.000000	-1.000000	51.000000	0.000000	-1.000000	-1.000000	162402.000000	1775803597.120553
-18712.035000	-39073.455000	-3837.915000	18928.485000	5096.340000	-14001.705000	-33550.290000	-16741.530000	-0.101632	-0.238007	2.861056	4.689802	5.167046	1.406669	-1.946001	-0.917870	-3.357200	1.037680	-0.183120	-0.723875	0.073913	0.668638	-1.000000	-1.000000	-1.000000	-1.000000	-1.000000	-1.000000	-1.000000	51.000000	0.000000	-1.000000	-1.000000	162403.000000	1775803597.120585
-18715.995000	-39076.830000	-3840.885000	18924.345000	5086.350000	-14010.930000	-33555.600000	-16745.715000	0.437533	1.031595	1.999616	1.598726	1.502983	0.046636	-0.936383	-0.432720	-3.357200	1.037680	-0.183120	-0.723875	0.073913	0.668638	-1.000000	-1.000000	-1.000000	-1.000000	-1.000000	-1.000000	-1.000000	51.000000	0.000000	-1.000000	-1.000000	162404.000000	1775803597.120599
-18718.335000	-39079.575000	-3844.620000	18919.035000	5084.505000	-14012.955000	-33557.265000	-16747.515000	0.339933	1.239973	-0.165890	-2.421513	-3.199028	-1.938654	0.039576	-0.013622	-3.357200	1.037680	-0.183120	-0.723875	0.073913	0.668638	-1.000000	-1.000000	-1.000000	-1.000000	-1.000000	-1.000000	-1.000000	51.000000	0.000000	-1.000000	-1.000000	162405.000000	1775803597.120692
-18721.890000	-39082.140000	-3848.670000	18914.985000	5083.560000	-14015.970000	-33562.575000	-16753.635000	-0.325774	0.609282	-2.349074	-5.374102	-6.617666	-3.542225	0.377712	-0.116383	-3.357200	1.037680	-0.183120	-0.723875	0.073913	0.668638	-1.000000	-1.000000	-1.000000	-1.000000	-1.000000	-1.000000	-1.000000	51.000000	0.000000	-1.000000	-1.000000	162406.000000	1775803597.120711
-18723.240000	-39081.735000	-3844.395000	18924.345000	5082.795000	-14013.630000	-33564.240000	-16755.705000	-1.048968	-0.140531	-3.293405	-5.755466	-6.875190	-3.569849	0.071144	-0.738969	-3.357200	1.037680	-0.183120	-0.723875	0.073913	0.668638	-1.000000	-1.000000	-1.000000	-1.000000	-1.000000	-1.000000	-1.000000	51.000000	0.000000	-1.000000	-1.000000	162407.000000	1775803597.124666
-18722.565000	-39076.785000	-3841.695000	18919.035000	5077.080000	-14011.965000	-33563.655000	-16755.930000	-1.171042	-0.189654	-2.253263	-3.154752	-4.003572	-1.576772	-0.265978	-1.258352	-3.357200	1.037680	-0.183120	-0.723875	0.073913	0.668638	-1.000000	-1.000000	-1.000000	-1.000000	-1.000000	-1.000000	-1.000000	51.000000	0.000000	-1.000000	-1.000000	162408.000000	1775803597.124692
-18723.195000	-39080.295000	-3843.360000	18919.350000	5070.285000	-14016.510000	-33566.715000	-16755.210000	-0.370145	0.725063	0.362532	0.981628	0.028109	1.530652	-0.005093	-0.908315	-3.357200	1.037680	-0.183120	-0.723875	0.073913	0.668638	-1.000000	-1.000000	-1.000000	-1.000000	-1.000000	-1.000000	-1.000000	51.000000	0.000000	-1.000000	-1.000000	162409.000000	1775803597.125988
-18718.200000	-39075.930000	-3839.895000	18920.925000	5060.520000	-14020.155000	-33567.840000	-16750.665000	1.100507	1.930633	2.989066	4.266662	2.890809	3.890014	0.810310	0.531832	-3.357200	1.037680	-0.183120	-0.723875	0.073913	0.668638	-1.000000	-1.000000	-1.000000	-1.000000	-1.000000	-1.000000	-1.000000	51.000000	0.000000	-1.000000	-1.000000	162410.000000	1775803597.126010
-18718.830000	-39076.605000	-3841.740000	18918.720000	5058.000000	-14026.815000	-33569.730000	-16751.520000	2.600283	2.525354	4.166795	5.340374	3.567103	4.075742	1.590188	2.467065	-0.412020	0.335720	-0.213640	-0.726622	0.072204	0.667418	-1.000000	-1.000000	-1.000000	-1.000000	-1.000000	-1.000000	-1.000000	51.000000	0.000000	-1.000000	-1.000000	162411.000000	1775803597.131871
-18724.230000	-39084.570000	-3854.340000	18906.480000	5072.355000	-14025.195000	-33565.815000	-16751.250000	3.232320	1.984743	3.230068	4.032295	3.115780	2.271498	1.949649	3.748740	-0.412020	0.335720	-0.213640	-0.726622	0.072204	0.667418	-1.000000	-1.000000	-1.000000	-1.000000	-1.000000	-1.000000	-1.000000	51.000000	0.000000	-1.000000	-1.000000	162412.000000	1775803597.131898
-18723.510000	-39083.220000	-3852.270000	18908.820000	5078.385000	-14017.140000	-33560.055000	-16749.720000	2.300979	0.244413	0.399778	0.946010	3.575794	0.206411	2.076776	3.505381	-0.412020	0.335720	-0.213640	-0.726622	0.072204	0.667418	-1.000000	-1.000000	-1.000000	-1.000000	-1.000000	-1.000000	-1.000000	51.000000	0.000000	-1.000000	-1.000000	162413.000000	1775803597.132418
-18724.635000	-39081.645000	-3847.590000	18913.995000	5068.665000	-14015.115000	-33560.820000	-16752.915000	0.217102	-1.796433	-2.608079	-2.083978	5.091353	-0.323558	2.210434	1.820891	-0.412020	0.335720	-0.213640	-0.726622	0.072204	0.667418	-1.000000	-1.000000	-1.000000	-1.000000	-1.000000	-1.000000	-1.000000	51.000000	0.000000	-1.000000	-1.000000	162414.000000	1775803597.132438
-18723.870000	-39078.765000	-3845.295000	18914.310000	5067.990000	-14017.050000	-33562.620000	-16754.040000	-1.714245	-2.672110	-3.511998	-2.955514	5.295106	0.674095	1.934148	-0.553595	-0.412020	0.335720	-0.213640	-0.726622	0.072204	0.667418	-1.000000	-1.000000	-1.000000	-1.000000	-1.000000	-1.000000	-1.000000	51.000000	0.000000	-1.000000	-1.000000	162415.000000	1775803597.151320
-18734.220000	-39091.410000	-3853.125000	18916.560000	5079.870000	-14016.690000	-33568.740000	-16762.815000	-2.661225	-2.049943	-1.961913	-1.414743	2.858709	1.558380	0.562300	-2.809195	-0.412020	0.335720	-0.213640	-0.726622	0.072204	0.667418	-1.000000	-1.000000	-1.000000	-1.000000	-1.000000	-1.000000	-1.000000	51.000000	0.000000	-1.000000	-1.000000	162416.000000	1775803597.151349
-18731.655000	-39091.365000	-3854.430000	18914.895000	5080.410000	-14010.120000	-33563.700000	-16758.045000	-2.755064	-1.105297	0.164237	0.903999	-0.556904	1.214171	-1.703740	-4.221404	-0.412020	0.335720	-0.213640	-0.726622	0.072204	0.667418	-1.000000	-1.000000	-1.000000	-1.000000	-1.000000	-1.000000	-1.000000	51.000000	0.000000	-1.000000	-1.000000	162417.000000	1775803597.151379
-18736.290000	-39096.630000	-3860.775000	18906.255000	5071.095000	-14020.515000	-33568.965000	-16760.880000	-2.225120	-0.757113	1.063632	2.049367	-3.106259	-0.126234	-3.582239	-4.072313	-0.412020	0.335720	-0.213640	-0.726622	0.072204	0.667418	-1.000000	-1.000000	-1.000000	-1.000000	-1.000000	-1.000000	-1.000000	51.000000	0.000000	-1.000000	-1.000000	162418.000000	1775803597.151393
-18733.590000	-39093.795000	-3858.840000	18907.155000	5058.405000	-14030.865000	-33570.090000	-16759.575000	-1.039339	-0.630935	0.590793	1.124630	-4.977077	-2.133595	-4.036693	-2.224073	-0.412020	0.335720	-0.213640	-0.726622	0.072204	0.667418	-1.000000	-1.000000	-1.000000	-1.000000	-1.000000	-1.000000	-1.000000	51.000000	0.000000	-1.000000	-1.000000	162419.000000	1775803597.151410
-18725.895000	-39084.795000	-3851.595000	18908.865000	5054.490000	-14027.220000	-33567.120000	-16754.850000	0.784860	0.221994	-0.016717	-0.914830	-6.749811	-4.372001	-3.027529	0.528475	-0.412020	0.335720	-0.213640	-0.726622	0.072204	0.667418	-1.000000	-1.000000	-1.000000	-1.000000	-1.000000	-1.000000	-1.000000	51.000000	0.000000	-1.000000	-1.000000	162420.000000	1775803597.151422
-18725.265000	-39082.545000	-3850.425000	18890.370000	5058.090000	-14022.990000	-33570.360000	-16757.595000	2.945935	2.208332	0.489637	-2.509217	-7.404367	-5.240398	-1.053702	3.020289	1.205540	0.991900	-0.015260	-0.726500	0.073059	0.666075	-1.000000	-1.000000	-1.000000	-1.000000	-1.000000	-1.000000	-1.000000	51.000000	0.000000	-1.000000	-1.000000	162421.000000	1775803597.151436
-18724.950000	-39080.205000	-3848.085000	18890.820000	5074.785000	-14014.305000	-33567.435000	-16757.505000	4.463268	4.363146	1.924631	-3.288546	-4.990823	-3.177948	1.069225	4.140870	1.205540	0.991900	-0.015260	-0.726500	0.073059	0.666075	-1.000000	-1.000000	-1.000000	-1.000000	-1.000000	-1.000000	-1.000000	51.000000	0.000000	-1.000000	-1.000000	162422.000000	1775803597.151447
-18729.495000	-39085.515000	-3849.525000	18921.825000	5093.460000	-14011.740000	-33566.895000	-16760.790000	4.101167	4.885712	2.892688	-2.617980	1.153354	1.271390	2.558056	3.339347	1.205540	0.991900	-0.015260	-0.726500	0.073059	0.666075	-1.000000	-1.000000	-1.000000	-1.000000	-1.000000	-1.000000	-1.000000	51.000000	0.000000	-1.000000	-1.000000	162423.000000	1775803597.152578
-18736.200000	-39092.715000	-3851.775000	18937.710000	5103.090000	-14013.945000	-33569.235000	-16765.920000	1.505765	2.691216	2.266421	1.238524	8.851405	5.471831	3.018328	1.030985	1.205540	0.991900	-0.015260	-0.726500	0.073059	0.666075	-1.000000	-1.000000	-1.000000	-1.000000	-1.000000	-1.000000	-1.000000	51.000000	0.000000	-1.000000	-1.000000	162424.000000	1775803597.152596
-18731.745000	-39087.180000	-3846.870000	18930.015000	5090.805000	-14006.340000	-33562.395000	-16759.890000	-2.175228	-1.396937	0.213569	7.236328	13.461221	6.844559	2.475469	-1.554750	1.205540	0.991900	-0.015260	-0.726500	0.073059	0.666075	-1.000000	-1.000000	-1.000000	-1.000000	-1.000000	-1.000000	-1.000000	51.000000	0.000000	-1.000000	-1.000000	162425.000000	1775803597.157277
-18731.610000	-39086.055000	-3846.780000	18926.505000	5087.655000	-14014.665000	-33569.820000	-16762.140000	-4.729861	-4.813791	-1.920547	10.277799	10.970067	4.851278	1.340411	-2.910504	1.205540	0.991900	-0.015260	-0.726500	0.073059	0.666075	-1.000000	-1.000000	-1.000000	-1.000000	-1.000000	-1.000000	-1.000000	51.000000	0.000000	-1.000000	-1.000000	162426.000000	1775803597.157303
-18728.730000	-39082.680000	-3844.260000	18924.705000	5084.820000	-14027.220000	-33575.580000	-16761.330000	-4.607536	-5.391324	-2.887489	6.743957	1.986340	0.480127	-0.185301	-2.431822	1.205540	0.991900	-0.015260	-0.726500	0.073059	0.666075	-1.000000	-1.000000	-1.000000	-1.000000	-1.000000	-1.000000	-1.000000	51.000000	0.000000	-1.000000	-1.000000	162427.000000	1775803597.164658
-18728.640000	-39084.030000	-3848.220000	18919.395000	5077.080000	-14030.595000	-33573.690000	-16759.890000	-2.193411	-3.226651	-2.576197	-1.507964	-8.339703	-4.692191	-1.968432	-0.835300	1.205540	0.991900	-0.015260	-0.726500	0.073059	0.666075	-1.000000	-1.000000	-1.000000	-1.000000	-1.000000	-1.000000	-1.000000	51.000000	0.000000	-1.000000	-1.000000	162428.000000	1775803597.164685
-18729.540000	-39086.865000	-3852.495000	18915.930000	5073.660000	-14027.355000	-33568.740000	-16757.820000	0.771063	-0.225194	-1.816746	-9.503874	-14.637296	-8.190663	-3.021310	0.827042	1.205540	0.991900	-0.015260	-0.726500	0.073059	0.666075	-1.000000	-1.000000	-1.000000	-1.000000	-1.000000	-1.000000	-1.000000	51.000000	0.000000	-1.000000	-1.000000	162429.000000	1775803597.167452
-18725.310000	-39082.230000	-3848.400000	18918.090000	5072.040000	-14026.185000	-33566.040000	-16754.940000	2.669288	1.763601	-1.290810	-13.094432	-14.500136	-7.692360	-2.233915	1.899529	1.205540	0.991900	-0.015260	-0.726500	0.073059	0.666075	-1.000000	-1.000000	-1.000000	-1.000000	-1.000000	-1.000000	-1.000000	51.000000	0.000000	-1.000000	-1.000000	162430.000000	1775803597.167478
-18719.640000	-39073.545000	-3842.370000	18920.475000	5073.210000	-14020.965000	-33561.225000	-16750.980000	3.112856	2.453037	-0.652942	-10.848396	-8.731740	-3.172391	0.150745	2.194981	2.365300	1.846460	0.915600	-0.726255	0.072326	0.666624	-1.000000	-1.000000	-1.000000	-1.000000	-1.000000	-1.000000	-1.000000	51.000000	0.000000	-1.000000	-1.000000	162431.000000	1775803597.169336
-18720.405000	-39075.210000	-3846.375000	18912.780000	5072.355000	-14016.465000	-33558.165000	-16749.405000	2.611853	2.575663	0.613380	-4.458301	-0.315959	2.983304	2.684291	1.823654	2.365300	1.846460	0.915600	-0.726255	0.072326	0.666624	-1.000000	-1.000000	-1.000000	-1.000000	-1.000000	-1.000000	-1.000000	51.000000	0.000000	-1.000000	-1.000000	162432.000000	1775803597.169358
-18723.870000	-39081.555000	-3852.585000	18907.470000	5077.305000	-14009.265000	-33558.165000	-16750.215000	1.426808	2.134647	1.791905	2.285206	7.204054	7.811522	3.867367	0.892715	2.365300	1.846460	0.915600	-0.726255	0.072326	0.666624	-1.000000	-1.000000	-1.000000	-1.000000	-1.000000	-1.000000	-1.000000	51.000000	0.000000	-1.000000	-1.000000	162433.000000	1775803597.173792
-18727.245000	-39080.925000	-3850.830000	18910.935000	5079.195000	-14015.070000	-33567.435000	-16756.920000	-0.496668	0.551578	1.735422	6.297129	11.378539	9.244559	2.829354	-0.621706	2.365300	1.846460	0.915600	-0.726255	0.072326	0.666624	-1.000000	-1.000000	-1.000000	-1.000000	-1.000000	-1.000000	-1.000000	51.000000	0.000000	-1.000000	-1.000000	162434.000000	1775803597.173818
-18727.380000	-39082.680000	-3849.165000	18916.920000	5082.120000	-14019.435000	-33565.095000	-16756.605000	-2.670969	-1.739386	0.652260	7.290293	11.493803	6.575351	-0.196642	-2.521148	2.365300	1.846460	0.915600	-0.726255	0.072326	0.666624	-1.000000	-1.000000	-1.000000	-1.000000	-1.000000	-1.000000	-1.000000	51.000000	0.000000	-1.000000	-1.000000	162435.000000	1775803597.178510
-18725.625000	-39081.600000	-3845.025000	18924.345000	5087.790000	-14015.835000	-33560.370000	-16753.320000	-3.933074	-3.339690	-0.162098	6.793134	8.334430	1.013862	-3.404590	-3.865250	2.365300	1.846460	0.915600	-0.726255	0.072326	0.666624	-1.000000	-1.000000	-1.000000	-1.000000	-1.000000	-1.000000	-1.000000	51.000000	0.000000	-1.000000	-1.000000	162436.000000	1775803597.178538
-18727.155000	-39081.780000	-3844.575000	18922.455000	5078.475000	-14020.335000	-33564.015000	-16755.615000	-3.424957	-3.274517	0.051546	5.811158	3.412493	-4.512744	-4.627128	-3.562279	2.365300	1.846460	0.915600	-0.726255	0.072326	0.666624	-1.000000	-1.000000	-1.000000	-1.000000	-1.000000	-1.000000	-1.000000	51.000000	0.000000	-1.000000	-1.000000	162437.000000	1775803597.181434
-18723.915000	-39080.790000	-3848.670000	18916.830000	5078.205000	-14013.720000	-33559.605000	-16751.295000	-1.408717	-1.675677	0.768682	3.923190	-1.932272	-7.325658	-3.390327	-1.606280	2.365300	1.846460	0.915600	-0.726255	0.072326	0.666624	-1.000000	-1.000000	-1.000000	-1.000000	-1.000000	-1.000000	-1.000000	51.000000	0.000000	-1.000000	-1.000000	162438.000000	1775803597.181457
-18725.715000	-39081.780000	-3851.505000	18912.510000	5078.700000	-14013.675000	-33563.430000	-16754.670000	1.035363	0.492400	0.849183	0.491710	-6.313795	-6.537231	-0.891526	0.920304	2.365300	1.846460	0.915600	-0.726255	0.072326	0.666624	-1.000000	-1.000000	-1.000000	-1.000000	-1.000000	-1.000000	-1.000000	51.000000	0.000000	-1.000000	-1.000000	162439.000000	1775803597.193305
-18722.430000	-39077.415000	-3844.530000	18923.985000	5082.660000	-14009.670000	-33561.720000	-16751.970000	2.794534	2.198298	0.007832	-3.488608	-8.104908	-3.127191	1.332119	2.743927	2.365300	1.846460	0.915600	-0.726255	0.072326	0.666624	-1.000000	-1.000000	-1.000000	-1.000000	-1.000000	-1.000000	-1.000000	51.000000	0.000000	-1.000000	-1.000000	162440.000000	1775803597.193333
-18717.120000	-39070.755000	-3836.205000	18938.430000	5094.810000	-14002.290000	-33557.760000	-16747.515000	3.401537	3.076724	-0.631211	-5.387853	-6.419014	0.956596	2.446734	3.284452	0.900340	0.976640	-0.030520	-0.726317	0.073059	0.668516	-1.000000	-1.000000	-1.000000	-1.000000	-1.000000	-1.000000	-1.000000	51.000000	0.000000	-1.000000	-1.000000	162441.000000	1775803597.193372
-18714.285000	-39066.120000	-3830.220000	18930.510000	5088.780000	-14003.145000	-33556.545000	-16746.255000	3.124780	3.342335	0.048385	-3.824508	-2.136872	3.974025	2.604422	2.863253	0.900340	0.976640	-0.030520	-0.726317	0.073059	0.668516	-1.000000	-1.000000	-1.000000	-1.000000	-1.000000	-1.000000	-1.000000	51.000000	0.000000	-1.000000	-1.000000	162442.000000	1775803597.193385
-18715.320000	-39067.335000	-3833.190000	18923.625000	5084.370000	-14005.170000	-33556.590000	-16746.705000	2.240589	2.982529	1.512880	-0.931895	1.986459	4.746700	2.179216	1.905265	0.900340	0.976640	-0.030520	-0.726317	0.073059	0.668516	-1.000000	-1.000000	-1.000000	-1.000000	-1.000000	-1.000000	-1.000000	51.000000	0.000000	-1.000000	-1.000000	162443.000000	1775803597.198425
-18725.130000	-39078.045000	-3844.935000	18913.590000	5084.460000	-14013.270000	-33564.105000	-16755.930000	0.539055	1.404491	1.805985	-0.018659	3.368503	2.861176	1.126798	0.365190	0.900340	0.976640	-0.030520	-0.726317	0.073059	0.668516	-1.000000	-1.000000	-1.000000	-1.000000	-1.000000	-1.000000	-1.000000	51.000000	0.000000	-1.000000	-1.000000	162444.000000	1775803597.198450
-18726.300000	-39078.900000	-3845.835000	18911.610000	5081.625000	-14016.330000	-33563.925000	-16756.740000	-2.060465	-1.648755	-0.342780	-1.781279	1.951089	-0.835145	-0.617963	-1.792219	0.900340	0.976640	-0.030520	-0.726317	0.073059	0.668516	-1.000000	-1.000000	-1.000000	-1.000000	-1.000000	-1.000000	-1.000000	51.000000	0.000000	-1.000000	-1.000000	162445.000000	1775803597.198483
-18721.620000	-39071.610000	-3841.245000	18919.260000	5079.195000	-14014.980000	-33560.055000	-16752.060000	-4.433740	-4.747046	-3.596601	-3.827334	-0.432788	-4.277010	-2.298628	-3.653495	0.900340	0.976640	-0.030520	-0.726317	0.073059	0.668516	-1.000000	-1.000000	-1.000000	-1.000000	-1.000000	-1.000000	-1.000000	51.000000	0.000000	-1.000000	-1.000000	162446.000000	1775803597.198495
-18721.845000	-39073.230000	-3840.930000	18923.895000	5079.015000	-14014.665000	-33560.820000	-16752.195000	-4.784103	-5.562413	-5.103159	-3.251963	-2.027128	-5.319435	-2.678827	-3.747740	0.900340	0.976640	-0.030520	-0.726317	0.073059	0.668516	-1.000000	-1.000000	-1.000000	-1.000000	-1.000000	-1.000000	-1.000000	51.000000	0.000000	-1.000000	-1.000000	162447.000000	1775803597.212691
-18726.030000	-39078.315000	-3843.225000	18920.115000	5079.375000	-14014.665000	-33565.410000	-16756.830000	-2.751814	-3.581628	-3.619506	0.298529	-2.009217	-3.382315	-1.584575	-1.890092	0.900340	0.976640	-0.030520	-0.726317	0.073059	0.668516	-1.000000	-1.000000	-1.000000	-1.000000	-1.000000	-1.000000	-1.000000	51.000000	0.000000	-1.000000	-1.000000	162448.000000	1775803597.212717
-18729.315000	-39082.905000	-3849.660000	18912.510000	5071.995000	-14018.580000	-33569.730000	-16760.070000	0.074710	-0.646970	-0.559355	4.123666	-0.704690	0.116054	-0.185094	0.411036	0.900340	0.976640	-0.030520	-0.726317	0.073059	0.668516	-1.000000	-1.000000	-1.000000	-1.000000	-1.000000	-1.000000	-1.000000	51.000000	0.000000	-1.000000	-1.000000	162449.000000	1775803597.212745
-18726.885000	-39081.195000	-3848.535000	18914.670000	5073.705000	-14015.745000	-33567.075000	-16756.740000	2.019311	1.378522	1.889317	5.362784	0.769932	3.081332	0.531990	1.760005	0.900340	0.976640	-0.030520	-0.726317	0.073059	0.668516	-1.000000	-1.000000	-1.000000	-1.000000	-1.000000	-1.000000	-1.000000	51.000000	0.000000	-1.000000	-1.000000	162450.000000	1775803597.212757
-18726.300000	-39080.295000	-3846.285000	18917.280000	5073.615000	-14018.310000	-33567.660000	-16756.155000	2.750132	2.237754	2.885304	3.831956	1.679212	4.318747	0.743624	2.130041	-2.334780	1.266580	0.427280	-0.725950	0.075683	0.668883	-1.000000	-1.000000	-1.000000	-1.000000	-1.000000	-1.000000	-1.000000	51.000000	0.000000	-1.000000	-1.000000	162451.000000	1775803597.212772
-18725.445000	-39078.360000	-3845.205000	18917.730000	5074.920000	-14018.895000	-33567.255000	-16754.760000	2.758717	2.601144	2.984179	1.440198	2.102034	3.801093	1.020642	2.122949	-2.334780	1.266580	0.427280	-0.725950	0.075683	0.668883	-1.000000	-1.000000	-1.000000	-1.000000	-1.000000	-1.000000	-1.000000	51.000000	0.000000	-1.000000	-1.000000	162452.000000	1775803597.212783
-18723.420000	-39076.920000	-3844.845000	18915.705000	5074.155000	-14019.210000	-33564.915000	-16752.240000	2.406305	2.842868	2.770123	-0.288231	2.214591	2.149175	1.455166	1.994250	-2.334780	1.266580	0.427280	-0.725950	0.075683	0.668883	-1.000000	-1.000000	-1.000000	-1.000000	-1.000000	-1.000000	-1.000000	51.000000	0.000000	-1.000000	-1.000000	162453.000000	1775803597.218428
-18729.090000	-39082.095000	-3849.165000	18911.880000	5069.745000	-14021.370000	-33565.590000	-16757.640000	1.682384	2.681900	2.170839	-1.215890	1.843193	0.232383	1.771387	1.558368	-2.334780	1.266580	0.427280	-0.725950	0.075683	0.668883	-1.000000	-1.000000	-1.000000	-1.000000	-1.000000	-1.000000	-1.000000	51.000000	0.000000	-1.000000	-1.000000	162454.000000	1775803597.218455
-18729.765000	-39082.815000	-3850.605000	18909.495000	5070.915000	-14020.065000	-33566.265000	-16758.675000	0.403931	1.619639	0.893390	-1.816242	0.807114	-1.213607	1.608077	0.475054	-2.334780	1.266580	0.427280	-0.725950	0.075683	0.668883	-1.000000	-1.000000	-1.000000	-1.000000	-1.000000	-1.000000	-1.000000	51.000000	0.000000	-1.000000	-1.000000	162455.000000	1775803597.218485
-18728.505000	-39080.835000	-3848.445000	18910.170000	5077.305000	-14018.355000	-33568.920000	-16759.935000	-1.160552	-0.155680	-0.775727	-2.189747	-0.392655	-1.749766	0.747352	-1.121778	-2.334780	1.266580	0.427280	-0.725950	0.075683	0.668883	-1.000000	-1.000000	-1.000000	-1.000000	-1.000000	-1.000000	-1.000000	51.000000	0.000000	-1.000000	-1.000000	162456.000000	1775803597.218496
-18732.105000	-39082.320000	-3849.255000	18911.430000	5076.180000	-14019.525000	-33572.655000	-16764.570000	-2.217071	-1.658621	-1.934527	-1.932474	-0.859905	-1.349813	-0.659936	-2.488680	-2.334780	1.266580	0.427280	-0.725950	0.075683	0.668883	-1.000000	-1.000000	-1.000000	-1.000000	-1.000000	-1.000000	-1.000000	51.000000	0.000000	-1.000000	-1.000000	162457.000000	1775803597.230647
-18733.140000	-39081.690000	-3844.890000	18918.000000	5072.175000	-14016.195000	-33570.585000	-16764.795000	-2.334376	-2.153587	-1.937511	-0.707442	-0.598556	-0.466896	-2.026035	-2.981632	-2.334780	1.266580	0.427280	-0.725950	0.075683	0.668883	-1.000000	-1.000000	-1.000000	-1.000000	-1.000000	-1.000000	-1.000000	51.000000	0.000000	-1.000000	-1.000000	162458.000000	1775803597.230675
-18727.965000	-39078.720000	-3841.875000	18916.695000	5064.930000	-14014.530000	-33564.690000	-16757.595000	-1.594102	-1.634634	-0.853272	1.184505	-0.623028	0.387957	-2.413811	-2.239435	-2.334780	1.266580	0.427280	-0.725950	0.075683	0.668883	-1.000000	-1.000000	-1.000000	-1.000000	-1.000000	-1.000000	-1.000000	51.000000	0.000000	-1.000000	-1.000000	162459.000000	1775803597.230734
-18732.015000	-39085.470000	-3852.045000	18910.125000	5058.945000	-14022.135000	-33567.705000	-16759.530000	-0.236114	-0.615904	0.463308	2.554010	-1.607344	0.765642	-1.326772	-0.248201	-2.334780	1.266580	0.427280	-0.725950	0.075683	0.668883	-1.000000	-1.000000	-1.000000	-1.000000	-1.000000	-1.000000	-1.000000	51.000000	0.000000	-1.000000	-1.000000	162460.000000	1775803597.230748
-18730.215000	-39082.230000	-3848.535000	18912.105000	5065.605000	-14022.585000	-33570.270000	-16759.395000	1.121062	0.131904	0.794751	2.206892	-2.827096	0.210224	0.390753	2.055091	-3.601360	2.380560	1.098720	-0.727171	0.077942	0.667479	-1.000000	-1.000000	-1.000000	-1.000000	-1.000000	-1.000000	-1.000000	51.000000	0.000000	-1.000000	-1.000000	162461.000000	1775803597.230765
-18722.655000	-39073.635000	-3840.975000	18918.135000	5078.250000	-14013.900000	-33563.925000	-16752.690000	1.919970	0.475498	0.128466	0.538446	-2.452290	-0.875530	1.447809	3.372249	-3.601360	2.380560	1.098720	-0.727171	0.077942	0.667479	-1.000000	-1.000000	-1.000000	-1.000000	-1.000000	-1.000000	-1.000000	51.000000	0.000000	-1.000000	-1.000000	162462.000000	1775803597.230776
-18718.065000	-39070.980000	-3839.715000	18920.205000	5069.340000	-14012.550000	-33560.820000	-16748.055000	2.313258	1.057363	-0.229513	-0.786844	0.266556	-1.157058	1.659636	3.401006	-3.601360	2.380560	1.098720	-0.727171	0.077942	0.667479	-1.000000	-1.000000	-1.000000	-1.000000	-1.000000	-1.000000	-1.000000	51.000000	0.000000	-1.000000	-1.000000	162463.000000	1775803597.236380
-18723.015000	-39073.905000	-3842.910000	18917.505000	5067.585000	-14016.240000	-33566.445000	-16755.120000	2.344229	1.835513	0.214002	-0.939368	3.306072	-0.226949	1.418213	2.436072	-3.601360	2.380560	1.098720	-0.727171	0.077942	0.667479	-1.000000	-1.000000	-1.000000	-1.000000	-1.000000	-1.000000	-1.000000	51.000000	0.000000	-1.000000	-1.000000	162464.000000	1775803597.236409
-18729.630000	-39076.695000	-3842.505000	18918.765000	5078.385000	-14017.860000	-33572.340000	-16763.400000	1.277332	1.729157	0.561810	-0.565709	4.259945	0.727762	0.500335	0.320191	-3.601360	2.380560	1.098720	-0.727171	0.077942	0.667479	-1.000000	-1.000000	-1.000000	-1.000000	-1.000000	-1.000000	-1.000000	51.000000	0.000000	-1.000000	-1.000000	162465.000000	1775803597.238667
-18727.695000	-39074.715000	-3839.220000	18922.500000	5086.890000	-14015.340000	-33568.200000	-16758.945000	-1.153412	0.214941	0.192927	-0.385364	3.357157	0.695189	-1.159350	-2.684512	-3.601360	2.380560	1.098720	-0.727171	0.077942	0.667479	-1.000000	-1.000000	-1.000000	-1.000000	-1.000000	-1.000000	-1.000000	51.000000	0.000000	-1.000000	-1.000000	162466.000000	1775803597.238694
-18727.785000	-39078.045000	-3844.665000	18912.735000	5075.145000	-14017.005000	-33564.870000	-16755.615000	-3.618245	-1.830409	-0.560008	-0.530904	1.905181	-0.031243	-2.422262	-4.824471	-3.601360	2.380560	1.098720	-0.727171	0.077942	0.667479	-1.000000	-1.000000	-1.000000	-1.000000	-1.000000	-1.000000	-1.000000	51.000000	0.000000	-1.000000	-1.000000	162467.000000	1775803597.243795
-18733.095000	-39088.935000	-3859.020000	18882.360000	5052.105000	-14020.425000	-33562.620000	-16755.975000	-4.477982	-3.343469	-1.527063	-1.633781	-0.530522	-0.746502	-2.047712	-4.400695	-3.601360	2.380560	1.098720	-0.727171	0.077942	0.667479	-1.000000	-1.000000	-1.000000	-1.000000	-1.000000	-1.000000	-1.000000	51.000000	0.000000	-1.000000	-1.000000	162468.000000	1775803597.243823
-18732.960000	-39087.945000	-3857.760000	18891.135000	5049.720000	-14019.615000	-33563.115000	-16757.865000	-3.470156	-3.980048	-2.816919	-4.122322	-4.689963	-1.146657	-0.268148	-1.810661	-3.601360	2.380560	1.098720	-0.727171	0.077942	0.667479	-1.000000	-1.000000	-1.000000	-1.000000	-1.000000	-1.000000	-1.000000	51.000000	0.000000	-1.000000	-1.000000	162469.000000	1775803597.246406
-18732.375000	-39083.715000	-3855.105000	18916.785000	5057.595000	-14022.495000	-33563.340000	-16758.855000	-1.345337	-3.336036	-3.494872	-5.350723	-8.372247	-1.121628	1.495440	1.016013	-3.601360	2.380560	1.098720	-0.727171	0.077942	0.667479	-1.000000	-1.000000	-1.000000	-1.000000	-1.000000	-1.000000	-1.000000	51.000000	0.000000	-1.000000	-1.000000	162470.000000	1775803597.246463
-18731.655000	-39083.265000	-3853.530000	18913.905000	5047.695000	-14023.845000	-33564.285000	-16759.890000	1.074064	-0.969413	-2.137244	-1.752448	-8.041051	-0.688571	2.048828	2.539141	-2.044840	2.227960	0.778260	-0.725096	0.076050	0.668272	-1.000000	-1.000000	-1.000000	-1.000000	-1.000000	-1.000000	-1.000000	51.000000	0.000000	-1.000000	-1.000000	162471.000000	1775803597.249536
-18727.155000	-39078.405000	-3847.365000	18917.010000	5051.700000	-14030.820000	-33571.080000	-16759.170000	3.099454	2.437800	1.198639	5.289710	-3.305030	-0.166056	1.145241	2.516117	-2.044840	2.227960	0.778260	-0.725096	0.076050	0.668272	-1.000000	-1.000000	-1.000000	-1.000000	-1.000000	-1.000000	-1.000000	51.000000	0.000000	-1.000000	-1.000000	162472.000000	1775803597.249562
-18728.640000	-39078.090000	-3844.980000	18923.220000	5096.070000	-14017.725000	-33567.615000	-16759.530000	4.189286	5.245205	4.853281	10.480280	3.799924	0.322025	-0.597227	1.626072	-2.044840	2.227960	0.778260	-0.725096	0.076050	0.668272	-1.000000	-1.000000	-1.000000	-1.000000	-1.000000	-1.000000	-1.000000	51.000000	0.000000	-1.000000	-1.000000	162473.000000	1775803597.253556
-18730.125000	-39078.090000	-3845.835000	18915.975000	5092.245000	-14012.865000	-33564.555000	-16759.665000	3.908404	6.020448	6.805705	10.339719	11.351488	1.349490	-1.878179	0.648903	-2.044840	2.227960	0.778260	-0.725096	0.076050	0.668272	-1.000000	-1.000000	-1.000000	-1.000000	-1.000000	-1.000000	-1.000000	51.000000	0.000000	-1.000000	-1.000000	162474.000000	1775803597.253582
-18728.640000	-39076.920000	-3844.665000	18916.470000	5075.460000	-14016.870000	-33564.645000	-16758.945000	2.227355	4.378109	5.865004	5.108788	15.512407	2.951830	-1.636974	-0.003028	-2.044840	2.227960	0.778260	-0.725096	0.076050	0.668272	-1.000000	-1.000000	-1.000000	-1.000000	-1.000000	-1.000000	-1.000000	51.000000	0.000000	-1.000000	-1.000000	162475.000000	1775803597.257467
-18733.140000	-39082.995000	-3849.795000	18915.930000	5080.905000	-14023.035000	-33573.915000	-16762.455000	-0.156706	1.101756	2.394902	-2.272324	11.841026	3.569265	-0.344261	-0.319061	-2.044840	2.227960	0.778260	-0.725096	0.076050	0.668272	-1.000000	-1.000000	-1.000000	-1.000000	-1.000000	-1.000000	-1.000000	51.000000	0.000000	-1.000000	-1.000000	162476.000000	1775803597.257492
-18736.830000	-39087.765000	-3855.375000	18909.045000	5078.700000	-14025.285000	-33574.770000	-16765.110000	-2.352635	-2.550508	-2.109255	-8.123981	1.460978	1.837646	0.490445	-0.578587	-2.044840	2.227960	0.778260	-0.725096	0.076050	0.668272	-1.000000	-1.000000	-1.000000	-1.000000	-1.000000	-1.000000	-1.000000	51.000000	0.000000	-1.000000	-1.000000	162477.000000	1775803597.268106
-18731.205000	-39080.340000	-3849.840000	18907.335000	5064.615000	-14028.795000	-33573.600000	-16763.625000	-3.603504	-5.164407	-5.735005	-10.324880	-9.554922	-1.495538	0.296633	-0.911485	-2.044840	2.227960	0.778260	-0.725096	0.076050	0.668272	-1.000000	-1.000000	-1.000000	-1.000000	-1.000000	-1.000000	-1.000000	51.000000	0.000000	-1.000000	-1.000000	162478.000000	1775803597.268132
-18728.190000	-39076.245000	-3842.595000	18916.155000	5065.065000	-14027.670000	-33570.990000	-16760.700000	-3.172893	-5.275187	-6.580329	-8.594957	-16.053503	-4.272635	-0.031002	-0.928967	-2.044840	2.227960	0.778260	-0.725096	0.076050	0.668272	-1.000000	-1.000000	-1.000000	-1.000000	-1.000000	-1.000000	-1.000000	51.000000	0.000000	-1.000000	-1.000000	162479.000000	1775803597.268162
-18733.905000	-39083.355000	-3848.715000	18916.155000	5080.230000	-14024.070000	-33571.575000	-16763.670000	-1.193444	-2.794432	-4.162445	-3.757457	-15.658656	-4.710581	0.372184	-0.300394	-2.044840	2.227960	0.778260	-0.725096	0.076050	0.668272	-1.000000	-1.000000	-1.000000	-1.000000	-1.000000	-1.000000	-1.000000	51.000000	0.000000	-1.000000	-1.000000	162480.000000	1775803597.268174
-18726.165000	-39077.280000	-3847.410000	18917.595000	5080.770000	-14019.120000	-33565.590000	-16755.210000	1.008675	0.411012	-0.378576	2.095864	-8.568482	-2.470848	1.371927	0.707037	1.342880	1.464960	0.427280	-0.723265	0.073303	0.670347	-1.000000	-1.000000	-1.000000	-1.000000	-1.000000	-1.000000	-1.000000	51.000000	0.000000	-1.000000	-1.000000	162481.000000	1775803597.269527
-18719.415000	-39072.915000	-3846.510000	18912.420000	5079.105000	-14014.980000	-33559.830000	-16746.930000	2.476453	2.616016	2.348577	6.158709	1.558622	1.234883	2.399728	1.810733	1.342880	1.464960	0.427280	-0.723265	0.073303	0.670347	-1.000000	-1.000000	-1.000000	-1.000000	-1.000000	-1.000000	-1.000000	51.000000	0.000000	-1.000000	-1.000000	162482.000000	1775803597.269557
-18716.220000	-39070.035000	-3844.845000	18911.655000	5085.045000	-14008.320000	-33556.275000	-16742.205000	3.215047	3.515368	3.175745	6.698746	9.366423	4.469088	2.981127	2.872237	1.342880	1.464960	0.427280	-0.723265	0.073303	0.670347	-1.000000	-1.000000	-1.000000	-1.000000	-1.000000	-1.000000	-1.000000	51.000000	0.000000	-1.000000	-1.000000	162483.000000	1775803597.273659
-18724.500000	-39076.515000	-3848.715000	18913.635000	5080.545000	-14011.155000	-33561.405000	-16749.495000	2.948400	3.147034	2.527349	4.226935	11.713470	5.642880	2.524960	3.092401	1.342880	1.464960	0.427280	-0.723265	0.073303	0.670347	-1.000000	-1.000000	-1.000000	-1.000000	-1.000000	-1.000000	-1.000000	51.000000	0.000000	-1.000000	-1.000000	162484.000000	1775803597.273685
-18727.380000	-39076.155000	-3844.440000	18917.685000	5075.685000	-14017.005000	-33567.525000	-16755.795000	1.001630	1.394017	1.133836	0.940532	8.744695	3.992937	0.453316	1.281531	1.342880	1.464960	0.427280	-0.723265	0.073303	0.670347	-1.000000	-1.000000	-1.000000	-1.000000	-1.000000	-1.000000	-1.000000	51.000000	0.000000	-1.000000	-1.000000	162485.000000	1775803597.283912
-18727.920000	-39074.580000	-3841.740000	18922.545000	5080.635000	-14017.185000	-33568.380000	-16758.405000	-2.195173	-1.109956	-0.117596	-1.068476	2.820034	0.029178	-2.839883	-2.445274	1.342880	1.464960	0.427280	-0.723265	0.073303	0.670347	-1.000000	-1.000000	-1.000000	-1.000000	-1.000000	-1.000000	-1.000000	51.000000	0.000000	-1.000000	-1.000000	162486.000000	1775803597.283939
-18730.530000	-39076.065000	-3843.045000	18920.520000	5076.765000	-14021.280000	-33570.945000	-16762.455000	-4.813576	-2.958334	-0.590662	-1.271999	-2.720496	-4.266330	-5.638251	-6.067007	1.342880	1.464960	0.427280	-0.723265	0.073303	0.670347	-1.000000	-1.000000	-1.000000	-1.000000	-1.000000	-1.000000	-1.000000	51.000000	0.000000	-1.000000	-1.000000	162487.000000	1775803597.286563
-18730.215000	-39077.100000	-3845.745000	18916.155000	5075.370000	-14019.210000	-33569.055000	-16760.745000	-5.267980	-3.287268	-0.543965	-0.766843	-5.570067	-6.614520	-6.161945	-7.257467	1.342880	1.464960	0.427280	-0.723265	0.073303	0.670347	-1.000000	-1.000000	-1.000000	-1.000000	-1.000000	-1.000000	-1.000000	51.000000	0.000000	-1.000000	-1.000000	162488.000000	1775803597.286593
-18728.280000	-39075.615000	-3845.430000	18914.445000	5074.740000	-14019.255000	-33568.380000	-16758.540000	-3.350994	-2.286319	-0.634693	-0.899237	-5.503693	-5.914522	-3.959846	-5.099710	1.342880	1.464960	0.427280	-0.723265	0.073303	0.670347	-1.000000	-1.000000	-1.000000	-1.000000	-1.000000	-1.000000	-1.000000	51.000000	0.000000	-1.000000	-1.000000	162489.000000	1775803597.286623
-18727.290000	-39073.095000	-3840.840000	18918.585000	5074.875000	-14017.500000	-33567.030000	-16757.865000	-0.032396	-0.560814	-0.870561	-1.711408	-3.491272	-2.714446	-0.114087	-0.560348	1.342880	1.464960	0.427280	-0.723265	0.073303	0.670347	-1.000000	-1.000000	-1.000000	-1.000000	-1.000000	-1.000000	-1.000000	51.000000	0.000000	-1.000000	-1.000000	162490.000000	1775803597.286635
-18721.845000	-39069.045000	-3838.815000	18919.395000	5074.110000	-14011.515000	-33560.100000	-16750.350000	3.226644	1.311641	-0.665551	-2.079970	-0.771190	1.368158	3.628593	4.219873	1.846460	1.495480	-0.213640	-0.722715	0.074341	0.670042	-1.000000	-1.000000	-1.000000	-1.000000	-1.000000	-1.000000	-1.000000	51.000000	0.000000	-1.000000	-1.000000	162491.000000	1775803597.306304
-18725.355000	-39075.840000	-3849.300000	18907.965000	5065.470000	-14015.205000	-33562.215000	-16750.845000	5.133818	2.618601	-0.045500	-1.504129	1.390141	4.586586	5.865597	7.264418	1.846460	1.495480	-0.213640	-0.722715	0.074341	0.670042	-1.000000	-1.000000	-1.000000	-1.000000	-1.000000	-1.000000	-1.000000	51.000000	0.000000	-1.000000	-1.000000	162492.000000	1775803597.306332
-18722.745000	-39071.565000	-3844.260000	18909.540000	5070.870000	-14015.565000	-33563.250000	-16750.710000	4.953876	2.619899	0.156698	-0.770575	2.178091	5.588196	5.781528	7.465175	1.846460	1.495480	-0.213640	-0.722715	0.074341	0.670042	-1.000000	-1.000000	-1.000000	-1.000000	-1.000000	-1.000000	-1.000000	51.000000	0.000000	-1.000000	-1.000000	162493.000000	1775803597.306363
-18732.195000	-39078.405000	-3847.590000	18911.475000	5081.670000	-14018.265000	-33570.495000	-16762.050000	2.751482	1.295887	-0.257516	-0.331887	2.152727	4.024447	3.277229	4.640720	1.846460	1.495480	-0.213640	-0.722715	0.074341	0.670042	-1.000000	-1.000000	-1.000000	-1.000000	-1.000000	-1.000000	-1.000000	51.000000	0.000000	-1.000000	-1.000000	162494.000000	1775803597.306376
-18731.880000	-39077.325000	-3843.765000	18921.510000	5077.305000	-14018.625000	-33566.895000	-16760.700000	-0.600184	-0.582063	-0.559899	0.521541	2.461737	0.930758	-0.580562	-0.207089	1.846460	1.495480	-0.213640	-0.722715	0.074341	0.670042	-1.000000	-1.000000	-1.000000	-1.000000	-1.000000	-1.000000	-1.000000	51.000000	0.000000	-1.000000	-1.000000	162495.000000	1775803597.306477
-18728.100000	-39075.255000	-3844.395000	18917.595000	5067.720000	-14021.010000	-33563.925000	-16756.965000	-3.488267	-1.970122	-0.211102	2.197680	2.659984	-2.005285	-3.692633	-4.679242	1.846460	1.495480	-0.213640	-0.722715	0.074341	0.670042	-1.000000	-1.000000	-1.000000	-1.000000	-1.000000	-1.000000	-1.000000	51.000000	0.000000	-1.000000	-1.000000	162496.000000	1775803597.306493
-18728.190000	-39076.965000	-3848.895000	18909.360000	5061.645000	-14023.800000	-33563.970000	-16757.595000	-4.264305	-2.076084	0.525113	3.480626	1.223760	-3.571354	-4.365009	-6.281099	1.846460	1.495480	-0.213640	-0.722715	0.074341	0.670042	-1.000000	-1.000000	-1.000000	-1.000000	-1.000000	-1.000000	-1.000000	51.000000	0.000000	-1.000000	-1.000000	162497.000000	1775803597.306521
-18731.295000	-39075.120000	-3852.630000	18900.315000	5062.230000	-14029.065000	-33571.980000	-16764.660000	-2.769980	-1.002883	0.825437	2.573631	-1.748834	-3.580306	-2.898549	-4.703036	1.846460	1.495480	-0.213640	-0.722715	0.074341	0.670042	-1.000000	-1.000000	-1.000000	-1.000000	-1.000000	-1.000000	-1.000000	51.000000	0.000000	-1.000000	-1.000000	162498.000000	1775803597.306533
-18729.990000	-39075.255000	-3850.245000	18906.255000	5064.660000	-14025.555000	-33572.745000	-16763.940000	-0.424815	0.443508	0.343222	-0.415867	-4.093778	-2.467570	-1.069648	-1.811549	1.846460	1.495480	-0.213640	-0.722715	0.074341	0.670042	-1.000000	-1.000000	-1.000000	-1.000000	-1.000000	-1.000000	-1.000000	51.000000	0.000000	-1.000000	-1.000000	162499.000000	1775803597.306548
-18728.730000	-39073.815000	-3842.640000	18917.100000	5070.960000	-14013.180000	-33566.580000	-16760.340000	1.397800	1.506686	-0.123571	-2.866969	-3.784484	-0.388678	0.088436	0.705321	1.846460	1.495480	-0.213640	-0.722715	0.074341	0.670042	-1.000000	-1.000000	-1.000000	-1.000000	-1.000000	-1.000000	-1.000000	51.000000	0.000000	-1.000000	-1.000000	162500.000000	1775803597.306560
-18731.520000	-39076.155000	-3844.305000	18917.145000	5077.530000	-14013.090000	-33566.445000	-16762.050000	2.184650	1.770766	0.343675	-2.376482	-0.731624	2.539195	0.993748	2.411491	-0.396760	1.510740	-0.686700	-0.724791	0.078491	0.668822	-1.000000	-1.000000	-1.000000	-1.000000	-1.000000	-1.000000	-1.000000	51.000000	0.000000	-1.000000	-1.000000	162501.000000	1775803597.330613
-18728.190000	-39072.780000	-3842.640000	18919.170000	5081.940000	-14013.630000	-33563.655000	-16759.260000	1.979208	1.240092	1.396804	0.449241	3.277617	5.021420	2.031114	3.260873	-0.396760	1.510740	-0.686700	-0.724791	0.078491	0.668822	-1.000000	-1.000000	-1.000000	-1.000000	-1.000000	-1.000000	-1.000000	51.000000	0.000000	-1.000000	-1.000000	162502.000000	1775803597.330640
-18722.250000	-39068.280000	-3842.190000	18917.235000	5078.610000	-14011.650000	-33556.230000	-16751.700000	1.322949	0.449200	1.892771	2.908337	5.744064	5.243529	2.880592	3.310051	-0.396760	1.510740	-0.686700	-0.724791	0.078491	0.668822	-1.000000	-1.000000	-1.000000	-1.000000	-1.000000	-1.000000	-1.000000	51.000000	0.000000	-1.000000	-1.000000	162503.000000	1775803597.330673
-18725.130000	-39069.900000	-3843.405000	18917.370000	5074.470000	-14017.815000	-33559.470000	-16755.030000	0.853574	0.000701	1.255633	3.065540	4.912049	2.778016	3.078168	2.813858	-0.396760	1.510740	-0.686700	-0.724791	0.078491	0.668822	-1.000000	-1.000000	-1.000000	-1.000000	-1.000000	-1.000000	-1.000000	51.000000	0.000000	-1.000000	-1.000000	162504.000000	1775803597.330685
-18728.730000	-39072.465000	-3843.270000	18921.285000	5074.245000	-14020.470000	-33565.410000	-16759.800000	0.406410	-0.222635	-0.217234	1.120346	1.053649	-1.218688	2.052140	1.609218	-0.396760	1.510740	-0.686700	-0.724791	0.078491	0.668822	-1.000000	-1.000000	-1.000000	-1.000000	-1.000000	-1.000000	-1.000000	51.000000	0.000000	-1.000000	-1.000000	162505.000000	1775803597.330720
-18730.170000	-39073.320000	-3841.965000	18926.235000	5074.785000	-14020.695000	-33568.290000	-16762.590000	-0.590278	-0.741718	-1.711368	-1.187182	-3.500146	-4.846009	-0.452141	-0.603563	-0.396760	1.510740	-0.686700	-0.724791	0.078491	0.668822	-1.000000	-1.000000	-1.000000	-1.000000	-1.000000	-1.000000	-1.000000	51.000000	0.000000	-1.000000	-1.000000	162506.000000	1775803597.330731
-18731.925000	-39074.355000	-3841.920000	18914.220000	5067.945000	-14021.955000	-33569.865000	-16764.435000	-1.952468	-1.532185	-2.414266	-2.513588	-6.228544	-6.326628	-3.440962	-3.168679	-0.396760	1.510740	-0.686700	-0.724791	0.078491	0.668822	-1.000000	-1.000000	-1.000000	-1.000000	-1.000000	-1.000000	-1.000000	51.000000	0.000000	-1.000000	-1.000000	162507.000000	1775803597.330747
-18736.920000	-39081.240000	-3850.740000	18903.105000	5062.455000	-14022.180000	-33570.090000	-16764.795000	-2.889790	-2.131411	-2.237884	-3.267920	-6.344483	-5.072698	-5.136243	-4.679122	-0.396760	1.510740	-0.686700	-0.724791	0.078491	0.668822	-1.000000	-1.000000	-1.000000	-1.000000	-1.000000	-1.000000	-1.000000	51.000000	0.000000	-1.000000	-1.000000	162508.000000	1775803597.330758
-18740.565000	-39086.685000	-3858.480000	18894.105000	5059.035000	-14025.690000	-33573.015000	-16767.405000	-2.935377	-2.351181	-1.944865	-4.333243	-4.591112	-2.023430	-4.522194	-4.241667	-0.396760	1.510740	-0.686700	-0.724791	0.078491	0.668822	-1.000000	-1.000000	-1.000000	-1.000000	-1.000000	-1.000000	-1.000000	51.000000	0.000000	-1.000000	-1.000000	162509.000000	1775803597.330772
-18738.450000	-39085.695000	-3857.985000	18896.130000	5058.585000	-14025.825000	-33571.395000	-16765.470000	-2.046009	-2.119303	-1.996192	-5.069031	-1.888675	1.154062	-2.042633	-2.125327	-0.396760	1.510740	-0.686700	-0.724791	0.078491	0.668822	-1.000000	-1.000000	-1.000000	-1.000000	-1.000000	-1.000000	-1.000000	51.000000	0.000000	-1.000000	-1.000000	162510.000000	1775803597.330783
-18736.200000	-39084.255000	-3857.220000	18897.570000	5057.640000	-14025.015000	-33567.255000	-16761.600000	-0.251604	-1.045524	-1.671063	-3.749767	1.130420	3.239180	1.111561	0.728996	-3.235120	2.044840	0.152600	-0.727232	0.081543	0.667479	-1.000000	-1.000000	-1.000000	-1.000000	-1.000000	-1.000000	-1.000000	51.000000	0.000000	-1.000000	-1.000000	162511.000000	1775803597.330796
-18729.765000	-39076.470000	-3853.080000	18899.370000	5056.200000	-14025.780000	-33561.765000	-16755.480000	2.176759	1.128954	-0.049963	0.189680	3.778845	3.940087	3.900718	3.409292	-3.235120	2.044840	0.152600	-0.727232	0.081543	0.667479	-1.000000	-1.000000	-1.000000	-1.000000	-1.000000	-1.000000	-1.000000	51.000000	0.000000	-1.000000	-1.000000	162512.000000	1775803597.330807
-18730.710000	-39078.090000	-3850.065000	18904.815000	5058.360000	-14026.140000	-33564.465000	-16758.225000	4.394829	3.794936	2.660247	5.186076	5.322652	3.483539	5.457781	5.048955	-3.235120	2.044840	0.152600	-0.727232	0.081543	0.667479	-1.000000	-1.000000	-1.000000	-1.000000	-1.000000	-1.000000	-1.000000	51.000000	0.000000	-1.000000	-1.000000	162513.000000	1775803597.335195
-18735.390000	-39082.905000	-3853.260000	18903.375000	5058.720000	-14025.330000	-33569.910000	-16764.255000	5.085871	5.361270	5.044491	8.749938	5.430889	2.271762	4.900125	4.673664	-3.235120	2.044840	0.152600	-0.727232	0.081543	0.667479	-1.000000	-1.000000	-1.000000	-1.000000	-1.000000	-1.000000	-1.000000	51.000000	0.000000	-1.000000	-1.000000	162514.000000	1775803597.335221
-18740.250000	-39087.000000	-3858.165000	18897.570000	5055.075000	-14027.085000	-33573.915000	-16767.765000	3.326759	4.364198	5.387599	8.934105	4.189210	0.800216	2.006009	1.934936	-3.235120	2.044840	0.152600	-0.727232	0.081543	0.667479	-1.000000	-1.000000	-1.000000	-1.000000	-1.000000	-1.000000	-1.000000	51.000000	0.000000	-1.000000	-1.000000	162515.000000	1775803597.338298
-18736.740000	-39080.115000	-3856.050000	18900.180000	5057.910000	-14027.895000	-33569.865000	-16763.355000	-0.193908	1.203425	3.158378	5.444145	1.947195	-0.540195	-1.875128	-1.851112	-3.235120	2.044840	0.152600	-0.727232	0.081543	0.667479	-1.000000	-1.000000	-1.000000	-1.000000	-1.000000	-1.000000	-1.000000	51.000000	0.000000	-1.000000	-1.000000	162516.000000	1775803597.338324
-18734.130000	-39077.460000	-3850.290000	18906.930000	5052.105000	-14031.630000	-33571.125000	-16763.895000	-3.267420	-1.859245	-0.163838	0.291801	-0.592136	-1.563588	-4.448198	-4.329227	-3.235120	2.044840	0.152600	-0.727232	0.081543	0.667479	-1.000000	-1.000000	-1.000000	-1.000000	-1.000000	-1.000000	-1.000000	51.000000	0.000000	-1.000000	-1.000000	162517.000000	1775803597.346323
-18734.040000	-39076.515000	-3846.555000	18913.455000	5053.410000	-14028.705000	-33570.450000	-16765.515000	-4.071309	-2.962437	-2.331412	-3.491350	-2.653418	-2.109564	-4.432707	-4.239976	-3.235120	2.044840	0.152600	-0.727232	0.081543	0.667479	-1.000000	-1.000000	-1.000000	-1.000000	-1.000000	-1.000000	-1.000000	51.000000	0.000000	-1.000000	-1.000000	162518.000000	1775803597.346350
-18729.900000	-39071.070000	-3840.120000	18922.275000	5073.255000	-14019.930000	-33567.345000	-16761.555000	-2.626404	-2.145584	-2.336133	-4.246292	-3.293218	-1.752134	-2.347296	-2.224749	-3.235120	2.044840	0.152600	-0.727232	0.081543	0.667479	-1.000000	-1.000000	-1.000000	-1.000000	-1.000000	-1.000000	-1.000000	51.000000	0.000000	-1.000000	-1.000000	162519.000000	1775803597.346376
-18724.680000	-39066.030000	-3835.170000	18926.730000	5104.395000	-14008.185000	-33560.055000	-16754.445000	-0.164682	-0.490363	-0.841004	-2.572605	-1.118261	-0.019848	0.533052	0.465150	-3.235120	2.044840	0.152600	-0.727232	0.081543	0.667479	-1.000000	-1.000000	-1.000000	-1.000000	-1.000000	-1.000000	-1.000000	51.000000	0.000000	-1.000000	-1.000000	162520.000000	1775803597.346387
-18728.055000	-39073.005000	-3845.115000	18913.185000	5086.485000	-14015.835000	-33560.370000	-16754.940000	1.925086	0.800897	0.511967	-0.717233	3.378837	2.435386	3.016163	2.827204	-4.410140	2.136400	0.701960	-0.726805	0.079407	0.666685	-1.000000	-1.000000	-1.000000	-1.000000	-1.000000	-1.000000	-1.000000	51.000000	0.000000	-1.000000	-1.000000	162521.000000	1775803597.351043
-18735.435000	-39082.275000	-3855.645000	18901.935000	5065.875000	-14027.040000	-33568.200000	-16761.915000	2.359691	0.510681	-0.048666	-1.140707	5.593022	3.321369	3.868642	3.736606	-4.410140	2.136400	0.701960	-0.726805	0.079407	0.666685	-1.000000	-1.000000	-1.000000	-1.000000	-1.000000	-1.000000	-1.000000	51.000000	0.000000	-1.000000	-1.000000	162522.000000	1775803597.351071
-18727.020000	-39073.770000	-3845.970000	18914.085000	5076.450000	-14014.665000	-33560.730000	-16754.265000	0.837671	-1.452822	-2.578922	-3.865002	1.624693	1.199973	2.445892	2.519761	-4.410140	2.136400	0.701960	-0.726805	0.079407	0.666685	-1.000000	-1.000000	-1.000000	-1.000000	-1.000000	-1.000000	-1.000000	51.000000	0.000000	-1.000000	-1.000000	162523.000000	1775803597.353567
-18726.795000	-39068.280000	-3846.015000	18908.010000	5068.890000	-14014.755000	-33561.315000	-16756.965000	-1.164280	-3.102674	-4.602685	-5.861113	-5.836948	-2.089472	-0.169004	0.099447	-4.410140	2.136400	0.701960	-0.726805	0.079407	0.666685	-1.000000	-1.000000	-1.000000	-1.000000	-1.000000	-1.000000	-1.000000	51.000000	0.000000	-1.000000	-1.000000	162524.000000	1775803597.353596
-18730.485000	-39070.395000	-3842.865000	18911.655000	5069.025000	-14012.955000	-33562.215000	-16762.140000	-2.026818	-2.501968	-3.844161	-4.690067	-10.838838	-3.725067	-2.173428	-2.019013	-4.410140	2.136400	0.701960	-0.726805	0.079407	0.666685	-1.000000	-1.000000	-1.000000	-1.000000	-1.000000	-1.000000	-1.000000	51.000000	0.000000	-1.000000	-1.000000	162525.000000	1775803597.357308
-18731.520000	-39071.880000	-3839.355000	18916.695000	5072.715000	-14014.665000	-33562.080000	-16761.645000	-1.741922	-0.220180	-0.645139	-0.831184	-10.259078	-3.094668	-2.831471	-3.207540	-4.410140	2.136400	0.701960	-0.726805	0.079407	0.666685	-1.000000	-1.000000	-1.000000	-1.000000	-1.000000	-1.000000	-1.000000	51.000000	0.000000	-1.000000	-1.000000	162526.000000	1775803597.357334
-18727.155000	-39072.870000	-3843.540000	18913.905000	5074.155000	-14017.815000	-33556.140000	-16752.780000	-0.997621	1.716310	2.855695	3.597965	-4.819147	-1.469537	-2.281841	-3.121470	-4.410140	2.136400	0.701960	-0.726805	0.079407	0.666685	-1.000000	-1.000000	-1.000000	-1.000000	-1.000000	-1.000000	-1.000000	51.000000	0.000000	-1.000000	-1.000000	162527.000000	1775803597.368461
-18728.550000	-39075.165000	-3848.220000	18889.695000	5058.090000	-14020.605000	-33557.490000	-16754.175000	-0.038518	2.120655	4.444008	5.876159	2.074476	-0.253751	-0.875603	-1.447711	-4.410140	2.136400	0.701960	-0.726805	0.079407	0.666685	-1.000000	-1.000000	-1.000000	-1.000000	-1.000000	-1.000000	-1.000000	51.000000	0.000000	-1.000000	-1.000000	162528.000000	1775803597.368489
-18724.320000	-39069.000000	-3844.080000	18891.630000	5052.375000	-14021.280000	-33562.575000	-16753.185000	0.987894	1.329488	3.380611	4.155512	6.297663	0.087240	0.552122	1.036864	-4.410140	2.136400	0.701960	-0.726805	0.079407	0.666685	-1.000000	-1.000000	-1.000000	-1.000000	-1.000000	-1.000000	-1.000000	51.000000	0.000000	-1.000000	-1.000000	162529.000000	1775803597.368519
-18729.225000	-39072.510000	-3846.330000	18917.370000	5072.535000	-14030.145000	-33572.655000	-16760.520000	1.667468	0.440805	0.951111	0.439250	6.617991	-0.101185	0.807698	2.614715	-4.410140	2.136400	0.701960	-0.726805	0.079407	0.666685	-1.000000	-1.000000	-1.000000	-1.000000	-1.000000	-1.000000	-1.000000	51.000000	0.000000	-1.000000	-1.000000	162530.000000	1775803597.368532
-18730.440000	-39072.690000	-3843.360000	18933.075000	5088.780000	-14023.215000	-33570.360000	-16760.970000	1.503945	0.020316	-1.001801	-0.472268	5.815599	-0.272512	-0.400191	2.182715	-1.602300	1.632820	0.198380	-0.726317	0.073669	0.666624	-1.000000	-1.000000	-1.000000	-1.000000	-1.000000	-1.000000	-1.000000	51.000000	0.000000	-1.000000	-1.000000	162531.000000	1775803597.372686
-18723.645000	-39065.085000	-3835.710000	18927.405000	5081.535000	-14014.485000	-33561.945000	-16752.915000	0.583030	-0.009195	-1.448859	2.814211	6.219124	0.385333	-1.577903	0.439476	-1.602300	1.632820	0.198380	-0.726317	0.073669	0.666624	-1.000000	-1.000000	-1.000000	-1.000000	-1.000000	-1.000000	-1.000000	51.000000	0.000000	-1.000000	-1.000000	162532.000000	1775803597.372715
-18725.085000	-39065.940000	-3835.665000	18921.870000	5071.095000	-14017.680000	-33561.945000	-16753.590000	-0.211588	0.346971	-0.395625	6.048608	6.042530	2.235098	-0.892874	-0.764584	-1.602300	1.632820	0.198380	-0.726317	0.073669	0.666624	-1.000000	-1.000000	-1.000000	-1.000000	-1.000000	-1.000000	-1.000000	51.000000	0.000000	-1.000000	-1.000000	162533.000000	1775803597.375100
-18734.895000	-39075.570000	-3845.655000	18913.995000	5061.645000	-14024.430000	-33568.695000	-16762.455000	-0.524803	0.651382	0.888811	4.635467	2.394586	3.885971	1.338032	-0.739443	-1.602300	1.632820	0.198380	-0.726317	0.073669	0.666624	-1.000000	-1.000000	-1.000000	-1.000000	-1.000000	-1.000000	-1.000000	51.000000	0.000000	-1.000000	-1.000000	162534.000000	1775803597.375125
-18731.160000	-39073.230000	-3845.970000	18913.005000	5073.885000	-14020.200000	-33565.815000	-16759.080000	-0.933682	0.034082	0.720215	-1.345103	-3.876833	3.509813	2.994925	-0.453670	-1.602300	1.632820	0.198380	-0.726317	0.073669	0.666624	-1.000000	-1.000000	-1.000000	-1.000000	-1.000000	-1.000000	-1.000000	51.000000	0.000000	-1.000000	-1.000000	162535.000000	1775803597.377458
-18731.610000	-39074.265000	-3847.320000	18909.090000	5068.620000	-14021.370000	-33566.355000	-16758.135000	-1.419598	-1.299629	-0.982004	-7.836078	-8.543307	1.255981	2.870244	-0.471770	-1.602300	1.632820	0.198380	-0.726317	0.073669	0.666624	-1.000000	-1.000000	-1.000000	-1.000000	-1.000000	-1.000000	-1.000000	51.000000	0.000000	-1.000000	-1.000000	162536.000000	1775803597.377485
-18728.370000	-39070.710000	-3843.945000	18907.605000	5051.475000	-14025.330000	-33564.060000	-16755.345000	-1.195642	-2.047292	-2.535655	-10.759043	-9.033193	-1.285559	1.541008	-0.292786	-1.602300	1.632820	0.198380	-0.726317	0.073669	0.666624	-1.000000	-1.000000	-1.000000	-1.000000	-1.000000	-1.000000	-1.000000	51.000000	0.000000	-1.000000	-1.000000	162537.000000	1775803597.381296
-18734.895000	-39076.830000	-3847.680000	18908.865000	5053.770000	-14029.380000	-33568.560000	-16762.905000	-0.139830	-1.506928	-2.498095	-8.759359	-6.566803	-3.029824	0.028876	0.258213	-1.602300	1.632820	0.198380	-0.726317	0.073669	0.666624	-1.000000	-1.000000	-1.000000	-1.000000	-1.000000	-1.000000	-1.000000	51.000000	0.000000	-1.000000	-1.000000	162538.000000	1775803597.381323
-18735.120000	-39078.090000	-3846.330000	18917.370000	5078.475000	-14024.790000	-33568.155000	-16762.680000	0.868298	-0.313071	-0.991681	-3.091016	-2.529124	-3.569024	-1.167513	0.538208	-1.602300	1.632820	0.198380	-0.726317	0.073669	0.666624	-1.000000	-1.000000	-1.000000	-1.000000	-1.000000	-1.000000	-1.000000	51.000000	0.000000	-1.000000	-1.000000	162539.000000	1775803597.386612
-18730.755000	-39073.455000	-3842.505000	18917.370000	5079.420000	-14019.435000	-33565.905000	-16758.990000	1.195638	0.667859	0.963578	3.649389	3.116092	-2.539891	-1.810246	0.264520	-1.602300	1.632820	0.198380	-0.726317	0.073669	0.666624	-1.000000	-1.000000	-1.000000	-1.000000	-1.000000	-1.000000	-1.000000	51.000000	0.000000	-1.000000	-1.000000	162540.000000	1775803597.386639
-18728.190000	-39070.530000	-3837.690000	18919.305000	5083.245000	-14011.605000	-33562.755000	-16757.415000	1.219843	1.413743	2.619260	8.515323	8.760083	0.026767	-1.583013	0.077071	0.381500	1.526000	-0.366240	-0.727049	0.071533	0.666685	-1.000000	-1.000000	-1.000000	-1.000000	-1.000000	-1.000000	-1.000000	51.000000	0.000000	-1.000000	-1.000000	162541.000000	1775803597.390960
-18729.270000	-39074.220000	-3845.475000	18910.530000	5077.980000	-14011.245000	-33559.740000	-16756.650000	1.371077	2.045148	3.403473	9.350460	10.890569	3.035729	-0.473712	0.448890	0.381500	1.526000	-0.366240	-0.727049	0.071533	0.666685	-1.000000	-1.000000	-1.000000	-1.000000	-1.000000	-1.000000	-1.000000	51.000000	0.000000	-1.000000	-1.000000	162542.000000	1775803597.390989
-18729.810000	-39072.465000	-3843.315000	18913.950000	5076.945000	-14014.305000	-33562.665000	-16758.720000	1.327580	2.089230	2.665922	6.025819	7.671475	4.599496	0.843734	0.959525	0.381500	1.526000	-0.366240	-0.727049	0.071533	0.666685	-1.000000	-1.000000	-1.000000	-1.000000	-1.000000	-1.000000	-1.000000	51.000000	0.000000	-1.000000	-1.000000	162543.000000	1775803597.393553
-18734.220000	-39075.030000	-3844.260000	18914.850000	5074.110000	-14021.190000	-33566.310000	-16762.365000	0.575093	1.209888	0.589672	0.771507	0.768913	3.330881	1.308854	0.845189	0.381500	1.526000	-0.366240	-0.727049	0.071533	0.666685	-1.000000	-1.000000	-1.000000	-1.000000	-1.000000	-1.000000	-1.000000	51.000000	0.000000	-1.000000	-1.000000	162544.000000	1775803597.393577
-18730.575000	-39072.420000	-3843.720000	18908.820000	5062.815000	-14027.535000	-33567.930000	-16759.890000	-0.772587	-0.189158	-1.574111	-3.502731	-6.255251	-0.439147	0.408911	-0.084825	0.381500	1.526000	-0.366240	-0.727049	0.071533	0.666685	-1.000000	-1.000000	-1.000000	-1.000000	-1.000000	-1.000000	-1.000000	51.000000	0.000000	-1.000000	-1.000000	162545.000000	1775803597.397308
-18729.270000	-39072.420000	-3845.610000	18905.805000	5055.930000	-14032.080000	-33569.145000	-16758.810000	-1.832853	-1.314777	-2.711025	-5.447448	-10.576052	-4.698338	-1.197919	-1.097235	0.381500	1.526000	-0.366240	-0.727049	0.071533	0.666685	-1.000000	-1.000000	-1.000000	-1.000000	-1.000000	-1.000000	-1.000000	51.000000	0.000000	-1.000000	-1.000000	162546.000000	1775803597.397333
-18724.095000	-39067.920000	-3844.350000	18904.725000	5072.130000	-14018.535000	-33558.885000	-16750.845000	-1.728195	-1.567206	-2.571704	-5.263667	-10.648021	-6.740415	-2.087565	-1.196503	0.381500	1.526000	-0.366240	-0.727049	0.071533	0.666685	-1.000000	-1.000000	-1.000000	-1.000000	-1.000000	-1.000000	-1.000000	51.000000	0.000000	-1.000000	-1.000000	162547.000000	1775803597.460202
-18722.340000	-39062.430000	-3845.295000	18897.705000	5076.945000	-14010.840000	-33554.340000	-16749.045000	-0.457591	-0.821877	-1.523420	-3.643218	-5.876200	-4.640938	-1.126773	-0.080757	0.381500	1.526000	-0.366240	-0.727049	0.071533	0.666685	-1.000000	-1.000000	-1.000000	-1.000000	-1.000000	-1.000000	-1.000000	51.000000	0.000000	-1.000000	-1.000000	162548.000000	1775803597.460232
-18725.715000	-39060.180000	-3842.460000	18905.895000	5067.450000	-14011.740000	-33557.355000	-16754.940000	0.997917	0.521755	-0.131521	-1.306463	1.745936	0.772540	1.220632	1.324491	0.381500	1.526000	-0.366240	-0.727049	0.071533	0.666685	-1.000000	-1.000000	-1.000000	-1.000000	-1.000000	-1.000000	-1.000000	51.000000	0.000000	-1.000000	-1.000000	162549.000000	1775803597.460269
-18726.030000	-39060.270000	-3836.430000	18920.475000	5075.370000	-14009.895000	-33560.595000	-16757.640000	1.414500	1.561004	1.213729	1.588329	7.801848	5.892708	2.884353	1.472499	0.381500	1.526000	-0.366240	-0.727049	0.071533	0.666685	-1.000000	-1.000000	-1.000000	-1.000000	-1.000000	-1.000000	-1.000000	51.000000	0.000000	-1.000000	-1.000000	162550.000000	1775803597.460282
-18720.225000	-39054.240000	-3827.610000	18936.765000	5093.640000	-14004.630000	-33557.175000	-16752.960000	0.592735	1.532129	2.444761	5.193257	9.737381	7.551466	2.368240	0.014482	0.610400	1.587040	-0.747740	-0.726561	0.071228	0.666136	-1.000000	-1.000000	-1.000000	-1.000000	-1.000000	-1.000000	-1.000000	51.000000	0.000000	-1.000000	-1.000000	162551.000000	1775803597.460297
