Channel1	Channel2	Channel3	Channel4	Channel5	Channel6	Channel7	Channel8	FilteredChannel1	FilteredChannel2	FilteredChannel3	FilteredChannel4	FilteredChannel5	FilteredChannel6	FilteredChannel7	FilteredChannel8	GyroX	GyroY	GyroZ	AccX	AccY	AccZ	PPG1	PPG2	rawPPG1	rawPPG2	rawPPG3	Hr	Hrv	Battery	Trigger	PhysicalTrigger	AutoTrigger	NumMeasurements	Timestamp
-18187.830000	-33985.350000	-935.730000	20120.670000	5284.620000	-12491.550000	-35152.560000	-20549.115000	-3.896434	-3.283969	-1.156677	-3.961978	-5.652789	-2.389431	-2.899048	-4.684019	1.159760	0.824040	0.930860	-0.589781	0.139465	0.779661	-1.000000	-1.000000	-1.000000	-1.000000	-1.000000	-1.000000	-1.000000	51.000000	0.000000	-1.000000	-1.000000	218693.000000	1775803709.696406
-18199.080000	-33995.745000	-944.730000	20112.390000	5272.920000	-12505.095000	-35162.280000	-20560.680000	-4.097342	-2.546715	0.720708	-0.965822	-4.467276	0.052344	-3.788016	-5.700936	1.159760	0.824040	0.930860	-0.589781	0.139465	0.779661	-1.000000	-1.000000	-1.000000	-1.000000	-1.000000	-1.000000	-1.000000	51.000000	0.000000	-1.000000	-1.000000	218694.000000	1775803709.696432
-18211.545000	-34009.830000	-960.795000	20094.480000	5262.435000	-12517.245000	-35170.740000	-20570.940000	-3.642602	-1.679389	0.839522	1.322401	-3.397293	0.538546	-3.954844	-5.460766	1.159760	0.824040	0.930860	-0.589781	0.139465	0.779661	-1.000000	-1.000000	-1.000000	-1.000000	-1.000000	-1.000000	-1.000000	51.000000	0.000000	-1.000000	-1.000000	218695.000000	1775803709.696459
-18213.975000	-34019.190000	-978.705000	20075.265000	5258.835000	-12517.470000	-35166.150000	-20568.105000	-3.519564	-2.235780	-2.037027	0.170970	-3.425463	-1.595404	-3.793056	-4.632347	1.159760	0.824040	0.930860	-0.589781	0.139465	0.779661	-1.000000	-1.000000	-1.000000	-1.000000	-1.000000	-1.000000	-1.000000	51.000000	0.000000	-1.000000	-1.000000	218696.000000	1775803709.696471
-18215.595000	-34020.405000	-979.695000	20073.060000	5252.580000	-12522.015000	-35167.770000	-20570.040000	-3.095234	-3.571916	-6.280045	-3.759934	-3.497957	-3.977384	-2.595919	-2.743775	1.159760	0.824040	0.930860	-0.589781	0.139465	0.779661	-1.000000	-1.000000	-1.000000	-1.000000	-1.000000	-1.000000	-1.000000	51.000000	0.000000	-1.000000	-1.000000	218697.000000	1775803709.698215
-18217.215000	-34019.505000	-975.240000	20078.955000	5250.960000	-12526.695000	-35172.855000	-20574.630000	-1.149557	-3.401497	-8.021790	-6.413648	-2.122278	-3.999645	-0.015259	0.505445	1.159760	0.824040	0.930860	-0.589781	0.139465	0.779661	-1.000000	-1.000000	-1.000000	-1.000000	-1.000000	-1.000000	-1.000000	51.000000	0.000000	-1.000000	-1.000000	218698.000000	1775803709.698236
-18211.545000	-34014.375000	-969.840000	20085.030000	5254.695000	-12520.710000	-35167.455000	-20568.915000	2.326913	-0.341675	-4.490322	-4.088954	1.043581	-1.218229	2.917989	4.087812	1.159760	0.824040	0.930860	-0.589781	0.139465	0.779661	-1.000000	-1.000000	-1.000000	-1.000000	-1.000000	-1.000000	-1.000000	51.000000	0.000000	-1.000000	-1.000000	218699.000000	1775803709.806099
-18207.000000	-34008.615000	-965.655000	20087.595000	5255.955000	-12513.510000	-35161.065000	-20563.515000	6.137275	4.685538	3.147124	2.791779	5.101540	3.218167	5.139230	6.784029	1.159760	0.824040	0.930860	-0.589781	0.139465	0.779661	-1.000000	-1.000000	-1.000000	-1.000000	-1.000000	-1.000000	-1.000000	51.000000	0.000000	-1.000000	-1.000000	218700.000000	1775803709.806127
-18213.840000	-34011.900000	-966.420000	20089.080000	5252.175000	-12517.695000	-35167.455000	-20573.010000	8.511394	9.043677	10.555172	10.001508	8.255628	7.393562	6.118945	7.743069	0.808780	0.167860	0.885080	-0.590697	0.139831	0.780516	-1.000000	-1.000000	-1.000000	-1.000000	-1.000000	-1.000000	-1.000000	51.000000	0.000000	-1.000000	-1.000000	218701.000000	1775803709.806158
-18222.345000	-34020.315000	-974.070000	20082.600000	5244.435000	-12526.335000	-35174.385000	-20581.200000	7.667160	9.892634	13.369571	13.002573	8.572503	8.840653	5.088166	6.009195	0.808780	0.167860	0.885080	-0.590697	0.139831	0.780516	-1.000000	-1.000000	-1.000000	-1.000000	-1.000000	-1.000000	-1.000000	51.000000	0.000000	-1.000000	-1.000000	218702.000000	1775803709.806172
-18218.970000	-34018.965000	-976.230000	20075.085000	5239.845000	-12526.245000	-35173.575000	-20577.915000	3.427132	6.241758	10.001378	9.913114	5.418307	6.194455	1.832326	1.717735	0.808780	0.167860	0.885080	-0.590697	0.139831	0.780516	-1.000000	-1.000000	-1.000000	-1.000000	-1.000000	-1.000000	-1.000000	51.000000	0.000000	-1.000000	-1.000000	218703.000000	1775803709.806469
-18213.570000	-34015.140000	-973.305000	20079.270000	5244.255000	-12524.940000	-35175.330000	-20572.965000	-1.723858	0.222011	2.672905	2.527731	0.425646	0.968743	-2.102634	-2.732998	0.808780	0.167860	0.885080	-0.590697	0.139831	0.780516	-1.000000	-1.000000	-1.000000	-1.000000	-1.000000	-1.000000	-1.000000	51.000000	0.000000	-1.000000	-1.000000	218704.000000	1775803709.806489
-18207.855000	-34010.145000	-966.780000	20088.630000	5254.065000	-12524.085000	-35170.380000	-20567.205000	-4.572798	-4.504928	-4.178824	-4.667756	-3.306746	-3.608889	-4.456175	-4.537449	0.808780	0.167860	0.885080	-0.590697	0.139831	0.780516	-1.000000	-1.000000	-1.000000	-1.000000	-1.000000	-1.000000	-1.000000	51.000000	0.000000	-1.000000	-1.000000	218705.000000	1775803709.806512
-18202.905000	-34005.600000	-960.570000	20095.650000	5265.180000	-12514.140000	-35161.830000	-20562.480000	-3.994290	-5.743702	-7.114999	-7.633735	-3.531334	-5.223389	-3.968268	-3.066760	0.808780	0.167860	0.885080	-0.590697	0.139831	0.780516	-1.000000	-1.000000	-1.000000	-1.000000	-1.000000	-1.000000	-1.000000	51.000000	0.000000	-1.000000	-1.000000	218706.000000	1775803709.806523
-18194.670000	-33995.970000	-954.000000	20103.840000	5284.980000	-12500.730000	-35157.195000	-20554.380000	-1.291019	-3.825135	-5.713207	-5.698785	-0.436902	-3.431774	-1.040194	0.061248	0.808780	0.167860	0.885080	-0.590697	0.139831	0.780516	-1.000000	-1.000000	-1.000000	-1.000000	-1.000000	-1.000000	-1.000000	51.000000	0.000000	-1.000000	-1.000000	218707.000000	1775803709.806542
-18177.345000	-33971.715000	-943.830000	20105.235000	5287.860000	-12487.230000	-35139.600000	-20535.480000	1.644827	-0.222035	-1.967427	-1.422586	3.640825	0.611266	2.672073	2.931613	0.808780	0.167860	0.885080	-0.590697	0.139831	0.780516	-1.000000	-1.000000	-1.000000	-1.000000	-1.000000	-1.000000	-1.000000	51.000000	0.000000	-1.000000	-1.000000	218708.000000	1775803709.806553
-18181.260000	-33979.545000	-939.645000	20115.540000	5291.955000	-12485.160000	-35144.370000	-20541.690000	3.449199	3.342675	1.574554	1.950820	5.496112	4.462593	5.226263	4.347654	0.808780	0.167860	0.885080	-0.590697	0.139831	0.780516	-1.000000	-1.000000	-1.000000	-1.000000	-1.000000	-1.000000	-1.000000	51.000000	0.000000	-1.000000	-1.000000	218709.000000	1775803709.806564
-18178.020000	-33975.585000	-930.870000	20127.510000	5301.405000	-12479.490000	-35146.125000	-20541.960000	2.964538	4.501303	3.157619	2.980994	3.348658	5.475811	4.879830	3.217353	0.808780	0.167860	0.885080	-0.590697	0.139831	0.780516	-1.000000	-1.000000	-1.000000	-1.000000	-1.000000	-1.000000	-1.000000	51.000000	0.000000	-1.000000	-1.000000	218710.000000	1775803709.806574
-18175.050000	-33971.175000	-926.595000	20130.120000	5299.560000	-12481.470000	-35145.945000	-20540.790000	-0.022087	1.948575	2.409100	2.172256	-1.631606	2.677408	1.163212	-0.660691	-1.129240	-0.152600	1.785420	-0.588194	0.140503	0.781553	-1.000000	-1.000000	-1.000000	-1.000000	-1.000000	-1.000000	-1.000000	51.000000	0.000000	-1.000000	-1.000000	218711.000000	1775803709.807399
-18173.970000	-33971.805000	-927.855000	20126.835000	5290.605000	-12486.690000	-35142.615000	-20537.730000	-3.889930	-2.685393	0.030993	0.180612	-6.971296	-2.635300	-3.935171	-5.288279	-1.129240	-0.152600	1.785420	-0.588194	0.140503	0.781553	-1.000000	-1.000000	-1.000000	-1.000000	-1.000000	-1.000000	-1.000000	51.000000	0.000000	-1.000000	-1.000000	218712.000000	1775803709.807412
-18174.780000	-33976.980000	-932.940000	20122.875000	5286.465000	-12488.625000	-35140.950000	-20536.245000	-6.515734	-6.668027	-3.061946	-2.777062	-10.834416	-7.944565	-7.318439	-7.878959	-1.129240	-0.152600	1.785420	-0.588194	0.140503	0.781553	-1.000000	-1.000000	-1.000000	-1.000000	-1.000000	-1.000000	-1.000000	51.000000	0.000000	-1.000000	-1.000000	218713.000000	1775803709.807424
-18177.210000	-33983.550000	-938.115000	20122.470000	5292.360000	-12484.980000	-35140.140000	-20536.380000	-6.896817	-8.492782	-5.966099	-5.884702	-11.745102	-10.619813	-7.308240	-7.192038	-1.129240	-0.152600	1.785420	-0.588194	0.140503	0.781553	-1.000000	-1.000000	-1.000000	-1.000000	-1.000000	-1.000000	-1.000000	51.000000	0.000000	-1.000000	-1.000000	218714.000000	1775803709.807435
-18175.635000	-33981.030000	-937.665000	20123.055000	5294.160000	-12482.865000	-35139.465000	-20533.815000	-5.237704	-7.821844	-7.514798	-7.478309	-8.606756	-9.072784	-4.485282	-4.013889	-1.129240	-0.152600	1.785420	-0.588194	0.140503	0.781553	-1.000000	-1.000000	-1.000000	-1.000000	-1.000000	-1.000000	-1.000000	51.000000	0.000000	-1.000000	-1.000000	218715.000000	1775803709.807448
-18169.155000	-33965.910000	-920.565000	20132.730000	5303.475000	-12478.500000	-35136.405000	-20529.180000	-2.171022	-4.472077	-6.274475	-6.133582	-2.024648	-3.863223	-0.644579	0.002786	-1.129240	-0.152600	1.785420	-0.588194	0.140503	0.781553	-1.000000	-1.000000	-1.000000	-1.000000	-1.000000	-1.000000	-1.000000	51.000000	0.000000	-1.000000	-1.000000	218716.000000	1775803709.807460
-18173.790000	-33970.590000	-927.720000	20125.485000	5297.400000	-12478.770000	-35136.990000	-20533.095000	1.451583	1.127178	-1.794208	-2.030083	5.291626	2.514218	2.550017	3.321826	-1.129240	-0.152600	1.785420	-0.588194	0.140503	0.781553	-1.000000	-1.000000	-1.000000	-1.000000	-1.000000	-1.000000	-1.000000	51.000000	0.000000	-1.000000	-1.000000	218717.000000	1775803709.807473
-18182.205000	-33977.925000	-933.120000	20121.300000	5286.375000	-12487.230000	-35140.095000	-20540.655000	4.094726	6.455041	3.635850	2.550807	9.688482	6.980428	4.058182	4.635204	-1.129240	-0.152600	1.785420	-0.588194	0.140503	0.781553	-1.000000	-1.000000	-1.000000	-1.000000	-1.000000	-1.000000	-1.000000	51.000000	0.000000	-1.000000	-1.000000	218718.000000	1775803709.807484
-18196.245000	-33989.130000	-943.650000	20109.960000	5263.425000	-12503.295000	-35151.840000	-20553.750000	4.139229	8.124083	6.357308	4.834511	8.595409	7.309683	3.408967	3.234041	-1.129240	-0.152600	1.785420	-0.588194	0.140503	0.781553	-1.000000	-1.000000	-1.000000	-1.000000	-1.000000	-1.000000	-1.000000	51.000000	0.000000	-1.000000	-1.000000	218719.000000	1775803709.807498
-18193.410000	-33979.590000	-936.765000	20112.480000	5254.020000	-12507.705000	-35159.265000	-20556.630000	1.685389	5.457714	5.130743	4.039652	2.585725	3.552813	0.855343	-0.110868	-1.129240	-0.152600	1.785420	-0.588194	0.140503	0.781553	-1.000000	-1.000000	-1.000000	-1.000000	-1.000000	-1.000000	-1.000000	51.000000	0.000000	-1.000000	-1.000000	218720.000000	1775803709.807510
-18188.460000	-33989.850000	-945.135000	20113.200000	5282.190000	-12494.655000	-35151.570000	-20550.240000	-0.814010	1.187959	2.005882	1.924137	-3.729267	-1.175134	-2.023509	-2.925646	0.015260	-0.076300	2.762060	-0.584776	0.141296	0.780699	-1.000000	-1.000000	-1.000000	-1.000000	-1.000000	-1.000000	-1.000000	51.000000	0.000000	-1.000000	-1.000000	218721.000000	1775803709.807522
-18192.465000	-33997.230000	-951.840000	20103.795000	5295.420000	-12494.565000	-35150.760000	-20551.095000	-0.893714	-1.940332	-0.593098	0.607132	-4.389519	-2.802863	-2.816073	-2.743806	0.015260	-0.076300	2.762060	-0.584776	0.141296	0.780699	-1.000000	-1.000000	-1.000000	-1.000000	-1.000000	-1.000000	-1.000000	51.000000	0.000000	-1.000000	-1.000000	218722.000000	1775803709.807533
-18189.945000	-33990.300000	-945.405000	20107.620000	5287.365000	-12497.220000	-35150.805000	-20549.520000	1.283071	-3.079850	-1.690830	0.521719	1.540404	-0.416267	-0.669118	0.436901	0.015260	-0.076300	2.762060	-0.584776	0.141296	0.780699	-1.000000	-1.000000	-1.000000	-1.000000	-1.000000	-1.000000	-1.000000	51.000000	0.000000	-1.000000	-1.000000	218723.000000	1775803709.807547
-18186.435000	-33986.565000	-942.120000	20112.390000	5288.040000	-12494.340000	-35150.445000	-20548.845000	3.742505	-2.032683	-0.945964	1.220072	8.223089	3.192797	2.690750	4.241930	0.015260	-0.076300	2.762060	-0.584776	0.141296	0.780699	-1.000000	-1.000000	-1.000000	-1.000000	-1.000000	-1.000000	-1.000000	51.000000	0.000000	-1.000000	-1.000000	218724.000000	1775803709.807558
-18175.770000	-33975.495000	-931.185000	20123.190000	5293.215000	-12484.170000	-35141.355000	-20538.720000	5.084101	0.958317	1.487798	2.555587	9.767002	5.235696	5.018973	6.402008	0.015260	-0.076300	2.762060	-0.584776	0.141296	0.780699	-1.000000	-1.000000	-1.000000	-1.000000	-1.000000	-1.000000	-1.000000	51.000000	0.000000	-1.000000	-1.000000	218725.000000	1775803709.807571
-18168.705000	-33968.745000	-925.965000	20124.495000	5292.495000	-12480.930000	-35137.980000	-20532.555000	5.117721	4.548099	4.436358	4.090109	5.635815	5.144663	5.475228	6.356490	0.015260	-0.076300	2.762060	-0.584776	0.141296	0.780699	-1.000000	-1.000000	-1.000000	-1.000000	-1.000000	-1.000000	-1.000000	51.000000	0.000000	-1.000000	-1.000000	218726.000000	1775803709.807582
-18162.270000	-33962.625000	-920.385000	20131.470000	5303.160000	-12468.690000	-35129.745000	-20524.455000	4.045789	6.781280	6.137293	4.668934	-0.769456	3.629255	4.367618	4.714482	0.015260	-0.076300	2.762060	-0.584776	0.141296	0.780699	-1.000000	-1.000000	-1.000000	-1.000000	-1.000000	-1.000000	-1.000000	51.000000	0.000000	-1.000000	-1.000000	218727.000000	1775803709.807595
-18161.280000	-33959.520000	-915.030000	20141.235000	5310.990000	-12464.595000	-35127.900000	-20523.600000	1.870157	6.189352	5.330768	3.515620	-5.540879	1.526594	2.262267	2.103991	0.015260	-0.076300	2.762060	-0.584776	0.141296	0.780699	-1.000000	-1.000000	-1.000000	-1.000000	-1.000000	-1.000000	-1.000000	51.000000	0.000000	-1.000000	-1.000000	218728.000000	1775803709.807607
-18160.830000	-33958.395000	-912.915000	20142.360000	5313.645000	-12468.330000	-35128.845000	-20523.195000	-1.327000	2.695895	2.137343	1.034788	-6.724477	-0.828543	-0.424045	-1.144048	0.015260	-0.076300	2.762060	-0.584776	0.141296	0.780699	-1.000000	-1.000000	-1.000000	-1.000000	-1.000000	-1.000000	-1.000000	51.000000	0.000000	-1.000000	-1.000000	218729.000000	1775803709.807620
-18161.100000	-33959.115000	-913.860000	20140.470000	5313.105000	-12471.165000	-35127.495000	-20522.430000	-4.856258	-2.339102	-2.195069	-2.034603	-5.214075	-3.643145	-3.308489	-4.527656	0.015260	-0.076300	2.762060	-0.584776	0.141296	0.780699	-1.000000	-1.000000	-1.000000	-1.000000	-1.000000	-1.000000	-1.000000	51.000000	0.000000	-1.000000	-1.000000	218730.000000	1775803709.807631
-18165.780000	-33963.885000	-918.855000	20136.420000	5307.120000	-12474.720000	-35131.050000	-20527.020000	-7.539076	-6.956717	-6.202759	-5.193185	-3.341034	-6.609994	-5.686230	-7.123987	0.564620	-0.152600	2.426340	-0.584410	0.140503	0.780455	-1.000000	-1.000000	-1.000000	-1.000000	-1.000000	-1.000000	-1.000000	51.000000	0.000000	-1.000000	-1.000000	218731.000000	1775803709.807646
-18164.115000	-33962.265000	-916.605000	20140.335000	5311.755000	-12468.375000	-35127.360000	-20524.140000	-8.353780	-9.487223	-8.633131	-7.577508	-2.553617	-8.306558	-6.679384	-8.017334	0.564620	-0.152600	2.426340	-0.584410	0.140503	0.780455	-1.000000	-1.000000	-1.000000	-1.000000	-1.000000	-1.000000	-1.000000	51.000000	0.000000	-1.000000	-1.000000	218732.000000	1775803709.807656
-18164.790000	-33961.050000	-915.075000	20140.695000	5309.280000	-12470.985000	-35129.250000	-20525.850000	-6.833211	-8.959250	-8.485339	-7.894176	-2.436891	-7.268608	-5.754514	-6.735140	0.564620	-0.152600	2.426340	-0.584410	0.140503	0.780455	-1.000000	-1.000000	-1.000000	-1.000000	-1.000000	-1.000000	-1.000000	51.000000	0.000000	-1.000000	-1.000000	218733.000000	1775803709.807669
-18172.665000	-33966.585000	-920.880000	20133.495000	5302.035000	-12479.220000	-35137.665000	-20536.470000	-3.491627	-5.616134	-5.687897	-5.737218	-2.024336	-3.788981	-3.358727	-3.801816	0.564620	-0.152600	2.426340	-0.584410	0.140503	0.780455	-1.000000	-1.000000	-1.000000	-1.000000	-1.000000	-1.000000	-1.000000	51.000000	0.000000	-1.000000	-1.000000	218734.000000	1775803709.807680
-18182.925000	-33978.195000	-933.795000	20119.095000	5293.080000	-12485.385000	-35144.190000	-20544.930000	0.001583	-1.303982	-1.837241	-2.550019	-1.312635	0.011673	-0.912236	-0.831595	0.564620	-0.152600	2.426340	-0.584410	0.140503	0.780455	-1.000000	-1.000000	-1.000000	-1.000000	-1.000000	-1.000000	-1.000000	51.000000	0.000000	-1.000000	-1.000000	218735.000000	1775803709.807692
-18189.585000	-33984.495000	-940.230000	20113.380000	5286.060000	-12490.425000	-35147.340000	-20550.555000	2.033290	1.717073	0.896734	-0.293242	-0.786365	2.318639	0.552499	0.915173	0.564620	-0.152600	2.426340	-0.584410	0.140503	0.780455	-1.000000	-1.000000	-1.000000	-1.000000	-1.000000	-1.000000	-1.000000	51.000000	0.000000	-1.000000	-1.000000	218736.000000	1775803709.807705
-18191.385000	-33987.465000	-943.515000	20110.860000	5279.445000	-12495.645000	-35148.870000	-20552.535000	2.524650	2.752774	1.879517	0.711377	-0.398884	2.974222	1.311042	1.701030	0.564620	-0.152600	2.426340	-0.584410	0.140503	0.780455	-1.000000	-1.000000	-1.000000	-1.000000	-1.000000	-1.000000	-1.000000	51.000000	0.000000	-1.000000	-1.000000	218737.000000	1775803709.807718
-18199.215000	-33996.510000	-952.290000	20101.545000	5275.530000	-12500.595000	-35154.720000	-20560.050000	2.567506	2.748561	2.113050	1.559177	0.351136	2.798570	2.082137	2.457146	0.564620	-0.152600	2.426340	-0.584410	0.140503	0.780455	-1.000000	-1.000000	-1.000000	-1.000000	-1.000000	-1.000000	-1.000000	51.000000	0.000000	-1.000000	-1.000000	218738.000000	1775803709.807729
-18199.845000	-33997.680000	-953.370000	20100.060000	5276.160000	-12499.740000	-35153.865000	-20560.050000	2.916321	2.713667	2.558470	2.866113	1.835074	2.623091	2.987115	3.472505	0.564620	-0.152600	2.426340	-0.584410	0.140503	0.780455	-1.000000	-1.000000	-1.000000	-1.000000	-1.000000	-1.000000	-1.000000	51.000000	0.000000	-1.000000	-1.000000	218739.000000	1775803709.807742
-18187.920000	-33986.205000	-942.660000	20110.590000	5278.770000	-12493.980000	-35145.405000	-20547.765000	3.799050	3.285033	3.656724	4.572238	3.962871	3.032721	3.896304	4.666125	0.564620	-0.152600	2.426340	-0.584410	0.140503	0.780455	-1.000000	-1.000000	-1.000000	-1.000000	-1.000000	-1.000000	-1.000000	51.000000	0.000000	-1.000000	-1.000000	218740.000000	1775803709.807754
-18179.190000	-33976.845000	-933.975000	20118.060000	5276.025000	-12492.225000	-35141.670000	-20540.385000	5.398797	4.955272	5.639736	6.650446	5.975079	4.101256	4.851037	6.150761	0.595140	0.122080	1.983800	-0.589415	0.141296	0.781004	-1.000000	-1.000000	-1.000000	-1.000000	-1.000000	-1.000000	-1.000000	51.000000	0.000000	-1.000000	-1.000000	218741.000000	1775803709.807766
-18180.855000	-33976.980000	-933.345000	20117.700000	5272.605000	-12497.310000	-35146.305000	-20543.940000	6.979637	7.045511	7.713383	8.354019	6.569173	4.885874	5.289317	7.232413	0.595140	0.122080	1.983800	-0.589415	0.141296	0.781004	-1.000000	-1.000000	-1.000000	-1.000000	-1.000000	-1.000000	-1.000000	51.000000	0.000000	-1.000000	-1.000000	218742.000000	1775803709.807778
-18185.895000	-33979.590000	-933.300000	20118.870000	5278.365000	-12495.690000	-35147.925000	-20549.475000	6.510779	7.353228	7.858337	7.943952	5.032272	4.032457	3.994098	6.058392	0.595140	0.122080	1.983800	-0.589415	0.141296	0.781004	-1.000000	-1.000000	-1.000000	-1.000000	-1.000000	-1.000000	-1.000000	51.000000	0.000000	-1.000000	-1.000000	218743.000000	1775803709.807791
-18193.005000	-33989.670000	-946.170000	20106.450000	5285.295000	-12491.730000	-35148.600000	-20554.380000	2.610891	4.092364	4.506148	4.243965	2.283370	1.461411	0.706642	1.664487	0.595140	0.122080	1.983800	-0.589415	0.141296	0.781004	-1.000000	-1.000000	-1.000000	-1.000000	-1.000000	-1.000000	-1.000000	51.000000	0.000000	-1.000000	-1.000000	218744.000000	1775803709.807802
-18188.145000	-33986.430000	-944.595000	20105.055000	5282.055000	-12492.945000	-35147.790000	-20550.870000	-3.433621	-2.005805	-1.756427	-2.017706	-0.173898	-1.445346	-3.104801	-4.266505	0.595140	0.122080	1.983800	-0.589415	0.141296	0.781004	-1.000000	-1.000000	-1.000000	-1.000000	-1.000000	-1.000000	-1.000000	51.000000	0.000000	-1.000000	-1.000000	218745.000000	1775803709.807814
-18183.150000	-33980.175000	-936.045000	20117.430000	5285.250000	-12487.995000	-35141.850000	-20545.605000	-8.155066	-7.617596	-7.783353	-7.883897	-1.899126	-3.354262	-5.392107	-8.358877	0.595140	0.122080	1.983800	-0.589415	0.141296	0.781004	-1.000000	-1.000000	-1.000000	-1.000000	-1.000000	-1.000000	-1.000000	51.000000	0.000000	-1.000000	-1.000000	218746.000000	1775803709.807825
-18190.080000	-33986.385000	-943.920000	20110.770000	5281.740000	-12489.930000	-35142.390000	-20550.645000	-8.942379	-9.507035	-10.081892	-9.933592	-3.210958	-3.830697	-5.085210	-8.441931	0.595140	0.122080	1.983800	-0.589415	0.141296	0.781004	-1.000000	-1.000000	-1.000000	-1.000000	-1.000000	-1.000000	-1.000000	51.000000	0.000000	-1.000000	-1.000000	218747.000000	1775803709.807837
-18196.020000	-33992.145000	-950.220000	20104.965000	5280.795000	-12497.400000	-35154.045000	-20556.900000	-6.410278	-7.525979	-8.213129	-7.704519	-4.232219	-3.396858	-3.069668	-5.442021	0.595140	0.122080	1.983800	-0.589415	0.141296	0.781004	-1.000000	-1.000000	-1.000000	-1.000000	-1.000000	-1.000000	-1.000000	51.000000	0.000000	-1.000000	-1.000000	218748.000000	1775803709.807848
-18192.465000	-33988.815000	-945.675000	20111.130000	5290.515000	-12490.965000	-35151.750000	-20554.515000	-2.911087	-3.856382	-4.370536	-3.607403	-4.533492	-2.860432	-1.330799	-1.885069	0.595140	0.122080	1.983800	-0.589415	0.141296	0.781004	-1.000000	-1.000000	-1.000000	-1.000000	-1.000000	-1.000000	-1.000000	51.000000	0.000000	-1.000000	-1.000000	218749.000000	1775803709.807862
-18182.745000	-33976.305000	-929.790000	20126.025000	5296.635000	-12487.095000	-35148.420000	-20548.080000	0.366738	0.004672	-0.078377	0.565936	-3.302861	-2.091061	-0.554265	0.902864	0.595140	0.122080	1.983800	-0.589415	0.141296	0.781004	-1.000000	-1.000000	-1.000000	-1.000000	-1.000000	-1.000000	-1.000000	51.000000	0.000000	-1.000000	-1.000000	218750.000000	1775803709.807872
-18182.430000	-33975.405000	-931.185000	20126.385000	5299.515000	-12486.825000	-35150.670000	-20548.530000	3.411490	3.714524	4.242594	4.368877	-0.565680	-0.537859	0.128893	3.014072	0.595140	-0.259420	1.251320	-0.592467	0.142395	0.779783	-1.000000	-1.000000	-1.000000	-1.000000	-1.000000	-1.000000	-1.000000	51.000000	0.000000	-1.000000	-1.000000	218751.000000	1775803709.807886
-18175.140000	-33971.850000	-932.265000	20124.405000	5302.755000	-12476.520000	-35141.220000	-20538.630000	5.708595	6.409763	7.239793	6.691625	2.197137	1.510837	1.323091	4.489897	0.595140	-0.259420	1.251320	-0.592467	0.142395	0.779783	-1.000000	-1.000000	-1.000000	-1.000000	-1.000000	-1.000000	-1.000000	51.000000	0.000000	-1.000000	-1.000000	218752.000000	1775803709.807897
-18170.820000	-33966.090000	-927.270000	20126.475000	5298.750000	-12477.420000	-35139.375000	-20535.300000	6.330630	6.824393	7.139647	6.017881	3.255216	3.211504	2.833325	5.065264	0.595140	-0.259420	1.251320	-0.592467	0.142395	0.779783	-1.000000	-1.000000	-1.000000	-1.000000	-1.000000	-1.000000	-1.000000	51.000000	0.000000	-1.000000	-1.000000	218753.000000	1775803709.809614
-18168.120000	-33961.905000	-929.430000	20126.430000	5292.045000	-12474.270000	-35132.895000	-20532.870000	4.969195	4.832215	4.010593	2.547864	1.855981	3.703406	4.003485	4.463275	0.595140	-0.259420	1.251320	-0.592467	0.142395	0.779783	-1.000000	-1.000000	-1.000000	-1.000000	-1.000000	-1.000000	-1.000000	51.000000	0.000000	-1.000000	-1.000000	218754.000000	1775803709.809635
-18169.155000	-33965.775000	-935.235000	20124.900000	5293.260000	-12470.355000	-35129.655000	-20533.320000	2.012077	1.392232	-0.485191	-1.767694	-1.251607	2.604923	4.072579	2.467378	0.595140	-0.259420	1.251320	-0.592467	0.142395	0.779783	-1.000000	-1.000000	-1.000000	-1.000000	-1.000000	-1.000000	-1.000000	51.000000	0.000000	-1.000000	-1.000000	218755.000000	1775803709.813161
-18175.275000	-33969.600000	-927.315000	20124.360000	5300.820000	-12465.990000	-35129.295000	-20537.370000	-1.787822	-2.489465	-4.428355	-4.920840	-3.852473	0.561753	2.699505	-0.687723	0.595140	-0.259420	1.251320	-0.592467	0.142395	0.779783	-1.000000	-1.000000	-1.000000	-1.000000	-1.000000	-1.000000	-1.000000	51.000000	0.000000	-1.000000	-1.000000	218756.000000	1775803709.813188
-18178.560000	-33973.605000	-924.840000	20127.510000	5302.845000	-12476.880000	-35136.225000	-20541.735000	-5.419642	-5.866911	-6.024197	-5.792879	-3.814418	-1.549152	0.010015	-4.138514	0.595140	-0.259420	1.251320	-0.592467	0.142395	0.779783	-1.000000	-1.000000	-1.000000	-1.000000	-1.000000	-1.000000	-1.000000	51.000000	0.000000	-1.000000	-1.000000	218757.000000	1775803709.818389
-18181.440000	-33974.640000	-930.510000	20124.630000	5297.580000	-12497.985000	-35149.815000	-20547.855000	-7.625224	-7.606038	-4.753156	-4.356035	-1.277168	-3.863723	-3.597139	-6.698670	0.595140	-0.259420	1.251320	-0.592467	0.142395	0.779783	-1.000000	-1.000000	-1.000000	-1.000000	-1.000000	-1.000000	-1.000000	51.000000	0.000000	-1.000000	-1.000000	218758.000000	1775803709.818417
-18189.315000	-33981.390000	-937.710000	20117.205000	5289.345000	-12500.730000	-35156.835000	-20555.910000	-7.471301	-6.946677	-2.230555	-1.795062	1.367891	-6.603413	-7.209483	-7.436936	0.595140	-0.259420	1.251320	-0.592467	0.142395	0.779783	-1.000000	-1.000000	-1.000000	-1.000000	-1.000000	-1.000000	-1.000000	51.000000	0.000000	-1.000000	-1.000000	218759.000000	1775803709.821802
-18189.765000	-33980.760000	-935.955000	20118.555000	5288.715000	-12497.760000	-35155.665000	-20556.765000	-5.068264	-4.179238	-0.417750	0.306129	2.043893	-8.052200	-9.015155	-6.054412	0.595140	-0.259420	1.251320	-0.592467	0.142395	0.779783	-1.000000	-1.000000	-1.000000	-1.000000	-1.000000	-1.000000	-1.000000	51.000000	0.000000	-1.000000	-1.000000	218760.000000	1775803709.821829
-18181.575000	-33975.360000	-932.625000	20122.245000	5286.285000	-12491.190000	-35145.270000	-20547.090000	-1.114223	-0.220478	0.476677	1.495488	0.950669	-5.640831	-7.006967	-2.582353	-0.274680	-0.381500	1.403920	-0.590208	0.144714	0.780271	-1.000000	-1.000000	-1.000000	-1.000000	-1.000000	-1.000000	-1.000000	51.000000	0.000000	-1.000000	-1.000000	218761.000000	1775803709.827229
-18180.990000	-33979.140000	-936.855000	20117.745000	5270.850000	-12498.885000	-35144.595000	-20545.470000	3.565148	3.853337	1.304944	2.297356	-0.529032	0.550837	-1.003206	2.501845	-0.274680	-0.381500	1.403920	-0.590208	0.144714	0.780271	-1.000000	-1.000000	-1.000000	-1.000000	-1.000000	-1.000000	-1.000000	51.000000	0.000000	-1.000000	-1.000000	218762.000000	1775803709.827258
-18182.070000	-33980.625000	-938.880000	20114.595000	5261.085000	-12507.030000	-35145.540000	-20546.640000	7.423434	6.571447	2.150050	2.730430	-1.781352	6.904447	6.163456	7.386132	-0.274680	-0.381500	1.403920	-0.590208	0.144714	0.780271	-1.000000	-1.000000	-1.000000	-1.000000	-1.000000	-1.000000	-1.000000	51.000000	0.000000	-1.000000	-1.000000	218763.000000	1775803709.829542
-18193.995000	-33991.605000	-949.770000	20104.020000	5252.760000	-12515.715000	-35153.955000	-20558.025000	8.385722	6.571984	2.236417	2.179028	-2.647091	9.415726	10.328560	9.325608	-0.274680	-0.381500	1.403920	-0.590208	0.144714	0.780271	-1.000000	-1.000000	-1.000000	-1.000000	-1.000000	-1.000000	-1.000000	51.000000	0.000000	-1.000000	-1.000000	218764.000000	1775803709.829568
-18204.120000	-34001.280000	-959.445000	20097.585000	5261.805000	-12517.695000	-35161.020000	-20568.060000	5.396466	3.635775	0.972306	0.414750	-2.242719	7.189683	9.133132	6.718671	-0.274680	-0.381500	1.403920	-0.590208	0.144714	0.780271	-1.000000	-1.000000	-1.000000	-1.000000	-1.000000	-1.000000	-1.000000	51.000000	0.000000	-1.000000	-1.000000	218765.000000	1775803709.832378
-18215.820000	-34011.180000	-970.650000	20087.955000	5275.845000	-12511.890000	-35168.760000	-20578.500000	-0.362808	-0.937572	-1.319536	-1.853358	0.678621	2.776076	3.580080	0.675309	-0.274680	-0.381500	1.403920	-0.590208	0.144714	0.780271	-1.000000	-1.000000	-1.000000	-1.000000	-1.000000	-1.000000	-1.000000	51.000000	0.000000	-1.000000	-1.000000	218766.000000	1775803709.832404
-18204.300000	-33995.790000	-952.200000	20102.805000	5278.770000	-12508.380000	-35169.255000	-20571.255000	-5.585707	-4.457109	-2.922797	-3.014807	5.818454	-0.367983	-2.868779	-5.266883	-0.274680	-0.381500	1.403920	-0.590208	0.144714	0.780271	-1.000000	-1.000000	-1.000000	-1.000000	-1.000000	-1.000000	-1.000000	51.000000	0.000000	-1.000000	-1.000000	218767.000000	1775803709.837666
-18201.330000	-33991.920000	-947.610000	20103.840000	5273.370000	-12507.030000	-35166.195000	-20569.185000	-6.680630	-4.145969	-1.523730	-1.449696	10.113416	-0.774720	-6.538158	-7.299516	-0.274680	-0.381500	1.403920	-0.590208	0.144714	0.780271	-1.000000	-1.000000	-1.000000	-1.000000	-1.000000	-1.000000	-1.000000	51.000000	0.000000	-1.000000	-1.000000	218768.000000	1775803709.837699
-18210.240000	-34003.440000	-962.730000	20093.040000	5278.725000	-12508.515000	-35168.040000	-20574.090000	-3.059395	-0.163773	2.602017	2.216547	10.039556	0.363616	-5.795955	-4.438011	-0.274680	-0.381500	1.403920	-0.590208	0.144714	0.780271	-1.000000	-1.000000	-1.000000	-1.000000	-1.000000	-1.000000	-1.000000	51.000000	0.000000	-1.000000	-1.000000	218769.000000	1775803709.841956
-18208.035000	-34000.830000	-959.940000	20097.810000	5277.780000	-12508.290000	-35167.500000	-20572.605000	2.035063	3.876274	5.793404	4.973766	5.206071	0.991611	-1.930451	0.675527	-0.274680	-0.381500	1.403920	-0.590208	0.144714	0.780271	-1.000000	-1.000000	-1.000000	-1.000000	-1.000000	-1.000000	-1.000000	51.000000	0.000000	-1.000000	-1.000000	218770.000000	1775803709.841984
-18201.600000	-33994.890000	-953.055000	20102.175000	5275.710000	-12512.790000	-35166.915000	-20569.770000	5.234537	5.087434	5.545468	4.992088	-1.677858	0.087959	2.262463	4.660362	-2.960440	-0.503580	1.754900	-0.590514	0.144897	0.780821	-1.000000	-1.000000	-1.000000	-1.000000	-1.000000	-1.000000	-1.000000	51.000000	0.000000	-1.000000	-1.000000	218771.000000	1775803709.847101
-18203.445000	-33997.815000	-955.575000	20100.420000	5276.430000	-12514.095000	-35165.745000	-20569.545000	5.719188	3.723313	2.944596	3.068552	-7.416833	-1.946215	4.645665	5.962585	-2.960440	-0.503580	1.754900	-0.590514	0.144897	0.780821	-1.000000	-1.000000	-1.000000	-1.000000	-1.000000	-1.000000	-1.000000	51.000000	0.000000	-1.000000	-1.000000	218772.000000	1775803709.847128
-18196.830000	-33990.480000	-948.870000	20105.550000	5275.710000	-12506.445000	-35157.780000	-20562.030000	4.189598	1.333069	0.089650	0.634260	-9.953001	-3.716176	4.748249	4.853078	-2.960440	-0.503580	1.754900	-0.590514	0.144897	0.780821	-1.000000	-1.000000	-1.000000	-1.000000	-1.000000	-1.000000	-1.000000	51.000000	0.000000	-1.000000	-1.000000	218773.000000	1775803709.850127
-18205.065000	-33998.670000	-957.420000	20096.010000	5258.790000	-12515.220000	-35164.305000	-20568.735000	1.541043	-0.949256	-1.989254	-1.541350	-9.179810	-3.908104	3.254268	2.388605	-2.960440	-0.503580	1.754900	-0.590514	0.144897	0.780821	-1.000000	-1.000000	-1.000000	-1.000000	-1.000000	-1.000000	-1.000000	51.000000	0.000000	-1.000000	-1.000000	218774.000000	1775803709.850152
-18207.495000	-33999.480000	-957.465000	20099.070000	5260.860000	-12513.555000	-35163.855000	-20571.165000	-1.579690	-2.785565	-3.349955	-3.282273	-6.631701	-2.646384	0.822635	-0.634662	-2.960440	-0.503580	1.754900	-0.590514	0.144897	0.780821	-1.000000	-1.000000	-1.000000	-1.000000	-1.000000	-1.000000	-1.000000	51.000000	0.000000	-1.000000	-1.000000	218775.000000	1775803709.854713
-18206.505000	-33997.995000	-954.945000	20101.905000	5265.495000	-12513.240000	-35164.755000	-20571.030000	-4.417356	-4.049819	-4.124985	-4.230685	-3.329712	-0.961436	-1.942036	-3.584936	-2.960440	-0.503580	1.754900	-0.590514	0.144897	0.780821	-1.000000	-1.000000	-1.000000	-1.000000	-1.000000	-1.000000	-1.000000	51.000000	0.000000	-1.000000	-1.000000	218776.000000	1775803709.854744
-18199.080000	-33993.090000	-952.335000	20103.210000	5276.835000	-12503.340000	-35158.770000	-20562.570000	-5.619629	-4.103784	-3.815401	-3.715989	0.972523	0.719370	-3.912241	-5.237233	-2.960440	-0.503580	1.754900	-0.590514	0.144897	0.780821	-1.000000	-1.000000	-1.000000	-1.000000	-1.000000	-1.000000	-1.000000	51.000000	0.000000	-1.000000	-1.000000	218777.000000	1775803709.862486
-18192.690000	-33986.700000	-945.720000	20111.400000	5283.630000	-12493.845000	-35150.265000	-20556.045000	-4.138984	-2.417442	-2.059622	-1.704445	5.993014	2.589888	-3.914781	-4.381969	-2.960440	-0.503580	1.754900	-0.590514	0.144897	0.780821	-1.000000	-1.000000	-1.000000	-1.000000	-1.000000	-1.000000	-1.000000	51.000000	0.000000	-1.000000	-1.000000	218778.000000	1775803709.862518
-18189.720000	-33983.145000	-942.525000	20113.920000	5290.560000	-12493.305000	-35147.970000	-20555.505000	-0.584353	0.486691	0.611086	0.984496	9.934048	4.359455	-1.834955	-1.349675	-2.960440	-0.503580	1.754900	-0.590514	0.144897	0.780821	-1.000000	-1.000000	-1.000000	-1.000000	-1.000000	-1.000000	-1.000000	51.000000	0.000000	-1.000000	-1.000000	218779.000000	1775803709.862549
-18193.230000	-33986.880000	-946.890000	20108.520000	5286.780000	-12499.245000	-35151.840000	-20558.925000	2.809345	2.999473	2.824255	2.958494	10.540714	4.652539	0.799238	1.727211	-2.960440	-0.503580	1.754900	-0.590514	0.144897	0.780821	-1.000000	-1.000000	-1.000000	-1.000000	-1.000000	-1.000000	-1.000000	51.000000	0.000000	-1.000000	-1.000000	218780.000000	1775803709.862562
-18193.230000	-33985.980000	-945.720000	20109.330000	5283.090000	-12500.415000	-35153.100000	-20559.195000	3.836228	3.475989	3.161328	2.891398	6.757331	2.286759	1.892391	2.700866	-3.357200	-0.274680	1.449700	-0.588255	0.143249	0.781492	-1.000000	-1.000000	-1.000000	-1.000000	-1.000000	-1.000000	-1.000000	51.000000	0.000000	-1.000000	-1.000000	218781.000000	1775803709.867630
-18196.110000	-33988.995000	-948.375000	20108.565000	5282.370000	-12501.630000	-35154.855000	-20561.850000	2.096242	1.668237	1.456589	0.853151	-0.133424	-1.913904	0.763517	1.273812	-3.357200	-0.274680	1.449700	-0.588255	0.143249	0.781492	-1.000000	-1.000000	-1.000000	-1.000000	-1.000000	-1.000000	-1.000000	51.000000	0.000000	-1.000000	-1.000000	218782.000000	1775803709.867654
-18192.555000	-33986.520000	-942.660000	20117.655000	5291.955000	-12495.420000	-35153.100000	-20560.320000	-0.874900	-1.091161	-0.955080	-1.468624	-6.687592	-5.406893	-1.370743	-1.101917	-3.357200	-0.274680	1.449700	-0.588255	0.143249	0.781492	-1.000000	-1.000000	-1.000000	-1.000000	-1.000000	-1.000000	-1.000000	51.000000	0.000000	-1.000000	-1.000000	218783.000000	1775803709.952063
-18185.715000	-33976.080000	-935.955000	20121.930000	5293.800000	-12491.955000	-35151.165000	-20556.405000	-2.858592	-2.842355	-2.267200	-2.212155	-9.437411	-5.970573	-2.681256	-2.567859	-3.357200	-0.274680	1.449700	-0.588255	0.143249	0.781492	-1.000000	-1.000000	-1.000000	-1.000000	-1.000000	-1.000000	-1.000000	51.000000	0.000000	-1.000000	-1.000000	218784.000000	1775803709.952093
-18180.945000	-33966.090000	-929.025000	20124.810000	5294.925000	-12487.590000	-35145.630000	-20551.140000	-2.487184	-2.156281	-1.509496	-0.991812	-7.593567	-3.394550	-2.131729	-2.050107	-3.357200	-0.274680	1.449700	-0.588255	0.143249	0.781492	-1.000000	-1.000000	-1.000000	-1.000000	-1.000000	-1.000000	-1.000000	51.000000	0.000000	-1.000000	-1.000000	218785.000000	1775803709.952206
-18186.480000	-33972.255000	-930.915000	20120.265000	5285.880000	-12495.510000	-35148.015000	-20553.795000	-0.390350	0.450507	0.570489	0.766077	-3.463958	0.361622	-0.101200	0.018705	-3.357200	-0.274680	1.449700	-0.588255	0.143249	0.781492	-1.000000	-1.000000	-1.000000	-1.000000	-1.000000	-1.000000	-1.000000	51.000000	0.000000	-1.000000	-1.000000	218786.000000	1775803709.952258
-18186.615000	-33978.870000	-939.105000	20117.160000	5286.420000	-12491.370000	-35138.205000	-20548.665000	1.339330	2.365473	1.890698	1.219920	-0.110068	2.762876	2.093386	2.066199	-3.357200	-0.274680	1.449700	-0.588255	0.143249	0.781492	-1.000000	-1.000000	-1.000000	-1.000000	-1.000000	-1.000000	-1.000000	51.000000	0.000000	-1.000000	-1.000000	218787.000000	1775803709.952285
-18192.330000	-33986.835000	-950.130000	20108.430000	5281.515000	-12496.230000	-35139.420000	-20553.030000	1.243477	1.368851	0.729020	-0.258687	1.168632	2.795870	3.367047	2.770849	-3.357200	-0.274680	1.449700	-0.588255	0.143249	0.781492	-1.000000	-1.000000	-1.000000	-1.000000	-1.000000	-1.000000	-1.000000	51.000000	0.000000	-1.000000	-1.000000	218788.000000	1775803709.952299
-18194.805000	-33982.380000	-945.180000	20109.690000	5274.675000	-12507.255000	-35150.085000	-20560.995000	-0.388963	-1.865178	-2.400177	-2.642710	0.937714	1.052089	3.020609	1.693523	-3.357200	-0.274680	1.449700	-0.588255	0.143249	0.781492	-1.000000	-1.000000	-1.000000	-1.000000	-1.000000	-1.000000	-1.000000	51.000000	0.000000	-1.000000	-1.000000	218789.000000	1775803709.952315
-18195.120000	-33974.955000	-939.555000	20108.205000	5260.680000	-12517.605000	-35159.670000	-20565.765000	-2.141877	-4.264611	-4.658927	-4.010673	0.040922	-1.559974	0.543930	-0.817945	-3.357200	-0.274680	1.449700	-0.588255	0.143249	0.781492	-1.000000	-1.000000	-1.000000	-1.000000	-1.000000	-1.000000	-1.000000	51.000000	0.000000	-1.000000	-1.000000	218790.000000	1775803709.952326
-18207.540000	-34001.595000	-963.405000	20090.970000	5247.405000	-12524.805000	-35165.700000	-20574.765000	-2.814505	-3.900923	-4.059092	-3.395555	-1.135489	-3.950055	-3.326508	-3.559115	0.061040	0.152600	1.052940	-0.585387	0.141723	0.782225	-1.000000	-1.000000	-1.000000	-1.000000	-1.000000	-1.000000	-1.000000	51.000000	0.000000	-1.000000	-1.000000	218791.000000	1775803709.952342
-18215.100000	-34012.305000	-971.865000	20086.425000	5255.145000	-12518.955000	-35167.725000	-20580.840000	-2.454111	-2.361787	-2.021690	-1.767493	-1.831367	-4.536800	-6.277000	-5.071329	0.061040	0.152600	1.052940	-0.585387	0.141723	0.782225	-1.000000	-1.000000	-1.000000	-1.000000	-1.000000	-1.000000	-1.000000	51.000000	0.000000	-1.000000	-1.000000	218792.000000	1775803709.952353
-18214.020000	-34006.815000	-965.520000	20091.645000	5269.095000	-12505.725000	-35163.315000	-20579.445000	-1.570758	-1.560464	-0.497991	-0.086960	-0.319480	-1.900557	-6.032969	-4.426115	0.061040	0.152600	1.052940	-0.585387	0.141723	0.782225	-1.000000	-1.000000	-1.000000	-1.000000	-1.000000	-1.000000	-1.000000	51.000000	0.000000	-1.000000	-1.000000	218793.000000	1775803709.952367
-18214.155000	-34007.310000	-965.970000	20092.185000	5272.020000	-12506.490000	-35163.945000	-20579.445000	0.026078	-0.517832	1.057634	2.054189	4.141799	3.552320	-2.203189	-1.489528	0.061040	0.152600	1.052940	-0.585387	0.141723	0.782225	-1.000000	-1.000000	-1.000000	-1.000000	-1.000000	-1.000000	-1.000000	51.000000	0.000000	-1.000000	-1.000000	218794.000000	1775803709.952379
-18212.580000	-34004.700000	-964.170000	20092.860000	5270.400000	-12520.260000	-35170.740000	-20580.705000	2.482778	2.189363	3.570351	4.732906	9.074943	8.469739	3.087639	2.703539	0.061040	0.152600	1.052940	-0.585387	0.141723	0.782225	-1.000000	-1.000000	-1.000000	-1.000000	-1.000000	-1.000000	-1.000000	51.000000	0.000000	-1.000000	-1.000000	218795.000000	1775803709.952394
-18211.680000	-34003.935000	-964.080000	20091.510000	5263.470000	-12524.580000	-35168.895000	-20578.995000	4.977802	5.742832	6.155280	6.659441	10.436407	8.849248	6.704527	6.211850	0.061040	0.152600	1.052940	-0.585387	0.141723	0.782225	-1.000000	-1.000000	-1.000000	-1.000000	-1.000000	-1.000000	-1.000000	51.000000	0.000000	-1.000000	-1.000000	218796.000000	1775803709.952405
-18215.370000	-34007.490000	-968.355000	20087.685000	5258.655000	-12526.155000	-35168.490000	-20581.155000	6.156759	7.949757	7.069668	6.395059	6.417339	4.193145	7.125992	7.448583	0.061040	0.152600	1.052940	-0.585387	0.141723	0.782225	-1.000000	-1.000000	-1.000000	-1.000000	-1.000000	-1.000000	-1.000000	51.000000	0.000000	-1.000000	-1.000000	218797.000000	1775803709.952420
-18219.420000	-34010.370000	-971.370000	20084.580000	5258.070000	-12526.200000	-35171.505000	-20585.970000	5.057064	7.151906	5.308789	3.655853	-0.955536	-2.025824	5.020658	5.947066	0.061040	0.152600	1.052940	-0.585387	0.141723	0.782225	-1.000000	-1.000000	-1.000000	-1.000000	-1.000000	-1.000000	-1.000000	51.000000	0.000000	-1.000000	-1.000000	218798.000000	1775803709.952432
-18216.630000	-34005.375000	-965.880000	20091.690000	5262.930000	-12523.815000	-35170.875000	-20584.485000	1.989235	3.600570	1.585003	-0.241768	-7.405011	-5.852004	1.832189	2.427876	0.061040	0.152600	1.052940	-0.585387	0.141723	0.782225	-1.000000	-1.000000	-1.000000	-1.000000	-1.000000	-1.000000	-1.000000	51.000000	0.000000	-1.000000	-1.000000	218799.000000	1775803709.952446
-18206.280000	-33995.070000	-955.440000	20100.105000	5270.490000	-12516.480000	-35164.530000	-20575.215000	-1.204018	-0.465852	-1.823977	-2.984753	-9.425635	-5.599759	-0.984638	-1.219662	0.061040	0.152600	1.052940	-0.585387	0.141723	0.782225	-1.000000	-1.000000	-1.000000	-1.000000	-1.000000	-1.000000	-1.000000	51.000000	0.000000	-1.000000	-1.000000	218800.000000	1775803709.952458
-18210.150000	-33999.390000	-959.760000	20097.360000	5268.780000	-12518.730000	-35168.130000	-20579.175000	-2.644958	-2.828366	-3.076906	-3.228021	-6.595365	-2.249948	-2.383111	-3.089669	1.342880	1.190280	0.930860	-0.584898	0.142334	0.782347	-1.000000	-1.000000	-1.000000	-1.000000	-1.000000	-1.000000	-1.000000	51.000000	0.000000	-1.000000	-1.000000	218801.000000	1775803709.952473
-18218.475000	-34008.795000	-969.030000	20089.395000	5264.010000	-12521.790000	-35172.090000	-20585.790000	-2.526452	-3.552941	-2.788855	-2.089461	-1.684695	1.449085	-2.552338	-3.162187	1.342880	1.190280	0.930860	-0.584898	0.142334	0.782347	-1.000000	-1.000000	-1.000000	-1.000000	-1.000000	-1.000000	-1.000000	51.000000	0.000000	-1.000000	-1.000000	218802.000000	1775803709.952485
-18218.385000	-34009.650000	-971.145000	20084.670000	5257.980000	-12524.040000	-35170.695000	-20584.395000	-2.474756	-4.158122	-2.892775	-1.748228	1.721393	2.959696	-2.434473	-2.845056	1.342880	1.190280	0.930860	-0.584898	0.142334	0.782347	-1.000000	-1.000000	-1.000000	-1.000000	-1.000000	-1.000000	-1.000000	51.000000	0.000000	-1.000000	-1.000000	218803.000000	1775803709.952500
-18226.395000	-34017.480000	-978.705000	20073.420000	5242.680000	-12535.605000	-35177.175000	-20591.415000	-3.108681	-5.062656	-3.919962	-2.954861	1.823060	1.625343	-2.421174	-2.839087	1.342880	1.190280	0.930860	-0.584898	0.142334	0.782347	-1.000000	-1.000000	-1.000000	-1.000000	-1.000000	-1.000000	-1.000000	51.000000	0.000000	-1.000000	-1.000000	218804.000000	1775803709.952512
-18233.100000	-34021.755000	-981.360000	20069.910000	5229.135000	-12547.440000	-35185.005000	-20598.570000	-3.790985	-5.401176	-4.754738	-4.627714	-0.860836	-1.588248	-2.468116	-2.934206	1.342880	1.190280	0.930860	-0.584898	0.142334	0.782347	-1.000000	-1.000000	-1.000000	-1.000000	-1.000000	-1.000000	-1.000000	51.000000	0.000000	-1.000000	-1.000000	218805.000000	1775803709.952529
-18226.215000	-34015.320000	-976.770000	20077.380000	5234.310000	-12542.490000	-35180.370000	-20593.305000	-3.580777	-4.213240	-4.044458	-4.830052	-3.945519	-4.708691	-2.378448	-2.665505	1.342880	1.190280	0.930860	-0.584898	0.142334	0.782347	-1.000000	-1.000000	-1.000000	-1.000000	-1.000000	-1.000000	-1.000000	51.000000	0.000000	-1.000000	-1.000000	218806.000000	1775803709.952540
-18222.345000	-34013.880000	-978.480000	20076.615000	5239.575000	-12537.135000	-35175.420000	-20588.805000	-1.572268	-1.062788	-1.268187	-2.191201	-4.215659	-5.196463	-1.390140	-1.248665	1.342880	1.190280	0.930860	-0.584898	0.142334	0.782347	-1.000000	-1.000000	-1.000000	-1.000000	-1.000000	-1.000000	-1.000000	51.000000	0.000000	-1.000000	-1.000000	218807.000000	1775803709.952555
-18232.290000	-34023.015000	-985.275000	20072.070000	5243.760000	-12538.935000	-35181.270000	-20597.895000	1.864659	3.003777	2.427876	2.357983	-0.281616	-1.978011	0.851740	1.359303	1.342880	1.190280	0.930860	-0.584898	0.142334	0.782347	-1.000000	-1.000000	-1.000000	-1.000000	-1.000000	-1.000000	-1.000000	51.000000	0.000000	-1.000000	-1.000000	218808.000000	1775803709.952566
-18228.555000	-34019.550000	-979.380000	20080.080000	5248.080000	-12536.190000	-35183.340000	-20596.815000	4.627238	5.693385	4.995144	6.168235	5.763929	3.033393	3.087418	3.595956	1.342880	1.190280	0.930860	-0.584898	0.142334	0.782347	-1.000000	-1.000000	-1.000000	-1.000000	-1.000000	-1.000000	-1.000000	51.000000	0.000000	-1.000000	-1.000000	218809.000000	1775803709.952581
-18225.450000	-34016.040000	-976.410000	20082.735000	5239.755000	-12535.425000	-35181.315000	-20594.205000	5.216497	5.858115	5.593464	7.560131	9.956873	6.713463	3.781429	4.096526	1.342880	1.190280	0.930860	-0.584898	0.142334	0.782347	-1.000000	-1.000000	-1.000000	-1.000000	-1.000000	-1.000000	-1.000000	51.000000	0.000000	-1.000000	-1.000000	218810.000000	1775803709.952592
-18227.250000	-34016.130000	-977.310000	20079.495000	5249.970000	-12529.665000	-35180.460000	-20595.285000	4.024423	4.308315	4.742978	6.458800	9.593503	7.350871	2.896398	3.134455	-0.869820	2.304260	1.709120	-0.584959	0.144043	0.784300	-1.000000	-1.000000	-1.000000	-1.000000	-1.000000	-1.000000	-1.000000	51.000000	0.000000	-1.000000	-1.000000	218811.000000	1775803709.952615
-18229.050000	-34018.290000	-981.225000	20071.620000	5248.035000	-12534.705000	-35181.315000	-20596.455000	1.946158	2.131335	2.879998	3.211693	5.251535	5.151339	1.387942	1.573136	-0.869820	2.304260	1.709120	-0.584959	0.144043	0.784300	-1.000000	-1.000000	-1.000000	-1.000000	-1.000000	-1.000000	-1.000000	51.000000	0.000000	-1.000000	-1.000000	218812.000000	1775803709.952628
-18227.295000	-34016.265000	-977.445000	20076.885000	5251.905000	-12536.820000	-35179.605000	-20595.330000	-0.359016	-0.128266	0.303754	-1.255579	-0.322165	1.215983	0.010075	-0.028125	-0.869820	2.304260	1.709120	-0.584959	0.144043	0.784300	-1.000000	-1.000000	-1.000000	-1.000000	-1.000000	-1.000000	-1.000000	51.000000	0.000000	-1.000000	-1.000000	218813.000000	1775803709.952644
-18236.745000	-34026.480000	-987.480000	20069.730000	5250.195000	-12542.445000	-35185.815000	-20603.970000	-2.312914	-2.145787	-2.273949	-5.026962	-4.721505	-3.105258	-1.010381	-1.391507	-0.869820	2.304260	1.709120	-0.584959	0.144043	0.784300	-1.000000	-1.000000	-1.000000	-1.000000	-1.000000	-1.000000	-1.000000	51.000000	0.000000	-1.000000	-1.000000	218814.000000	1775803709.952655
-18239.940000	-34030.530000	-991.035000	20066.580000	5243.985000	-12546.090000	-35188.920000	-20607.120000	-3.677184	-3.801249	-4.228802	-6.588930	-6.992677	-6.356240	-1.853368	-2.534163	-0.869820	2.304260	1.709120	-0.584959	0.144043	0.784300	-1.000000	-1.000000	-1.000000	-1.000000	-1.000000	-1.000000	-1.000000	51.000000	0.000000	-1.000000	-1.000000	218815.000000	1775803709.952670
-18246.555000	-34035.615000	-995.355000	20061.495000	5237.730000	-12549.465000	-35194.545000	-20615.265000	-4.355147	-4.860997	-5.196241	-5.909820	-7.454746	-7.416207	-2.642176	-3.423299	-0.869820	2.304260	1.709120	-0.584959	0.144043	0.784300	-1.000000	-1.000000	-1.000000	-1.000000	-1.000000	-1.000000	-1.000000	51.000000	0.000000	-1.000000	-1.000000	218816.000000	1775803709.952682
-18254.025000	-34041.960000	-1001.475000	20056.770000	5233.005000	-12553.470000	-35198.955000	-20622.645000	-4.125373	-4.779066	-4.815510	-3.813745	-6.721206	-6.018375	-3.099503	-3.758514	-0.869820	2.304260	1.709120	-0.584959	0.144043	0.784300	-1.000000	-1.000000	-1.000000	-1.000000	-1.000000	-1.000000	-1.000000	51.000000	0.000000	-1.000000	-1.000000	218817.000000	1775803709.952697
-18259.965000	-34048.935000	-1009.170000	20051.010000	5224.005000	-12560.085000	-35202.285000	-20627.550000	-2.973829	-3.381396	-3.186704	-1.271215	-5.060756	-2.955608	-2.806675	-3.249798	-0.869820	2.304260	1.709120	-0.584959	0.144043	0.784300	-1.000000	-1.000000	-1.000000	-1.000000	-1.000000	-1.000000	-1.000000	51.000000	0.000000	-1.000000	-1.000000	218818.000000	1775803709.952708
-18262.620000	-34051.995000	-1013.715000	20045.745000	5219.055000	-12563.055000	-35203.815000	-20628.540000	-1.111366	-1.128714	-0.988651	0.909600	-2.697492	0.370093	-1.561598	-1.706765	-0.869820	2.304260	1.709120	-0.584959	0.144043	0.784300	-1.000000	-1.000000	-1.000000	-1.000000	-1.000000	-1.000000	-1.000000	51.000000	0.000000	-1.000000	-1.000000	218819.000000	1775803709.952724
-18262.665000	-34051.455000	-1011.555000	20043.180000	5212.665000	-12568.455000	-35203.815000	-20628.540000	1.238189	1.425869	1.250472	2.343101	-0.008422	2.837386	0.443738	0.817090	-0.869820	2.304260	1.709120	-0.584959	0.144043	0.784300	-1.000000	-1.000000	-1.000000	-1.000000	-1.000000	-1.000000	-1.000000	51.000000	0.000000	-1.000000	-1.000000	218820.000000	1775803709.952735
-18263.610000	-34051.005000	-1011.735000	20042.820000	5201.415000	-12582.270000	-35206.920000	-20630.970000	3.671690	3.870197	3.424742	3.139425	2.429779	3.820865	2.559317	3.638968	-2.823100	2.090620	2.884140	-0.586424	0.143554	0.784727	-1.000000	-1.000000	-1.000000	-1.000000	-1.000000	-1.000000	-1.000000	51.000000	0.000000	-1.000000	-1.000000	218821.000000	1775803709.952750
-18261.405000	-34049.385000	-1015.605000	20041.785000	5190.165000	-12586.545000	-35208.585000	-20631.105000	5.480121	5.672329	5.150269	3.587452	3.813635	3.122312	3.874042	5.559703	-2.823100	2.090620	2.884140	-0.586424	0.143554	0.784727	-1.000000	-1.000000	-1.000000	-1.000000	-1.000000	-1.000000	-1.000000	51.000000	0.000000	-1.000000	-1.000000	218822.000000	1775803709.952761
-18259.605000	-34044.885000	-1013.715000	20046.285000	5193.000000	-12581.595000	-35212.680000	-20631.780000	6.011532	6.255513	5.595475	3.794875	3.926471	1.659692	3.761891	5.698258	-2.823100	2.090620	2.884140	-0.586424	0.143554	0.784727	-1.000000	-1.000000	-1.000000	-1.000000	-1.000000	-1.000000	-1.000000	51.000000	0.000000	-1.000000	-1.000000	218823.000000	1775803709.952776
-18269.505000	-34050.600000	-1008.540000	20043.405000	5215.545000	-12574.755000	-35221.365000	-20641.050000	4.858334	5.266086	4.537322	3.625155	4.150041	1.278600	2.204198	3.939468	-2.823100	2.090620	2.884140	-0.586424	0.143554	0.784727	-1.000000	-1.000000	-1.000000	-1.000000	-1.000000	-1.000000	-1.000000	51.000000	0.000000	-1.000000	-1.000000	218824.000000	1775803709.952787
-18264.015000	-34052.040000	-1009.620000	20040.705000	5232.015000	-12559.770000	-35206.740000	-20629.620000	2.039845	2.617294	2.657601	2.678899	6.314775	2.977621	0.072688	1.015615	-2.823100	2.090620	2.884140	-0.586424	0.143554	0.784727	-1.000000	-1.000000	-1.000000	-1.000000	-1.000000	-1.000000	-1.000000	51.000000	0.000000	-1.000000	-1.000000	218825.000000	1775803709.953871
-18242.280000	-34032.150000	-994.635000	20055.285000	5231.970000	-12548.700000	-35188.920000	-20608.200000	-0.922766	-0.698051	0.821701	0.994893	9.616424	5.886070	-0.634257	-1.052155	-2.823100	2.090620	2.884140	-0.586424	0.143554	0.784727	-1.000000	-1.000000	-1.000000	-1.000000	-1.000000	-1.000000	-1.000000	51.000000	0.000000	-1.000000	-1.000000	218826.000000	1775803709.953900
-18231.660000	-34021.980000	-982.710000	20070.360000	5240.520000	-12536.685000	-35179.920000	-20598.930000	-1.582294	-2.419811	-0.114052	-0.138312	10.416822	7.885462	1.390814	-0.330225	-2.823100	2.090620	2.884140	-0.586424	0.143554	0.784727	-1.000000	-1.000000	-1.000000	-1.000000	-1.000000	-1.000000	-1.000000	51.000000	0.000000	-1.000000	-1.000000	218827.000000	1775803709.957999
-18233.865000	-34021.620000	-979.695000	20076.210000	5245.830000	-12538.890000	-35186.760000	-20604.780000	0.157646	-1.630741	0.047708	0.347442	6.347388	6.880274	4.278568	2.055321	-2.823100	2.090620	2.884140	-0.586424	0.143554	0.784727	-1.000000	-1.000000	-1.000000	-1.000000	-1.000000	-1.000000	-1.000000	51.000000	0.000000	-1.000000	-1.000000	218828.000000	1775803709.958027
-18232.605000	-34019.955000	-977.490000	20077.470000	5253.075000	-12536.370000	-35184.780000	-20601.720000	1.385060	-0.271071	0.094660	1.351483	-1.117997	2.098121	4.399469	2.589903	-2.823100	2.090620	2.884140	-0.586424	0.143554	0.784727	-1.000000	-1.000000	-1.000000	-1.000000	-1.000000	-1.000000	-1.000000	51.000000	0.000000	-1.000000	-1.000000	218829.000000	1775803709.961386
-18239.490000	-34028.145000	-987.120000	20064.825000	5245.155000	-12543.210000	-35188.470000	-20607.300000	-0.306229	-0.749702	-1.493585	0.499719	-8.601617	-5.084675	0.472458	-0.463773	-2.823100	2.090620	2.884140	-0.586424	0.143554	0.784727	-1.000000	-1.000000	-1.000000	-1.000000	-1.000000	-1.000000	-1.000000	51.000000	0.000000	-1.000000	-1.000000	218830.000000	1775803709.961412
-18240.975000	-34029.720000	-988.020000	20065.950000	5239.125000	-12547.440000	-35191.530000	-20610.270000	-4.399704	-3.460675	-4.845342	-3.175893	-13.678301	-11.754253	-5.296573	-5.496483	-1.754900	2.899400	2.426340	-0.585143	0.142944	0.783995	-1.000000	-1.000000	-1.000000	-1.000000	-1.000000	-1.000000	-1.000000	51.000000	0.000000	-1.000000	-1.000000	218831.000000	1775803709.973163
-18238.815000	-34025.670000	-982.665000	20072.655000	5238.630000	-12547.170000	-35189.820000	-20609.235000	-8.175018	-6.495908	-8.047988	-7.560707	-15.297538	-15.021609	-9.513239	-9.412405	-1.754900	2.899400	2.426340	-0.585143	0.142944	0.783995	-1.000000	-1.000000	-1.000000	-1.000000	-1.000000	-1.000000	-1.000000	51.000000	0.000000	-1.000000	-1.000000	218832.000000	1775803709.973190
-18241.200000	-34027.470000	-984.240000	20071.260000	5236.470000	-12546.675000	-35189.460000	-20610.135000	-8.929291	-7.257550	-8.489214	-9.147818	-12.996749	-13.291475	-9.874766	-9.797237	-1.754900	2.899400	2.426340	-0.585143	0.142944	0.783995	-1.000000	-1.000000	-1.000000	-1.000000	-1.000000	-1.000000	-1.000000	51.000000	0.000000	-1.000000	-1.000000	218833.000000	1775803709.973219
-18248.310000	-34037.415000	-995.445000	20058.345000	5230.350000	-12551.490000	-35196.390000	-20616.075000	-6.189448	-5.045931	-5.650086	-6.895350	-7.367218	-7.246384	-6.448091	-6.451729	-1.754900	2.899400	2.426340	-0.585143	0.142944	0.783995	-1.000000	-1.000000	-1.000000	-1.000000	-1.000000	-1.000000	-1.000000	51.000000	0.000000	-1.000000	-1.000000	218834.000000	1775803709.973232
-18244.080000	-34032.690000	-991.980000	20061.495000	5237.460000	-12548.295000	-35199.765000	-20614.725000	-1.664875	-1.406384	-1.473752	-2.844615	-0.301008	0.388260	-1.480066	-1.304347	-1.754900	2.899400	2.426340	-0.585143	0.142944	0.783995	-1.000000	-1.000000	-1.000000	-1.000000	-1.000000	-1.000000	-1.000000	51.000000	0.000000	-1.000000	-1.000000	218835.000000	1775803709.976824
-18241.425000	-34030.575000	-992.655000	20059.110000	5237.685000	-12549.420000	-35200.530000	-20613.105000	2.826258	2.136215	2.216619	0.938381	6.178656	6.696662	2.619634	3.454589	-1.754900	2.899400	2.426340	-0.585143	0.142944	0.783995	-1.000000	-1.000000	-1.000000	-1.000000	-1.000000	-1.000000	-1.000000	51.000000	0.000000	-1.000000	-1.000000	218836.000000	1775803709.976852
-18244.080000	-34033.005000	-994.410000	20056.455000	5222.295000	-12558.645000	-35200.575000	-20614.680000	6.162540	4.905724	4.803604	3.736929	10.185176	9.781803	4.914625	6.554234	-1.754900	2.899400	2.426340	-0.585143	0.142944	0.783995	-1.000000	-1.000000	-1.000000	-1.000000	-1.000000	-1.000000	-1.000000	51.000000	0.000000	-1.000000	-1.000000	218837.000000	1775803709.978110
-18249.975000	-34039.125000	-999.495000	20050.335000	5205.870000	-12564.495000	-35202.105000	-20618.775000	7.317290	6.106299	5.901708	5.170661	9.834779	8.913832	5.616677	7.356767	-1.754900	2.899400	2.426340	-0.585143	0.142944	0.783995	-1.000000	-1.000000	-1.000000	-1.000000	-1.000000	-1.000000	-1.000000	51.000000	0.000000	-1.000000	-1.000000	218838.000000	1775803709.978129
-18250.830000	-34039.305000	-997.965000	20053.755000	5208.120000	-12556.800000	-35198.730000	-20618.955000	5.791524	5.119358	5.284139	5.070939	5.255302	5.228995	5.201883	5.824239	-1.754900	2.899400	2.426340	-0.585143	0.142944	0.783995	-1.000000	-1.000000	-1.000000	-1.000000	-1.000000	-1.000000	-1.000000	51.000000	0.000000	-1.000000	-1.000000	218839.000000	1775803709.980316
-18253.665000	-34041.915000	-1000.845000	20051.595000	5215.005000	-12550.815000	-35199.855000	-20623.725000	2.506628	2.557115	3.476724	4.001440	-0.020270	1.608486	4.115470	2.821616	-1.754900	2.899400	2.426340	-0.585143	0.142944	0.783995	-1.000000	-1.000000	-1.000000	-1.000000	-1.000000	-1.000000	-1.000000	51.000000	0.000000	-1.000000	-1.000000	218840.000000	1775803709.980345
-18257.715000	-34045.245000	-1004.355000	20051.820000	5221.800000	-12557.430000	-35207.190000	-20628.405000	-0.794913	-0.150697	1.363128	2.729624	-1.910396	0.070523	2.488648	-0.376842	1.205540	2.807840	0.640920	-0.584471	0.142944	0.781919	-1.000000	-1.000000	-1.000000	-1.000000	-1.000000	-1.000000	-1.000000	51.000000	0.000000	-1.000000	-1.000000	218841.000000	1775803709.989779
-18260.325000	-34047.270000	-1005.615000	20049.570000	5214.330000	-12565.170000	-35215.785000	-20634.525000	-2.849630	-1.932770	-0.461485	1.527391	0.129626	-0.187406	0.095163	-2.816269	1.205540	2.807840	0.640920	-0.584471	0.142944	0.781919	-1.000000	-1.000000	-1.000000	-1.000000	-1.000000	-1.000000	-1.000000	51.000000	0.000000	-1.000000	-1.000000	218842.000000	1775803709.989806
-18259.470000	-34049.745000	-1007.055000	20048.670000	5214.420000	-12579.570000	-35222.355000	-20635.695000	-3.217573	-2.446563	-1.617679	0.342145	2.998653	-1.207819	-2.847747	-3.933623	1.205540	2.807840	0.640920	-0.584471	0.142944	0.781919	-1.000000	-1.000000	-1.000000	-1.000000	-1.000000	-1.000000	-1.000000	51.000000	0.000000	-1.000000	-1.000000	218843.000000	1775803709.989832
-18271.305000	-34065.720000	-1024.200000	20034.495000	5204.250000	-12587.265000	-35226.990000	-20642.760000	-2.251810	-2.140760	-2.164652	-1.013500	3.497721	-3.618364	-5.170587	-3.528675	1.205540	2.807840	0.640920	-0.584471	0.142944	0.781919	-1.000000	-1.000000	-1.000000	-1.000000	-1.000000	-1.000000	-1.000000	51.000000	0.000000	-1.000000	-1.000000	218844.000000	1775803709.989844
-18272.700000	-34063.065000	-1024.875000	20033.235000	5203.620000	-12580.515000	-35220.870000	-20641.635000	-1.002811	-1.838780	-2.664046	-2.678333	1.003592	-5.716452	-5.350925	-1.924999	1.205540	2.807840	0.640920	-0.584471	0.142944	0.781919	-1.000000	-1.000000	-1.000000	-1.000000	-1.000000	-1.000000	-1.000000	51.000000	0.000000	-1.000000	-1.000000	218845.000000	1775803709.993665
-18268.065000	-34054.245000	-1015.380000	20037.780000	5205.915000	-12578.040000	-35214.615000	-20636.235000	-0.044442	-1.269698	-2.748755	-3.868520	-2.550481	-4.922437	-2.578263	0.376953	1.205540	2.807840	0.640920	-0.584471	0.142944	0.781919	-1.000000	-1.000000	-1.000000	-1.000000	-1.000000	-1.000000	-1.000000	51.000000	0.000000	-1.000000	-1.000000	218846.000000	1775803709.993692
-18273.240000	-34062.390000	-1024.155000	20032.920000	5212.080000	-12577.815000	-35215.830000	-20640.195000	0.986944	0.491640	-1.247678	-3.256539	-4.408045	-0.711723	2.162529	2.832794	1.205540	2.807840	0.640920	-0.584471	0.142944	0.781919	-1.000000	-1.000000	-1.000000	-1.000000	-1.000000	-1.000000	-1.000000	51.000000	0.000000	-1.000000	-1.000000	218847.000000	1775803709.997610
-18269.775000	-34058.295000	-1017.405000	20041.560000	5224.365000	-12573.450000	-35216.460000	-20639.295000	2.132805	2.833997	1.529537	-0.739781	-3.100239	4.530612	6.143750	4.415179	1.205540	2.807840	0.640920	-0.584471	0.142944	0.781919	-1.000000	-1.000000	-1.000000	-1.000000	-1.000000	-1.000000	-1.000000	51.000000	0.000000	-1.000000	-1.000000	218848.000000	1775803709.997636
-18263.205000	-34050.240000	-1008.495000	20047.545000	5226.570000	-12570.570000	-35213.400000	-20633.175000	2.983560	4.324950	4.126243	2.556248	0.553444	7.848538	7.016381	4.333965	1.205540	2.807840	0.640920	-0.584471	0.142944	0.781919	-1.000000	-1.000000	-1.000000	-1.000000	-1.000000	-1.000000	-1.000000	51.000000	0.000000	-1.000000	-1.000000	218849.000000	1775803710.002756
-18261.495000	-34047.630000	-1004.490000	20048.850000	5219.055000	-12575.160000	-35213.940000	-20632.455000	3.374837	4.554148	5.661059	5.216367	3.774219	7.712910	4.682573	2.955080	1.205540	2.807840	0.640920	-0.584471	0.142944	0.781919	-1.000000	-1.000000	-1.000000	-1.000000	-1.000000	-1.000000	-1.000000	51.000000	0.000000	-1.000000	-1.000000	218850.000000	1775803710.002782
-18263.925000	-34052.895000	-1014.795000	20041.200000	5204.385000	-12574.575000	-35213.895000	-20632.680000	2.983815	3.494522	5.346972	5.674211	3.548789	4.289766	0.762743	1.038621	3.479280	2.746800	-0.366240	-0.585509	0.144836	0.779783	-1.000000	-1.000000	-1.000000	-1.000000	-1.000000	-1.000000	-1.000000	51.000000	0.000000	-1.000000	-1.000000	218851.000000	1775803710.004964
-18265.995000	-34052.985000	-1014.705000	20041.830000	5203.665000	-12566.520000	-35211.375000	-20632.995000	1.298313	0.943361	2.408667	3.102314	-0.626600	-0.565023	-2.836268	-1.018249	3.479280	2.746800	-0.366240	-0.585509	0.144836	0.779783	-1.000000	-1.000000	-1.000000	-1.000000	-1.000000	-1.000000	-1.000000	51.000000	0.000000	-1.000000	-1.000000	218852.000000	1775803710.004992
-18262.125000	-34039.620000	-999.630000	20055.285000	5235.120000	-12556.440000	-35208.630000	-20632.050000	-1.360364	-2.228048	-1.994645	-1.047342	-5.147621	-4.033487	-4.717861	-2.838144	3.479280	2.746800	-0.366240	-0.585509	0.144836	0.779783	-1.000000	-1.000000	-1.000000	-1.000000	-1.000000	-1.000000	-1.000000	51.000000	0.000000	-1.000000	-1.000000	218853.000000	1775803710.099652
-18263.655000	-34049.295000	-1011.645000	20043.405000	5227.605000	-12563.820000	-35210.385000	-20633.355000	-3.648735	-4.214634	-5.092217	-4.044129	-5.311335	-4.645410	-4.531322	-3.895112	3.479280	2.746800	-0.366240	-0.585509	0.144836	0.779783	-1.000000	-1.000000	-1.000000	-1.000000	-1.000000	-1.000000	-1.000000	51.000000	0.000000	-1.000000	-1.000000	218854.000000	1775803710.099680
-18257.850000	-34052.355000	-1017.090000	20039.445000	5223.870000	-12562.425000	-35203.950000	-20625.255000	-4.355567	-4.561782	-5.870021	-4.989025	-1.176837	-3.572394	-2.956110	-3.747788	3.479280	2.746800	-0.366240	-0.585509	0.144836	0.779783	-1.000000	-1.000000	-1.000000	-1.000000	-1.000000	-1.000000	-1.000000	51.000000	0.000000	-1.000000	-1.000000	218855.000000	1775803710.099710
-18265.995000	-34056.495000	-1019.070000	20036.070000	5221.845000	-12568.545000	-35212.905000	-20634.210000	-3.411738	-4.254294	-5.403404	-4.843782	2.716214	-2.757251	-1.075698	-2.434977	3.479280	2.746800	-0.366240	-0.585509	0.144836	0.779783	-1.000000	-1.000000	-1.000000	-1.000000	-1.000000	-1.000000	-1.000000	51.000000	0.000000	-1.000000	-1.000000	218856.000000	1775803710.099723
-18266.445000	-34055.640000	-1015.740000	20039.220000	5218.245000	-12569.130000	-35215.605000	-20636.415000	-1.871271	-3.692491	-4.194346	-4.006381	3.216890	-2.795726	-0.004056	-0.911447	3.479280	2.746800	-0.366240	-0.585509	0.144836	0.779783	-1.000000	-1.000000	-1.000000	-1.000000	-1.000000	-1.000000	-1.000000	51.000000	0.000000	-1.000000	-1.000000	218857.000000	1775803710.099782
-18261.675000	-34049.475000	-1007.640000	20047.860000	5220.495000	-12566.295000	-35214.300000	-20633.580000	-0.641041	-2.295477	-1.737267	-1.927818	0.932730	-2.885893	-0.124265	-0.113878	3.479280	2.746800	-0.366240	-0.585509	0.144836	0.779783	-1.000000	-1.000000	-1.000000	-1.000000	-1.000000	-1.000000	-1.000000	51.000000	0.000000	-1.000000	-1.000000	218858.000000	1775803710.099796
-18262.395000	-34046.370000	-1002.690000	20052.180000	5217.120000	-12571.290000	-35220.825000	-20637.765000	0.402141	0.355496	1.976282	1.521252	-1.698659	-2.022461	-0.657506	0.157701	3.479280	2.746800	-0.366240	-0.585509	0.144836	0.779783	-1.000000	-1.000000	-1.000000	-1.000000	-1.000000	-1.000000	-1.000000	51.000000	0.000000	-1.000000	-1.000000	218859.000000	1775803710.099813
-18254.880000	-34042.770000	-1002.465000	20054.655000	5222.115000	-12563.415000	-35210.970000	-20628.180000	1.580047	3.535574	5.555641	5.073700	-2.742159	-0.096756	-0.590895	0.604847	3.479280	2.746800	-0.366240	-0.585509	0.144836	0.779783	-1.000000	-1.000000	-1.000000	-1.000000	-1.000000	-1.000000	-1.000000	51.000000	0.000000	-1.000000	-1.000000	218860.000000	1775803710.099824
-18254.160000	-34043.670000	-1005.345000	20049.615000	5222.520000	-12561.030000	-35207.550000	-20624.220000	2.718413	5.624506	6.892486	6.613420	-1.733185	2.313430	0.667346	1.675577	0.671440	1.953280	-0.381500	-0.588133	0.146667	0.779051	-1.000000	-1.000000	-1.000000	-1.000000	-1.000000	-1.000000	-1.000000	51.000000	0.000000	-1.000000	-1.000000	218861.000000	1775803710.099839
-18249.840000	-34038.765000	-999.315000	20057.355000	5229.540000	-12554.460000	-35201.160000	-20619.180000	3.291173	5.444468	5.067307	5.041397	0.583464	4.456714	2.876889	3.164788	0.671440	1.953280	-0.381500	-0.588133	0.146667	0.779051	-1.000000	-1.000000	-1.000000	-1.000000	-1.000000	-1.000000	-1.000000	51.000000	0.000000	-1.000000	-1.000000	218862.000000	1775803710.099851
-18243.495000	-34031.520000	-991.530000	20063.835000	5233.590000	-12551.310000	-35197.290000	-20615.175000	2.914580	3.341993	1.478062	1.576424	2.962875	5.489854	4.776689	4.099961	0.671440	1.953280	-0.381500	-0.588133	0.146667	0.779051	-1.000000	-1.000000	-1.000000	-1.000000	-1.000000	-1.000000	-1.000000	51.000000	0.000000	-1.000000	-1.000000	218863.000000	1775803710.099865
-18248.040000	-34036.155000	-995.445000	20058.570000	5228.685000	-12558.645000	-35200.755000	-20620.620000	1.639200	0.623897	-1.622261	-1.590919	4.139106	4.656746	4.908822	3.444193	0.671440	1.953280	-0.381500	-0.588133	0.146667	0.779051	-1.000000	-1.000000	-1.000000	-1.000000	-1.000000	-1.000000	-1.000000	51.000000	0.000000	-1.000000	-1.000000	218864.000000	1775803710.099876
-18253.575000	-34042.410000	-1002.645000	20051.775000	5225.400000	-12562.875000	-35205.300000	-20624.760000	-0.481351	-2.012047	-3.488728	-3.683151	3.129273	1.637119	2.549881	0.801910	0.671440	1.953280	-0.381500	-0.588133	0.146667	0.779051	-1.000000	-1.000000	-1.000000	-1.000000	-1.000000	-1.000000	-1.000000	51.000000	0.000000	-1.000000	-1.000000	218865.000000	1775803710.099890
-18248.895000	-34038.810000	-1000.035000	20056.455000	5232.330000	-12558.285000	-35206.830000	-20620.800000	-3.063474	-4.348138	-4.611930	-4.958505	0.275306	-2.534201	-1.602103	-2.904451	0.671440	1.953280	-0.381500	-0.588133	0.146667	0.779051	-1.000000	-1.000000	-1.000000	-1.000000	-1.000000	-1.000000	-1.000000	51.000000	0.000000	-1.000000	-1.000000	218866.000000	1775803710.099901
-18246.825000	-34036.695000	-998.055000	20060.190000	5234.625000	-12550.545000	-35203.455000	-20618.100000	-4.716323	-5.466145	-4.834011	-4.956130	-2.439964	-5.348011	-5.395939	-5.495540	0.671440	1.953280	-0.381500	-0.588133	0.146667	0.779051	-1.000000	-1.000000	-1.000000	-1.000000	-1.000000	-1.000000	-1.000000	51.000000	0.000000	-1.000000	-1.000000	218867.000000	1775803710.099915
-18243.675000	-34030.665000	-989.640000	20066.445000	5238.945000	-12544.695000	-35198.820000	-20614.545000	-4.161926	-4.342828	-3.364908	-2.963921	-3.236266	-4.845665	-6.548861	-5.288480	0.671440	1.953280	-0.381500	-0.588133	0.146667	0.779051	-1.000000	-1.000000	-1.000000	-1.000000	-1.000000	-1.000000	-1.000000	51.000000	0.000000	-1.000000	-1.000000	218868.000000	1775803710.099926
-18235.890000	-34023.420000	-982.800000	20071.260000	5243.400000	-12539.295000	-35192.610000	-20607.075000	-1.564902	-1.152860	-0.145982	0.531418	-2.040445	-1.506254	-4.336075	-2.476455	0.671440	1.953280	-0.381500	-0.588133	0.146667	0.779051	-1.000000	-1.000000	-1.000000	-1.000000	-1.000000	-1.000000	-1.000000	51.000000	0.000000	-1.000000	-1.000000	218869.000000	1775803710.099940
-18236.565000	-34024.095000	-984.510000	20069.055000	5238.135000	-12543.885000	-35193.645000	-20607.075000	1.700221	2.585240	3.465222	3.773452	-0.160874	2.151179	-0.169148	1.274755	0.671440	1.953280	-0.381500	-0.588133	0.146667	0.779051	-1.000000	-1.000000	-1.000000	-1.000000	-1.000000	-1.000000	-1.000000	51.000000	0.000000	-1.000000	-1.000000	218870.000000	1775803710.099951
-18238.230000	-34025.220000	-985.365000	20068.380000	5236.920000	-12547.845000	-35195.310000	-20609.010000	3.802370	4.763419	5.295523	4.867589	0.769320	3.482732	3.326533	3.828260	-5.707240	0.396760	0.915600	-0.593443	0.149597	0.781736	-1.000000	-1.000000	-1.000000	-1.000000	-1.000000	-1.000000	-1.000000	51.000000	0.000000	-1.000000	-1.000000	218871.000000	1775803710.099966
-18236.205000	-34022.070000	-981.090000	20073.105000	5241.105000	-12546.945000	-35194.905000	-20608.290000	3.571558	4.192691	4.227060	3.342549	0.220209	1.754101	4.225567	3.818867	-5.707240	0.396760	0.915600	-0.593443	0.149597	0.781736	-1.000000	-1.000000	-1.000000	-1.000000	-1.000000	-1.000000	-1.000000	51.000000	0.000000	-1.000000	-1.000000	218872.000000	1775803710.099977
-18230.355000	-34017.120000	-976.005000	20078.055000	5245.785000	-12540.645000	-35188.065000	-20602.215000	1.590046	1.698455	1.360604	0.651364	-0.701868	-1.220595	2.751896	1.766732	-5.707240	0.396760	0.915600	-0.593443	0.149597	0.781736	-1.000000	-1.000000	-1.000000	-1.000000	-1.000000	-1.000000	-1.000000	51.000000	0.000000	-1.000000	-1.000000	218873.000000	1775803710.099991
-18229.725000	-34017.210000	-975.240000	20083.860000	5251.095000	-12535.380000	-35185.815000	-20601.855000	-0.449782	-0.837727	-1.258779	-1.252688	-0.649422	-2.785930	0.702046	-0.496728	-5.707240	0.396760	0.915600	-0.593443	0.149597	0.781736	-1.000000	-1.000000	-1.000000	-1.000000	-1.000000	-1.000000	-1.000000	51.000000	0.000000	-1.000000	-1.000000	218874.000000	1775803710.100002
-18228.690000	-34016.805000	-975.690000	20083.050000	5249.520000	-12533.355000	-35185.545000	-20600.145000	-1.489663	-2.280038	-2.582852	-1.633319	0.440179	-1.875308	-0.544113	-1.665958	-5.707240	0.396760	0.915600	-0.593443	0.149597	0.781736	-1.000000	-1.000000	-1.000000	-1.000000	-1.000000	-1.000000	-1.000000	51.000000	0.000000	-1.000000	-1.000000	218875.000000	1775803710.100015
-18223.830000	-34012.980000	-973.125000	20080.755000	5251.455000	-12526.380000	-35179.695000	-20594.565000	-1.556643	-2.564547	-2.778509	-1.272143	1.440322	0.459401	-0.879082	-1.623405	-5.707240	0.396760	0.915600	-0.593443	0.149597	0.781736	-1.000000	-1.000000	-1.000000	-1.000000	-1.000000	-1.000000	-1.000000	51.000000	0.000000	-1.000000	-1.000000	218876.000000	1775803710.100026
-18223.785000	-34011.405000	-970.020000	20084.805000	5258.880000	-12523.050000	-35179.200000	-20595.510000	-1.039906	-1.957274	-2.233327	-1.198199	1.518580	2.511827	-0.708183	-0.833845	-5.707240	0.396760	0.915600	-0.593443	0.149597	0.781736	-1.000000	-1.000000	-1.000000	-1.000000	-1.000000	-1.000000	-1.000000	51.000000	0.000000	-1.000000	-1.000000	218877.000000	1775803710.100040
-18225.450000	-34012.080000	-969.930000	20087.505000	5262.300000	-12525.345000	-35182.755000	-20599.245000	-0.455361	-0.882734	-1.200311	-1.393630	0.998744	3.078044	-0.541407	-0.097915	-5.707240	0.396760	0.915600	-0.593443	0.149597	0.781736	-1.000000	-1.000000	-1.000000	-1.000000	-1.000000	-1.000000	-1.000000	51.000000	0.000000	-1.000000	-1.000000	218878.000000	1775803710.100051
-18227.970000	-34016.130000	-974.745000	20082.510000	5254.785000	-12533.085000	-35186.580000	-20601.540000	-0.364574	-0.046347	-0.195245	-1.323497	0.294445	1.596354	-0.951099	-0.195179	-5.707240	0.396760	0.915600	-0.593443	0.149597	0.781736	-1.000000	-1.000000	-1.000000	-1.000000	-1.000000	-1.000000	-1.000000	51.000000	0.000000	-1.000000	-1.000000	218879.000000	1775803710.100065
-18232.695000	-34020.495000	-982.710000	20076.525000	5243.310000	-12543.795000	-35194.275000	-20606.355000	-0.922233	-0.036618	0.015513	-1.137405	-1.074270	-1.668551	-2.052745	-1.122118	-5.707240	0.396760	0.915600	-0.593443	0.149597	0.781736	-1.000000	-1.000000	-1.000000	-1.000000	-1.000000	-1.000000	-1.000000	51.000000	0.000000	-1.000000	-1.000000	218880.000000	1775803710.100076
-18231.165000	-34019.415000	-985.545000	20077.065000	5236.155000	-12543.705000	-35191.665000	-20605.680000	-1.649089	-0.692983	-0.799274	-1.233448	-3.438765	-5.237512	-3.138924	-2.054428	-7.492660	-0.473060	1.571780	-0.594481	0.147888	0.781004	-1.000000	-1.000000	-1.000000	-1.000000	-1.000000	-1.000000	-1.000000	51.000000	0.000000	-1.000000	-1.000000	218881.000000	1775803710.100091
-18235.620000	-34020.675000	-982.755000	20074.860000	5233.455000	-12546.765000	-35197.200000	-20611.530000	-1.770867	-1.112433	-1.691918	-1.266021	-5.622792	-6.825717	-3.099982	-2.111104	-7.492660	-0.473060	1.571780	-0.594481	0.147888	0.781004	-1.000000	-1.000000	-1.000000	-1.000000	-1.000000	-1.000000	-1.000000	51.000000	0.000000	-1.000000	-1.000000	218882.000000	1775803710.100102
-18230.220000	-34017.480000	-968.760000	20078.145000	5236.560000	-12541.680000	-35191.755000	-20604.465000	-0.861087	-0.530417	-1.028483	-0.547995	-5.568534	-4.971566	-1.422850	-0.976129	-7.492660	-0.473060	1.571780	-0.594481	0.147888	0.781004	-1.000000	-1.000000	-1.000000	-1.000000	-1.000000	-1.000000	-1.000000	51.000000	0.000000	-1.000000	-1.000000	218883.000000	1775803710.100117
-18227.115000	-34015.725000	-969.975000	20085.210000	5250.465000	-12534.705000	-35187.930000	-20600.370000	0.969023	1.003951	1.808873	1.164957	-2.087614	-0.160433	1.463075	1.195807	-7.492660	-0.473060	1.571780	-0.594481	0.147888	0.781004	-1.000000	-1.000000	-1.000000	-1.000000	-1.000000	-1.000000	-1.000000	51.000000	0.000000	-1.000000	-1.000000	218884.000000	1775803710.100128
-18228.420000	-34017.840000	-975.330000	20082.645000	5261.985000	-12533.400000	-35187.705000	-20599.830000	3.037975	2.656265	4.994753	3.337058	4.076929	5.468559	4.450579	3.710586	-7.492660	-0.473060	1.571780	-0.594481	0.147888	0.781004	-1.000000	-1.000000	-1.000000	-1.000000	-1.000000	-1.000000	-1.000000	51.000000	0.000000	-1.000000	-1.000000	218885.000000	1775803710.100142
-18225.180000	-34013.700000	-971.550000	20085.165000	5263.695000	-12527.595000	-35183.385000	-20596.770000	4.200325	3.393150	5.772670	4.665365	10.085874	9.191608	6.109638	5.238917	-7.492660	-0.473060	1.571780	-0.594481	0.147888	0.781004	-1.000000	-1.000000	-1.000000	-1.000000	-1.000000	-1.000000	-1.000000	51.000000	0.000000	-1.000000	-1.000000	218886.000000	1775803710.100153
-18226.575000	-34014.105000	-972.270000	20082.105000	5257.485000	-12532.770000	-35186.445000	-20600.415000	3.730541	2.856784	3.519073	4.071097	12.145293	9.181501	5.534981	4.713727	-7.492660	-0.473060	1.571780	-0.594481	0.147888	0.781004	-1.000000	-1.000000	-1.000000	-1.000000	-1.000000	-1.000000	-1.000000	51.000000	0.000000	-1.000000	-1.000000	218887.000000	1775803710.100166
-18231.255000	-34020.495000	-979.155000	20075.085000	5251.365000	-12539.160000	-35189.640000	-20602.845000	1.767015	1.314484	-0.205547	1.562954	8.177090	5.302167	2.823169	2.117907	-7.492660	-0.473060	1.571780	-0.594481	0.147888	0.781004	-1.000000	-1.000000	-1.000000	-1.000000	-1.000000	-1.000000	-1.000000	51.000000	0.000000	-1.000000	-1.000000	218888.000000	1775803710.100178
-18231.390000	-34021.620000	-980.460000	20074.005000	5254.380000	-12538.980000	-35191.260000	-20602.080000	-0.966130	-0.852914	-3.649567	-1.873892	-0.040539	-0.822430	-1.029851	-1.446324	-7.492660	-0.473060	1.571780	-0.594481	0.147888	0.781004	-1.000000	-1.000000	-1.000000	-1.000000	-1.000000	-1.000000	-1.000000	51.000000	0.000000	-1.000000	-1.000000	218889.000000	1775803710.100192
-18225.045000	-34013.925000	-972.090000	20080.530000	5258.475000	-12533.625000	-35186.985000	-20597.490000	-3.153811	-2.722217	-5.358854	-4.447010	-7.754501	-6.122676	-4.283335	-4.133075	-7.492660	-0.473060	1.571780	-0.594481	0.147888	0.781004	-1.000000	-1.000000	-1.000000	-1.000000	-1.000000	-1.000000	-1.000000	51.000000	0.000000	-1.000000	-1.000000	218890.000000	1775803710.100203
-18220.050000	-34007.490000	-965.520000	20088.135000	5258.070000	-12531.285000	-35182.215000	-20593.485000	-3.396852	-2.873421	-4.228033	-4.349688	-10.875290	-7.825784	-5.232270	-4.473060	-4.654300	0.824040	2.517900	-0.586729	0.143921	0.778807	-1.000000	-1.000000	-1.000000	-1.000000	-1.000000	-1.000000	-1.000000	51.000000	0.000000	-1.000000	-1.000000	218891.000000	1775803710.100217
-18223.875000	-34010.415000	-967.455000	20089.080000	5259.060000	-12529.845000	-35183.655000	-20596.455000	-1.645694	-1.031692	-0.743847	-1.456176	-8.818341	-5.578889	-3.550105	-2.607904	-4.654300	0.824040	2.517900	-0.586729	0.143921	0.778807	-1.000000	-1.000000	-1.000000	-1.000000	-1.000000	-1.000000	-1.000000	51.000000	0.000000	-1.000000	-1.000000	218892.000000	1775803710.100260
-18227.745000	-34014.195000	-971.550000	20086.245000	5260.095000	-12529.620000	-35184.195000	-20598.480000	0.391718	1.101293	2.640691	2.101163	-3.903936	-1.448802	-0.715809	-0.238125	-4.654300	0.824040	2.517900	-0.586729	0.143921	0.778807	-1.000000	-1.000000	-1.000000	-1.000000	-1.000000	-1.000000	-1.000000	51.000000	0.000000	-1.000000	-1.000000	218893.000000	1775803710.100275
-18228.870000	-34016.805000	-976.005000	20078.640000	5249.115000	-12536.055000	-35188.470000	-20601.090000	0.995092	1.576818	3.507983	3.590016	0.796575	1.868657	1.273793	0.954245	-4.654300	0.824040	2.517900	-0.586729	0.143921	0.778807	-1.000000	-1.000000	-1.000000	-1.000000	-1.000000	-1.000000	-1.000000	51.000000	0.000000	-1.000000	-1.000000	218894.000000	1775803710.100286
-18219.645000	-34007.130000	-967.230000	20087.055000	5254.830000	-12528.270000	-35181.270000	-20591.955000	0.302709	0.390136	1.779398	2.165093	3.187552	2.909913	1.622425	0.837800	-4.654300	0.824040	2.517900	-0.586729	0.143921	0.778807	-1.000000	-1.000000	-1.000000	-1.000000	-1.000000	-1.000000	-1.000000	51.000000	0.000000	-1.000000	-1.000000	218895.000000	1775803710.100301
-18198.315000	-33983.145000	-946.800000	20106.900000	5274.000000	-12512.700000	-35162.955000	-20571.705000	0.199857	-0.321016	-0.070116	-0.057804	3.673779	2.514177	1.421411	0.938462	-4.654300	0.824040	2.517900	-0.586729	0.143921	0.778807	-1.000000	-1.000000	-1.000000	-1.000000	-1.000000	-1.000000	-1.000000	51.000000	0.000000	-1.000000	-1.000000	218896.000000	1775803710.100312
-18187.830000	-33975.180000	-935.820000	20119.410000	5283.405000	-12505.770000	-35155.755000	-20562.660000	2.178264	1.359788	0.505734	-0.115690	4.388552	2.585983	2.284121	2.667139	-4.654300	0.824040	2.517900	-0.586729	0.143921	0.778807	-1.000000	-1.000000	-1.000000	-1.000000	-1.000000	-1.000000	-1.000000	51.000000	0.000000	-1.000000	-1.000000	218897.000000	1775803710.100326
-18213.255000	-33999.525000	-958.365000	20097.990000	5264.865000	-12528.585000	-35178.795000	-20588.760000	4.563876	3.820959	2.611765	1.751431	5.454769	2.928439	3.438670	4.551659	-4.654300	0.824040	2.517900	-0.586729	0.143921	0.778807	-1.000000	-1.000000	-1.000000	-1.000000	-1.000000	-1.000000	-1.000000	51.000000	0.000000	-1.000000	-1.000000	218898.000000	1775803710.100337
-18216.090000	-34000.965000	-957.195000	20099.205000	5263.245000	-12526.515000	-35177.355000	-20590.875000	3.402969	2.926890	2.426849	1.955480	4.232521	1.221862	2.025188	2.990607	-4.654300	0.824040	2.517900	-0.586729	0.143921	0.778807	-1.000000	-1.000000	-1.000000	-1.000000	-1.000000	-1.000000	-1.000000	51.000000	0.000000	-1.000000	-1.000000	218899.000000	1775803710.114628
-18225.810000	-34009.695000	-964.080000	20092.410000	5255.550000	-12530.745000	-35183.295000	-20599.875000	-2.262793	-2.343817	-1.537277	-1.332983	-0.397252	-2.836289	-2.430427	-2.658356	-4.654300	0.824040	2.517900	-0.586729	0.143921	0.778807	-1.000000	-1.000000	-1.000000	-1.000000	-1.000000	-1.000000	-1.000000	51.000000	0.000000	-1.000000	-1.000000	218900.000000	1775803710.114656
-18240.030000	-34024.545000	-981.045000	20074.320000	5237.055000	-12542.805000	-35196.120000	-20613.465000	-8.819810	-8.480493	-6.720047	-6.085204	-6.196470	-6.601936	-7.009824	-8.755401	-0.076300	2.029580	2.548420	-0.582823	0.139709	0.778562	-1.000000	-1.000000	-1.000000	-1.000000	-1.000000	-1.000000	-1.000000	51.000000	0.000000	-1.000000	-1.000000	218901.000000	1775803710.114685
-18245.700000	-34036.470000	-1001.790000	20054.835000	5228.055000	-12549.870000	-35200.305000	-20617.605000	-12.091572	-11.669811	-10.223932	-9.649979	-10.244139	-7.879118	-8.939294	-11.413357	-0.076300	2.029580	2.548420	-0.582823	0.139709	0.778562	-1.000000	-1.000000	-1.000000	-1.000000	-1.000000	-1.000000	-1.000000	51.000000	0.000000	-1.000000	-1.000000	218902.000000	1775803710.114698
-18249.075000	-34035.210000	-995.400000	20060.595000	5226.480000	-12558.780000	-35207.730000	-20623.005000	-10.143836	-10.201857	-10.449614	-10.253285	-10.525290	-6.349764	-7.330508	-9.103756	-0.076300	2.029580	2.548420	-0.582823	0.139709	0.778562	-1.000000	-1.000000	-1.000000	-1.000000	-1.000000	-1.000000	-1.000000	51.000000	0.000000	-1.000000	-1.000000	218903.000000	1775803710.114714
-18261.855000	-34047.630000	-1006.785000	20050.695000	5218.605000	-12570.030000	-35217.855000	-20634.885000	-3.834366	-4.425082	-6.449899	-6.606881	-6.370105	-2.885572	-3.011715	-2.978981	-0.076300	2.029580	2.548420	-0.582823	0.139709	0.778562	-1.000000	-1.000000	-1.000000	-1.000000	-1.000000	-1.000000	-1.000000	51.000000	0.000000	-1.000000	-1.000000	218904.000000	1775803710.114725
-18263.655000	-34051.635000	-1011.240000	20048.895000	5234.535000	-12564.270000	-35216.685000	-20635.200000	3.701547	3.168675	0.786744	0.563714	0.954748	1.282314	2.095350	3.931466	-0.076300	2.029580	2.548420	-0.582823	0.139709	0.778562	-1.000000	-1.000000	-1.000000	-1.000000	-1.000000	-1.000000	-1.000000	51.000000	0.000000	-1.000000	-1.000000	218905.000000	1775803710.114739
-18263.340000	-34051.320000	-1010.835000	20047.815000	5244.165000	-12559.680000	-35212.185000	-20633.490000	9.383843	9.349729	8.099669	8.126806	9.073927	5.491004	6.475171	9.027135	-0.076300	2.029580	2.548420	-0.582823	0.139709	0.778562	-1.000000	-1.000000	-1.000000	-1.000000	-1.000000	-1.000000	-1.000000	51.000000	0.000000	-1.000000	-1.000000	218906.000000	1775803710.114750
-18255.960000	-34042.590000	-1001.520000	20056.455000	5240.745000	-12554.325000	-35206.830000	-20626.920000	12.062720	12.483130	12.822658	13.080070	15.051714	9.242285	9.530205	11.482844	-0.076300	2.029580	2.548420	-0.582823	0.139709	0.778562	-1.000000	-1.000000	-1.000000	-1.000000	-1.000000	-1.000000	-1.000000	51.000000	0.000000	-1.000000	-1.000000	218907.000000	1775803710.116606
-18253.170000	-34037.685000	-998.280000	20058.075000	5242.860000	-12547.305000	-35204.715000	-20624.805000	12.022138	12.736904	14.150224	14.234297	15.787521	11.355071	10.716054	11.455448	-0.076300	2.029580	2.548420	-0.582823	0.139709	0.778562	-1.000000	-1.000000	-1.000000	-1.000000	-1.000000	-1.000000	-1.000000	51.000000	0.000000	-1.000000	-1.000000	218908.000000	1775803710.116631
-18249.165000	-34033.770000	-992.295000	20062.710000	5242.320000	-12546.540000	-35206.245000	-20622.870000	9.733076	10.649573	12.229805	11.756362	10.389414	10.559728	9.271718	9.118610	-0.076300	2.029580	2.548420	-0.582823	0.139709	0.778562	-1.000000	-1.000000	-1.000000	-1.000000	-1.000000	-1.000000	-1.000000	51.000000	0.000000	-1.000000	-1.000000	218909.000000	1775803710.123902
-18245.925000	-34031.250000	-991.125000	20064.600000	5241.600000	-12545.910000	-35204.805000	-20618.415000	5.618771	6.520616	7.578543	6.573476	1.397231	6.501173	5.071140	4.838421	-0.076300	2.029580	2.548420	-0.582823	0.139709	0.778562	-1.000000	-1.000000	-1.000000	-1.000000	-1.000000	-1.000000	-1.000000	51.000000	0.000000	-1.000000	-1.000000	218910.000000	1775803710.123930
-18237.825000	-34023.555000	-983.520000	20073.105000	5252.310000	-12536.775000	-35195.940000	-20609.280000	0.614189	1.090287	1.382906	0.356826	-6.930508	0.389177	-0.460300	-0.164183	3.479280	2.365300	1.175020	-0.583922	0.136169	0.781980	-1.000000	-1.000000	-1.000000	-1.000000	-1.000000	-1.000000	-1.000000	51.000000	0.000000	-1.000000	-1.000000	218911.000000	1775803710.125294
-18234.720000	-34022.520000	-984.555000	20070.675000	5246.460000	-12540.555000	-35193.330000	-20605.365000	-3.843074	-4.146569	-4.565018	-4.976580	-11.205378	-5.369484	-4.902998	-4.177257	3.479280	2.365300	1.175020	-0.583922	0.136169	0.781980	-1.000000	-1.000000	-1.000000	-1.000000	-1.000000	-1.000000	-1.000000	51.000000	0.000000	-1.000000	-1.000000	218912.000000	1775803710.125317
-18234.000000	-34023.735000	-987.615000	20066.265000	5239.035000	-12545.190000	-35191.440000	-20604.420000	-6.731019	-7.871456	-8.822564	-8.414179	-11.037379	-9.025985	-6.792933	-6.316229	3.479280	2.365300	1.175020	-0.583922	0.136169	0.781980	-1.000000	-1.000000	-1.000000	-1.000000	-1.000000	-1.000000	-1.000000	51.000000	0.000000	-1.000000	-1.000000	218913.000000	1775803710.128810
-18240.795000	-34030.665000	-991.170000	20064.510000	5235.525000	-12545.370000	-35194.815000	-20612.790000	-8.074268	-9.738082	-10.887719	-9.973042	-8.491243	-10.263083	-6.549245	-7.085025	3.479280	2.365300	1.175020	-0.583922	0.136169	0.781980	-1.000000	-1.000000	-1.000000	-1.000000	-1.000000	-1.000000	-1.000000	51.000000	0.000000	-1.000000	-1.000000	218914.000000	1775803710.128830
-18237.825000	-34029.540000	-987.390000	20072.385000	5244.120000	-12534.165000	-35190.630000	-20611.260000	-8.324833	-9.902157	-10.620395	-9.526881	-5.161951	-8.971553	-5.367877	-7.359852	3.479280	2.365300	1.175020	-0.583922	0.136169	0.781980	-1.000000	-1.000000	-1.000000	-1.000000	-1.000000	-1.000000	-1.000000	51.000000	0.000000	-1.000000	-1.000000	218915.000000	1775803710.132428
-18238.050000	-34027.605000	-987.120000	20073.510000	5240.430000	-12529.485000	-35189.100000	-20611.485000	-7.372914	-8.212731	-7.905280	-6.663425	-1.260036	-4.986963	-3.839954	-7.023837	3.479280	2.365300	1.175020	-0.583922	0.136169	0.781980	-1.000000	-1.000000	-1.000000	-1.000000	-1.000000	-1.000000	-1.000000	51.000000	0.000000	-1.000000	-1.000000	218916.000000	1775803710.132450
-18236.565000	-34018.875000	-980.595000	20076.840000	5242.635000	-12545.910000	-35196.525000	-20611.530000	-4.873441	-4.425716	-3.244744	-1.990445	2.709886	0.214178	-2.146752	-5.285546	3.479280	2.365300	1.175020	-0.583922	0.136169	0.781980	-1.000000	-1.000000	-1.000000	-1.000000	-1.000000	-1.000000	-1.000000	51.000000	0.000000	-1.000000	-1.000000	218917.000000	1775803710.145167
-18241.605000	-34021.395000	-982.170000	20071.260000	5245.560000	-12553.695000	-35204.130000	-20617.830000	-1.342320	0.736153	1.904682	2.500582	5.534848	3.399970	-0.916066	-2.211572	3.479280	2.365300	1.175020	-0.583922	0.136169	0.781980	-1.000000	-1.000000	-1.000000	-1.000000	-1.000000	-1.000000	-1.000000	51.000000	0.000000	-1.000000	-1.000000	218918.000000	1775803710.145202
-18237.240000	-34019.235000	-982.755000	20073.285000	5254.965000	-12542.445000	-35197.200000	-20612.790000	1.955977	5.244435	5.596915	4.816801	6.596879	3.141208	-0.458419	1.106371	3.479280	2.365300	1.175020	-0.583922	0.136169	0.781980	-1.000000	-1.000000	-1.000000	-1.000000	-1.000000	-1.000000	-1.000000	51.000000	0.000000	-1.000000	-1.000000	218919.000000	1775803710.145231
-18229.545000	-34013.655000	-976.500000	20081.295000	5261.985000	-12535.470000	-35189.685000	-20605.050000	4.270780	7.243392	6.610510	4.666769	6.248315	1.780058	0.275261	3.893814	3.479280	2.365300	1.175020	-0.583922	0.136169	0.781980	-1.000000	-1.000000	-1.000000	-1.000000	-1.000000	-1.000000	-1.000000	51.000000	0.000000	-1.000000	-1.000000	218920.000000	1775803710.145245
-18227.070000	-34009.290000	-967.815000	20090.340000	5263.155000	-12531.780000	-35186.580000	-20601.495000	5.648328	6.586010	5.486225	3.551050	4.897332	2.034958	2.316042	6.012249	2.823100	2.121140	0.793520	-0.584105	0.138610	0.786558	-1.000000	-1.000000	-1.000000	-1.000000	-1.000000	-1.000000	-1.000000	51.000000	0.000000	-1.000000	-1.000000	218921.000000	1775803710.145260
-18226.440000	-34008.210000	-966.330000	20091.960000	5263.560000	-12530.880000	-35183.970000	-20601.090000	5.915159	4.306286	3.665088	2.826199	2.462103	3.675107	4.861239	6.953525	2.823100	2.121140	0.793520	-0.584105	0.138610	0.786558	-1.000000	-1.000000	-1.000000	-1.000000	-1.000000	-1.000000	-1.000000	51.000000	0.000000	-1.000000	-1.000000	218922.000000	1775803710.145272
-18226.980000	-34008.120000	-966.285000	20090.655000	5258.250000	-12533.490000	-35184.555000	-20603.115000	4.550426	1.378966	1.781226	2.223462	-1.048098	4.508718	5.982803	5.831433	2.823100	2.121140	0.793520	-0.584105	0.138610	0.786558	-1.000000	-1.000000	-1.000000	-1.000000	-1.000000	-1.000000	-1.000000	51.000000	0.000000	-1.000000	-1.000000	218923.000000	1775803710.239051
-18234.540000	-34016.490000	-976.365000	20080.035000	5248.845000	-12541.185000	-35189.955000	-20609.505000	1.525367	-1.651507	-0.532505	0.550690	-4.994503	2.913163	4.462825	2.455154	2.823100	2.121140	0.793520	-0.584105	0.138610	0.786558	-1.000000	-1.000000	-1.000000	-1.000000	-1.000000	-1.000000	-1.000000	51.000000	0.000000	-1.000000	-1.000000	218924.000000	1775803710.239080
-18235.350000	-34019.910000	-984.240000	20068.785000	5243.310000	-12544.155000	-35194.950000	-20609.055000	-2.306263	-4.409192	-3.572303	-2.730251	-8.201245	-0.853520	0.625855	-2.054492	2.823100	2.121140	0.793520	-0.584105	0.138610	0.786558	-1.000000	-1.000000	-1.000000	-1.000000	-1.000000	-1.000000	-1.000000	51.000000	0.000000	-1.000000	-1.000000	218925.000000	1775803710.239110
-18231.750000	-34014.330000	-980.775000	20071.530000	5245.380000	-12539.295000	-35191.710000	-20605.185000	-5.244052	-6.020428	-6.401573	-6.382228	-9.133152	-4.662187	-3.696305	-5.527882	2.823100	2.121140	0.793520	-0.584105	0.138610	0.786558	-1.000000	-1.000000	-1.000000	-1.000000	-1.000000	-1.000000	-1.000000	51.000000	0.000000	-1.000000	-1.000000	218926.000000	1775803710.239124
-18233.280000	-34013.745000	-975.780000	20079.270000	5250.690000	-12538.305000	-35193.735000	-20607.615000	-5.657345	-5.264641	-6.910402	-7.626503	-6.569594	-5.964142	-6.117034	-6.159452	2.823100	2.121140	0.793520	-0.584105	0.138610	0.786558	-1.000000	-1.000000	-1.000000	-1.000000	-1.000000	-1.000000	-1.000000	51.000000	0.000000	-1.000000	-1.000000	218927.000000	1775803710.239254
-18231.030000	-34004.340000	-967.140000	20084.040000	5249.520000	-12537.090000	-35192.115000	-20607.435000	-3.454090	-1.960387	-3.778959	-4.549829	-0.975425	-3.987723	-5.461248	-4.055715	2.823100	2.121140	0.793520	-0.584105	0.138610	0.786558	-1.000000	-1.000000	-1.000000	-1.000000	-1.000000	-1.000000	-1.000000	51.000000	0.000000	-1.000000	-1.000000	218928.000000	1775803710.239277
-18228.195000	-34006.050000	-968.310000	20084.850000	5247.495000	-12536.955000	-35189.730000	-20606.490000	-0.031202	2.423208	1.746870	1.539993	5.036809	-0.272853	-2.442001	-0.844137	2.823100	2.121140	0.793520	-0.584105	0.138610	0.786558	-1.000000	-1.000000	-1.000000	-1.000000	-1.000000	-1.000000	-1.000000	51.000000	0.000000	-1.000000	-1.000000	218929.000000	1775803710.239306
-18229.230000	-34020.090000	-978.480000	20083.095000	5250.465000	-12532.950000	-35186.310000	-20605.140000	2.928129	5.300200	6.262743	6.921939	8.508107	2.959851	1.283039	1.898247	2.823100	2.121140	0.793520	-0.584105	0.138610	0.786558	-1.000000	-1.000000	-1.000000	-1.000000	-1.000000	-1.000000	-1.000000	51.000000	0.000000	-1.000000	-1.000000	218930.000000	1775803710.239320
-18225.810000	-34011.270000	-971.640000	20087.730000	5252.355000	-12539.205000	-35187.975000	-20602.305000	4.260846	4.769084	6.927253	8.607364	8.393189	4.290707	4.059284	3.401258	-3.830260	2.472120	2.411080	-0.584532	0.147522	0.787351	-1.000000	-1.000000	-1.000000	-1.000000	-1.000000	-1.000000	-1.000000	51.000000	0.000000	-1.000000	-1.000000	218931.000000	1775803710.239336
-18233.415000	-34017.930000	-979.740000	20076.480000	5243.670000	-12551.625000	-35194.410000	-20607.705000	3.626598	1.708111	3.981017	6.207447	5.498078	3.143925	4.643967	3.482203	-3.830260	2.472120	2.411080	-0.584532	0.147522	0.787351	-1.000000	-1.000000	-1.000000	-1.000000	-1.000000	-1.000000	-1.000000	51.000000	0.000000	-1.000000	-1.000000	218932.000000	1775803710.239348
-18247.455000	-34031.115000	-994.590000	20061.135000	5235.345000	-12554.460000	-35199.855000	-20618.550000	1.169032	-1.620933	-0.457642	0.997894	1.020464	-0.099437	2.694841	2.024299	-3.830260	2.472120	2.411080	-0.584532	0.147522	0.787351	-1.000000	-1.000000	-1.000000	-1.000000	-1.000000	-1.000000	-1.000000	51.000000	0.000000	-1.000000	-1.000000	218933.000000	1775803710.239362
-18260.595000	-34042.590000	-1004.490000	20055.330000	5226.345000	-12560.985000	-35209.890000	-20632.140000	-2.618511	-4.170117	-4.704663	-5.040479	-3.758535	-3.612317	-0.845766	-0.925826	-3.830260	2.472120	2.411080	-0.584532	0.147522	0.787351	-1.000000	-1.000000	-1.000000	-1.000000	-1.000000	-1.000000	-1.000000	51.000000	0.000000	-1.000000	-1.000000	218934.000000	1775803710.239374
-18260.595000	-34040.565000	-1000.980000	20056.320000	5232.555000	-12556.350000	-35208.855000	-20632.770000	-6.116878	-5.422619	-7.161680	-9.022289	-6.963998	-5.048570	-4.083019	-4.264332	-3.830260	2.472120	2.411080	-0.584532	0.147522	0.787351	-1.000000	-1.000000	-1.000000	-1.000000	-1.000000	-1.000000	-1.000000	51.000000	0.000000	-1.000000	-1.000000	218935.000000	1775803710.239388
-18262.215000	-34043.040000	-1003.905000	20056.185000	5238.315000	-12553.875000	-35208.225000	-20634.300000	-6.837730	-4.355257	-6.150883	-8.427902	-6.615333	-3.232223	-5.041298	-5.758671	-3.830260	2.472120	2.411080	-0.584532	0.147522	0.787351	-1.000000	-1.000000	-1.000000	-1.000000	-1.000000	-1.000000	-1.000000	51.000000	0.000000	-1.000000	-1.000000	218936.000000	1775803710.239398
-18261.090000	-34042.320000	-1005.840000	20052.900000	5229.945000	-12560.985000	-35213.805000	-20634.480000	-3.600003	-0.758163	-1.767246	-3.447754	-2.646002	0.826370	-3.054516	-3.883709	-3.830260	2.472120	2.411080	-0.584532	0.147522	0.787351	-1.000000	-1.000000	-1.000000	-1.000000	-1.000000	-1.000000	-1.000000	51.000000	0.000000	-1.000000	-1.000000	218937.000000	1775803710.239412
-18264.555000	-34044.840000	-1007.595000	20049.660000	5218.740000	-12571.740000	-35221.185000	-20638.530000	2.040527	3.776092	3.593206	2.908335	2.021880	4.242503	0.364317	0.488354	-3.830260	2.472120	2.411080	-0.584532	0.147522	0.787351	-1.000000	-1.000000	-1.000000	-1.000000	-1.000000	-1.000000	-1.000000	51.000000	0.000000	-1.000000	-1.000000	218938.000000	1775803710.239423
-18270.180000	-34050.420000	-1013.355000	20042.280000	5212.080000	-12579.885000	-35226.405000	-20645.820000	6.867015	6.847278	7.106607	7.145236	3.993303	4.542070	2.859294	4.678654	-3.830260	2.472120	2.411080	-0.584532	0.147522	0.787351	-1.000000	-1.000000	-1.000000	-1.000000	-1.000000	-1.000000	-1.000000	51.000000	0.000000	-1.000000	-1.000000	218939.000000	1775803710.239436
-18279.675000	-34060.275000	-1023.030000	20032.830000	5208.120000	-12584.970000	-35231.355000	-20653.830000	8.221345	6.764650	7.186224	7.431073	2.678249	1.887443	3.322982	6.232882	-3.830260	2.472120	2.411080	-0.584532	0.147522	0.787351	-1.000000	-1.000000	-1.000000	-1.000000	-1.000000	-1.000000	-1.000000	51.000000	0.000000	-1.000000	-1.000000	218940.000000	1775803710.239446
-18283.365000	-34064.280000	-1026.495000	20030.310000	5206.365000	-12583.440000	-35230.725000	-20655.270000	5.671317	3.593083	4.096468	4.324691	0.205368	-1.256890	2.380045	4.668213	-10.346280	3.174080	4.165980	-0.585814	0.151123	0.785154	-1.000000	-1.000000	-1.000000	-1.000000	-1.000000	-1.000000	-1.000000	51.000000	0.000000	-1.000000	-1.000000	218941.000000	1775803710.239460
-18281.385000	-34060.545000	-1020.465000	20039.355000	5212.530000	-12573.900000	-35225.820000	-20652.840000	1.259184	-0.603635	0.007504	0.436277	-0.944184	-2.202404	1.489050	1.710518	-10.346280	3.174080	4.165980	-0.585814	0.151123	0.785154	-1.000000	-1.000000	-1.000000	-1.000000	-1.000000	-1.000000	-1.000000	51.000000	0.000000	-1.000000	-1.000000	218942.000000	1775803710.239470
-18274.320000	-34049.655000	-1004.670000	20055.825000	5221.710000	-12565.440000	-35222.130000	-20648.385000	-1.950621	-2.918831	-2.079236	-1.105443	0.373886	0.054988	1.683146	-0.274831	-10.346280	3.174080	4.165980	-0.585814	0.151123	0.785154	-1.000000	-1.000000	-1.000000	-1.000000	-1.000000	-1.000000	-1.000000	51.000000	0.000000	-1.000000	-1.000000	218943.000000	1775803710.239484
-18268.560000	-34049.205000	-1010.430000	20051.595000	5222.025000	-12563.640000	-35218.575000	-20640.780000	-2.132253	-1.928515	-0.873178	0.648346	3.342329	3.986457	2.706528	-0.154614	-10.346280	3.174080	4.165980	-0.585814	0.151123	0.785154	-1.000000	-1.000000	-1.000000	-1.000000	-1.000000	-1.000000	-1.000000	51.000000	0.000000	-1.000000	-1.000000	218944.000000	1775803710.239494
-18265.770000	-34047.180000	-1010.565000	20050.695000	5226.570000	-12565.215000	-35218.395000	-20639.565000	0.050883	0.927554	1.599624	3.163468	5.632592	6.458257	3.310979	1.375228	-10.346280	3.174080	4.165980	-0.585814	0.151123	0.785154	-1.000000	-1.000000	-1.000000	-1.000000	-1.000000	-1.000000	-1.000000	51.000000	0.000000	-1.000000	-1.000000	218945.000000	1775803710.239509
-18264.285000	-34046.055000	-1009.170000	20047.770000	5225.310000	-12566.925000	-35217.495000	-20638.755000	2.256799	2.872399	2.318866	3.115415	5.257187	5.200953	2.411800	2.496282	-10.346280	3.174080	4.165980	-0.585814	0.151123	0.785154	-1.000000	-1.000000	-1.000000	-1.000000	-1.000000	-1.000000	-1.000000	51.000000	0.000000	-1.000000	-1.000000	218946.000000	1775803710.239520
-18275.130000	-34057.170000	-1020.015000	20033.910000	5210.370000	-12580.335000	-35226.720000	-20648.070000	2.290015	2.180454	0.355517	-0.344940	1.795351	0.411442	-0.158197	1.594936	-10.346280	3.174080	4.165980	-0.585814	0.151123	0.785154	-1.000000	-1.000000	-1.000000	-1.000000	-1.000000	-1.000000	-1.000000	51.000000	0.000000	-1.000000	-1.000000	218947.000000	1775803710.239537
-18282.555000	-34064.775000	-1027.170000	20028.330000	5206.680000	-12584.880000	-35231.445000	-20654.820000	-0.584313	-1.138063	-3.273120	-5.523329	-3.707199	-5.735065	-3.695395	-1.623791	-10.346280	3.174080	4.165980	-0.585814	0.151123	0.785154	-1.000000	-1.000000	-1.000000	-1.000000	-1.000000	-1.000000	-1.000000	51.000000	0.000000	-1.000000	-1.000000	218948.000000	1775803710.239547
-18277.605000	-34059.600000	-1021.230000	20035.035000	5214.015000	-12577.230000	-35226.270000	-20651.175000	-4.833020	-5.239613	-6.510951	-9.303561	-8.537804	-10.008093	-6.606825	-5.575580	-10.346280	3.174080	4.165980	-0.585814	0.151123	0.785154	-1.000000	-1.000000	-1.000000	-1.000000	-1.000000	-1.000000	-1.000000	51.000000	0.000000	-1.000000	-1.000000	218949.000000	1775803710.239561
-18275.580000	-34056.585000	-1016.910000	20039.265000	5213.835000	-12573.900000	-35226.450000	-20650.365000	-7.277489	-7.100641	-6.893164	-8.724602	-9.471604	-9.564858	-6.942233	-7.512026	-10.346280	3.174080	4.165980	-0.585814	0.151123	0.785154	-1.000000	-1.000000	-1.000000	-1.000000	-1.000000	-1.000000	-1.000000	51.000000	0.000000	-1.000000	-1.000000	218950.000000	1775803710.239572
-18277.695000	-34060.320000	-1021.455000	20033.730000	5199.660000	-12579.120000	-35230.275000	-20652.795000	-5.952856	-5.153000	-3.664311	-3.649709	-6.055876	-4.489978	-4.270716	-5.921556	-8.484560	4.608520	3.738700	-0.588927	0.147400	0.783750	-1.000000	-1.000000	-1.000000	-1.000000	-1.000000	-1.000000	-1.000000	51.000000	0.000000	-1.000000	-1.000000	218951.000000	1775803710.239585
-18274.815000	-34056.180000	-1017.765000	20037.690000	5192.370000	-12582.720000	-35228.925000	-20649.915000	-1.870395	-0.802319	1.139977	2.755888	-1.311731	1.799409	-0.291727	-1.860657	-8.484560	4.608520	3.738700	-0.588927	0.147400	0.783750	-1.000000	-1.000000	-1.000000	-1.000000	-1.000000	-1.000000	-1.000000	51.000000	0.000000	-1.000000	-1.000000	218952.000000	1775803710.239626
-18271.215000	-34052.895000	-1017.945000	20042.910000	5188.275000	-12580.560000	-35224.740000	-20645.145000	2.527896	3.400710	4.777257	7.130411	1.780068	5.732181	3.031210	2.497142	-8.484560	4.608520	3.738700	-0.588927	0.147400	0.783750	-1.000000	-1.000000	-1.000000	-1.000000	-1.000000	-1.000000	-1.000000	51.000000	0.000000	-1.000000	-1.000000	218953.000000	1775803710.239642
-18278.955000	-34061.805000	-1031.715000	20031.885000	5194.755000	-12581.145000	-35229.735000	-20653.020000	5.215558	5.595399	5.626739	8.041525	3.020597	6.316001	4.737045	5.340924	-8.484560	4.608520	3.738700	-0.588927	0.147400	0.783750	-1.000000	-1.000000	-1.000000	-1.000000	-1.000000	-1.000000	-1.000000	51.000000	0.000000	-1.000000	-1.000000	218954.000000	1775803710.239652
-18285.030000	-34065.540000	-1027.215000	20026.395000	5229.270000	-12575.115000	-35232.615000	-20659.275000	5.004212	4.837553	3.497819	5.410919	4.509101	4.745470	4.453635	5.408605	-8.484560	4.608520	3.738700	-0.588927	0.147400	0.783750	-1.000000	-1.000000	-1.000000	-1.000000	-1.000000	-1.000000	-1.000000	51.000000	0.000000	-1.000000	-1.000000	218955.000000	1775803710.239666
-18277.020000	-34059.780000	-1014.795000	20037.015000	5230.260000	-12575.790000	-35231.265000	-20653.380000	2.322606	1.798228	0.304631	0.724017	7.842338	2.654080	2.457784	2.839740	-8.484560	4.608520	3.738700	-0.588927	0.147400	0.783750	-1.000000	-1.000000	-1.000000	-1.000000	-1.000000	-1.000000	-1.000000	51.000000	0.000000	-1.000000	-1.000000	218956.000000	1775803710.239676
-18276.120000	-34057.305000	-1015.065000	20040.075000	5218.425000	-12581.820000	-35233.830000	-20653.470000	-0.543775	-1.155494	-1.145815	-2.907461	10.709741	0.764416	-0.038242	-0.292342	-8.484560	4.608520	3.738700	-0.588927	0.147400	0.783750	-1.000000	-1.000000	-1.000000	-1.000000	-1.000000	-1.000000	-1.000000	51.000000	0.000000	-1.000000	-1.000000	218957.000000	1775803710.239689
-18280.755000	-34059.330000	-1017.360000	20040.930000	5222.475000	-12574.845000	-35232.390000	-20657.250000	-1.731139	-2.176783	-0.378030	-3.444413	8.699528	-0.981437	-1.740626	-1.981998	-8.484560	4.608520	3.738700	-0.588927	0.147400	0.783750	-1.000000	-1.000000	-1.000000	-1.000000	-1.000000	-1.000000	-1.000000	51.000000	0.000000	-1.000000	-1.000000	218958.000000	1775803710.239700
-18286.155000	-34064.685000	-1022.265000	20035.620000	5219.730000	-12575.745000	-35235.765000	-20662.605000	-1.591125	-1.620817	0.568393	-1.842981	1.303999	-2.245665	-2.158351	-2.152689	-8.484560	4.608520	3.738700	-0.588927	0.147400	0.783750	-1.000000	-1.000000	-1.000000	-1.000000	-1.000000	-1.000000	-1.000000	51.000000	0.000000	-1.000000	-1.000000	218959.000000	1775803710.239713
-18286.290000	-34066.980000	-1026.225000	20031.750000	5212.260000	-12579.120000	-35236.665000	-20661.840000	-1.344098	-0.971774	-0.027690	-0.469689	-7.435686	-2.586859	-1.630481	-1.747796	-8.484560	4.608520	3.738700	-0.588927	0.147400	0.783750	-1.000000	-1.000000	-1.000000	-1.000000	-1.000000	-1.000000	-1.000000	51.000000	0.000000	-1.000000	-1.000000	218960.000000	1775803710.239724
-18283.905000	-34066.170000	-1026.810000	20032.740000	5211.765000	-12576.285000	-35234.145000	-20658.465000	-1.212242	-0.905739	-1.899440	-0.527906	-13.170267	-2.247659	-0.732391	-1.097939	-2.853620	3.906560	2.792580	-0.590086	0.135437	0.783445	-1.000000	-1.000000	-1.000000	-1.000000	-1.000000	-1.000000	-1.000000	51.000000	0.000000	-1.000000	-1.000000	218961.000000	1775803710.239738
-18267.705000	-34050.915000	-1012.095000	20045.925000	5222.430000	-12564.855000	-35220.195000	-20641.455000	-0.340923	-0.643564	-3.154615	-1.070511	-13.459509	-1.355537	0.495712	0.325034	-2.853620	3.906560	2.792580	-0.590086	0.135437	0.783445	-1.000000	-1.000000	-1.000000	-1.000000	-1.000000	-1.000000	-1.000000	51.000000	0.000000	-1.000000	-1.000000	218962.000000	1775803710.239748
-18257.220000	-34037.370000	-1002.600000	20051.910000	5229.000000	-12560.040000	-35210.430000	-20630.115000	2.008088	1.081632	-1.871840	-0.339649	-8.117612	0.373309	2.394867	2.949522	-2.853620	3.906560	2.792580	-0.590086	0.135437	0.783445	-1.000000	-1.000000	-1.000000	-1.000000	-1.000000	-1.000000	-1.000000	51.000000	0.000000	-1.000000	-1.000000	218963.000000	1775803710.239761
-18252.765000	-34024.365000	-1001.205000	20045.385000	5229.360000	-12555.630000	-35200.845000	-20624.220000	4.987504	4.232354	1.689227	1.666472	0.267117	2.467771	4.548010	5.805530	-2.853620	3.906560	2.792580	-0.590086	0.135437	0.783445	-1.000000	-1.000000	-1.000000	-1.000000	-1.000000	-1.000000	-1.000000	51.000000	0.000000	-1.000000	-1.000000	218964.000000	1775803710.239772
-18250.920000	-34029.090000	-993.870000	20058.795000	5231.520000	-12557.790000	-35207.820000	-20627.595000	6.239684	6.638485	4.887141	3.073612	7.334464	3.478454	5.291461	6.534066	-2.853620	3.906560	2.792580	-0.590086	0.135437	0.783445	-1.000000	-1.000000	-1.000000	-1.000000	-1.000000	-1.000000	-1.000000	51.000000	0.000000	-1.000000	-1.000000	218965.000000	1775803710.239785
-18247.095000	-34027.515000	-985.905000	20070.945000	5239.035000	-12552.345000	-35209.125000	-20626.920000	4.147924	5.565950	5.457305	3.013078	10.011969	2.408460	2.945880	3.480475	-2.853620	3.906560	2.792580	-0.590086	0.135437	0.783445	-1.000000	-1.000000	-1.000000	-1.000000	-1.000000	-1.000000	-1.000000	51.000000	0.000000	-1.000000	-1.000000	218966.000000	1775803710.239796
-18251.685000	-34033.455000	-991.755000	20067.750000	5238.495000	-12551.985000	-35210.655000	-20629.845000	-0.601348	0.482792	3.187792	2.141209	8.264501	-0.160299	-2.124885	-2.379151	-2.853620	3.906560	2.792580	-0.590086	0.135437	0.783445	-1.000000	-1.000000	-1.000000	-1.000000	-1.000000	-1.000000	-1.000000	51.000000	0.000000	-1.000000	-1.000000	218967.000000	1775803710.239809
-18244.800000	-34028.730000	-994.770000	20060.955000	5240.745000	-12547.440000	-35205.930000	-20623.815000	-5.684470	-6.063500	-0.996833	0.419684	3.932761	-2.646381	-7.126417	-7.916339	-2.853620	3.906560	2.792580	-0.590086	0.135437	0.783445	-1.000000	-1.000000	-1.000000	-1.000000	-1.000000	-1.000000	-1.000000	51.000000	0.000000	-1.000000	-1.000000	218968.000000	1775803710.239820
-18241.740000	-34022.385000	-986.445000	20070.810000	5244.030000	-12547.665000	-35206.605000	-20622.825000	-8.518755	-10.222452	-5.377104	-2.404938	-0.803993	-3.822106	-9.055892	-10.085337	-2.853620	3.906560	2.792580	-0.590086	0.135437	0.783445	-1.000000	-1.000000	-1.000000	-1.000000	-1.000000	-1.000000	-1.000000	51.000000	0.000000	-1.000000	-1.000000	218969.000000	1775803710.240897
-18235.395000	-34013.205000	-979.245000	20074.455000	5241.735000	-12540.780000	-35197.650000	-20615.580000	-7.708874	-9.475168	-7.449776	-4.882461	-4.199521	-3.393288	-6.952706	-7.911251	-2.853620	3.906560	2.792580	-0.590086	0.135437	0.783445	-1.000000	-1.000000	-1.000000	-1.000000	-1.000000	-1.000000	-1.000000	51.000000	0.000000	-1.000000	-1.000000	218970.000000	1775803710.240918
-18230.220000	-34010.820000	-975.915000	20078.145000	5239.035000	-12536.010000	-35192.430000	-20610.225000	-3.911023	-4.396543	-5.822202	-5.140175	-5.616463	-1.709033	-2.029484	-2.759881	3.952340	3.815000	0.869820	-0.585204	0.132385	0.781492	-1.000000	-1.000000	-1.000000	-1.000000	-1.000000	-1.000000	-1.000000	51.000000	0.000000	-1.000000	-1.000000	218971.000000	1775803710.251149
-18219.420000	-33999.615000	-963.720000	20088.405000	5243.670000	-12531.510000	-35186.130000	-20601.405000	0.906564	1.967736	-1.572658	-2.987098	-5.290834	0.507097	3.370813	2.888385	3.952340	3.815000	0.869820	-0.585204	0.132385	0.781492	-1.000000	-1.000000	-1.000000	-1.000000	-1.000000	-1.000000	-1.000000	51.000000	0.000000	-1.000000	-1.000000	218972.000000	1775803710.251171
-18216.585000	-33996.240000	-957.780000	20094.030000	5256.630000	-12527.640000	-35180.955000	-20597.580000	4.739317	6.515845	2.981739	0.375767	-3.309914	2.277875	6.913730	6.763007	3.952340	3.815000	0.869820	-0.585204	0.132385	0.781492	-1.000000	-1.000000	-1.000000	-1.000000	-1.000000	-1.000000	-1.000000	51.000000	0.000000	-1.000000	-1.000000	218973.000000	1775803710.251193
-18223.245000	-34002.405000	-964.575000	20091.330000	5263.605000	-12529.170000	-35184.735000	-20602.980000	5.975250	7.468185	5.568426	3.164566	0.241287	2.757518	7.219818	7.403975	3.952340	3.815000	0.869820	-0.585204	0.132385	0.781492	-1.000000	-1.000000	-1.000000	-1.000000	-1.000000	-1.000000	-1.000000	51.000000	0.000000	-1.000000	-1.000000	218974.000000	1775803710.251200
-18225.720000	-34004.205000	-966.645000	20092.320000	5271.255000	-12523.095000	-35185.635000	-20605.320000	3.845115	4.540454	4.628970	3.713335	4.172087	1.764859	4.260014	4.506659	3.952340	3.815000	0.869820	-0.585204	0.132385	0.781492	-1.000000	-1.000000	-1.000000	-1.000000	-1.000000	-1.000000	-1.000000	51.000000	0.000000	-1.000000	-1.000000	218975.000000	1775803710.254353
-18232.065000	-34010.370000	-972.270000	20087.370000	5267.205000	-12533.220000	-35193.555000	-20611.710000	-0.623967	-0.716822	0.579101	1.710436	6.296275	-0.150797	-0.631965	-0.595015	3.952340	3.815000	0.869820	-0.585204	0.132385	0.781492	-1.000000	-1.000000	-1.000000	-1.000000	-1.000000	-1.000000	-1.000000	51.000000	0.000000	-1.000000	-1.000000	218976.000000	1775803710.254382
-18235.215000	-34016.130000	-980.955000	20074.770000	5252.085000	-12538.530000	-35191.755000	-20612.430000	-4.932260	-5.577586	-4.222424	-1.732613	4.739816	-2.382362	-5.210273	-5.334859	3.952340	3.815000	0.869820	-0.585204	0.132385	0.781492	-1.000000	-1.000000	-1.000000	-1.000000	-1.000000	-1.000000	-1.000000	51.000000	0.000000	-1.000000	-1.000000	218977.000000	1775803710.257812
-18238.230000	-34020.855000	-985.050000	20070.000000	5240.430000	-12542.085000	-35192.340000	-20615.310000	-6.786073	-7.827578	-7.256149	-5.054421	-0.624887	-4.312184	-7.274208	-7.380918	3.952340	3.815000	0.869820	-0.585204	0.132385	0.781492	-1.000000	-1.000000	-1.000000	-1.000000	-1.000000	-1.000000	-1.000000	51.000000	0.000000	-1.000000	-1.000000	218978.000000	1775803710.257838
-18242.190000	-34022.340000	-985.095000	20073.060000	5240.835000	-12552.030000	-35203.995000	-20623.050000	-5.409251	-6.680277	-7.034374	-6.466343	-7.118178	-5.033792	-6.096937	-6.074190	3.952340	3.815000	0.869820	-0.585204	0.132385	0.781492	-1.000000	-1.000000	-1.000000	-1.000000	-1.000000	-1.000000	-1.000000	51.000000	0.000000	-1.000000	-1.000000	218979.000000	1775803710.260830
-18242.640000	-34021.665000	-984.780000	20072.295000	5240.385000	-12552.570000	-35205.255000	-20625.390000	-1.723037	-2.745757	-3.483130	-4.570300	-10.419326	-4.004561	-3.008324	-2.653742	3.952340	3.815000	0.869820	-0.585204	0.132385	0.781492	-1.000000	-1.000000	-1.000000	-1.000000	-1.000000	-1.000000	-1.000000	51.000000	0.000000	-1.000000	-1.000000	218980.000000	1775803710.260854
-18241.155000	-34022.025000	-985.995000	20067.480000	5235.840000	-12551.085000	-35201.295000	-20621.835000	2.561862	2.344308	1.869647	0.022060	-8.144571	-1.293724	0.366455	1.201362	4.074420	3.036740	2.472120	-0.583067	0.139709	0.779661	-1.000000	-1.000000	-1.000000	-1.000000	-1.000000	-1.000000	-1.000000	51.000000	0.000000	-1.000000	-1.000000	218981.000000	1775803710.266652
-18240.795000	-34020.720000	-983.520000	20071.755000	5236.110000	-12555.540000	-35203.230000	-20622.690000	5.920637	6.572061	6.602616	4.826137	-1.808914	2.428985	3.410953	4.505296	4.074420	3.036740	2.472120	-0.583067	0.139709	0.779661	-1.000000	-1.000000	-1.000000	-1.000000	-1.000000	-1.000000	-1.000000	51.000000	0.000000	-1.000000	-1.000000	218982.000000	1775803710.266678
-18248.760000	-34027.470000	-988.740000	20066.805000	5241.870000	-12557.790000	-35208.630000	-20629.845000	7.199831	8.297800	8.751229	7.590815	5.105994	5.641144	5.519474	6.422523	4.074420	3.036740	2.472120	-0.583067	0.139709	0.779661	-1.000000	-1.000000	-1.000000	-1.000000	-1.000000	-1.000000	-1.000000	51.000000	0.000000	-1.000000	-1.000000	218983.000000	1775803710.284630
-18258.795000	-34038.630000	-1000.890000	20056.545000	5248.935000	-12554.505000	-35214.075000	-20638.980000	5.668453	6.727666	7.421533	7.267556	9.926267	6.923424	5.696361	5.953891	4.074420	3.036740	2.472120	-0.583067	0.139709	0.779661	-1.000000	-1.000000	-1.000000	-1.000000	-1.000000	-1.000000	-1.000000	51.000000	0.000000	-1.000000	-1.000000	218984.000000	1775803710.284657
-18263.340000	-34042.005000	-1001.025000	20055.960000	5240.655000	-12559.590000	-35219.340000	-20645.055000	1.757680	2.428008	3.134086	4.063182	11.279255	6.060305	3.691990	2.994732	4.074420	3.036740	2.472120	-0.583067	0.139709	0.779661	-1.000000	-1.000000	-1.000000	-1.000000	-1.000000	-1.000000	-1.000000	51.000000	0.000000	-1.000000	-1.000000	218985.000000	1775803710.284685
-18265.725000	-34045.290000	-1006.335000	20051.145000	5231.835000	-12563.280000	-35219.205000	-20644.470000	-2.496363	-2.374356	-1.866803	-0.259565	8.469562	3.591061	0.634537	-0.848590	4.074420	3.036740	2.472120	-0.583067	0.139709	0.779661	-1.000000	-1.000000	-1.000000	-1.000000	-1.000000	-1.000000	-1.000000	51.000000	0.000000	-1.000000	-1.000000	218986.000000	1775803710.284698
-18270.675000	-34046.505000	-1011.105000	20044.170000	5219.955000	-12574.665000	-35226.180000	-20651.265000	-4.758002	-5.072845	-5.021115	-3.488159	2.067650	0.156207	-1.797181	-3.310345	4.074420	3.036740	2.472120	-0.583067	0.139709	0.779661	-1.000000	-1.000000	-1.000000	-1.000000	-1.000000	-1.000000	-1.000000	51.000000	0.000000	-1.000000	-1.000000	218987.000000	1775803710.284713
-18268.515000	-34049.880000	-1014.435000	20044.980000	5221.485000	-12573.855000	-35225.820000	-20650.320000	-4.126030	-4.618028	-5.332447	-4.521835	-5.209651	-3.285288	-2.666354	-3.344726	4.074420	3.036740	2.472120	-0.583067	0.139709	0.779661	-1.000000	-1.000000	-1.000000	-1.000000	-1.000000	-1.000000	-1.000000	51.000000	0.000000	-1.000000	-1.000000	218988.000000	1775803710.284724
-18273.510000	-34056.180000	-1017.630000	20040.750000	5215.995000	-12579.390000	-35229.780000	-20654.415000	-1.398111	-2.039382	-3.408037	-3.414777	-9.633682	-5.325843	-2.064121	-1.534082	4.074420	3.036740	2.472120	-0.583067	0.139709	0.779661	-1.000000	-1.000000	-1.000000	-1.000000	-1.000000	-1.000000	-1.000000	51.000000	0.000000	-1.000000	-1.000000	218989.000000	1775803710.284738
-18270.405000	-34047.000000	-1010.430000	20044.575000	5216.130000	-12577.545000	-35226.855000	-20652.390000	1.739476	0.891402	-0.384690	-0.935308	-9.160191	-4.960638	-0.587928	0.825651	4.074420	3.036740	2.472120	-0.583067	0.139709	0.779661	-1.000000	-1.000000	-1.000000	-1.000000	-1.000000	-1.000000	-1.000000	51.000000	0.000000	-1.000000	-1.000000	218990.000000	1775803710.284750
-18275.355000	-34054.920000	-1018.170000	20039.715000	5211.900000	-12579.435000	-35227.845000	-20654.730000	3.753231	3.087392	2.625526	1.728729	-4.743497	-2.445505	1.074195	2.581263	-1.541260	2.060100	2.807840	-0.586607	0.149231	0.779478	-1.000000	-1.000000	-1.000000	-1.000000	-1.000000	-1.000000	-1.000000	51.000000	0.000000	-1.000000	-1.000000	218991.000000	1775803710.284831
-18273.060000	-34053.660000	-1015.155000	20045.250000	5219.775000	-12572.730000	-35225.460000	-20651.445000	3.953710	3.924820	4.411772	3.461261	0.994025	0.998591	2.304925	3.165083	-1.541260	2.060100	2.807840	-0.586607	0.149231	0.779478	-1.000000	-1.000000	-1.000000	-1.000000	-1.000000	-1.000000	-1.000000	51.000000	0.000000	-1.000000	-1.000000	218992.000000	1775803710.284844
-18266.490000	-34047.405000	-1009.035000	20048.805000	5226.615000	-12564.720000	-35219.430000	-20644.245000	2.774709	3.254952	4.388445	3.867549	5.830906	4.120571	2.771378	2.779279	-1.541260	2.060100	2.807840	-0.586607	0.149231	0.779478	-1.000000	-1.000000	-1.000000	-1.000000	-1.000000	-1.000000	-1.000000	51.000000	0.000000	-1.000000	-1.000000	218993.000000	1775803710.387548
-18261.180000	-34043.805000	-1008.450000	20045.565000	5227.695000	-12560.535000	-35217.360000	-20639.790000	1.426374	1.932759	3.180977	3.173695	8.494398	6.038278	2.550988	2.101918	-1.541260	2.060100	2.807840	-0.586607	0.149231	0.779478	-1.000000	-1.000000	-1.000000	-1.000000	-1.000000	-1.000000	-1.000000	51.000000	0.000000	-1.000000	-1.000000	218994.000000	1775803710.387577
-18250.200000	-34030.890000	-995.940000	20059.290000	5241.510000	-12547.530000	-35206.605000	-20628.900000	0.801769	1.024628	1.735715	1.757883	8.394994	6.193522	1.899912	1.572040	-1.541260	2.060100	2.807840	-0.586607	0.149231	0.779478	-1.000000	-1.000000	-1.000000	-1.000000	-1.000000	-1.000000	-1.000000	51.000000	0.000000	-1.000000	-1.000000	218995.000000	1775803710.387607
-18241.335000	-34022.430000	-988.110000	20065.410000	5246.280000	-12541.860000	-35196.390000	-20619.180000	0.920984	0.943335	0.732670	0.416880	5.967343	4.620956	1.202359	1.224056	-1.541260	2.060100	2.807840	-0.586607	0.149231	0.779478	-1.000000	-1.000000	-1.000000	-1.000000	-1.000000	-1.000000	-1.000000	51.000000	0.000000	-1.000000	-1.000000	218996.000000	1775803710.387620
-18237.780000	-34018.740000	-982.710000	20073.645000	5251.230000	-12542.805000	-35194.995000	-20616.750000	1.082180	1.186905	0.293488	-0.148970	2.295631	1.706926	0.636118	0.759175	-1.541260	2.060100	2.807840	-0.586607	0.149231	0.779478	-1.000000	-1.000000	-1.000000	-1.000000	-1.000000	-1.000000	-1.000000	51.000000	0.000000	-1.000000	-1.000000	218997.000000	1775803710.387704
-18236.070000	-34016.985000	-981.225000	20074.455000	5251.545000	-12541.995000	-35193.015000	-20615.580000	0.273038	0.590342	-0.288280	-0.316230	-1.767876	-2.190921	-0.334277	-0.480441	-1.541260	2.060100	2.807840	-0.586607	0.149231	0.779478	-1.000000	-1.000000	-1.000000	-1.000000	-1.000000	-1.000000	-1.000000	51.000000	0.000000	-1.000000	-1.000000	218998.000000	1775803710.387717
-18235.215000	-34014.330000	-977.175000	20077.920000	5254.065000	-12540.195000	-35198.505000	-20617.470000	-1.910496	-1.457717	-1.704814	-1.014608	-5.481803	-6.137479	-2.311841	-2.825923	-1.541260	2.060100	2.807840	-0.586607	0.149231	0.779478	-1.000000	-1.000000	-1.000000	-1.000000	-1.000000	-1.000000	-1.000000	51.000000	0.000000	-1.000000	-1.000000	218999.000000	1775803710.387734
-18235.485000	-34012.980000	-974.880000	20082.465000	5255.730000	-12535.335000	-35203.545000	-20620.305000	-4.693025	-4.199792	-3.654483	-2.465364	-7.900811	-8.473763	-5.049588	-5.616226	-1.541260	2.060100	2.807840	-0.586607	0.149231	0.779478	-1.000000	-1.000000	-1.000000	-1.000000	-1.000000	-1.000000	-1.000000	51.000000	0.000000	-1.000000	-1.000000	219000.000000	1775803710.387746
-18240.255000	-34019.055000	-981.540000	20078.235000	5252.130000	-12530.025000	-35201.520000	-20623.770000	-6.746913	-6.296150	-5.261844	-3.993917	-8.319080	-7.917471	-7.280599	-7.553330	-4.928980	2.212700	1.953280	-0.589537	0.152588	0.780332	-1.000000	-1.000000	-1.000000	-1.000000	-1.000000	-1.000000	-1.000000	51.000000	0.000000	-1.000000	-1.000000	219001.000000	1775803710.387760
-18243.405000	-34021.080000	-984.780000	20073.285000	5248.575000	-12530.340000	-35200.125000	-20624.445000	-7.185380	-6.970082	-6.045076	-5.016186	-6.906770	-4.707165	-7.297929	-7.510471	-4.928980	2.212700	1.953280	-0.589537	0.152588	0.780332	-1.000000	-1.000000	-1.000000	-1.000000	-1.000000	-1.000000	-1.000000	51.000000	0.000000	-1.000000	-1.000000	219002.000000	1775803710.387771
-18237.465000	-34016.580000	-981.405000	20073.645000	5250.690000	-12528.900000	-35194.320000	-20617.965000	-5.670116	-5.916200	-5.695025	-5.284198	-4.371934	-0.603350	-4.309360	-5.005617	-4.928980	2.212700	1.953280	-0.589537	0.152588	0.780332	-1.000000	-1.000000	-1.000000	-1.000000	-1.000000	-1.000000	-1.000000	51.000000	0.000000	-1.000000	-1.000000	219003.000000	1775803710.387785
-18241.065000	-34020.180000	-983.430000	20071.125000	5244.795000	-12559.500000	-35208.180000	-20623.005000	-2.313542	-3.082783	-3.752550	-4.391930	-1.328564	1.908915	0.398246	-0.601227	-4.928980	2.212700	1.953280	-0.589537	0.152588	0.780332	-1.000000	-1.000000	-1.000000	-1.000000	-1.000000	-1.000000	-1.000000	51.000000	0.000000	-1.000000	-1.000000	219004.000000	1775803710.387796
-18242.145000	-34020.855000	-984.060000	20070.045000	5244.840000	-12556.215000	-35206.605000	-20623.725000	1.774172	0.675564	-0.477293	-2.169069	1.557422	1.162933	4.096294	3.844432	-4.928980	2.212700	1.953280	-0.589537	0.152588	0.780332	-1.000000	-1.000000	-1.000000	-1.000000	-1.000000	-1.000000	-1.000000	51.000000	0.000000	-1.000000	-1.000000	219005.000000	1775803710.387809
