Channel1	Channel2	Channel3	Channel4	Channel5	Channel6	Channel7	Channel8	FilteredChannel1	FilteredChannel2	FilteredChannel3	FilteredChannel4	FilteredChannel5	FilteredChannel6	FilteredChannel7	FilteredChannel8	GyroX	GyroY	GyroZ	AccX	AccY	AccZ	PPG1	PPG2	rawPPG1	rawPPG2	rawPPG3	Hr	Hrv	Battery	Trigger	PhysicalTrigger	AutoTrigger	NumMeasurements	Timestamp
-50783.490000	-24653.250000	-10658.295000	847.530000	-14076.855000	-34859.070000	2546.955000	-20686.905000	-8.484022	-10.046427	-11.822661	-11.639721	-10.695958	-7.513570	-11.061484	-7.464112	-0.213640	1.693860	0.640920	-0.659544	-0.326598	0.668760	-1.000000	-1.000000	-1.000000	-1.000000	-1.000000	-1.000000	-1.000000	65.000000	0.000000	-1.000000	-1.000000	114230.000000	1775715252.531835
-50773.140000	-24644.925000	-10649.745000	856.485000	-14067.855000	-34849.125000	2557.080000	-20677.365000	-4.383633	-6.232226	-6.957547	-6.319124	-5.146173	-6.258845	-5.448645	-3.884391	-2.304260	1.083460	1.007160	-0.659605	-0.325622	0.669432	-1.000000	-1.000000	-1.000000	-1.000000	-1.000000	-1.000000	-1.000000	65.000000	0.000000	-1.000000	-1.000000	114231.000000	1775715252.541386
-50772.420000	-24644.745000	-10651.230000	854.955000	-14068.530000	-34844.985000	2559.330000	-20675.070000	2.650867	1.240917	1.898263	2.662472	3.619934	-0.343321	3.506342	2.679890	-2.304260	1.083460	1.007160	-0.659605	-0.325622	0.669432	-1.000000	-1.000000	-1.000000	-1.000000	-1.000000	-1.000000	-1.000000	65.000000	0.000000	-1.000000	-1.000000	114232.000000	1775715252.541412
-50760.315000	-24631.785000	-10638.855000	867.870000	-14055.975000	-34833.555000	2568.060000	-20664.315000	8.975912	8.399898	9.940891	10.558142	11.123563	7.366498	11.271559	8.760152	-2.304260	1.083460	1.007160	-0.659605	-0.325622	0.669432	-1.000000	-1.000000	-1.000000	-1.000000	-1.000000	-1.000000	-1.000000	65.000000	0.000000	-1.000000	-1.000000	114233.000000	1775715252.542659
-50753.655000	-24623.370000	-10628.640000	878.355000	-14047.560000	-34827.975000	2573.055000	-20659.005000	11.623988	11.999946	13.544455	13.874305	14.014963	12.626225	14.149569	11.311396	-2.304260	1.083460	1.007160	-0.659605	-0.325622	0.669432	-1.000000	-1.000000	-1.000000	-1.000000	-1.000000	-1.000000	-1.000000	65.000000	0.000000	-1.000000	-1.000000	114234.000000	1775715252.542676
-50762.430000	-24631.695000	-10638.630000	867.645000	-14060.070000	-34844.175000	2561.400000	-20666.475000	9.597312	10.852892	11.821292	11.843995	11.495664	12.450577	11.106640	9.204987	-2.304260	1.083460	1.007160	-0.659605	-0.325622	0.669432	-1.000000	-1.000000	-1.000000	-1.000000	-1.000000	-1.000000	-1.000000	65.000000	0.000000	-1.000000	-1.000000	114235.000000	1775715252.556861
-50770.305000	-24641.370000	-10648.800000	856.215000	-14070.060000	-34854.525000	2555.190000	-20673.720000	3.350367	5.092835	5.340233	5.061515	4.248242	6.070576	3.356648	2.985177	-2.304260	1.083460	1.007160	-0.659605	-0.325622	0.669432	-1.000000	-1.000000	-1.000000	-1.000000	-1.000000	-1.000000	-1.000000	65.000000	0.000000	-1.000000	-1.000000	114236.000000	1775715252.556911
-50770.980000	-24643.755000	-10650.870000	855.765000	-14068.800000	-34850.745000	2552.580000	-20674.980000	-4.918644	-3.433807	-3.796762	-4.331759	-5.221707	-3.799775	-5.895387	-5.024526	-2.304260	1.083460	1.007160	-0.659605	-0.325622	0.669432	-1.000000	-1.000000	-1.000000	-1.000000	-1.000000	-1.000000	-1.000000	65.000000	0.000000	-1.000000	-1.000000	114237.000000	1775715252.556962
-50765.535000	-24636.150000	-10640.565000	867.960000	-14057.055000	-34843.410000	2559.105000	-20668.590000	-11.220885	-10.658127	-11.282316	-11.823211	-12.186590	-11.417205	-12.187935	-10.961963	-2.304260	1.083460	1.007160	-0.659605	-0.325622	0.669432	-1.000000	-1.000000	-1.000000	-1.000000	-1.000000	-1.000000	-1.000000	65.000000	0.000000	-1.000000	-1.000000	114238.000000	1775715252.556974
-50763.105000	-24632.820000	-10636.920000	870.345000	-14057.055000	-34846.830000	2562.255000	-20667.105000	-12.190328	-12.561799	-12.942955	-13.123454	-12.737354	-12.421988	-12.386649	-11.693820	-2.304260	1.083460	1.007160	-0.659605	-0.325622	0.669432	-1.000000	-1.000000	-1.000000	-1.000000	-1.000000	-1.000000	-1.000000	65.000000	0.000000	-1.000000	-1.000000	114239.000000	1775715252.556989
-50763.150000	-24631.830000	-10636.560000	870.570000	-14056.155000	-34838.235000	2569.050000	-20667.735000	-7.780661	-8.489366	-8.352743	-8.093098	-7.358041	-7.302269	-6.884492	-7.319248	-2.304260	1.083460	1.007160	-0.659605	-0.325622	0.669432	-1.000000	-1.000000	-1.000000	-1.000000	-1.000000	-1.000000	-1.000000	65.000000	0.000000	-1.000000	-1.000000	114240.000000	1775715252.557000
-50764.770000	-24634.845000	-10639.530000	867.690000	-14058.540000	-34835.985000	2571.120000	-20668.905000	-1.112685	-1.585626	-1.151686	-0.750134	-0.206703	0.173272	0.883445	-0.936558	-1.861720	1.373400	0.625660	-0.659849	-0.326781	0.669615	-1.000000	-1.000000	-1.000000	-1.000000	-1.000000	-1.000000	-1.000000	65.000000	0.000000	-1.000000	-1.000000	114241.000000	1775715252.557013
-50759.460000	-24629.355000	-10633.680000	874.080000	-14051.025000	-34827.705000	2574.405000	-20664.450000	4.260283	4.116521	4.388174	4.609877	4.800955	6.233152	6.871469	4.101147	-1.861720	1.373400	0.625660	-0.659849	-0.326781	0.669615	-1.000000	-1.000000	-1.000000	-1.000000	-1.000000	-1.000000	-1.000000	65.000000	0.000000	-1.000000	-1.000000	114242.000000	1775715252.557024
-50757.165000	-24624.765000	-10627.695000	880.380000	-14045.490000	-34821.225000	2579.220000	-20659.320000	6.688634	6.664405	6.533534	6.501473	6.511089	8.826208	8.755985	6.385923	-1.861720	1.373400	0.625660	-0.659849	-0.326781	0.669615	-1.000000	-1.000000	-1.000000	-1.000000	-1.000000	-1.000000	-1.000000	65.000000	0.000000	-1.000000	-1.000000	114243.000000	1775715252.563161
-50764.185000	-24630.345000	-10634.355000	874.305000	-14051.925000	-34830.045000	2570.220000	-20664.990000	6.239295	6.260517	5.833630	5.682704	5.653872	7.597134	6.548696	6.146065	-1.861720	1.373400	0.625660	-0.659849	-0.326781	0.669615	-1.000000	-1.000000	-1.000000	-1.000000	-1.000000	-1.000000	-1.000000	65.000000	0.000000	-1.000000	-1.000000	114244.000000	1775715252.563187
-50771.385000	-24637.185000	-10642.500000	865.170000	-14061.780000	-34842.915000	2557.395000	-20672.055000	3.444264	3.610580	3.076201	2.953283	2.839849	2.957574	1.472653	3.819282	-1.861720	1.373400	0.625660	-0.659849	-0.326781	0.669615	-1.000000	-1.000000	-1.000000	-1.000000	-1.000000	-1.000000	-1.000000	65.000000	0.000000	-1.000000	-1.000000	114245.000000	1775715252.563215
-50772.285000	-24638.895000	-10645.650000	861.075000	-14068.530000	-34854.795000	2556.225000	-20673.495000	-0.603957	-0.332112	-0.932331	-1.034539	-1.375060	-3.784377	-4.519680	0.085885	-1.861720	1.373400	0.625660	-0.659849	-0.326781	0.669615	-1.000000	-1.000000	-1.000000	-1.000000	-1.000000	-1.000000	-1.000000	65.000000	0.000000	-1.000000	-1.000000	114246.000000	1775715252.563226
-50772.690000	-24641.640000	-10648.800000	858.015000	-14070.510000	-34858.260000	2559.015000	-20677.140000	-3.883000	-3.825043	-4.496296	-4.694414	-5.326419	-9.750432	-8.457366	-3.438573	-1.861720	1.373400	0.625660	-0.659849	-0.326781	0.669615	-1.000000	-1.000000	-1.000000	-1.000000	-1.000000	-1.000000	-1.000000	65.000000	0.000000	-1.000000	-1.000000	114247.000000	1775715252.567155
-50765.715000	-24633.720000	-10638.135000	868.860000	-14060.070000	-34848.090000	2567.430000	-20672.955000	-4.507827	-5.004377	-5.548157	-5.853628	-6.577237	-11.395078	-7.776801	-4.926438	-1.861720	1.373400	0.625660	-0.659849	-0.326781	0.669615	-1.000000	-1.000000	-1.000000	-1.000000	-1.000000	-1.000000	-1.000000	65.000000	0.000000	-1.000000	-1.000000	114248.000000	1775715252.567179
-50764.275000	-24628.995000	-10631.070000	877.365000	-14052.870000	-34834.860000	2576.925000	-20667.690000	-2.151435	-3.083721	-3.039191	-3.258967	-3.696047	-6.783451	-2.472414	-3.540901	-1.861720	1.373400	0.625660	-0.659849	-0.326781	0.669615	-1.000000	-1.000000	-1.000000	-1.000000	-1.000000	-1.000000	-1.000000	65.000000	0.000000	-1.000000	-1.000000	114249.000000	1775715252.572293
-50771.700000	-24639.120000	-10643.355000	864.495000	-14064.480000	-34836.255000	2566.710000	-20673.405000	1.436149	0.672441	1.615446	1.723156	1.805748	2.245922	4.370810	-0.134732	-1.861720	1.373400	0.625660	-0.659849	-0.326781	0.669615	-1.000000	-1.000000	-1.000000	-1.000000	-1.000000	-1.000000	-1.000000	65.000000	0.000000	-1.000000	-1.000000	114250.000000	1775715252.572320
-50766.165000	-24636.195000	-10640.520000	867.195000	-14062.005000	-34837.785000	2570.175000	-20667.510000	3.697941	3.488569	4.972208	5.432731	6.024967	10.414048	8.412470	3.102985	-1.831200	1.556520	0.701960	-0.659605	-0.328063	0.669371	-1.000000	-1.000000	-1.000000	-1.000000	-1.000000	-1.000000	-1.000000	65.000000	0.000000	-1.000000	-1.000000	114251.000000	1775715252.576922
-50762.970000	-24633.945000	-10638.405000	869.580000	-14060.925000	-34840.845000	2569.905000	-20665.305000	3.689512	3.788049	4.977380	5.545166	6.435624	12.860917	7.578336	4.524492	-1.831200	1.556520	0.701960	-0.659605	-0.328063	0.669371	-1.000000	-1.000000	-1.000000	-1.000000	-1.000000	-1.000000	-1.000000	65.000000	0.000000	-1.000000	-1.000000	114252.000000	1775715252.576949
-50753.880000	-24622.965000	-10627.200000	880.560000	-14051.745000	-34835.985000	2578.410000	-20658.150000	2.496787	2.541948	2.840908	3.223254	4.002483	8.911439	3.515833	4.128257	-1.831200	1.556520	0.701960	-0.659605	-0.328063	0.669371	-1.000000	-1.000000	-1.000000	-1.000000	-1.000000	-1.000000	-1.000000	65.000000	0.000000	-1.000000	-1.000000	114253.000000	1775715252.579209
-50761.845000	-24630.390000	-10633.770000	873.360000	-14057.235000	-34840.395000	2574.270000	-20666.790000	1.245395	1.325139	0.761160	0.803593	1.093364	1.799632	-0.715143	2.541660	-1.831200	1.556520	0.701960	-0.659605	-0.328063	0.669371	-1.000000	-1.000000	-1.000000	-1.000000	-1.000000	-1.000000	-1.000000	65.000000	0.000000	-1.000000	-1.000000	114254.000000	1775715252.579232
-50763.600000	-24632.775000	-10635.525000	871.920000	-14058.000000	-34840.170000	2572.560000	-20668.140000	-0.205630	0.246297	-0.683952	-0.969477	-1.148252	-4.553146	-3.419553	0.026110	-1.831200	1.556520	0.701960	-0.659605	-0.328063	0.669371	-1.000000	-1.000000	-1.000000	-1.000000	-1.000000	-1.000000	-1.000000	65.000000	0.000000	-1.000000	-1.000000	114255.000000	1775715252.587415
-50764.590000	-24633.855000	-10636.065000	871.875000	-14057.100000	-34835.040000	2571.345000	-20668.995000	-2.182721	-1.305815	-2.041272	-2.484066	-2.735525	-7.732833	-4.567324	-2.896058	-1.831200	1.556520	0.701960	-0.659605	-0.328063	0.669371	-1.000000	-1.000000	-1.000000	-1.000000	-1.000000	-1.000000	-1.000000	65.000000	0.000000	-1.000000	-1.000000	114256.000000	1775715252.587441
-50759.415000	-24629.310000	-10631.880000	876.420000	-14053.365000	-34833.060000	2572.335000	-20666.475000	-3.825171	-2.868512	-3.133989	-3.474359	-3.468538	-7.102879	-4.462196	-4.850209	-1.831200	1.556520	0.701960	-0.659605	-0.328063	0.669371	-1.000000	-1.000000	-1.000000	-1.000000	-1.000000	-1.000000	-1.000000	65.000000	0.000000	-1.000000	-1.000000	114257.000000	1775715252.587466
-50753.700000	-24626.655000	-10630.620000	876.195000	-14054.940000	-34837.425000	2568.645000	-20665.755000	-3.742243	-3.194915	-3.113425	-3.196165	-3.002966	-3.870388	-3.295880	-4.645973	-1.831200	1.556520	0.701960	-0.659605	-0.328063	0.669371	-1.000000	-1.000000	-1.000000	-1.000000	-1.000000	-1.000000	-1.000000	65.000000	0.000000	-1.000000	-1.000000	114258.000000	1775715252.587478
-50755.815000	-24627.735000	-10629.540000	877.635000	-14055.615000	-34841.205000	2573.820000	-20665.620000	-1.698251	-1.890726	-1.774361	-1.679897	-1.693614	-0.481492	-1.440713	-2.451442	-1.831200	1.556520	0.701960	-0.659605	-0.328063	0.669371	-1.000000	-1.000000	-1.000000	-1.000000	-1.000000	-1.000000	-1.000000	65.000000	0.000000	-1.000000	-1.000000	114259.000000	1775715252.594561
-50753.745000	-24621.705000	-10621.170000	887.535000	-14046.075000	-34831.620000	2588.670000	-20660.040000	0.899433	0.161697	0.221872	0.345760	-0.206894	1.434090	0.930309	0.484376	-1.831200	1.556520	0.701960	-0.659605	-0.328063	0.669371	-1.000000	-1.000000	-1.000000	-1.000000	-1.000000	-1.000000	-1.000000	65.000000	0.000000	-1.000000	-1.000000	114260.000000	1775715252.594590
-50738.355000	-24602.805000	-10600.830000	908.100000	-14025.780000	-34806.465000	2609.370000	-20644.290000	2.668850	2.177879	2.413175	2.576647	1.577393	2.626968	4.047651	3.158845	-1.007160	1.785420	0.320460	-0.659422	-0.327880	0.669066	-1.000000	-1.000000	-1.000000	-1.000000	-1.000000	-1.000000	-1.000000	65.000000	0.000000	-1.000000	-1.000000	114261.000000	1775715252.596270
-50732.865000	-24599.070000	-10595.295000	912.870000	-14022.495000	-34807.140000	2609.370000	-20641.275000	3.600195	4.049414	4.652566	4.914074	3.943726	4.527619	7.249413	5.193863	-1.007160	1.785420	0.320460	-0.659422	-0.327880	0.669066	-1.000000	-1.000000	-1.000000	-1.000000	-1.000000	-1.000000	-1.000000	65.000000	0.000000	-1.000000	-1.000000	114262.000000	1775715252.596291
-50738.940000	-24608.340000	-10605.015000	902.700000	-14031.945000	-34819.335000	2602.575000	-20645.415000	3.689914	4.803081	5.610188	5.857002	5.397376	5.890046	7.993082	5.706551	-1.007160	1.785420	0.320460	-0.659422	-0.327880	0.669066	-1.000000	-1.000000	-1.000000	-1.000000	-1.000000	-1.000000	-1.000000	65.000000	0.000000	-1.000000	-1.000000	114263.000000	1775715252.599068
-50752.530000	-24621.930000	-10619.100000	889.335000	-14045.490000	-34830.315000	2591.235000	-20655.675000	1.818879	2.491228	3.014534	3.048879	3.325620	3.656028	3.927862	3.337646	-1.007160	1.785420	0.320460	-0.659422	-0.327880	0.669066	-1.000000	-1.000000	-1.000000	-1.000000	-1.000000	-1.000000	-1.000000	65.000000	0.000000	-1.000000	-1.000000	114264.000000	1775715252.599088
-50759.280000	-24626.340000	-10624.815000	883.260000	-14051.430000	-34833.915000	2584.575000	-20661.615000	-2.489990	-3.030263	-3.291211	-3.512133	-2.578673	-2.459936	-3.990659	-1.832572	-1.007160	1.785420	0.320460	-0.659422	-0.327880	0.669066	-1.000000	-1.000000	-1.000000	-1.000000	-1.000000	-1.000000	-1.000000	65.000000	0.000000	-1.000000	-1.000000	114265.000000	1775715252.603794
-50763.240000	-24629.130000	-10628.370000	880.020000	-14053.995000	-34828.155000	2576.475000	-20668.365000	-7.254580	-8.665510	-9.857114	-10.192928	-8.930727	-8.572107	-11.579993	-7.397965	-1.007160	1.785420	0.320460	-0.659422	-0.327880	0.669066	-1.000000	-1.000000	-1.000000	-1.000000	-1.000000	-1.000000	-1.000000	65.000000	0.000000	-1.000000	-1.000000	114266.000000	1775715252.603811
-50762.295000	-24629.535000	-10629.315000	878.400000	-14053.095000	-34816.770000	2572.650000	-20669.265000	-9.203357	-10.516085	-12.281875	-12.565006	-11.342259	-9.985405	-14.573498	-10.176356	-1.007160	1.785420	0.320460	-0.659422	-0.327880	0.669066	-1.000000	-1.000000	-1.000000	-1.000000	-1.000000	-1.000000	-1.000000	65.000000	0.000000	-1.000000	-1.000000	114267.000000	1775715252.610557
-50760.540000	-24626.160000	-10624.905000	882.360000	-14048.820000	-34815.690000	2577.060000	-20665.980000	-6.560426	-7.123006	-8.748951	-8.911483	-7.949870	-5.344649	-11.285930	-8.367734	-1.007160	1.785420	0.320460	-0.659422	-0.327880	0.669066	-1.000000	-1.000000	-1.000000	-1.000000	-1.000000	-1.000000	-1.000000	65.000000	0.000000	-1.000000	-1.000000	114268.000000	1775715252.610581
-50767.200000	-24632.280000	-10632.015000	875.835000	-14057.145000	-34829.190000	2569.680000	-20669.940000	-0.586177	-0.347867	-1.128733	-1.189737	-0.669273	1.919081	-3.275417	-2.698888	-1.007160	1.785420	0.320460	-0.659422	-0.327880	0.669066	-1.000000	-1.000000	-1.000000	-1.000000	-1.000000	-1.000000	-1.000000	65.000000	0.000000	-1.000000	-1.000000	114269.000000	1775715252.614417
-50773.320000	-24641.325000	-10640.565000	866.520000	-14065.875000	-34844.805000	2563.020000	-20674.080000	5.243450	5.926213	6.281923	6.308001	6.130275	6.281874	5.396719	3.830497	-1.007160	1.785420	0.320460	-0.659422	-0.327880	0.669066	-1.000000	-1.000000	-1.000000	-1.000000	-1.000000	-1.000000	-1.000000	65.000000	0.000000	-1.000000	-1.000000	114270.000000	1775715252.614442
-50770.755000	-24640.200000	-10638.090000	869.130000	-14063.265000	-34849.260000	2567.655000	-20671.830000	8.013521	8.545559	9.825239	9.933698	8.967194	5.044485	10.779693	8.017375	0.167860	1.739640	0.869820	-0.660948	-0.327636	0.669188	-1.000000	-1.000000	-1.000000	-1.000000	-1.000000	-1.000000	-1.000000	65.000000	0.000000	-1.000000	-1.000000	114271.000000	1775715252.618141
-50765.490000	-24634.215000	-10631.070000	877.590000	-14053.140000	-34834.545000	2575.620000	-20666.295000	7.558742	7.479450	9.220107	9.409884	7.991011	0.815235	11.873587	8.792549	0.167860	1.739640	0.869820	-0.660948	-0.327636	0.669188	-1.000000	-1.000000	-1.000000	-1.000000	-1.000000	-1.000000	-1.000000	65.000000	0.000000	-1.000000	-1.000000	114272.000000	1775715252.618158
-50762.025000	-24630.210000	-10626.525000	882.720000	-14048.055000	-34829.505000	2578.455000	-20662.965000	5.617131	5.041882	6.748925	7.067569	5.807829	-1.372484	10.136972	7.184007	0.167860	1.739640	0.869820	-0.660948	-0.327636	0.669188	-1.000000	-1.000000	-1.000000	-1.000000	-1.000000	-1.000000	-1.000000	65.000000	0.000000	-1.000000	-1.000000	114273.000000	1775715252.618709
-50762.655000	-24632.055000	-10628.595000	879.435000	-14051.565000	-34833.240000	2576.835000	-20665.710000	3.503630	2.987202	4.201231	4.641242	3.998283	0.438619	6.909631	4.459605	0.167860	1.739640	0.869820	-0.660948	-0.327636	0.669188	-1.000000	-1.000000	-1.000000	-1.000000	-1.000000	-1.000000	-1.000000	65.000000	0.000000	-1.000000	-1.000000	114274.000000	1775715252.618726
-50759.145000	-24626.655000	-10621.530000	886.680000	-14044.815000	-34824.645000	2589.435000	-20659.320000	1.380827	1.380599	1.789515	2.149937	2.144039	3.784756	2.853675	1.284022	0.167860	1.739640	0.869820	-0.660948	-0.327636	0.669188	-1.000000	-1.000000	-1.000000	-1.000000	-1.000000	-1.000000	-1.000000	65.000000	0.000000	-1.000000	-1.000000	114275.000000	1775715252.632707
-50752.170000	-24619.995000	-10615.680000	893.070000	-14038.695000	-34816.545000	2596.680000	-20651.040000	-0.691850	-0.076062	-0.490546	-0.447997	-0.128013	5.662800	-0.922418	-1.523489	0.167860	1.739640	0.869820	-0.660948	-0.327636	0.669188	-1.000000	-1.000000	-1.000000	-1.000000	-1.000000	-1.000000	-1.000000	65.000000	0.000000	-1.000000	-1.000000	114276.000000	1775715252.632733
-50753.790000	-24623.775000	-10622.565000	886.545000	-14047.515000	-34827.885000	2590.605000	-20651.355000	-2.280100	-1.318757	-2.382090	-2.670657	-2.394903	4.897629	-3.489864	-3.052168	0.167860	1.739640	0.869820	-0.660948	-0.327636	0.669188	-1.000000	-1.000000	-1.000000	-1.000000	-1.000000	-1.000000	-1.000000	65.000000	0.000000	-1.000000	-1.000000	114277.000000	1775715252.632798
-50760.855000	-24632.460000	-10631.745000	877.905000	-14055.975000	-34838.955000	2583.315000	-20657.745000	-3.404189	-2.665038	-4.204992	-4.615913	-4.621453	1.233712	-5.380605	-3.531248	0.167860	1.739640	0.869820	-0.660948	-0.327636	0.669188	-1.000000	-1.000000	-1.000000	-1.000000	-1.000000	-1.000000	-1.000000	65.000000	0.000000	-1.000000	-1.000000	114278.000000	1775715252.632810
-50769.630000	-24641.505000	-10639.935000	869.580000	-14063.760000	-34853.130000	2574.405000	-20666.970000	-4.650135	-4.628567	-6.335313	-6.642558	-6.878451	-4.584129	-7.443436	-4.158399	0.167860	1.739640	0.869820	-0.660948	-0.327636	0.669188	-1.000000	-1.000000	-1.000000	-1.000000	-1.000000	-1.000000	-1.000000	65.000000	0.000000	-1.000000	-1.000000	114279.000000	1775715252.632829
-50770.980000	-24640.290000	-10637.280000	871.515000	-14063.355000	-34864.605000	2572.335000	-20669.220000	-5.952540	-6.591187	-7.845327	-7.981731	-8.145819	-10.128954	-9.094680	-5.356671	0.167860	1.739640	0.869820	-0.660948	-0.327636	0.669188	-1.000000	-1.000000	-1.000000	-1.000000	-1.000000	-1.000000	-1.000000	65.000000	0.000000	-1.000000	-1.000000	114280.000000	1775715252.632840
-50768.775000	-24636.195000	-10632.825000	876.060000	-14058.495000	-34858.575000	2574.405000	-20666.925000	-6.039867	-6.680666	-6.852262	-6.918963	-6.770281	-12.185348	-8.598384	-5.903567	-0.076300	1.876980	0.991900	-0.661803	-0.325927	0.668516	-1.000000	-1.000000	-1.000000	-1.000000	-1.000000	-1.000000	-1.000000	65.000000	0.000000	-1.000000	-1.000000	114281.000000	1775715252.636808
-50770.890000	-24640.920000	-10637.730000	871.470000	-14063.445000	-34857.990000	2570.265000	-20669.220000	-3.771819	-3.768542	-2.733300	-2.834106	-2.370826	-8.653711	-4.971340	-4.278657	-0.076300	1.876980	0.991900	-0.661803	-0.325927	0.668516	-1.000000	-1.000000	-1.000000	-1.000000	-1.000000	-1.000000	-1.000000	65.000000	0.000000	-1.000000	-1.000000	114282.000000	1775715252.636834
-50781.555000	-24652.440000	-10650.555000	858.825000	-14074.920000	-34858.755000	2553.480000	-20679.975000	0.088719	0.675532	2.365984	2.258505	2.906724	-0.603647	0.316071	-0.784500	-0.076300	1.876980	0.991900	-0.661803	-0.325927	0.668516	-1.000000	-1.000000	-1.000000	-1.000000	-1.000000	-1.000000	-1.000000	65.000000	0.000000	-1.000000	-1.000000	114283.000000	1775715252.639759
-50781.870000	-24652.530000	-10650.240000	858.510000	-14073.930000	-34847.055000	2548.980000	-20682.585000	3.336691	3.870589	5.347182	5.324339	6.045512	8.059055	4.272911	2.529403	-0.076300	1.876980	0.991900	-0.661803	-0.325927	0.668516	-1.000000	-1.000000	-1.000000	-1.000000	-1.000000	-1.000000	-1.000000	65.000000	0.000000	-1.000000	-1.000000	114284.000000	1775715252.639785
-50775.525000	-24647.805000	-10644.480000	863.145000	-14070.015000	-34847.415000	2552.760000	-20678.895000	4.806571	4.785015	5.465198	5.525041	6.226782	13.533933	5.584695	4.273909	-0.076300	1.876980	0.991900	-0.661803	-0.325927	0.668516	-1.000000	-1.000000	-1.000000	-1.000000	-1.000000	-1.000000	-1.000000	65.000000	0.000000	-1.000000	-1.000000	114285.000000	1775715252.644505
-50773.140000	-24646.095000	-10642.140000	864.585000	-14070.105000	-34853.400000	2560.680000	-20674.440000	5.160382	4.547573	4.451915	4.468880	4.934040	13.730698	5.668430	4.889208	-0.076300	1.876980	0.991900	-0.661803	-0.325927	0.668516	-1.000000	-1.000000	-1.000000	-1.000000	-1.000000	-1.000000	-1.000000	65.000000	0.000000	-1.000000	-1.000000	114286.000000	1775715252.644535
-50776.290000	-24647.985000	-10642.635000	865.260000	-14068.575000	-34848.855000	2565.495000	-20673.090000	5.015861	4.150408	3.702915	3.598674	3.529868	8.673076	6.199835	5.187669	-0.076300	1.876980	0.991900	-0.661803	-0.325927	0.668516	-1.000000	-1.000000	-1.000000	-1.000000	-1.000000	-1.000000	-1.000000	65.000000	0.000000	-1.000000	-1.000000	114287.000000	1775715252.647127
-50765.895000	-24635.925000	-10628.145000	879.570000	-14052.870000	-34831.575000	2575.620000	-20663.415000	4.138790	3.571966	3.234667	3.137438	2.506107	1.286970	7.075547	5.160598	-0.076300	1.876980	0.991900	-0.661803	-0.325927	0.668516	-1.000000	-1.000000	-1.000000	-1.000000	-1.000000	-1.000000	-1.000000	65.000000	0.000000	-1.000000	-1.000000	114288.000000	1775715252.647147
-50755.815000	-24624.765000	-10614.420000	894.375000	-14037.795000	-34816.680000	2590.965000	-20654.010000	2.728610	2.933528	2.999262	3.138042	2.321077	-3.999204	7.199262	4.561483	-0.076300	1.876980	0.991900	-0.661803	-0.325927	0.668516	-1.000000	-1.000000	-1.000000	-1.000000	-1.000000	-1.000000	-1.000000	65.000000	0.000000	-1.000000	-1.000000	114289.000000	1775715252.651938
-50756.130000	-24623.595000	-10614.330000	895.995000	-14037.345000	-34817.805000	2598.480000	-20652.660000	1.401154	2.433353	2.877505	3.375828	2.792730	-5.141838	5.871848	3.278407	-0.076300	1.876980	0.991900	-0.661803	-0.325927	0.668516	-1.000000	-1.000000	-1.000000	-1.000000	-1.000000	-1.000000	-1.000000	65.000000	0.000000	-1.000000	-1.000000	114290.000000	1775715252.651957
-50759.685000	-24627.735000	-10620.720000	888.975000	-14045.265000	-34827.255000	2597.310000	-20654.280000	-0.146623	1.266936	1.622951	2.397435	2.122952	-4.245032	2.730054	0.944510	-0.732480	2.319520	0.473060	-0.660582	-0.325378	0.668577	-1.000000	-1.000000	-1.000000	-1.000000	-1.000000	-1.000000	-1.000000	65.000000	0.000000	-1.000000	-1.000000	114291.000000	1775715252.655214
-50762.430000	-24633.450000	-10627.785000	880.245000	-14053.680000	-34835.175000	2587.680000	-20657.565000	-2.621601	-1.598310	-2.005267	-1.302572	-1.466036	-4.660697	-2.441155	-2.601368	-0.732480	2.319520	0.473060	-0.660582	-0.325378	0.668577	-1.000000	-1.000000	-1.000000	-1.000000	-1.000000	-1.000000	-1.000000	65.000000	0.000000	-1.000000	-1.000000	114292.000000	1775715252.655232
-50762.745000	-24634.665000	-10628.280000	879.300000	-14055.210000	-34834.950000	2582.550000	-20658.420000	-5.533388	-5.628996	-7.054227	-6.905440	-7.094019	-6.979441	-8.803614	-6.425377	-0.732480	2.319520	0.473060	-0.660582	-0.325378	0.668577	-1.000000	-1.000000	-1.000000	-1.000000	-1.000000	-1.000000	-1.000000	65.000000	0.000000	-1.000000	-1.000000	114293.000000	1775715252.662085
-50762.205000	-24632.055000	-10624.095000	883.080000	-14052.465000	-34830.270000	2582.055000	-20658.150000	-7.245115	-8.580991	-10.464905	-11.098344	-11.279299	-8.579911	-13.818389	-8.743515	-0.732480	2.319520	0.473060	-0.660582	-0.325378	0.668577	-1.000000	-1.000000	-1.000000	-1.000000	-1.000000	-1.000000	-1.000000	65.000000	0.000000	-1.000000	-1.000000	114294.000000	1775715252.662111
-50750.145000	-24616.665000	-10608.300000	899.010000	-14036.805000	-34820.235000	2593.755000	-20647.170000	-6.279954	-8.061940	-9.374320	-10.526340	-10.624041	-6.606837	-14.336249	-8.013382	-0.732480	2.319520	0.473060	-0.660582	-0.325378	0.668577	-1.000000	-1.000000	-1.000000	-1.000000	-1.000000	-1.000000	-1.000000	65.000000	0.000000	-1.000000	-1.000000	114295.000000	1775715252.663391
-50749.605000	-24617.475000	-10610.640000	896.625000	-14038.020000	-34826.805000	2591.955000	-20647.440000	-2.499625	-3.562788	-3.621829	-4.715595	-4.650627	-1.055434	-9.129348	-4.071416	-0.732480	2.319520	0.473060	-0.660582	-0.325378	0.668577	-1.000000	-1.000000	-1.000000	-1.000000	-1.000000	-1.000000	-1.000000	65.000000	0.000000	-1.000000	-1.000000	114296.000000	1775715252.663411
-50760.540000	-24628.815000	-10622.880000	885.195000	-14049.360000	-34840.845000	2584.305000	-20655.180000	2.061268	2.235627	3.256397	2.740452	3.077770	4.650082	-0.754634	1.052269	-0.732480	2.319520	0.473060	-0.660582	-0.325378	0.668577	-1.000000	-1.000000	-1.000000	-1.000000	-1.000000	-1.000000	-1.000000	65.000000	0.000000	-1.000000	-1.000000	114297.000000	1775715252.670272
-50763.870000	-24631.110000	-10624.005000	885.465000	-14048.685000	-34830.495000	2584.710000	-20656.755000	4.309441	5.289384	6.661058	6.948233	7.590116	6.934989	6.147936	4.282735	-0.732480	2.319520	0.473060	-0.660582	-0.325378	0.668577	-1.000000	-1.000000	-1.000000	-1.000000	-1.000000	-1.000000	-1.000000	65.000000	0.000000	-1.000000	-1.000000	114298.000000	1775715252.670294
-50760.990000	-24628.140000	-10619.910000	889.155000	-14045.085000	-34819.965000	2587.410000	-20653.515000	3.252118	4.274826	5.413186	6.376592	7.159609	6.005430	8.904734	4.392544	-0.732480	2.319520	0.473060	-0.660582	-0.325378	0.668577	-1.000000	-1.000000	-1.000000	-1.000000	-1.000000	-1.000000	-1.000000	65.000000	0.000000	-1.000000	-1.000000	114299.000000	1775715252.674208
-50760.000000	-24626.565000	-10618.290000	890.820000	-14044.230000	-34826.715000	2585.430000	-20653.920000	0.873992	1.448547	2.209111	3.404216	4.017483	4.409608	8.056519	2.747962	-0.732480	2.319520	0.473060	-0.660582	-0.325378	0.668577	-1.000000	-1.000000	-1.000000	-1.000000	-1.000000	-1.000000	-1.000000	65.000000	0.000000	-1.000000	-1.000000	114300.000000	1775715252.674227
-50760.900000	-24627.555000	-10618.920000	890.910000	-14045.130000	-34830.045000	2582.145000	-20655.000000	-0.503688	-0.476061	-0.029262	0.852997	0.991035	2.935198	5.305352	1.156439	-0.991900	1.892240	0.000000	-0.659788	-0.325378	0.668150	-1.000000	-1.000000	-1.000000	-1.000000	-1.000000	-1.000000	-1.000000	65.000000	0.000000	-1.000000	-1.000000	114301.000000	1775715252.682560
-50758.380000	-24624.720000	-10615.320000	893.070000	-14042.430000	-34828.380000	2585.385000	-20650.545000	-0.286449	-0.650491	-0.476758	-0.250592	-0.694813	0.883388	2.088015	0.378273	-0.991900	1.892240	0.000000	-0.659788	-0.325378	0.668150	-1.000000	-1.000000	-1.000000	-1.000000	-1.000000	-1.000000	-1.000000	65.000000	0.000000	-1.000000	-1.000000	114302.000000	1775715252.682585
-50765.220000	-24631.920000	-10624.365000	883.530000	-14050.485000	-34831.710000	2578.905000	-20655.000000	0.669038	0.145722	0.026244	-0.457539	-1.237296	-1.521872	-0.526792	0.320092	-0.991900	1.892240	0.000000	-0.659788	-0.325378	0.668150	-1.000000	-1.000000	-1.000000	-1.000000	-1.000000	-1.000000	-1.000000	65.000000	0.000000	-1.000000	-1.000000	114303.000000	1775715252.682610
-50770.620000	-24638.895000	-10632.330000	874.980000	-14060.205000	-34842.330000	2570.220000	-20660.490000	1.051191	0.528928	0.036000	-0.970474	-1.617081	-3.450129	-2.242471	0.296198	-0.991900	1.892240	0.000000	-0.659788	-0.325378	0.668150	-1.000000	-1.000000	-1.000000	-1.000000	-1.000000	-1.000000	-1.000000	65.000000	0.000000	-1.000000	-1.000000	114304.000000	1775715252.682622
-50757.120000	-24628.230000	-10621.710000	884.655000	-14051.790000	-34837.020000	2577.150000	-20651.265000	0.508779	-0.023554	-0.910339	-2.073575	-2.320433	-4.409208	-3.189166	-0.174876	-0.991900	1.892240	0.000000	-0.659788	-0.325378	0.668150	-1.000000	-1.000000	-1.000000	-1.000000	-1.000000	-1.000000	-1.000000	65.000000	0.000000	-1.000000	-1.000000	114305.000000	1775715252.683127
-50747.895000	-24620.085000	-10614.105000	892.575000	-14043.285000	-34826.490000	2584.260000	-20645.415000	0.383008	-0.266454	-1.322165	-2.232476	-2.193338	-3.639538	-2.773130	-0.387351	-0.991900	1.892240	0.000000	-0.659788	-0.325378	0.668150	-1.000000	-1.000000	-1.000000	-1.000000	-1.000000	-1.000000	-1.000000	65.000000	0.000000	-1.000000	-1.000000	114306.000000	1775715252.683142
-50760.540000	-24630.705000	-10622.160000	885.780000	-14049.000000	-34830.180000	2579.760000	-20653.965000	1.423318	0.759254	-0.012310	-0.332535	-0.196482	-0.710267	-0.600956	0.257172	-0.991900	1.892240	0.000000	-0.659788	-0.325378	0.668150	-1.000000	-1.000000	-1.000000	-1.000000	-1.000000	-1.000000	-1.000000	65.000000	0.000000	-1.000000	-1.000000	114307.000000	1775715252.687802
-50766.975000	-24635.295000	-10623.960000	884.565000	-14048.460000	-34825.320000	2574.090000	-20659.185000	1.874392	1.684832	1.697635	2.148229	2.400830	2.926491	1.853744	0.698647	-0.991900	1.892240	0.000000	-0.659788	-0.325378	0.668150	-1.000000	-1.000000	-1.000000	-1.000000	-1.000000	-1.000000	-1.000000	65.000000	0.000000	-1.000000	-1.000000	114308.000000	1775715252.687821
-50773.545000	-24642.315000	-10632.645000	875.745000	-14058.270000	-34834.545000	2565.495000	-20665.125000	-0.013860	0.765635	1.765545	2.871079	3.340726	4.848130	2.411114	-0.299473	-0.991900	1.892240	0.000000	-0.659788	-0.325378	0.668150	-1.000000	-1.000000	-1.000000	-1.000000	-1.000000	-1.000000	-1.000000	65.000000	0.000000	-1.000000	-1.000000	114309.000000	1775715252.697026
-50782.545000	-24651.090000	-10642.905000	865.260000	-14067.810000	-34843.365000	2564.685000	-20669.220000	-3.399561	-1.744813	-0.236825	1.068412	1.654560	3.636174	0.616770	-2.285536	-0.991900	1.892240	0.000000	-0.659788	-0.325378	0.668150	-1.000000	-1.000000	-1.000000	-1.000000	-1.000000	-1.000000	-1.000000	65.000000	0.000000	-1.000000	-1.000000	114310.000000	1775715252.697052
-50782.590000	-24650.100000	-10640.475000	868.095000	-14066.640000	-34847.190000	2570.760000	-20667.465000	-5.876997	-4.044001	-2.952348	-2.009351	-1.619426	-0.164855	-1.695835	-3.589781	-1.281840	2.426340	0.106820	-0.660155	-0.325133	0.668516	-1.000000	-1.000000	-1.000000	-1.000000	-1.000000	-1.000000	-1.000000	65.000000	0.000000	-1.000000	-1.000000	114311.000000	1775715252.697080
-50765.670000	-24632.280000	-10619.955000	889.560000	-14047.560000	-34832.430000	2583.045000	-20653.785000	-5.190410	-3.923764	-3.771834	-3.504337	-3.649527	-3.823281	-2.011147	-2.612640	-1.281840	2.426340	0.106820	-0.660155	-0.325133	0.668516	-1.000000	-1.000000	-1.000000	-1.000000	-1.000000	-1.000000	-1.000000	65.000000	0.000000	-1.000000	-1.000000	114312.000000	1775715252.697092
-50760.180000	-24626.565000	-10615.410000	893.385000	-14043.780000	-34825.905000	2586.240000	-20646.945000	-0.557567	-0.216558	-0.763142	-1.107837	-1.943493	-4.131622	0.476288	1.032207	-1.281840	2.426340	0.106820	-0.660155	-0.325133	0.668516	-1.000000	-1.000000	-1.000000	-1.000000	-1.000000	-1.000000	-1.000000	65.000000	0.000000	-1.000000	-1.000000	114313.000000	1775715252.709252
-50771.385000	-24636.600000	-10626.615000	881.370000	-14055.255000	-34836.840000	2576.115000	-20655.495000	5.605649	5.083989	4.312197	3.595753	2.338603	-0.873043	3.647248	5.377557	-1.281840	2.426340	0.106820	-0.660155	-0.325133	0.668516	-1.000000	-1.000000	-1.000000	-1.000000	-1.000000	-1.000000	-1.000000	65.000000	0.000000	-1.000000	-1.000000	114314.000000	1775715252.709280
-50774.895000	-24639.120000	-10630.080000	877.815000	-14058.585000	-34837.650000	2577.735000	-20657.115000	8.707532	7.671088	6.860663	5.987293	4.962693	2.584088	4.302773	6.990517	-1.281840	2.426340	0.106820	-0.660155	-0.325133	0.668516	-1.000000	-1.000000	-1.000000	-1.000000	-1.000000	-1.000000	-1.000000	65.000000	0.000000	-1.000000	-1.000000	114315.000000	1775715252.709308
-50780.655000	-24646.275000	-10638.270000	869.985000	-14064.435000	-34833.330000	2575.305000	-20663.730000	6.387194	5.241500	4.379536	3.557449	3.383966	3.379149	1.615510	4.253868	-1.281840	2.426340	0.106820	-0.660155	-0.325133	0.668516	-1.000000	-1.000000	-1.000000	-1.000000	-1.000000	-1.000000	-1.000000	65.000000	0.000000	-1.000000	-1.000000	114316.000000	1775715252.709320
-50780.430000	-24644.925000	-10635.660000	872.325000	-14062.815000	-34839.675000	2573.955000	-20665.755000	0.621256	-0.393268	-1.206291	-1.742008	-0.884896	1.791502	-2.343465	-1.111643	-1.281840	2.426340	0.106820	-0.660155	-0.325133	0.668516	-1.000000	-1.000000	-1.000000	-1.000000	-1.000000	-1.000000	-1.000000	65.000000	0.000000	-1.000000	-1.000000	114317.000000	1775715252.709335
-50769.675000	-24632.640000	-10621.980000	885.420000	-14051.565000	-34832.970000	2574.585000	-20660.220000	-4.385238	-5.138877	-5.565018	-5.673669	-4.216196	-0.411543	-5.015620	-5.665596	-1.281840	2.426340	0.106820	-0.660155	-0.325133	0.668516	-1.000000	-1.000000	-1.000000	-1.000000	-1.000000	-1.000000	-1.000000	65.000000	0.000000	-1.000000	-1.000000	114318.000000	1775715252.709346
-50760.495000	-24623.820000	-10611.855000	895.005000	-14042.835000	-34823.430000	2572.830000	-20655.990000	-5.346952	-5.692863	-5.352712	-5.100209	-3.882884	-1.548449	-5.148562	-6.634667	-1.281840	2.426340	0.106820	-0.660155	-0.325133	0.668516	-1.000000	-1.000000	-1.000000	-1.000000	-1.000000	-1.000000	-1.000000	65.000000	0.000000	-1.000000	-1.000000	114319.000000	1775715252.713578
-50753.745000	-24617.655000	-10606.455000	900.360000	-14038.605000	-34820.235000	2584.530000	-20645.955000	-2.117916	-2.035403	-0.896726	-0.485732	-0.187617	-0.753565	-2.911710	-3.605241	-1.281840	2.426340	0.106820	-0.660155	-0.325133	0.668516	-1.000000	-1.000000	-1.000000	-1.000000	-1.000000	-1.000000	-1.000000	65.000000	0.000000	-1.000000	-1.000000	114320.000000	1775715252.713603
-50765.220000	-24634.620000	-10624.365000	882.405000	-14055.120000	-34834.545000	2583.855000	-20651.355000	2.163305	2.363123	3.795675	4.193496	3.534344	0.820293	0.676382	1.267207	-0.701960	1.602300	0.122080	-0.660094	-0.325317	0.669371	-1.000000	-1.000000	-1.000000	-1.000000	-1.000000	-1.000000	-1.000000	65.000000	0.000000	-1.000000	-1.000000	114321.000000	1775715252.724717
-50772.420000	-24645.285000	-10635.525000	872.010000	-14063.670000	-34844.580000	2577.915000	-20658.780000	3.518085	3.264820	4.231796	4.570154	3.571384	0.654146	3.772310	4.539206	-0.701960	1.602300	0.122080	-0.660094	-0.325317	0.669371	-1.000000	-1.000000	-1.000000	-1.000000	-1.000000	-1.000000	-1.000000	65.000000	0.000000	-1.000000	-1.000000	114322.000000	1775715252.724748
-50760.855000	-24630.660000	-10619.190000	888.300000	-14048.325000	-34835.805000	2584.530000	-20650.905000	0.926743	-0.031205	0.029749	0.352976	-0.199031	-1.849485	4.531622	4.153967	-0.701960	1.602300	0.122080	-0.660094	-0.325317	0.669371	-1.000000	-1.000000	-1.000000	-1.000000	-1.000000	-1.000000	-1.000000	65.000000	0.000000	-1.000000	-1.000000	114323.000000	1775715252.724777
-50766.570000	-24629.445000	-10615.815000	891.855000	-14045.355000	-34835.445000	2584.215000	-20654.190000	-2.754799	-3.666060	-4.281175	-3.953168	-3.760346	-4.075750	2.959446	1.268479	-0.701960	1.602300	0.122080	-0.660094	-0.325317	0.669371	-1.000000	-1.000000	-1.000000	-1.000000	-1.000000	-1.000000	-1.000000	65.000000	0.000000	-1.000000	-1.000000	114324.000000	1775715252.724789
-50783.130000	-24640.110000	-10626.480000	881.100000	-14054.985000	-34844.625000	2575.305000	-20664.135000	-4.811105	-4.211590	-4.857069	-4.596105	-3.979194	-3.680050	0.399563	-1.762918	-0.701960	1.602300	0.122080	-0.660094	-0.325317	0.669371	-1.000000	-1.000000	-1.000000	-1.000000	-1.000000	-1.000000	-1.000000	65.000000	0.000000	-1.000000	-1.000000	114325.000000	1775715252.724801
-50785.020000	-24645.510000	-10632.915000	875.070000	-14060.745000	-34857.675000	2572.785000	-20665.665000	-5.209063	-2.392836	-2.651468	-2.562381	-1.992844	-1.561326	-2.204218	-3.812446	-0.701960	1.602300	0.122080	-0.660094	-0.325317	0.669371	-1.000000	-1.000000	-1.000000	-1.000000	-1.000000	-1.000000	-1.000000	65.000000	0.000000	-1.000000	-1.000000	114326.000000	1775715252.724812
-50779.440000	-24644.070000	-10631.205000	875.295000	-14061.960000	-34864.920000	2569.095000	-20664.270000	-4.259183	-0.475532	-0.468373	-0.616538	-0.373956	-0.040067	-4.131599	-4.372364	-0.701960	1.602300	0.122080	-0.660094	-0.325317	0.669371	-1.000000	-1.000000	-1.000000	-1.000000	-1.000000	-1.000000	-1.000000	65.000000	0.000000	-1.000000	-1.000000	114327.000000	1775715252.730664
-50766.165000	-24633.405000	-10621.575000	884.970000	-14054.085000	-34855.650000	2576.025000	-20652.570000	-1.192282	1.056600	0.965236	0.561739	0.338387	0.431646	-4.371969	-2.768831	-0.701960	1.602300	0.122080	-0.660094	-0.325317	0.669371	-1.000000	-1.000000	-1.000000	-1.000000	-1.000000	-1.000000	-1.000000	65.000000	0.000000	-1.000000	-1.000000	114328.000000	1775715252.730690
-50763.330000	-24630.570000	-10620.180000	886.590000	-14052.645000	-34843.995000	2579.535000	-20647.125000	3.882466	2.940548	2.519912	1.942927	1.227901	1.609825	-2.289283	0.975353	-0.701960	1.602300	0.122080	-0.660094	-0.325317	0.669371	-1.000000	-1.000000	-1.000000	-1.000000	-1.000000	-1.000000	-1.000000	65.000000	0.000000	-1.000000	-1.000000	114329.000000	1775715252.731259
-50773.545000	-24642.180000	-10631.925000	875.520000	-14062.140000	-34836.300000	2572.830000	-20654.595000	8.340890	4.678677	3.956613	3.441415	2.492371	4.663861	1.234112	5.014373	-0.701960	1.602300	0.122080	-0.660094	-0.325317	0.669371	-1.000000	-1.000000	-1.000000	-1.000000	-1.000000	-1.000000	-1.000000	65.000000	0.000000	-1.000000	-1.000000	114330.000000	1775715252.731275
-50782.410000	-24651.225000	-10640.970000	866.430000	-14069.430000	-34838.280000	2564.685000	-20663.730000	8.642871	4.273419	3.532013	3.344344	2.728247	7.959614	3.772834	6.305049	-0.305200	1.800680	-0.015260	-0.659056	-0.326171	0.670775	-1.000000	-1.000000	-1.000000	-1.000000	-1.000000	-1.000000	-1.000000	65.000000	0.000000	-1.000000	-1.000000	114331.000000	1775715252.737295
-50777.145000	-24644.925000	-10633.140000	874.755000	-14059.170000	-34825.950000	2574.450000	-20660.850000	4.098038	1.128676	0.792852	1.026111	1.278466	8.623246	3.724660	3.539165	-0.305200	1.800680	-0.015260	-0.659056	-0.326171	0.670775	-1.000000	-1.000000	-1.000000	-1.000000	-1.000000	-1.000000	-1.000000	65.000000	0.000000	-1.000000	-1.000000	114332.000000	1775715252.737318
-50768.145000	-24635.790000	-10623.735000	884.070000	-14050.395000	-34822.935000	2581.920000	-20653.065000	-1.820423	-2.248441	-1.853653	-1.336865	-0.167045	5.740774	2.255796	-0.998256	-0.305200	1.800680	-0.015260	-0.659056	-0.326171	0.670775	-1.000000	-1.000000	-1.000000	-1.000000	-1.000000	-1.000000	-1.000000	65.000000	0.000000	-1.000000	-1.000000	114333.000000	1775715252.758429
-50773.005000	-24641.235000	-10630.395000	875.925000	-14059.665000	-34836.840000	2575.530000	-20656.665000	-5.011024	-3.069052	-1.999780	-1.492453	-0.008536	0.442087	1.287279	-3.795925	-0.305200	1.800680	-0.015260	-0.659056	-0.326171	0.670775	-1.000000	-1.000000	-1.000000	-1.000000	-1.000000	-1.000000	-1.000000	65.000000	0.000000	-1.000000	-1.000000	114334.000000	1775715252.758456
-50786.460000	-24654.375000	-10644.705000	861.570000	-14073.795000	-34852.185000	2563.110000	-20668.320000	-4.898523	-1.761467	-0.536561	-0.351210	0.554985	-6.036394	0.581495	-3.905310	-0.305200	1.800680	-0.015260	-0.659056	-0.326171	0.670775	-1.000000	-1.000000	-1.000000	-1.000000	-1.000000	-1.000000	-1.000000	65.000000	0.000000	-1.000000	-1.000000	114335.000000	1775715252.758483
-50787.540000	-24655.815000	-10645.245000	861.210000	-14074.740000	-34855.245000	2560.680000	-20670.480000	-3.747235	-0.835506	-0.085882	-0.337867	-0.540313	-12.003102	-1.186143	-2.974826	-0.305200	1.800680	-0.015260	-0.659056	-0.326171	0.670775	-1.000000	-1.000000	-1.000000	-1.000000	-1.000000	-1.000000	-1.000000	65.000000	0.000000	-1.000000	-1.000000	114336.000000	1775715252.758496
-50774.670000	-24643.845000	-10632.195000	873.855000	-14062.275000	-34842.780000	2570.130000	-20660.220000	-2.648727	-0.955806	-0.905197	-1.407670	-2.577382	-14.265687	-3.397839	-2.007774	-0.305200	1.800680	-0.015260	-0.659056	-0.326171	0.670775	-1.000000	-1.000000	-1.000000	-1.000000	-1.000000	-1.000000	-1.000000	65.000000	0.000000	-1.000000	-1.000000	114337.000000	1775715252.758511
-50770.260000	-24637.410000	-10623.690000	882.540000	-14053.590000	-34833.870000	2573.370000	-20657.520000	-0.570865	-0.367063	-0.698549	-1.133123	-2.661795	-10.114230	-3.726120	-0.277324	-0.305200	1.800680	-0.015260	-0.659056	-0.326171	0.670775	-1.000000	-1.000000	-1.000000	-1.000000	-1.000000	-1.000000	-1.000000	65.000000	0.000000	-1.000000	-1.000000	114338.000000	1775715252.758522
-50770.215000	-24632.865000	-10617.030000	889.560000	-14047.560000	-34829.010000	2580.840000	-20655.090000	2.676239	1.892361	1.708549	1.573049	0.346664	-0.688514	-1.197054	2.417271	-0.305200	1.800680	-0.015260	-0.659056	-0.326171	0.670775	-1.000000	-1.000000	-1.000000	-1.000000	-1.000000	-1.000000	-1.000000	65.000000	0.000000	-1.000000	-1.000000	114339.000000	1775715252.758535
-50771.070000	-24635.520000	-10620.495000	886.230000	-14050.575000	-34829.190000	2585.520000	-20652.435000	5.154314	4.274620	4.514868	4.738551	4.199798	8.941812	2.649335	4.676489	-0.305200	1.800680	-0.015260	-0.659056	-0.326171	0.670775	-1.000000	-1.000000	-1.000000	-1.000000	-1.000000	-1.000000	-1.000000	65.000000	0.000000	-1.000000	-1.000000	114340.000000	1775715252.758545
-50775.615000	-24642.090000	-10629.540000	877.770000	-14057.820000	-34833.420000	2580.030000	-20654.775000	4.908106	4.377256	4.759055	5.240900	5.455026	13.491203	5.196277	4.965010	-0.228900	2.289000	-0.122080	-0.658385	-0.325683	0.670592	-1.000000	-1.000000	-1.000000	-1.000000	-1.000000	-1.000000	-1.000000	65.000000	0.000000	-1.000000	-1.000000	114341.000000	1775715252.758559
-50783.670000	-24652.440000	-10642.185000	864.945000	-14070.825000	-34847.370000	2568.195000	-20662.470000	1.776329	1.240541	1.084234	1.626232	2.459282	10.866502	4.355842	2.780417	-0.228900	2.289000	-0.122080	-0.658385	-0.325683	0.670592	-1.000000	-1.000000	-1.000000	-1.000000	-1.000000	-1.000000	-1.000000	65.000000	0.000000	-1.000000	-1.000000	114342.000000	1775715252.758568
-50782.005000	-24647.130000	-10635.615000	872.190000	-14063.670000	-34841.565000	2570.580000	-20661.345000	-2.569412	-3.570306	-4.681798	-4.283587	-3.136522	3.132865	0.151166	-1.063167	-0.228900	2.289000	-0.122080	-0.658385	-0.325683	0.670592	-1.000000	-1.000000	-1.000000	-1.000000	-1.000000	-1.000000	-1.000000	65.000000	0.000000	-1.000000	-1.000000	114343.000000	1775715252.759782
-50778.090000	-24643.485000	-10631.250000	876.285000	-14060.790000	-34840.080000	2572.875000	-20659.230000	-5.474366	-6.724387	-8.399468	-8.270740	-7.259180	-4.687186	-4.590574	-4.488750	-0.228900	2.289000	-0.122080	-0.658385	-0.325683	0.670592	-1.000000	-1.000000	-1.000000	-1.000000	-1.000000	-1.000000	-1.000000	65.000000	0.000000	-1.000000	-1.000000	114344.000000	1775715252.759800
-50776.830000	-24642.000000	-10629.090000	877.410000	-14060.565000	-34840.170000	2572.470000	-20660.040000	-5.080047	-5.890161	-7.166662	-7.346396	-6.895170	-8.174806	-6.510445	-5.483047	-0.228900	2.289000	-0.122080	-0.658385	-0.325683	0.670592	-1.000000	-1.000000	-1.000000	-1.000000	-1.000000	-1.000000	-1.000000	65.000000	0.000000	-1.000000	-1.000000	114345.000000	1775715252.765285
-50761.710000	-24625.215000	-10610.190000	896.625000	-14042.430000	-34822.395000	2586.420000	-20646.540000	-1.631554	-1.563269	-1.659505	-2.126294	-2.416820	-6.317912	-4.488576	-3.560966	-0.228900	2.289000	-0.122080	-0.658385	-0.325683	0.670592	-1.000000	-1.000000	-1.000000	-1.000000	-1.000000	-1.000000	-1.000000	65.000000	0.000000	-1.000000	-1.000000	114346.000000	1775715252.765309
-50761.620000	-24623.640000	-10607.805000	899.235000	-14040.855000	-34824.015000	2585.295000	-20646.090000	3.006088	3.901850	5.108324	4.491103	3.619294	-1.014847	0.146101	0.264921	-0.228900	2.289000	-0.122080	-0.658385	-0.325683	0.670592	-1.000000	-1.000000	-1.000000	-1.000000	-1.000000	-1.000000	-1.000000	65.000000	0.000000	-1.000000	-1.000000	114347.000000	1775715252.767214
-50762.430000	-24625.755000	-10611.720000	893.115000	-14046.255000	-34831.485000	2579.220000	-20649.870000	6.194977	7.507778	9.433583	8.880024	7.857568	4.051889	4.436851	3.804839	-0.228900	2.289000	-0.122080	-0.658385	-0.325683	0.670592	-1.000000	-1.000000	-1.000000	-1.000000	-1.000000	-1.000000	-1.000000	65.000000	0.000000	-1.000000	-1.000000	114348.000000	1775715252.767235
-50772.015000	-24636.600000	-10622.925000	881.820000	-14058.045000	-34845.255000	2576.880000	-20655.180000	5.697493	6.774713	8.407784	8.026994	7.366190	5.138587	5.479093	4.641271	-0.228900	2.289000	-0.122080	-0.658385	-0.325683	0.670592	-1.000000	-1.000000	-1.000000	-1.000000	-1.000000	-1.000000	-1.000000	65.000000	0.000000	-1.000000	-1.000000	114349.000000	1775715252.771902
-50770.935000	-24635.475000	-10622.655000	882.990000	-14057.640000	-34847.640000	2579.355000	-20654.280000	1.500587	1.747237	2.247808	2.065896	2.074438	1.483235	2.959494	2.243007	-0.228900	2.289000	-0.122080	-0.658385	-0.325683	0.670592	-1.000000	-1.000000	-1.000000	-1.000000	-1.000000	-1.000000	-1.000000	65.000000	0.000000	-1.000000	-1.000000	114350.000000	1775715252.771928
-50769.495000	-24631.650000	-10618.155000	887.670000	-14052.555000	-34846.515000	2581.020000	-20652.255000	-3.709808	-4.359749	-5.128310	-5.011165	-4.407218	-3.754578	-0.709851	-1.385740	-1.312360	3.326680	-0.106820	-0.658690	-0.325378	0.670286	-1.000000	-1.000000	-1.000000	-1.000000	-1.000000	-1.000000	-1.000000	65.000000	0.000000	-1.000000	-1.000000	114351.000000	1775715252.777402
-50767.830000	-24630.255000	-10616.040000	890.280000	-14049.945000	-34840.980000	2585.070000	-20649.645000	-6.580508	-7.569777	-9.018637	-8.507373	-7.625145	-6.251285	-2.889444	-3.582594	-1.312360	3.326680	-0.106820	-0.658690	-0.325378	0.670286	-1.000000	-1.000000	-1.000000	-1.000000	-1.000000	-1.000000	-1.000000	65.000000	0.000000	-1.000000	-1.000000	114352.000000	1775715252.777426
-50766.120000	-24630.705000	-10615.320000	892.035000	-14045.670000	-34820.865000	2593.035000	-20645.415000	-5.716013	-6.421380	-7.667822	-6.835984	-5.958162	-3.825543	-2.548377	-3.147953	-1.312360	3.326680	-0.106820	-0.658690	-0.325378	0.670286	-1.000000	-1.000000	-1.000000	-1.000000	-1.000000	-1.000000	-1.000000	65.000000	0.000000	-1.000000	-1.000000	114353.000000	1775715252.781059
-50772.825000	-24637.455000	-10622.655000	885.150000	-14052.285000	-34824.510000	2586.690000	-20650.230000	-2.368948	-2.647259	-3.078378	-2.156098	-1.394316	2.231778	-0.516117	-0.911410	-1.312360	3.326680	-0.106820	-0.658690	-0.325378	0.670286	-1.000000	-1.000000	-1.000000	-1.000000	-1.000000	-1.000000	-1.000000	65.000000	0.000000	-1.000000	-1.000000	114354.000000	1775715252.781083
-50775.615000	-24639.120000	-10624.725000	881.550000	-14056.155000	-34828.965000	2582.280000	-20650.950000	0.915217	0.881763	1.270245	1.962947	2.535999	7.623791	1.113023	1.171627	-1.312360	3.326680	-0.106820	-0.658690	-0.325378	0.670286	-1.000000	-1.000000	-1.000000	-1.000000	-1.000000	-1.000000	-1.000000	65.000000	0.000000	-1.000000	-1.000000	114355.000000	1775715252.787301
-50777.145000	-24641.145000	-10627.380000	877.995000	-14060.520000	-34835.040000	2577.510000	-20652.435000	2.423283	2.544371	3.265350	3.380812	3.557887	8.132641	0.737053	1.728725	-1.312360	3.326680	-0.106820	-0.658690	-0.325378	0.670286	-1.000000	-1.000000	-1.000000	-1.000000	-1.000000	-1.000000	-1.000000	65.000000	0.000000	-1.000000	-1.000000	114356.000000	1775715252.787321
-50784.300000	-24648.885000	-10636.065000	868.950000	-14071.005000	-34851.510000	2564.010000	-20660.490000	2.173680	2.458139	2.953242	2.317149	1.848995	3.113134	-1.421681	0.789465	-1.312360	3.326680	-0.106820	-0.658690	-0.325378	0.670286	-1.000000	-1.000000	-1.000000	-1.000000	-1.000000	-1.000000	-1.000000	65.000000	0.000000	-1.000000	-1.000000	114357.000000	1775715252.787344
-50781.285000	-24644.295000	-10631.070000	874.800000	-14066.775000	-34854.345000	2562.075000	-20660.850000	1.137561	1.540492	1.540435	0.381923	-0.792231	-4.427034	-3.874748	-0.815723	-1.312360	3.326680	-0.106820	-0.658690	-0.325378	0.670286	-1.000000	-1.000000	-1.000000	-1.000000	-1.000000	-1.000000	-1.000000	65.000000	0.000000	-1.000000	-1.000000	114358.000000	1775715252.787356
-50772.015000	-24636.645000	-10624.095000	880.785000	-14061.060000	-34854.210000	2571.750000	-20653.515000	0.627064	1.063657	0.688349	-0.440888	-2.055586	-9.903698	-4.570577	-1.805283	-1.312360	3.326680	-0.106820	-0.658690	-0.325378	0.670286	-1.000000	-1.000000	-1.000000	-1.000000	-1.000000	-1.000000	-1.000000	65.000000	0.000000	-1.000000	-1.000000	114359.000000	1775715252.792137
-50778.405000	-24644.790000	-10633.905000	870.480000	-14070.240000	-34863.390000	2569.635000	-20659.050000	1.404876	1.714957	1.265662	0.640504	-0.831097	-10.100308	-2.061085	-1.132165	-1.312360	3.326680	-0.106820	-0.658690	-0.325378	0.670286	-1.000000	-1.000000	-1.000000	-1.000000	-1.000000	-1.000000	-1.000000	65.000000	0.000000	-1.000000	-1.000000	114360.000000	1775715252.792161
-50788.260000	-24652.395000	-10640.790000	866.025000	-14074.020000	-34855.065000	2565.135000	-20666.610000	2.358209	2.359031	2.054230	2.096911	1.446666	-5.306865	2.503898	0.558262	-1.648080	3.036740	-0.640920	-0.659239	-0.324340	0.669493	-1.000000	-1.000000	-1.000000	-1.000000	-1.000000	-1.000000	-1.000000	65.000000	0.000000	-1.000000	-1.000000	114361.000000	1775715252.799267
-50793.795000	-24658.335000	-10645.470000	861.525000	-14076.585000	-34847.145000	2567.655000	-20668.455000	1.603938	1.363084	1.347898	2.018185	2.579642	1.911315	6.068287	1.518696	-1.648080	3.036740	-0.640920	-0.659239	-0.324340	0.669493	-1.000000	-1.000000	-1.000000	-1.000000	-1.000000	-1.000000	-1.000000	65.000000	0.000000	-1.000000	-1.000000	114362.000000	1775715252.799284
-50804.100000	-24668.910000	-10654.605000	852.390000	-14084.550000	-34857.855000	2565.630000	-20675.340000	-1.025109	-1.226656	-0.797566	0.290541	1.926432	8.376222	6.710668	1.054839	-1.648080	3.036740	-0.640920	-0.659239	-0.324340	0.669493	-1.000000	-1.000000	-1.000000	-1.000000	-1.000000	-1.000000	-1.000000	65.000000	0.000000	-1.000000	-1.000000	114363.000000	1775715252.799302
-50803.515000	-24668.595000	-10653.120000	854.235000	-14084.145000	-34860.150000	2561.445000	-20677.185000	-3.765542	-3.775112	-2.860429	-1.775213	0.286253	10.867846	4.619054	-0.121157	-1.648080	3.036740	-0.640920	-0.659239	-0.324340	0.669493	-1.000000	-1.000000	-1.000000	-1.000000	-1.000000	-1.000000	-1.000000	65.000000	0.000000	-1.000000	-1.000000	114364.000000	1775715252.799309
-50788.305000	-24651.090000	-10632.555000	873.360000	-14067.270000	-34847.595000	2570.310000	-20665.710000	-4.216680	-4.062318	-2.846763	-2.233302	-0.709240	8.458005	1.255120	-0.679281	-1.648080	3.036740	-0.640920	-0.659239	-0.324340	0.669493	-1.000000	-1.000000	-1.000000	-1.000000	-1.000000	-1.000000	-1.000000	65.000000	0.000000	-1.000000	-1.000000	114365.000000	1775715252.802814
-50779.620000	-24640.740000	-10620.720000	884.115000	-14058.045000	-34839.090000	2576.610000	-20659.005000	-0.966246	-0.646563	0.547088	0.387616	0.545711	3.829060	-1.320696	0.562279	-1.648080	3.036740	-0.640920	-0.659239	-0.324340	0.669493	-1.000000	-1.000000	-1.000000	-1.000000	-1.000000	-1.000000	-1.000000	65.000000	0.000000	-1.000000	-1.000000	114366.000000	1775715252.802833
-50782.095000	-24643.125000	-10625.310000	880.470000	-14060.970000	-34841.385000	2576.385000	-20657.115000	4.437836	4.952125	5.709572	4.811136	3.477950	0.098794	-1.896289	3.229049	-1.648080	3.036740	-0.640920	-0.659239	-0.324340	0.669493	-1.000000	-1.000000	-1.000000	-1.000000	-1.000000	-1.000000	-1.000000	65.000000	0.000000	-1.000000	-1.000000	114367.000000	1775715252.820609
-50796.675000	-24658.830000	-10642.140000	865.035000	-14074.920000	-34853.040000	2566.485000	-20668.140000	7.746051	8.273615	8.084572	6.913613	4.866133	-2.393083	-1.419550	4.942929	-1.648080	3.036740	-0.640920	-0.659239	-0.324340	0.669493	-1.000000	-1.000000	-1.000000	-1.000000	-1.000000	-1.000000	-1.000000	65.000000	0.000000	-1.000000	-1.000000	114368.000000	1775715252.820637
-50804.415000	-24666.885000	-10648.755000	858.825000	-14080.275000	-34854.480000	2565.405000	-20672.955000	5.658098	5.791220	4.397554	3.628371	2.071063	-4.880581	-1.727899	3.375995	-1.648080	3.036740	-0.640920	-0.659239	-0.324340	0.669493	-1.000000	-1.000000	-1.000000	-1.000000	-1.000000	-1.000000	-1.000000	65.000000	0.000000	-1.000000	-1.000000	114369.000000	1775715252.820663
-50793.885000	-24656.040000	-10638.180000	868.995000	-14071.590000	-34850.430000	2574.225000	-20664.990000	-0.546620	-1.084682	-3.258989	-3.241180	-3.526224	-7.113879	-2.912731	-0.959359	-1.648080	3.036740	-0.640920	-0.659239	-0.324340	0.669493	-1.000000	-1.000000	-1.000000	-1.000000	-1.000000	-1.000000	-1.000000	65.000000	0.000000	-1.000000	-1.000000	114370.000000	1775715252.820675
-50792.445000	-24652.845000	-10634.445000	872.460000	-14068.395000	-34849.440000	2568.825000	-20667.600000	-5.898761	-6.922661	-8.963761	-8.332790	-7.481947	-7.277721	-3.330909	-4.852750	-1.831200	3.433500	-0.412020	-0.659971	-0.325927	0.668638	-1.000000	-1.000000	-1.000000	-1.000000	-1.000000	-1.000000	-1.000000	65.000000	0.000000	-1.000000	-1.000000	114371.000000	1775715252.820690
-50785.470000	-24643.800000	-10623.960000	883.620000	-14058.135000	-34839.360000	2568.600000	-20662.155000	-6.662634	-7.580187	-8.678018	-7.935680	-6.722123	-4.411760	-2.239977	-5.732543	-1.831200	3.433500	-0.412020	-0.659971	-0.325927	0.668638	-1.000000	-1.000000	-1.000000	-1.000000	-1.000000	-1.000000	-1.000000	65.000000	0.000000	-1.000000	-1.000000	114372.000000	1775715252.820701
-50787.495000	-24646.725000	-10627.740000	880.065000	-14062.590000	-34846.020000	2566.485000	-20661.570000	-3.299962	-3.563497	-3.412443	-2.954756	-2.135778	0.294818	-0.525004	-3.623104	-1.831200	3.433500	-0.412020	-0.659971	-0.325927	0.668638	-1.000000	-1.000000	-1.000000	-1.000000	-1.000000	-1.000000	-1.000000	65.000000	0.000000	-1.000000	-1.000000	114373.000000	1775715252.820715
-50798.160000	-24662.970000	-10645.605000	862.110000	-14081.175000	-34865.730000	2555.190000	-20668.680000	0.795901	1.114015	2.183556	2.255858	2.351109	3.819402	0.628209	-0.434317	-1.831200	3.433500	-0.412020	-0.659971	-0.325927	0.668638	-1.000000	-1.000000	-1.000000	-1.000000	-1.000000	-1.000000	-1.000000	65.000000	0.000000	-1.000000	-1.000000	114374.000000	1775715252.820725
-50791.680000	-24659.595000	-10642.230000	867.105000	-14075.280000	-34857.675000	2568.780000	-20660.130000	2.541629	2.665661	3.906404	3.716690	3.253771	3.723949	0.846908	1.748086	-1.831200	3.433500	-0.412020	-0.659971	-0.325927	0.668638	-1.000000	-1.000000	-1.000000	-1.000000	-1.000000	-1.000000	-1.000000	65.000000	0.000000	-1.000000	-1.000000	114375.000000	1775715252.836747
-50782.635000	-24651.945000	-10634.220000	874.665000	-14068.440000	-34851.465000	2578.995000	-20651.985000	1.930935	1.151173	1.954597	1.719543	1.167207	1.281448	1.254225	2.524104	-1.831200	3.433500	-0.412020	-0.659971	-0.325927	0.668638	-1.000000	-1.000000	-1.000000	-1.000000	-1.000000	-1.000000	-1.000000	65.000000	0.000000	-1.000000	-1.000000	114376.000000	1775715252.836775
-50780.655000	-24653.475000	-10636.380000	872.460000	-14071.590000	-34852.950000	2576.565000	-20652.975000	1.107620	-0.441602	-0.191819	-0.337356	-0.589889	-0.165744	2.851562	2.739297	-1.831200	3.433500	-0.412020	-0.659971	-0.325927	0.668638	-1.000000	-1.000000	-1.000000	-1.000000	-1.000000	-1.000000	-1.000000	65.000000	0.000000	-1.000000	-1.000000	114377.000000	1775715252.836801
-50789.610000	-24662.565000	-10644.480000	863.595000	-14078.655000	-34855.920000	2565.045000	-20663.235000	0.927253	-0.536458	-0.595498	-0.703920	-0.567739	0.426728	4.168998	2.301242	-1.831200	3.433500	-0.412020	-0.659971	-0.325927	0.668638	-1.000000	-1.000000	-1.000000	-1.000000	-1.000000	-1.000000	-1.000000	65.000000	0.000000	-1.000000	-1.000000	114378.000000	1775715252.836814
-50793.930000	-24667.065000	-10649.655000	857.880000	-14084.820000	-34861.005000	2558.655000	-20666.700000	0.274072	-0.153545	-0.214206	-0.427640	0.010152	1.460564	2.790982	0.341120	-1.831200	3.433500	-0.412020	-0.659971	-0.325927	0.668638	-1.000000	-1.000000	-1.000000	-1.000000	-1.000000	-1.000000	-1.000000	65.000000	0.000000	-1.000000	-1.000000	114379.000000	1775715252.836829
-50798.610000	-24666.705000	-10648.575000	859.050000	-14085.045000	-34869.735000	2556.315000	-20669.220000	-1.548600	-0.333165	-0.232846	-0.604323	-0.049981	1.244878	-1.230728	-2.700239	-1.831200	3.433500	-0.412020	-0.659971	-0.325927	0.668638	-1.000000	-1.000000	-1.000000	-1.000000	-1.000000	-1.000000	-1.000000	65.000000	0.000000	-1.000000	-1.000000	114380.000000	1775715252.836840
-50788.125000	-24649.830000	-10630.845000	876.735000	-14068.395000	-34865.955000	2563.695000	-20660.940000	-3.313481	-0.319390	-0.064335	-0.468056	-0.116398	-0.319112	-4.967179	-4.713347	-1.342880	2.777320	-0.824040	-0.660094	-0.326476	0.668699	-1.000000	-1.000000	-1.000000	-1.000000	-1.000000	-1.000000	-1.000000	65.000000	0.000000	-1.000000	-1.000000	114381.000000	1775715252.836854
-50765.040000	-24631.920000	-10614.060000	890.820000	-14051.340000	-34843.365000	2571.885000	-20647.935000	-2.671067	1.516714	1.824027	1.561010	1.495768	-1.332266	-5.304743	-3.642758	-1.342880	2.777320	-0.824040	-0.660094	-0.326476	0.668699	-1.000000	-1.000000	-1.000000	-1.000000	-1.000000	-1.000000	-1.000000	65.000000	0.000000	-1.000000	-1.000000	114382.000000	1775715252.836864
-50776.875000	-24639.390000	-10617.930000	889.560000	-14055.480000	-34843.320000	2571.930000	-20652.120000	1.061239	4.908248	5.150154	5.093187	4.747877	0.239993	-1.812361	0.387189	-1.342880	2.777320	-0.824040	-0.660094	-0.326476	0.668699	-1.000000	-1.000000	-1.000000	-1.000000	-1.000000	-1.000000	-1.000000	65.000000	0.000000	-1.000000	-1.000000	114383.000000	1775715252.843222
-50779.980000	-24643.845000	-10621.395000	886.770000	-14058.405000	-34835.355000	2566.215000	-20654.685000	4.811059	6.612490	6.805417	7.031928	6.646303	3.545484	2.723395	4.449702	-1.342880	2.777320	-0.824040	-0.660094	-0.326476	0.668699	-1.000000	-1.000000	-1.000000	-1.000000	-1.000000	-1.000000	-1.000000	65.000000	0.000000	-1.000000	-1.000000	114384.000000	1775715252.843248
-50782.140000	-24647.580000	-10627.605000	879.930000	-14063.670000	-34829.415000	2570.355000	-20652.885000	4.843217	3.841153	4.032340	4.646216	4.328185	5.588608	4.929472	5.450675	-1.342880	2.777320	-0.824040	-0.660094	-0.326476	0.668699	-1.000000	-1.000000	-1.000000	-1.000000	-1.000000	-1.000000	-1.000000	65.000000	0.000000	-1.000000	-1.000000	114385.000000	1775715252.849403
-50796.720000	-24665.625000	-10647.945000	858.960000	-14082.300000	-34848.855000	2561.895000	-20664.765000	0.888473	-2.554913	-2.623496	-1.768926	-1.861161	4.184802	3.761878	2.915308	-1.342880	2.777320	-0.824040	-0.660094	-0.326476	0.668699	-1.000000	-1.000000	-1.000000	-1.000000	-1.000000	-1.000000	-1.000000	65.000000	0.000000	-1.000000	-1.000000	114386.000000	1775715252.849427
-50798.115000	-24665.895000	-10645.695000	862.605000	-14078.250000	-34848.360000	2563.155000	-20665.305000	-4.430952	-9.159523	-9.843662	-9.132205	-8.774140	-0.885480	0.506220	-1.434081	-1.342880	2.777320	-0.824040	-0.660094	-0.326476	0.668699	-1.000000	-1.000000	-1.000000	-1.000000	-1.000000	-1.000000	-1.000000	65.000000	0.000000	-1.000000	-1.000000	114387.000000	1775715252.849452
-50794.875000	-24659.325000	-10637.955000	870.975000	-14073.300000	-34852.725000	2566.665000	-20663.055000	-7.727723	-12.053622	-13.180150	-12.863259	-12.152085	-7.204369	-2.600652	-5.006391	-1.342880	2.777320	-0.824040	-0.660094	-0.326476	0.668699	-1.000000	-1.000000	-1.000000	-1.000000	-1.000000	-1.000000	-1.000000	65.000000	0.000000	-1.000000	-1.000000	114388.000000	1775715252.849463
-50794.245000	-24656.850000	-10634.805000	873.045000	-14071.815000	-34851.600000	2569.860000	-20664.630000	-6.680285	-8.912432	-9.784986	-9.850776	-9.372284	-10.817361	-3.605996	-5.639696	-1.342880	2.777320	-0.824040	-0.660094	-0.326476	0.668699	-1.000000	-1.000000	-1.000000	-1.000000	-1.000000	-1.000000	-1.000000	65.000000	0.000000	-1.000000	-1.000000	114389.000000	1775715252.858233
-50788.755000	-24651.540000	-10627.605000	880.335000	-14062.410000	-34839.945000	2576.835000	-20660.265000	-1.752078	-1.118533	-1.164501	-1.528857	-1.803990	-9.256663	-2.067772	-3.134640	-1.342880	2.777320	-0.824040	-0.660094	-0.326476	0.668699	-1.000000	-1.000000	-1.000000	-1.000000	-1.000000	-1.000000	-1.000000	65.000000	0.000000	-1.000000	-1.000000	114390.000000	1775715252.858259
-50781.960000	-24647.715000	-10622.385000	884.745000	-14057.730000	-34835.850000	2580.750000	-20653.380000	4.349515	7.109570	7.940287	7.342749	6.483757	-3.024137	0.840436	0.974945	-0.839300	2.746800	-1.144500	-0.659544	-0.326537	0.669066	-1.000000	-1.000000	-1.000000	-1.000000	-1.000000	-1.000000	-1.000000	65.000000	0.000000	-1.000000	-1.000000	114391.000000	1775715252.858287
-50788.260000	-24654.375000	-10631.025000	875.475000	-14066.865000	-34846.065000	2573.505000	-20656.215000	8.534461	11.636302	12.888024	12.160528	11.368993	4.432490	3.101343	4.657963	-0.839300	2.746800	-1.144500	-0.659544	-0.326537	0.669066	-1.000000	-1.000000	-1.000000	-1.000000	-1.000000	-1.000000	-1.000000	65.000000	0.000000	-1.000000	-1.000000	114392.000000	1775715252.858298
-50794.920000	-24660.315000	-10638.450000	868.410000	-14073.615000	-34853.580000	2567.070000	-20659.005000	8.548616	10.423245	11.317239	10.630012	10.379924	8.498061	2.861889	6.015813	-0.839300	2.746800	-1.144500	-0.659544	-0.326537	0.669066	-1.000000	-1.000000	-1.000000	-1.000000	-1.000000	-1.000000	-1.000000	65.000000	0.000000	-1.000000	-1.000000	114393.000000	1775715252.860912
-50798.520000	-24664.230000	-10642.500000	864.585000	-14078.520000	-34859.295000	2561.040000	-20663.955000	4.249606	4.469554	4.354421	3.934063	4.219570	7.036446	-0.094933	4.203816	-0.839300	2.746800	-1.144500	-0.659544	-0.326537	0.669066	-1.000000	-1.000000	-1.000000	-1.000000	-1.000000	-1.000000	-1.000000	65.000000	0.000000	-1.000000	-1.000000	114394.000000	1775715252.860932
-50790.555000	-24656.130000	-10634.130000	872.730000	-14071.770000	-34855.380000	2564.460000	-20658.465000	-1.671716	-2.531739	-3.659658	-3.633320	-3.190166	2.129565	-3.746982	0.377971	-0.839300	2.746800	-1.144500	-0.659544	-0.326537	0.669066	-1.000000	-1.000000	-1.000000	-1.000000	-1.000000	-1.000000	-1.000000	65.000000	0.000000	-1.000000	-1.000000	114395.000000	1775715252.864662
-50782.005000	-24646.230000	-10623.240000	883.710000	-14061.825000	-34849.080000	2568.735000	-20653.065000	-5.318081	-6.368609	-7.831222	-7.371144	-7.217103	-2.017007	-5.243459	-2.852448	-0.839300	2.746800	-1.144500	-0.659544	-0.326537	0.669066	-1.000000	-1.000000	-1.000000	-1.000000	-1.000000	-1.000000	-1.000000	65.000000	0.000000	-1.000000	-1.000000	114396.000000	1775715252.864689
-50782.365000	-24645.735000	-10621.485000	884.430000	-14061.825000	-34848.405000	2571.660000	-20653.065000	-4.783355	-5.335695	-6.256502	-5.589416	-5.911449	-2.681911	-3.259114	-3.565851	-0.839300	2.746800	-1.144500	-0.659544	-0.326537	0.669066	-1.000000	-1.000000	-1.000000	-1.000000	-1.000000	-1.000000	-1.000000	65.000000	0.000000	-1.000000	-1.000000	114397.000000	1775715252.869508
-50787.315000	-24651.180000	-10626.795000	879.660000	-14062.815000	-34842.420000	2572.380000	-20656.485000	-1.726944	-1.559092	-1.426079	-0.858134	-1.390808	-0.384425	0.896799	-2.187291	-0.839300	2.746800	-1.144500	-0.659544	-0.326537	0.669066	-1.000000	-1.000000	-1.000000	-1.000000	-1.000000	-1.000000	-1.000000	65.000000	0.000000	-1.000000	-1.000000	114398.000000	1775715252.869532
-50791.455000	-24655.950000	-10632.330000	874.305000	-14066.955000	-34838.955000	2572.740000	-20658.375000	0.605567	1.197562	2.233442	2.521891	2.399815	2.504789	4.501294	-0.615146	-0.839300	2.746800	-1.144500	-0.659544	-0.326537	0.669066	-1.000000	-1.000000	-1.000000	-1.000000	-1.000000	-1.000000	-1.000000	65.000000	0.000000	-1.000000	-1.000000	114399.000000	1775715252.874009
-50789.880000	-24657.525000	-10636.020000	869.355000	-14072.175000	-34844.850000	2565.765000	-20658.465000	0.629466	1.046702	2.281456	2.298460	3.028409	3.799942	5.441688	-0.076571	-0.839300	2.746800	-1.144500	-0.659544	-0.326537	0.669066	-1.000000	-1.000000	-1.000000	-1.000000	-1.000000	-1.000000	-1.000000	65.000000	0.000000	-1.000000	-1.000000	114400.000000	1775715252.874034
-50800.365000	-24667.695000	-10646.640000	858.330000	-14083.200000	-34858.935000	2555.685000	-20667.420000	-0.861325	-1.116139	-0.470400	-0.663926	0.661754	2.210390	3.186024	-0.493122	-0.732480	2.914660	-0.976640	-0.660521	-0.326781	0.668028	-1.000000	-1.000000	-1.000000	-1.000000	-1.000000	-1.000000	-1.000000	65.000000	0.000000	-1.000000	-1.000000	114401.000000	1775715252.876063
-50797.170000	-24664.770000	-10641.960000	864.045000	-14077.440000	-34858.980000	2557.530000	-20665.440000	-2.326765	-3.242033	-3.477584	-3.803066	-2.653609	-1.911298	-0.977161	-1.231452	-0.732480	2.914660	-0.976640	-0.660521	-0.326781	0.668028	-1.000000	-1.000000	-1.000000	-1.000000	-1.000000	-1.000000	-1.000000	65.000000	0.000000	-1.000000	-1.000000	114402.000000	1775715252.876082
-50789.115000	-24655.815000	-10630.890000	875.340000	-14067.540000	-34862.040000	2568.150000	-20656.800000	-2.378687	-3.390050	-4.062490	-4.337833	-4.043029	-6.028866	-4.154302	-1.294948	-0.732480	2.914660	-0.976640	-0.660521	-0.326781	0.668028	-1.000000	-1.000000	-1.000000	-1.000000	-1.000000	-1.000000	-1.000000	65.000000	0.000000	-1.000000	-1.000000	114403.000000	1775715252.879881
-50788.845000	-24653.250000	-10627.875000	878.130000	-14065.830000	-34866.495000	2571.120000	-20654.955000	-0.324185	-0.711129	-1.053751	-1.087370	-1.862614	-7.306146	-3.824079	0.205596	-0.732480	2.914660	-0.976640	-0.660521	-0.326781	0.668028	-1.000000	-1.000000	-1.000000	-1.000000	-1.000000	-1.000000	-1.000000	65.000000	0.000000	-1.000000	-1.000000	114404.000000	1775715252.879899
-50784.570000	-24648.255000	-10622.430000	882.945000	-14061.735000	-34863.390000	2571.480000	-20652.705000	2.819297	3.469943	3.843863	4.049050	2.484801	-5.002151	-0.401902	2.705031	-0.732480	2.914660	-0.976640	-0.660521	-0.326781	0.668028	-1.000000	-1.000000	-1.000000	-1.000000	-1.000000	-1.000000	-1.000000	65.000000	0.000000	-1.000000	-1.000000	114405.000000	1775715252.883335
-50793.615000	-24657.615000	-10631.745000	873.495000	-14070.870000	-34871.310000	2561.895000	-20661.255000	4.826878	6.321598	7.148365	7.389858	5.674357	-0.556329	2.995780	4.238751	-0.732480	2.914660	-0.976640	-0.660521	-0.326781	0.668028	-1.000000	-1.000000	-1.000000	-1.000000	-1.000000	-1.000000	-1.000000	65.000000	0.000000	-1.000000	-1.000000	114406.000000	1775715252.883353
-50799.915000	-24664.545000	-10638.990000	867.645000	-14075.145000	-34865.460000	2559.375000	-20664.945000	3.978644	5.560700	6.234312	6.336197	5.214626	3.727281	3.505240	3.198231	-0.732480	2.914660	-0.976640	-0.660521	-0.326781	0.668028	-1.000000	-1.000000	-1.000000	-1.000000	-1.000000	-1.000000	-1.000000	65.000000	0.000000	-1.000000	-1.000000	114407.000000	1775715252.887464
-50802.480000	-24667.155000	-10640.790000	866.430000	-14075.775000	-34857.000000	2556.360000	-20667.870000	0.491412	1.316444	1.371677	1.372965	1.373883	6.391945	1.001041	-0.078328	-0.732480	2.914660	-0.976640	-0.660521	-0.326781	0.668028	-1.000000	-1.000000	-1.000000	-1.000000	-1.000000	-1.000000	-1.000000	65.000000	0.000000	-1.000000	-1.000000	114408.000000	1775715252.887485
-50795.685000	-24657.930000	-10629.765000	877.545000	-14064.480000	-34843.905000	2562.255000	-20663.865000	-3.220902	-3.491728	-4.058719	-4.003501	-2.871494	7.517370	-2.117064	-3.366228	-0.732480	2.914660	-0.976640	-0.660521	-0.326781	0.668028	-1.000000	-1.000000	-1.000000	-1.000000	-1.000000	-1.000000	-1.000000	65.000000	0.000000	-1.000000	-1.000000	114409.000000	1775715252.892422
-50786.100000	-24647.400000	-10619.865000	887.670000	-14055.255000	-34836.930000	2570.985000	-20655.360000	-4.264426	-5.251148	-6.045966	-5.898696	-4.207646	7.513312	-3.130287	-4.252052	-0.732480	2.914660	-0.976640	-0.660521	-0.326781	0.668028	-1.000000	-1.000000	-1.000000	-1.000000	-1.000000	-1.000000	-1.000000	65.000000	0.000000	-1.000000	-1.000000	114410.000000	1775715252.892448
-50780.970000	-24643.890000	-10618.020000	888.255000	-14057.190000	-34845.030000	2572.335000	-20651.085000	-1.742850	-2.780537	-3.446649	-3.350452	-1.978589	5.846519	-1.202275	-1.995172	-0.824040	2.105880	-1.037680	-0.660826	-0.326354	0.667235	-1.000000	-1.000000	-1.000000	-1.000000	-1.000000	-1.000000	-1.000000	65.000000	0.000000	-1.000000	-1.000000	114411.000000	1775715252.911378
-50776.155000	-24639.165000	-10612.935000	892.710000	-14053.140000	-34847.595000	2578.545000	-20646.270000	2.425745	1.674038	1.175756	1.006505	1.345538	1.591724	2.044492	1.848369	-0.824040	2.105880	-1.037680	-0.660826	-0.326354	0.667235	-1.000000	-1.000000	-1.000000	-1.000000	-1.000000	-1.000000	-1.000000	65.000000	0.000000	-1.000000	-1.000000	114412.000000	1775715252.911403
-50782.770000	-24646.545000	-10621.350000	885.420000	-14059.215000	-34851.825000	2576.835000	-20651.265000	5.063628	4.531921	4.111553	3.607486	2.838404	-4.564234	4.131527	4.556646	-0.824040	2.105880	-1.037680	-0.660826	-0.326354	0.667235	-1.000000	-1.000000	-1.000000	-1.000000	-1.000000	-1.000000	-1.000000	65.000000	0.000000	-1.000000	-1.000000	114413.000000	1775715252.911430
-50794.515000	-24657.930000	-10631.295000	876.555000	-14067.720000	-34853.400000	2569.365000	-20659.185000	3.915881	3.479214	3.177703	2.586020	1.356170	-9.892954	3.491609	4.070864	-0.824040	2.105880	-1.037680	-0.660826	-0.326354	0.667235	-1.000000	-1.000000	-1.000000	-1.000000	-1.000000	-1.000000	-1.000000	65.000000	0.000000	-1.000000	-1.000000	114414.000000	1775715252.911443
-50800.770000	-24665.535000	-10637.640000	871.200000	-14070.060000	-34840.755000	2563.470000	-20664.630000	-0.828390	-1.154208	-1.127406	-1.383462	-2.172859	-11.426533	0.128704	0.366668	-0.824040	2.105880	-1.037680	-0.660826	-0.326354	0.667235	-1.000000	-1.000000	-1.000000	-1.000000	-1.000000	-1.000000	-1.000000	65.000000	0.000000	-1.000000	-1.000000	114415.000000	1775715252.911456
-50792.895000	-24658.335000	-10631.115000	877.500000	-14064.930000	-34838.325000	2565.135000	-20658.420000	-6.099703	-6.239674	-5.702143	-5.397600	-5.206714	-7.928920	-4.137035	-4.157920	-0.824040	2.105880	-1.037680	-0.660826	-0.326354	0.667235	-1.000000	-1.000000	-1.000000	-1.000000	-1.000000	-1.000000	-1.000000	65.000000	0.000000	-1.000000	-1.000000	114416.000000	1775715252.911467
-50783.130000	-24650.190000	-10623.960000	884.070000	-14059.845000	-34839.765000	2575.395000	-20648.655000	-7.776129	-7.725960	-6.823424	-6.155062	-5.192714	-1.232247	-6.365482	-6.076312	-0.824040	2.105880	-1.037680	-0.660826	-0.326354	0.667235	-1.000000	-1.000000	-1.000000	-1.000000	-1.000000	-1.000000	-1.000000	65.000000	0.000000	-1.000000	-1.000000	114417.000000	1775715252.911481
-50781.555000	-24647.445000	-10620.090000	887.355000	-14056.740000	-34837.065000	2584.125000	-20645.145000	-4.259604	-4.055169	-3.232046	-2.677295	-1.742831	4.773873	-4.567731	-3.748011	-0.824040	2.105880	-1.037680	-0.660826	-0.326354	0.667235	-1.000000	-1.000000	-1.000000	-1.000000	-1.000000	-1.000000	-1.000000	65.000000	0.000000	-1.000000	-1.000000	114418.000000	1775715252.911492
-50791.815000	-24655.545000	-10628.595000	878.490000	-14066.325000	-34846.425000	2573.055000	-20654.820000	1.700064	2.140529	2.535415	2.585191	2.785093	7.127338	0.137898	0.884200	-0.824040	2.105880	-1.037680	-0.660826	-0.326354	0.667235	-1.000000	-1.000000	-1.000000	-1.000000	-1.000000	-1.000000	-1.000000	65.000000	0.000000	-1.000000	-1.000000	114419.000000	1775715252.911505
-50798.025000	-24659.100000	-10631.925000	875.700000	-14068.215000	-34848.180000	2565.405000	-20661.930000	5.436992	6.331920	6.262079	5.780374	5.154802	5.348611	3.890641	3.878184	-0.824040	2.105880	-1.037680	-0.660826	-0.326354	0.667235	-1.000000	-1.000000	-1.000000	-1.000000	-1.000000	-1.000000	-1.000000	65.000000	0.000000	-1.000000	-1.000000	114420.000000	1775715252.911515
-50801.940000	-24663.915000	-10635.750000	872.055000	-14071.455000	-34852.545000	2561.805000	-20665.215000	4.696441	6.090852	5.745159	5.063877	4.095288	1.196713	3.806754	3.090715	-1.236060	1.617560	-0.808780	-0.661741	-0.326537	0.665892	-1.000000	-1.000000	-1.000000	-1.000000	-1.000000	-1.000000	-1.000000	65.000000	0.000000	-1.000000	-1.000000	114421.000000	1775715252.920646
-50796.945000	-24659.505000	-10631.340000	875.745000	-14068.800000	-34849.755000	2561.670000	-20664.000000	1.217841	2.653802	2.298028	1.826735	1.123746	-2.506554	0.765710	-0.041228	-1.236060	1.617560	-0.808780	-0.661741	-0.326537	0.665892	-1.000000	-1.000000	-1.000000	-1.000000	-1.000000	-1.000000	-1.000000	65.000000	0.000000	-1.000000	-1.000000	114422.000000	1775715252.920673
-50786.460000	-24646.140000	-10618.155000	888.795000	-14058.045000	-34844.355000	2569.545000	-20656.170000	-1.388270	-0.623174	-0.817691	-0.896419	-1.096409	-3.564302	-1.980499	-2.318016	-1.236060	1.617560	-0.808780	-0.661741	-0.326537	0.665892	-1.000000	-1.000000	-1.000000	-1.000000	-1.000000	-1.000000	-1.000000	65.000000	0.000000	-1.000000	-1.000000	114423.000000	1775715252.922630
-50782.095000	-24640.470000	-10611.045000	895.770000	-14053.230000	-34852.635000	2578.455000	-20647.845000	-0.905576	-1.111141	-1.140245	-0.910569	-0.861072	-1.798095	-1.864448	-1.616259	-1.236060	1.617560	-0.808780	-0.661741	-0.326537	0.665892	-1.000000	-1.000000	-1.000000	-1.000000	-1.000000	-1.000000	-1.000000	65.000000	0.000000	-1.000000	-1.000000	114424.000000	1775715252.922723
-50794.155000	-24656.670000	-10628.280000	879.525000	-14066.730000	-34864.695000	2577.465000	-20654.505000	1.509816	0.542755	0.603750	0.977944	0.955025	0.641982	1.001519	1.403050	-1.236060	1.617560	-0.808780	-0.661741	-0.326537	0.665892	-1.000000	-1.000000	-1.000000	-1.000000	-1.000000	-1.000000	-1.000000	65.000000	0.000000	-1.000000	-1.000000	114425.000000	1775715252.923914
-50805.855000	-24673.140000	-10648.350000	858.735000	-14086.305000	-34876.440000	2564.865000	-20664.585000	2.466110	0.891562	0.866199	1.277374	1.297562	1.190589	3.784148	3.689604	-1.236060	1.617560	-0.808780	-0.661741	-0.326537	0.665892	-1.000000	-1.000000	-1.000000	-1.000000	-1.000000	-1.000000	-1.000000	65.000000	0.000000	-1.000000	-1.000000	114426.000000	1775715252.923934
-50798.205000	-24664.770000	-10640.790000	864.405000	-14083.065000	-34869.015000	2562.030000	-20662.020000	0.318780	-1.846951	-2.252339	-1.926808	-1.495109	-0.283174	3.481286	2.844730	-1.236060	1.617560	-0.808780	-0.661741	-0.326537	0.665892	-1.000000	-1.000000	-1.000000	-1.000000	-1.000000	-1.000000	-1.000000	65.000000	0.000000	-1.000000	-1.000000	114427.000000	1775715252.928019
-50797.665000	-24657.030000	-10630.170000	876.870000	-14071.545000	-34847.865000	2567.880000	-20660.580000	-2.754237	-4.918288	-5.730684	-5.649191	-4.835456	-0.965856	0.209069	-0.221929	-1.236060	1.617560	-0.808780	-0.661741	-0.326537	0.665892	-1.000000	-1.000000	-1.000000	-1.000000	-1.000000	-1.000000	-1.000000	65.000000	0.000000	-1.000000	-1.000000	114428.000000	1775715252.928045
-50790.195000	-24647.625000	-10618.920000	889.200000	-14057.370000	-34827.525000	2578.725000	-20651.580000	-3.609330	-4.423987	-5.072239	-5.197565	-4.450007	1.945524	-2.799374	-2.549338	-1.236060	1.617560	-0.808780	-0.661741	-0.326537	0.665892	-1.000000	-1.000000	-1.000000	-1.000000	-1.000000	-1.000000	-1.000000	65.000000	0.000000	-1.000000	-1.000000	114429.000000	1775715252.942796
-50789.610000	-24649.785000	-10620.945000	887.310000	-14058.810000	-34833.690000	2577.285000	-20649.915000	-1.529941	-0.115266	0.125471	0.065953	0.459553	7.320077	-2.864609	-2.278294	-1.236060	1.617560	-0.808780	-0.661741	-0.326537	0.665892	-1.000000	-1.000000	-1.000000	-1.000000	-1.000000	-1.000000	-1.000000	65.000000	0.000000	-1.000000	-1.000000	114430.000000	1775715252.942821
-50796.225000	-24659.280000	-10632.465000	875.790000	-14070.600000	-34847.730000	2566.890000	-20655.630000	1.536064	4.398305	5.599150	5.779261	5.881207	9.937791	-0.788267	-0.211236	-1.388660	1.739640	-0.320460	-0.662718	-0.326842	0.665831	-1.000000	-1.000000	-1.000000	-1.000000	-1.000000	-1.000000	-1.000000	65.000000	0.000000	-1.000000	-1.000000	114431.000000	1775715252.942847
-50805.450000	-24671.430000	-10646.010000	861.885000	-14084.910000	-34861.860000	2554.110000	-20662.425000	2.828308	5.199615	6.598479	6.890289	6.817227	5.552633	0.366083	1.191383	-1.388660	1.739640	-0.320460	-0.662718	-0.326842	0.665831	-1.000000	-1.000000	-1.000000	-1.000000	-1.000000	-1.000000	-1.000000	65.000000	0.000000	-1.000000	-1.000000	114432.000000	1775715252.942860
-50804.100000	-24669.090000	-10642.185000	865.665000	-14081.580000	-34859.295000	2558.835000	-20658.870000	1.296130	1.711691	2.399610	2.524228	2.271077	-4.163531	-0.866043	0.532903	-1.388660	1.739640	-0.320460	-0.662718	-0.326842	0.665831	-1.000000	-1.000000	-1.000000	-1.000000	-1.000000	-1.000000	-1.000000	65.000000	0.000000	-1.000000	-1.000000	114433.000000	1775715252.945608
-50807.520000	-24668.820000	-10639.890000	868.185000	-14079.240000	-34857.045000	2561.580000	-20662.200000	-1.446483	-2.846392	-3.096730	-3.305247	-3.770332	-12.633422	-2.612461	-1.187229	-1.388660	1.739640	-0.320460	-0.662718	-0.326842	0.665831	-1.000000	-1.000000	-1.000000	-1.000000	-1.000000	-1.000000	-1.000000	65.000000	0.000000	-1.000000	-1.000000	114434.000000	1775715252.945627
-50795.415000	-24656.400000	-10626.705000	881.460000	-14067.720000	-34846.470000	2573.145000	-20654.505000	-2.811387	-4.570061	-5.222388	-5.689517	-6.322875	-14.082572	-2.097111	-2.079226	-1.388660	1.739640	-0.320460	-0.662718	-0.326842	0.665831	-1.000000	-1.000000	-1.000000	-1.000000	-1.000000	-1.000000	-1.000000	65.000000	0.000000	-1.000000	-1.000000	114435.000000	1775715252.945649
-50782.455000	-24641.685000	-10610.640000	897.930000	-14053.320000	-34833.015000	2588.670000	-20643.930000	-1.227365	-1.918333	-2.307990	-2.798188	-3.525589	-7.706915	1.438989	-1.019097	-1.388660	1.739640	-0.320460	-0.662718	-0.326842	0.665831	-1.000000	-1.000000	-1.000000	-1.000000	-1.000000	-1.000000	-1.000000	65.000000	0.000000	-1.000000	-1.000000	114436.000000	1775715252.945661
-50777.955000	-24636.780000	-10606.230000	901.620000	-14049.945000	-34832.115000	2591.910000	-20639.475000	2.712137	3.460572	3.561001	3.259108	2.518164	2.472721	6.168992	1.733141	-1.388660	1.739640	-0.320460	-0.662718	-0.326842	0.665831	-1.000000	-1.000000	-1.000000	-1.000000	-1.000000	-1.000000	-1.000000	65.000000	0.000000	-1.000000	-1.000000	114437.000000	1775715252.953173
-50778.990000	-24640.605000	-10611.810000	895.455000	-14055.210000	-34838.325000	2587.230000	-20639.610000	6.149560	7.630570	7.912739	7.838271	7.296301	10.290452	8.659123	4.349078	-1.388660	1.739640	-0.320460	-0.662718	-0.326842	0.665831	-1.000000	-1.000000	-1.000000	-1.000000	-1.000000	-1.000000	-1.000000	65.000000	0.000000	-1.000000	-1.000000	114438.000000	1775715252.953198
-50787.450000	-24653.070000	-10624.230000	881.685000	-14067.990000	-34849.665000	2575.260000	-20648.295000	5.965673	6.938455	6.867891	6.885916	6.906019	11.197532	6.141603	4.493161	-1.388660	1.739640	-0.320460	-0.662718	-0.326842	0.665831	-1.000000	-1.000000	-1.000000	-1.000000	-1.000000	-1.000000	-1.000000	65.000000	0.000000	-1.000000	-1.000000	114439.000000	1775715252.953226
-50786.820000	-24652.530000	-10622.025000	884.250000	-14065.515000	-34846.830000	2577.420000	-20647.350000	1.544191	1.056639	0.411555	0.369929	1.183962	5.373909	-0.827589	1.387232	-1.388660	1.739640	-0.320460	-0.662718	-0.326842	0.665831	-1.000000	-1.000000	-1.000000	-1.000000	-1.000000	-1.000000	-1.000000	65.000000	0.000000	-1.000000	-1.000000	114440.000000	1775715252.953238
-50791.275000	-24651.990000	-10621.035000	886.365000	-14062.185000	-34841.565000	2579.445000	-20649.015000	-4.536644	-6.297653	-7.168082	-7.238992	-5.809076	-2.448128	-8.086839	-3.168453	-1.297100	1.312360	-0.381500	-0.663634	-0.328490	0.666075	-1.000000	-1.000000	-1.000000	-1.000000	-1.000000	-1.000000	-1.000000	65.000000	0.000000	-1.000000	-1.000000	114441.000000	1775715252.964514
-50785.380000	-24639.570000	-10607.715000	900.405000	-14048.055000	-34827.165000	2593.935000	-20638.980000	-8.555686	-10.142370	-10.659980	-10.529936	-8.999946	-6.728234	-10.890127	-6.082823	-1.297100	1.312360	-0.381500	-0.663634	-0.328490	0.666075	-1.000000	-1.000000	-1.000000	-1.000000	-1.000000	-1.000000	-1.000000	65.000000	0.000000	-1.000000	-1.000000	114442.000000	1775715252.964541
-50776.740000	-24628.185000	-10595.565000	913.095000	-14037.930000	-34818.255000	2604.555000	-20630.205000	-8.145595	-7.927867	-7.780775	-7.265247	-6.245660	-5.171248	-7.419923	-5.276734	-1.297100	1.312360	-0.381500	-0.663634	-0.328490	0.666075	-1.000000	-1.000000	-1.000000	-1.000000	-1.000000	-1.000000	-1.000000	65.000000	0.000000	-1.000000	-1.000000	114443.000000	1775715252.964787
-50774.355000	-24627.960000	-10596.600000	911.430000	-14040.585000	-34825.095000	2599.515000	-20631.780000	-3.573273	-1.263877	-0.596982	0.195685	0.201455	-0.087197	-0.161781	-1.296549	-1.297100	1.312360	-0.381500	-0.663634	-0.328490	0.666075	-1.000000	-1.000000	-1.000000	-1.000000	-1.000000	-1.000000	-1.000000	65.000000	0.000000	-1.000000	-1.000000	114444.000000	1775715252.964803
-50776.965000	-24633.450000	-10603.575000	903.870000	-14048.595000	-34838.460000	2589.480000	-20635.065000	2.269638	5.137152	5.818486	6.498241	5.382665	3.550956	5.616299	2.838571	-1.297100	1.312360	-0.381500	-0.663634	-0.328490	0.666075	-1.000000	-1.000000	-1.000000	-1.000000	-1.000000	-1.000000	-1.000000	65.000000	0.000000	-1.000000	-1.000000	114445.000000	1775715252.969747
-50778.135000	-24636.015000	-10607.535000	899.145000	-14053.680000	-34845.210000	2583.495000	-20634.165000	5.821903	7.072202	7.220175	7.374617	5.611858	2.405811	6.017773	4.234239	-1.297100	1.312360	-0.381500	-0.663634	-0.328490	0.666075	-1.000000	-1.000000	-1.000000	-1.000000	-1.000000	-1.000000	-1.000000	65.000000	0.000000	-1.000000	-1.000000	114446.000000	1775715252.969771
-50786.325000	-24639.930000	-10610.010000	897.435000	-14055.795000	-34843.905000	2576.070000	-20642.040000	5.403245	4.036773	3.492018	2.998930	1.391663	-2.200530	1.618317	2.462697	-1.297100	1.312360	-0.381500	-0.663634	-0.328490	0.666075	-1.000000	-1.000000	-1.000000	-1.000000	-1.000000	-1.000000	-1.000000	65.000000	0.000000	-1.000000	-1.000000	114447.000000	1775715252.969796
-50787.045000	-24637.545000	-10605.465000	903.105000	-14050.305000	-34832.430000	2581.245000	-20641.950000	1.935029	-1.061506	-1.852240	-2.692467	-3.494438	-5.705686	-3.594817	-0.848771	-1.297100	1.312360	-0.381500	-0.663634	-0.328490	0.666075	-1.000000	-1.000000	-1.000000	-1.000000	-1.000000	-1.000000	-1.000000	65.000000	0.000000	-1.000000	-1.000000	114448.000000	1775715252.969809
-50786.685000	-24636.105000	-10603.710000	905.355000	-14047.650000	-34828.065000	2587.230000	-20640.825000	-1.989467	-4.588353	-4.888137	-5.546341	-5.332536	-4.624017	-5.517300	-3.447916	-1.297100	1.312360	-0.381500	-0.663634	-0.328490	0.666075	-1.000000	-1.000000	-1.000000	-1.000000	-1.000000	-1.000000	-1.000000	65.000000	0.000000	-1.000000	-1.000000	114449.000000	1775715252.973131
-50780.295000	-24629.265000	-10595.070000	914.670000	-14038.515000	-34817.580000	2597.535000	-20634.840000	-3.754716	-4.583299	-3.994038	-4.102965	-3.088381	0.543527	-2.666537	-3.613046	-1.297100	1.312360	-0.381500	-0.663634	-0.328490	0.666075	-1.000000	-1.000000	-1.000000	-1.000000	-1.000000	-1.000000	-1.000000	65.000000	0.000000	-1.000000	-1.000000	114450.000000	1775715252.973155
-50765.490000	-24616.980000	-10584.405000	924.930000	-14029.920000	-34812.180000	2609.550000	-20623.140000	-2.180097	-1.360233	-0.140835	0.266254	1.580557	6.316360	3.183790	-1.024609	-0.717220	1.464960	0.335720	-0.663389	-0.329162	0.666502	-1.000000	-1.000000	-1.000000	-1.000000	-1.000000	-1.000000	-1.000000	65.000000	0.000000	-1.000000	-1.000000	114451.000000	1775715252.979512
-50759.325000	-24614.685000	-10585.350000	922.230000	-14032.440000	-34819.515000	2615.940000	-20614.365000	1.910745	3.145322	4.210892	4.744098	5.775653	8.993290	8.535641	3.128513	-0.717220	1.464960	0.335720	-0.663389	-0.329162	0.666502	-1.000000	-1.000000	-1.000000	-1.000000	-1.000000	-1.000000	-1.000000	65.000000	0.000000	-1.000000	-1.000000	114452.000000	1775715252.979538
-50767.425000	-24624.630000	-10596.195000	910.620000	-14042.745000	-34827.615000	2609.055000	-20620.800000	5.679303	6.009705	6.079058	6.243547	6.664877	6.567601	10.062123	6.419931	-0.717220	1.464960	0.335720	-0.663389	-0.329162	0.666502	-1.000000	-1.000000	-1.000000	-1.000000	-1.000000	-1.000000	-1.000000	65.000000	0.000000	-1.000000	-1.000000	114453.000000	1775715252.983412
-50782.770000	-24639.930000	-10612.485000	895.320000	-14056.425000	-34833.195000	2594.610000	-20634.030000	5.631118	4.650821	3.473751	3.056420	3.012838	-0.007495	6.035830	6.066553	-0.717220	1.464960	0.335720	-0.663389	-0.329162	0.666502	-1.000000	-1.000000	-1.000000	-1.000000	-1.000000	-1.000000	-1.000000	65.000000	0.000000	-1.000000	-1.000000	114454.000000	1775715252.983440
-50779.890000	-24635.745000	-10608.300000	900.405000	-14051.520000	-34827.165000	2594.520000	-20632.455000	0.853788	-0.658515	-2.489872	-3.192169	-3.307081	-6.886838	-2.198037	1.348723	-0.717220	1.464960	0.335720	-0.663389	-0.329162	0.666502	-1.000000	-1.000000	-1.000000	-1.000000	-1.000000	-1.000000	-1.000000	65.000000	0.000000	-1.000000	-1.000000	114455.000000	1775715252.984911
-50775.300000	-24629.265000	-10600.515000	907.830000	-14045.715000	-34826.220000	2592.405000	-20629.980000	-5.244816	-5.971313	-7.424678	-7.860989	-7.876133	-9.824656	-10.121875	-4.757975	-0.717220	1.464960	0.335720	-0.663389	-0.329162	0.666502	-1.000000	-1.000000	-1.000000	-1.000000	-1.000000	-1.000000	-1.000000	65.000000	0.000000	-1.000000	-1.000000	114456.000000	1775715252.984929
-50776.245000	-24628.500000	-10599.615000	908.055000	-14045.985000	-34825.590000	2588.220000	-20630.835000	-8.027824	-7.085337	-7.329966	-7.207988	-7.340374	-7.418450	-13.196427	-8.017657	-0.717220	1.464960	0.335720	-0.663389	-0.329162	0.666502	-1.000000	-1.000000	-1.000000	-1.000000	-1.000000	-1.000000	-1.000000	65.000000	0.000000	-1.000000	-1.000000	114457.000000	1775715252.993128
-50769.090000	-24619.320000	-10588.500000	919.935000	-14032.980000	-34807.545000	2597.760000	-20624.355000	-5.926543	-3.422023	-2.276373	-1.745651	-2.244806	-1.514840	-10.108981	-6.671241	-0.717220	1.464960	0.335720	-0.663389	-0.329162	0.666502	-1.000000	-1.000000	-1.000000	-1.000000	-1.000000	-1.000000	-1.000000	65.000000	0.000000	-1.000000	-1.000000	114458.000000	1775715252.993152
-50775.840000	-24625.530000	-10595.700000	912.690000	-14040.450000	-34817.715000	2595.645000	-20631.105000	-0.952507	2.142943	4.169215	4.777038	4.015170	4.739920	-2.797432	-2.184133	-0.717220	1.464960	0.335720	-0.663389	-0.329162	0.666502	-1.000000	-1.000000	-1.000000	-1.000000	-1.000000	-1.000000	-1.000000	65.000000	0.000000	-1.000000	-1.000000	114459.000000	1775715252.993175
-50785.245000	-24637.365000	-10608.210000	899.910000	-14052.960000	-34833.780000	2595.915000	-20637.090000	3.308991	5.668596	7.647232	8.081176	7.422697	7.782081	4.970561	2.251493	-0.717220	1.464960	0.335720	-0.663389	-0.329162	0.666502	-1.000000	-1.000000	-1.000000	-1.000000	-1.000000	-1.000000	-1.000000	65.000000	0.000000	-1.000000	-1.000000	114460.000000	1775715252.993185
-50789.475000	-24642.855000	-10613.700000	894.420000	-14057.865000	-34839.765000	2593.395000	-20640.555000	4.249484	4.769008	5.816250	5.958312	5.699360	5.366553	9.522461	4.055874	-0.442540	1.434440	0.610400	-0.661558	-0.329528	0.666990	-1.000000	-1.000000	-1.000000	-1.000000	-1.000000	-1.000000	-1.000000	65.000000	0.000000	-1.000000	-1.000000	114461.000000	1775715252.996082
-50787.720000	-24639.975000	-10609.560000	899.145000	-14052.330000	-34838.730000	2593.800000	-20637.945000	2.259459	0.658477	0.446270	0.314819	0.532149	-0.611798	9.404541	3.176296	-0.442540	1.434440	0.610400	-0.661558	-0.329528	0.666990	-1.000000	-1.000000	-1.000000	-1.000000	-1.000000	-1.000000	-1.000000	65.000000	0.000000	-1.000000	-1.000000	114462.000000	1775715252.996106
-50795.235000	-24648.930000	-10618.515000	890.550000	-14060.115000	-34846.245000	2585.250000	-20643.885000	-0.198860	-3.136894	-4.238698	-4.495576	-3.914244	-5.510438	5.657043	1.404127	-0.442540	1.434440	0.610400	-0.661558	-0.329528	0.666990	-1.000000	-1.000000	-1.000000	-1.000000	-1.000000	-1.000000	-1.000000	65.000000	0.000000	-1.000000	-1.000000	114463.000000	1775715253.001150
-50801.490000	-24655.905000	-10623.915000	885.555000	-14063.895000	-34846.965000	2580.255000	-20650.005000	-1.436455	-4.401967	-5.682291	-5.881394	-5.152281	-6.365000	0.421752	0.070155	-0.442540	1.434440	0.610400	-0.661558	-0.329528	0.666990	-1.000000	-1.000000	-1.000000	-1.000000	-1.000000	-1.000000	-1.000000	65.000000	0.000000	-1.000000	-1.000000	114464.000000	1775715253.001172
-50796.630000	-24648.795000	-10615.545000	894.015000	-14056.290000	-34838.415000	2584.485000	-20646.855000	-1.274332	-3.176937	-4.025693	-4.074246	-3.453130	-3.284614	-3.968210	-0.574448	-0.442540	1.434440	0.610400	-0.661558	-0.329528	0.666990	-1.000000	-1.000000	-1.000000	-1.000000	-1.000000	-1.000000	-1.000000	65.000000	0.000000	-1.000000	-1.000000	114465.000000	1775715253.003447
-50790.780000	-24641.820000	-10609.020000	899.505000	-14051.070000	-34831.980000	2586.915000	-20643.390000	0.199416	-0.070494	-0.246327	-0.205688	0.035518	2.014272	-5.485050	-0.329379	-0.442540	1.434440	0.610400	-0.661558	-0.329528	0.666990	-1.000000	-1.000000	-1.000000	-1.000000	-1.000000	-1.000000	-1.000000	65.000000	0.000000	-1.000000	-1.000000	114466.000000	1775715253.003468
-50786.325000	-24636.780000	-10605.870000	902.520000	-14049.180000	-34830.270000	2590.155000	-20639.520000	2.682032	4.001184	4.255395	4.214388	3.879908	7.047618	-3.627138	0.957262	-0.442540	1.434440	0.610400	-0.661558	-0.329528	0.666990	-1.000000	-1.000000	-1.000000	-1.000000	-1.000000	-1.000000	-1.000000	65.000000	0.000000	-1.000000	-1.000000	114467.000000	1775715253.025362
-50778.360000	-24629.715000	-10599.165000	909.855000	-14043.780000	-34829.325000	2595.105000	-20633.490000	5.041956	7.257169	7.397136	7.172645	6.264777	9.204571	0.109727	2.701768	-0.442540	1.434440	0.610400	-0.661558	-0.329528	0.666990	-1.000000	-1.000000	-1.000000	-1.000000	-1.000000	-1.000000	-1.000000	65.000000	0.000000	-1.000000	-1.000000	114468.000000	1775715253.025389
-50777.595000	-24630.930000	-10598.670000	909.810000	-14044.095000	-34836.300000	2598.345000	-20633.130000	5.854121	7.875290	7.569694	7.257308	6.006958	7.151092	3.477545	3.794345	-0.442540	1.434440	0.610400	-0.661558	-0.329528	0.666990	-1.000000	-1.000000	-1.000000	-1.000000	-1.000000	-1.000000	-1.000000	65.000000	0.000000	-1.000000	-1.000000	114469.000000	1775715253.025415
-50777.280000	-24632.910000	-10602.315000	905.805000	-14048.460000	-34847.280000	2594.610000	-20631.465000	4.262326	5.113145	4.541901	4.315782	3.154811	1.541249	4.732669	3.292244	-0.442540	1.434440	0.610400	-0.661558	-0.329528	0.666990	-1.000000	-1.000000	-1.000000	-1.000000	-1.000000	-1.000000	-1.000000	65.000000	0.000000	-1.000000	-1.000000	114470.000000	1775715253.025427
-50779.440000	-24632.280000	-10601.865000	905.310000	-14050.890000	-34862.445000	2588.760000	-20630.205000	0.504565	-0.107306	-0.557361	-0.630264	-1.246881	-5.464629	3.142006	1.109135	-0.869820	0.732480	1.236060	-0.660582	-0.328857	0.666624	-1.000000	-1.000000	-1.000000	-1.000000	-1.000000	-1.000000	-1.000000	65.000000	0.000000	-1.000000	-1.000000	114471.000000	1775715253.025440
-50787.540000	-24637.590000	-10606.365000	900.810000	-14055.300000	-34861.455000	2581.785000	-20635.470000	-4.112568	-5.496025	-5.596933	-5.569256	-5.443605	-10.860299	-0.677258	-1.900492	-0.869820	0.732480	1.236060	-0.660582	-0.328857	0.666624	-1.000000	-1.000000	-1.000000	-1.000000	-1.000000	-1.000000	-1.000000	65.000000	0.000000	-1.000000	-1.000000	114472.000000	1775715253.025451
-50787.765000	-24639.615000	-10609.200000	897.705000	-14056.830000	-34849.845000	2587.950000	-20633.760000	-7.834685	-8.834154	-8.543758	-8.471046	-7.672905	-11.509267	-4.644184	-4.567658	-0.869820	0.732480	1.236060	-0.660582	-0.328857	0.666624	-1.000000	-1.000000	-1.000000	-1.000000	-1.000000	-1.000000	-1.000000	65.000000	0.000000	-1.000000	-1.000000	114473.000000	1775715253.025464
-50799.465000	-24652.845000	-10624.905000	882.405000	-14069.295000	-34854.345000	2578.860000	-20644.560000	-9.212201	-9.269723	-8.746024	-8.611491	-7.254917	-6.271450	-6.352373	-5.980301	-0.869820	0.732480	1.236060	-0.660582	-0.328857	0.666624	-1.000000	-1.000000	-1.000000	-1.000000	-1.000000	-1.000000	-1.000000	65.000000	0.000000	-1.000000	-1.000000	114474.000000	1775715253.025475
-50801.490000	-24654.105000	-10624.725000	882.405000	-14068.710000	-34843.860000	2576.655000	-20646.630000	-7.844753	-7.328256	-6.884204	-6.637239	-4.862285	2.183719	-5.126347	-5.874346	-0.869820	0.732480	1.236060	-0.660582	-0.328857	0.666624	-1.000000	-1.000000	-1.000000	-1.000000	-1.000000	-1.000000	-1.000000	65.000000	0.000000	-1.000000	-1.000000	114475.000000	1775715253.025487
-50797.575000	-24651.540000	-10621.170000	886.680000	-14063.805000	-34835.085000	2581.245000	-20643.120000	-4.205253	-3.761785	-3.533668	-3.167110	-1.353121	9.478690	-2.068905	-4.291327	-0.869820	0.732480	1.236060	-0.660582	-0.328857	0.666624	-1.000000	-1.000000	-1.000000	-1.000000	-1.000000	-1.000000	-1.000000	65.000000	0.000000	-1.000000	-1.000000	114476.000000	1775715253.025498
-50798.430000	-24652.665000	-10621.215000	887.040000	-14062.905000	-34837.965000	2585.250000	-20642.040000	0.868566	0.890871	1.103109	1.534530	2.770716	12.569140	1.616017	-1.216909	-0.869820	0.732480	1.236060	-0.660582	-0.328857	0.666624	-1.000000	-1.000000	-1.000000	-1.000000	-1.000000	-1.000000	-1.000000	65.000000	0.000000	-1.000000	-1.000000	114477.000000	1775715253.039670
-50795.145000	-24647.715000	-10614.240000	893.655000	-14056.830000	-34836.345000	2589.660000	-20640.240000	5.859306	5.531063	5.994560	6.385735	6.524708	10.392107	4.947242	2.665915	-0.869820	0.732480	1.236060	-0.660582	-0.328857	0.666624	-1.000000	-1.000000	-1.000000	-1.000000	-1.000000	-1.000000	-1.000000	65.000000	0.000000	-1.000000	-1.000000	114478.000000	1775715253.039697
-50795.640000	-24649.290000	-10617.030000	890.685000	-14061.105000	-34843.995000	2584.755000	-20642.130000	8.898145	8.574681	9.299743	9.498934	8.400726	3.990299	6.674506	5.748324	-0.869820	0.732480	1.236060	-0.660582	-0.328857	0.666624	-1.000000	-1.000000	-1.000000	-1.000000	-1.000000	-1.000000	-1.000000	65.000000	0.000000	-1.000000	-1.000000	114479.000000	1775715253.039853
-50800.095000	-24652.755000	-10620.765000	886.815000	-14066.145000	-34848.765000	2576.745000	-20646.810000	8.788593	8.776010	9.404768	9.285260	7.226033	-3.855252	5.602715	6.495056	-0.869820	0.732480	1.236060	-0.660582	-0.328857	0.666624	-1.000000	-1.000000	-1.000000	-1.000000	-1.000000	-1.000000	-1.000000	65.000000	0.000000	-1.000000	-1.000000	114480.000000	1775715253.039868
-50802.120000	-24654.600000	-10623.240000	884.430000	-14069.205000	-34853.670000	2568.510000	-20649.915000	5.586848	5.923385	5.962031	5.535256	3.113440	-9.966180	1.653111	4.502438	-1.022420	1.113980	1.129240	-0.660277	-0.328735	0.666990	-1.000000	-1.000000	-1.000000	-1.000000	-1.000000	-1.000000	-1.000000	65.000000	0.000000	-1.000000	-1.000000	114481.000000	1775715253.039887
-50795.640000	-24648.210000	-10616.715000	890.370000	-14063.805000	-34850.070000	2572.470000	-20644.470000	0.909313	1.423519	0.670373	0.093718	-1.950482	-11.946672	-3.283887	1.023455	-1.022420	1.113980	1.129240	-0.660277	-0.328735	0.666990	-1.000000	-1.000000	-1.000000	-1.000000	-1.000000	-1.000000	-1.000000	65.000000	0.000000	-1.000000	-1.000000	114482.000000	1775715253.039898
-50792.805000	-24644.655000	-10611.990000	895.815000	-14056.290000	-34841.475000	2577.105000	-20641.995000	-2.742428	-2.295174	-3.544366	-4.061528	-5.073359	-8.950415	-6.112681	-1.715018	-1.022420	1.113980	1.129240	-0.660277	-0.328735	0.666990	-1.000000	-1.000000	-1.000000	-1.000000	-1.000000	-1.000000	-1.000000	65.000000	0.000000	-1.000000	-1.000000	114483.000000	1775715253.055337
-50785.245000	-24636.195000	-10602.495000	905.580000	-14045.985000	-34829.280000	2584.935000	-20637.135000	-3.786976	-3.567090	-4.685920	-4.957084	-4.570339	-2.078986	-4.897858	-2.293728	-1.022420	1.113980	1.129240	-0.660277	-0.328735	0.666990	-1.000000	-1.000000	-1.000000	-1.000000	-1.000000	-1.000000	-1.000000	65.000000	0.000000	-1.000000	-1.000000	114484.000000	1775715253.055364
-50786.955000	-24635.295000	-10600.830000	908.280000	-14044.005000	-34827.075000	2588.220000	-20638.080000	-2.612512	-2.576616	-3.011657	-2.922978	-1.283258	5.687755	-0.521895	-1.126507	-1.022420	1.113980	1.129240	-0.660277	-0.328735	0.666990	-1.000000	-1.000000	-1.000000	-1.000000	-1.000000	-1.000000	-1.000000	65.000000	0.000000	-1.000000	-1.000000	114485.000000	1775715253.055391
-50792.445000	-24641.415000	-10607.490000	900.720000	-14051.925000	-34833.375000	2584.260000	-20642.085000	-1.074953	-1.057238	-0.693775	-0.282343	1.885673	10.407450	3.942229	0.148985	-1.022420	1.113980	1.129240	-0.660277	-0.328735	0.666990	-1.000000	-1.000000	-1.000000	-1.000000	-1.000000	-1.000000	-1.000000	65.000000	0.000000	-1.000000	-1.000000	114486.000000	1775715253.055404
-50792.625000	-24644.115000	-10609.965000	897.705000	-14054.760000	-34830.315000	2586.150000	-20642.670000	-0.865382	-0.884910	-0.090763	0.403767	2.171849	9.533290	5.533446	0.156929	-1.022420	1.113980	1.129240	-0.660277	-0.328735	0.666990	-1.000000	-1.000000	-1.000000	-1.000000	-1.000000	-1.000000	-1.000000	65.000000	0.000000	-1.000000	-1.000000	114487.000000	1775715253.055418
-50797.710000	-24650.505000	-10615.590000	892.935000	-14060.385000	-34836.435000	2578.950000	-20648.295000	-2.014306	-2.399853	-1.698628	-1.423849	-0.654315	3.983422	3.507638	-1.122597	-1.022420	1.113980	1.129240	-0.660277	-0.328735	0.666990	-1.000000	-1.000000	-1.000000	-1.000000	-1.000000	-1.000000	-1.000000	65.000000	0.000000	-1.000000	-1.000000	114488.000000	1775715253.055430
-50794.470000	-24648.750000	-10615.500000	892.395000	-14062.995000	-34844.355000	2577.735000	-20644.875000	-3.180990	-4.201829	-3.926819	-3.987260	-4.311298	-2.950495	-0.622200	-2.575818	-1.022420	1.113980	1.129240	-0.660277	-0.328735	0.666990	-1.000000	-1.000000	-1.000000	-1.000000	-1.000000	-1.000000	-1.000000	65.000000	0.000000	-1.000000	-1.000000	114489.000000	1775715253.055443
-50804.280000	-24657.705000	-10624.995000	882.180000	-14073.030000	-34858.440000	2573.055000	-20650.095000	-3.173822	-4.612608	-4.856704	-5.160803	-6.298746	-8.322907	-4.474233	-2.988625	-1.022420	1.113980	1.129240	-0.660277	-0.328735	0.666990	-1.000000	-1.000000	-1.000000	-1.000000	-1.000000	-1.000000	-1.000000	65.000000	0.000000	-1.000000	-1.000000	114490.000000	1775715253.055454
-50812.740000	-24662.565000	-10631.790000	876.735000	-14077.890000	-34869.060000	2571.030000	-20653.470000	-2.116103	-3.231171	-3.920985	-4.301394	-5.699173	-10.661199	-6.169175	-2.087442	-1.022420	1.632820	1.052940	-0.659178	-0.328002	0.667845	-1.000000	-1.000000	-1.000000	-1.000000	-1.000000	-1.000000	-1.000000	65.000000	0.000000	-1.000000	-1.000000	114491.000000	1775715253.058367
-50815.845000	-24665.130000	-10635.075000	873.585000	-14080.500000	-34870.410000	2562.570000	-20658.375000	-0.916116	-0.865027	-1.787006	-2.033603	-3.018880	-9.475259	-5.281669	-0.628448	-1.022420	1.632820	1.052940	-0.659178	-0.328002	0.667845	-1.000000	-1.000000	-1.000000	-1.000000	-1.000000	-1.000000	-1.000000	65.000000	0.000000	-1.000000	-1.000000	114492.000000	1775715253.058393
-50808.690000	-24659.730000	-10628.730000	880.200000	-14075.460000	-34859.745000	2564.595000	-20655.630000	0.347294	1.767270	0.965048	1.019731	0.863476	-4.660059	-2.683314	0.671984	-1.022420	1.632820	1.052940	-0.659178	-0.328002	0.667845	-1.000000	-1.000000	-1.000000	-1.000000	-1.000000	-1.000000	-1.000000	65.000000	0.000000	-1.000000	-1.000000	114493.000000	1775715253.061402
-50807.970000	-24662.430000	-10632.285000	876.015000	-14080.275000	-34866.000000	2567.790000	-20654.505000	2.337353	4.301556	4.028165	4.350135	4.896797	2.744727	0.605225	1.795784	-1.022420	1.632820	1.052940	-0.659178	-0.328002	0.667845	-1.000000	-1.000000	-1.000000	-1.000000	-1.000000	-1.000000	-1.000000	65.000000	0.000000	-1.000000	-1.000000	114494.000000	1775715253.061420
-50802.120000	-24654.375000	-10623.105000	885.600000	-14071.410000	-34855.965000	2573.955000	-20648.610000	4.866880	6.133825	6.615615	6.981585	7.727245	9.782594	3.934327	2.953449	-1.022420	1.632820	1.052940	-0.659178	-0.328002	0.667845	-1.000000	-1.000000	-1.000000	-1.000000	-1.000000	-1.000000	-1.000000	65.000000	0.000000	-1.000000	-1.000000	114495.000000	1775715253.063080
-50796.990000	-24648.570000	-10615.995000	892.035000	-14063.580000	-34840.755000	2574.765000	-20648.835000	6.690938	6.702729	7.848781	8.030494	8.557866	13.602100	6.488927	3.917844	-1.022420	1.632820	1.052940	-0.659178	-0.328002	0.667845	-1.000000	-1.000000	-1.000000	-1.000000	-1.000000	-1.000000	-1.000000	65.000000	0.000000	-1.000000	-1.000000	114496.000000	1775715253.063099
-50789.790000	-24640.200000	-10604.475000	903.555000	-14052.825000	-34835.490000	2586.870000	-20639.880000	6.743529	5.960412	7.495736	7.400803	7.646866	13.443843	7.335473	4.119060	-1.022420	1.632820	1.052940	-0.659178	-0.328002	0.667845	-1.000000	-1.000000	-1.000000	-1.000000	-1.000000	-1.000000	-1.000000	65.000000	0.000000	-1.000000	-1.000000	114497.000000	1775715253.069471
-50795.370000	-24644.835000	-10609.695000	898.335000	-14060.745000	-34851.735000	2578.185000	-20644.965000	4.675295	3.936615	5.511665	5.206059	5.261777	9.342643	6.020403	3.172461	-1.022420	1.632820	1.052940	-0.659178	-0.328002	0.667845	-1.000000	-1.000000	-1.000000	-1.000000	-1.000000	-1.000000	-1.000000	65.000000	0.000000	-1.000000	-1.000000	114498.000000	1775715253.069487
-50796.045000	-24646.185000	-10610.190000	898.560000	-14059.665000	-34850.250000	2578.770000	-20645.730000	0.695505	0.494712	1.644157	1.314325	1.163081	1.555850	2.552341	0.970791	-1.022420	1.632820	1.052940	-0.659178	-0.328002	0.667845	-1.000000	-1.000000	-1.000000	-1.000000	-1.000000	-1.000000	-1.000000	65.000000	0.000000	-1.000000	-1.000000	114499.000000	1775715253.089164
-50803.740000	-24657.525000	-10623.285000	885.420000	-14069.070000	-34854.390000	2571.840000	-20652.930000	-4.184676	-4.009680	-3.784207	-3.931673	-4.203835	-7.496523	-2.301966	-2.173844	-1.022420	1.632820	1.052940	-0.659178	-0.328002	0.667845	-1.000000	-1.000000	-1.000000	-1.000000	-1.000000	-1.000000	-1.000000	65.000000	0.000000	-1.000000	-1.000000	114500.000000	1775715253.089188
-50803.155000	-24656.265000	-10620.855000	888.075000	-14066.640000	-34853.085000	2573.460000	-20650.455000	-8.142730	-8.175929	-9.104886	-8.982506	-8.992255	-13.645013	-6.679737	-5.148623	-0.457800	1.403920	0.824040	-0.659361	-0.328551	0.667967	-1.000000	-1.000000	-1.000000	-1.000000	-1.000000	-1.000000	-1.000000	65.000000	0.000000	-1.000000	-1.000000	114501.000000	1775715253.089213
-50800.140000	-24652.260000	-10616.535000	892.305000	-14065.155000	-34853.490000	2574.855000	-20645.415000	-9.288998	-9.842950	-11.630327	-11.325431	-10.866036	-14.158761	-8.497384	-6.285307	-0.457800	1.403920	0.824040	-0.659361	-0.328551	0.667967	-1.000000	-1.000000	-1.000000	-1.000000	-1.000000	-1.000000	-1.000000	65.000000	0.000000	-1.000000	-1.000000	114502.000000	1775715253.089225
-50800.680000	-24653.610000	-10617.705000	891.855000	-14065.965000	-34854.885000	2574.585000	-20645.190000	-6.847783	-7.603838	-9.527365	-9.212054	-8.685128	-9.481889	-6.868005	-4.602694	-0.457800	1.403920	0.824040	-0.659361	-0.328551	0.667967	-1.000000	-1.000000	-1.000000	-1.000000	-1.000000	-1.000000	-1.000000	65.000000	0.000000	-1.000000	-1.000000	114503.000000	1775715253.089236
-50802.975000	-24654.060000	-10617.165000	892.440000	-14064.345000	-34851.105000	2573.685000	-20649.510000	-2.066664	-2.459806	-3.798951	-3.596864	-3.571494	-2.374355	-2.840477	-1.082703	-0.457800	1.403920	0.824040	-0.659361	-0.328551	0.667967	-1.000000	-1.000000	-1.000000	-1.000000	-1.000000	-1.000000	-1.000000	65.000000	0.000000	-1.000000	-1.000000	114504.000000	1775715253.089244
-50785.470000	-24633.720000	-10594.800000	914.625000	-14045.085000	-34835.490000	2586.780000	-20636.145000	2.867185	3.216528	2.862183	2.908109	2.303122	4.357891	1.639611	2.246353	-0.457800	1.403920	0.824040	-0.659361	-0.328551	0.667967	-1.000000	-1.000000	-1.000000	-1.000000	-1.000000	-1.000000	-1.000000	65.000000	0.000000	-1.000000	-1.000000	114505.000000	1775715253.094089
-50778.090000	-24626.070000	-10586.115000	922.455000	-14037.255000	-34830.765000	2594.610000	-20629.080000	6.717790	7.851396	8.501766	8.369799	7.398914	9.149420	5.328235	4.451583	-0.457800	1.403920	0.824040	-0.659361	-0.328551	0.667967	-1.000000	-1.000000	-1.000000	-1.000000	-1.000000	-1.000000	-1.000000	65.000000	0.000000	-1.000000	-1.000000	114506.000000	1775715253.094115
-50792.670000	-24642.495000	-10603.800000	905.580000	-14051.430000	-34838.055000	2590.245000	-20637.585000	8.449947	9.923721	11.199251	10.891024	9.997143	10.734360	7.330609	5.293866	-0.457800	1.403920	0.824040	-0.659361	-0.328551	0.667967	-1.000000	-1.000000	-1.000000	-1.000000	-1.000000	-1.000000	-1.000000	65.000000	0.000000	-1.000000	-1.000000	114507.000000	1775715253.094143
-50797.440000	-24647.445000	-10611.180000	897.930000	-14058.045000	-34840.530000	2586.960000	-20639.295000	6.384399	7.368564	8.531059	8.148809	7.882762	7.959978	6.400877	3.957310	-0.457800	1.403920	0.824040	-0.659361	-0.328551	0.667967	-1.000000	-1.000000	-1.000000	-1.000000	-1.000000	-1.000000	-1.000000	65.000000	0.000000	-1.000000	-1.000000	114508.000000	1775715253.094155
-50804.730000	-24655.185000	-10618.560000	890.010000	-14066.685000	-34852.500000	2579.220000	-20645.955000	0.594861	0.449699	0.770183	0.475126	1.140577	1.491517	2.229247	0.313846	-0.457800	1.403920	0.824040	-0.659361	-0.328551	0.667967	-1.000000	-1.000000	-1.000000	-1.000000	-1.000000	-1.000000	-1.000000	65.000000	0.000000	-1.000000	-1.000000	114509.000000	1775715253.097033
-50798.250000	-24650.190000	-10612.755000	895.410000	-14060.340000	-34843.995000	2582.460000	-20642.760000	-5.667491	-6.926075	-7.591819	-7.723950	-6.430616	-5.591916	-3.320175	-3.870115	-0.457800	1.403920	0.824040	-0.659361	-0.328551	0.667967	-1.000000	-1.000000	-1.000000	-1.000000	-1.000000	-1.000000	-1.000000	65.000000	0.000000	-1.000000	-1.000000	114510.000000	1775715253.097049
-50790.015000	-24641.820000	-10602.045000	907.245000	-14049.315000	-34830.405000	2597.085000	-20634.435000	-8.293098	-10.089593	-11.131525	-11.110305	-9.891169	-9.177173	-6.873556	-5.948104	-0.213640	2.075360	0.991900	-0.660155	-0.327514	0.668394	-1.000000	-1.000000	-1.000000	-1.000000	-1.000000	-1.000000	-1.000000	65.000000	0.000000	-1.000000	-1.000000	114511.000000	1775715253.118150
-50782.050000	-24632.595000	-10592.820000	916.920000	-14041.890000	-34828.020000	2605.545000	-20625.840000	-5.564487	-7.102598	-7.655772	-7.461640	-6.964792	-7.004831	-5.858005	-4.312141	-0.213640	2.075360	0.991900	-0.660155	-0.327514	0.668394	-1.000000	-1.000000	-1.000000	-1.000000	-1.000000	-1.000000	-1.000000	65.000000	0.000000	-1.000000	-1.000000	114512.000000	1775715253.118176
-50785.650000	-24635.790000	-10597.455000	911.970000	-14047.650000	-34836.030000	2598.705000	-20627.910000	0.396879	-0.198486	0.121656	0.507099	-0.034859	-1.212845	-1.196087	0.045894	-0.213640	2.075360	0.991900	-0.660155	-0.327514	0.668394	-1.000000	-1.000000	-1.000000	-1.000000	-1.000000	-1.000000	-1.000000	65.000000	0.000000	-1.000000	-1.000000	114513.000000	1775715253.118199
-50795.505000	-24646.680000	-10608.300000	901.035000	-14057.640000	-34844.715000	2587.140000	-20636.775000	5.122973	5.679240	6.510152	6.972439	5.601676	3.311871	2.904169	3.835804	-0.213640	2.075360	0.991900	-0.660155	-0.327514	0.668394	-1.000000	-1.000000	-1.000000	-1.000000	-1.000000	-1.000000	-1.000000	65.000000	0.000000	-1.000000	-1.000000	114514.000000	1775715253.118210
-50794.965000	-24647.445000	-10608.840000	900.315000	-14058.630000	-34844.715000	2584.215000	-20638.935000	5.435691	6.709235	7.397187	7.716585	6.228894	3.629809	3.011363	4.187579	-0.213640	2.075360	0.991900	-0.660155	-0.327514	0.668394	-1.000000	-1.000000	-1.000000	-1.000000	-1.000000	-1.000000	-1.000000	65.000000	0.000000	-1.000000	-1.000000	114515.000000	1775715253.118222
-50796.945000	-24649.695000	-10611.270000	898.470000	-14060.745000	-34848.540000	2578.230000	-20643.210000	2.005993	3.224142	3.405408	3.436489	2.589329	0.895903	-0.300560	1.227632	-0.213640	2.075360	0.991900	-0.660155	-0.327514	0.668394	-1.000000	-1.000000	-1.000000	-1.000000	-1.000000	-1.000000	-1.000000	65.000000	0.000000	-1.000000	-1.000000	114516.000000	1775715253.118233
-50793.435000	-24645.060000	-10604.520000	904.275000	-14055.660000	-34846.155000	2579.040000	-20641.140000	-1.894301	-1.262630	-1.496372	-1.729332	-1.637211	-1.780864	-3.715929	-2.392670	-0.213640	2.075360	0.991900	-0.660155	-0.327514	0.668394	-1.000000	-1.000000	-1.000000	-1.000000	-1.000000	-1.000000	-1.000000	65.000000	0.000000	-1.000000	-1.000000	114517.000000	1775715253.118245
-50785.515000	-24634.980000	-10592.370000	916.335000	-14044.905000	-34840.350000	2590.920000	-20630.565000	-3.412937	-3.313943	-3.557895	-3.939785	-3.168402	-2.170307	-4.209216	-3.819169	-0.213640	2.075360	0.991900	-0.660155	-0.327514	0.668394	-1.000000	-1.000000	-1.000000	-1.000000	-1.000000	-1.000000	-1.000000	65.000000	0.000000	-1.000000	-1.000000	114518.000000	1775715253.118255
-50779.440000	-24628.140000	-10585.170000	925.875000	-14034.645000	-34828.335000	2606.760000	-20621.475000	-1.783983	-1.768588	-1.632234	-1.998252	-1.069273	0.135170	-0.694804	-1.790207	-0.213640	2.075360	0.991900	-0.660155	-0.327514	0.668394	-1.000000	-1.000000	-1.000000	-1.000000	-1.000000	-1.000000	-1.000000	65.000000	0.000000	-1.000000	-1.000000	114519.000000	1775715253.118266
-50779.440000	-24627.555000	-10584.630000	926.190000	-14033.160000	-34825.320000	2609.280000	-20621.520000	1.479946	1.744039	2.263215	2.145631	2.879973	3.818544	5.182924	2.386985	-0.213640	2.075360	0.991900	-0.660155	-0.327514	0.668394	-1.000000	-1.000000	-1.000000	-1.000000	-1.000000	-1.000000	-1.000000	65.000000	0.000000	-1.000000	-1.000000	114520.000000	1775715253.118277
-50779.395000	-24627.330000	-10583.235000	926.955000	-14032.935000	-34826.130000	2606.985000	-20621.970000	3.745200	4.169608	4.679597	4.916220	5.427318	6.360295	9.455015	5.531050	-0.763000	1.800680	0.640920	-0.660704	-0.325072	0.668760	-1.000000	-1.000000	-1.000000	-1.000000	-1.000000	-1.000000	-1.000000	65.000000	0.000000	-1.000000	-1.000000	114521.000000	1775715253.118289
-50775.930000	-24625.710000	-10583.415000	925.740000	-14033.880000	-34819.650000	2603.790000	-20618.280000	3.414278	3.599892	3.667213	4.036236	4.390435	5.750749	8.667996	5.297500	-0.763000	1.800680	0.640920	-0.660704	-0.325072	0.668760	-1.000000	-1.000000	-1.000000	-1.000000	-1.000000	-1.000000	-1.000000	65.000000	0.000000	-1.000000	-1.000000	114522.000000	1775715253.118298
-50775.165000	-24626.790000	-10587.600000	920.340000	-14039.055000	-34828.965000	2596.320000	-20621.340000	1.031290	0.556002	-0.083330	0.027084	0.203231	2.087516	2.773995	2.022784	-0.763000	1.800680	0.640920	-0.660704	-0.325072	0.668760	-1.000000	-1.000000	-1.000000	-1.000000	-1.000000	-1.000000	-1.000000	65.000000	0.000000	-1.000000	-1.000000	114523.000000	1775715253.127531
-50786.370000	-24636.510000	-10596.780000	910.935000	-14052.735000	-34861.815000	2587.995000	-20631.375000	-1.933247	-3.162395	-4.518090	-4.882956	-5.011682	-3.512191	-5.111459	-2.402977	-0.763000	1.800680	0.640920	-0.660704	-0.325072	0.668760	-1.000000	-1.000000	-1.000000	-1.000000	-1.000000	-1.000000	-1.000000	65.000000	0.000000	-1.000000	-1.000000	114524.000000	1775715253.127581
-50798.205000	-24647.625000	-10608.030000	900.270000	-14063.400000	-34867.845000	2577.060000	-20642.625000	-4.681083	-6.179283	-7.820398	-8.497528	-9.125828	-9.813198	-11.163623	-6.354793	-0.763000	1.800680	0.640920	-0.660704	-0.325072	0.668760	-1.000000	-1.000000	-1.000000	-1.000000	-1.000000	-1.000000	-1.000000	65.000000	0.000000	-1.000000	-1.000000	114525.000000	1775715253.127618
-50811.300000	-24661.170000	-10622.385000	886.185000	-14075.550000	-34865.640000	2564.055000	-20654.640000	-6.861140	-7.845059	-9.019167	-9.559261	-10.627623	-13.773349	-13.022888	-8.750934	-0.763000	1.800680	0.640920	-0.660704	-0.325072	0.668760	-1.000000	-1.000000	-1.000000	-1.000000	-1.000000	-1.000000	-1.000000	65.000000	0.000000	-1.000000	-1.000000	114526.000000	1775715253.127626
-50807.115000	-24658.245000	-10619.820000	889.605000	-14070.870000	-34842.015000	2570.130000	-20649.735000	-7.449368	-7.488923	-7.649065	-7.645066	-8.574847	-11.208198	-10.234893	-8.522590	-0.763000	1.800680	0.640920	-0.660704	-0.325072	0.668760	-1.000000	-1.000000	-1.000000	-1.000000	-1.000000	-1.000000	-1.000000	65.000000	0.000000	-1.000000	-1.000000	114527.000000	1775715253.127634
-50799.240000	-24650.640000	-10611.810000	897.570000	-14063.580000	-34829.325000	2576.295000	-20640.870000	-4.840564	-4.140024	-3.262238	-2.630141	-2.753604	-1.103124	-3.459365	-4.660099	-0.763000	1.800680	0.640920	-0.660704	-0.325072	0.668760	-1.000000	-1.000000	-1.000000	-1.000000	-1.000000	-1.000000	-1.000000	65.000000	0.000000	-1.000000	-1.000000	114528.000000	1775715253.127640
-50790.645000	-24641.730000	-10601.595000	907.785000	-14052.375000	-34825.230000	2582.820000	-20634.480000	1.309224	2.236322	3.794672	4.770646	5.569196	11.827298	5.410554	2.418717	-0.763000	1.800680	0.640920	-0.660704	-0.325072	0.668760	-1.000000	-1.000000	-1.000000	-1.000000	-1.000000	-1.000000	-1.000000	65.000000	0.000000	-1.000000	-1.000000	114529.000000	1775715253.132068
-50773.815000	-24622.920000	-10583.100000	927.045000	-14033.655000	-34813.305000	2598.840000	-20619.180000	8.833248	9.643470	11.400164	12.266603	13.503401	20.087685	13.178013	10.018354	-0.763000	1.800680	0.640920	-0.660704	-0.325072	0.668760	-1.000000	-1.000000	-1.000000	-1.000000	-1.000000	-1.000000	-1.000000	65.000000	0.000000	-1.000000	-1.000000	114530.000000	1775715253.132085
-50781.195000	-24628.050000	-10588.500000	921.690000	-14039.730000	-34826.175000	2599.920000	-20621.880000	14.004444	14.712026	16.168627	16.595507	17.587469	18.993911	16.797549	14.534719	-1.556520	2.380560	0.564620	-0.660338	-0.324401	0.669859	-1.000000	-1.000000	-1.000000	-1.000000	-1.000000	-1.000000	-1.000000	65.000000	0.000000	-1.000000	-1.000000	114531.000000	1775715253.139667
-50787.900000	-24634.980000	-10594.395000	915.795000	-14044.455000	-34829.820000	2598.030000	-20628.630000	13.360961	14.111113	14.865561	14.774503	15.053218	9.074670	14.538996	13.258940	-1.556520	2.380560	0.564620	-0.660338	-0.324401	0.669859	-1.000000	-1.000000	-1.000000	-1.000000	-1.000000	-1.000000	-1.000000	65.000000	0.000000	-1.000000	-1.000000	114532.000000	1775715253.139692
-50790.915000	-24639.705000	-10599.660000	910.530000	-14050.980000	-34833.960000	2592.585000	-20631.870000	6.229322	6.893154	6.824167	6.325283	5.868182	-4.758313	6.713651	6.009044	-1.556520	2.380560	0.564620	-0.660338	-0.324401	0.669859	-1.000000	-1.000000	-1.000000	-1.000000	-1.000000	-1.000000	-1.000000	65.000000	0.000000	-1.000000	-1.000000	114533.000000	1775715253.152886
-50802.300000	-24651.855000	-10612.305000	897.345000	-14062.860000	-34846.605000	2581.785000	-20642.355000	-4.015230	-3.897667	-4.629924	-5.341395	-6.201421	-15.958641	-3.895494	-4.067309	-1.556520	2.380560	0.564620	-0.660338	-0.324401	0.669859	-1.000000	-1.000000	-1.000000	-1.000000	-1.000000	-1.000000	-1.000000	65.000000	0.000000	-1.000000	-1.000000	114534.000000	1775715253.152913
-50803.380000	-24652.665000	-10611.990000	897.660000	-14061.240000	-34842.735000	2581.740000	-20643.705000	-12.314139	-13.073512	-14.160043	-14.884099	-15.681182	-20.062111	-13.048058	-12.287776	-1.556520	2.380560	0.564620	-0.660338	-0.324401	0.669859	-1.000000	-1.000000	-1.000000	-1.000000	-1.000000	-1.000000	-1.000000	65.000000	0.000000	-1.000000	-1.000000	114535.000000	1775715253.152942
-50800.995000	-24649.605000	-10607.805000	900.720000	-14060.025000	-34842.915000	2583.360000	-20642.580000	-14.934512	-16.340274	-17.373502	-17.957978	-18.332289	-16.168738	-16.864573	-15.058007	-1.556520	2.380560	0.564620	-0.660338	-0.324401	0.669859	-1.000000	-1.000000	-1.000000	-1.000000	-1.000000	-1.000000	-1.000000	65.000000	0.000000	-1.000000	-1.000000	114536.000000	1775715253.152954
-50792.355000	-24641.190000	-10599.165000	909.585000	-14053.365000	-34838.055000	2587.545000	-20637.270000	-10.889799	-12.270185	-12.863372	-13.225231	-13.220389	-6.558355	-13.768608	-11.397603	-1.556520	2.380560	0.564620	-0.660338	-0.324401	0.669859	-1.000000	-1.000000	-1.000000	-1.000000	-1.000000	-1.000000	-1.000000	65.000000	0.000000	-1.000000	-1.000000	114537.000000	1775715253.152968
-50790.780000	-24641.910000	-10600.380000	909.720000	-14050.755000	-34833.195000	2590.515000	-20636.505000	-2.367776	-3.157879	-3.194686	-3.262990	-3.225883	4.419498	-5.573744	-3.379561	-1.556520	2.380560	0.564620	-0.660338	-0.324401	0.669859	-1.000000	-1.000000	-1.000000	-1.000000	-1.000000	-1.000000	-1.000000	65.000000	0.000000	-1.000000	-1.000000	114538.000000	1775715253.152980
-50797.080000	-24648.705000	-10607.220000	903.330000	-14055.795000	-34838.910000	2581.110000	-20642.220000	6.101963	5.971832	6.259146	6.587185	6.551930	12.282895	3.396890	4.824006	-1.556520	2.380560	0.564620	-0.660338	-0.324401	0.669859	-1.000000	-1.000000	-1.000000	-1.000000	-1.000000	-1.000000	-1.000000	65.000000	0.000000	-1.000000	-1.000000	114539.000000	1775715253.152993
-50808.015000	-24657.300000	-10616.445000	893.970000	-14065.245000	-34851.870000	2568.015000	-20652.570000	10.039940	10.351102	10.598221	11.318654	11.471017	13.989165	8.576527	9.141374	-1.556520	2.380560	0.564620	-0.660338	-0.324401	0.669859	-1.000000	-1.000000	-1.000000	-1.000000	-1.000000	-1.000000	-1.000000	65.000000	0.000000	-1.000000	-1.000000	114540.000000	1775715253.153004
-50821.380000	-24666.795000	-10627.380000	882.090000	-14078.025000	-34867.890000	2564.010000	-20659.095000	7.760421	8.483676	8.438133	9.285239	9.765914	9.083906	7.986236	7.992783	-0.961380	1.938020	0.167860	-0.659910	-0.323852	0.669859	-1.000000	-1.000000	-1.000000	-1.000000	-1.000000	-1.000000	-1.000000	65.000000	0.000000	-1.000000	-1.000000	114541.000000	1775715253.156794
