Channel1	Channel2	Channel3	Channel4	Channel5	Channel6	Channel7	Channel8	FilteredChannel1	FilteredChannel2	FilteredChannel3	FilteredChannel4	FilteredChannel5	FilteredChannel6	FilteredChannel7	FilteredChannel8	GyroX	GyroY	GyroZ	AccX	AccY	AccZ	PPG1	PPG2	rawPPG1	rawPPG2	rawPPG3	Hr	Hrv	Battery	Trigger	PhysicalTrigger	AutoTrigger	NumMeasurements	Timestamp
-57618.900000	-27810.720000	-10167.345000	997.335000	-17715.195000	-38629.620000	3319.560000	-20823.030000	-1.488717	-2.291787	-2.484384	-2.641797	-4.463045	-9.319522	-2.483723	-2.151415	-1.052940	2.105880	-0.350980	-0.796141	-0.090942	0.585875	-1.000000	-1.000000	-1.000000	-1.000000	-1.000000	-1.000000	-1.000000	65.000000	0.000000	-1.000000	-1.000000	160313.000000	1775715344.756434
-57619.440000	-27810.090000	-10167.030000	998.415000	-17712.720000	-38624.400000	3317.985000	-20823.570000	-0.917090	-1.239634	-1.034071	-1.068400	-2.551719	-4.292244	0.655613	-1.152614	-1.052940	2.105880	-0.350980	-0.796141	-0.090942	0.585875	-1.000000	-1.000000	-1.000000	-1.000000	-1.000000	-1.000000	-1.000000	65.000000	0.000000	-1.000000	-1.000000	160314.000000	1775715344.756445
-57619.485000	-27810.000000	-10166.445000	999.045000	-17712.315000	-38623.410000	3314.700000	-20823.840000	0.065886	0.495239	1.008914	1.073128	0.600626	2.759609	3.204520	0.327184	-1.052940	2.105880	-0.350980	-0.796141	-0.090942	0.585875	-1.000000	-1.000000	-1.000000	-1.000000	-1.000000	-1.000000	-1.000000	65.000000	0.000000	-1.000000	-1.000000	160315.000000	1775715344.756458
-57621.555000	-27811.755000	-10166.580000	998.055000	-17712.630000	-38624.265000	3314.385000	-20825.055000	0.965112	2.007085	2.524097	2.621276	3.214613	8.111740	3.432716	1.513446	-1.052940	2.105880	-0.350980	-0.796141	-0.090942	0.585875	-1.000000	-1.000000	-1.000000	-1.000000	-1.000000	-1.000000	-1.000000	65.000000	0.000000	-1.000000	-1.000000	160316.000000	1775715344.756469
-57621.105000	-27809.055000	-10163.655000	1000.575000	-17710.290000	-38626.830000	3311.145000	-20823.750000	1.356238	2.554315	2.862210	2.880010	4.039554	9.183254	1.535647	1.941299	-1.052940	2.105880	-0.350980	-0.796141	-0.090942	0.585875	-1.000000	-1.000000	-1.000000	-1.000000	-1.000000	-1.000000	-1.000000	65.000000	0.000000	-1.000000	-1.000000	160317.000000	1775715344.756481
-57625.380000	-27811.890000	-10167.120000	996.525000	-17715.240000	-38633.670000	3305.970000	-20826.540000	1.136531	2.085277	2.106675	1.947846	2.984603	5.894529	-1.064085	1.635618	-1.052940	2.105880	-0.350980	-0.796141	-0.090942	0.585875	-1.000000	-1.000000	-1.000000	-1.000000	-1.000000	-1.000000	-1.000000	65.000000	0.000000	-1.000000	-1.000000	160318.000000	1775715344.756492
-57620.025000	-27808.020000	-10163.880000	999.945000	-17712.000000	-38629.575000	3311.595000	-20820.915000	0.571545	1.052340	0.724190	0.417389	0.809601	0.408474	-2.874768	0.961714	-1.052940	2.105880	-0.350980	-0.796141	-0.090942	0.585875	-1.000000	-1.000000	-1.000000	-1.000000	-1.000000	-1.000000	-1.000000	65.000000	0.000000	-1.000000	-1.000000	160319.000000	1775715344.769674
-57619.440000	-27810.720000	-10168.380000	996.885000	-17713.395000	-38626.380000	3317.760000	-20817.990000	0.231071	0.013021	-0.710310	-0.970755	-1.314252	-4.074666	-2.725677	0.494847	-1.052940	2.105880	-0.350980	-0.796141	-0.090942	0.585875	-1.000000	-1.000000	-1.000000	-1.000000	-1.000000	-1.000000	-1.000000	65.000000	0.000000	-1.000000	-1.000000	160320.000000	1775715344.769701
-57623.040000	-27815.535000	-10173.645000	991.125000	-17717.805000	-38629.620000	3317.040000	-20821.320000	0.349759	-0.809393	-1.852315	-1.814895	-2.498453	-5.405527	-0.517573	0.462167	-0.839300	1.800680	-0.106820	-0.795896	-0.091247	0.585204	-1.000000	-1.000000	-1.000000	-1.000000	-1.000000	-1.000000	-1.000000	65.000000	0.000000	-1.000000	-1.000000	160321.000000	1775715344.769730
-57620.115000	-27811.710000	-10168.560000	995.940000	-17712.945000	-38622.555000	3318.030000	-20819.070000	0.476345	-1.460066	-2.516864	-2.119031	-2.588329	-3.815101	2.200298	0.371145	-0.839300	1.800680	-0.106820	-0.795896	-0.091247	0.585204	-1.000000	-1.000000	-1.000000	-1.000000	-1.000000	-1.000000	-1.000000	65.000000	0.000000	-1.000000	-1.000000	160322.000000	1775715344.769742
-57621.105000	-27810.765000	-10166.715000	999.180000	-17710.335000	-38619.180000	3317.670000	-20819.745000	0.275352	-1.617766	-2.180468	-1.619303	-1.642132	-0.840220	3.500224	-0.178997	-0.839300	1.800680	-0.106820	-0.795896	-0.091247	0.585204	-1.000000	-1.000000	-1.000000	-1.000000	-1.000000	-1.000000	-1.000000	65.000000	0.000000	-1.000000	-1.000000	160323.000000	1775715344.769756
-57626.955000	-27814.680000	-10171.170000	995.805000	-17713.665000	-38625.930000	3315.105000	-20825.190000	-0.220545	-1.005624	-0.694296	-0.188057	0.018415	1.812806	2.669529	-1.052795	-0.839300	1.800680	-0.106820	-0.795896	-0.091247	0.585204	-1.000000	-1.000000	-1.000000	-1.000000	-1.000000	-1.000000	-1.000000	65.000000	0.000000	-1.000000	-1.000000	160324.000000	1775715344.769767
-57630.825000	-27818.640000	-10174.815000	991.710000	-17718.750000	-38637.135000	3308.535000	-20830.005000	-1.041053	-0.182813	0.899089	1.252965	1.316409	2.424169	0.261271	-2.050961	-0.839300	1.800680	-0.106820	-0.795896	-0.091247	0.585204	-1.000000	-1.000000	-1.000000	-1.000000	-1.000000	-1.000000	-1.000000	65.000000	0.000000	-1.000000	-1.000000	160325.000000	1775715344.769780
-57625.515000	-27813.555000	-10169.055000	996.615000	-17714.070000	-38635.605000	3311.640000	-20824.740000	-1.840857	0.225121	1.567241	1.669649	1.383768	0.477271	-2.449858	-2.734106	-0.839300	1.800680	-0.106820	-0.795896	-0.091247	0.585204	-1.000000	-1.000000	-1.000000	-1.000000	-1.000000	-1.000000	-1.000000	65.000000	0.000000	-1.000000	-1.000000	160326.000000	1775715344.769791
-57626.460000	-27813.465000	-10168.335000	996.525000	-17715.465000	-38634.075000	3311.010000	-20824.425000	-1.725220	0.457839	1.536532	1.235954	0.657244	-2.206235	-3.901490	-2.247418	-0.839300	1.800680	-0.106820	-0.795896	-0.091247	0.585204	-1.000000	-1.000000	-1.000000	-1.000000	-1.000000	-1.000000	-1.000000	65.000000	0.000000	-1.000000	-1.000000	160327.000000	1775715344.774592
-57624.345000	-27810.945000	-10165.860000	998.910000	-17714.745000	-38625.930000	3316.860000	-20821.365000	-0.380573	0.950026	1.481923	0.742683	0.077162	-2.969234	-3.145277	-0.329033	-0.839300	1.800680	-0.106820	-0.795896	-0.091247	0.585204	-1.000000	-1.000000	-1.000000	-1.000000	-1.000000	-1.000000	-1.000000	65.000000	0.000000	-1.000000	-1.000000	160328.000000	1775715344.774620
-57628.170000	-27815.670000	-10171.755000	994.500000	-17717.580000	-38624.940000	3316.635000	-20823.570000	1.327591	1.434090	1.350816	0.426001	-0.084030	-0.896816	-0.605263	2.032998	-0.839300	1.800680	-0.106820	-0.795896	-0.091247	0.585204	-1.000000	-1.000000	-1.000000	-1.000000	-1.000000	-1.000000	-1.000000	65.000000	0.000000	-1.000000	-1.000000	160329.000000	1775715344.782133
-57629.205000	-27816.660000	-10171.845000	995.760000	-17716.230000	-38627.235000	3315.735000	-20825.055000	2.180678	1.231875	0.606023	-0.012536	-0.082927	2.381917	2.137560	3.363879	-0.839300	1.800680	-0.106820	-0.795896	-0.091247	0.585204	-1.000000	-1.000000	-1.000000	-1.000000	-1.000000	-1.000000	-1.000000	65.000000	0.000000	-1.000000	-1.000000	160330.000000	1775715344.782158
-57627.495000	-27814.725000	-10169.550000	997.785000	-17713.305000	-38623.005000	3314.205000	-20827.395000	1.744428	0.233810	-0.681682	-0.599740	-0.018866	4.346312	3.408037	2.874713	-0.885080	1.464960	0.152600	-0.796324	-0.091003	0.585020	-1.000000	-1.000000	-1.000000	-1.000000	-1.000000	-1.000000	-1.000000	65.000000	0.000000	-1.000000	-1.000000	160331.000000	1775715344.782188
-57628.485000	-27816.075000	-10171.080000	995.535000	-17714.925000	-38622.420000	3308.445000	-20829.825000	0.633034	-0.831287	-1.656136	-0.943806	0.214009	3.916861	2.561251	0.971832	-0.885080	1.464960	0.152600	-0.796324	-0.091003	0.585020	-1.000000	-1.000000	-1.000000	-1.000000	-1.000000	-1.000000	-1.000000	65.000000	0.000000	-1.000000	-1.000000	160332.000000	1775715344.782198
-57622.590000	-27811.170000	-10167.705000	998.505000	-17713.215000	-38620.755000	3316.230000	-20820.780000	-0.230860	-1.195225	-1.681211	-0.849366	0.482747	1.809631	0.394842	-0.997899	-0.885080	1.464960	0.152600	-0.796324	-0.091003	0.585020	-1.000000	-1.000000	-1.000000	-1.000000	-1.000000	-1.000000	-1.000000	65.000000	0.000000	-1.000000	-1.000000	160333.000000	1775715344.787370
-57625.740000	-27816.435000	-10174.680000	991.035000	-17720.865000	-38628.990000	3310.065000	-20823.885000	-0.387291	-0.756108	-0.965177	-0.551850	0.382780	-0.826526	-1.462568	-1.662956	-0.885080	1.464960	0.152600	-0.796324	-0.091003	0.585020	-1.000000	-1.000000	-1.000000	-1.000000	-1.000000	-1.000000	-1.000000	65.000000	0.000000	-1.000000	-1.000000	160334.000000	1775715344.787394
-57623.265000	-27813.285000	-10170.720000	994.635000	-17717.535000	-38627.820000	3309.885000	-20822.670000	-0.119114	-0.076682	-0.215554	-0.419081	-0.298975	-3.200781	-2.077701	-0.927153	-0.885080	1.464960	0.152600	-0.796324	-0.091003	0.585020	-1.000000	-1.000000	-1.000000	-1.000000	-1.000000	-1.000000	-1.000000	65.000000	0.000000	-1.000000	-1.000000	160335.000000	1775715344.794624
-57630.240000	-27817.380000	-10173.645000	991.980000	-17719.875000	-38632.545000	3304.710000	-20828.520000	-0.100144	0.248863	0.177200	-0.444922	-1.122078	-4.607013	-1.780490	0.017741	-0.885080	1.464960	0.152600	-0.796324	-0.091003	0.585020	-1.000000	-1.000000	-1.000000	-1.000000	-1.000000	-1.000000	-1.000000	65.000000	0.000000	-1.000000	-1.000000	160336.000000	1775715344.794652
-57625.695000	-27812.070000	-10167.750000	996.705000	-17715.510000	-38632.995000	3311.055000	-20823.480000	-0.637997	0.168752	0.416977	-0.232298	-1.300740	-4.470493	-1.082312	0.208901	-0.885080	1.464960	0.152600	-0.796324	-0.091003	0.585020	-1.000000	-1.000000	-1.000000	-1.000000	-1.000000	-1.000000	-1.000000	65.000000	0.000000	-1.000000	-1.000000	160337.000000	1775715344.794679
-57617.415000	-27803.655000	-10159.020000	1005.300000	-17707.140000	-38623.770000	3320.325000	-20814.705000	-1.091544	0.234996	0.973014	0.596006	-0.373019	-2.637835	0.167960	0.022000	-0.885080	1.464960	0.152600	-0.796324	-0.091003	0.585020	-1.000000	-1.000000	-1.000000	-1.000000	-1.000000	-1.000000	-1.000000	65.000000	0.000000	-1.000000	-1.000000	160338.000000	1775715344.794690
-57621.465000	-27806.850000	-10160.730000	1004.850000	-17708.445000	-38620.710000	3317.130000	-20817.990000	-0.599547	0.885056	1.958610	1.966502	1.392157	0.601034	2.037691	0.345486	-0.885080	1.464960	0.152600	-0.796324	-0.091003	0.585020	-1.000000	-1.000000	-1.000000	-1.000000	-1.000000	-1.000000	-1.000000	65.000000	0.000000	-1.000000	-1.000000	160339.000000	1775715344.799135
-57626.100000	-27813.240000	-10168.065000	997.245000	-17715.780000	-38630.745000	3311.055000	-20823.030000	0.347668	1.363033	2.383567	2.784647	2.639974	3.848924	3.300738	0.840152	-0.885080	1.464960	0.152600	-0.796324	-0.091003	0.585020	-1.000000	-1.000000	-1.000000	-1.000000	-1.000000	-1.000000	-1.000000	65.000000	0.000000	-1.000000	-1.000000	160340.000000	1775715344.799161
-57619.665000	-27809.010000	-10164.420000	1000.800000	-17712.765000	-38640.195000	3313.080000	-20818.710000	0.587579	0.585000	1.112179	1.794199	1.970147	4.746441	2.507996	0.475895	-0.930860	1.876980	0.091560	-0.796263	-0.091003	0.585997	-1.000000	-1.000000	-1.000000	-1.000000	-1.000000	-1.000000	-1.000000	65.000000	0.000000	-1.000000	-1.000000	160341.000000	1775715344.801116
-57618.945000	-27806.265000	-10160.190000	1005.165000	-17708.805000	-38645.100000	3310.290000	-20819.700000	0.173644	-0.977555	-1.204622	-0.503196	-0.152798	2.298281	0.020138	-0.615939	-0.930860	1.876980	0.091560	-0.796263	-0.091003	0.585997	-1.000000	-1.000000	-1.000000	-1.000000	-1.000000	-1.000000	-1.000000	65.000000	0.000000	-1.000000	-1.000000	160342.000000	1775715344.801140
-57621.465000	-27807.705000	-10161.045000	1005.165000	-17707.680000	-38635.920000	3311.685000	-20822.580000	-0.160694	-1.907176	-2.730819	-2.266283	-1.863027	-1.472753	-2.411649	-1.511988	-0.930860	1.876980	0.091560	-0.796263	-0.091003	0.585997	-1.000000	-1.000000	-1.000000	-1.000000	-1.000000	-1.000000	-1.000000	65.000000	0.000000	-1.000000	-1.000000	160343.000000	1775715344.805950
-57630.465000	-27816.615000	-10168.830000	998.550000	-17711.595000	-38627.235000	3318.300000	-20827.305000	-0.484260	-1.869867	-2.801007	-2.642351	-2.175960	-3.098194	-3.252763	-1.869866	-0.930860	1.876980	0.091560	-0.796263	-0.091003	0.585997	-1.000000	-1.000000	-1.000000	-1.000000	-1.000000	-1.000000	-1.000000	65.000000	0.000000	-1.000000	-1.000000	160344.000000	1775715344.805972
-57633.075000	-27820.890000	-10173.465000	993.690000	-17715.240000	-38618.100000	3320.460000	-20827.170000	-1.287394	-1.709665	-2.313077	-2.361173	-1.694941	-0.960704	-2.010560	-1.824890	-0.930860	1.876980	0.091560	-0.796263	-0.091003	0.585997	-1.000000	-1.000000	-1.000000	-1.000000	-1.000000	-1.000000	-1.000000	65.000000	0.000000	-1.000000	-1.000000	160345.000000	1775715344.810044
-57631.500000	-27821.250000	-10175.040000	991.125000	-17719.155000	-38618.685000	3314.700000	-20825.505000	-2.184262	-1.814964	-2.013329	-2.202748	-1.363887	3.157663	0.287741	-1.270424	-0.930860	1.876980	0.091560	-0.796263	-0.091003	0.585997	-1.000000	-1.000000	-1.000000	-1.000000	-1.000000	-1.000000	-1.000000	65.000000	0.000000	-1.000000	-1.000000	160346.000000	1775715344.810070
-57627.630000	-27814.680000	-10169.010000	997.380000	-17712.495000	-38615.220000	3318.120000	-20821.500000	-1.964200	-1.383202	-1.437327	-1.825390	-1.209695	5.793959	1.788304	0.049532	-0.930860	1.876980	0.091560	-0.796263	-0.091003	0.585997	-1.000000	-1.000000	-1.000000	-1.000000	-1.000000	-1.000000	-1.000000	65.000000	0.000000	-1.000000	-1.000000	160347.000000	1775715344.817631
-57627.540000	-27814.005000	-10168.380000	998.100000	-17712.855000	-38622.780000	3315.285000	-20823.165000	-0.088329	0.403077	0.216921	-0.383048	-0.473518	4.737726	1.638212	1.853978	-0.930860	1.876980	0.091560	-0.796263	-0.091003	0.585997	-1.000000	-1.000000	-1.000000	-1.000000	-1.000000	-1.000000	-1.000000	65.000000	0.000000	-1.000000	-1.000000	160348.000000	1775715344.817658
-57623.220000	-27809.595000	-10163.340000	1003.230000	-17708.895000	-38620.530000	3317.895000	-20821.050000	2.518998	3.020197	2.706451	2.059671	1.101718	0.436252	0.452882	3.188009	-0.930860	1.876980	0.091560	-0.796263	-0.091003	0.585997	-1.000000	-1.000000	-1.000000	-1.000000	-1.000000	-1.000000	-1.000000	65.000000	0.000000	-1.000000	-1.000000	160349.000000	1775715344.817683
-57625.425000	-27810.585000	-10163.925000	1002.870000	-17709.480000	-38621.250000	3314.880000	-20823.750000	4.298741	4.907216	4.729393	4.282936	2.726094	-4.535979	-0.733065	3.203014	-0.930860	1.876980	0.091560	-0.796263	-0.091003	0.585997	-1.000000	-1.000000	-1.000000	-1.000000	-1.000000	-1.000000	-1.000000	65.000000	0.000000	-1.000000	-1.000000	160350.000000	1775715344.817694
-57619.845000	-27804.240000	-10156.770000	1009.530000	-17702.820000	-38614.590000	3320.010000	-20818.395000	4.273378	4.896952	5.118519	5.022336	3.445015	-7.234780	-1.235979	1.926221	-1.342880	1.861720	0.320460	-0.796507	-0.090637	0.585204	-1.000000	-1.000000	-1.000000	-1.000000	-1.000000	-1.000000	-1.000000	65.000000	0.000000	-1.000000	-1.000000	160351.000000	1775715344.825194
-57616.290000	-27802.845000	-10156.050000	1008.270000	-17704.665000	-38619.450000	3319.920000	-20816.055000	2.698413	3.107345	3.749144	3.930412	2.946951	-6.404090	-0.845194	0.266072	-1.342880	1.861720	0.320460	-0.796507	-0.090637	0.585204	-1.000000	-1.000000	-1.000000	-1.000000	-1.000000	-1.000000	-1.000000	65.000000	0.000000	-1.000000	-1.000000	160352.000000	1775715344.825215
-57616.920000	-27802.665000	-10155.870000	1009.350000	-17704.440000	-38624.175000	3318.210000	-20818.170000	0.573124	0.484894	1.272412	1.493134	1.413850	-3.293361	0.071437	-0.900579	-1.342880	1.861720	0.320460	-0.796507	-0.090637	0.585204	-1.000000	-1.000000	-1.000000	-1.000000	-1.000000	-1.000000	-1.000000	65.000000	0.000000	-1.000000	-1.000000	160353.000000	1775715344.831706
-57621.555000	-27808.110000	-10160.730000	1005.795000	-17708.850000	-38633.040000	3312.045000	-20822.940000	-1.491587	-2.178110	-1.613787	-1.464613	-0.776483	-0.364701	0.615726	-1.610569	-1.342880	1.861720	0.320460	-0.796507	-0.090637	0.585204	-1.000000	-1.000000	-1.000000	-1.000000	-1.000000	-1.000000	-1.000000	65.000000	0.000000	-1.000000	-1.000000	160354.000000	1775715344.831730
-57616.380000	-27803.250000	-10156.995000	1009.665000	-17705.520000	-38630.295000	3316.365000	-20816.595000	-3.237513	-4.292505	-4.158809	-3.929581	-2.895024	0.997802	0.258777	-2.178607	-1.342880	1.861720	0.320460	-0.796507	-0.090637	0.585204	-1.000000	-1.000000	-1.000000	-1.000000	-1.000000	-1.000000	-1.000000	65.000000	0.000000	-1.000000	-1.000000	160355.000000	1775715344.831754
-57620.790000	-27805.095000	-10158.750000	1007.910000	-17706.510000	-38628.495000	3316.635000	-20818.620000	-4.117083	-5.084983	-5.379405	-4.922932	-3.935760	1.421187	-0.399424	-2.267226	-1.342880	1.861720	0.320460	-0.796507	-0.090637	0.585204	-1.000000	-1.000000	-1.000000	-1.000000	-1.000000	-1.000000	-1.000000	65.000000	0.000000	-1.000000	-1.000000	160356.000000	1775715344.831760
-57625.200000	-27806.220000	-10158.165000	1009.170000	-17704.395000	-38620.980000	3311.685000	-20824.470000	-3.850605	-4.185791	-4.720536	-4.131340	-3.339928	2.271308	-0.553940	-1.661523	-1.342880	1.861720	0.320460	-0.796507	-0.090637	0.585204	-1.000000	-1.000000	-1.000000	-1.000000	-1.000000	-1.000000	-1.000000	65.000000	0.000000	-1.000000	-1.000000	160357.000000	1775715344.834157
-57619.440000	-27799.560000	-10149.840000	1017.360000	-17695.665000	-38607.435000	3316.320000	-20821.545000	-2.726441	-2.057093	-2.465563	-1.989508	-1.338485	4.103735	-0.212727	-0.866426	-1.342880	1.861720	0.320460	-0.796507	-0.090637	0.585204	-1.000000	-1.000000	-1.000000	-1.000000	-1.000000	-1.000000	-1.000000	65.000000	0.000000	-1.000000	-1.000000	160358.000000	1775715344.834181
-57619.845000	-27802.215000	-10152.135000	1015.920000	-17696.655000	-38606.760000	3318.120000	-20821.140000	-0.911481	0.515406	0.569800	0.736586	1.292696	6.163071	0.390408	-0.144527	-1.342880	1.861720	0.320460	-0.796507	-0.090637	0.585204	-1.000000	-1.000000	-1.000000	-1.000000	-1.000000	-1.000000	-1.000000	65.000000	0.000000	-1.000000	-1.000000	160359.000000	1775715344.839283
-57623.265000	-27811.305000	-10164.015000	1002.015000	-17711.595000	-38620.890000	3317.850000	-20820.870000	1.214882	2.391639	2.848943	2.636005	2.988320	6.358719	1.126479	0.685159	-1.342880	1.861720	0.320460	-0.796507	-0.090637	0.585204	-1.000000	-1.000000	-1.000000	-1.000000	-1.000000	-1.000000	-1.000000	65.000000	0.000000	-1.000000	-1.000000	160360.000000	1775715344.839302
-57622.365000	-27812.340000	-10168.065000	996.795000	-17718.885000	-38625.615000	3321.585000	-20816.865000	2.686513	2.440378	2.736431	2.132286	2.029345	2.803874	1.622297	1.573993	-1.770160	2.212700	-0.122080	-0.797178	-0.089844	0.585082	-1.000000	-1.000000	-1.000000	-1.000000	-1.000000	-1.000000	-1.000000	65.000000	0.000000	-1.000000	-1.000000	160361.000000	1775715344.846713
-57622.680000	-27810.495000	-10165.365000	999.270000	-17716.995000	-38629.170000	3321.360000	-20817.270000	2.923193	0.998674	0.544006	-0.389337	-1.157678	-3.470485	1.552411	2.225048	-1.770160	2.212700	-0.122080	-0.797178	-0.089844	0.585082	-1.000000	-1.000000	-1.000000	-1.000000	-1.000000	-1.000000	-1.000000	65.000000	0.000000	-1.000000	-1.000000	160362.000000	1775715344.846740
-57622.770000	-27807.930000	-10162.215000	1003.950000	-17712.405000	-38628.945000	3321.495000	-20818.170000	2.209754	-0.226956	-1.360085	-2.326004	-3.640360	-8.700939	0.880714	2.244947	-1.770160	2.212700	-0.122080	-0.797178	-0.089844	0.585082	-1.000000	-1.000000	-1.000000	-1.000000	-1.000000	-1.000000	-1.000000	65.000000	0.000000	-1.000000	-1.000000	160363.000000	1775715344.848482
-57623.490000	-27807.840000	-10160.865000	1007.235000	-17708.940000	-38625.840000	3318.750000	-20819.475000	1.126135	-0.078188	-1.116524	-1.588213	-2.928775	-9.621814	-0.269513	1.355437	-1.770160	2.212700	-0.122080	-0.797178	-0.089844	0.585082	-1.000000	-1.000000	-1.000000	-1.000000	-1.000000	-1.000000	-1.000000	65.000000	0.000000	-1.000000	-1.000000	160364.000000	1775715344.848507
-57623.940000	-27808.065000	-10159.515000	1008.945000	-17707.095000	-38623.410000	3317.355000	-20819.700000	0.109534	1.038476	0.916131	1.352233	0.600716	-5.806432	-1.593803	-0.183935	-1.770160	2.212700	-0.122080	-0.797178	-0.089844	0.585082	-1.000000	-1.000000	-1.000000	-1.000000	-1.000000	-1.000000	-1.000000	65.000000	0.000000	-1.000000	-1.000000	160365.000000	1775715344.849685
-57630.420000	-27815.535000	-10167.345000	1000.755000	-17713.845000	-38622.915000	3315.330000	-20825.505000	-0.707149	1.798211	2.832413	4.065991	4.244229	0.407288	-2.593290	-1.716157	-1.770160	2.212700	-0.122080	-0.797178	-0.089844	0.585082	-1.000000	-1.000000	-1.000000	-1.000000	-1.000000	-1.000000	-1.000000	65.000000	0.000000	-1.000000	-1.000000	160366.000000	1775715344.849705
-57626.595000	-27812.925000	-10165.095000	1003.410000	-17711.190000	-38616.570000	3316.770000	-20822.490000	-1.330517	1.277542	2.958940	4.350710	5.381064	5.763541	-2.744717	-2.644790	-1.770160	2.212700	-0.122080	-0.797178	-0.089844	0.585082	-1.000000	-1.000000	-1.000000	-1.000000	-1.000000	-1.000000	-1.000000	65.000000	0.000000	-1.000000	-1.000000	160367.000000	1775715344.853789
-57629.745000	-27817.290000	-10168.965000	1000.620000	-17712.360000	-38618.775000	3314.475000	-20824.695000	-1.508216	-0.163240	1.274749	2.137194	3.599164	8.102678	-1.845355	-2.532568	-1.770160	2.212700	-0.122080	-0.797178	-0.089844	0.585082	-1.000000	-1.000000	-1.000000	-1.000000	-1.000000	-1.000000	-1.000000	65.000000	0.000000	-1.000000	-1.000000	160368.000000	1775715344.853807
-57628.215000	-27814.995000	-10167.390000	1001.520000	-17711.595000	-38623.320000	3315.510000	-20823.165000	-1.003888	-1.403974	-0.874304	-0.834630	0.510042	6.858220	-0.270225	-1.339684	-1.770160	2.212700	-0.122080	-0.797178	-0.089844	0.585082	-1.000000	-1.000000	-1.000000	-1.000000	-1.000000	-1.000000	-1.000000	65.000000	0.000000	-1.000000	-1.000000	160369.000000	1775715344.872319
-57634.245000	-27820.440000	-10171.170000	997.335000	-17716.770000	-38633.085000	3307.365000	-20830.590000	-0.132133	-1.727187	-2.199117	-2.877911	-2.133009	2.679981	1.148876	0.253162	-1.770160	2.212700	-0.122080	-0.797178	-0.089844	0.585082	-1.000000	-1.000000	-1.000000	-1.000000	-1.000000	-1.000000	-1.000000	65.000000	0.000000	-1.000000	-1.000000	160370.000000	1775715344.872346
-57633.570000	-27820.395000	-10171.170000	996.660000	-17719.290000	-38636.325000	3305.700000	-20830.995000	0.485797	-1.242071	-2.291843	-3.397894	-3.575684	-2.662255	1.604413	1.246999	-1.434440	2.777320	0.167860	-0.797605	-0.089966	0.586302	-1.000000	-1.000000	-1.000000	-1.000000	-1.000000	-1.000000	-1.000000	65.000000	0.000000	-1.000000	-1.000000	160371.000000	1775715344.873595
-57627.990000	-27814.185000	-10165.905000	1000.935000	-17718.210000	-38637.045000	3309.525000	-20826.945000	0.734970	-0.297083	-1.357501	-2.553989	-3.738455	-6.618386	1.149676	1.376591	-1.434440	2.777320	0.167860	-0.797605	-0.089966	0.586302	-1.000000	-1.000000	-1.000000	-1.000000	-1.000000	-1.000000	-1.000000	65.000000	0.000000	-1.000000	-1.000000	160372.000000	1775715344.873613
-57627.855000	-27813.015000	-10165.185000	1001.745000	-17716.590000	-38631.645000	3310.110000	-20826.945000	1.092158	1.017186	0.256480	-0.717408	-2.627809	-7.060926	0.773390	1.315328	-1.434440	2.777320	0.167860	-0.797605	-0.089966	0.586302	-1.000000	-1.000000	-1.000000	-1.000000	-1.000000	-1.000000	-1.000000	65.000000	0.000000	-1.000000	-1.000000	160373.000000	1775715344.873636
-57634.065000	-27819.765000	-10171.350000	997.020000	-17717.895000	-38627.640000	3304.980000	-20832.075000	1.500259	2.179786	1.748313	1.280764	-0.569012	-3.678839	0.990561	1.407243	-1.434440	2.777320	0.167860	-0.797605	-0.089966	0.586302	-1.000000	-1.000000	-1.000000	-1.000000	-1.000000	-1.000000	-1.000000	65.000000	0.000000	-1.000000	-1.000000	160374.000000	1775715344.873647
-57634.470000	-27820.215000	-10170.945000	998.055000	-17716.365000	-38621.925000	3304.845000	-20831.580000	1.167845	2.123974	2.011245	2.272864	1.535600	1.704572	1.194145	1.173325	-1.434440	2.777320	0.167860	-0.797605	-0.089966	0.586302	-1.000000	-1.000000	-1.000000	-1.000000	-1.000000	-1.000000	-1.000000	65.000000	0.000000	-1.000000	-1.000000	160375.000000	1775715344.873661
-57634.920000	-27821.115000	-10171.890000	998.010000	-17714.520000	-38619.720000	3307.050000	-20830.950000	-0.068954	0.642033	0.881400	1.874306	2.813205	6.248802	0.870405	0.410513	-1.434440	2.777320	0.167860	-0.797605	-0.089966	0.586302	-1.000000	-1.000000	-1.000000	-1.000000	-1.000000	-1.000000	-1.000000	65.000000	0.000000	-1.000000	-1.000000	160376.000000	1775715344.873672
-57631.905000	-27818.595000	-10168.605000	1002.105000	-17710.110000	-38618.415000	3312.720000	-20827.530000	-1.279228	-1.127038	-0.577291	0.829392	3.043524	7.737562	0.432189	-0.310541	-1.434440	2.777320	0.167860	-0.797605	-0.089966	0.586302	-1.000000	-1.000000	-1.000000	-1.000000	-1.000000	-1.000000	-1.000000	65.000000	0.000000	-1.000000	-1.000000	160377.000000	1775715344.892404
-57633.570000	-27820.620000	-10170.765000	998.595000	-17715.375000	-38624.130000	3310.065000	-20828.970000	-1.537545	-1.943552	-1.263234	0.019540	2.389194	5.562073	0.400312	-0.453699	-1.434440	2.777320	0.167860	-0.797605	-0.089966	0.586302	-1.000000	-1.000000	-1.000000	-1.000000	-1.000000	-1.000000	-1.000000	65.000000	0.000000	-1.000000	-1.000000	160378.000000	1775715344.892430
-57633.120000	-27821.745000	-10172.430000	996.300000	-17718.030000	-38627.505000	3306.285000	-20829.555000	-0.863593	-1.598743	-1.048535	-0.446116	0.871710	0.764248	0.409432	-0.202787	-1.434440	2.777320	0.167860	-0.797605	-0.089966	0.586302	-1.000000	-1.000000	-1.000000	-1.000000	-1.000000	-1.000000	-1.000000	65.000000	0.000000	-1.000000	-1.000000	160379.000000	1775715344.892457
-57631.230000	-27822.735000	-10173.645000	995.220000	-17718.435000	-38628.855000	3306.960000	-20827.890000	0.088528	-0.735176	-0.551196	-0.915385	-1.242716	-4.407698	-0.234309	-0.071942	-1.434440	2.777320	0.167860	-0.797605	-0.089966	0.586302	-1.000000	-1.000000	-1.000000	-1.000000	-1.000000	-1.000000	-1.000000	65.000000	0.000000	-1.000000	-1.000000	160380.000000	1775715344.892469
-57640.410000	-27831.915000	-10178.370000	992.115000	-17719.245000	-38627.820000	3304.710000	-20834.865000	0.634287	-0.135772	-0.312581	-1.406065	-2.985721	-7.454316	-1.384199	-0.320629	-1.678600	1.983800	0.122080	-0.796629	-0.090637	0.586119	-1.000000	-1.000000	-1.000000	-1.000000	-1.000000	-1.000000	-1.000000	65.000000	0.000000	-1.000000	-1.000000	160381.000000	1775715344.892483
-57636.315000	-27826.065000	-10171.980000	999.180000	-17711.730000	-38619.495000	3313.350000	-20830.860000	0.348844	-0.145536	-0.316554	-1.475951	-3.256552	-6.890254	-2.080379	-0.893120	-1.678600	1.983800	0.122080	-0.796629	-0.090637	0.586119	-1.000000	-1.000000	-1.000000	-1.000000	-1.000000	-1.000000	-1.000000	65.000000	0.000000	-1.000000	-1.000000	160382.000000	1775715344.892493
-57622.815000	-27812.565000	-10163.745000	1003.365000	-17711.145000	-38625.210000	3315.240000	-20822.535000	-0.133728	0.026275	0.116297	-0.563634	-1.696022	-3.188963	-1.458678	-1.151387	-1.678600	1.983800	0.122080	-0.796629	-0.090637	0.586119	-1.000000	-1.000000	-1.000000	-1.000000	-1.000000	-1.000000	-1.000000	65.000000	0.000000	-1.000000	-1.000000	160383.000000	1775715344.897020
-57621.240000	-27808.515000	-10162.755000	1003.005000	-17712.630000	-38631.105000	3314.160000	-20822.130000	0.484060	1.526499	1.457253	1.199994	0.753931	1.143844	0.223617	-0.311198	-1.678600	1.983800	0.122080	-0.796629	-0.090637	0.586119	-1.000000	-1.000000	-1.000000	-1.000000	-1.000000	-1.000000	-1.000000	65.000000	0.000000	-1.000000	-1.000000	160384.000000	1775715344.897066
-57627.765000	-27814.320000	-10166.400000	1000.935000	-17714.655000	-38637.855000	3312.765000	-20826.855000	1.881676	3.618922	2.780275	2.574201	2.360811	3.325220	1.565448	1.114120	-1.678600	1.983800	0.122080	-0.796629	-0.090637	0.586119	-1.000000	-1.000000	-1.000000	-1.000000	-1.000000	-1.000000	-1.000000	65.000000	0.000000	-1.000000	-1.000000	160385.000000	1775715344.897259
-57623.940000	-27811.755000	-10163.070000	1004.895000	-17711.055000	-38635.245000	3316.905000	-20822.445000	2.179297	4.011973	2.600510	2.425408	2.216486	2.723316	1.557612	1.683876	-1.678600	1.983800	0.122080	-0.796629	-0.090637	0.586119	-1.000000	-1.000000	-1.000000	-1.000000	-1.000000	-1.000000	-1.000000	65.000000	0.000000	-1.000000	-1.000000	160386.000000	1775715344.897296
-57627.675000	-27816.030000	-10166.580000	1000.710000	-17714.160000	-38630.205000	3316.815000	-20823.795000	0.611505	1.727937	0.714549	0.902941	0.887773	1.135503	0.560157	0.945614	-1.678600	1.983800	0.122080	-0.796629	-0.090637	0.586119	-1.000000	-1.000000	-1.000000	-1.000000	-1.000000	-1.000000	-1.000000	65.000000	0.000000	-1.000000	-1.000000	160387.000000	1775715344.897383
-57630.510000	-27818.280000	-10169.055000	998.865000	-17716.230000	-38624.985000	3316.635000	-20824.470000	-1.832958	-1.991093	-1.818988	-1.102107	-0.629092	0.701891	-0.528928	-0.384483	-1.678600	1.983800	0.122080	-0.796629	-0.090637	0.586119	-1.000000	-1.000000	-1.000000	-1.000000	-1.000000	-1.000000	-1.000000	65.000000	0.000000	-1.000000	-1.000000	160388.000000	1775715344.897398
-57630.465000	-27816.795000	-10167.300000	1000.845000	-17713.980000	-38625.615000	3318.300000	-20822.805000	-3.750875	-5.048988	-3.726901	-2.685432	-1.678035	1.784258	-1.199538	-1.482224	-1.678600	1.983800	0.122080	-0.796629	-0.090637	0.586119	-1.000000	-1.000000	-1.000000	-1.000000	-1.000000	-1.000000	-1.000000	65.000000	0.000000	-1.000000	-1.000000	160389.000000	1775715344.904517
-57627.090000	-27814.365000	-10164.465000	1003.590000	-17711.370000	-38626.515000	3320.550000	-20820.690000	-4.048778	-5.769647	-3.993412	-3.011068	-1.770729	2.904174	-1.271856	-1.783350	-1.678600	1.983800	0.122080	-0.796629	-0.090637	0.586119	-1.000000	-1.000000	-1.000000	-1.000000	-1.000000	-1.000000	-1.000000	65.000000	0.000000	-1.000000	-1.000000	160390.000000	1775715344.904543
-57632.085000	-27818.955000	-10168.470000	999.900000	-17713.305000	-38627.730000	3315.915000	-20828.970000	-2.497931	-3.909445	-2.469861	-1.886160	-0.838308	2.513309	-0.865208	-1.308561	-1.113980	1.907500	-0.244160	-0.796018	-0.091491	0.587462	-1.000000	-1.000000	-1.000000	-1.000000	-1.000000	-1.000000	-1.000000	65.000000	0.000000	-1.000000	-1.000000	160391.000000	1775715344.904565
-57627.405000	-27813.285000	-10161.315000	1006.785000	-17707.860000	-38625.120000	3312.585000	-20828.880000	-0.030250	-0.759796	-0.092709	-0.061353	0.507679	0.539465	-0.535837	-0.774409	-1.113980	1.907500	-0.244160	-0.796018	-0.091491	0.587462	-1.000000	-1.000000	-1.000000	-1.000000	-1.000000	-1.000000	-1.000000	65.000000	0.000000	-1.000000	-1.000000	160392.000000	1775715344.904572
-57623.265000	-27807.705000	-10156.050000	1011.870000	-17705.520000	-38627.235000	3309.030000	-20827.215000	2.236942	2.252479	2.155274	1.692489	1.613680	-1.789300	-0.727419	-0.547454	-1.113980	1.907500	-0.244160	-0.796018	-0.091491	0.587462	-1.000000	-1.000000	-1.000000	-1.000000	-1.000000	-1.000000	-1.000000	65.000000	0.000000	-1.000000	-1.000000	160393.000000	1775715344.911174
-57626.190000	-27811.080000	-10159.020000	1010.970000	-17705.295000	-38624.490000	3313.845000	-20825.640000	3.654150	4.269013	3.646094	2.928321	2.118385	-3.215089	-1.059561	-0.137063	-1.113980	1.907500	-0.244160	-0.796018	-0.091491	0.587462	-1.000000	-1.000000	-1.000000	-1.000000	-1.000000	-1.000000	-1.000000	65.000000	0.000000	-1.000000	-1.000000	160394.000000	1775715344.911201
-57628.170000	-27816.615000	-10166.220000	1004.355000	-17710.245000	-38625.930000	3314.565000	-20824.920000	3.646667	4.440891	3.518314	2.914259	1.650839	-3.242374	-0.638105	0.808482	-1.113980	1.907500	-0.244160	-0.796018	-0.091491	0.587462	-1.000000	-1.000000	-1.000000	-1.000000	-1.000000	-1.000000	-1.000000	65.000000	0.000000	-1.000000	-1.000000	160395.000000	1775715344.911227
-57621.510000	-27811.215000	-10161.000000	1008.315000	-17706.195000	-38622.645000	3318.795000	-20819.745000	2.176784	2.519659	1.438464	1.208094	0.165919	-2.123478	0.830987	1.954796	-1.113980	1.907500	-0.244160	-0.796018	-0.091491	0.587462	-1.000000	-1.000000	-1.000000	-1.000000	-1.000000	-1.000000	-1.000000	65.000000	0.000000	-1.000000	-1.000000	160396.000000	1775715344.911239
-57619.485000	-27808.785000	-10159.155000	1008.945000	-17706.240000	-38624.895000	3318.075000	-20819.970000	0.327744	-0.143064	-1.234514	-1.209576	-1.496150	-0.539249	2.575077	2.722624	-1.113980	1.907500	-0.244160	-0.796018	-0.091491	0.587462	-1.000000	-1.000000	-1.000000	-1.000000	-1.000000	-1.000000	-1.000000	65.000000	0.000000	-1.000000	-1.000000	160397.000000	1775715344.920905
-57622.545000	-27812.835000	-10163.385000	1004.040000	-17710.380000	-38627.280000	3313.755000	-20823.345000	-0.867275	-1.849104	-2.712263	-2.802412	-2.358421	0.690822	3.321080	2.528919	-1.113980	1.907500	-0.244160	-0.796018	-0.091491	0.587462	-1.000000	-1.000000	-1.000000	-1.000000	-1.000000	-1.000000	-1.000000	65.000000	0.000000	-1.000000	-1.000000	160398.000000	1775715344.920930
-57626.145000	-27812.835000	-10160.325000	1008.630000	-17706.375000	-38618.325000	3318.075000	-20823.975000	-1.537374	-2.269007	-2.595595	-2.980374	-2.228348	1.185956	2.378361	1.067282	-1.113980	1.907500	-0.244160	-0.796018	-0.091491	0.587462	-1.000000	-1.000000	-1.000000	-1.000000	-1.000000	-1.000000	-1.000000	65.000000	0.000000	-1.000000	-1.000000	160399.000000	1775715344.920959
-57635.190000	-27820.440000	-10166.625000	1003.500000	-17711.820000	-38621.115000	3313.440000	-20831.490000	-2.332174	-2.088140	-1.588378	-2.008951	-1.408893	1.336846	0.338740	-1.232948	-1.113980	1.907500	-0.244160	-0.796018	-0.091491	0.587462	-1.000000	-1.000000	-1.000000	-1.000000	-1.000000	-1.000000	-1.000000	65.000000	0.000000	-1.000000	-1.000000	160400.000000	1775715344.920970
-57636.540000	-27820.305000	-10167.795000	1003.185000	-17713.080000	-38625.075000	3313.395000	-20833.380000	-3.324581	-1.882712	-0.572860	-0.573219	-0.414021	1.311773	-1.644273	-3.403764	-0.824040	1.526000	-0.915600	-0.796202	-0.092773	0.588072	-1.000000	-1.000000	-1.000000	-1.000000	-1.000000	-1.000000	-1.000000	65.000000	0.000000	-1.000000	-1.000000	160401.000000	1775715344.922228
-57629.070000	-27813.105000	-10161.855000	1007.685000	-17708.445000	-38622.915000	3318.930000	-20826.630000	-3.536308	-1.425878	0.105939	0.686538	0.371793	0.718691	-2.661189	-4.257431	-0.824040	1.526000	-0.915600	-0.796202	-0.092773	0.588072	-1.000000	-1.000000	-1.000000	-1.000000	-1.000000	-1.000000	-1.000000	65.000000	0.000000	-1.000000	-1.000000	160402.000000	1775715344.922253
-57629.520000	-27815.220000	-10164.870000	1004.895000	-17709.705000	-38625.660000	3320.010000	-20824.830000	-1.813327	-0.083471	0.802655	1.624645	1.083222	-0.331691	-2.179310	-2.861634	-0.824040	1.526000	-0.915600	-0.796202	-0.092773	0.588072	-1.000000	-1.000000	-1.000000	-1.000000	-1.000000	-1.000000	-1.000000	65.000000	0.000000	-1.000000	-1.000000	160403.000000	1775715344.931205
-57632.625000	-27819.180000	-10169.505000	1000.395000	-17713.845000	-38630.655000	3317.625000	-20825.730000	1.356376	1.736061	1.479853	2.024469	1.673489	-1.286132	-0.602074	0.276096	-0.824040	1.526000	-0.915600	-0.796202	-0.092773	0.588072	-1.000000	-1.000000	-1.000000	-1.000000	-1.000000	-1.000000	-1.000000	65.000000	0.000000	-1.000000	-1.000000	160404.000000	1775715344.931235
-57633.480000	-27819.270000	-10170.045000	998.685000	-17717.040000	-38631.420000	3316.770000	-20825.370000	3.919643	2.682035	1.482091	1.474059	1.568628	-1.843857	0.779666	3.194285	-0.824040	1.526000	-0.915600	-0.796202	-0.092773	0.588072	-1.000000	-1.000000	-1.000000	-1.000000	-1.000000	-1.000000	-1.000000	65.000000	0.000000	-1.000000	-1.000000	160405.000000	1775715344.931266
-57631.905000	-27819.045000	-10169.595000	999.000000	-17714.925000	-38625.480000	3318.795000	-20824.920000	4.432083	2.191359	0.741551	0.231170	0.647366	-1.660539	1.105098	4.234435	-0.824040	1.526000	-0.915600	-0.796202	-0.092773	0.588072	-1.000000	-1.000000	-1.000000	-1.000000	-1.000000	-1.000000	-1.000000	65.000000	0.000000	-1.000000	-1.000000	160406.000000	1775715344.931277
-57628.845000	-27815.805000	-10164.825000	1003.995000	-17710.020000	-38620.530000	3318.480000	-20823.480000	3.207496	0.991805	0.062332	-0.679626	-0.225897	-0.276830	0.630822	3.242348	-0.824040	1.526000	-0.915600	-0.796202	-0.092773	0.588072	-1.000000	-1.000000	-1.000000	-1.000000	-1.000000	-1.000000	-1.000000	65.000000	0.000000	-1.000000	-1.000000	160407.000000	1775715344.995710
-57630.375000	-27815.130000	-10163.385000	1006.335000	-17706.780000	-38612.475000	3320.190000	-20824.560000	1.408785	0.091628	0.168205	-0.420902	-0.102219	2.107825	0.055602	1.169065	-0.824040	1.526000	-0.915600	-0.796202	-0.092773	0.588072	-1.000000	-1.000000	-1.000000	-1.000000	-1.000000	-1.000000	-1.000000	65.000000	0.000000	-1.000000	-1.000000	160408.000000	1775715344.995738
-57633.255000	-27817.830000	-10165.905000	1003.410000	-17709.615000	-38613.555000	3320.910000	-20827.080000	-0.253496	-0.223131	0.830413	0.705991	0.840677	4.270623	-0.195785	-0.942203	-0.824040	1.526000	-0.915600	-0.796202	-0.092773	0.588072	-1.000000	-1.000000	-1.000000	-1.000000	-1.000000	-1.000000	-1.000000	65.000000	0.000000	-1.000000	-1.000000	160409.000000	1775715344.995922
-57627.045000	-27816.480000	-10165.905000	1003.185000	-17709.345000	-38620.665000	3321.495000	-20824.380000	-1.530736	-0.373653	1.095608	1.463859	1.419334	4.492253	-0.103132	-2.398790	-0.824040	1.526000	-0.915600	-0.796202	-0.092773	0.588072	-1.000000	-1.000000	-1.000000	-1.000000	-1.000000	-1.000000	-1.000000	65.000000	0.000000	-1.000000	-1.000000	160410.000000	1775715344.995938
-57623.400000	-27814.590000	-10166.175000	1002.825000	-17709.390000	-38622.555000	3321.855000	-20822.310000	-1.958778	-0.611197	0.445172	1.041960	0.848288	1.894368	0.092088	-2.707680	-1.236060	1.983800	-0.305200	-0.796080	-0.093323	0.588072	-1.000000	-1.000000	-1.000000	-1.000000	-1.000000	-1.000000	-1.000000	65.000000	0.000000	-1.000000	-1.000000	160411.000000	1775715344.995958
-57632.310000	-27818.640000	-10168.020000	1002.105000	-17711.640000	-38618.595000	3320.055000	-20826.990000	-1.463519	-0.799002	-0.733393	-0.219641	-0.540433	-2.218525	0.112173	-1.876521	-1.236060	1.983800	-0.305200	-0.796080	-0.093323	0.588072	-1.000000	-1.000000	-1.000000	-1.000000	-1.000000	-1.000000	-1.000000	65.000000	0.000000	-1.000000	-1.000000	160412.000000	1775715344.995970
-57631.995000	-27817.110000	-10164.780000	1005.525000	-17709.525000	-38614.140000	3318.930000	-20827.170000	-0.985310	-0.905966	-1.673852	-1.372818	-1.861351	-5.049649	-0.183499	-0.698428	-1.236060	1.983800	-0.305200	-0.796080	-0.093323	0.588072	-1.000000	-1.000000	-1.000000	-1.000000	-1.000000	-1.000000	-1.000000	65.000000	0.000000	-1.000000	-1.000000	160413.000000	1775715344.995982
-57629.970000	-27815.580000	-10162.530000	1007.460000	-17708.265000	-38613.015000	3318.660000	-20826.630000	-1.107963	-0.881056	-1.727709	-1.616957	-2.311935	-4.824715	-0.660823	0.086017	-1.236060	1.983800	-0.305200	-0.796080	-0.093323	0.588072	-1.000000	-1.000000	-1.000000	-1.000000	-1.000000	-1.000000	-1.000000	65.000000	0.000000	-1.000000	-1.000000	160414.000000	1775715344.995992
-57631.410000	-27817.695000	-10165.590000	1005.345000	-17710.470000	-38622.375000	3319.830000	-20827.665000	-1.235142	-0.555490	-0.867112	-0.910388	-1.675608	-2.378892	-0.922390	0.454766	-1.236060	1.983800	-0.305200	-0.796080	-0.093323	0.588072	-1.000000	-1.000000	-1.000000	-1.000000	-1.000000	-1.000000	-1.000000	65.000000	0.000000	-1.000000	-1.000000	160415.000000	1775715344.996002
-57634.560000	-27822.870000	-10171.755000	998.730000	-17717.445000	-38637.945000	3317.445000	-20830.230000	-0.846164	-0.155672	0.032986	-0.133661	-0.647583	-0.336330	-0.688027	0.602977	-1.236060	1.983800	-0.305200	-0.796080	-0.093323	0.588072	-1.000000	-1.000000	-1.000000	-1.000000	-1.000000	-1.000000	-1.000000	65.000000	0.000000	-1.000000	-1.000000	160416.000000	1775715344.996011
-57634.965000	-27821.205000	-10168.875000	999.810000	-17717.580000	-38637.270000	3313.530000	-20832.390000	-0.185313	-0.100646	0.130228	-0.157172	-0.149294	-0.411071	-0.196045	0.519144	-1.236060	1.983800	-0.305200	-0.796080	-0.093323	0.588072	-1.000000	-1.000000	-1.000000	-1.000000	-1.000000	-1.000000	-1.000000	65.000000	0.000000	-1.000000	-1.000000	160417.000000	1775715344.996022
-57629.295000	-27813.645000	-10160.370000	1008.360000	-17710.605000	-38640.690000	3316.320000	-20828.205000	0.511650	-0.093810	-0.117151	-0.579346	-0.074723	-1.535580	0.139214	0.315786	-1.236060	1.983800	-0.305200	-0.796080	-0.093323	0.588072	-1.000000	-1.000000	-1.000000	-1.000000	-1.000000	-1.000000	-1.000000	65.000000	0.000000	-1.000000	-1.000000	160418.000000	1775715344.996032
-57632.220000	-27816.345000	-10163.880000	1005.255000	-17714.880000	-38651.805000	3314.970000	-20830.095000	1.308941	0.532611	0.329296	-0.264554	0.430848	-1.657053	0.352066	0.360881	-1.236060	1.983800	-0.305200	-0.796080	-0.093323	0.588072	-1.000000	-1.000000	-1.000000	-1.000000	-1.000000	-1.000000	-1.000000	65.000000	0.000000	-1.000000	-1.000000	160419.000000	1775715344.996045
-57638.295000	-27825.210000	-10172.745000	996.435000	-17721.540000	-38651.670000	3313.260000	-20835.990000	1.810224	1.334973	1.121405	0.646356	1.256421	-0.310887	0.620089	0.594495	-1.236060	1.983800	-0.305200	-0.796080	-0.093323	0.588072	-1.000000	-1.000000	-1.000000	-1.000000	-1.000000	-1.000000	-1.000000	65.000000	0.000000	-1.000000	-1.000000	160420.000000	1775715344.996056
-57625.785000	-27816.615000	-10166.490000	1001.070000	-17714.970000	-38639.025000	3310.920000	-20828.520000	1.534990	1.230800	1.023905	0.913643	1.496752	2.061494	0.763681	0.578158	-1.312360	2.029580	-0.152600	-0.797239	-0.093323	0.587462	-1.000000	-1.000000	-1.000000	-1.000000	-1.000000	-1.000000	-1.000000	65.000000	0.000000	-1.000000	-1.000000	160421.000000	1775715344.996069
-57625.470000	-27813.780000	-10162.665000	1006.245000	-17710.560000	-38622.555000	3316.095000	-20824.155000	1.050915	0.479072	0.190735	0.457687	1.248012	5.406435	0.672506	0.542067	-1.312360	2.029580	-0.152600	-0.797239	-0.093323	0.587462	-1.000000	-1.000000	-1.000000	-1.000000	-1.000000	-1.000000	-1.000000	65.000000	0.000000	-1.000000	-1.000000	160422.000000	1775715344.996080
-57629.565000	-27817.515000	-10165.545000	1005.525000	-17706.510000	-38599.560000	3318.795000	-20826.405000	0.896354	0.088087	-0.229735	0.320524	1.339954	9.292122	0.707275	0.924151	-1.312360	2.029580	-0.152600	-0.797239	-0.093323	0.587462	-1.000000	-1.000000	-1.000000	-1.000000	-1.000000	-1.000000	-1.000000	65.000000	0.000000	-1.000000	-1.000000	160423.000000	1775715344.996092
-57638.250000	-27824.850000	-10171.530000	1000.890000	-17710.020000	-38603.745000	3314.610000	-20833.290000	0.315567	-0.111911	-0.173282	0.647892	1.703690	11.741200	1.006270	1.099590	-1.312360	2.029580	-0.152600	-0.797239	-0.093323	0.587462	-1.000000	-1.000000	-1.000000	-1.000000	-1.000000	-1.000000	-1.000000	65.000000	0.000000	-1.000000	-1.000000	160424.000000	1775715344.996103
-57634.290000	-27822.330000	-10169.190000	1002.780000	-17708.760000	-38607.885000	3315.420000	-20831.895000	-1.286217	-0.828692	-0.385597	0.622456	1.404351	9.689045	0.988210	0.167022	-1.312360	2.029580	-0.152600	-0.797239	-0.093323	0.587462	-1.000000	-1.000000	-1.000000	-1.000000	-1.000000	-1.000000	-1.000000	65.000000	0.000000	-1.000000	-1.000000	160425.000000	1775715344.996116
-57629.745000	-27817.200000	-10164.870000	1007.100000	-17706.420000	-38608.065000	3319.380000	-20827.575000	-2.796525	-1.595697	-0.765386	0.073036	0.089864	2.027477	0.327739	-1.382228	-1.312360	2.029580	-0.152600	-0.797239	-0.093323	0.587462	-1.000000	-1.000000	-1.000000	-1.000000	-1.000000	-1.000000	-1.000000	65.000000	0.000000	-1.000000	-1.000000	160426.000000	1775715344.996125
-57634.830000	-27821.205000	-10168.605000	1002.780000	-17712.405000	-38616.030000	3314.340000	-20831.940000	-2.719667	-1.367620	-0.602397	-0.397753	-1.600224	-8.197082	-0.536299	-2.181252	-1.312360	2.029580	-0.152600	-0.797239	-0.093323	0.587462	-1.000000	-1.000000	-1.000000	-1.000000	-1.000000	-1.000000	-1.000000	65.000000	0.000000	-1.000000	-1.000000	160427.000000	1775715344.996139
-57637.620000	-27823.050000	-10169.145000	1002.105000	-17714.430000	-38619.675000	3315.060000	-20832.435000	-1.272255	-0.278141	0.033121	-0.609430	-2.994743	-16.025449	-1.239424	-1.816775	-1.312360	2.029580	-0.152600	-0.797239	-0.093323	0.587462	-1.000000	-1.000000	-1.000000	-1.000000	-1.000000	-1.000000	-1.000000	65.000000	0.000000	-1.000000	-1.000000	160428.000000	1775715344.996151
-57629.340000	-27818.055000	-10166.175000	1004.085000	-17710.065000	-38617.605000	3318.750000	-20825.865000	0.344027	0.726919	0.529982	-0.765162	-3.581446	-17.934910	-1.590784	-0.780529	-1.312360	2.029580	-0.152600	-0.797239	-0.093323	0.587462	-1.000000	-1.000000	-1.000000	-1.000000	-1.000000	-1.000000	-1.000000	65.000000	0.000000	-1.000000	-1.000000	160429.000000	1775715344.996164
-57631.770000	-27822.015000	-10169.145000	1001.340000	-17711.820000	-38621.340000	3315.330000	-20829.015000	1.633266	1.230822	0.682208	-0.787413	-2.818886	-13.324994	-1.323645	0.519647	-1.312360	2.029580	-0.152600	-0.797239	-0.093323	0.587462	-1.000000	-1.000000	-1.000000	-1.000000	-1.000000	-1.000000	-1.000000	65.000000	0.000000	-1.000000	-1.000000	160430.000000	1775715344.996194
-57634.065000	-27823.635000	-10171.080000	999.495000	-17713.260000	-38623.590000	3313.710000	-20831.040000	2.350663	1.158587	0.484263	-0.624795	-0.911933	-4.674656	-0.650098	1.502374	-2.105880	1.953280	-0.015260	-0.797911	-0.091491	0.586424	-1.000000	-1.000000	-1.000000	-1.000000	-1.000000	-1.000000	-1.000000	65.000000	0.000000	-1.000000	-1.000000	160431.000000	1775715344.996206
-57633.795000	-27823.005000	-10171.080000	999.045000	-17714.970000	-38624.580000	3314.655000	-20830.365000	2.027985	0.504967	-0.053317	-0.434666	1.038696	4.023853	-0.112731	1.507909	-2.105880	1.953280	-0.015260	-0.797911	-0.091491	0.586424	-1.000000	-1.000000	-1.000000	-1.000000	-1.000000	-1.000000	-1.000000	65.000000	0.000000	-1.000000	-1.000000	160432.000000	1775715344.996215
-57628.980000	-27818.460000	-10166.355000	1002.870000	-17710.020000	-38616.615000	3315.960000	-20827.845000	0.883627	-0.216327	-0.513278	-0.147045	2.189855	9.844028	0.205697	0.714197	-2.105880	1.953280	-0.015260	-0.797911	-0.091491	0.586424	-1.000000	-1.000000	-1.000000	-1.000000	-1.000000	-1.000000	-1.000000	65.000000	0.000000	-1.000000	-1.000000	160433.000000	1775715344.996227
-57621.465000	-27817.920000	-10171.395000	996.480000	-17711.145000	-38611.530000	3309.255000	-20829.825000	-0.012817	-0.311968	-0.421699	0.364080	2.551856	12.075901	0.427324	-0.093555	-2.105880	1.953280	-0.015260	-0.797911	-0.091491	0.586424	-1.000000	-1.000000	-1.000000	-1.000000	-1.000000	-1.000000	-1.000000	65.000000	0.000000	-1.000000	-1.000000	160434.000000	1775715344.996236
-57638.655000	-27827.190000	-10176.030000	995.355000	-17717.040000	-38625.840000	3313.260000	-20836.080000	-0.248504	0.036143	-0.098127	0.727631	2.237526	10.962852	0.427535	-0.623612	-2.105880	1.953280	-0.015260	-0.797911	-0.091491	0.586424	-1.000000	-1.000000	-1.000000	-1.000000	-1.000000	-1.000000	-1.000000	65.000000	0.000000	-1.000000	-1.000000	160435.000000	1775715344.996248
-57640.995000	-27825.750000	-10172.070000	1000.395000	-17716.005000	-38631.915000	3317.895000	-20834.865000	-0.891251	-0.096216	-0.140643	0.654590	1.118363	6.538959	0.397423	-1.111842	-2.105880	1.953280	-0.015260	-0.797911	-0.091491	0.586424	-1.000000	-1.000000	-1.000000	-1.000000	-1.000000	-1.000000	-1.000000	65.000000	0.000000	-1.000000	-1.000000	160436.000000	1775715344.996258
-57635.910000	-27818.325000	-10163.340000	1009.260000	-17708.490000	-38626.740000	3320.730000	-20831.670000	-2.364950	-0.716003	-0.151857	0.738967	-0.261691	0.089725	0.855245	-1.354619	-2.105880	1.953280	-0.015260	-0.797911	-0.091491	0.586424	-1.000000	-1.000000	-1.000000	-1.000000	-1.000000	-1.000000	-1.000000	65.000000	0.000000	-1.000000	-1.000000	160437.000000	1775715344.996269
-57638.205000	-27819.855000	-10164.240000	1007.595000	-17710.650000	-38630.385000	3314.610000	-20833.965000	-3.162772	-0.742096	0.646945	1.512999	-0.808731	-5.191497	1.540078	-0.822026	-2.105880	1.953280	-0.015260	-0.797911	-0.091491	0.586424	-1.000000	-1.000000	-1.000000	-1.000000	-1.000000	-1.000000	-1.000000	65.000000	0.000000	-1.000000	-1.000000	160438.000000	1775715344.996278
-57636.630000	-27820.170000	-10165.320000	1007.055000	-17709.030000	-38626.695000	3319.020000	-20830.095000	-2.103042	0.106024	1.787286	2.219435	-0.364326	-6.836549	1.489122	0.365479	-2.105880	1.953280	-0.015260	-0.797911	-0.091491	0.586424	-1.000000	-1.000000	-1.000000	-1.000000	-1.000000	-1.000000	-1.000000	65.000000	0.000000	-1.000000	-1.000000	160439.000000	1775715345.001652
-57635.775000	-27824.580000	-10171.845000	999.270000	-17714.295000	-38630.565000	3312.135000	-20832.390000	0.236403	0.844915	1.857338	1.535931	0.133308	-4.993585	0.367213	1.501358	-2.105880	1.953280	-0.015260	-0.797911	-0.091491	0.586424	-1.000000	-1.000000	-1.000000	-1.000000	-1.000000	-1.000000	-1.000000	65.000000	0.000000	-1.000000	-1.000000	160440.000000	1775715345.001673
-57634.965000	-27823.590000	-10171.305000	999.855000	-17713.305000	-38630.655000	3312.090000	-20831.805000	2.500420	0.651079	0.262473	-0.780153	-0.106974	-1.635444	-1.279824	1.924385	-2.105880	1.785420	0.732480	-0.798338	-0.090454	0.585570	-1.000000	-1.000000	-1.000000	-1.000000	-1.000000	-1.000000	-1.000000	65.000000	0.000000	-1.000000	-1.000000	160441.000000	1775715345.001694
-57631.050000	-27817.020000	-10162.980000	1009.035000	-17704.080000	-38622.915000	3316.860000	-20828.070000	3.666466	-0.095318	-1.816263	-3.191543	-0.737644	1.310951	-2.481830	1.485491	-2.105880	1.785420	0.732480	-0.798338	-0.090454	0.585570	-1.000000	-1.000000	-1.000000	-1.000000	-1.000000	-1.000000	-1.000000	65.000000	0.000000	-1.000000	-1.000000	160442.000000	1775715345.001700
-57630.915000	-27815.580000	-10161.225000	1010.970000	-17704.305000	-38619.045000	3318.885000	-20827.755000	3.474815	-0.318878	-2.463456	-3.593948	-0.688197	3.182996	-2.262244	0.664178	-2.105880	1.785420	0.732480	-0.798338	-0.090454	0.585570	-1.000000	-1.000000	-1.000000	-1.000000	-1.000000	-1.000000	-1.000000	65.000000	0.000000	-1.000000	-1.000000	160443.000000	1775715345.012568
-57635.775000	-27821.295000	-10168.470000	1003.815000	-17714.430000	-38628.495000	3316.860000	-20829.555000	2.097231	0.174551	-1.329161	-1.772818	0.016748	3.759765	-0.654199	-0.100154	-2.105880	1.785420	0.732480	-0.798338	-0.090454	0.585570	-1.000000	-1.000000	-1.000000	-1.000000	-1.000000	-1.000000	-1.000000	65.000000	0.000000	-1.000000	-1.000000	160444.000000	1775715345.012595
-57638.475000	-27827.685000	-10175.940000	995.535000	-17722.305000	-38634.840000	3313.485000	-20832.120000	-0.184586	0.304995	-0.114311	0.167574	-0.058753	2.376824	1.027478	-0.850409	-2.105880	1.785420	0.732480	-0.798338	-0.090454	0.585570	-1.000000	-1.000000	-1.000000	-1.000000	-1.000000	-1.000000	-1.000000	65.000000	0.000000	-1.000000	-1.000000	160445.000000	1775715345.012624
-57637.620000	-27825.120000	-10171.980000	999.675000	-17716.995000	-38631.105000	3315.735000	-20831.355000	-2.593657	-0.619155	-0.186504	0.492844	-1.418964	-0.723210	1.571102	-1.615338	-2.105880	1.785420	0.732480	-0.798338	-0.090454	0.585570	-1.000000	-1.000000	-1.000000	-1.000000	-1.000000	-1.000000	-1.000000	65.000000	0.000000	-1.000000	-1.000000	160446.000000	1775715345.012636
-57636.675000	-27822.915000	-10168.785000	1004.040000	-17712.225000	-38621.070000	3323.250000	-20829.150000	-3.872344	-1.690440	-0.796150	-0.105171	-2.402986	-3.321865	1.172567	-1.972257	-2.105880	1.785420	0.732480	-0.798338	-0.090454	0.585570	-1.000000	-1.000000	-1.000000	-1.000000	-1.000000	-1.000000	-1.000000	65.000000	0.000000	-1.000000	-1.000000	160447.000000	1775715345.035976
-57640.590000	-27826.245000	-10171.080000	1000.755000	-17715.960000	-38618.820000	3319.470000	-20831.670000	-3.357442	-1.644375	-0.521405	-0.014919	-1.409821	-3.177928	0.804231	-1.513181	-2.105880	1.785420	0.732480	-0.798338	-0.090454	0.585570	-1.000000	-1.000000	-1.000000	-1.000000	-1.000000	-1.000000	-1.000000	65.000000	0.000000	-1.000000	-1.000000	160448.000000	1775715345.036003
-57632.895000	-27817.245000	-10162.305000	1008.630000	-17706.915000	-38614.545000	3320.685000	-20825.640000	-1.497236	-0.347378	0.817750	1.065675	1.068020	-0.530151	0.659531	-0.390972	-2.105880	1.785420	0.732480	-0.798338	-0.090454	0.585570	-1.000000	-1.000000	-1.000000	-1.000000	-1.000000	-1.000000	-1.000000	65.000000	0.000000	-1.000000	-1.000000	160449.000000	1775715345.036031
-57630.555000	-27815.895000	-10160.865000	1010.925000	-17704.080000	-38614.230000	3321.810000	-20825.190000	0.908468	1.555976	2.472674	2.417339	3.509703	2.330766	0.295026	0.948433	-2.105880	1.785420	0.732480	-0.798338	-0.090454	0.585570	-1.000000	-1.000000	-1.000000	-1.000000	-1.000000	-1.000000	-1.000000	65.000000	0.000000	-1.000000	-1.000000	160450.000000	1775715345.036041
-57628.845000	-27815.040000	-10159.695000	1011.780000	-17704.035000	-38614.545000	3321.855000	-20823.570000	3.028920	3.123372	3.489373	3.210983	4.689097	3.314005	-0.330243	1.991622	-1.297100	1.938020	1.220800	-0.799436	-0.091675	0.585143	-1.000000	-1.000000	-1.000000	-1.000000	-1.000000	-1.000000	-1.000000	65.000000	0.000000	-1.000000	-1.000000	160451.000000	1775715345.036052
-57627.945000	-27816.165000	-10161.990000	1009.080000	-17707.275000	-38619.495000	3326.130000	-20822.265000	3.903231	3.303129	2.996579	2.686986	3.805980	1.839033	-0.835213	2.222949	-1.297100	1.938020	1.220800	-0.799436	-0.091675	0.585143	-1.000000	-1.000000	-1.000000	-1.000000	-1.000000	-1.000000	-1.000000	65.000000	0.000000	-1.000000	-1.000000	160452.000000	1775715345.036064
-57637.800000	-27824.580000	-10168.875000	1004.805000	-17710.965000	-38624.355000	3327.030000	-20828.250000	2.869071	1.612894	0.771335	0.617285	0.910322	-1.237888	-0.859257	1.401480	-1.297100	1.938020	1.220800	-0.799436	-0.091675	0.585143	-1.000000	-1.000000	-1.000000	-1.000000	-1.000000	-1.000000	-1.000000	65.000000	0.000000	-1.000000	-1.000000	160453.000000	1775715345.036076
-57646.935000	-27832.365000	-10175.490000	999.270000	-17714.070000	-38624.490000	3320.460000	-20837.295000	-0.073321	-1.518788	-2.502253	-2.325036	-2.784926	-4.216091	-0.565676	-0.461681	-1.297100	1.938020	1.220800	-0.799436	-0.091675	0.585143	-1.000000	-1.000000	-1.000000	-1.000000	-1.000000	-1.000000	-1.000000	65.000000	0.000000	-1.000000	-1.000000	160454.000000	1775715345.036088
-57641.490000	-27826.155000	-10167.795000	1006.110000	-17709.840000	-38625.435000	3318.120000	-20835.090000	-3.673966	-4.582661	-5.206001	-4.655878	-5.391215	-5.357110	-0.647897	-2.795990	-1.297100	1.938020	1.220800	-0.799436	-0.091675	0.585143	-1.000000	-1.000000	-1.000000	-1.000000	-1.000000	-1.000000	-1.000000	65.000000	0.000000	-1.000000	-1.000000	160455.000000	1775715345.036099
-57639.015000	-27824.895000	-10164.600000	1008.630000	-17708.580000	-38627.325000	3312.855000	-20835.180000	-5.451615	-5.404162	-5.348924	-4.726869	-5.394748	-3.985898	-1.373588	-4.114928	-1.297100	1.938020	1.220800	-0.799436	-0.091675	0.585143	-1.000000	-1.000000	-1.000000	-1.000000	-1.000000	-1.000000	-1.000000	65.000000	0.000000	-1.000000	-1.000000	160456.000000	1775715345.036110
-57632.130000	-27818.370000	-10160.235000	1012.860000	-17705.790000	-38622.240000	3322.845000	-20824.830000	-3.754572	-2.990155	-2.359303	-2.149640	-2.785369	-0.853054	-1.932006	-3.023873	-1.297100	1.938020	1.220800	-0.799436	-0.091675	0.585143	-1.000000	-1.000000	-1.000000	-1.000000	-1.000000	-1.000000	-1.000000	65.000000	0.000000	-1.000000	-1.000000	160457.000000	1775715345.036124
-57631.140000	-27814.050000	-10158.930000	1012.905000	-17706.420000	-38621.880000	3324.195000	-20823.885000	0.495155	1.404816	2.018777	1.556167	0.849508	2.647045	-1.097953	0.357038	-1.297100	1.938020	1.220800	-0.799436	-0.091675	0.585143	-1.000000	-1.000000	-1.000000	-1.000000	-1.000000	-1.000000	-1.000000	65.000000	0.000000	-1.000000	-1.000000	160458.000000	1775715345.036133
-57633.390000	-27814.230000	-10159.650000	1012.275000	-17705.880000	-38621.430000	3321.720000	-20827.845000	4.505757	5.264183	5.125379	4.132066	3.507244	5.109273	1.113080	4.017223	-1.297100	1.938020	1.220800	-0.799436	-0.091675	0.585143	-1.000000	-1.000000	-1.000000	-1.000000	-1.000000	-1.000000	-1.000000	65.000000	0.000000	-1.000000	-1.000000	160459.000000	1775715345.038582
-57638.205000	-27821.295000	-10164.465000	1007.685000	-17709.885000	-38628.945000	3314.520000	-20832.840000	5.684106	6.292388	5.243210	4.162805	4.009959	5.400441	2.929439	5.324906	-1.297100	1.938020	1.220800	-0.799436	-0.091675	0.585143	-1.000000	-1.000000	-1.000000	-1.000000	-1.000000	-1.000000	-1.000000	65.000000	0.000000	-1.000000	-1.000000	160460.000000	1775715345.038607
-57638.880000	-27822.420000	-10166.040000	1006.650000	-17712.225000	-38634.435000	3316.545000	-20831.715000	3.468757	3.765252	2.491414	1.839864	2.429053	3.186750	2.762168	3.374638	-0.259420	1.892240	0.106820	-0.797544	-0.093017	0.585692	-1.000000	-1.000000	-1.000000	-1.000000	-1.000000	-1.000000	-1.000000	65.000000	0.000000	-1.000000	-1.000000	160461.000000	1775715345.051437
-57628.530000	-27814.320000	-10160.055000	1012.770000	-17706.015000	-38628.720000	3327.255000	-20820.735000	-0.207828	-0.582203	-1.227734	-1.141154	0.000084	-0.371760	1.202707	0.000568	-0.259420	1.892240	0.106820	-0.797544	-0.093017	0.585692	-1.000000	-1.000000	-1.000000	-1.000000	-1.000000	-1.000000	-1.000000	65.000000	0.000000	-1.000000	-1.000000	160462.000000	1775715345.051465
-57623.940000	-27810.765000	-10157.445000	1014.120000	-17705.025000	-38621.250000	3328.020000	-20817.855000	-2.465655	-3.657706	-3.440883	-2.706039	-1.540254	-2.827784	0.187741	-1.990286	-0.259420	1.892240	0.106820	-0.797544	-0.093017	0.585692	-1.000000	-1.000000	-1.000000	-1.000000	-1.000000	-1.000000	-1.000000	65.000000	0.000000	-1.000000	-1.000000	160463.000000	1775715345.051507
-57628.170000	-27813.870000	-10158.930000	1012.545000	-17707.140000	-38615.940000	3313.800000	-20824.650000	-2.206809	-3.863884	-3.114388	-2.171937	-1.452289	-2.428425	0.139127	-1.775232	-0.259420	1.892240	0.106820	-0.797544	-0.093017	0.585692	-1.000000	-1.000000	-1.000000	-1.000000	-1.000000	-1.000000	-1.000000	65.000000	0.000000	-1.000000	-1.000000	160464.000000	1775715345.051520
-57633.525000	-27817.920000	-10162.710000	1008.945000	-17709.390000	-38612.475000	3314.385000	-20828.745000	-0.990330	-2.320646	-1.377064	-0.696242	-0.579936	0.165565	-0.406440	-1.030145	-0.259420	1.892240	0.106820	-0.797544	-0.093017	0.585692	-1.000000	-1.000000	-1.000000	-1.000000	-1.000000	-1.000000	-1.000000	65.000000	0.000000	-1.000000	-1.000000	160465.000000	1775715345.051537
-57634.965000	-27819.765000	-10164.465000	1007.010000	-17709.255000	-38612.430000	3320.640000	-20828.745000	-0.758407	-1.008245	-0.026379	0.205078	-0.057748	2.612460	-1.807216	-1.293911	-0.259420	1.892240	0.106820	-0.797544	-0.093017	0.585692	-1.000000	-1.000000	-1.000000	-1.000000	-1.000000	-1.000000	-1.000000	65.000000	0.000000	-1.000000	-1.000000	160466.000000	1775715345.051548
-57640.005000	-27824.895000	-10168.695000	1004.445000	-17710.785000	-38618.595000	3321.585000	-20832.165000	-1.703719	-0.733612	0.152531	0.064018	-0.144121	2.844793	-2.459887	-2.218557	-0.259420	1.892240	0.106820	-0.797544	-0.093017	0.585692	-1.000000	-1.000000	-1.000000	-1.000000	-1.000000	-1.000000	-1.000000	65.000000	0.000000	-1.000000	-1.000000	160467.000000	1775715345.057594
-57646.845000	-27831.420000	-10174.095000	1000.125000	-17716.410000	-38631.285000	3321.630000	-20837.250000	-2.782793	-1.138276	-0.497284	-0.602237	-0.527363	0.244490	-1.395428	-2.696435	-0.259420	1.892240	0.106820	-0.797544	-0.093017	0.585692	-1.000000	-1.000000	-1.000000	-1.000000	-1.000000	-1.000000	-1.000000	65.000000	0.000000	-1.000000	-1.000000	160468.000000	1775715345.057621
-57645.720000	-27830.475000	-10172.520000	1001.385000	-17717.265000	-38634.120000	3318.570000	-20837.160000	-2.999288	-1.461587	-1.149759	-1.038723	-0.940494	-4.008759	0.440696	-2.203547	-0.259420	1.892240	0.106820	-0.797544	-0.093017	0.585692	-1.000000	-1.000000	-1.000000	-1.000000	-1.000000	-1.000000	-1.000000	65.000000	0.000000	-1.000000	-1.000000	160469.000000	1775715345.059045
-57638.520000	-27823.815000	-10166.265000	1006.830000	-17711.640000	-38627.730000	3320.820000	-20831.580000	-1.637034	-0.778277	-0.830538	-0.581586	-0.953971	-7.109961	1.595437	-0.655375	-0.259420	1.892240	0.106820	-0.797544	-0.093017	0.585692	-1.000000	-1.000000	-1.000000	-1.000000	-1.000000	-1.000000	-1.000000	65.000000	0.000000	-1.000000	-1.000000	160470.000000	1775715345.059067
-57638.835000	-27824.040000	-10166.580000	1007.055000	-17710.515000	-38623.950000	3325.140000	-20830.635000	1.344551	1.340774	0.887182	0.958136	-0.017745	-6.347475	1.673669	1.753161	0.152600	2.289000	-0.473060	-0.796202	-0.093872	0.586241	-1.000000	-1.000000	-1.000000	-1.000000	-1.000000	-1.000000	-1.000000	65.000000	0.000000	-1.000000	-1.000000	160471.000000	1775715345.061624
-57638.250000	-27821.880000	-10163.430000	1009.980000	-17706.825000	-38616.840000	3328.245000	-20830.950000	4.573697	3.929868	3.114237	2.798420	1.679621	-1.575464	1.311635	4.071614	0.152600	2.289000	-0.473060	-0.796202	-0.093872	0.586241	-1.000000	-1.000000	-1.000000	-1.000000	-1.000000	-1.000000	-1.000000	65.000000	0.000000	-1.000000	-1.000000	160472.000000	1775715345.061643
-57638.205000	-27820.395000	-10162.890000	1010.250000	-17707.320000	-38619.045000	3325.680000	-20830.230000	6.075094	5.306516	4.333269	3.707907	3.081731	4.442542	0.965926	4.951562	0.152600	2.289000	-0.473060	-0.796202	-0.093872	0.586241	-1.000000	-1.000000	-1.000000	-1.000000	-1.000000	-1.000000	-1.000000	65.000000	0.000000	-1.000000	-1.000000	160473.000000	1775715345.065332
-57639.645000	-27821.340000	-10165.140000	1008.315000	-17711.010000	-38627.280000	3320.955000	-20831.940000	4.964309	4.565663	3.672610	2.992596	3.087861	7.965294	0.302903	3.811791	0.152600	2.289000	-0.473060	-0.796202	-0.093872	0.586241	-1.000000	-1.000000	-1.000000	-1.000000	-1.000000	-1.000000	-1.000000	65.000000	0.000000	-1.000000	-1.000000	160474.000000	1775715345.065353
-57640.770000	-27820.395000	-10161.765000	1012.545000	-17707.410000	-38628.405000	3319.650000	-20835.000000	1.905550	2.042116	1.391309	0.939329	1.447041	6.872073	-1.026105	1.183848	0.152600	2.289000	-0.473060	-0.796202	-0.093872	0.586241	-1.000000	-1.000000	-1.000000	-1.000000	-1.000000	-1.000000	-1.000000	65.000000	0.000000	-1.000000	-1.000000	160475.000000	1775715345.070705
-57641.940000	-27823.410000	-10163.925000	1010.610000	-17707.140000	-38631.420000	3320.010000	-20834.865000	-1.573670	-1.122436	-1.328568	-1.354050	-0.847209	2.271931	-2.465790	-1.757588	0.152600	2.289000	-0.473060	-0.796202	-0.093872	0.586241	-1.000000	-1.000000	-1.000000	-1.000000	-1.000000	-1.000000	-1.000000	65.000000	0.000000	-1.000000	-1.000000	160476.000000	1775715345.070725
-57640.545000	-27824.310000	-10165.140000	1008.945000	-17708.355000	-38640.375000	3320.280000	-20831.895000	-3.951010	-3.697022	-3.288056	-2.897467	-2.462296	-2.791194	-2.932380	-3.660445	0.152600	2.289000	-0.473060	-0.796202	-0.093872	0.586241	-1.000000	-1.000000	-1.000000	-1.000000	-1.000000	-1.000000	-1.000000	65.000000	0.000000	-1.000000	-1.000000	160477.000000	1775715345.085255
-57642.570000	-27826.425000	-10167.165000	1006.920000	-17709.795000	-38641.320000	3317.895000	-20835.360000	-4.430056	-4.882836	-4.006399	-3.445079	-2.910763	-5.890051	-1.994463	-3.726006	0.152600	2.289000	-0.473060	-0.796202	-0.093872	0.586241	-1.000000	-1.000000	-1.000000	-1.000000	-1.000000	-1.000000	-1.000000	65.000000	0.000000	-1.000000	-1.000000	160478.000000	1775715345.085280
-57642.075000	-27826.650000	-10167.255000	1007.505000	-17707.770000	-38625.615000	3319.605000	-20834.550000	-3.254267	-4.450816	-3.546683	-3.111126	-2.423866	-5.716790	-0.234947	-2.345705	0.152600	2.289000	-0.473060	-0.796202	-0.093872	0.586241	-1.000000	-1.000000	-1.000000	-1.000000	-1.000000	-1.000000	-1.000000	65.000000	0.000000	-1.000000	-1.000000	160479.000000	1775715345.085299
-57636.180000	-27822.330000	-10165.905000	1008.180000	-17707.995000	-38616.255000	3323.745000	-20827.890000	-1.204269	-2.631096	-2.157594	-1.991953	-1.328402	-1.880209	1.535347	-0.440237	0.152600	2.289000	-0.473060	-0.796202	-0.093872	0.586241	-1.000000	-1.000000	-1.000000	-1.000000	-1.000000	-1.000000	-1.000000	65.000000	0.000000	-1.000000	-1.000000	160480.000000	1775715345.085310
-57637.305000	-27823.815000	-10167.705000	1005.975000	-17711.910000	-38614.950000	3324.375000	-20828.205000	0.991008	-0.024849	-0.269208	-0.370283	-0.078478	3.897319	2.833435	1.401700	-0.534100	1.983800	-0.228900	-0.796568	-0.092407	0.586546	-1.000000	-1.000000	-1.000000	-1.000000	-1.000000	-1.000000	-1.000000	65.000000	0.000000	-1.000000	-1.000000	160481.000000	1775715345.085323
-57634.740000	-27820.755000	-10163.070000	1010.880000	-17708.130000	-38613.330000	3324.330000	-20827.170000	2.563137	2.375095	1.514293	1.219267	0.790035	7.927114	3.255742	2.615828	-0.534100	1.983800	-0.228900	-0.796568	-0.092407	0.586546	-1.000000	-1.000000	-1.000000	-1.000000	-1.000000	-1.000000	-1.000000	65.000000	0.000000	-1.000000	-1.000000	160482.000000	1775715345.085333
-57633.390000	-27818.145000	-10160.730000	1013.850000	-17706.015000	-38616.390000	3324.420000	-20827.755000	2.910627	3.676768	2.763716	2.427117	1.231998	7.447620	2.501231	2.598674	-0.534100	1.983800	-0.228900	-0.796568	-0.092407	0.586546	-1.000000	-1.000000	-1.000000	-1.000000	-1.000000	-1.000000	-1.000000	65.000000	0.000000	-1.000000	-1.000000	160483.000000	1775715345.087542
-57634.650000	-27821.880000	-10164.240000	1009.665000	-17709.390000	-38620.980000	3321.000000	-20831.040000	2.039634	3.547955	3.196721	3.004565	1.472698	2.687044	0.750300	1.283112	-0.534100	1.983800	-0.228900	-0.796568	-0.092407	0.586546	-1.000000	-1.000000	-1.000000	-1.000000	-1.000000	-1.000000	-1.000000	65.000000	0.000000	-1.000000	-1.000000	160484.000000	1775715345.087560
-57635.775000	-27825.255000	-10168.515000	1003.680000	-17714.520000	-38625.390000	3316.275000	-20835.765000	0.391961	2.011947	2.395301	2.387869	1.250096	-3.741737	-1.419205	-0.809701	-0.534100	1.983800	-0.228900	-0.796568	-0.092407	0.586546	-1.000000	-1.000000	-1.000000	-1.000000	-1.000000	-1.000000	-1.000000	65.000000	0.000000	-1.000000	-1.000000	160485.000000	1775715345.097269
-57634.155000	-27823.680000	-10165.545000	1007.055000	-17711.595000	-38626.920000	3319.560000	-20832.795000	-1.345459	-0.385872	0.443214	0.469514	0.312207	-8.593472	-3.178567	-2.731836	-0.534100	1.983800	-0.228900	-0.796568	-0.092407	0.586546	-1.000000	-1.000000	-1.000000	-1.000000	-1.000000	-1.000000	-1.000000	65.000000	0.000000	-1.000000	-1.000000	160486.000000	1775715345.097297
-57636.720000	-27825.165000	-10166.535000	1004.895000	-17714.790000	-38634.885000	3317.355000	-20834.370000	-2.420460	-2.420632	-1.546241	-1.619454	-0.779002	-9.779183	-3.599064	-3.373532	-0.534100	1.983800	-0.228900	-0.796568	-0.092407	0.586546	-1.000000	-1.000000	-1.000000	-1.000000	-1.000000	-1.000000	-1.000000	65.000000	0.000000	-1.000000	-1.000000	160487.000000	1775715345.097340
-57640.995000	-27827.145000	-10168.065000	1004.715000	-17715.735000	-38629.260000	3321.405000	-20834.820000	-2.578523	-3.105758	-2.439812	-2.560729	-1.280880	-7.204515	-2.347320	-2.337367	-0.534100	1.983800	-0.228900	-0.796568	-0.092407	0.586546	-1.000000	-1.000000	-1.000000	-1.000000	-1.000000	-1.000000	-1.000000	65.000000	0.000000	-1.000000	-1.000000	160488.000000	1775715345.097352
-57639.330000	-27825.075000	-10165.590000	1008.405000	-17711.055000	-38619.360000	3326.040000	-20831.355000	-2.082837	-2.395490	-2.051318	-2.001745	-0.955005	-1.962308	0.036846	-0.271818	-0.534100	1.983800	-0.228900	-0.796568	-0.092407	0.586546	-1.000000	-1.000000	-1.000000	-1.000000	-1.000000	-1.000000	-1.000000	65.000000	0.000000	-1.000000	-1.000000	160489.000000	1775715345.098912
-57641.490000	-27828.045000	-10169.010000	1005.570000	-17714.565000	-38623.905000	3323.610000	-20833.380000	-1.130403	-0.865637	-0.889877	-0.451953	0.038432	4.154836	2.467516	1.800788	-0.534100	1.983800	-0.228900	-0.796568	-0.092407	0.586546	-1.000000	-1.000000	-1.000000	-1.000000	-1.000000	-1.000000	-1.000000	65.000000	0.000000	-1.000000	-1.000000	160490.000000	1775715345.098930
-57646.665000	-27831.825000	-10172.880000	1001.430000	-17718.165000	-38632.725000	3319.020000	-20838.330000	0.036336	0.609619	0.214752	1.003801	1.008162	8.272906	3.561001	2.876492	-1.724380	2.441600	0.183120	-0.796202	-0.089660	0.587218	-1.000000	-1.000000	-1.000000	-1.000000	-1.000000	-1.000000	-1.000000	65.000000	0.000000	-1.000000	-1.000000	160491.000000	1775715345.101392
-57640.770000	-27825.930000	-10166.040000	1008.225000	-17709.570000	-38621.925000	3325.545000	-20832.840000	1.022853	1.394071	0.723119	1.504028	1.294937	8.253749	2.651471	2.467148	-1.724380	2.441600	0.183120	-0.796202	-0.089660	0.587218	-1.000000	-1.000000	-1.000000	-1.000000	-1.000000	-1.000000	-1.000000	65.000000	0.000000	-1.000000	-1.000000	160492.000000	1775715345.101410
-57639.240000	-27825.210000	-10164.600000	1009.665000	-17707.455000	-38622.645000	3325.545000	-20831.940000	1.844839	1.692167	0.993076	1.336222	1.226780	5.070496	0.698079	1.251162	-1.724380	2.441600	0.183120	-0.796202	-0.089660	0.587218	-1.000000	-1.000000	-1.000000	-1.000000	-1.000000	-1.000000	-1.000000	65.000000	0.000000	-1.000000	-1.000000	160493.000000	1775715345.105264
-57639.735000	-27826.065000	-10165.860000	1008.540000	-17709.165000	-38627.685000	3323.655000	-20833.155000	2.598347	1.872358	1.425200	1.143230	1.270042	1.196430	-0.899669	0.254824	-1.724380	2.441600	0.183120	-0.796202	-0.089660	0.587218	-1.000000	-1.000000	-1.000000	-1.000000	-1.000000	-1.000000	-1.000000	65.000000	0.000000	-1.000000	-1.000000	160494.000000	1775715345.105281
-57640.815000	-27827.145000	-10167.120000	1007.055000	-17711.370000	-38629.260000	3321.045000	-20834.685000	2.798319	1.691685	1.584706	0.822932	0.992626	-2.035123	-1.754958	-0.330600	-1.724380	2.441600	0.183120	-0.796202	-0.089660	0.587218	-1.000000	-1.000000	-1.000000	-1.000000	-1.000000	-1.000000	-1.000000	65.000000	0.000000	-1.000000	-1.000000	160495.000000	1775715345.110220
-57645.630000	-27831.915000	-10170.945000	1002.330000	-17717.445000	-38634.795000	3316.590000	-20839.455000	1.876083	0.769371	0.884698	-0.038299	-0.193015	-4.226994	-2.184555	-0.891943	-1.724380	2.441600	0.183120	-0.796202	-0.089660	0.587218	-1.000000	-1.000000	-1.000000	-1.000000	-1.000000	-1.000000	-1.000000	65.000000	0.000000	-1.000000	-1.000000	160496.000000	1775715345.110246
-57645.180000	-27829.440000	-10168.965000	1003.635000	-17717.805000	-38634.030000	3316.095000	-20839.140000	-0.033040	-0.706300	-0.514290	-1.324403	-2.033584	-5.046661	-2.351473	-1.578982	-1.724380	2.441600	0.183120	-0.796202	-0.089660	0.587218	-1.000000	-1.000000	-1.000000	-1.000000	-1.000000	-1.000000	-1.000000	65.000000	0.000000	-1.000000	-1.000000	160497.000000	1775715345.114937
-57643.560000	-27825.705000	-10164.555000	1008.855000	-17712.000000	-38630.205000	3317.310000	-20837.970000	-1.918746	-1.816349	-1.632242	-2.158111	-3.301844	-4.157712	-1.977309	-1.954830	-1.724380	2.441600	0.183120	-0.796202	-0.089660	0.587218	-1.000000	-1.000000	-1.000000	-1.000000	-1.000000	-1.000000	-1.000000	65.000000	0.000000	-1.000000	-1.000000	160498.000000	1775715345.114961
-57638.295000	-27819.900000	-10157.940000	1016.235000	-17703.810000	-38624.895000	3323.430000	-20832.795000	-2.533197	-1.584771	-1.428185	-1.524147	-2.603375	-1.548958	-0.650505	-1.362844	-1.724380	2.441600	0.183120	-0.796202	-0.089660	0.587218	-1.000000	-1.000000	-1.000000	-1.000000	-1.000000	-1.000000	-1.000000	65.000000	0.000000	-1.000000	-1.000000	160499.000000	1775715345.121354
-57641.130000	-27824.310000	-10163.115000	1011.240000	-17707.815000	-38627.370000	3326.265000	-20834.055000	-1.535608	-0.143803	0.004401	0.429461	0.040327	1.827712	1.539188	0.228305	-1.724380	2.441600	0.183120	-0.796202	-0.089660	0.587218	-1.000000	-1.000000	-1.000000	-1.000000	-1.000000	-1.000000	-1.000000	65.000000	0.000000	-1.000000	-1.000000	160500.000000	1775715345.121380
-57644.190000	-27828.495000	-10168.920000	1003.905000	-17715.375000	-38635.020000	3321.765000	-20837.070000	0.025812	1.068297	1.144195	1.950818	2.558499	4.031872	3.537689	1.817474	-2.319520	2.090620	0.350980	-0.795530	-0.089599	0.586974	-1.000000	-1.000000	-1.000000	-1.000000	-1.000000	-1.000000	-1.000000	65.000000	0.000000	-1.000000	-1.000000	160501.000000	1775715345.122004
-57640.365000	-27823.590000	-10164.465000	1007.370000	-17714.790000	-38639.070000	3320.325000	-20833.965000	0.846757	0.894190	0.729923	1.497964	2.785597	3.520569	3.850822	2.251350	-2.319520	2.090620	0.350980	-0.795530	-0.089599	0.586974	-1.000000	-1.000000	-1.000000	-1.000000	-1.000000	-1.000000	-1.000000	65.000000	0.000000	-1.000000	-1.000000	160502.000000	1775715345.122020
-57638.205000	-27821.295000	-10161.540000	1010.205000	-17712.900000	-38641.140000	3322.395000	-20829.780000	0.796666	-0.119931	-0.565816	-0.265383	0.899571	0.743528	2.095317	1.539449	-2.319520	2.090620	0.350980	-0.795530	-0.089599	0.586974	-1.000000	-1.000000	-1.000000	-1.000000	-1.000000	-1.000000	-1.000000	65.000000	0.000000	-1.000000	-1.000000	160503.000000	1775715345.136857
-57644.325000	-27830.025000	-10170.270000	1000.710000	-17721.900000	-38654.910000	3316.275000	-20834.595000	0.423076	-0.881468	-1.363076	-1.628819	-1.256553	-2.391827	-0.572404	0.502576	-2.319520	2.090620	0.350980	-0.795530	-0.089599	0.586974	-1.000000	-1.000000	-1.000000	-1.000000	-1.000000	-1.000000	-1.000000	65.000000	0.000000	-1.000000	-1.000000	160504.000000	1775715345.136883
-57641.265000	-27826.470000	-10167.165000	1005.120000	-17716.005000	-38648.610000	3321.045000	-20832.570000	-0.112921	-1.245553	-1.425911	-1.975991	-2.370656	-4.199725	-2.677213	-0.457703	-2.319520	2.090620	0.350980	-0.795530	-0.089599	0.586974	-1.000000	-1.000000	-1.000000	-1.000000	-1.000000	-1.000000	-1.000000	65.000000	0.000000	-1.000000	-1.000000	160505.000000	1775715345.136912
-57645.045000	-27828.630000	-10169.685000	1003.545000	-17715.330000	-38638.845000	3318.210000	-20838.015000	-0.717235	-1.326915	-1.086940	-1.457071	-1.973320	-3.445323	-3.290864	-1.336009	-2.319520	2.090620	0.350980	-0.795530	-0.089599	0.586974	-1.000000	-1.000000	-1.000000	-1.000000	-1.000000	-1.000000	-1.000000	65.000000	0.000000	-1.000000	-1.000000	160506.000000	1775715345.136921
-57647.385000	-27829.845000	-10170.540000	1003.320000	-17715.915000	-38628.180000	3316.545000	-20841.885000	-1.133895	-0.965913	-0.451617	-0.288555	-0.272531	0.305969	-2.407788	-2.089700	-2.319520	2.090620	0.350980	-0.795530	-0.089599	0.586974	-1.000000	-1.000000	-1.000000	-1.000000	-1.000000	-1.000000	-1.000000	65.000000	0.000000	-1.000000	-1.000000	160507.000000	1775715345.138909
-57652.920000	-27834.840000	-10174.770000	998.595000	-17721.315000	-38629.350000	3317.445000	-20845.620000	-1.322648	-0.329440	0.244785	0.917667	1.538527	5.311946	-0.851649	-2.583253	-2.319520	2.090620	0.350980	-0.795530	-0.089599	0.586974	-1.000000	-1.000000	-1.000000	-1.000000	-1.000000	-1.000000	-1.000000	65.000000	0.000000	-1.000000	-1.000000	160508.000000	1775715345.138931
-57651.120000	-27833.535000	-10173.780000	1000.215000	-17717.805000	-38626.515000	3319.155000	-20840.940000	-1.274146	0.189332	0.685863	1.474974	2.205393	8.218128	0.621627	-2.378278	-2.319520	2.090620	0.350980	-0.795530	-0.089599	0.586974	-1.000000	-1.000000	-1.000000	-1.000000	-1.000000	-1.000000	-1.000000	65.000000	0.000000	-1.000000	-1.000000	160509.000000	1775715345.138950
-57640.590000	-27823.905000	-10164.150000	1009.980000	-17708.490000	-38624.670000	3322.305000	-20831.805000	-0.521318	0.743784	1.069745	1.527057	1.853088	6.929595	1.747514	-0.810442	-2.319520	2.090620	0.350980	-0.795530	-0.089599	0.586974	-1.000000	-1.000000	-1.000000	-1.000000	-1.000000	-1.000000	-1.000000	65.000000	0.000000	-1.000000	-1.000000	160510.000000	1775715345.138961
-57643.065000	-27825.795000	-10165.905000	1008.180000	-17707.725000	-38621.835000	3322.980000	-20833.695000	1.313054	1.786135	1.860607	1.778131	1.561580	2.307180	2.410098	2.024898	-1.739640	2.105880	-0.015260	-0.796018	-0.091369	0.586852	-1.000000	-1.000000	-1.000000	-1.000000	-1.000000	-1.000000	-1.000000	65.000000	0.000000	-1.000000	-1.000000	160511.000000	1775715345.143532
-57647.655000	-27829.530000	-10168.965000	1003.905000	-17713.215000	-38625.660000	3319.920000	-20837.835000	3.209136	2.778173	2.601310	2.029812	1.465897	-3.069779	2.325932	4.447314	-1.739640	2.105880	-0.015260	-0.796018	-0.091369	0.586852	-1.000000	-1.000000	-1.000000	-1.000000	-1.000000	-1.000000	-1.000000	65.000000	0.000000	-1.000000	-1.000000	160512.000000	1775715345.143556
-57646.800000	-27828.180000	-10167.210000	1005.480000	-17715.330000	-38627.550000	3322.260000	-20837.025000	3.428371	2.503548	2.196171	1.318238	0.579434	-7.002708	1.294029	4.521029	-1.739640	2.105880	-0.015260	-0.796018	-0.091369	0.586852	-1.000000	-1.000000	-1.000000	-1.000000	-1.000000	-1.000000	-1.000000	65.000000	0.000000	-1.000000	-1.000000	160513.000000	1775715345.160264
-57654.270000	-27834.570000	-10173.600000	999.585000	-17721.360000	-38635.245000	3312.855000	-20846.070000	1.560808	0.722601	0.440104	-0.475837	-1.460730	-8.544060	-0.415326	2.036907	-1.739640	2.105880	-0.015260	-0.796018	-0.091369	0.586852	-1.000000	-1.000000	-1.000000	-1.000000	-1.000000	-1.000000	-1.000000	65.000000	0.000000	-1.000000	-1.000000	160514.000000	1775715345.160288
-57653.370000	-27831.915000	-10169.730000	1003.725000	-17716.185000	-38632.005000	3313.125000	-20846.115000	-1.250616	-1.599884	-1.768148	-2.387486	-3.581718	-7.666245	-2.238021	-1.569745	-1.739640	2.105880	-0.015260	-0.796018	-0.091369	0.586852	-1.000000	-1.000000	-1.000000	-1.000000	-1.000000	-1.000000	-1.000000	65.000000	0.000000	-1.000000	-1.000000	160515.000000	1775715345.160311
-57649.230000	-27826.515000	-10164.510000	1009.935000	-17710.695000	-38629.620000	3318.525000	-20841.750000	-3.248515	-3.005601	-3.044439	-3.101464	-4.051329	-4.633139	-3.270091	-4.211530	-1.739640	2.105880	-0.015260	-0.796018	-0.091369	0.586852	-1.000000	-1.000000	-1.000000	-1.000000	-1.000000	-1.000000	-1.000000	65.000000	0.000000	-1.000000	-1.000000	160516.000000	1775715345.160321
-57653.730000	-27832.050000	-10168.380000	1006.335000	-17714.835000	-38629.665000	3316.095000	-20845.845000	-3.208746	-2.593520	-2.531516	-1.986056	-2.179267	-0.167293	-2.591843	-4.334713	-1.739640	2.105880	-0.015260	-0.796018	-0.091369	0.586852	-1.000000	-1.000000	-1.000000	-1.000000	-1.000000	-1.000000	-1.000000	65.000000	0.000000	-1.000000	-1.000000	160517.000000	1775715345.160332
-57649.140000	-27830.115000	-10167.120000	1007.190000	-17711.955000	-38623.770000	3321.045000	-20839.770000	-1.451622	-0.990956	-0.882813	0.024456	0.728129	4.221473	-0.424660	-2.131777	-1.739640	2.105880	-0.015260	-0.796018	-0.091369	0.586852	-1.000000	-1.000000	-1.000000	-1.000000	-1.000000	-1.000000	-1.000000	65.000000	0.000000	-1.000000	-1.000000	160518.000000	1775715345.160341
-57649.095000	-27832.680000	-10171.890000	1001.250000	-17718.435000	-38631.645000	3319.650000	-20838.105000	0.767286	0.467625	0.481774	1.302369	2.677977	6.827858	1.941224	0.953618	-1.739640	2.105880	-0.015260	-0.796018	-0.091369	0.586852	-1.000000	-1.000000	-1.000000	-1.000000	-1.000000	-1.000000	-1.000000	65.000000	0.000000	-1.000000	-1.000000	160519.000000	1775715345.160352
-57646.980000	-27829.485000	-10168.155000	1005.120000	-17716.905000	-38632.005000	3322.080000	-20835.585000	2.385665	1.135348	0.839893	1.152021	2.695324	6.545267	3.260952	3.436679	-1.739640	2.105880	-0.015260	-0.796018	-0.091369	0.586852	-1.000000	-1.000000	-1.000000	-1.000000	-1.000000	-1.000000	-1.000000	65.000000	0.000000	-1.000000	-1.000000	160520.000000	1775715345.160361
-57651.480000	-27833.895000	-10172.655000	1000.080000	-17723.160000	-38640.015000	3317.175000	-20841.075000	2.745772	1.108298	0.477151	0.162788	1.185613	3.559806	2.943413	4.170805	-1.464960	2.105880	0.106820	-0.796812	-0.093017	0.585875	-1.000000	-1.000000	-1.000000	-1.000000	-1.000000	-1.000000	-1.000000	65.000000	0.000000	-1.000000	-1.000000	160521.000000	1775715345.171232
-57652.245000	-27836.460000	-10172.655000	1001.025000	-17721.315000	-38637.855000	3317.760000	-20841.030000	1.668478	0.585339	-0.036043	-0.720547	-0.670837	-0.488045	1.199007	2.725007	-1.464960	2.105880	0.106820	-0.796812	-0.093017	0.585875	-1.000000	-1.000000	-1.000000	-1.000000	-1.000000	-1.000000	-1.000000	65.000000	0.000000	-1.000000	-1.000000	160522.000000	1775715345.171280
-57647.430000	-27831.780000	-10168.740000	1005.255000	-17716.185000	-38631.915000	3321.405000	-20837.430000	-0.168362	-0.146622	-0.274843	-0.879702	-1.605971	-3.285391	-0.935885	-0.008023	-1.464960	2.105880	0.106820	-0.796812	-0.093017	0.585875	-1.000000	-1.000000	-1.000000	-1.000000	-1.000000	-1.000000	-1.000000	65.000000	0.000000	-1.000000	-1.000000	160523.000000	1775715345.171355
-57646.665000	-27829.620000	-10167.615000	1006.110000	-17714.970000	-38630.880000	3320.820000	-20837.340000	-1.459407	-0.416799	0.094765	-0.085647	-0.909410	-3.288713	-2.152540	-2.246827	-1.464960	2.105880	0.106820	-0.796812	-0.093017	0.585875	-1.000000	-1.000000	-1.000000	-1.000000	-1.000000	-1.000000	-1.000000	65.000000	0.000000	-1.000000	-1.000000	160524.000000	1775715345.171372
-57644.280000	-27824.850000	-10164.465000	1007.550000	-17714.700000	-38632.500000	3320.685000	-20836.305000	-1.469821	0.222464	0.979156	1.215580	0.847433	-1.070948	-2.003096	-2.871300	-1.464960	2.105880	0.106820	-0.796812	-0.093017	0.585875	-1.000000	-1.000000	-1.000000	-1.000000	-1.000000	-1.000000	-1.000000	65.000000	0.000000	-1.000000	-1.000000	160525.000000	1775715345.171390
-57643.695000	-27825.480000	-10165.005000	1006.470000	-17716.590000	-38638.980000	3318.930000	-20837.655000	-0.598935	1.318151	1.742424	2.062127	2.172806	1.141892	-1.117106	-2.126564	-1.464960	2.105880	0.106820	-0.796812	-0.093017	0.585875	-1.000000	-1.000000	-1.000000	-1.000000	-1.000000	-1.000000	-1.000000	65.000000	0.000000	-1.000000	-1.000000	160526.000000	1775715345.171403
-57646.530000	-27828.900000	-10169.055000	1002.330000	-17721.405000	-38650.230000	3314.565000	-20840.580000	0.213126	1.793912	1.641153	1.717752	1.939544	1.379211	-0.389414	-0.991311	-1.464960	2.105880	0.106820	-0.796812	-0.093017	0.585875	-1.000000	-1.000000	-1.000000	-1.000000	-1.000000	-1.000000	-1.000000	65.000000	0.000000	-1.000000	-1.000000	160527.000000	1775715345.172867
-57643.875000	-27826.020000	-10167.705000	1002.555000	-17724.015000	-38661.390000	3312.765000	-20837.430000	0.303359	0.957833	0.417402	0.208958	0.163141	-0.713656	-0.292400	-0.216160	-1.464960	2.105880	0.106820	-0.796812	-0.093017	0.585875	-1.000000	-1.000000	-1.000000	-1.000000	-1.000000	-1.000000	-1.000000	65.000000	0.000000	-1.000000	-1.000000	160528.000000	1775715345.172887
-57638.880000	-27820.170000	-10161.810000	1009.620000	-17715.780000	-38651.445000	3317.085000	-20833.245000	-0.094839	-0.569590	-1.144585	-1.428622	-1.872955	-3.392258	-0.493526	0.285066	-1.464960	2.105880	0.106820	-0.796812	-0.093017	0.585875	-1.000000	-1.000000	-1.000000	-1.000000	-1.000000	-1.000000	-1.000000	65.000000	0.000000	-1.000000	-1.000000	160529.000000	1775715345.183486
-57640.905000	-27820.305000	-10159.380000	1014.480000	-17707.365000	-38629.485000	3321.720000	-20835.045000	-0.277945	-1.492963	-1.748577	-1.775788	-2.309793	-3.429545	-0.107539	0.901539	-1.464960	2.105880	0.106820	-0.796812	-0.093017	0.585875	-1.000000	-1.000000	-1.000000	-1.000000	-1.000000	-1.000000	-1.000000	65.000000	0.000000	-1.000000	-1.000000	160530.000000	1775715345.183512
-57648.105000	-27825.390000	-10162.800000	1011.690000	-17708.130000	-38619.630000	3318.435000	-20840.805000	-0.282822	-1.499283	-1.103092	-0.579564	-0.534123	1.002015	1.127261	1.304509	-0.763000	2.319520	-0.198380	-0.796324	-0.092773	0.585570	-1.000000	-1.000000	-1.000000	-1.000000	-1.000000	-1.000000	-1.000000	65.000000	0.000000	-1.000000	-1.000000	160531.000000	1775715345.196545
-57653.550000	-27829.620000	-10165.860000	1009.485000	-17710.245000	-38614.275000	3319.650000	-20843.055000	-0.829062	-1.428422	-0.274438	0.773970	1.810619	7.478481	2.261864	0.776739	-0.763000	2.319520	-0.198380	-0.796324	-0.092773	0.585570	-1.000000	-1.000000	-1.000000	-1.000000	-1.000000	-1.000000	-1.000000	65.000000	0.000000	-1.000000	-1.000000	160532.000000	1775715345.196571
-57652.650000	-27828.450000	-10165.005000	1011.195000	-17706.690000	-38610.405000	3325.140000	-20840.535000	-1.912675	-1.778681	-0.235038	0.910168	2.585133	11.026446	2.379108	-0.490272	-0.763000	2.319520	-0.198380	-0.796324	-0.092773	0.585570	-1.000000	-1.000000	-1.000000	-1.000000	-1.000000	-1.000000	-1.000000	65.000000	0.000000	-1.000000	-1.000000	160533.000000	1775715345.196600
-57653.010000	-27831.690000	-10170.270000	1004.445000	-17714.340000	-38623.815000	3318.210000	-20842.290000	-2.409806	-2.001505	-0.840465	-0.177377	1.259492	8.445798	1.509973	-1.370683	-0.763000	2.319520	-0.198380	-0.796324	-0.092773	0.585570	-1.000000	-1.000000	-1.000000	-1.000000	-1.000000	-1.000000	-1.000000	65.000000	0.000000	-1.000000	-1.000000	160534.000000	1775715345.196612
-57654.585000	-27836.055000	-10175.490000	999.360000	-17721.045000	-38633.085000	3319.695000	-20843.100000	-1.441216	-1.519574	-1.494380	-1.735238	-1.366643	0.284988	-0.003477	-1.171012	-0.763000	2.319520	-0.198380	-0.796324	-0.092773	0.585570	-1.000000	-1.000000	-1.000000	-1.000000	-1.000000	-1.000000	-1.000000	65.000000	0.000000	-1.000000	-1.000000	160535.000000	1775715345.196627
-57655.575000	-27838.845000	-10178.505000	996.030000	-17724.555000	-38641.275000	3325.455000	-20842.155000	0.569312	-0.512077	-1.822927	-2.986526	-4.047156	-9.604655	-1.536333	-0.196633	-0.763000	2.319520	-0.198380	-0.796324	-0.092773	0.585570	-1.000000	-1.000000	-1.000000	-1.000000	-1.000000	-1.000000	-1.000000	65.000000	0.000000	-1.000000	-1.000000	160536.000000	1775715345.196639
-57656.610000	-27838.215000	-10177.110000	997.875000	-17721.270000	-38639.295000	3321.180000	-20843.145000	2.442621	0.610990	-1.462476	-3.100499	-5.221536	-15.965022	-2.172318	0.882811	-0.763000	2.319520	-0.198380	-0.796324	-0.092773	0.585570	-1.000000	-1.000000	-1.000000	-1.000000	-1.000000	-1.000000	-1.000000	65.000000	0.000000	-1.000000	-1.000000	160537.000000	1775715345.196652
-57659.130000	-27838.620000	-10176.120000	999.270000	-17721.090000	-38640.960000	3312.855000	-20847.465000	3.250378	1.706672	-0.102328	-1.536169	-3.767375	-15.266483	-1.950744	1.452246	-0.763000	2.319520	-0.198380	-0.796324	-0.092773	0.585570	-1.000000	-1.000000	-1.000000	-1.000000	-1.000000	-1.000000	-1.000000	65.000000	0.000000	-1.000000	-1.000000	160538.000000	1775715345.196663
-57655.800000	-27837.090000	-10175.265000	999.315000	-17721.495000	-38638.395000	3309.615000	-20847.960000	2.833720	2.664017	1.961106	1.254016	-0.193718	-7.981966	-1.822373	1.152180	-0.763000	2.319520	-0.198380	-0.796324	-0.092773	0.585570	-1.000000	-1.000000	-1.000000	-1.000000	-1.000000	-1.000000	-1.000000	65.000000	0.000000	-1.000000	-1.000000	160539.000000	1775715345.206998
-57653.955000	-27834.795000	-10172.790000	1001.970000	-17718.570000	-38637.270000	3312.855000	-20844.945000	1.810051	3.233338	3.785081	3.906061	3.586695	2.025370	-1.922704	0.321900	-0.763000	2.319520	-0.198380	-0.796324	-0.092773	0.585570	-1.000000	-1.000000	-1.000000	-1.000000	-1.000000	-1.000000	-1.000000	65.000000	0.000000	-1.000000	-1.000000	160540.000000	1775715345.207026
-57648.015000	-27830.385000	-10169.640000	1005.120000	-17714.160000	-38634.930000	3318.300000	-20838.285000	0.990651	3.235486	4.501957	5.188280	5.863739	10.183718	-1.220478	-0.086026	-0.961380	1.999060	0.137340	-0.796873	-0.091675	0.584898	-1.000000	-1.000000	-1.000000	-1.000000	-1.000000	-1.000000	-1.000000	65.000000	0.000000	-1.000000	-1.000000	160541.000000	1775715345.207053
-57649.860000	-27833.490000	-10174.005000	1000.125000	-17720.280000	-38637.360000	3315.510000	-20841.210000	0.628129	2.568970	3.746608	4.615935	5.920434	13.520546	0.803779	0.421332	-0.961380	1.999060	0.137340	-0.796873	-0.091675	0.584898	-1.000000	-1.000000	-1.000000	-1.000000	-1.000000	-1.000000	-1.000000	65.000000	0.000000	-1.000000	-1.000000	160542.000000	1775715345.207065
-57647.970000	-27830.520000	-10170.495000	1003.995000	-17717.760000	-38630.520000	3318.660000	-20840.310000	0.269427	1.138144	1.655209	2.387111	3.795496	11.663199	3.103129	1.134913	-0.961380	1.999060	0.137340	-0.796873	-0.091675	0.584898	-1.000000	-1.000000	-1.000000	-1.000000	-1.000000	-1.000000	-1.000000	65.000000	0.000000	-1.000000	-1.000000	160543.000000	1775715345.207080
-57651.525000	-27832.995000	-10172.115000	1003.140000	-17718.390000	-38629.620000	3319.830000	-20841.975000	-0.602778	-0.809801	-0.969476	-0.515351	0.445581	6.579017	4.221301	1.023536	-0.961380	1.999060	0.137340	-0.796873	-0.091675	0.584898	-1.000000	-1.000000	-1.000000	-1.000000	-1.000000	-1.000000	-1.000000	65.000000	0.000000	-1.000000	-1.000000	160544.000000	1775715345.207091
-57652.020000	-27834.480000	-10172.835000	1001.700000	-17720.010000	-38631.285000	3319.560000	-20842.380000	-1.945390	-2.654366	-3.036222	-2.816640	-2.561958	0.892379	3.632210	-0.076792	-0.961380	1.999060	0.137340	-0.796873	-0.091675	0.584898	-1.000000	-1.000000	-1.000000	-1.000000	-1.000000	-1.000000	-1.000000	65.000000	0.000000	-1.000000	-1.000000	160545.000000	1775715345.214538
-57655.845000	-27836.190000	-10174.005000	1001.160000	-17721.630000	-38636.415000	3314.070000	-20847.150000	-3.190980	-3.816753	-3.931284	-3.863169	-4.172184	-3.773211	1.620117	-1.556498	-0.961380	1.999060	0.137340	-0.796873	-0.091675	0.584898	-1.000000	-1.000000	-1.000000	-1.000000	-1.000000	-1.000000	-1.000000	65.000000	0.000000	-1.000000	-1.000000	160546.000000	1775715345.214581
-57651.120000	-27829.215000	-10168.290000	1006.785000	-17716.230000	-38632.095000	3317.670000	-20842.965000	-3.579517	-3.791000	-3.507678	-3.547783	-4.101836	-6.676908	-1.037302	-2.605858	-0.961380	1.999060	0.137340	-0.796873	-0.091675	0.584898	-1.000000	-1.000000	-1.000000	-1.000000	-1.000000	-1.000000	-1.000000	65.000000	0.000000	-1.000000	-1.000000	160547.000000	1775715345.214611
-57652.290000	-27831.735000	-10170.540000	1004.445000	-17717.805000	-38634.705000	3316.860000	-20843.325000	-2.588100	-2.328690	-1.925715	-2.048485	-2.541268	-7.276728	-3.089343	-2.512920	-0.961380	1.999060	0.137340	-0.796873	-0.091675	0.584898	-1.000000	-1.000000	-1.000000	-1.000000	-1.000000	-1.000000	-1.000000	65.000000	0.000000	-1.000000	-1.000000	160548.000000	1775715345.214622
-57655.980000	-27837.180000	-10175.490000	999.270000	-17722.620000	-38640.915000	3312.360000	-20846.115000	-0.588213	-0.195819	-0.034786	-0.227884	-0.409083	-5.743588	-3.647076	-1.247214	-0.961380	1.999060	0.137340	-0.796873	-0.091675	0.584898	-1.000000	-1.000000	-1.000000	-1.000000	-1.000000	-1.000000	-1.000000	65.000000	0.000000	-1.000000	-1.000000	160549.000000	1775715345.218537
-57653.865000	-27834.390000	-10173.015000	1000.845000	-17722.620000	-38643.570000	3311.955000	-20845.260000	1.278595	1.238686	1.045104	0.778146	0.986938	-3.269515	-2.935430	0.338735	-0.961380	1.999060	0.137340	-0.796873	-0.091675	0.584898	-1.000000	-1.000000	-1.000000	-1.000000	-1.000000	-1.000000	-1.000000	65.000000	0.000000	-1.000000	-1.000000	160550.000000	1775715345.218560
-57651.570000	-27831.735000	-10169.190000	1004.355000	-17720.775000	-38644.605000	3312.405000	-20844.990000	2.309150	1.602909	1.205490	0.863266	1.231638	-0.939753	-1.607125	1.422822	-1.312360	2.960440	-0.274680	-0.797544	-0.091797	0.585082	-1.000000	-1.000000	-1.000000	-1.000000	-1.000000	-1.000000	-1.000000	65.000000	0.000000	-1.000000	-1.000000	160551.000000	1775715345.227478
-57647.430000	-27826.470000	-10163.070000	1011.645000	-17712.990000	-38638.215000	3317.130000	-20841.705000	2.668495	1.645286	1.309055	0.964482	1.120349	1.110094	0.031205	1.863163	-1.312360	2.960440	-0.274680	-0.797544	-0.091797	0.585082	-1.000000	-1.000000	-1.000000	-1.000000	-1.000000	-1.000000	-1.000000	65.000000	0.000000	-1.000000	-1.000000	160552.000000	1775715345.227504
-57647.520000	-27826.740000	-10163.115000	1011.960000	-17711.640000	-38636.955000	3316.050000	-20841.750000	2.632943	1.885954	1.820315	1.667095	1.505081	3.142454	1.749690	1.878148	-1.312360	2.960440	-0.274680	-0.797544	-0.091797	0.585082	-1.000000	-1.000000	-1.000000	-1.000000	-1.000000	-1.000000	-1.000000	65.000000	0.000000	-1.000000	-1.000000	160553.000000	1775715345.227530
-57652.380000	-27832.230000	-10169.055000	1005.930000	-17719.245000	-38643.615000	3313.215000	-20844.135000	1.998058	1.861481	2.053006	2.256151	2.019592	4.676163	2.876976	1.507402	-1.312360	2.960440	-0.274680	-0.797544	-0.091797	0.585082	-1.000000	-1.000000	-1.000000	-1.000000	-1.000000	-1.000000	-1.000000	65.000000	0.000000	-1.000000	-1.000000	160554.000000	1775715345.227543
-57649.140000	-27828.540000	-10165.230000	1009.260000	-17716.680000	-38637.720000	3318.030000	-20839.140000	0.515016	0.880690	1.098289	1.585548	1.495094	4.663296	2.763495	0.706407	-1.312360	2.960440	-0.274680	-0.797544	-0.091797	0.585082	-1.000000	-1.000000	-1.000000	-1.000000	-1.000000	-1.000000	-1.000000	65.000000	0.000000	-1.000000	-1.000000	160555.000000	1775715345.231108
-57651.570000	-27830.790000	-10167.615000	1007.640000	-17716.545000	-38629.845000	3314.790000	-20843.505000	-1.299236	-0.753411	-0.746724	-0.246848	-0.180991	3.194288	1.615784	-0.248901	-1.312360	2.960440	-0.274680	-0.797544	-0.091797	0.585082	-1.000000	-1.000000	-1.000000	-1.000000	-1.000000	-1.000000	-1.000000	65.000000	0.000000	-1.000000	-1.000000	160556.000000	1775715345.231133
-57648.645000	-27827.415000	-10164.420000	1009.665000	-17714.070000	-38622.330000	3316.185000	-20842.695000	-2.470646	-1.991238	-2.256084	-1.992726	-1.775061	1.646249	0.140408	-1.053515	-1.312360	2.960440	-0.274680	-0.797544	-0.091797	0.585082	-1.000000	-1.000000	-1.000000	-1.000000	-1.000000	-1.000000	-1.000000	65.000000	0.000000	-1.000000	-1.000000	160557.000000	1775715345.237119
-57650.940000	-27827.055000	-10164.105000	1009.620000	-17714.745000	-38623.050000	3309.885000	-20847.285000	-2.485555	-2.119586	-2.538588	-2.626164	-2.238462	0.782307	-1.193445	-1.643262	-1.312360	2.960440	-0.274680	-0.797544	-0.091797	0.585082	-1.000000	-1.000000	-1.000000	-1.000000	-1.000000	-1.000000	-1.000000	65.000000	0.000000	-1.000000	-1.000000	160558.000000	1775715345.237145
-57648.645000	-27825.075000	-10161.180000	1013.895000	-17711.730000	-38620.305000	3309.210000	-20847.330000	-1.557929	-1.199530	-1.562087	-1.942675	-1.540916	0.009113	-2.195434	-1.954610	-1.312360	2.960440	-0.274680	-0.797544	-0.091797	0.585082	-1.000000	-1.000000	-1.000000	-1.000000	-1.000000	-1.000000	-1.000000	65.000000	0.000000	-1.000000	-1.000000	160559.000000	1775715345.252952
-57647.340000	-27823.050000	-10158.570000	1018.305000	-17706.690000	-38621.520000	3319.560000	-20842.110000	-0.245855	0.138236	0.048528	-0.338195	-0.212244	-1.378342	-2.419559	-1.688612	-1.312360	2.960440	-0.274680	-0.797544	-0.091797	0.585082	-1.000000	-1.000000	-1.000000	-1.000000	-1.000000	-1.000000	-1.000000	65.000000	0.000000	-1.000000	-1.000000	160560.000000	1775715345.252976
-57647.250000	-27822.465000	-10158.120000	1020.645000	-17702.145000	-38628.810000	3328.920000	-20835.810000	0.932008	1.185312	1.461612	1.460366	1.229870	-3.317156	-1.050128	-0.412004	-0.793520	2.594200	0.228900	-0.797544	-0.091858	0.585631	-1.000000	-1.000000	-1.000000	-1.000000	-1.000000	-1.000000	-1.000000	65.000000	0.000000	-1.000000	-1.000000	160561.000000	1775715345.253005
-57641.310000	-27818.370000	-10155.015000	1020.645000	-17703.990000	-38637.135000	3326.670000	-20831.445000	1.650507	1.552193	2.044039	2.537015	2.189208	-5.308787	1.691971	1.734944	-0.793520	2.594200	0.228900	-0.797544	-0.091858	0.585631	-1.000000	-1.000000	-1.000000	-1.000000	-1.000000	-1.000000	-1.000000	65.000000	0.000000	-1.000000	-1.000000	160562.000000	1775715345.253016
-57642.705000	-27821.835000	-10160.460000	1015.335000	-17709.300000	-38633.580000	3325.545000	-20832.390000	1.847815	1.216496	1.564078	2.128131	1.875045	-6.447786	3.775821	3.587218	-0.793520	2.594200	0.228900	-0.797544	-0.091858	0.585631	-1.000000	-1.000000	-1.000000	-1.000000	-1.000000	-1.000000	-1.000000	65.000000	0.000000	-1.000000	-1.000000	160563.000000	1775715345.253046
-57653.010000	-27835.110000	-10174.680000	1001.880000	-17720.370000	-38624.355000	3321.360000	-20840.940000	1.282536	0.052722	-0.085197	-0.017842	-0.158438	-5.293896	3.244966	3.566087	-0.793520	2.594200	0.228900	-0.797544	-0.091858	0.585631	-1.000000	-1.000000	-1.000000	-1.000000	-1.000000	-1.000000	-1.000000	65.000000	0.000000	-1.000000	-1.000000	160564.000000	1775715345.253058
-57648.015000	-27830.430000	-10170.045000	1006.605000	-17716.005000	-38617.740000	3325.680000	-20836.710000	-0.300395	-1.917867	-2.567844	-3.107236	-3.109417	-1.133639	0.330319	1.145597	-0.793520	2.594200	0.228900	-0.797544	-0.091858	0.585631	-1.000000	-1.000000	-1.000000	-1.000000	-1.000000	-1.000000	-1.000000	65.000000	0.000000	-1.000000	-1.000000	160565.000000	1775715345.253075
-57646.305000	-27828.630000	-10169.505000	1006.830000	-17716.995000	-38626.245000	3323.610000	-20835.540000	-2.004490	-3.427089	-4.232011	-5.019155	-4.880553	4.283343	-2.853559	-2.141693	-0.793520	2.594200	0.228900	-0.797544	-0.091858	0.585631	-1.000000	-1.000000	-1.000000	-1.000000	-1.000000	-1.000000	-1.000000	65.000000	0.000000	-1.000000	-1.000000	160566.000000	1775715345.253085
-57646.395000	-27827.865000	-10167.795000	1008.630000	-17715.870000	-38627.055000	3323.160000	-20835.360000	-2.389681	-2.874146	-3.351879	-3.968128	-3.885675	7.489777	-4.389031	-4.024003	-0.793520	2.594200	0.228900	-0.797544	-0.091858	0.585631	-1.000000	-1.000000	-1.000000	-1.000000	-1.000000	-1.000000	-1.000000	65.000000	0.000000	-1.000000	-1.000000	160567.000000	1775715345.254555
-57640.725000	-27824.400000	-10165.545000	1010.430000	-17712.765000	-38620.665000	3322.710000	-20833.020000	-1.166877	-0.323723	-0.173230	-0.408735	-0.592143	6.701196	-3.871936	-3.612058	-0.793520	2.594200	0.228900	-0.797544	-0.091858	0.585631	-1.000000	-1.000000	-1.000000	-1.000000	-1.000000	-1.000000	-1.000000	65.000000	0.000000	-1.000000	-1.000000	160568.000000	1775715345.254572
-57642.525000	-27825.480000	-10164.735000	1011.870000	-17711.190000	-38618.055000	3322.755000	-20835.315000	0.777020	2.631296	3.401106	3.533775	3.162708	3.420466	-2.005456	-1.659490	-0.793520	2.594200	0.228900	-0.797544	-0.091858	0.585631	-1.000000	-1.000000	-1.000000	-1.000000	-1.000000	-1.000000	-1.000000	65.000000	0.000000	-1.000000	-1.000000	160569.000000	1775715345.262694
-57648.735000	-27829.620000	-10167.660000	1008.855000	-17715.960000	-38627.235000	3320.370000	-20839.500000	2.062398	4.192369	5.362513	5.741561	5.438869	-0.012117	0.164363	0.341978	-0.793520	2.594200	0.228900	-0.797544	-0.091858	0.585631	-1.000000	-1.000000	-1.000000	-1.000000	-1.000000	-1.000000	-1.000000	65.000000	0.000000	-1.000000	-1.000000	160570.000000	1775715345.262724
-57653.955000	-27832.680000	-10169.235000	1007.145000	-17717.670000	-38632.590000	3315.060000	-20844.945000	1.574880	3.414954	4.715481	5.190762	5.059205	-2.776484	1.636154	1.144870	-1.449700	2.746800	-0.183120	-0.796629	-0.092895	0.585936	-1.000000	-1.000000	-1.000000	-1.000000	-1.000000	-1.000000	-1.000000	65.000000	0.000000	-1.000000	-1.000000	160571.000000	1775715345.263935
-57651.660000	-27829.125000	-10164.105000	1012.905000	-17712.990000	-38628.630000	3319.110000	-20840.805000	-0.373854	0.953316	2.100705	2.526391	2.484283	-4.662599	1.975461	0.692502	-1.449700	2.746800	-0.183120	-0.796629	-0.092895	0.585936	-1.000000	-1.000000	-1.000000	-1.000000	-1.000000	-1.000000	-1.000000	65.000000	0.000000	-1.000000	-1.000000	160572.000000	1775715345.263953
-57656.160000	-27833.220000	-10166.895000	1011.420000	-17715.240000	-38630.655000	3318.525000	-20841.750000	-2.142297	-1.443050	-0.720638	-0.409318	-0.451857	-4.871430	1.685351	0.105734	-1.449700	2.746800	-0.183120	-0.796629	-0.092895	0.585936	-1.000000	-1.000000	-1.000000	-1.000000	-1.000000	-1.000000	-1.000000	65.000000	0.000000	-1.000000	-1.000000	160573.000000	1775715345.265406
-57658.905000	-27838.170000	-10170.000000	1009.305000	-17716.005000	-38632.140000	3315.105000	-20844.495000	-2.497574	-2.631140	-2.507612	-2.255163	-2.279019	-3.084698	1.407583	0.261768	-1.449700	2.746800	-0.183120	-0.796629	-0.092895	0.585936	-1.000000	-1.000000	-1.000000	-1.000000	-1.000000	-1.000000	-1.000000	65.000000	0.000000	-1.000000	-1.000000	160574.000000	1775715345.265420
-57651.165000	-27831.780000	-10165.455000	1013.445000	-17710.605000	-38632.455000	3317.175000	-20840.895000	-1.359211	-2.555983	-3.087876	-2.843187	-2.669592	-0.292391	1.149721	0.952555	-1.449700	2.746800	-0.183120	-0.796629	-0.092895	0.585936	-1.000000	-1.000000	-1.000000	-1.000000	-1.000000	-1.000000	-1.000000	65.000000	0.000000	-1.000000	-1.000000	160575.000000	1775715345.277002
-57652.290000	-27832.095000	-10168.515000	1011.060000	-17714.970000	-38641.545000	3312.405000	-20845.305000	0.816988	-1.357017	-2.597656	-2.448862	-1.921354	1.986923	0.720385	1.561803	-1.449700	2.746800	-0.183120	-0.796629	-0.092895	0.585936	-1.000000	-1.000000	-1.000000	-1.000000	-1.000000	-1.000000	-1.000000	65.000000	0.000000	-1.000000	-1.000000	160576.000000	1775715345.277030
-57653.100000	-27830.790000	-10169.775000	1008.315000	-17720.190000	-38639.295000	3313.215000	-20844.945000	3.003899	0.549536	-1.440389	-1.564606	-0.895934	2.736051	0.106750	1.603764	-1.449700	2.746800	-0.183120	-0.796629	-0.092895	0.585936	-1.000000	-1.000000	-1.000000	-1.000000	-1.000000	-1.000000	-1.000000	65.000000	0.000000	-1.000000	-1.000000	160577.000000	1775715345.277085
-57653.865000	-27833.805000	-10172.790000	1003.635000	-17725.815000	-38640.870000	3313.800000	-20845.215000	3.842009	2.107340	-0.359976	-0.905483	-0.621909	2.179444	-0.467345	0.969861	-1.449700	2.746800	-0.183120	-0.796629	-0.092895	0.585936	-1.000000	-1.000000	-1.000000	-1.000000	-1.000000	-1.000000	-1.000000	65.000000	0.000000	-1.000000	-1.000000	160578.000000	1775715345.277098
-57657.960000	-27840.015000	-10178.685000	998.280000	-17729.325000	-38632.005000	3314.970000	-20848.320000	2.766696	2.263259	0.097024	-0.860607	-1.228551	1.510192	-0.614674	0.022501	-1.449700	2.746800	-0.183120	-0.796629	-0.092895	0.585936	-1.000000	-1.000000	-1.000000	-1.000000	-1.000000	-1.000000	-1.000000	65.000000	0.000000	-1.000000	-1.000000	160579.000000	1775715345.306839
-57654.225000	-27834.165000	-10170.585000	1006.380000	-17720.190000	-38622.105000	3312.990000	-20846.070000	0.464392	0.951125	0.073503	-0.985887	-1.632393	1.802070	-0.276674	-0.781579	-1.449700	2.746800	-0.183120	-0.796629	-0.092895	0.585936	-1.000000	-1.000000	-1.000000	-1.000000	-1.000000	-1.000000	-1.000000	65.000000	0.000000	-1.000000	-1.000000	160580.000000	1775715345.306865
-57645.720000	-27824.130000	-10160.415000	1016.325000	-17710.380000	-38614.635000	3318.300000	-20838.690000	-1.471089	-0.423964	0.566634	-0.100182	-0.368630	3.118202	0.222791	-0.942539	-0.717220	2.655240	-0.717220	-0.795957	-0.093811	0.586546	-1.000000	-1.000000	-1.000000	-1.000000	-1.000000	-1.000000	-1.000000	65.000000	0.000000	-1.000000	-1.000000	160581.000000	1775715345.306893
-57645.045000	-27823.365000	-10160.415000	1016.730000	-17712.810000	-38631.285000	3317.805000	-20838.195000	-1.711531	-0.332047	2.218064	2.270058	2.615533	3.878347	0.649064	-0.133568	-0.717220	2.655240	-0.717220	-0.795957	-0.093811	0.586546	-1.000000	-1.000000	-1.000000	-1.000000	-1.000000	-1.000000	-1.000000	65.000000	0.000000	-1.000000	-1.000000	160582.000000	1775715345.306906
-57647.790000	-27826.605000	-10164.330000	1013.895000	-17717.625000	-38654.505000	3317.895000	-20839.950000	-0.640388	0.825520	3.810975	4.569971	5.089462	1.499551	0.823287	1.031582	-0.717220	2.655240	-0.717220	-0.795957	-0.093811	0.586546	-1.000000	-1.000000	-1.000000	-1.000000	-1.000000	-1.000000	-1.000000	65.000000	0.000000	-1.000000	-1.000000	160583.000000	1775715345.307027
-57654.495000	-27834.615000	-10174.140000	1003.095000	-17727.480000	-38665.350000	3317.220000	-20844.495000	0.020107	1.121204	3.246132	4.421730	4.503958	-4.652832	0.492883	1.268343	-0.717220	2.655240	-0.717220	-0.795957	-0.093811	0.586546	-1.000000	-1.000000	-1.000000	-1.000000	-1.000000	-1.000000	-1.000000	65.000000	0.000000	-1.000000	-1.000000	160584.000000	1775715345.307044
-57653.460000	-27832.365000	-10171.800000	1005.345000	-17724.465000	-38651.265000	3320.055000	-20843.145000	-0.760384	-0.443724	0.068224	1.193375	0.751859	-10.774844	-0.264772	0.057282	-0.717220	2.655240	-0.717220	-0.795957	-0.093811	0.586546	-1.000000	-1.000000	-1.000000	-1.000000	-1.000000	-1.000000	-1.000000	65.000000	0.000000	-1.000000	-1.000000	160585.000000	1775715345.307064
-57661.020000	-27837.720000	-10174.815000	1003.590000	-17725.230000	-38633.490000	3314.970000	-20852.370000	-2.322988	-2.771587	-3.703685	-3.047404	-3.513065	-10.967991	-1.036116	-1.848399	-0.717220	2.655240	-0.717220	-0.795957	-0.093811	0.586546	-1.000000	-1.000000	-1.000000	-1.000000	-1.000000	-1.000000	-1.000000	65.000000	0.000000	-1.000000	-1.000000	160586.000000	1775715345.307076
-57663.180000	-27837.225000	-10173.600000	1005.210000	-17724.105000	-38626.515000	3312.045000	-20854.980000	-3.374746	-4.051109	-5.502258	-5.413379	-5.381267	-3.252641	-1.637340	-3.385710	-0.717220	2.655240	-0.717220	-0.795957	-0.093811	0.586546	-1.000000	-1.000000	-1.000000	-1.000000	-1.000000	-1.000000	-1.000000	65.000000	0.000000	-1.000000	-1.000000	160587.000000	1775715345.307091
-57657.465000	-27831.690000	-10168.020000	1011.330000	-17719.380000	-38627.550000	3313.125000	-20851.650000	-2.984552	-3.288132	-4.290606	-4.569124	-4.008623	7.630467	-2.009723	-3.700074	-0.717220	2.655240	-0.717220	-0.795957	-0.093811	0.586546	-1.000000	-1.000000	-1.000000	-1.000000	-1.000000	-1.000000	-1.000000	65.000000	0.000000	-1.000000	-1.000000	160588.000000	1775715345.307103
-57655.890000	-27831.555000	-10169.640000	1008.900000	-17722.755000	-38633.670000	3312.855000	-20850.435000	-0.792825	-0.642413	-0.877036	-1.292642	-0.668067	14.179689	-1.787755	-2.183136	-0.717220	2.655240	-0.717220	-0.795957	-0.093811	0.586546	-1.000000	-1.000000	-1.000000	-1.000000	-1.000000	-1.000000	-1.000000	65.000000	0.000000	-1.000000	-1.000000	160589.000000	1775715345.307117
-57657.870000	-27837.630000	-10177.515000	999.630000	-17730.135000	-38634.750000	3314.295000	-20849.400000	2.371509	2.416080	2.546285	2.053438	2.269536	12.395853	-0.716832	0.782052	-0.717220	2.655240	-0.717220	-0.795957	-0.093811	0.586546	-1.000000	-1.000000	-1.000000	-1.000000	-1.000000	-1.000000	-1.000000	65.000000	0.000000	-1.000000	-1.000000	160590.000000	1775715345.307127
-57664.440000	-27845.145000	-10182.375000	996.480000	-17726.985000	-38623.635000	3315.510000	-20853.540000	4.536548	3.780453	3.719798	3.116479	3.011740	4.484683	0.866259	3.599221	-0.961380	2.395820	-0.274680	-0.797117	-0.093200	0.585936	-1.000000	-1.000000	-1.000000	-1.000000	-1.000000	-1.000000	-1.000000	65.000000	0.000000	-1.000000	-1.000000	160591.000000	1775715345.307141
-57659.805000	-27838.530000	-10173.555000	1007.280000	-17713.935000	-38613.960000	3322.260000	-20848.680000	4.324851	2.715097	2.426451	1.870235	2.092692	-3.606022	2.357276	4.711844	-0.961380	2.395820	-0.274680	-0.797117	-0.093200	0.585936	-1.000000	-1.000000	-1.000000	-1.000000	-1.000000	-1.000000	-1.000000	65.000000	0.000000	-1.000000	-1.000000	160592.000000	1775715345.307152
-57651.210000	-27830.880000	-10167.165000	1013.175000	-17711.685000	-38618.730000	3321.630000	-20843.055000	2.494636	0.857225	0.771215	0.604377	1.501457	-7.484183	3.263262	4.007044	-0.961380	2.395820	-0.274680	-0.797117	-0.093200	0.585936	-1.000000	-1.000000	-1.000000	-1.000000	-1.000000	-1.000000	-1.000000	65.000000	0.000000	-1.000000	-1.000000	160593.000000	1775715345.307165
-57650.670000	-27832.230000	-10169.730000	1009.305000	-17716.905000	-38628.675000	3320.910000	-20843.550000	0.916365	0.218455	0.531947	0.852499	1.745904	-7.408798	3.095399	2.480755	-0.961380	2.395820	-0.274680	-0.797117	-0.093200	0.585936	-1.000000	-1.000000	-1.000000	-1.000000	-1.000000	-1.000000	-1.000000	65.000000	0.000000	-1.000000	-1.000000	160594.000000	1775715345.307176
-57655.530000	-27836.010000	-10172.790000	1005.795000	-17721.270000	-38629.665000	3322.395000	-20847.150000	0.155149	0.698838	1.104744	1.566018	1.334147	-6.113061	1.624472	0.712593	-0.961380	2.395820	-0.274680	-0.797117	-0.093200	0.585936	-1.000000	-1.000000	-1.000000	-1.000000	-1.000000	-1.000000	-1.000000	65.000000	0.000000	-1.000000	-1.000000	160595.000000	1775715345.311514
-57651.930000	-27832.500000	-10168.560000	1009.620000	-17718.975000	-38631.330000	3326.715000	-20842.605000	-0.618254	0.827432	0.972886	1.131619	-0.633409	-4.951549	-0.486351	-1.225372	-0.961380	2.395820	-0.274680	-0.797117	-0.093200	0.585936	-1.000000	-1.000000	-1.000000	-1.000000	-1.000000	-1.000000	-1.000000	65.000000	0.000000	-1.000000	-1.000000	160596.000000	1775715345.311560
-57651.930000	-27830.880000	-10165.770000	1012.140000	-17715.555000	-38628.000000	3325.680000	-20843.235000	-1.718118	0.085604	-0.032235	-0.312338	-2.943634	-3.316245	-2.085929	-2.817220	-0.961380	2.395820	-0.274680	-0.797117	-0.093200	0.585936	-1.000000	-1.000000	-1.000000	-1.000000	-1.000000	-1.000000	-1.000000	65.000000	0.000000	-1.000000	-1.000000	160597.000000	1775715345.314505
-57656.295000	-27833.310000	-10166.850000	1011.915000	-17714.565000	-38623.680000	3321.135000	-20848.005000	-2.632504	-0.922692	-1.039632	-1.526861	-3.756031	-0.478390	-2.730153	-3.485973	-0.961380	2.395820	-0.274680	-0.797117	-0.093200	0.585936	-1.000000	-1.000000	-1.000000	-1.000000	-1.000000	-1.000000	-1.000000	65.000000	0.000000	-1.000000	-1.000000	160598.000000	1775715345.314523
-57656.565000	-27833.355000	-10166.805000	1012.185000	-17714.070000	-38623.950000	3322.395000	-20847.870000	-3.017955	-1.690261	-1.582684	-1.881194	-2.612319	3.101826	-2.776442	-3.323741	-0.961380	2.395820	-0.274680	-0.797117	-0.093200	0.585936	-1.000000	-1.000000	-1.000000	-1.000000	-1.000000	-1.000000	-1.000000	65.000000	0.000000	-1.000000	-1.000000	160599.000000	1775715345.334888
-57653.955000	-27832.635000	-10167.075000	1011.195000	-17714.970000	-38623.545000	3325.500000	-20845.710000	-2.695120	-2.020005	-1.749403	-1.607400	-0.565524	5.850293	-2.350409	-2.533547	-0.961380	2.395820	-0.274680	-0.797117	-0.093200	0.585936	-1.000000	-1.000000	-1.000000	-1.000000	-1.000000	-1.000000	-1.000000	65.000000	0.000000	-1.000000	-1.000000	160600.000000	1775715345.334914
-57649.095000	-27828.720000	-10163.250000	1014.435000	-17711.235000	-38621.115000	3329.415000	-20840.715000	-1.388162	-1.685778	-1.570237	-1.083415	1.108091	6.393343	-1.143584	-0.996115	-1.693860	2.411080	0.457800	-0.797483	-0.093200	0.585692	-1.000000	-1.000000	-1.000000	-1.000000	-1.000000	-1.000000	-1.000000	65.000000	0.000000	-1.000000	-1.000000	160601.000000	1775715345.334941
-57646.665000	-27826.560000	-10160.280000	1016.820000	-17709.075000	-38622.690000	3329.370000	-20839.230000	0.762850	-0.600809	-0.884772	-0.391477	1.915464	4.669310	0.706493	1.142357	-1.693860	2.411080	0.457800	-0.797483	-0.093200	0.585692	-1.000000	-1.000000	-1.000000	-1.000000	-1.000000	-1.000000	-1.000000	65.000000	0.000000	-1.000000	-1.000000	160602.000000	1775715345.334953
-57646.755000	-27827.055000	-10160.550000	1017.315000	-17709.840000	-38624.040000	3328.605000	-20839.365000	2.810163	0.790634	0.206082	0.435859	1.962085	1.627736	2.264643	3.008985	-1.693860	2.411080	0.457800	-0.797483	-0.093200	0.585692	-1.000000	-1.000000	-1.000000	-1.000000	-1.000000	-1.000000	-1.000000	65.000000	0.000000	-1.000000	-1.000000	160603.000000	1775715345.334966
-57649.950000	-27831.600000	-10166.490000	1010.430000	-17717.715000	-38630.295000	3324.105000	-20841.120000	3.493857	1.561480	0.981773	0.933852	1.218305	-1.600420	2.504993	3.502929	-1.693860	2.411080	0.457800	-0.797483	-0.093200	0.585692	-1.000000	-1.000000	-1.000000	-1.000000	-1.000000	-1.000000	-1.000000	65.000000	0.000000	-1.000000	-1.000000	160604.000000	1775715345.334977
-57653.955000	-27833.715000	-10166.715000	1010.070000	-17718.345000	-38632.410000	3320.595000	-20846.430000	2.213412	1.037791	0.691658	0.508082	-0.371440	-4.087216	1.175053	2.183038	-1.693860	2.411080	0.457800	-0.797483	-0.093200	0.585692	-1.000000	-1.000000	-1.000000	-1.000000	-1.000000	-1.000000	-1.000000	65.000000	0.000000	-1.000000	-1.000000	160605.000000	1775715345.334991
-57648.420000	-27827.865000	-10159.920000	1016.460000	-17711.730000	-38627.055000	3325.635000	-20842.515000	-0.270130	-0.314035	-0.295596	-0.488843	-1.973574	-4.966675	-0.812890	-0.259419	-1.693860	2.411080	0.457800	-0.797483	-0.093200	0.585692	-1.000000	-1.000000	-1.000000	-1.000000	-1.000000	-1.000000	-1.000000	65.000000	0.000000	-1.000000	-1.000000	160606.000000	1775715345.335001
-57648.330000	-27827.595000	-10160.325000	1016.280000	-17711.100000	-38625.840000	3325.635000	-20841.345000	-2.197641	-1.140722	-0.713953	-0.841907	-2.160138	-3.614333	-1.902228	-2.245623	-1.693860	2.411080	0.457800	-0.797483	-0.093200	0.585692	-1.000000	-1.000000	-1.000000	-1.000000	-1.000000	-1.000000	-1.000000	65.000000	0.000000	-1.000000	-1.000000	160607.000000	1775715345.338598
-57653.055000	-27833.850000	-10166.805000	1009.710000	-17717.940000	-38630.115000	3321.360000	-20844.765000	-2.497370	-0.849346	-0.202051	-0.214735	-0.774431	-0.648137	-1.432244	-2.619578	-1.693860	2.411080	0.457800	-0.797483	-0.093200	0.585692	-1.000000	-1.000000	-1.000000	-1.000000	-1.000000	-1.000000	-1.000000	65.000000	0.000000	-1.000000	-1.000000	160608.000000	1775715345.338624
-57651.705000	-27835.560000	-10170.855000	1006.380000	-17721.045000	-38632.770000	3320.820000	-20844.090000	-1.653527	-0.251753	0.212765	0.342437	0.661788	2.026059	-0.242247	-1.661719	-1.693860	2.411080	0.457800	-0.797483	-0.093200	0.585692	-1.000000	-1.000000	-1.000000	-1.000000	-1.000000	-1.000000	-1.000000	65.000000	0.000000	-1.000000	-1.000000	160609.000000	1775715345.338652
-57652.965000	-27835.740000	-10170.450000	1006.920000	-17720.955000	-38634.030000	3319.650000	-20844.855000	-0.565968	-0.117360	-0.181326	0.082776	0.943357	2.914907	0.616055	-0.337704	-1.693860	2.411080	0.457800	-0.797483	-0.093200	0.585692	-1.000000	-1.000000	-1.000000	-1.000000	-1.000000	-1.000000	-1.000000	65.000000	0.000000	-1.000000	-1.000000	160610.000000	1775715345.338662
-57651.255000	-27832.230000	-10165.590000	1010.880000	-17718.030000	-38635.425000	3321.855000	-20842.020000	0.375365	-0.145580	-0.691687	-0.379120	0.483397	2.109383	0.923649	0.753333	-0.869820	2.426340	0.274680	-0.797605	-0.092773	0.585753	-1.000000	-1.000000	-1.000000	-1.000000	-1.000000	-1.000000	-1.000000	65.000000	0.000000	-1.000000	-1.000000	160611.000000	1775715345.342086
-57652.515000	-27831.510000	-10165.095000	1011.375000	-17718.525000	-38643.525000	3319.965000	-20842.605000	1.070328	0.311717	-0.251848	-0.068348	0.336572	0.565542	0.979555	1.451775	-0.869820	2.426340	0.274680	-0.797605	-0.092773	0.585753	-1.000000	-1.000000	-1.000000	-1.000000	-1.000000	-1.000000	-1.000000	65.000000	0.000000	-1.000000	-1.000000	160612.000000	1775715345.342110
-57647.340000	-27826.290000	-10159.695000	1016.595000	-17714.565000	-38648.205000	3322.035000	-20839.455000	1.492093	1.308863	1.181587	1.092456	0.855233	-0.996733	0.970285	1.727430	-0.869820	2.426340	0.274680	-0.797605	-0.092773	0.585753	-1.000000	-1.000000	-1.000000	-1.000000	-1.000000	-1.000000	-1.000000	65.000000	0.000000	-1.000000	-1.000000	160613.000000	1775715345.347034
-57652.020000	-27829.755000	-10162.485000	1014.660000	-17716.005000	-38648.745000	3314.070000	-20846.070000	1.614940	2.216763	2.608365	2.288806	1.575888	-2.038517	0.747901	1.464379	-0.869820	2.426340	0.274680	-0.797605	-0.092773	0.585753	-1.000000	-1.000000	-1.000000	-1.000000	-1.000000	-1.000000	-1.000000	65.000000	0.000000	-1.000000	-1.000000	160614.000000	1775715345.347058
-57651.885000	-27827.505000	-10159.515000	1018.710000	-17710.110000	-38629.800000	3312.945000	-20847.015000	1.232689	2.219900	2.908322	2.588922	1.875294	-1.575519	0.021081	0.484634	-0.869820	2.426340	0.274680	-0.797605	-0.092773	0.585753	-1.000000	-1.000000	-1.000000	-1.000000	-1.000000	-1.000000	-1.000000	65.000000	0.000000	-1.000000	-1.000000	160615.000000	1775715345.351945
-57645.855000	-27819.810000	-10149.930000	1029.060000	-17699.220000	-38614.275000	3315.780000	-20842.155000	0.388836	1.232491	1.943244	1.885846	1.724425	1.373473	-0.962157	-0.848907	-0.869820	2.426340	0.274680	-0.797605	-0.092773	0.585753	-1.000000	-1.000000	-1.000000	-1.000000	-1.000000	-1.000000	-1.000000	65.000000	0.000000	-1.000000	-1.000000	160616.000000	1775715345.351973
-57652.155000	-27827.370000	-10156.905000	1023.480000	-17703.765000	-38614.860000	3316.005000	-20845.080000	-0.381796	-0.051566	0.509393	0.815371	1.447623	5.803074	-1.303090	-1.565122	-0.869820	2.426340	0.274680	-0.797605	-0.092773	0.585753	-1.000000	-1.000000	-1.000000	-1.000000	-1.000000	-1.000000	-1.000000	65.000000	0.000000	-1.000000	-1.000000	160617.000000	1775715345.353478
-57658.815000	-27837.765000	-10169.235000	1011.240000	-17714.250000	-38616.030000	3324.870000	-20844.540000	-1.010703	-1.493933	-1.227098	-0.688595	0.498567	8.211232	-0.424787	-1.258166	-0.869820	2.426340	0.274680	-0.797605	-0.092773	0.585753	-1.000000	-1.000000	-1.000000	-1.000000	-1.000000	-1.000000	-1.000000	65.000000	0.000000	-1.000000	-1.000000	160618.000000	1775715345.353503
-57658.815000	-27840.780000	-10174.950000	1004.850000	-17719.065000	-38619.135000	3332.655000	-20842.020000	-1.838906	-3.386445	-3.679472	-3.224673	-1.976044	5.777692	1.460134	-0.380741	-0.869820	2.426340	0.274680	-0.797605	-0.092773	0.585753	-1.000000	-1.000000	-1.000000	-1.000000	-1.000000	-1.000000	-1.000000	65.000000	0.000000	-1.000000	-1.000000	160619.000000	1775715345.357493
-57657.015000	-27838.755000	-10173.150000	1006.425000	-17720.550000	-38630.070000	3330.360000	-20841.840000	-2.401695	-4.858055	-5.932342	-5.915406	-5.130007	-0.840912	3.341987	0.552874	-0.869820	2.426340	0.274680	-0.797605	-0.092773	0.585753	-1.000000	-1.000000	-1.000000	-1.000000	-1.000000	-1.000000	-1.000000	65.000000	0.000000	-1.000000	-1.000000	160620.000000	1775715345.357513
-57655.440000	-27836.910000	-10171.620000	1007.910000	-17722.440000	-38636.595000	3326.760000	-20843.730000	-1.767779	-4.270125	-5.903359	-6.472433	-6.686981	-8.350126	3.583412	1.124667	-1.709120	2.456860	-0.335720	-0.796690	-0.092895	0.585570	-1.000000	-1.000000	-1.000000	-1.000000	-1.000000	-1.000000	-1.000000	65.000000	0.000000	-1.000000	-1.000000	160621.000000	1775715345.362825
-57649.770000	-27831.420000	-10166.535000	1012.365000	-17719.920000	-38637.315000	3324.870000	-20841.300000	0.194950	-1.164847	-2.662371	-3.633050	-5.182207	-12.963719	1.304621	1.037665	-1.709120	2.456860	-0.335720	-0.796690	-0.092895	0.585570	-1.000000	-1.000000	-1.000000	-1.000000	-1.000000	-1.000000	-1.000000	65.000000	0.000000	-1.000000	-1.000000	160622.000000	1775715345.362849
-57646.170000	-27828.540000	-10162.620000	1015.335000	-17716.230000	-38632.770000	3324.330000	-20838.330000	2.642044	3.109894	2.471148	1.468395	-1.069599	-12.134617	-2.389733	0.518581	-1.709120	2.456860	-0.335720	-0.796690	-0.092895	0.585570	-1.000000	-1.000000	-1.000000	-1.000000	-1.000000	-1.000000	-1.000000	65.000000	0.000000	-1.000000	-1.000000	160623.000000	1775715345.369471
-57650.670000	-27831.735000	-10164.465000	1014.030000	-17715.420000	-38626.650000	3324.870000	-20841.345000	4.208421	6.271332	6.842304	6.144928	3.760557	-5.915003	-5.230924	0.040795	-1.709120	2.456860	-0.335720	-0.796690	-0.092895	0.585570	-1.000000	-1.000000	-1.000000	-1.000000	-1.000000	-1.000000	-1.000000	65.000000	0.000000	-1.000000	-1.000000	160624.000000	1775715345.369498
