Channel1	Channel2	Channel3	Channel4	Channel5	Channel6	Channel7	Channel8	FilteredChannel1	FilteredChannel2	FilteredChannel3	FilteredChannel4	FilteredChannel5	FilteredChannel6	FilteredChannel7	FilteredChannel8	GyroX	GyroY	GyroZ	AccX	AccY	AccZ	PPG1	PPG2	rawPPG1	rawPPG2	rawPPG3	Hr	Hrv	Battery	Trigger	PhysicalTrigger	AutoTrigger	NumMeasurements	Timestamp
-65777.220000	-32976.000000	-15871.500000	-4110.975000	-22924.800000	-38470.635000	967.725000	-30399.120000	3.940843	3.370413	3.931829	4.752653	2.379142	9.803786	2.673085	3.027757	-0.930860	1.754900	0.625660	-0.841245	-0.263610	0.468749	-1.000000	-1.000000	-1.000000	-1.000000	-1.000000	-1.000000	-1.000000	63.000000	0.000000	-1.000000	-1.000000	369324.000000	1775715763.082251
-65780.370000	-32978.070000	-15873.255000	-4113.045000	-22921.740000	-38475.270000	962.370000	-30403.755000	2.396179	2.302402	1.939931	1.414903	3.878084	6.769788	1.529195	1.775932	-0.930860	1.754900	0.625660	-0.841245	-0.263610	0.468749	-1.000000	-1.000000	-1.000000	-1.000000	-1.000000	-1.000000	-1.000000	63.000000	0.000000	-1.000000	-1.000000	369325.000000	1775715763.082277
-65773.800000	-32973.705000	-15870.150000	-4110.255000	-22919.580000	-38480.040000	966.330000	-30397.770000	0.138937	0.540081	-0.314462	-2.137625	3.910336	-0.548143	-0.790397	-0.342009	-0.930860	1.754900	0.625660	-0.841245	-0.263610	0.468749	-1.000000	-1.000000	-1.000000	-1.000000	-1.000000	-1.000000	-1.000000	63.000000	0.000000	-1.000000	-1.000000	369326.000000	1775715763.082289
-65772.180000	-32980.230000	-15880.815000	-4122.630000	-22928.175000	-38479.005000	974.925000	-30395.025000	-1.516956	-1.237969	-2.160161	-4.460277	2.227497	-7.859945	-2.216601	-1.778497	-0.930860	1.754900	0.625660	-0.841245	-0.263610	0.468749	-1.000000	-1.000000	-1.000000	-1.000000	-1.000000	-1.000000	-1.000000	63.000000	0.000000	-1.000000	-1.000000	369327.000000	1775715763.089577
-65776.545000	-32984.280000	-15885.765000	-4129.965000	-22946.355000	-38469.780000	986.130000	-30393.225000	-1.863106	-2.581734	-3.506881	-5.389105	-1.085954	-10.953031	-1.123954	-1.496373	-0.930860	1.754900	0.625660	-0.841245	-0.263610	0.468749	-1.000000	-1.000000	-1.000000	-1.000000	-1.000000	-1.000000	-1.000000	63.000000	0.000000	-1.000000	-1.000000	369328.000000	1775715763.093788
-65780.190000	-32980.950000	-15877.665000	-4118.670000	-22937.040000	-38464.740000	980.145000	-30398.445000	-1.576988	-3.295976	-4.119169	-5.027815	-5.087419	-8.233969	1.839521	-0.152969	-0.930860	1.754900	0.625660	-0.841245	-0.263610	0.468749	-1.000000	-1.000000	-1.000000	-1.000000	-1.000000	-1.000000	-1.000000	63.000000	0.000000	-1.000000	-1.000000	369329.000000	1775715763.765238
-65780.595000	-32977.080000	-15870.195000	-4106.205000	-22921.200000	-38452.320000	979.335000	-30400.380000	-1.546307	-2.825340	-2.935508	-2.497425	-6.880001	-1.491517	3.918217	0.675042	-0.930860	1.754900	0.625660	-0.841245	-0.263610	0.468749	-1.000000	-1.000000	-1.000000	-1.000000	-1.000000	-1.000000	-1.000000	63.000000	0.000000	-1.000000	-1.000000	369330.000000	1775715763.765264
-65775.555000	-32974.380000	-15869.970000	-4107.015000	-22918.770000	-38454.705000	979.470000	-30399.120000	-1.581731	-0.861034	0.346843	2.304189	-3.943818	5.403962	3.031552	0.265295	-0.412020	1.846460	1.068200	-0.842405	-0.263976	0.468016	-1.000000	-1.000000	-1.000000	-1.000000	-1.000000	-1.000000	-1.000000	63.000000	0.000000	-1.000000	-1.000000	369331.000000	1775715763.765521
-65768.760000	-32972.400000	-15871.005000	-4111.335000	-22921.920000	-38461.005000	981.360000	-30395.115000	-0.788449	1.770226	3.888729	6.756354	2.067884	8.600423	-0.122038	-0.597391	-0.412020	1.846460	1.068200	-0.842405	-0.263976	0.468016	-1.000000	-1.000000	-1.000000	-1.000000	-1.000000	-1.000000	-1.000000	63.000000	0.000000	-1.000000	-1.000000	369332.000000	1775715763.765546
-65769.435000	-32973.795000	-15873.390000	-4114.305000	-22925.565000	-38464.425000	981.630000	-30394.440000	1.028686	3.559252	5.234727	7.572470	6.495807	6.397111	-3.209727	-0.762476	-0.412020	1.846460	1.068200	-0.842405	-0.263976	0.468016	-1.000000	-1.000000	-1.000000	-1.000000	-1.000000	-1.000000	-1.000000	63.000000	0.000000	-1.000000	-1.000000	369333.000000	1775715763.765570
-65774.970000	-32978.025000	-15877.170000	-4118.535000	-22930.515000	-38472.345000	975.870000	-30398.805000	2.613640	3.385295	3.540890	4.117814	6.295907	0.447089	-4.614452	-0.141518	-0.412020	1.846460	1.068200	-0.842405	-0.263976	0.468016	-1.000000	-1.000000	-1.000000	-1.000000	-1.000000	-1.000000	-1.000000	63.000000	0.000000	-1.000000	-1.000000	369334.000000	1775715763.765583
-65768.895000	-32969.790000	-15868.215000	-4109.805000	-22921.875000	-38467.665000	977.310000	-30395.970000	2.546389	1.438914	0.172081	-1.102189	2.373317	-5.450328	-4.255988	0.426925	-0.412020	1.846460	1.068200	-0.842405	-0.263976	0.468016	-1.000000	-1.000000	-1.000000	-1.000000	-1.000000	-1.000000	-1.000000	63.000000	0.000000	-1.000000	-1.000000	369335.000000	1775715763.765597
-65772.720000	-32969.430000	-15866.280000	-4106.970000	-22920.840000	-38471.580000	973.485000	-30400.425000	0.963123	-0.728694	-2.385904	-4.562481	-1.814810	-7.911448	-2.771426	0.398035	-0.412020	1.846460	1.068200	-0.842405	-0.263976	0.468016	-1.000000	-1.000000	-1.000000	-1.000000	-1.000000	-1.000000	-1.000000	63.000000	0.000000	-1.000000	-1.000000	369336.000000	1775715763.765608
-65767.365000	-32963.220000	-15860.205000	-4101.120000	-22914.990000	-38469.690000	975.105000	-30395.340000	-0.859229	-1.662630	-2.624605	-4.466887	-3.517322	-6.026402	-0.794737	-0.026988	-0.412020	1.846460	1.068200	-0.842405	-0.263976	0.468016	-1.000000	-1.000000	-1.000000	-1.000000	-1.000000	-1.000000	-1.000000	63.000000	0.000000	-1.000000	-1.000000	369337.000000	1775715763.765622
-65771.505000	-32968.845000	-15865.155000	-4106.655000	-22918.455000	-38474.955000	972.630000	-30398.445000	-1.898344	-1.331494	-1.173361	-1.905704	-2.614744	-1.555864	1.117295	-0.327065	-0.412020	1.846460	1.068200	-0.842405	-0.263976	0.468016	-1.000000	-1.000000	-1.000000	-1.000000	-1.000000	-1.000000	-1.000000	63.000000	0.000000	-1.000000	-1.000000	369338.000000	1775715763.765633
-65776.905000	-32976.315000	-15872.265000	-4113.630000	-22921.245000	-38475.540000	976.635000	-30400.785000	-2.091516	-0.946867	0.008115	0.399457	-0.904879	2.742427	2.553583	-0.320102	-0.412020	1.846460	1.068200	-0.842405	-0.263976	0.468016	-1.000000	-1.000000	-1.000000	-1.000000	-1.000000	-1.000000	-1.000000	63.000000	0.000000	-1.000000	-1.000000	369339.000000	1775715763.765646
-65783.565000	-32984.235000	-15882.795000	-4126.770000	-22924.170000	-38481.120000	973.620000	-30405.960000	-2.099936	-1.652053	-0.614440	0.357725	-0.144552	4.925311	3.283284	-0.368919	-0.412020	1.846460	1.068200	-0.842405	-0.263976	0.468016	-1.000000	-1.000000	-1.000000	-1.000000	-1.000000	-1.000000	-1.000000	63.000000	0.000000	-1.000000	-1.000000	369340.000000	1775715763.765657
-65786.355000	-32987.745000	-15887.655000	-4134.645000	-22922.415000	-38479.005000	973.395000	-30406.365000	-2.254558	-3.172048	-2.771290	-1.962750	-0.575331	4.684952	3.120904	-0.711047	-1.144500	2.136400	1.083460	-0.842832	-0.262817	0.467345	-1.000000	-1.000000	-1.000000	-1.000000	-1.000000	-1.000000	-1.000000	63.000000	0.000000	-1.000000	-1.000000	369341.000000	1775715763.765671
-65783.115000	-32986.035000	-15885.225000	-4134.105000	-22919.985000	-38470.095000	977.670000	-30402.720000	-1.975882	-3.905264	-4.459326	-4.392618	-1.099640	3.243318	2.143210	-0.896177	-1.144500	2.136400	1.083460	-0.842832	-0.262817	0.467345	-1.000000	-1.000000	-1.000000	-1.000000	-1.000000	-1.000000	-1.000000	63.000000	0.000000	-1.000000	-1.000000	369342.000000	1775715763.765682
-65770.245000	-32973.120000	-15867.855000	-4118.760000	-22940.010000	-38469.645000	973.710000	-30398.715000	-0.269458	-2.236175	-3.313214	-4.052184	-1.059442	2.192547	0.862469	-0.196831	-1.144500	2.136400	1.083460	-0.842832	-0.262817	0.467345	-1.000000	-1.000000	-1.000000	-1.000000	-1.000000	-1.000000	-1.000000	63.000000	0.000000	-1.000000	-1.000000	369343.000000	1775715763.765696
-65768.175000	-32973.705000	-15869.790000	-4110.840000	-22936.320000	-38476.530000	969.210000	-30399.975000	3.020998	1.918764	1.247905	0.378981	-1.058811	1.705114	-0.420877	1.348589	-1.144500	2.136400	1.083460	-0.842832	-0.262817	0.467345	-1.000000	-1.000000	-1.000000	-1.000000	-1.000000	-1.000000	-1.000000	63.000000	0.000000	-1.000000	-1.000000	369344.000000	1775715763.765707
-65778.795000	-32982.030000	-15882.030000	-4120.065000	-22936.365000	-38484.180000	967.995000	-30406.005000	6.006698	6.156863	6.369558	6.629567	-1.160833	0.509094	-1.724995	2.537198	-1.144500	2.136400	1.083460	-0.842832	-0.262817	0.467345	-1.000000	-1.000000	-1.000000	-1.000000	-1.000000	-1.000000	-1.000000	63.000000	0.000000	-1.000000	-1.000000	369345.000000	1775715763.765721
-65771.100000	-32976.045000	-15875.775000	-4114.215000	-22924.800000	-38471.445000	965.385000	-30403.440000	6.089903	7.369777	7.984529	10.144408	-0.143547	-1.717873	-2.704964	2.182442	-1.144500	2.136400	1.083460	-0.842832	-0.262817	0.467345	-1.000000	-1.000000	-1.000000	-1.000000	-1.000000	-1.000000	-1.000000	63.000000	0.000000	-1.000000	-1.000000	369346.000000	1775715763.765732
-65768.535000	-32971.050000	-15869.340000	-4109.895000	-22920.480000	-38472.120000	965.790000	-30402.675000	3.129825	5.094691	5.393740	8.606276	2.579634	-3.272450	-2.768311	0.574107	-1.144500	2.136400	1.083460	-0.842832	-0.262817	0.467345	-1.000000	-1.000000	-1.000000	-1.000000	-1.000000	-1.000000	-1.000000	63.000000	0.000000	-1.000000	-1.000000	369347.000000	1775715763.765745
-65769.930000	-32970.465000	-15867.945000	-4108.860000	-22924.080000	-38472.120000	972.270000	-30403.215000	-0.640866	1.478331	1.361831	3.630306	5.568197	-2.823633	-1.583948	-0.971421	-1.144500	2.136400	1.083460	-0.842832	-0.262817	0.467345	-1.000000	-1.000000	-1.000000	-1.000000	-1.000000	-1.000000	-1.000000	63.000000	0.000000	-1.000000	-1.000000	369348.000000	1775715763.765756
-65778.120000	-32977.170000	-15870.915000	-4109.535000	-22924.080000	-38461.230000	972.270000	-30409.965000	-3.527837	-1.665412	-1.724986	-1.863224	6.335427	-0.956068	0.629387	-1.745853	-1.144500	2.136400	1.083460	-0.842832	-0.262817	0.467345	-1.000000	-1.000000	-1.000000	-1.000000	-1.000000	-1.000000	-1.000000	63.000000	0.000000	-1.000000	-1.000000	369349.000000	1775715763.765769
-65778.300000	-32978.340000	-15871.095000	-4108.950000	-22923.405000	-38457.090000	970.740000	-30411.225000	-5.207388	-3.953661	-3.460181	-5.842962	3.866147	1.223128	2.787910	-1.999895	-1.144500	2.136400	1.083460	-0.842832	-0.262817	0.467345	-1.000000	-1.000000	-1.000000	-1.000000	-1.000000	-1.000000	-1.000000	63.000000	0.000000	-1.000000	-1.000000	369350.000000	1775715763.765780
-65773.710000	-32977.845000	-15878.925000	-4119.165000	-22925.925000	-38458.755000	971.190000	-30408.840000	-5.407396	-5.220404	-4.305983	-7.593992	-0.445644	2.707160	3.516557	-1.894057	-1.342880	1.876980	1.037680	-0.841367	-0.261230	0.467284	-1.000000	-1.000000	-1.000000	-1.000000	-1.000000	-1.000000	-1.000000	63.000000	0.000000	-1.000000	-1.000000	369351.000000	1775715763.765794
-65775.555000	-32979.195000	-15880.995000	-4122.270000	-22927.905000	-38469.195000	969.390000	-30410.955000	-3.706274	-4.967639	-4.605780	-7.494351	-4.360928	2.271489	2.406860	-1.139236	-1.342880	1.876980	1.037680	-0.841367	-0.261230	0.467284	-1.000000	-1.000000	-1.000000	-1.000000	-1.000000	-1.000000	-1.000000	63.000000	0.000000	-1.000000	-1.000000	369352.000000	1775715763.765804
-65777.625000	-32980.275000	-15879.915000	-4120.200000	-22928.355000	-38471.040000	972.450000	-30412.620000	-0.721258	-3.176971	-4.172637	-5.982476	-6.314884	-0.506283	0.292976	0.155792	-1.342880	1.876980	1.037680	-0.841367	-0.261230	0.467284	-1.000000	-1.000000	-1.000000	-1.000000	-1.000000	-1.000000	-1.000000	63.000000	0.000000	-1.000000	-1.000000	369353.000000	1775715763.765818
-65786.715000	-32987.520000	-15886.305000	-4126.050000	-22936.410000	-38480.715000	965.700000	-30418.920000	1.819115	-0.759236	-2.632217	-3.129264	-5.954164	-4.228547	-1.635292	1.199972	-1.342880	1.876980	1.037680	-0.841367	-0.261230	0.467284	-1.000000	-1.000000	-1.000000	-1.000000	-1.000000	-1.000000	-1.000000	63.000000	0.000000	-1.000000	-1.000000	369354.000000	1775715763.765829
-65774.790000	-32977.710000	-15877.935000	-4119.840000	-22929.300000	-38474.280000	966.015000	-30410.010000	2.786894	1.274122	-0.171015	0.560602	-3.893881	-6.473471	-2.754746	1.492725	-1.342880	1.876980	1.037680	-0.841367	-0.261230	0.467284	-1.000000	-1.000000	-1.000000	-1.000000	-1.000000	-1.000000	-1.000000	63.000000	0.000000	-1.000000	-1.000000	369355.000000	1775715763.765843
-65763.720000	-32969.655000	-15870.600000	-4113.180000	-22920.480000	-38465.820000	967.860000	-30404.160000	3.003495	2.925995	2.744702	4.216061	-0.698307	-5.297033	-2.877434	1.615927	-1.342880	1.876980	1.037680	-0.841367	-0.261230	0.467284	-1.000000	-1.000000	-1.000000	-1.000000	-1.000000	-1.000000	-1.000000	63.000000	0.000000	-1.000000	-1.000000	369356.000000	1775715763.765853
-65766.645000	-32971.095000	-15870.420000	-4110.705000	-22917.105000	-38469.015000	966.645000	-30406.455000	3.665174	4.469384	5.448125	7.013209	3.133006	-0.747597	-1.911706	2.165355	-1.342880	1.876980	1.037680	-0.841367	-0.261230	0.467284	-1.000000	-1.000000	-1.000000	-1.000000	-1.000000	-1.000000	-1.000000	63.000000	0.000000	-1.000000	-1.000000	369357.000000	1775715763.765867
-65772.450000	-32974.920000	-15874.065000	-4115.160000	-22917.915000	-38474.280000	967.230000	-30410.235000	3.947655	4.974219	6.526129	7.824210	6.140438	4.388328	-0.249407	2.387000	-1.342880	1.876980	1.037680	-0.841367	-0.261230	0.467284	-1.000000	-1.000000	-1.000000	-1.000000	-1.000000	-1.000000	-1.000000	63.000000	0.000000	-1.000000	-1.000000	369358.000000	1775715763.765878
-65783.385000	-32984.730000	-15885.045000	-4129.830000	-22922.640000	-38468.520000	974.160000	-30416.940000	2.036568	3.114178	4.614571	5.497329	6.424476	6.865957	1.419170	1.095795	-1.342880	1.876980	1.037680	-0.841367	-0.261230	0.467284	-1.000000	-1.000000	-1.000000	-1.000000	-1.000000	-1.000000	-1.000000	63.000000	0.000000	-1.000000	-1.000000	369359.000000	1775715763.765892
-65783.070000	-32984.370000	-15883.335000	-4131.405000	-22925.925000	-38472.345000	976.770000	-30416.490000	-2.047396	-0.865052	0.082146	0.266158	3.426589	5.918804	2.713865	-1.560532	-1.342880	1.876980	1.037680	-0.841367	-0.261230	0.467284	-1.000000	-1.000000	-1.000000	-1.000000	-1.000000	-1.000000	-1.000000	63.000000	0.000000	-1.000000	-1.000000	369360.000000	1775715763.765903
-65775.465000	-32974.830000	-15871.365000	-4116.375000	-22932.450000	-38481.705000	975.780000	-30411.270000	-5.703528	-4.554923	-4.319535	-5.010644	-1.396753	2.740754	3.274831	-3.829528	-1.571780	1.770160	0.808780	-0.841795	-0.261169	0.467406	-1.000000	-1.000000	-1.000000	-1.000000	-1.000000	-1.000000	-1.000000	63.000000	0.000000	-1.000000	-1.000000	369361.000000	1775715763.765918
-65773.935000	-32974.290000	-15869.025000	-4100.940000	-22917.780000	-38483.730000	976.005000	-30409.290000	-6.021395	-5.234149	-5.424701	-6.292149	-5.286213	-1.215750	2.576037	-3.868603	-1.571780	1.770160	0.808780	-0.841795	-0.261169	0.467406	-1.000000	-1.000000	-1.000000	-1.000000	-1.000000	-1.000000	-1.000000	63.000000	0.000000	-1.000000	-1.000000	369362.000000	1775715763.765929
-65771.955000	-32972.715000	-15866.865000	-4102.380000	-22920.525000	-38471.130000	977.805000	-30406.815000	-2.735315	-2.642944	-2.856000	-2.497885	-5.787807	-4.070808	0.680164	-1.569059	-1.571780	1.770160	0.808780	-0.841795	-0.261169	0.467406	-1.000000	-1.000000	-1.000000	-1.000000	-1.000000	-1.000000	-1.000000	63.000000	0.000000	-1.000000	-1.000000	369363.000000	1775715763.765943
-65767.770000	-32969.970000	-15865.740000	-4106.340000	-22925.610000	-38460.780000	976.680000	-30405.465000	1.774537	0.995054	0.835213	2.759374	-3.037816	-3.766156	-1.499105	1.439774	-1.571780	1.770160	0.808780	-0.841795	-0.261169	0.467406	-1.000000	-1.000000	-1.000000	-1.000000	-1.000000	-1.000000	-1.000000	63.000000	0.000000	-1.000000	-1.000000	369364.000000	1775715763.765954
-65772.135000	-32973.075000	-15869.790000	-4109.805000	-22920.840000	-38459.970000	970.875000	-30410.730000	4.792690	3.304833	2.878682	4.802955	0.389854	-0.275447	-3.086590	3.216258	-1.571780	1.770160	0.808780	-0.841795	-0.261169	0.467406	-1.000000	-1.000000	-1.000000	-1.000000	-1.000000	-1.000000	-1.000000	63.000000	0.000000	-1.000000	-1.000000	369365.000000	1775715763.765968
-65772.765000	-32972.490000	-15868.530000	-4108.185000	-22917.375000	-38461.545000	966.960000	-30413.070000	4.857988	3.241039	2.251418	2.383166	2.553176	3.542172	-3.863369	2.709129	-1.571780	1.770160	0.808780	-0.841795	-0.261169	0.467406	-1.000000	-1.000000	-1.000000	-1.000000	-1.000000	-1.000000	-1.000000	63.000000	0.000000	-1.000000	-1.000000	369366.000000	1775715763.765978
-65774.835000	-32969.970000	-15863.715000	-4102.830000	-22914.720000	-38464.875000	966.105000	-30413.025000	2.310315	1.369879	0.024327	-1.899758	3.298527	4.479369	-3.804223	0.429674	-1.571780	1.770160	0.808780	-0.841795	-0.261169	0.467406	-1.000000	-1.000000	-1.000000	-1.000000	-1.000000	-1.000000	-1.000000	63.000000	0.000000	-1.000000	-1.000000	369367.000000	1775715763.765991
-65776.635000	-32971.815000	-15866.505000	-4106.205000	-22916.340000	-38464.425000	965.835000	-30413.340000	-1.105977	-0.790831	-1.846095	-4.678417	2.953533	1.867656	-2.683267	-1.904786	-1.571780	1.770160	0.808780	-0.841795	-0.261169	0.467406	-1.000000	-1.000000	-1.000000	-1.000000	-1.000000	-1.000000	-1.000000	63.000000	0.000000	-1.000000	-1.000000	369368.000000	1775715763.766002
-65782.665000	-32975.595000	-15868.530000	-4108.680000	-22918.635000	-38461.635000	964.890000	-30419.145000	-3.628283	-2.174165	-2.423108	-4.750475	1.622536	-2.191442	-0.542499	-2.914308	-1.571780	1.770160	0.808780	-0.841795	-0.261169	0.467406	-1.000000	-1.000000	-1.000000	-1.000000	-1.000000	-1.000000	-1.000000	63.000000	0.000000	-1.000000	-1.000000	369369.000000	1775715763.766016
-65777.355000	-32971.770000	-15866.595000	-4108.140000	-22919.175000	-38456.730000	970.065000	-30413.880000	-4.331893	-2.566109	-2.013588	-3.047229	-0.404199	-4.812260	2.004677	-2.411684	-1.571780	1.770160	0.808780	-0.841795	-0.261169	0.467406	-1.000000	-1.000000	-1.000000	-1.000000	-1.000000	-1.000000	-1.000000	63.000000	0.000000	-1.000000	-1.000000	369370.000000	1775715763.766027
-65768.895000	-32972.760000	-15872.670000	-4116.240000	-22925.205000	-38454.930000	973.755000	-30407.625000	-2.848012	-1.973287	-1.171454	-0.960014	-2.398822	-4.529122	4.197386	-0.688006	-0.732480	1.205540	0.824040	-0.841306	-0.261230	0.468077	-1.000000	-1.000000	-1.000000	-1.000000	-1.000000	-1.000000	-1.000000	63.000000	0.000000	-1.000000	-1.000000	369371.000000	1775715763.766041
-65772.855000	-32976.045000	-15875.730000	-4117.815000	-22925.295000	-38454.975000	983.475000	-30405.555000	0.350961	-0.698924	-0.427184	0.499464	-3.596749	-2.085484	5.503980	1.782879	-0.732480	1.205540	0.824040	-0.841306	-0.261230	0.468077	-1.000000	-1.000000	-1.000000	-1.000000	-1.000000	-1.000000	-1.000000	63.000000	0.000000	-1.000000	-1.000000	369372.000000	1775715763.766052
-65769.660000	-32974.605000	-15876.360000	-4118.130000	-22923.045000	-38453.040000	981.180000	-30404.340000	3.422363	0.517167	-0.064530	1.127586	-3.426429	0.601196	5.515949	3.842847	-0.732480	1.205540	0.824040	-0.841306	-0.261230	0.468077	-1.000000	-1.000000	-1.000000	-1.000000	-1.000000	-1.000000	-1.000000	63.000000	0.000000	-1.000000	-1.000000	369373.000000	1775715763.766066
-65779.110000	-32979.330000	-15880.005000	-4120.560000	-22926.420000	-38464.200000	972.630000	-30413.205000	4.349534	1.134330	0.164390	1.465626	-1.775389	1.895467	3.629178	4.024101	-0.732480	1.205540	0.824040	-0.841306	-0.261230	0.468077	-1.000000	-1.000000	-1.000000	-1.000000	-1.000000	-1.000000	-1.000000	63.000000	0.000000	-1.000000	-1.000000	369374.000000	1775715763.766076
-65771.235000	-32971.860000	-15871.815000	-4113.495000	-22919.355000	-38461.410000	973.215000	-30407.355000	2.702657	1.214095	0.719073	2.030942	0.682640	1.234350	-0.287674	1.865949	-0.732480	1.205540	0.824040	-0.841306	-0.261230	0.468077	-1.000000	-1.000000	-1.000000	-1.000000	-1.000000	-1.000000	-1.000000	63.000000	0.000000	-1.000000	-1.000000	369375.000000	1775715763.766089
-65777.265000	-32977.530000	-15876.630000	-4118.040000	-22925.340000	-38467.800000	970.695000	-30411.180000	-0.097609	1.166915	1.781850	2.838969	2.868374	-0.515024	-4.700070	-1.310631	-0.732480	1.205540	0.824040	-0.841306	-0.261230	0.468077	-1.000000	-1.000000	-1.000000	-1.000000	-1.000000	-1.000000	-1.000000	63.000000	0.000000	-1.000000	-1.000000	369376.000000	1775715763.766100
-65774.880000	-32974.515000	-15872.625000	-4114.035000	-22923.720000	-38465.595000	971.010000	-30409.965000	-2.253031	1.116484	2.832557	3.312485	3.776599	-1.774582	-7.225598	-3.559359	-0.732480	1.205540	0.824040	-0.841306	-0.261230	0.468077	-1.000000	-1.000000	-1.000000	-1.000000	-1.000000	-1.000000	-1.000000	63.000000	0.000000	-1.000000	-1.000000	369377.000000	1775715763.766113
-65763.315000	-32962.770000	-15861.015000	-4103.640000	-22912.245000	-38454.570000	974.970000	-30403.170000	-2.697502	1.101066	3.281913	3.047156	3.253965	-1.344030	-6.556231	-3.798415	-0.732480	1.205540	0.824040	-0.841306	-0.261230	0.468077	-1.000000	-1.000000	-1.000000	-1.000000	-1.000000	-1.000000	-1.000000	63.000000	0.000000	-1.000000	-1.000000	369378.000000	1775715763.766124
-65757.600000	-32961.870000	-15862.140000	-4107.195000	-22911.390000	-38450.115000	971.865000	-30400.335000	-1.083012	1.471219	3.184276	2.303318	2.285200	1.067789	-3.208590	-2.008840	-0.732480	1.205540	0.824040	-0.841306	-0.261230	0.468077	-1.000000	-1.000000	-1.000000	-1.000000	-1.000000	-1.000000	-1.000000	63.000000	0.000000	-1.000000	-1.000000	369379.000000	1775715763.766137
-65762.550000	-32964.795000	-15864.525000	-4110.750000	-22916.700000	-38460.195000	971.685000	-30401.505000	1.530233	1.862579	2.335133	0.991275	1.361804	3.980323	0.862453	0.696279	-0.732480	1.205540	0.824040	-0.841306	-0.261230	0.468077	-1.000000	-1.000000	-1.000000	-1.000000	-1.000000	-1.000000	-1.000000	63.000000	0.000000	-1.000000	-1.000000	369380.000000	1775715763.766148
-65771.415000	-32971.140000	-15866.640000	-4112.460000	-22922.145000	-38469.420000	969.300000	-30408.030000	2.695113	1.033120	0.188601	-1.265245	-0.228219	4.597390	3.597881	2.411915	-0.061040	1.220800	0.259420	-0.840574	-0.261047	0.469115	-1.000000	-1.000000	-1.000000	-1.000000	-1.000000	-1.000000	-1.000000	63.000000	0.000000	-1.000000	-1.000000	369381.000000	1775715763.766161
-65754.675000	-32956.965000	-15856.470000	-4108.230000	-22915.395000	-38469.825000	963.765000	-30398.265000	1.253628	-1.141519	-2.628343	-3.751310	-2.570658	1.748679	4.062048	2.104652	-0.061040	1.220800	0.259420	-0.840574	-0.261047	0.469115	-1.000000	-1.000000	-1.000000	-1.000000	-1.000000	-1.000000	-1.000000	63.000000	0.000000	-1.000000	-1.000000	369382.000000	1775715763.766172
-65737.440000	-32944.590000	-15853.095000	-4109.580000	-22907.655000	-38471.130000	962.370000	-30387.015000	-0.671128	-2.660125	-4.254965	-4.928497	-4.058565	-2.482245	2.590262	0.909322	-0.061040	1.220800	0.259420	-0.840574	-0.261047	0.469115	-1.000000	-1.000000	-1.000000	-1.000000	-1.000000	-1.000000	-1.000000	63.000000	0.000000	-1.000000	-1.000000	369383.000000	1775715763.766186
-65747.610000	-32953.905000	-15859.305000	-4111.515000	-22913.955000	-38476.890000	957.825000	-30395.520000	-0.660704	-1.975577	-3.788846	-4.143172	-3.331129	-5.039107	0.378222	0.432926	-0.061040	1.220800	0.259420	-0.840574	-0.261047	0.469115	-1.000000	-1.000000	-1.000000	-1.000000	-1.000000	-1.000000	-1.000000	63.000000	0.000000	-1.000000	-1.000000	369384.000000	1775715763.766197
-65767.545000	-32967.675000	-15865.020000	-4104.765000	-22922.055000	-38481.255000	959.445000	-30406.455000	-0.067495	-0.700555	-2.463860	-2.020709	-1.399354	-4.776371	-1.230668	0.132071	-0.061040	1.220800	0.259420	-0.840574	-0.261047	0.469115	-1.000000	-1.000000	-1.000000	-1.000000	-1.000000	-1.000000	-1.000000	63.000000	0.000000	-1.000000	-1.000000	369385.000000	1775715763.766211
-65778.930000	-32977.125000	-15870.105000	-4099.995000	-22924.305000	-38469.555000	971.370000	-30410.730000	-1.947895	-1.479516	-1.871528	0.617334	-0.319926	-2.291105	-1.218780	-1.488309	-0.061040	1.220800	0.259420	-0.840574	-0.261047	0.469115	-1.000000	-1.000000	-1.000000	-1.000000	-1.000000	-1.000000	-1.000000	63.000000	0.000000	-1.000000	-1.000000	369386.000000	1775715763.766221
-65773.755000	-32977.530000	-15874.515000	-4109.130000	-22922.010000	-38451.240000	979.785000	-30409.335000	-5.856860	-4.098351	-2.118635	2.835434	-0.464701	1.797682	0.799660	-3.879774	-0.061040	1.220800	0.259420	-0.840574	-0.261047	0.469115	-1.000000	-1.000000	-1.000000	-1.000000	-1.000000	-1.000000	-1.000000	63.000000	0.000000	-1.000000	-1.000000	369387.000000	1775715763.766236
-65754.765000	-32964.300000	-15868.845000	-4110.660000	-22909.230000	-38442.825000	980.685000	-30397.590000	-7.428493	-5.382383	-2.030527	3.305513	-0.303774	6.652680	3.737455	-4.572109	-0.061040	1.220800	0.259420	-0.840574	-0.261047	0.469115	-1.000000	-1.000000	-1.000000	-1.000000	-1.000000	-1.000000	-1.000000	63.000000	0.000000	-1.000000	-1.000000	369388.000000	1775715763.766246
-65759.670000	-32966.595000	-15867.045000	-4107.285000	-22901.805000	-38450.070000	971.370000	-30402.360000	-3.497914	-2.742100	-0.422548	1.749407	1.560354	9.781482	5.039578	-2.076189	-0.061040	1.220800	0.259420	-0.840574	-0.261047	0.469115	-1.000000	-1.000000	-1.000000	-1.000000	-1.000000	-1.000000	-1.000000	63.000000	0.000000	-1.000000	-1.000000	369389.000000	1775715763.766261
-65767.950000	-32968.530000	-15863.220000	-4098.195000	-22893.705000	-38451.195000	971.460000	-30404.835000	3.563915	2.649111	2.590795	-0.162468	4.590165	8.194450	2.834542	2.047645	-0.061040	1.220800	0.259420	-0.840574	-0.261047	0.469115	-1.000000	-1.000000	-1.000000	-1.000000	-1.000000	-1.000000	-1.000000	63.000000	0.000000	-1.000000	-1.000000	369390.000000	1775715763.766272
-65773.890000	-32971.635000	-15868.080000	-4105.080000	-22903.830000	-38449.170000	974.205000	-30406.275000	8.207340	6.962282	5.354548	-0.746644	6.383966	1.841875	-1.806003	4.746884	0.183120	1.236060	-0.335720	-0.840208	-0.260864	0.469115	-1.000000	-1.000000	-1.000000	-1.000000	-1.000000	-1.000000	-1.000000	63.000000	0.000000	-1.000000	-1.000000	369391.000000	1775715763.766286
-65762.505000	-32967.180000	-15871.455000	-4117.860000	-22934.070000	-38447.640000	972.540000	-30401.505000	7.800726	7.652967	5.910036	-0.523063	4.144150	-5.664786	-5.728172	4.680781	0.183120	1.236060	-0.335720	-0.840208	-0.260864	0.469115	-1.000000	-1.000000	-1.000000	-1.000000	-1.000000	-1.000000	-1.000000	63.000000	0.000000	-1.000000	-1.000000	369392.000000	1775715763.766296
-65762.640000	-32968.080000	-15869.475000	-4112.460000	-22922.730000	-38449.665000	978.120000	-30398.715000	4.395243	5.191993	3.739334	-0.994042	-2.439811	-10.274516	-6.638372	2.896624	0.183120	1.236060	-0.335720	-0.840208	-0.260864	0.469115	-1.000000	-1.000000	-1.000000	-1.000000	-1.000000	-1.000000	-1.000000	63.000000	0.000000	-1.000000	-1.000000	369393.000000	1775715763.766311
-65776.095000	-32976.855000	-15874.560000	-4115.520000	-22925.070000	-38458.755000	973.890000	-30406.005000	0.821442	1.401900	0.231120	-1.929870	-9.038310	-10.567101	-4.521354	0.863135	0.183120	1.236060	-0.335720	-0.840208	-0.260864	0.469115	-1.000000	-1.000000	-1.000000	-1.000000	-1.000000	-1.000000	-1.000000	63.000000	0.000000	-1.000000	-1.000000	369394.000000	1775715763.766322
-65773.305000	-32975.415000	-15873.840000	-4116.240000	-22922.640000	-38457.855000	972.360000	-30405.375000	-2.107283	-2.276925	-2.725961	-1.972238	-10.406596	-7.711969	-1.139081	-0.962349	0.183120	1.236060	-0.335720	-0.840208	-0.260864	0.469115	-1.000000	-1.000000	-1.000000	-1.000000	-1.000000	-1.000000	-1.000000	63.000000	0.000000	-1.000000	-1.000000	369395.000000	1775715763.766335
-65778.930000	-32977.215000	-15873.840000	-4115.565000	-22918.095000	-38459.970000	972.270000	-30409.380000	-4.144413	-4.666531	-3.970710	-0.735517	-5.663955	-3.436754	1.501929	-2.483019	0.183120	1.236060	-0.335720	-0.840208	-0.260864	0.469115	-1.000000	-1.000000	-1.000000	-1.000000	-1.000000	-1.000000	-1.000000	63.000000	0.000000	-1.000000	-1.000000	369396.000000	1775715763.766346
-65780.235000	-32976.540000	-15873.570000	-4112.640000	-22913.910000	-38460.825000	974.250000	-30409.245000	-4.657136	-4.893669	-3.291370	1.169674	1.981268	0.997314	2.642715	-3.267417	0.183120	1.236060	-0.335720	-0.840208	-0.260864	0.469115	-1.000000	-1.000000	-1.000000	-1.000000	-1.000000	-1.000000	-1.000000	63.000000	0.000000	-1.000000	-1.000000	369397.000000	1775715763.766361
-65767.365000	-32967.000000	-15867.090000	-4107.240000	-22904.865000	-38453.985000	974.835000	-30401.280000	-3.250387	-2.943813	-1.265697	2.980092	8.461430	4.671336	2.709567	-2.771604	0.183120	1.236060	-0.335720	-0.840208	-0.260864	0.469115	-1.000000	-1.000000	-1.000000	-1.000000	-1.000000	-1.000000	-1.000000	63.000000	0.000000	-1.000000	-1.000000	369398.000000	1775715763.766371
-65754.900000	-32957.865000	-15860.385000	-4105.620000	-22918.230000	-38453.895000	969.885000	-30397.230000	0.153412	0.513514	1.273815	4.065068	10.848750	7.026173	2.201327	-0.750253	0.183120	1.236060	-0.335720	-0.840208	-0.260864	0.469115	-1.000000	-1.000000	-1.000000	-1.000000	-1.000000	-1.000000	-1.000000	63.000000	0.000000	-1.000000	-1.000000	369399.000000	1775715763.766385
-65764.440000	-32960.205000	-15858.585000	-4100.760000	-22915.305000	-38454.705000	973.035000	-30400.605000	4.325922	4.035955	3.423024	3.960857	8.097366	7.580245	1.270571	1.951500	0.183120	1.236060	-0.335720	-0.840208	-0.260864	0.469115	-1.000000	-1.000000	-1.000000	-1.000000	-1.000000	-1.000000	-1.000000	63.000000	0.000000	-1.000000	-1.000000	369400.000000	1775715763.766396
-65764.440000	-32960.205000	-15858.585000	-4100.760000	-22915.305000	-38454.705000	973.035000	-30400.605000	6.321674	5.499190	4.100341	2.570970	1.878043	5.969707	0.253422	3.506529	0.183120	1.236060	-0.335720	-0.840208	-0.260864	0.469115	-1.000000	-1.000000	-1.000000	-1.000000	-1.000000	-1.000000	-1.000000	63.000000	0.000000	-1.000000	-1.000000	369401.000000	1775715763.766411
-65764.440000	-32960.205000	-15858.585000	-4100.760000	-22915.305000	-38454.705000	973.035000	-30400.605000	4.342694	3.763421	2.683082	0.248974	-4.155958	2.684192	-0.352768	2.852343	0.183120	1.236060	-0.335720	-0.840208	-0.260864	0.469115	-1.000000	-1.000000	-1.000000	-1.000000	-1.000000	-1.000000	-1.000000	63.000000	0.000000	-1.000000	-1.000000	369402.000000	1775715763.766419
-65764.440000	-32960.205000	-15858.585000	-4100.760000	-22915.305000	-38454.705000	973.035000	-30400.605000	-0.156712	-0.098685	-0.241810	-2.318385	-7.186764	-0.932781	-0.466128	0.663406	0.183120	1.236060	-0.335720	-0.840208	-0.260864	0.469115	-1.000000	-1.000000	-1.000000	-1.000000	-1.000000	-1.000000	-1.000000	63.000000	0.000000	-1.000000	-1.000000	369403.000000	1775715763.766428
-65764.440000	-32960.205000	-15858.585000	-4100.760000	-22915.305000	-38454.705000	973.035000	-30400.605000	-4.231900	-3.810260	-3.181641	-4.242019	-6.713130	-3.531850	-0.350047	-1.564034	0.183120	1.236060	-0.335720	-0.840208	-0.260864	0.469115	-1.000000	-1.000000	-1.000000	-1.000000	-1.000000	-1.000000	-1.000000	63.000000	0.000000	-1.000000	-1.000000	369404.000000	1775715763.766436
-65764.440000	-32960.205000	-15858.585000	-4100.760000	-22915.305000	-38454.705000	973.035000	-30400.605000	-5.901535	-5.596620	-4.759160	-4.812600	-3.940753	-4.437052	-0.237066	-2.720540	0.183120	1.236060	-0.335720	-0.840208	-0.260864	0.469115	-1.000000	-1.000000	-1.000000	-1.000000	-1.000000	-1.000000	-1.000000	63.000000	0.000000	-1.000000	-1.000000	369405.000000	1775715763.766444
-65764.440000	-32960.205000	-15858.585000	-4100.760000	-22915.305000	-38454.705000	973.035000	-30400.605000	-4.926407	-5.005047	-4.458148	-3.905576	-0.623183	-3.774393	-0.208307	-2.540786	0.183120	1.236060	-0.335720	-0.840208	-0.260864	0.469115	-1.000000	-1.000000	-1.000000	-1.000000	-1.000000	-1.000000	-1.000000	63.000000	0.000000	-1.000000	-1.000000	369406.000000	1775715763.766453
-65764.440000	-32960.205000	-15858.585000	-4100.760000	-22915.305000	-38454.705000	973.035000	-30400.605000	-2.345813	-2.749792	-2.691574	-1.999804	1.869644	-2.195069	-0.230872	-1.441430	0.183120	1.236060	-0.335720	-0.840208	-0.260864	0.469115	-1.000000	-1.000000	-1.000000	-1.000000	-1.000000	-1.000000	-1.000000	63.000000	0.000000	-1.000000	-1.000000	369407.000000	1775715763.766461
-65764.440000	-32960.205000	-15858.585000	-4100.760000	-22915.305000	-38454.705000	973.035000	-30400.605000	0.427085	-0.047650	-0.384202	0.124942	2.950821	-0.469498	-0.240096	-0.098848	0.183120	1.236060	-0.335720	-0.840208	-0.260864	0.469115	-1.000000	-1.000000	-1.000000	-1.000000	-1.000000	-1.000000	-1.000000	63.000000	0.000000	-1.000000	-1.000000	369408.000000	1775715763.766469
-65764.440000	-32960.205000	-15858.585000	-4100.760000	-22915.305000	-38454.705000	973.035000	-30400.605000	2.334663	2.044740	1.554576	1.765319	2.745653	0.828061	-0.197828	0.926385	0.183120	1.236060	-0.335720	-0.840208	-0.260864	0.469115	-1.000000	-1.000000	-1.000000	-1.000000	-1.000000	-1.000000	-1.000000	63.000000	0.000000	-1.000000	-1.000000	369409.000000	1775715763.766477
-65764.440000	-32960.205000	-15858.585000	-4100.760000	-22915.305000	-38454.705000	973.035000	-30400.605000	2.977945	2.997923	2.586547	2.543852	1.776910	1.451866	-0.108147	1.373287	0.183120	1.236060	-0.335720	-0.840208	-0.260864	0.469115	-1.000000	-1.000000	-1.000000	-1.000000	-1.000000	-1.000000	-1.000000	63.000000	0.000000	-1.000000	-1.000000	369410.000000	1775715763.766485
-65764.440000	-32960.205000	-15858.585000	-4100.760000	-22915.305000	-38454.705000	973.035000	-30400.605000	2.539508	2.838231	2.635884	2.459286	0.628856	1.452287	-0.002795	1.274286	0.183120	1.236060	-0.335720	-0.840208	-0.260864	0.469115	-1.000000	-1.000000	-1.000000	-1.000000	-1.000000	-1.000000	-1.000000	63.000000	0.000000	-1.000000	-1.000000	369411.000000	1775715763.766493
-65764.440000	-32960.205000	-15858.585000	-4100.760000	-22915.305000	-38454.705000	973.035000	-30400.605000	1.510744	1.954278	1.972602	1.780227	-0.276356	1.053056	0.082658	0.838519	0.183120	1.236060	-0.335720	-0.840208	-0.260864	0.469115	-1.000000	-1.000000	-1.000000	-1.000000	-1.000000	-1.000000	-1.000000	63.000000	0.000000	-1.000000	-1.000000	369412.000000	1775715763.766501
-65764.440000	-32960.205000	-15858.585000	-4100.760000	-22915.305000	-38454.705000	973.035000	-30400.605000	0.407736	0.839915	1.008447	0.874883	-0.756030	0.516282	0.126370	0.314142	0.183120	1.236060	-0.335720	-0.840208	-0.260864	0.469115	-1.000000	-1.000000	-1.000000	-1.000000	-1.000000	-1.000000	-1.000000	63.000000	0.000000	-1.000000	-1.000000	369413.000000	1775715763.766509
-65764.440000	-32960.205000	-15858.585000	-4100.760000	-22915.305000	-38454.705000	973.035000	-30400.605000	-0.413350	-0.106834	0.113408	0.061702	-0.831730	0.046341	0.125811	-0.110572	0.183120	1.236060	-0.335720	-0.840208	-0.260864	0.469115	-1.000000	-1.000000	-1.000000	-1.000000	-1.000000	-1.000000	-1.000000	63.000000	0.000000	-1.000000	-1.000000	369414.000000	1775715763.766517
-65764.440000	-32960.205000	-15858.585000	-4100.760000	-22915.305000	-38454.705000	973.035000	-30400.605000	-0.814329	-0.678179	-0.488583	-0.473130	-0.640640	-0.250531	0.093442	-0.347164	0.183120	1.236060	-0.335720	-0.840208	-0.260864	0.469115	-1.000000	-1.000000	-1.000000	-1.000000	-1.000000	-1.000000	-1.000000	63.000000	0.000000	-1.000000	-1.000000	369415.000000	1775715763.766525
-65764.440000	-32960.205000	-15858.585000	-4100.760000	-22915.305000	-38454.705000	973.035000	-30400.605000	-0.836889	-0.852557	-0.737929	-0.686740	-0.345674	-0.359902	0.047941	-0.397666	0.183120	1.236060	-0.335720	-0.840208	-0.260864	0.469115	-1.000000	-1.000000	-1.000000	-1.000000	-1.000000	-1.000000	-1.000000	63.000000	0.000000	-1.000000	-1.000000	369416.000000	1775715763.766533
-65764.440000	-32960.205000	-15858.585000	-4100.760000	-22915.305000	-38454.705000	973.035000	-30400.605000	-0.620201	-0.731884	-0.697928	-0.641451	-0.074545	-0.326953	0.006051	-0.319120	0.183120	1.236060	-0.335720	-0.840208	-0.260864	0.469115	-1.000000	-1.000000	-1.000000	-1.000000	-1.000000	-1.000000	-1.000000	63.000000	0.000000	-1.000000	-1.000000	369417.000000	1775715763.766541
-65764.440000	-32960.205000	-15858.585000	-4100.760000	-22915.305000	-38454.705000	973.035000	-30400.605000	-0.319809	-0.463861	-0.490168	-0.448140	0.104684	-0.219121	-0.022116	-0.184452	0.183120	1.236060	-0.335720	-0.840208	-0.260864	0.469115	-1.000000	-1.000000	-1.000000	-1.000000	-1.000000	-1.000000	-1.000000	63.000000	0.000000	-1.000000	-1.000000	369418.000000	1775715763.766550
-65764.440000	-32960.205000	-15858.585000	-4100.760000	-22915.305000	-38454.705000	973.035000	-30400.605000	-0.053889	-0.180400	-0.236620	-0.216099	0.179248	-0.097320	-0.033917	-0.054022	0.183120	1.236060	-0.335720	-0.840208	-0.260864	0.469115	-1.000000	-1.000000	-1.000000	-1.000000	-1.000000	-1.000000	-1.000000	63.000000	0.000000	-1.000000	-1.000000	369419.000000	1775715763.766558
-65764.440000	-32960.205000	-15858.585000	-4100.760000	-22915.305000	-38454.705000	973.035000	-30400.605000	0.117072	0.034752	-0.024105	-0.022526	0.172204	-0.001016	-0.032300	0.037386	0.183120	1.236060	-0.335720	-0.840208	-0.260864	0.469115	-1.000000	-1.000000	-1.000000	-1.000000	-1.000000	-1.000000	-1.000000	63.000000	0.000000	-1.000000	-1.000000	369420.000000	1775715763.766566
-65764.440000	-32960.205000	-15858.585000	-4100.760000	-22915.305000	-38454.705000	973.035000	-30400.605000	0.184615	0.150917	0.106709	0.096670	0.120385	0.054124	-0.022871	0.080410	0.183120	1.236060	-0.335720	-0.840208	-0.260864	0.469115	-1.000000	-1.000000	-1.000000	-1.000000	-1.000000	-1.000000	-1.000000	63.000000	0.000000	-1.000000	-1.000000	369421.000000	1775715763.766574
-65764.440000	-32960.205000	-15858.585000	-4100.760000	-22915.305000	-38454.705000	973.035000	-30400.605000	0.173257	0.177650	0.154291	0.140417	0.057681	0.070633	-0.011249	0.083347	0.183120	1.236060	-0.335720	-0.840208	-0.260864	0.469115	-1.000000	-1.000000	-1.000000	-1.000000	-1.000000	-1.000000	-1.000000	63.000000	0.000000	-1.000000	-1.000000	369422.000000	1775715763.766582
-65764.440000	-32960.205000	-15858.585000	-4100.760000	-22915.305000	-38454.705000	973.035000	-30400.605000	0.119572	0.145376	0.140672	0.128615	0.006428	0.060732	-0.001441	0.062355	0.183120	1.236060	-0.335720	-0.840208	-0.260864	0.469115	-1.000000	-1.000000	-1.000000	-1.000000	-1.000000	-1.000000	-1.000000	63.000000	0.000000	-1.000000	-1.000000	369423.000000	1775715763.766590
-65764.440000	-32960.205000	-15858.585000	-4100.760000	-22915.305000	-38454.705000	973.035000	-30400.605000	0.056531	0.088033	0.095472	0.087945	-0.024041	0.038689	0.004655	0.033475	0.183120	1.236060	-0.335720	-0.840208	-0.260864	0.469115	-1.000000	-1.000000	-1.000000	-1.000000	-1.000000	-1.000000	-1.000000	63.000000	0.000000	-1.000000	-1.000000	369424.000000	1775715763.766598
-65764.440000	-32960.205000	-15858.585000	-4100.760000	-22915.305000	-38454.705000	973.035000	-30400.605000	0.005583	0.032007	0.044419	0.041647	-0.034387	0.015901	0.006943	0.008080	0.183120	1.236060	-0.335720	-0.840208	-0.260864	0.469115	-1.000000	-1.000000	-1.000000	-1.000000	-1.000000	-1.000000	-1.000000	63.000000	0.000000	-1.000000	-1.000000	369425.000000	1775715763.766606
-65764.440000	-32960.205000	-15858.585000	-4100.760000	-22915.305000	-38454.705000	973.035000	-30400.605000	-0.024500	-0.008050	0.003825	0.004548	-0.030666	-0.001057	0.006411	-0.008355	0.183120	1.236060	-0.335720	-0.840208	-0.260864	0.469115	-1.000000	-1.000000	-1.000000	-1.000000	-1.000000	-1.000000	-1.000000	63.000000	0.000000	-1.000000	-1.000000	369426.000000	1775715763.766614
-65764.440000	-32960.205000	-15858.585000	-4100.760000	-22915.305000	-38454.705000	973.035000	-30400.605000	-0.034605	-0.028254	-0.019918	-0.017422	-0.020204	-0.010142	0.004404	-0.015247	0.183120	1.236060	-0.335720	-0.840208	-0.260864	0.469115	-1.000000	-1.000000	-1.000000	-1.000000	-1.000000	-1.000000	-1.000000	63.000000	0.000000	-1.000000	-1.000000	369427.000000	1775715763.766622
-65764.440000	-32960.205000	-15858.585000	-4100.760000	-22915.305000	-38454.705000	973.035000	-30400.605000	-0.030800	-0.031888	-0.027814	-0.025025	-0.008941	-0.012405	0.002100	-0.014927	0.183120	1.236060	-0.335720	-0.840208	-0.260864	0.469115	-1.000000	-1.000000	-1.000000	-1.000000	-1.000000	-1.000000	-1.000000	63.000000	0.000000	-1.000000	-1.000000	369428.000000	1775715763.766630
-65764.440000	-32960.205000	-15858.585000	-4100.760000	-22915.305000	-38454.705000	973.035000	-30400.605000	-0.020334	-0.025337	-0.024758	-0.022586	-0.000367	-0.010309	0.000249	-0.010697	0.183120	1.236060	-0.335720	-0.840208	-0.260864	0.469115	-1.000000	-1.000000	-1.000000	-1.000000	-1.000000	-1.000000	-1.000000	63.000000	0.000000	-1.000000	-1.000000	369429.000000	1775715763.766639
-65764.440000	-32960.205000	-15858.585000	-4100.760000	-22915.305000	-38454.705000	973.035000	-30400.605000	-0.009071	-0.014946	-0.016466	-0.015244	0.004363	-0.006409	-0.000848	-0.005474	0.183120	1.236060	-0.335720	-0.840208	-0.260864	0.469115	-1.000000	-1.000000	-1.000000	-1.000000	-1.000000	-1.000000	-1.000000	63.000000	0.000000	-1.000000	-1.000000	369430.000000	1775715763.766647
-65764.440000	-32960.205000	-15858.585000	-4100.760000	-22915.305000	-38454.705000	973.035000	-30400.605000	-0.000465	-0.005270	-0.007536	-0.007177	0.005692	-0.002596	-0.001227	-0.001139	0.183120	1.236060	-0.335720	-0.840208	-0.260864	0.469115	-1.000000	-1.000000	-1.000000	-1.000000	-1.000000	-1.000000	-1.000000	63.000000	0.000000	-1.000000	-1.000000	369431.000000	1775715763.766655
-65764.440000	-32960.205000	-15858.585000	-4100.760000	-22915.305000	-38454.705000	973.035000	-30400.605000	0.004325	0.001381	-0.000675	-0.000888	0.004813	0.000124	-0.001106	0.001522	0.183120	1.236060	-0.335720	-0.840208	-0.260864	0.469115	-1.000000	-1.000000	-1.000000	-1.000000	-1.000000	-1.000000	-1.000000	63.000000	0.000000	-1.000000	-1.000000	369432.000000	1775715763.766663
-65764.440000	-32960.205000	-15858.585000	-4100.760000	-22915.305000	-38454.705000	973.035000	-30400.605000	0.005725	0.004574	0.003197	0.002733	0.002986	0.001511	-0.000742	0.002540	0.183120	1.236060	-0.335720	-0.840208	-0.260864	0.469115	-1.000000	-1.000000	-1.000000	-1.000000	-1.000000	-1.000000	-1.000000	63.000000	0.000000	-1.000000	-1.000000	369433.000000	1775715763.766671
-65764.440000	-32960.205000	-15858.585000	-4100.760000	-22915.305000	-38454.705000	973.035000	-30400.605000	0.004902	0.005023	0.004395	0.003927	0.001156	0.001801	-0.000343	0.002390	0.183120	1.236060	-0.335720	-0.840208	-0.260864	0.469115	-1.000000	-1.000000	-1.000000	-1.000000	-1.000000	-1.000000	-1.000000	63.000000	0.000000	-1.000000	-1.000000	369434.000000	1775715763.766679
-65764.440000	-32960.205000	-15858.585000	-4100.760000	-22915.305000	-38454.705000	973.035000	-30400.605000	0.003106	0.003867	0.003821	0.003484	-0.000170	0.001424	-0.000033	0.001650	0.183120	1.236060	-0.335720	-0.840208	-0.260864	0.469115	-1.000000	-1.000000	-1.000000	-1.000000	-1.000000	-1.000000	-1.000000	63.000000	0.000000	-1.000000	-1.000000	369435.000000	1775715763.766687
-65764.440000	-32960.205000	-15858.585000	-4100.760000	-22915.305000	-38454.705000	973.035000	-30400.605000	0.001279	0.002162	0.002447	0.002278	-0.000859	0.000795	0.000145	0.000796	0.183120	1.236060	-0.335720	-0.840208	-0.260864	0.469115	-1.000000	-1.000000	-1.000000	-1.000000	-1.000000	-1.000000	-1.000000	63.000000	0.000000	-1.000000	-1.000000	369436.000000	1775715763.766695
-65764.440000	-32960.205000	-15858.585000	-4100.760000	-22915.305000	-38454.705000	973.035000	-30400.605000	-0.000062	0.000628	0.001017	0.000988	-0.001018	0.000204	0.000202	0.000115	0.183120	1.236060	-0.335720	-0.840208	-0.260864	0.469115	-1.000000	-1.000000	-1.000000	-1.000000	-1.000000	-1.000000	-1.000000	63.000000	0.000000	-1.000000	-1.000000	369437.000000	1775715763.766703
-65764.440000	-32960.205000	-15858.585000	-4100.760000	-22915.305000	-38454.705000	973.035000	-30400.605000	-0.000775	-0.000395	-0.000054	0.000005	-0.000852	-0.000204	0.000179	-0.000287	0.183120	1.236060	-0.335720	-0.840208	-0.260864	0.469115	-1.000000	-1.000000	-1.000000	-1.000000	-1.000000	-1.000000	-1.000000	63.000000	0.000000	-1.000000	-1.000000	369438.000000	1775715763.766711
-65764.440000	-32960.205000	-15858.585000	-4100.760000	-22915.305000	-38454.705000	973.035000	-30400.605000	-0.000957	-0.000867	-0.000640	-0.000549	-0.000558	-0.000403	0.000119	-0.000429	0.183120	1.236060	-0.335720	-0.840208	-0.260864	0.469115	-1.000000	-1.000000	-1.000000	-1.000000	-1.000000	-1.000000	-1.000000	63.000000	0.000000	-1.000000	-1.000000	369439.000000	1775715763.766720
-65764.440000	-32960.205000	-15858.585000	-4100.760000	-22915.305000	-38454.705000	973.035000	-30400.605000	-0.000807	-0.000915	-0.000810	-0.000722	-0.000278	-0.000436	0.000055	-0.000394	0.183120	1.236060	-0.335720	-0.840208	-0.260864	0.469115	-1.000000	-1.000000	-1.000000	-1.000000	-1.000000	-1.000000	-1.000000	63.000000	0.000000	-1.000000	-1.000000	369440.000000	1775715763.766728
-65764.440000	-32960.205000	-15858.585000	-4100.760000	-22915.305000	-38454.705000	973.035000	-30400.605000	-0.000522	-0.000726	-0.000711	-0.000647	-0.000083	-0.000373	0.000007	-0.000274	0.183120	1.236060	-0.335720	-0.840208	-0.260864	0.469115	-1.000000	-1.000000	-1.000000	-1.000000	-1.000000	-1.000000	-1.000000	63.000000	0.000000	-1.000000	-1.000000	369441.000000	1775715763.766737
-65764.440000	-32960.205000	-15858.585000	-4100.760000	-22915.305000	-38454.705000	973.035000	-30400.605000	-0.000243	-0.000463	-0.000496	-0.000460	0.000014	-0.000275	-0.000020	-0.000143	0.183120	1.236060	-0.335720	-0.840208	-0.260864	0.469115	-1.000000	-1.000000	-1.000000	-1.000000	-1.000000	-1.000000	-1.000000	63.000000	0.000000	-1.000000	-1.000000	369442.000000	1775715763.766745
-65764.440000	-32960.205000	-15858.585000	-4100.760000	-22915.305000	-38454.705000	973.035000	-30400.605000	-0.000045	-0.000232	-0.000279	-0.000264	0.000033	-0.000187	-0.000028	-0.000042	0.183120	1.236060	-0.335720	-0.840208	-0.260864	0.469115	-1.000000	-1.000000	-1.000000	-1.000000	-1.000000	-1.000000	-1.000000	63.000000	0.000000	-1.000000	-1.000000	369443.000000	1775715763.766753
-65764.440000	-32960.205000	-15858.585000	-4100.760000	-22915.305000	-38454.705000	973.035000	-30400.605000	0.000057	-0.000081	-0.000120	-0.000117	0.000006	-0.000127	-0.000024	0.000016	0.183120	1.236060	-0.335720	-0.840208	-0.260864	0.469115	-1.000000	-1.000000	-1.000000	-1.000000	-1.000000	-1.000000	-1.000000	63.000000	0.000000	-1.000000	-1.000000	369444.000000	1775715763.766761
-65764.440000	-32960.205000	-15858.585000	-4100.760000	-22915.305000	-38454.705000	973.035000	-30400.605000	0.000080	-0.000014	-0.000034	-0.000036	-0.000037	-0.000098	-0.000015	0.000035	0.183120	1.236060	-0.335720	-0.840208	-0.260864	0.469115	-1.000000	-1.000000	-1.000000	-1.000000	-1.000000	-1.000000	-1.000000	63.000000	0.000000	-1.000000	-1.000000	369445.000000	1775715763.766769
-65764.440000	-32960.205000	-15858.585000	-4100.760000	-22915.305000	-38454.705000	973.035000	-30400.605000	0.000056	-0.000008	-0.000010	-0.000011	-0.000077	-0.000093	-0.000005	0.000029	0.183120	1.236060	-0.335720	-0.840208	-0.260864	0.469115	-1.000000	-1.000000	-1.000000	-1.000000	-1.000000	-1.000000	-1.000000	63.000000	0.000000	-1.000000	-1.000000	369446.000000	1775715763.766777
-65764.440000	-32960.205000	-15858.585000	-4100.760000	-22915.305000	-38454.705000	973.035000	-30400.605000	0.000013	-0.000035	-0.000025	-0.000022	-0.000103	-0.000101	0.000002	0.000011	0.183120	1.236060	-0.335720	-0.840208	-0.260864	0.469115	-1.000000	-1.000000	-1.000000	-1.000000	-1.000000	-1.000000	-1.000000	63.000000	0.000000	-1.000000	-1.000000	369447.000000	1775715763.766785
-65764.440000	-32960.205000	-15858.585000	-4100.760000	-22915.305000	-38454.705000	973.035000	-30400.605000	-0.000027	-0.000073	-0.000055	-0.000048	-0.000115	-0.000114	0.000006	-0.000008	0.183120	1.236060	-0.335720	-0.840208	-0.260864	0.469115	-1.000000	-1.000000	-1.000000	-1.000000	-1.000000	-1.000000	-1.000000	63.000000	0.000000	-1.000000	-1.000000	369448.000000	1775715763.766793
-65764.440000	-32960.205000	-15858.585000	-4100.760000	-22915.305000	-38454.705000	973.035000	-30400.605000	-0.000054	-0.000105	-0.000086	-0.000076	-0.000116	-0.000126	0.000007	-0.000022	0.183120	1.236060	-0.335720	-0.840208	-0.260864	0.469115	-1.000000	-1.000000	-1.000000	-1.000000	-1.000000	-1.000000	-1.000000	63.000000	0.000000	-1.000000	-1.000000	369449.000000	1775715763.766802
-65764.440000	-32960.205000	-15858.585000	-4100.760000	-22915.305000	-38454.705000	973.035000	-30400.605000	-0.000068	-0.000125	-0.000107	-0.000096	-0.000111	-0.000133	0.000006	-0.000030	0.183120	1.236060	-0.335720	-0.840208	-0.260864	0.469115	-1.000000	-1.000000	-1.000000	-1.000000	-1.000000	-1.000000	-1.000000	63.000000	0.000000	-1.000000	-1.000000	369450.000000	1775715763.766810
-65764.440000	-32960.205000	-15858.585000	-4100.760000	-22915.305000	-38454.705000	973.035000	-30400.605000	-0.000070	-0.000133	-0.000118	-0.000106	-0.000104	-0.000135	0.000005	-0.000032	0.183120	1.236060	-0.335720	-0.840208	-0.260864	0.469115	-1.000000	-1.000000	-1.000000	-1.000000	-1.000000	-1.000000	-1.000000	63.000000	0.000000	-1.000000	-1.000000	369451.000000	1775715763.766818
-65764.440000	-32960.205000	-15858.585000	-4100.760000	-22915.305000	-38454.705000	973.035000	-30400.605000	-0.000066	-0.000132	-0.000120	-0.000109	-0.000098	-0.000134	0.000003	-0.000031	0.183120	1.236060	-0.335720	-0.840208	-0.260864	0.469115	-1.000000	-1.000000	-1.000000	-1.000000	-1.000000	-1.000000	-1.000000	63.000000	0.000000	-1.000000	-1.000000	369452.000000	1775715763.766826
-65764.440000	-32960.205000	-15858.585000	-4100.760000	-22915.305000	-38454.705000	973.035000	-30400.605000	-0.000059	-0.000127	-0.000117	-0.000106	-0.000093	-0.000132	0.000002	-0.000028	0.183120	1.236060	-0.335720	-0.840208	-0.260864	0.469115	-1.000000	-1.000000	-1.000000	-1.000000	-1.000000	-1.000000	-1.000000	63.000000	0.000000	-1.000000	-1.000000	369453.000000	1775715763.766834
-65764.440000	-32960.205000	-15858.585000	-4100.760000	-22915.305000	-38454.705000	973.035000	-30400.605000	-0.000053	-0.000121	-0.000112	-0.000101	-0.000090	-0.000129	0.000002	-0.000025	0.183120	1.236060	-0.335720	-0.840208	-0.260864	0.469115	-1.000000	-1.000000	-1.000000	-1.000000	-1.000000	-1.000000	-1.000000	63.000000	0.000000	-1.000000	-1.000000	369454.000000	1775715763.766842
-65764.440000	-32960.205000	-15858.585000	-4100.760000	-22915.305000	-38454.705000	973.035000	-30400.605000	-0.000049	-0.000115	-0.000106	-0.000097	-0.000089	-0.000126	0.000002	-0.000023	0.183120	1.236060	-0.335720	-0.840208	-0.260864	0.469115	-1.000000	-1.000000	-1.000000	-1.000000	-1.000000	-1.000000	-1.000000	63.000000	0.000000	-1.000000	-1.000000	369455.000000	1775715763.766850
-65764.440000	-32960.205000	-15858.585000	-4100.760000	-22915.305000	-38454.705000	973.035000	-30400.605000	-0.000046	-0.000111	-0.000102	-0.000093	-0.000089	-0.000124	0.000002	-0.000021	0.183120	1.236060	-0.335720	-0.840208	-0.260864	0.469115	-1.000000	-1.000000	-1.000000	-1.000000	-1.000000	-1.000000	-1.000000	63.000000	0.000000	-1.000000	-1.000000	369456.000000	1775715763.766858
-65764.440000	-32960.205000	-15858.585000	-4100.760000	-22915.305000	-38454.705000	973.035000	-30400.605000	-0.000046	-0.000109	-0.000100	-0.000091	-0.000089	-0.000122	0.000002	-0.000021	0.183120	1.236060	-0.335720	-0.840208	-0.260864	0.469115	-1.000000	-1.000000	-1.000000	-1.000000	-1.000000	-1.000000	-1.000000	63.000000	0.000000	-1.000000	-1.000000	369457.000000	1775715763.766866
-65764.440000	-32960.205000	-15858.585000	-4100.760000	-22915.305000	-38454.705000	973.035000	-30400.605000	-0.000046	-0.000108	-0.000099	-0.000089	-0.000089	-0.000121	0.000002	-0.000021	0.183120	1.236060	-0.335720	-0.840208	-0.260864	0.469115	-1.000000	-1.000000	-1.000000	-1.000000	-1.000000	-1.000000	-1.000000	63.000000	0.000000	-1.000000	-1.000000	369458.000000	1775715763.766874
-65764.440000	-32960.205000	-15858.585000	-4100.760000	-22915.305000	-38454.705000	973.035000	-30400.605000	-0.000046	-0.000108	-0.000098	-0.000089	-0.000089	-0.000120	0.000002	-0.000021	0.183120	1.236060	-0.335720	-0.840208	-0.260864	0.469115	-1.000000	-1.000000	-1.000000	-1.000000	-1.000000	-1.000000	-1.000000	63.000000	0.000000	-1.000000	-1.000000	369459.000000	1775715763.766882
-65764.440000	-32960.205000	-15858.585000	-4100.760000	-22915.305000	-38454.705000	973.035000	-30400.605000	-0.000047	-0.000108	-0.000098	-0.000089	-0.000089	-0.000120	0.000002	-0.000021	0.183120	1.236060	-0.335720	-0.840208	-0.260864	0.469115	-1.000000	-1.000000	-1.000000	-1.000000	-1.000000	-1.000000	-1.000000	63.000000	0.000000	-1.000000	-1.000000	369460.000000	1775715763.766891
-65764.440000	-32960.205000	-15858.585000	-4100.760000	-22915.305000	-38454.705000	973.035000	-30400.605000	-0.000047	-0.000108	-0.000098	-0.000088	-0.000088	-0.000119	0.000002	-0.000021	0.183120	1.236060	-0.335720	-0.840208	-0.260864	0.469115	-1.000000	-1.000000	-1.000000	-1.000000	-1.000000	-1.000000	-1.000000	63.000000	0.000000	-1.000000	-1.000000	369461.000000	1775715763.766899
-65764.440000	-32960.205000	-15858.585000	-4100.760000	-22915.305000	-38454.705000	973.035000	-30400.605000	-0.000047	-0.000107	-0.000097	-0.000088	-0.000087	-0.000118	0.000002	-0.000021	0.183120	1.236060	-0.335720	-0.840208	-0.260864	0.469115	-1.000000	-1.000000	-1.000000	-1.000000	-1.000000	-1.000000	-1.000000	63.000000	0.000000	-1.000000	-1.000000	369462.000000	1775715763.766907
-65764.440000	-32960.205000	-15858.585000	-4100.760000	-22915.305000	-38454.705000	973.035000	-30400.605000	-0.000046	-0.000106	-0.000097	-0.000088	-0.000086	-0.000117	0.000002	-0.000021	0.183120	1.236060	-0.335720	-0.840208	-0.260864	0.469115	-1.000000	-1.000000	-1.000000	-1.000000	-1.000000	-1.000000	-1.000000	63.000000	0.000000	-1.000000	-1.000000	369463.000000	1775715763.766915
-65764.440000	-32960.205000	-15858.585000	-4100.760000	-22915.305000	-38454.705000	973.035000	-30400.605000	-0.000046	-0.000105	-0.000096	-0.000087	-0.000085	-0.000116	0.000002	-0.000021	0.183120	1.236060	-0.335720	-0.840208	-0.260864	0.469115	-1.000000	-1.000000	-1.000000	-1.000000	-1.000000	-1.000000	-1.000000	63.000000	0.000000	-1.000000	-1.000000	369464.000000	1775715763.766924
-65764.440000	-32960.205000	-15858.585000	-4100.760000	-22915.305000	-38454.705000	973.035000	-30400.605000	-0.000045	-0.000104	-0.000095	-0.000086	-0.000084	-0.000115	0.000002	-0.000021	0.183120	1.236060	-0.335720	-0.840208	-0.260864	0.469115	-1.000000	-1.000000	-1.000000	-1.000000	-1.000000	-1.000000	-1.000000	63.000000	0.000000	-1.000000	-1.000000	369465.000000	1775715763.766932
-65764.440000	-32960.205000	-15858.585000	-4100.760000	-22915.305000	-38454.705000	973.035000	-30400.605000	-0.000045	-0.000103	-0.000094	-0.000085	-0.000084	-0.000114	0.000002	-0.000020	0.183120	1.236060	-0.335720	-0.840208	-0.260864	0.469115	-1.000000	-1.000000	-1.000000	-1.000000	-1.000000	-1.000000	-1.000000	63.000000	0.000000	-1.000000	-1.000000	369466.000000	1775715763.766940
-65764.440000	-32960.205000	-15858.585000	-4100.760000	-22915.305000	-38454.705000	973.035000	-30400.605000	-0.000044	-0.000102	-0.000093	-0.000084	-0.000083	-0.000113	0.000002	-0.000020	0.183120	1.236060	-0.335720	-0.840208	-0.260864	0.469115	-1.000000	-1.000000	-1.000000	-1.000000	-1.000000	-1.000000	-1.000000	63.000000	0.000000	-1.000000	-1.000000	369467.000000	1775715763.766948
-65764.440000	-32960.205000	-15858.585000	-4100.760000	-22915.305000	-38454.705000	973.035000	-30400.605000	-0.000044	-0.000101	-0.000093	-0.000084	-0.000082	-0.000112	0.000002	-0.000020	0.183120	1.236060	-0.335720	-0.840208	-0.260864	0.469115	-1.000000	-1.000000	-1.000000	-1.000000	-1.000000	-1.000000	-1.000000	63.000000	0.000000	-1.000000	-1.000000	369468.000000	1775715763.766956
-65764.440000	-32960.205000	-15858.585000	-4100.760000	-22915.305000	-38454.705000	973.035000	-30400.605000	-0.000044	-0.000101	-0.000092	-0.000083	-0.000082	-0.000111	0.000002	-0.000020	0.183120	1.236060	-0.335720	-0.840208	-0.260864	0.469115	-1.000000	-1.000000	-1.000000	-1.000000	-1.000000	-1.000000	-1.000000	63.000000	0.000000	-1.000000	-1.000000	369469.000000	1775715763.766964
-65764.440000	-32960.205000	-15858.585000	-4100.760000	-22915.305000	-38454.705000	973.035000	-30400.605000	-0.000043	-0.000100	-0.000091	-0.000082	-0.000081	-0.000110	0.000002	-0.000020	0.183120	1.236060	-0.335720	-0.840208	-0.260864	0.469115	-1.000000	-1.000000	-1.000000	-1.000000	-1.000000	-1.000000	-1.000000	63.000000	0.000000	-1.000000	-1.000000	369470.000000	1775715763.766973
-65764.440000	-32960.205000	-15858.585000	-4100.760000	-22915.305000	-38454.705000	973.035000	-30400.605000	-0.000043	-0.000099	-0.000090	-0.000082	-0.000080	-0.000109	0.000002	-0.000019	0.183120	1.236060	-0.335720	-0.840208	-0.260864	0.469115	-1.000000	-1.000000	-1.000000	-1.000000	-1.000000	-1.000000	-1.000000	63.000000	0.000000	-1.000000	-1.000000	369471.000000	1775715763.766981
-65764.440000	-32960.205000	-15858.585000	-4100.760000	-22915.305000	-38454.705000	973.035000	-30400.605000	-0.000043	-0.000098	-0.000089	-0.000081	-0.000079	-0.000108	0.000002	-0.000019	0.183120	1.236060	-0.335720	-0.840208	-0.260864	0.469115	-1.000000	-1.000000	-1.000000	-1.000000	-1.000000	-1.000000	-1.000000	63.000000	0.000000	-1.000000	-1.000000	369472.000000	1775715763.766989
-65764.440000	-32960.205000	-15858.585000	-4100.760000	-22915.305000	-38454.705000	973.035000	-30400.605000	-0.000042	-0.000097	-0.000089	-0.000080	-0.000079	-0.000107	0.000002	-0.000019	0.183120	1.236060	-0.335720	-0.840208	-0.260864	0.469115	-1.000000	-1.000000	-1.000000	-1.000000	-1.000000	-1.000000	-1.000000	63.000000	0.000000	-1.000000	-1.000000	369473.000000	1775715763.766997
-65764.440000	-32960.205000	-15858.585000	-4100.760000	-22915.305000	-38454.705000	973.035000	-30400.605000	-0.000042	-0.000096	-0.000088	-0.000080	-0.000078	-0.000106	0.000002	-0.000019	0.183120	1.236060	-0.335720	-0.840208	-0.260864	0.469115	-1.000000	-1.000000	-1.000000	-1.000000	-1.000000	-1.000000	-1.000000	63.000000	0.000000	-1.000000	-1.000000	369474.000000	1775715763.767005
-65764.440000	-32960.205000	-15858.585000	-4100.760000	-22915.305000	-38454.705000	973.035000	-30400.605000	-0.000042	-0.000096	-0.000087	-0.000079	-0.000077	-0.000105	0.000002	-0.000019	0.183120	1.236060	-0.335720	-0.840208	-0.260864	0.469115	-1.000000	-1.000000	-1.000000	-1.000000	-1.000000	-1.000000	-1.000000	63.000000	0.000000	-1.000000	-1.000000	369475.000000	1775715763.767014
-65764.440000	-32960.205000	-15858.585000	-4100.760000	-22915.305000	-38454.705000	973.035000	-30400.605000	-0.000041	-0.000095	-0.000086	-0.000078	-0.000077	-0.000105	0.000002	-0.000019	0.183120	1.236060	-0.335720	-0.840208	-0.260864	0.469115	-1.000000	-1.000000	-1.000000	-1.000000	-1.000000	-1.000000	-1.000000	63.000000	0.000000	-1.000000	-1.000000	369476.000000	1775715763.767022
-65764.440000	-32960.205000	-15858.585000	-4100.760000	-22915.305000	-38454.705000	973.035000	-30400.605000	-0.000041	-0.000094	-0.000086	-0.000078	-0.000076	-0.000104	0.000002	-0.000018	0.183120	1.236060	-0.335720	-0.840208	-0.260864	0.469115	-1.000000	-1.000000	-1.000000	-1.000000	-1.000000	-1.000000	-1.000000	63.000000	0.000000	-1.000000	-1.000000	369477.000000	1775715763.767031
-65764.440000	-32960.205000	-15858.585000	-4100.760000	-22915.305000	-38454.705000	973.035000	-30400.605000	-0.000041	-0.000093	-0.000085	-0.000077	-0.000075	-0.000103	0.000002	-0.000018	0.183120	1.236060	-0.335720	-0.840208	-0.260864	0.469115	-1.000000	-1.000000	-1.000000	-1.000000	-1.000000	-1.000000	-1.000000	63.000000	0.000000	-1.000000	-1.000000	369478.000000	1775715763.767039
-65764.440000	-32960.205000	-15858.585000	-4100.760000	-22915.305000	-38454.705000	973.035000	-30400.605000	-0.000040	-0.000092	-0.000084	-0.000076	-0.000075	-0.000102	0.000002	-0.000018	0.183120	1.236060	-0.335720	-0.840208	-0.260864	0.469115	-1.000000	-1.000000	-1.000000	-1.000000	-1.000000	-1.000000	-1.000000	63.000000	0.000000	-1.000000	-1.000000	369479.000000	1775715763.767047
-65764.440000	-32960.205000	-15858.585000	-4100.760000	-22915.305000	-38454.705000	973.035000	-30400.605000	-0.000040	-0.000092	-0.000084	-0.000076	-0.000074	-0.000101	0.000002	-0.000018	0.183120	1.236060	-0.335720	-0.840208	-0.260864	0.469115	-1.000000	-1.000000	-1.000000	-1.000000	-1.000000	-1.000000	-1.000000	63.000000	0.000000	-1.000000	-1.000000	369480.000000	1775715763.767055
-65764.440000	-32960.205000	-15858.585000	-4100.760000	-22915.305000	-38454.705000	973.035000	-30400.605000	-0.000040	-0.000091	-0.000083	-0.000075	-0.000073	-0.000100	0.000002	-0.000018	0.183120	1.236060	-0.335720	-0.840208	-0.260864	0.469115	-1.000000	-1.000000	-1.000000	-1.000000	-1.000000	-1.000000	-1.000000	63.000000	0.000000	-1.000000	-1.000000	369481.000000	1775715763.767064
-65764.440000	-32960.205000	-15858.585000	-4100.760000	-22915.305000	-38454.705000	973.035000	-30400.605000	-0.000039	-0.000090	-0.000082	-0.000074	-0.000073	-0.000099	0.000002	-0.000018	0.183120	1.236060	-0.335720	-0.840208	-0.260864	0.469115	-1.000000	-1.000000	-1.000000	-1.000000	-1.000000	-1.000000	-1.000000	63.000000	0.000000	-1.000000	-1.000000	369482.000000	1775715763.767072
-65764.440000	-32960.205000	-15858.585000	-4100.760000	-22915.305000	-38454.705000	973.035000	-30400.605000	-0.000039	-0.000089	-0.000081	-0.000074	-0.000072	-0.000098	0.000002	-0.000017	0.183120	1.236060	-0.335720	-0.840208	-0.260864	0.469115	-1.000000	-1.000000	-1.000000	-1.000000	-1.000000	-1.000000	-1.000000	63.000000	0.000000	-1.000000	-1.000000	369483.000000	1775715763.767080
-65764.440000	-32960.205000	-15858.585000	-4100.760000	-22915.305000	-38454.705000	973.035000	-30400.605000	-0.000039	-0.000088	-0.000081	-0.000073	-0.000072	-0.000098	0.000002	-0.000017	0.183120	1.236060	-0.335720	-0.840208	-0.260864	0.469115	-1.000000	-1.000000	-1.000000	-1.000000	-1.000000	-1.000000	-1.000000	63.000000	0.000000	-1.000000	-1.000000	369484.000000	1775715763.767089
-65764.440000	-32960.205000	-15858.585000	-4100.760000	-22915.305000	-38454.705000	973.035000	-30400.605000	-0.000038	-0.000088	-0.000080	-0.000072	-0.000071	-0.000097	0.000002	-0.000017	0.183120	1.236060	-0.335720	-0.840208	-0.260864	0.469115	-1.000000	-1.000000	-1.000000	-1.000000	-1.000000	-1.000000	-1.000000	63.000000	0.000000	-1.000000	-1.000000	369485.000000	1775715763.767112
-65764.440000	-32960.205000	-15858.585000	-4100.760000	-22915.305000	-38454.705000	973.035000	-30400.605000	-0.000038	-0.000087	-0.000079	-0.000072	-0.000070	-0.000096	0.000002	-0.000017	0.183120	1.236060	-0.335720	-0.840208	-0.260864	0.469115	-1.000000	-1.000000	-1.000000	-1.000000	-1.000000	-1.000000	-1.000000	63.000000	0.000000	-1.000000	-1.000000	369486.000000	1775715763.767121
-65764.440000	-32960.205000	-15858.585000	-4100.760000	-22915.305000	-38454.705000	973.035000	-30400.605000	-0.000038	-0.000086	-0.000079	-0.000071	-0.000070	-0.000095	0.000002	-0.000017	0.183120	1.236060	-0.335720	-0.840208	-0.260864	0.469115	-1.000000	-1.000000	-1.000000	-1.000000	-1.000000	-1.000000	-1.000000	63.000000	0.000000	-1.000000	-1.000000	369487.000000	1775715763.767130
-65764.440000	-32960.205000	-15858.585000	-4100.760000	-22915.305000	-38454.705000	973.035000	-30400.605000	-0.000037	-0.000085	-0.000078	-0.000071	-0.000069	-0.000094	0.000002	-0.000017	0.183120	1.236060	-0.335720	-0.840208	-0.260864	0.469115	-1.000000	-1.000000	-1.000000	-1.000000	-1.000000	-1.000000	-1.000000	63.000000	0.000000	-1.000000	-1.000000	369488.000000	1775715763.767138
-65764.440000	-32960.205000	-15858.585000	-4100.760000	-22915.305000	-38454.705000	973.035000	-30400.605000	-0.000037	-0.000085	-0.000077	-0.000070	-0.000068	-0.000093	0.000002	-0.000016	0.183120	1.236060	-0.335720	-0.840208	-0.260864	0.469115	-1.000000	-1.000000	-1.000000	-1.000000	-1.000000	-1.000000	-1.000000	63.000000	0.000000	-1.000000	-1.000000	369489.000000	1775715763.767146
-65764.440000	-32960.205000	-15858.585000	-4100.760000	-22915.305000	-38454.705000	973.035000	-30400.605000	-0.000037	-0.000084	-0.000077	-0.000069	-0.000068	-0.000093	0.000002	-0.000016	0.183120	1.236060	-0.335720	-0.840208	-0.260864	0.469115	-1.000000	-1.000000	-1.000000	-1.000000	-1.000000	-1.000000	-1.000000	63.000000	0.000000	-1.000000	-1.000000	369490.000000	1775715763.767154
-65764.440000	-32960.205000	-15858.585000	-4100.760000	-22915.305000	-38454.705000	973.035000	-30400.605000	-0.000036	-0.000083	-0.000076	-0.000069	-0.000067	-0.000092	0.000002	-0.000016	0.183120	1.236060	-0.335720	-0.840208	-0.260864	0.469115	-1.000000	-1.000000	-1.000000	-1.000000	-1.000000	-1.000000	-1.000000	63.000000	0.000000	-1.000000	-1.000000	369491.000000	1775715763.767162
-65764.440000	-32960.205000	-15858.585000	-4100.760000	-22915.305000	-38454.705000	973.035000	-30400.605000	-0.000036	-0.000083	-0.000075	-0.000068	-0.000067	-0.000091	0.000002	-0.000016	0.183120	1.236060	-0.335720	-0.840208	-0.260864	0.469115	-1.000000	-1.000000	-1.000000	-1.000000	-1.000000	-1.000000	-1.000000	63.000000	0.000000	-1.000000	-1.000000	369492.000000	1775715763.767187
-65764.440000	-32960.205000	-15858.585000	-4100.760000	-22915.305000	-38454.705000	973.035000	-30400.605000	-0.000036	-0.000082	-0.000075	-0.000068	-0.000066	-0.000090	0.000002	-0.000016	0.183120	1.236060	-0.335720	-0.840208	-0.260864	0.469115	-1.000000	-1.000000	-1.000000	-1.000000	-1.000000	-1.000000	-1.000000	63.000000	0.000000	-1.000000	-1.000000	369493.000000	1775715763.767195
-65764.440000	-32960.205000	-15858.585000	-4100.760000	-22915.305000	-38454.705000	973.035000	-30400.605000	-0.000035	-0.000081	-0.000074	-0.000067	-0.000065	-0.000089	0.000002	-0.000016	0.183120	1.236060	-0.335720	-0.840208	-0.260864	0.469115	-1.000000	-1.000000	-1.000000	-1.000000	-1.000000	-1.000000	-1.000000	63.000000	0.000000	-1.000000	-1.000000	369494.000000	1775715763.767204
-65764.440000	-32960.205000	-15858.585000	-4100.760000	-22915.305000	-38454.705000	973.035000	-30400.605000	-0.000035	-0.000080	-0.000073	-0.000066	-0.000065	-0.000089	0.000002	-0.000016	0.183120	1.236060	-0.335720	-0.840208	-0.260864	0.469115	-1.000000	-1.000000	-1.000000	-1.000000	-1.000000	-1.000000	-1.000000	63.000000	0.000000	-1.000000	-1.000000	369495.000000	1775715763.767211
-65764.440000	-32960.205000	-15858.585000	-4100.760000	-22915.305000	-38454.705000	973.035000	-30400.605000	-0.000035	-0.000080	-0.000073	-0.000066	-0.000064	-0.000088	0.000002	-0.000015	0.183120	1.236060	-0.335720	-0.840208	-0.260864	0.469115	-1.000000	-1.000000	-1.000000	-1.000000	-1.000000	-1.000000	-1.000000	63.000000	0.000000	-1.000000	-1.000000	369496.000000	1775715763.767217
-65764.440000	-32960.205000	-15858.585000	-4100.760000	-22915.305000	-38454.705000	973.035000	-30400.605000	-0.000035	-0.000079	-0.000072	-0.000065	-0.000064	-0.000087	0.000002	-0.000015	0.183120	1.236060	-0.335720	-0.840208	-0.260864	0.469115	-1.000000	-1.000000	-1.000000	-1.000000	-1.000000	-1.000000	-1.000000	63.000000	0.000000	-1.000000	-1.000000	369497.000000	1775715763.767221
-65764.440000	-32960.205000	-15858.585000	-4100.760000	-22915.305000	-38454.705000	973.035000	-30400.605000	-0.000034	-0.000078	-0.000072	-0.000065	-0.000063	-0.000086	0.000002	-0.000015	0.183120	1.236060	-0.335720	-0.840208	-0.260864	0.469115	-1.000000	-1.000000	-1.000000	-1.000000	-1.000000	-1.000000	-1.000000	63.000000	0.000000	-1.000000	-1.000000	369498.000000	1775715763.767226
-65764.440000	-32960.205000	-15858.585000	-4100.760000	-22915.305000	-38454.705000	973.035000	-30400.605000	-0.000034	-0.000078	-0.000071	-0.000064	-0.000063	-0.000086	0.000002	-0.000015	0.183120	1.236060	-0.335720	-0.840208	-0.260864	0.469115	-1.000000	-1.000000	-1.000000	-1.000000	-1.000000	-1.000000	-1.000000	63.000000	0.000000	-1.000000	-1.000000	369499.000000	1775715763.767231
-65764.440000	-32960.205000	-15858.585000	-4100.760000	-22915.305000	-38454.705000	973.035000	-30400.605000	-0.000034	-0.000077	-0.000070	-0.000064	-0.000062	-0.000085	0.000002	-0.000015	0.183120	1.236060	-0.335720	-0.840208	-0.260864	0.469115	-1.000000	-1.000000	-1.000000	-1.000000	-1.000000	-1.000000	-1.000000	63.000000	0.000000	-1.000000	-1.000000	369500.000000	1775715763.767235
-65764.440000	-32960.205000	-15858.585000	-4100.760000	-22915.305000	-38454.705000	973.035000	-30400.605000	-0.000033	-0.000076	-0.000070	-0.000063	-0.000061	-0.000084	0.000002	-0.000015	0.183120	1.236060	-0.335720	-0.840208	-0.260864	0.469115	-1.000000	-1.000000	-1.000000	-1.000000	-1.000000	-1.000000	-1.000000	63.000000	0.000000	-1.000000	-1.000000	369501.000000	1775715763.767240
-65764.440000	-32960.205000	-15858.585000	-4100.760000	-22915.305000	-38454.705000	973.035000	-30400.605000	-0.000033	-0.000076	-0.000069	-0.000063	-0.000061	-0.000083	0.000002	-0.000014	0.183120	1.236060	-0.335720	-0.840208	-0.260864	0.469115	-1.000000	-1.000000	-1.000000	-1.000000	-1.000000	-1.000000	-1.000000	63.000000	0.000000	-1.000000	-1.000000	369502.000000	1775715763.767246
-65764.440000	-32960.205000	-15858.585000	-4100.760000	-22915.305000	-38454.705000	973.035000	-30400.605000	-0.000033	-0.000075	-0.000068	-0.000062	-0.000060	-0.000083	0.000002	-0.000014	0.183120	1.236060	-0.335720	-0.840208	-0.260864	0.469115	-1.000000	-1.000000	-1.000000	-1.000000	-1.000000	-1.000000	-1.000000	63.000000	0.000000	-1.000000	-1.000000	369503.000000	1775715763.767250
-65764.440000	-32960.205000	-15858.585000	-4100.760000	-22915.305000	-38454.705000	973.035000	-30400.605000	-0.000033	-0.000074	-0.000068	-0.000061	-0.000060	-0.000082	0.000002	-0.000014	0.183120	1.236060	-0.335720	-0.840208	-0.260864	0.469115	-1.000000	-1.000000	-1.000000	-1.000000	-1.000000	-1.000000	-1.000000	63.000000	0.000000	-1.000000	-1.000000	369504.000000	1775715763.767255
-65764.440000	-32960.205000	-15858.585000	-4100.760000	-22915.305000	-38454.705000	973.035000	-30400.605000	-0.000032	-0.000074	-0.000067	-0.000061	-0.000059	-0.000081	0.000002	-0.000014	0.183120	1.236060	-0.335720	-0.840208	-0.260864	0.469115	-1.000000	-1.000000	-1.000000	-1.000000	-1.000000	-1.000000	-1.000000	63.000000	0.000000	-1.000000	-1.000000	369505.000000	1775715763.767259
-65764.440000	-32960.205000	-15858.585000	-4100.760000	-22915.305000	-38454.705000	973.035000	-30400.605000	-0.000032	-0.000073	-0.000067	-0.000060	-0.000059	-0.000080	0.000002	-0.000014	0.183120	1.236060	-0.335720	-0.840208	-0.260864	0.469115	-1.000000	-1.000000	-1.000000	-1.000000	-1.000000	-1.000000	-1.000000	63.000000	0.000000	-1.000000	-1.000000	369506.000000	1775715763.767263
-65764.440000	-32960.205000	-15858.585000	-4100.760000	-22915.305000	-38454.705000	973.035000	-30400.605000	-0.000032	-0.000072	-0.000066	-0.000060	-0.000058	-0.000080	0.000002	-0.000014	0.183120	1.236060	-0.335720	-0.840208	-0.260864	0.469115	-1.000000	-1.000000	-1.000000	-1.000000	-1.000000	-1.000000	-1.000000	63.000000	0.000000	-1.000000	-1.000000	369507.000000	1775715763.767268
-65764.440000	-32960.205000	-15858.585000	-4100.760000	-22915.305000	-38454.705000	973.035000	-30400.605000	-0.000031	-0.000072	-0.000066	-0.000059	-0.000058	-0.000079	0.000002	-0.000014	0.183120	1.236060	-0.335720	-0.840208	-0.260864	0.469115	-1.000000	-1.000000	-1.000000	-1.000000	-1.000000	-1.000000	-1.000000	63.000000	0.000000	-1.000000	-1.000000	369508.000000	1775715763.767272
-65764.440000	-32960.205000	-15858.585000	-4100.760000	-22915.305000	-38454.705000	973.035000	-30400.605000	-0.000031	-0.000071	-0.000065	-0.000059	-0.000057	-0.000078	0.000002	-0.000014	0.183120	1.236060	-0.335720	-0.840208	-0.260864	0.469115	-1.000000	-1.000000	-1.000000	-1.000000	-1.000000	-1.000000	-1.000000	63.000000	0.000000	-1.000000	-1.000000	369509.000000	1775715763.767277
-65764.440000	-32960.205000	-15858.585000	-4100.760000	-22915.305000	-38454.705000	973.035000	-30400.605000	-0.000031	-0.000071	-0.000064	-0.000058	-0.000057	-0.000078	0.000002	-0.000013	0.183120	1.236060	-0.335720	-0.840208	-0.260864	0.469115	-1.000000	-1.000000	-1.000000	-1.000000	-1.000000	-1.000000	-1.000000	63.000000	0.000000	-1.000000	-1.000000	369510.000000	1775715763.767281
-65764.440000	-32960.205000	-15858.585000	-4100.760000	-22915.305000	-38454.705000	973.035000	-30400.605000	-0.000031	-0.000070	-0.000064	-0.000058	-0.000056	-0.000077	0.000002	-0.000013	0.183120	1.236060	-0.335720	-0.840208	-0.260864	0.469115	-1.000000	-1.000000	-1.000000	-1.000000	-1.000000	-1.000000	-1.000000	63.000000	0.000000	-1.000000	-1.000000	369511.000000	1775715763.767287
-65764.440000	-32960.205000	-15858.585000	-4100.760000	-22915.305000	-38454.705000	973.035000	-30400.605000	-0.000030	-0.000069	-0.000063	-0.000057	-0.000056	-0.000076	0.000002	-0.000013	0.183120	1.236060	-0.335720	-0.840208	-0.260864	0.469115	-1.000000	-1.000000	-1.000000	-1.000000	-1.000000	-1.000000	-1.000000	63.000000	0.000000	-1.000000	-1.000000	369512.000000	1775715763.767291
-65764.440000	-32960.205000	-15858.585000	-4100.760000	-22915.305000	-38454.705000	973.035000	-30400.605000	-0.000030	-0.000069	-0.000063	-0.000057	-0.000055	-0.000076	0.000002	-0.000013	0.183120	1.236060	-0.335720	-0.840208	-0.260864	0.469115	-1.000000	-1.000000	-1.000000	-1.000000	-1.000000	-1.000000	-1.000000	63.000000	0.000000	-1.000000	-1.000000	369513.000000	1775715763.767296
-65764.440000	-32960.205000	-15858.585000	-4100.760000	-22915.305000	-38454.705000	973.035000	-30400.605000	-0.000030	-0.000068	-0.000062	-0.000056	-0.000055	-0.000075	0.000001	-0.000013	0.183120	1.236060	-0.335720	-0.840208	-0.260864	0.469115	-1.000000	-1.000000	-1.000000	-1.000000	-1.000000	-1.000000	-1.000000	63.000000	0.000000	-1.000000	-1.000000	369514.000000	1775715763.767300
-65764.440000	-32960.205000	-15858.585000	-4100.760000	-22915.305000	-38454.705000	973.035000	-30400.605000	-0.000030	-0.000067	-0.000062	-0.000056	-0.000054	-0.000074	0.000001	-0.000013	0.183120	1.236060	-0.335720	-0.840208	-0.260864	0.469115	-1.000000	-1.000000	-1.000000	-1.000000	-1.000000	-1.000000	-1.000000	63.000000	0.000000	-1.000000	-1.000000	369515.000000	1775715763.767305
-65764.440000	-32960.205000	-15858.585000	-4100.760000	-22915.305000	-38454.705000	973.035000	-30400.605000	-0.000029	-0.000067	-0.000061	-0.000055	-0.000054	-0.000074	0.000001	-0.000013	0.183120	1.236060	-0.335720	-0.840208	-0.260864	0.469115	-1.000000	-1.000000	-1.000000	-1.000000	-1.000000	-1.000000	-1.000000	63.000000	0.000000	-1.000000	-1.000000	369516.000000	1775715763.767309
-65764.440000	-32960.205000	-15858.585000	-4100.760000	-22915.305000	-38454.705000	973.035000	-30400.605000	-0.000029	-0.000066	-0.000061	-0.000055	-0.000053	-0.000073	0.000001	-0.000013	0.183120	1.236060	-0.335720	-0.840208	-0.260864	0.469115	-1.000000	-1.000000	-1.000000	-1.000000	-1.000000	-1.000000	-1.000000	63.000000	0.000000	-1.000000	-1.000000	369517.000000	1775715763.767313
-65764.440000	-32960.205000	-15858.585000	-4100.760000	-22915.305000	-38454.705000	973.035000	-30400.605000	-0.000029	-0.000066	-0.000060	-0.000054	-0.000053	-0.000072	0.000001	-0.000012	0.183120	1.236060	-0.335720	-0.840208	-0.260864	0.469115	-1.000000	-1.000000	-1.000000	-1.000000	-1.000000	-1.000000	-1.000000	63.000000	0.000000	-1.000000	-1.000000	369518.000000	1775715763.767318
-65764.440000	-32960.205000	-15858.585000	-4100.760000	-22915.305000	-38454.705000	973.035000	-30400.605000	-0.000029	-0.000065	-0.000060	-0.000054	-0.000052	-0.000072	0.000001	-0.000012	0.183120	1.236060	-0.335720	-0.840208	-0.260864	0.469115	-1.000000	-1.000000	-1.000000	-1.000000	-1.000000	-1.000000	-1.000000	63.000000	0.000000	-1.000000	-1.000000	369519.000000	1775715763.767322
-65764.440000	-32960.205000	-15858.585000	-4100.760000	-22915.305000	-38454.705000	973.035000	-30400.605000	-0.000028	-0.000065	-0.000059	-0.000053	-0.000052	-0.000071	0.000001	-0.000012	0.183120	1.236060	-0.335720	-0.840208	-0.260864	0.469115	-1.000000	-1.000000	-1.000000	-1.000000	-1.000000	-1.000000	-1.000000	63.000000	0.000000	-1.000000	-1.000000	369520.000000	1775715763.767326
-65764.440000	-32960.205000	-15858.585000	-4100.760000	-22915.305000	-38454.705000	973.035000	-30400.605000	-0.000028	-0.000064	-0.000058	-0.000053	-0.000051	-0.000070	0.000001	-0.000012	0.183120	1.236060	-0.335720	-0.840208	-0.260864	0.469115	-1.000000	-1.000000	-1.000000	-1.000000	-1.000000	-1.000000	-1.000000	63.000000	0.000000	-1.000000	-1.000000	369521.000000	1775715763.767332
-65764.440000	-32960.205000	-15858.585000	-4100.760000	-22915.305000	-38454.705000	973.035000	-30400.605000	-0.000028	-0.000063	-0.000058	-0.000053	-0.000051	-0.000070	0.000001	-0.000012	0.183120	1.236060	-0.335720	-0.840208	-0.260864	0.469115	-1.000000	-1.000000	-1.000000	-1.000000	-1.000000	-1.000000	-1.000000	63.000000	0.000000	-1.000000	-1.000000	369522.000000	1775715763.767339
-65764.440000	-32960.205000	-15858.585000	-4100.760000	-22915.305000	-38454.705000	973.035000	-30400.605000	-0.000028	-0.000063	-0.000057	-0.000052	-0.000050	-0.000069	0.000001	-0.000012	0.183120	1.236060	-0.335720	-0.840208	-0.260864	0.469115	-1.000000	-1.000000	-1.000000	-1.000000	-1.000000	-1.000000	-1.000000	63.000000	0.000000	-1.000000	-1.000000	369523.000000	1775715763.767346
-65764.440000	-32960.205000	-15858.585000	-4100.760000	-22915.305000	-38454.705000	973.035000	-30400.605000	-0.000027	-0.000062	-0.000057	-0.000052	-0.000050	-0.000068	0.000001	-0.000012	0.183120	1.236060	-0.335720	-0.840208	-0.260864	0.469115	-1.000000	-1.000000	-1.000000	-1.000000	-1.000000	-1.000000	-1.000000	63.000000	0.000000	-1.000000	-1.000000	369524.000000	1775715763.767352
-65764.440000	-32960.205000	-15858.585000	-4100.760000	-22915.305000	-38454.705000	973.035000	-30400.605000	-0.000027	-0.000062	-0.000056	-0.000051	-0.000050	-0.000068	0.000001	-0.000012	0.183120	1.236060	-0.335720	-0.840208	-0.260864	0.469115	-1.000000	-1.000000	-1.000000	-1.000000	-1.000000	-1.000000	-1.000000	63.000000	0.000000	-1.000000	-1.000000	369525.000000	1775715763.767358
-65764.440000	-32960.205000	-15858.585000	-4100.760000	-22915.305000	-38454.705000	973.035000	-30400.605000	-0.000027	-0.000061	-0.000056	-0.000051	-0.000049	-0.000067	0.000001	-0.000011	0.183120	1.236060	-0.335720	-0.840208	-0.260864	0.469115	-1.000000	-1.000000	-1.000000	-1.000000	-1.000000	-1.000000	-1.000000	63.000000	0.000000	-1.000000	-1.000000	369526.000000	1775715763.767365
-65764.440000	-32960.205000	-15858.585000	-4100.760000	-22915.305000	-38454.705000	973.035000	-30400.605000	-0.000027	-0.000061	-0.000055	-0.000050	-0.000049	-0.000067	0.000001	-0.000011	0.183120	1.236060	-0.335720	-0.840208	-0.260864	0.469115	-1.000000	-1.000000	-1.000000	-1.000000	-1.000000	-1.000000	-1.000000	63.000000	0.000000	-1.000000	-1.000000	369527.000000	1775715763.767370
-65764.440000	-32960.205000	-15858.585000	-4100.760000	-22915.305000	-38454.705000	973.035000	-30400.605000	-0.000026	-0.000060	-0.000055	-0.000050	-0.000048	-0.000066	0.000001	-0.000011	0.183120	1.236060	-0.335720	-0.840208	-0.260864	0.469115	-1.000000	-1.000000	-1.000000	-1.000000	-1.000000	-1.000000	-1.000000	63.000000	0.000000	-1.000000	-1.000000	369528.000000	1775715763.767375
-65764.440000	-32960.205000	-15858.585000	-4100.760000	-22915.305000	-38454.705000	973.035000	-30400.605000	-0.000026	-0.000060	-0.000054	-0.000049	-0.000048	-0.000065	0.000001	-0.000011	0.183120	1.236060	-0.335720	-0.840208	-0.260864	0.469115	-1.000000	-1.000000	-1.000000	-1.000000	-1.000000	-1.000000	-1.000000	63.000000	0.000000	-1.000000	-1.000000	369529.000000	1775715763.767380
-65764.440000	-32960.205000	-15858.585000	-4100.760000	-22915.305000	-38454.705000	973.035000	-30400.605000	-0.000026	-0.000059	-0.000054	-0.000049	-0.000047	-0.000065	0.000001	-0.000011	0.183120	1.236060	-0.335720	-0.840208	-0.260864	0.469115	-1.000000	-1.000000	-1.000000	-1.000000	-1.000000	-1.000000	-1.000000	63.000000	0.000000	-1.000000	-1.000000	369530.000000	1775715763.767384
-65764.440000	-32960.205000	-15858.585000	-4100.760000	-22915.305000	-38454.705000	973.035000	-30400.605000	-0.000026	-0.000059	-0.000054	-0.000049	-0.000047	-0.000064	0.000001	-0.000011	0.183120	1.236060	-0.335720	-0.840208	-0.260864	0.469115	-1.000000	-1.000000	-1.000000	-1.000000	-1.000000	-1.000000	-1.000000	63.000000	0.000000	-1.000000	-1.000000	369531.000000	1775715763.767389
-65764.440000	-32960.205000	-15858.585000	-4100.760000	-22915.305000	-38454.705000	973.035000	-30400.605000	-0.000026	-0.000058	-0.000053	-0.000048	-0.000046	-0.000064	0.000001	-0.000011	0.183120	1.236060	-0.335720	-0.840208	-0.260864	0.469115	-1.000000	-1.000000	-1.000000	-1.000000	-1.000000	-1.000000	-1.000000	63.000000	0.000000	-1.000000	-1.000000	369532.000000	1775715763.767394
-65764.440000	-32960.205000	-15858.585000	-4100.760000	-22915.305000	-38454.705000	973.035000	-30400.605000	-0.000025	-0.000058	-0.000053	-0.000048	-0.000046	-0.000063	0.000001	-0.000011	0.183120	1.236060	-0.335720	-0.840208	-0.260864	0.469115	-1.000000	-1.000000	-1.000000	-1.000000	-1.000000	-1.000000	-1.000000	63.000000	0.000000	-1.000000	-1.000000	369533.000000	1775715763.767398
-65764.440000	-32960.205000	-15858.585000	-4100.760000	-22915.305000	-38454.705000	973.035000	-30400.605000	-0.000025	-0.000057	-0.000052	-0.000047	-0.000046	-0.000063	0.000001	-0.000011	0.183120	1.236060	-0.335720	-0.840208	-0.260864	0.469115	-1.000000	-1.000000	-1.000000	-1.000000	-1.000000	-1.000000	-1.000000	63.000000	0.000000	-1.000000	-1.000000	369534.000000	1775715763.767402
-65764.440000	-32960.205000	-15858.585000	-4100.760000	-22915.305000	-38454.705000	973.035000	-30400.605000	-0.000025	-0.000056	-0.000052	-0.000047	-0.000045	-0.000062	0.000001	-0.000010	0.183120	1.236060	-0.335720	-0.840208	-0.260864	0.469115	-1.000000	-1.000000	-1.000000	-1.000000	-1.000000	-1.000000	-1.000000	63.000000	0.000000	-1.000000	-1.000000	369535.000000	1775715763.767407
-65764.440000	-32960.205000	-15858.585000	-4100.760000	-22915.305000	-38454.705000	973.035000	-30400.605000	-0.000025	-0.000056	-0.000051	-0.000046	-0.000045	-0.000061	0.000001	-0.000010	0.183120	1.236060	-0.335720	-0.840208	-0.260864	0.469115	-1.000000	-1.000000	-1.000000	-1.000000	-1.000000	-1.000000	-1.000000	63.000000	0.000000	-1.000000	-1.000000	369536.000000	1775715763.767411
-65764.440000	-32960.205000	-15858.585000	-4100.760000	-22915.305000	-38454.705000	973.035000	-30400.605000	-0.000024	-0.000055	-0.000051	-0.000046	-0.000044	-0.000061	0.000001	-0.000010	0.183120	1.236060	-0.335720	-0.840208	-0.260864	0.469115	-1.000000	-1.000000	-1.000000	-1.000000	-1.000000	-1.000000	-1.000000	63.000000	0.000000	-1.000000	-1.000000	369537.000000	1775715763.767416
-65764.440000	-32960.205000	-15858.585000	-4100.760000	-22915.305000	-38454.705000	973.035000	-30400.605000	-0.000024	-0.000055	-0.000050	-0.000046	-0.000044	-0.000060	0.000001	-0.000010	0.183120	1.236060	-0.335720	-0.840208	-0.260864	0.469115	-1.000000	-1.000000	-1.000000	-1.000000	-1.000000	-1.000000	-1.000000	63.000000	0.000000	-1.000000	-1.000000	369538.000000	1775715763.767421
-65764.440000	-32960.205000	-15858.585000	-4100.760000	-22915.305000	-38454.705000	973.035000	-30400.605000	-0.000024	-0.000055	-0.000050	-0.000045	-0.000044	-0.000060	0.000001	-0.000010	0.183120	1.236060	-0.335720	-0.840208	-0.260864	0.469115	-1.000000	-1.000000	-1.000000	-1.000000	-1.000000	-1.000000	-1.000000	63.000000	0.000000	-1.000000	-1.000000	369539.000000	1775715763.767425
-65764.440000	-32960.205000	-15858.585000	-4100.760000	-22915.305000	-38454.705000	973.035000	-30400.605000	-0.000024	-0.000054	-0.000049	-0.000045	-0.000043	-0.000059	0.000001	-0.000010	0.183120	1.236060	-0.335720	-0.840208	-0.260864	0.469115	-1.000000	-1.000000	-1.000000	-1.000000	-1.000000	-1.000000	-1.000000	63.000000	0.000000	-1.000000	-1.000000	369540.000000	1775715763.767430
-65764.440000	-32960.205000	-15858.585000	-4100.760000	-22915.305000	-38454.705000	973.035000	-30400.605000	-0.000024	-0.000054	-0.000049	-0.000044	-0.000043	-0.000059	0.000001	-0.000010	0.183120	1.236060	-0.335720	-0.840208	-0.260864	0.469115	-1.000000	-1.000000	-1.000000	-1.000000	-1.000000	-1.000000	-1.000000	63.000000	0.000000	-1.000000	-1.000000	369541.000000	1775715763.767434
-65764.440000	-32960.205000	-15858.585000	-4100.760000	-22915.305000	-38454.705000	973.035000	-30400.605000	-0.000023	-0.000053	-0.000049	-0.000044	-0.000042	-0.000058	0.000001	-0.000010	0.183120	1.236060	-0.335720	-0.840208	-0.260864	0.469115	-1.000000	-1.000000	-1.000000	-1.000000	-1.000000	-1.000000	-1.000000	63.000000	0.000000	-1.000000	-1.000000	369542.000000	1775715763.767439
-65764.440000	-32960.205000	-15858.585000	-4100.760000	-22915.305000	-38454.705000	973.035000	-30400.605000	-0.000023	-0.000053	-0.000048	-0.000044	-0.000042	-0.000058	0.000001	-0.000010	0.183120	1.236060	-0.335720	-0.840208	-0.260864	0.469115	-1.000000	-1.000000	-1.000000	-1.000000	-1.000000	-1.000000	-1.000000	63.000000	0.000000	-1.000000	-1.000000	369543.000000	1775715763.767444
-65764.440000	-32960.205000	-15858.585000	-4100.760000	-22915.305000	-38454.705000	973.035000	-30400.605000	-0.000023	-0.000052	-0.000048	-0.000043	-0.000042	-0.000057	0.000001	-0.000010	0.183120	1.236060	-0.335720	-0.840208	-0.260864	0.469115	-1.000000	-1.000000	-1.000000	-1.000000	-1.000000	-1.000000	-1.000000	63.000000	0.000000	-1.000000	-1.000000	369544.000000	1775715763.767448
-65764.440000	-32960.205000	-15858.585000	-4100.760000	-22915.305000	-38454.705000	973.035000	-30400.605000	-0.000023	-0.000052	-0.000047	-0.000043	-0.000041	-0.000057	0.000001	-0.000009	0.183120	1.236060	-0.335720	-0.840208	-0.260864	0.469115	-1.000000	-1.000000	-1.000000	-1.000000	-1.000000	-1.000000	-1.000000	63.000000	0.000000	-1.000000	-1.000000	369545.000000	1775715763.767453
-65764.440000	-32960.205000	-15858.585000	-4100.760000	-22915.305000	-38454.705000	973.035000	-30400.605000	-0.000023	-0.000051	-0.000047	-0.000042	-0.000041	-0.000056	0.000001	-0.000009	0.183120	1.236060	-0.335720	-0.840208	-0.260864	0.469115	-1.000000	-1.000000	-1.000000	-1.000000	-1.000000	-1.000000	-1.000000	63.000000	0.000000	-1.000000	-1.000000	369546.000000	1775715763.767458
-65764.440000	-32960.205000	-15858.585000	-4100.760000	-22915.305000	-38454.705000	973.035000	-30400.605000	-0.000022	-0.000051	-0.000046	-0.000042	-0.000040	-0.000056	0.000001	-0.000009	0.183120	1.236060	-0.335720	-0.840208	-0.260864	0.469115	-1.000000	-1.000000	-1.000000	-1.000000	-1.000000	-1.000000	-1.000000	63.000000	0.000000	-1.000000	-1.000000	369547.000000	1775715763.767463
-65764.440000	-32960.205000	-15858.585000	-4100.760000	-22915.305000	-38454.705000	973.035000	-30400.605000	-0.000022	-0.000050	-0.000046	-0.000042	-0.000040	-0.000055	0.000001	-0.000009	0.183120	1.236060	-0.335720	-0.840208	-0.260864	0.469115	-1.000000	-1.000000	-1.000000	-1.000000	-1.000000	-1.000000	-1.000000	63.000000	0.000000	-1.000000	-1.000000	369548.000000	1775715763.767467
-65764.440000	-32960.205000	-15858.585000	-4100.760000	-22915.305000	-38454.705000	973.035000	-30400.605000	-0.000022	-0.000050	-0.000046	-0.000041	-0.000040	-0.000055	0.000001	-0.000009	0.183120	1.236060	-0.335720	-0.840208	-0.260864	0.469115	-1.000000	-1.000000	-1.000000	-1.000000	-1.000000	-1.000000	-1.000000	63.000000	0.000000	-1.000000	-1.000000	369549.000000	1775715763.767472
-65764.440000	-32960.205000	-15858.585000	-4100.760000	-22915.305000	-38454.705000	973.035000	-30400.605000	-0.000022	-0.000049	-0.000045	-0.000041	-0.000039	-0.000054	0.000001	-0.000009	0.183120	1.236060	-0.335720	-0.840208	-0.260864	0.469115	-1.000000	-1.000000	-1.000000	-1.000000	-1.000000	-1.000000	-1.000000	63.000000	0.000000	-1.000000	-1.000000	369550.000000	1775715763.767476
-65764.440000	-32960.205000	-15858.585000	-4100.760000	-22915.305000	-38454.705000	973.035000	-30400.605000	-0.000022	-0.000049	-0.000045	-0.000041	-0.000039	-0.000054	0.000001	-0.000009	0.183120	1.236060	-0.335720	-0.840208	-0.260864	0.469115	-1.000000	-1.000000	-1.000000	-1.000000	-1.000000	-1.000000	-1.000000	63.000000	0.000000	-1.000000	-1.000000	369551.000000	1775715763.767481
-65764.440000	-32960.205000	-15858.585000	-4100.760000	-22915.305000	-38454.705000	973.035000	-30400.605000	-0.000021	-0.000048	-0.000044	-0.000040	-0.000039	-0.000053	0.000001	-0.000009	0.183120	1.236060	-0.335720	-0.840208	-0.260864	0.469115	-1.000000	-1.000000	-1.000000	-1.000000	-1.000000	-1.000000	-1.000000	63.000000	0.000000	-1.000000	-1.000000	369552.000000	1775715763.767485
-65764.440000	-32960.205000	-15858.585000	-4100.760000	-22915.305000	-38454.705000	973.035000	-30400.605000	-0.000021	-0.000048	-0.000044	-0.000040	-0.000038	-0.000053	0.000001	-0.000009	0.183120	1.236060	-0.335720	-0.840208	-0.260864	0.469115	-1.000000	-1.000000	-1.000000	-1.000000	-1.000000	-1.000000	-1.000000	63.000000	0.000000	-1.000000	-1.000000	369553.000000	1775715763.767490
-65764.440000	-32960.205000	-15858.585000	-4100.760000	-22915.305000	-38454.705000	973.035000	-30400.605000	-0.000021	-0.000048	-0.000044	-0.000040	-0.000038	-0.000052	0.000001	-0.000009	0.183120	1.236060	-0.335720	-0.840208	-0.260864	0.469115	-1.000000	-1.000000	-1.000000	-1.000000	-1.000000	-1.000000	-1.000000	63.000000	0.000000	-1.000000	-1.000000	369554.000000	1775715763.767495
-65764.440000	-32960.205000	-15858.585000	-4100.760000	-22915.305000	-38454.705000	973.035000	-30400.605000	-0.000021	-0.000047	-0.000043	-0.000039	-0.000038	-0.000052	0.000001	-0.000009	0.183120	1.236060	-0.335720	-0.840208	-0.260864	0.469115	-1.000000	-1.000000	-1.000000	-1.000000	-1.000000	-1.000000	-1.000000	63.000000	0.000000	-1.000000	-1.000000	369555.000000	1775715763.767499
-65764.440000	-32960.205000	-15858.585000	-4100.760000	-22915.305000	-38454.705000	973.035000	-30400.605000	-0.000021	-0.000047	-0.000043	-0.000039	-0.000037	-0.000051	0.000001	-0.000008	0.183120	1.236060	-0.335720	-0.840208	-0.260864	0.469115	-1.000000	-1.000000	-1.000000	-1.000000	-1.000000	-1.000000	-1.000000	63.000000	0.000000	-1.000000	-1.000000	369556.000000	1775715763.767503
-65764.440000	-32960.205000	-15858.585000	-4100.760000	-22915.305000	-38454.705000	973.035000	-30400.605000	-0.000021	-0.000046	-0.000042	-0.000038	-0.000037	-0.000051	0.000001	-0.000008	0.183120	1.236060	-0.335720	-0.840208	-0.260864	0.469115	-1.000000	-1.000000	-1.000000	-1.000000	-1.000000	-1.000000	-1.000000	63.000000	0.000000	-1.000000	-1.000000	369557.000000	1775715763.767508
-65764.440000	-32960.205000	-15858.585000	-4100.760000	-22915.305000	-38454.705000	973.035000	-30400.605000	-0.000020	-0.000046	-0.000042	-0.000038	-0.000036	-0.000050	0.000001	-0.000008	0.183120	1.236060	-0.335720	-0.840208	-0.260864	0.469115	-1.000000	-1.000000	-1.000000	-1.000000	-1.000000	-1.000000	-1.000000	63.000000	0.000000	-1.000000	-1.000000	369558.000000	1775715763.767512
-65764.440000	-32960.205000	-15858.585000	-4100.760000	-22915.305000	-38454.705000	973.035000	-30400.605000	-0.000020	-0.000045	-0.000042	-0.000038	-0.000036	-0.000050	0.000001	-0.000008	0.183120	1.236060	-0.335720	-0.840208	-0.260864	0.469115	-1.000000	-1.000000	-1.000000	-1.000000	-1.000000	-1.000000	-1.000000	63.000000	0.000000	-1.000000	-1.000000	369559.000000	1775715763.767517
-65764.440000	-32960.205000	-15858.585000	-4100.760000	-22915.305000	-38454.705000	973.035000	-30400.605000	-0.000020	-0.000045	-0.000041	-0.000037	-0.000036	-0.000049	0.000001	-0.000008	0.183120	1.236060	-0.335720	-0.840208	-0.260864	0.469115	-1.000000	-1.000000	-1.000000	-1.000000	-1.000000	-1.000000	-1.000000	63.000000	0.000000	-1.000000	-1.000000	369560.000000	1775715763.767521
-65764.440000	-32960.205000	-15858.585000	-4100.760000	-22915.305000	-38454.705000	973.035000	-30400.605000	-0.000020	-0.000045	-0.000041	-0.000037	-0.000035	-0.000049	0.000001	-0.000008	0.183120	1.236060	-0.335720	-0.840208	-0.260864	0.469115	-1.000000	-1.000000	-1.000000	-1.000000	-1.000000	-1.000000	-1.000000	63.000000	0.000000	-1.000000	-1.000000	369561.000000	1775715763.767525
-65764.440000	-32960.205000	-15858.585000	-4100.760000	-22915.305000	-38454.705000	973.035000	-30400.605000	-0.000020	-0.000044	-0.000040	-0.000037	-0.000035	-0.000048	0.000001	-0.000008	0.183120	1.236060	-0.335720	-0.840208	-0.260864	0.469115	-1.000000	-1.000000	-1.000000	-1.000000	-1.000000	-1.000000	-1.000000	63.000000	0.000000	-1.000000	-1.000000	369562.000000	1775715763.767530
-65764.440000	-32960.205000	-15858.585000	-4100.760000	-22915.305000	-38454.705000	973.035000	-30400.605000	-0.000019	-0.000044	-0.000040	-0.000036	-0.000035	-0.000048	0.000001	-0.000008	0.183120	1.236060	-0.335720	-0.840208	-0.260864	0.469115	-1.000000	-1.000000	-1.000000	-1.000000	-1.000000	-1.000000	-1.000000	63.000000	0.000000	-1.000000	-1.000000	369563.000000	1775715763.767534
-65764.440000	-32960.205000	-15858.585000	-4100.760000	-22915.305000	-38454.705000	973.035000	-30400.605000	-0.000019	-0.000043	-0.000040	-0.000036	-0.000034	-0.000047	0.000001	-0.000008	0.183120	1.236060	-0.335720	-0.840208	-0.260864	0.469115	-1.000000	-1.000000	-1.000000	-1.000000	-1.000000	-1.000000	-1.000000	63.000000	0.000000	-1.000000	-1.000000	369564.000000	1775715763.767539
-65764.440000	-32960.205000	-15858.585000	-4100.760000	-22915.305000	-38454.705000	973.035000	-30400.605000	-0.000019	-0.000043	-0.000039	-0.000036	-0.000034	-0.000047	0.000001	-0.000008	0.183120	1.236060	-0.335720	-0.840208	-0.260864	0.469115	-1.000000	-1.000000	-1.000000	-1.000000	-1.000000	-1.000000	-1.000000	63.000000	0.000000	-1.000000	-1.000000	369565.000000	1775715763.767544
-65764.440000	-32960.205000	-15858.585000	-4100.760000	-22915.305000	-38454.705000	973.035000	-30400.605000	-0.000019	-0.000043	-0.000039	-0.000035	-0.000034	-0.000047	0.000001	-0.000008	0.183120	1.236060	-0.335720	-0.840208	-0.260864	0.469115	-1.000000	-1.000000	-1.000000	-1.000000	-1.000000	-1.000000	-1.000000	63.000000	0.000000	-1.000000	-1.000000	369566.000000	1775715763.767548
-65764.440000	-32960.205000	-15858.585000	-4100.760000	-22915.305000	-38454.705000	973.035000	-30400.605000	-0.000019	-0.000042	-0.000039	-0.000035	-0.000033	-0.000046	0.000001	-0.000008	0.183120	1.236060	-0.335720	-0.840208	-0.260864	0.469115	-1.000000	-1.000000	-1.000000	-1.000000	-1.000000	-1.000000	-1.000000	63.000000	0.000000	-1.000000	-1.000000	369567.000000	1775715763.767552
-65764.440000	-32960.205000	-15858.585000	-4100.760000	-22915.305000	-38454.705000	973.035000	-30400.605000	-0.000019	-0.000042	-0.000038	-0.000035	-0.000033	-0.000046	0.000001	-0.000007	0.183120	1.236060	-0.335720	-0.840208	-0.260864	0.469115	-1.000000	-1.000000	-1.000000	-1.000000	-1.000000	-1.000000	-1.000000	63.000000	0.000000	-1.000000	-1.000000	369568.000000	1775715763.767557
-65764.440000	-32960.205000	-15858.585000	-4100.760000	-22915.305000	-38454.705000	973.035000	-30400.605000	-0.000018	-0.000041	-0.000038	-0.000035	-0.000033	-0.000045	0.000001	-0.000007	0.183120	1.236060	-0.335720	-0.840208	-0.260864	0.469115	-1.000000	-1.000000	-1.000000	-1.000000	-1.000000	-1.000000	-1.000000	63.000000	0.000000	-1.000000	-1.000000	369569.000000	1775715763.767561
-65764.440000	-32960.205000	-15858.585000	-4100.760000	-22915.305000	-38454.705000	973.035000	-30400.605000	-0.000018	-0.000041	-0.000038	-0.000034	-0.000033	-0.000045	0.000001	-0.000007	0.183120	1.236060	-0.335720	-0.840208	-0.260864	0.469115	-1.000000	-1.000000	-1.000000	-1.000000	-1.000000	-1.000000	-1.000000	63.000000	0.000000	-1.000000	-1.000000	369570.000000	1775715763.767565
-65764.440000	-32960.205000	-15858.585000	-4100.760000	-22915.305000	-38454.705000	973.035000	-30400.605000	-0.000018	-0.000041	-0.000037	-0.000034	-0.000032	-0.000044	0.000001	-0.000007	0.183120	1.236060	-0.335720	-0.840208	-0.260864	0.469115	-1.000000	-1.000000	-1.000000	-1.000000	-1.000000	-1.000000	-1.000000	63.000000	0.000000	-1.000000	-1.000000	369571.000000	1775715763.767570
-65764.440000	-32960.205000	-15858.585000	-4100.760000	-22915.305000	-38454.705000	973.035000	-30400.605000	-0.000018	-0.000040	-0.000037	-0.000034	-0.000032	-0.000044	0.000001	-0.000007	0.183120	1.236060	-0.335720	-0.840208	-0.260864	0.469115	-1.000000	-1.000000	-1.000000	-1.000000	-1.000000	-1.000000	-1.000000	63.000000	0.000000	-1.000000	-1.000000	369572.000000	1775715763.767574
-65764.440000	-32960.205000	-15858.585000	-4100.760000	-22915.305000	-38454.705000	973.035000	-30400.605000	-0.000018	-0.000040	-0.000037	-0.000033	-0.000032	-0.000044	0.000001	-0.000007	0.183120	1.236060	-0.335720	-0.840208	-0.260864	0.469115	-1.000000	-1.000000	-1.000000	-1.000000	-1.000000	-1.000000	-1.000000	63.000000	0.000000	-1.000000	-1.000000	369573.000000	1775715763.767578
-65764.440000	-32960.205000	-15858.585000	-4100.760000	-22915.305000	-38454.705000	973.035000	-30400.605000	-0.000018	-0.000040	-0.000036	-0.000033	-0.000031	-0.000043	0.000001	-0.000007	0.183120	1.236060	-0.335720	-0.840208	-0.260864	0.469115	-1.000000	-1.000000	-1.000000	-1.000000	-1.000000	-1.000000	-1.000000	63.000000	0.000000	-1.000000	-1.000000	369574.000000	1775715763.767582
-65764.440000	-32960.205000	-15858.585000	-4100.760000	-22915.305000	-38454.705000	973.035000	-30400.605000	-0.000017	-0.000039	-0.000036	-0.000033	-0.000031	-0.000043	0.000001	-0.000007	0.183120	1.236060	-0.335720	-0.840208	-0.260864	0.469115	-1.000000	-1.000000	-1.000000	-1.000000	-1.000000	-1.000000	-1.000000	63.000000	0.000000	-1.000000	-1.000000	369575.000000	1775715763.767586
-65764.440000	-32960.205000	-15858.585000	-4100.760000	-22915.305000	-38454.705000	973.035000	-30400.605000	-0.000017	-0.000039	-0.000036	-0.000032	-0.000031	-0.000042	0.000001	-0.000007	0.183120	1.236060	-0.335720	-0.840208	-0.260864	0.469115	-1.000000	-1.000000	-1.000000	-1.000000	-1.000000	-1.000000	-1.000000	63.000000	0.000000	-1.000000	-1.000000	369576.000000	1775715763.767591
-65764.440000	-32960.205000	-15858.585000	-4100.760000	-22915.305000	-38454.705000	973.035000	-30400.605000	-0.000017	-0.000039	-0.000035	-0.000032	-0.000030	-0.000042	0.000001	-0.000007	0.183120	1.236060	-0.335720	-0.840208	-0.260864	0.469115	-1.000000	-1.000000	-1.000000	-1.000000	-1.000000	-1.000000	-1.000000	63.000000	0.000000	-1.000000	-1.000000	369577.000000	1775715763.767596
-65764.440000	-32960.205000	-15858.585000	-4100.760000	-22915.305000	-38454.705000	973.035000	-30400.605000	-0.000017	-0.000038	-0.000035	-0.000032	-0.000030	-0.000042	0.000001	-0.000007	0.183120	1.236060	-0.335720	-0.840208	-0.260864	0.469115	-1.000000	-1.000000	-1.000000	-1.000000	-1.000000	-1.000000	-1.000000	63.000000	0.000000	-1.000000	-1.000000	369578.000000	1775715763.767601
-65764.440000	-32960.205000	-15858.585000	-4100.760000	-22915.305000	-38454.705000	973.035000	-30400.605000	-0.000017	-0.000038	-0.000035	-0.000031	-0.000030	-0.000041	0.000001	-0.000007	0.183120	1.236060	-0.335720	-0.840208	-0.260864	0.469115	-1.000000	-1.000000	-1.000000	-1.000000	-1.000000	-1.000000	-1.000000	63.000000	0.000000	-1.000000	-1.000000	369579.000000	1775715763.767606
-65764.440000	-32960.205000	-15858.585000	-4100.760000	-22915.305000	-38454.705000	973.035000	-30400.605000	-0.000017	-0.000037	-0.000034	-0.000031	-0.000030	-0.000041	0.000001	-0.000007	0.183120	1.236060	-0.335720	-0.840208	-0.260864	0.469115	-1.000000	-1.000000	-1.000000	-1.000000	-1.000000	-1.000000	-1.000000	63.000000	0.000000	-1.000000	-1.000000	369580.000000	1775715763.767610
-65764.440000	-32960.205000	-15858.585000	-4100.760000	-22915.305000	-38454.705000	973.035000	-30400.605000	-0.000017	-0.000037	-0.000034	-0.000031	-0.000029	-0.000040	0.000001	-0.000006	0.183120	1.236060	-0.335720	-0.840208	-0.260864	0.469115	-1.000000	-1.000000	-1.000000	-1.000000	-1.000000	-1.000000	-1.000000	63.000000	0.000000	-1.000000	-1.000000	369581.000000	1775715763.767614
-65764.440000	-32960.205000	-15858.585000	-4100.760000	-22915.305000	-38454.705000	973.035000	-30400.605000	-0.000016	-0.000037	-0.000034	-0.000031	-0.000029	-0.000040	0.000001	-0.000006	0.183120	1.236060	-0.335720	-0.840208	-0.260864	0.469115	-1.000000	-1.000000	-1.000000	-1.000000	-1.000000	-1.000000	-1.000000	63.000000	0.000000	-1.000000	-1.000000	369582.000000	1775715763.767619
-65764.440000	-32960.205000	-15858.585000	-4100.760000	-22915.305000	-38454.705000	973.035000	-30400.605000	-0.000016	-0.000036	-0.000033	-0.000030	-0.000029	-0.000040	0.000001	-0.000006	0.183120	1.236060	-0.335720	-0.840208	-0.260864	0.469115	-1.000000	-1.000000	-1.000000	-1.000000	-1.000000	-1.000000	-1.000000	63.000000	0.000000	-1.000000	-1.000000	369583.000000	1775715763.767623
-65764.440000	-32960.205000	-15858.585000	-4100.760000	-22915.305000	-38454.705000	973.035000	-30400.605000	-0.000016	-0.000036	-0.000033	-0.000030	-0.000028	-0.000039	0.000001	-0.000006	0.183120	1.236060	-0.335720	-0.840208	-0.260864	0.469115	-1.000000	-1.000000	-1.000000	-1.000000	-1.000000	-1.000000	-1.000000	63.000000	0.000000	-1.000000	-1.000000	369584.000000	1775715763.767628
-65764.440000	-32960.205000	-15858.585000	-4100.760000	-22915.305000	-38454.705000	973.035000	-30400.605000	-0.000016	-0.000036	-0.000033	-0.000030	-0.000028	-0.000039	0.000001	-0.000006	0.183120	1.236060	-0.335720	-0.840208	-0.260864	0.469115	-1.000000	-1.000000	-1.000000	-1.000000	-1.000000	-1.000000	-1.000000	63.000000	0.000000	-1.000000	-1.000000	369585.000000	1775715763.767632
-65764.440000	-32960.205000	-15858.585000	-4100.760000	-22915.305000	-38454.705000	973.035000	-30400.605000	-0.000016	-0.000035	-0.000032	-0.000030	-0.000028	-0.000039	0.000001	-0.000006	0.183120	1.236060	-0.335720	-0.840208	-0.260864	0.469115	-1.000000	-1.000000	-1.000000	-1.000000	-1.000000	-1.000000	-1.000000	63.000000	0.000000	-1.000000	-1.000000	369586.000000	1775715763.767637
-65764.440000	-32960.205000	-15858.585000	-4100.760000	-22915.305000	-38454.705000	973.035000	-30400.605000	-0.000016	-0.000035	-0.000032	-0.000029	-0.000028	-0.000038	0.000001	-0.000006	0.183120	1.236060	-0.335720	-0.840208	-0.260864	0.469115	-1.000000	-1.000000	-1.000000	-1.000000	-1.000000	-1.000000	-1.000000	63.000000	0.000000	-1.000000	-1.000000	369587.000000	1775715763.767641
-65764.440000	-32960.205000	-15858.585000	-4100.760000	-22915.305000	-38454.705000	973.035000	-30400.605000	-0.000016	-0.000035	-0.000032	-0.000029	-0.000027	-0.000038	0.000001	-0.000006	0.183120	1.236060	-0.335720	-0.840208	-0.260864	0.469115	-1.000000	-1.000000	-1.000000	-1.000000	-1.000000	-1.000000	-1.000000	63.000000	0.000000	-1.000000	-1.000000	369588.000000	1775715763.767645
-65764.440000	-32960.205000	-15858.585000	-4100.760000	-22915.305000	-38454.705000	973.035000	-30400.605000	-0.000015	-0.000034	-0.000032	-0.000029	-0.000027	-0.000038	0.000001	-0.000006	0.183120	1.236060	-0.335720	-0.840208	-0.260864	0.469115	-1.000000	-1.000000	-1.000000	-1.000000	-1.000000	-1.000000	-1.000000	63.000000	0.000000	-1.000000	-1.000000	369589.000000	1775715763.767650
-65764.440000	-32960.205000	-15858.585000	-4100.760000	-22915.305000	-38454.705000	973.035000	-30400.605000	-0.000015	-0.000034	-0.000031	-0.000028	-0.000027	-0.000037	0.000001	-0.000006	0.183120	1.236060	-0.335720	-0.840208	-0.260864	0.469115	-1.000000	-1.000000	-1.000000	-1.000000	-1.000000	-1.000000	-1.000000	63.000000	0.000000	-1.000000	-1.000000	369590.000000	1775715763.767655
-65764.440000	-32960.205000	-15858.585000	-4100.760000	-22915.305000	-38454.705000	973.035000	-30400.605000	-0.000015	-0.000034	-0.000031	-0.000028	-0.000027	-0.000037	0.000001	-0.000006	0.183120	1.236060	-0.335720	-0.840208	-0.260864	0.469115	-1.000000	-1.000000	-1.000000	-1.000000	-1.000000	-1.000000	-1.000000	63.000000	0.000000	-1.000000	-1.000000	369591.000000	1775715763.767660
-65764.440000	-32960.205000	-15858.585000	-4100.760000	-22915.305000	-38454.705000	973.035000	-30400.605000	-0.000015	-0.000033	-0.000031	-0.000028	-0.000026	-0.000036	0.000001	-0.000006	0.183120	1.236060	-0.335720	-0.840208	-0.260864	0.469115	-1.000000	-1.000000	-1.000000	-1.000000	-1.000000	-1.000000	-1.000000	63.000000	0.000000	-1.000000	-1.000000	369592.000000	1775715763.767664
-65764.440000	-32960.205000	-15858.585000	-4100.760000	-22915.305000	-38454.705000	973.035000	-30400.605000	-0.000015	-0.000033	-0.000030	-0.000028	-0.000026	-0.000036	0.000001	-0.000006	0.183120	1.236060	-0.335720	-0.840208	-0.260864	0.469115	-1.000000	-1.000000	-1.000000	-1.000000	-1.000000	-1.000000	-1.000000	63.000000	0.000000	-1.000000	-1.000000	369593.000000	1775715763.767668
-65764.440000	-32960.205000	-15858.585000	-4100.760000	-22915.305000	-38454.705000	973.035000	-30400.605000	-0.000015	-0.000033	-0.000030	-0.000027	-0.000026	-0.000036	0.000001	-0.000006	0.183120	1.236060	-0.335720	-0.840208	-0.260864	0.469115	-1.000000	-1.000000	-1.000000	-1.000000	-1.000000	-1.000000	-1.000000	63.000000	0.000000	-1.000000	-1.000000	369594.000000	1775715763.767672
-65764.440000	-32960.205000	-15858.585000	-4100.760000	-22915.305000	-38454.705000	973.035000	-30400.605000	-0.000015	-0.000033	-0.000030	-0.000027	-0.000026	-0.000035	0.000001	-0.000006	0.183120	1.236060	-0.335720	-0.840208	-0.260864	0.469115	-1.000000	-1.000000	-1.000000	-1.000000	-1.000000	-1.000000	-1.000000	63.000000	0.000000	-1.000000	-1.000000	369595.000000	1775715763.767677
-65764.440000	-32960.205000	-15858.585000	-4100.760000	-22915.305000	-38454.705000	973.035000	-30400.605000	-0.000014	-0.000032	-0.000030	-0.000027	-0.000025	-0.000035	0.000001	-0.000005	0.183120	1.236060	-0.335720	-0.840208	-0.260864	0.469115	-1.000000	-1.000000	-1.000000	-1.000000	-1.000000	-1.000000	-1.000000	63.000000	0.000000	-1.000000	-1.000000	369596.000000	1775715763.767681
-65764.440000	-32960.205000	-15858.585000	-4100.760000	-22915.305000	-38454.705000	973.035000	-30400.605000	-0.000014	-0.000032	-0.000029	-0.000027	-0.000025	-0.000035	0.000001	-0.000005	0.183120	1.236060	-0.335720	-0.840208	-0.260864	0.469115	-1.000000	-1.000000	-1.000000	-1.000000	-1.000000	-1.000000	-1.000000	63.000000	0.000000	-1.000000	-1.000000	369597.000000	1775715763.767686
-65764.440000	-32960.205000	-15858.585000	-4100.760000	-22915.305000	-38454.705000	973.035000	-30400.605000	-0.000014	-0.000032	-0.000029	-0.000026	-0.000025	-0.000034	0.000001	-0.000005	0.183120	1.236060	-0.335720	-0.840208	-0.260864	0.469115	-1.000000	-1.000000	-1.000000	-1.000000	-1.000000	-1.000000	-1.000000	63.000000	0.000000	-1.000000	-1.000000	369598.000000	1775715763.767690
-65764.440000	-32960.205000	-15858.585000	-4100.760000	-22915.305000	-38454.705000	973.035000	-30400.605000	-0.000014	-0.000031	-0.000029	-0.000026	-0.000025	-0.000034	0.000001	-0.000005	0.183120	1.236060	-0.335720	-0.840208	-0.260864	0.469115	-1.000000	-1.000000	-1.000000	-1.000000	-1.000000	-1.000000	-1.000000	63.000000	0.000000	-1.000000	-1.000000	369599.000000	1775715763.767694
-65764.440000	-32960.205000	-15858.585000	-4100.760000	-22915.305000	-38454.705000	973.035000	-30400.605000	-0.000014	-0.000031	-0.000028	-0.000026	-0.000024	-0.000034	0.000001	-0.000005	0.183120	1.236060	-0.335720	-0.840208	-0.260864	0.469115	-1.000000	-1.000000	-1.000000	-1.000000	-1.000000	-1.000000	-1.000000	63.000000	0.000000	-1.000000	-1.000000	369600.000000	1775715763.767699
-65764.440000	-32960.205000	-15858.585000	-4100.760000	-22915.305000	-38454.705000	973.035000	-30400.605000	-0.000014	-0.000031	-0.000028	-0.000026	-0.000024	-0.000033	0.000001	-0.000005	0.183120	1.236060	-0.335720	-0.840208	-0.260864	0.469115	-1.000000	-1.000000	-1.000000	-1.000000	-1.000000	-1.000000	-1.000000	63.000000	0.000000	-1.000000	-1.000000	369601.000000	1775715763.767703
-65764.440000	-32960.205000	-15858.585000	-4100.760000	-22915.305000	-38454.705000	973.035000	-30400.605000	-0.000014	-0.000030	-0.000028	-0.000025	-0.000024	-0.000033	0.000001	-0.000005	0.183120	1.236060	-0.335720	-0.840208	-0.260864	0.469115	-1.000000	-1.000000	-1.000000	-1.000000	-1.000000	-1.000000	-1.000000	63.000000	0.000000	-1.000000	-1.000000	369602.000000	1775715763.767708
-65764.440000	-32960.205000	-15858.585000	-4100.760000	-22915.305000	-38454.705000	973.035000	-30400.605000	-0.000014	-0.000030	-0.000028	-0.000025	-0.000024	-0.000033	0.000001	-0.000005	0.183120	1.236060	-0.335720	-0.840208	-0.260864	0.469115	-1.000000	-1.000000	-1.000000	-1.000000	-1.000000	-1.000000	-1.000000	63.000000	0.000000	-1.000000	-1.000000	369603.000000	1775715763.767713
-65764.440000	-32960.205000	-15858.585000	-4100.760000	-22915.305000	-38454.705000	973.035000	-30400.605000	-0.000013	-0.000030	-0.000027	-0.000025	-0.000023	-0.000032	0.000001	-0.000005	0.183120	1.236060	-0.335720	-0.840208	-0.260864	0.469115	-1.000000	-1.000000	-1.000000	-1.000000	-1.000000	-1.000000	-1.000000	63.000000	0.000000	-1.000000	-1.000000	369604.000000	1775715763.767717
-65764.440000	-32960.205000	-15858.585000	-4100.760000	-22915.305000	-38454.705000	973.035000	-30400.605000	-0.000013	-0.000030	-0.000027	-0.000025	-0.000023	-0.000032	0.000001	-0.000005	0.183120	1.236060	-0.335720	-0.840208	-0.260864	0.469115	-1.000000	-1.000000	-1.000000	-1.000000	-1.000000	-1.000000	-1.000000	63.000000	0.000000	-1.000000	-1.000000	369605.000000	1775715763.767722
-65764.440000	-32960.205000	-15858.585000	-4100.760000	-22915.305000	-38454.705000	973.035000	-30400.605000	-0.000013	-0.000029	-0.000027	-0.000024	-0.000023	-0.000032	0.000001	-0.000005	0.183120	1.236060	-0.335720	-0.840208	-0.260864	0.469115	-1.000000	-1.000000	-1.000000	-1.000000	-1.000000	-1.000000	-1.000000	63.000000	0.000000	-1.000000	-1.000000	369606.000000	1775715763.767726
-65764.440000	-32960.205000	-15858.585000	-4100.760000	-22915.305000	-38454.705000	973.035000	-30400.605000	-0.000013	-0.000029	-0.000027	-0.000024	-0.000023	-0.000032	0.000001	-0.000005	0.183120	1.236060	-0.335720	-0.840208	-0.260864	0.469115	-1.000000	-1.000000	-1.000000	-1.000000	-1.000000	-1.000000	-1.000000	63.000000	0.000000	-1.000000	-1.000000	369607.000000	1775715763.767731
-65764.440000	-32960.205000	-15858.585000	-4100.760000	-22915.305000	-38454.705000	973.035000	-30400.605000	-0.000013	-0.000029	-0.000026	-0.000024	-0.000022	-0.000031	0.000001	-0.000005	0.183120	1.236060	-0.335720	-0.840208	-0.260864	0.469115	-1.000000	-1.000000	-1.000000	-1.000000	-1.000000	-1.000000	-1.000000	63.000000	0.000000	-1.000000	-1.000000	369608.000000	1775715763.767735
-65764.440000	-32960.205000	-15858.585000	-4100.760000	-22915.305000	-38454.705000	973.035000	-30400.605000	-0.000013	-0.000028	-0.000026	-0.000024	-0.000022	-0.000031	0.000001	-0.000005	0.183120	1.236060	-0.335720	-0.840208	-0.260864	0.469115	-1.000000	-1.000000	-1.000000	-1.000000	-1.000000	-1.000000	-1.000000	63.000000	0.000000	-1.000000	-1.000000	369609.000000	1775715763.767740
-65764.440000	-32960.205000	-15858.585000	-4100.760000	-22915.305000	-38454.705000	973.035000	-30400.605000	-0.000013	-0.000028	-0.000026	-0.000024	-0.000022	-0.000031	0.000001	-0.000005	0.183120	1.236060	-0.335720	-0.840208	-0.260864	0.469115	-1.000000	-1.000000	-1.000000	-1.000000	-1.000000	-1.000000	-1.000000	63.000000	0.000000	-1.000000	-1.000000	369610.000000	1775715763.767744
-65764.440000	-32960.205000	-15858.585000	-4100.760000	-22915.305000	-38454.705000	973.035000	-30400.605000	-0.000013	-0.000028	-0.000026	-0.000023	-0.000022	-0.000030	0.000001	-0.000005	0.183120	1.236060	-0.335720	-0.840208	-0.260864	0.469115	-1.000000	-1.000000	-1.000000	-1.000000	-1.000000	-1.000000	-1.000000	63.000000	0.000000	-1.000000	-1.000000	369611.000000	1775715763.767749
-65764.440000	-32960.205000	-15858.585000	-4100.760000	-22915.305000	-38454.705000	973.035000	-30400.605000	-0.000012	-0.000028	-0.000025	-0.000023	-0.000022	-0.000030	0.000001	-0.000005	0.183120	1.236060	-0.335720	-0.840208	-0.260864	0.469115	-1.000000	-1.000000	-1.000000	-1.000000	-1.000000	-1.000000	-1.000000	63.000000	0.000000	-1.000000	-1.000000	369612.000000	1775715763.767754
-65764.440000	-32960.205000	-15858.585000	-4100.760000	-22915.305000	-38454.705000	973.035000	-30400.605000	-0.000012	-0.000027	-0.000025	-0.000023	-0.000021	-0.000030	0.000001	-0.000004	0.183120	1.236060	-0.335720	-0.840208	-0.260864	0.469115	-1.000000	-1.000000	-1.000000	-1.000000	-1.000000	-1.000000	-1.000000	63.000000	0.000000	-1.000000	-1.000000	369613.000000	1775715763.767758
-65764.440000	-32960.205000	-15858.585000	-4100.760000	-22915.305000	-38454.705000	973.035000	-30400.605000	-0.000012	-0.000027	-0.000025	-0.000023	-0.000021	-0.000029	0.000001	-0.000004	0.183120	1.236060	-0.335720	-0.840208	-0.260864	0.469115	-1.000000	-1.000000	-1.000000	-1.000000	-1.000000	-1.000000	-1.000000	63.000000	0.000000	-1.000000	-1.000000	369614.000000	1775715763.767762
-65764.440000	-32960.205000	-15858.585000	-4100.760000	-22915.305000	-38454.705000	973.035000	-30400.605000	-0.000012	-0.000027	-0.000025	-0.000022	-0.000021	-0.000029	0.000001	-0.000004	0.183120	1.236060	-0.335720	-0.840208	-0.260864	0.469115	-1.000000	-1.000000	-1.000000	-1.000000	-1.000000	-1.000000	-1.000000	63.000000	0.000000	-1.000000	-1.000000	369615.000000	1775715763.767767
-65764.440000	-32960.205000	-15858.585000	-4100.760000	-22915.305000	-38454.705000	973.035000	-30400.605000	-0.000012	-0.000027	-0.000024	-0.000022	-0.000021	-0.000029	0.000001	-0.000004	0.183120	1.236060	-0.335720	-0.840208	-0.260864	0.469115	-1.000000	-1.000000	-1.000000	-1.000000	-1.000000	-1.000000	-1.000000	63.000000	0.000000	-1.000000	-1.000000	369616.000000	1775715763.767771
-65764.440000	-32960.205000	-15858.585000	-4100.760000	-22915.305000	-38454.705000	973.035000	-30400.605000	-0.000012	-0.000026	-0.000024	-0.000022	-0.000021	-0.000029	0.000001	-0.000004	0.183120	1.236060	-0.335720	-0.840208	-0.260864	0.469115	-1.000000	-1.000000	-1.000000	-1.000000	-1.000000	-1.000000	-1.000000	63.000000	0.000000	-1.000000	-1.000000	369617.000000	1775715763.767775
-65764.440000	-32960.205000	-15858.585000	-4100.760000	-22915.305000	-38454.705000	973.035000	-30400.605000	-0.000012	-0.000026	-0.000024	-0.000022	-0.000020	-0.000028	0.000001	-0.000004	0.183120	1.236060	-0.335720	-0.840208	-0.260864	0.469115	-1.000000	-1.000000	-1.000000	-1.000000	-1.000000	-1.000000	-1.000000	63.000000	0.000000	-1.000000	-1.000000	369618.000000	1775715763.767779
-65764.440000	-32960.205000	-15858.585000	-4100.760000	-22915.305000	-38454.705000	973.035000	-30400.605000	-0.000012	-0.000026	-0.000024	-0.000022	-0.000020	-0.000028	0.000001	-0.000004	0.183120	1.236060	-0.335720	-0.840208	-0.260864	0.469115	-1.000000	-1.000000	-1.000000	-1.000000	-1.000000	-1.000000	-1.000000	63.000000	0.000000	-1.000000	-1.000000	369619.000000	1775715763.767784
-65764.440000	-32960.205000	-15858.585000	-4100.760000	-22915.305000	-38454.705000	973.035000	-30400.605000	-0.000012	-0.000026	-0.000024	-0.000021	-0.000020	-0.000028	0.000001	-0.000004	0.183120	1.236060	-0.335720	-0.840208	-0.260864	0.469115	-1.000000	-1.000000	-1.000000	-1.000000	-1.000000	-1.000000	-1.000000	63.000000	0.000000	-1.000000	-1.000000	369620.000000	1775715763.767788
-65764.440000	-32960.205000	-15858.585000	-4100.760000	-22915.305000	-38454.705000	973.035000	-30400.605000	-0.000011	-0.000025	-0.000023	-0.000021	-0.000020	-0.000027	0.000001	-0.000004	0.183120	1.236060	-0.335720	-0.840208	-0.260864	0.469115	-1.000000	-1.000000	-1.000000	-1.000000	-1.000000	-1.000000	-1.000000	63.000000	0.000000	-1.000000	-1.000000	369621.000000	1775715763.767792
-65764.440000	-32960.205000	-15858.585000	-4100.760000	-22915.305000	-38454.705000	973.035000	-30400.605000	-0.000011	-0.000025	-0.000023	-0.000021	-0.000020	-0.000027	0.000001	-0.000004	0.183120	1.236060	-0.335720	-0.840208	-0.260864	0.469115	-1.000000	-1.000000	-1.000000	-1.000000	-1.000000	-1.000000	-1.000000	63.000000	0.000000	-1.000000	-1.000000	369622.000000	1775715763.767797
-65764.440000	-32960.205000	-15858.585000	-4100.760000	-22915.305000	-38454.705000	973.035000	-30400.605000	-0.000011	-0.000025	-0.000023	-0.000021	-0.000019	-0.000027	0.000001	-0.000004	0.183120	1.236060	-0.335720	-0.840208	-0.260864	0.469115	-1.000000	-1.000000	-1.000000	-1.000000	-1.000000	-1.000000	-1.000000	63.000000	0.000000	-1.000000	-1.000000	369623.000000	1775715763.767801
-65764.440000	-32960.205000	-15858.585000	-4100.760000	-22915.305000	-38454.705000	973.035000	-30400.605000	-0.000011	-0.000025	-0.000023	-0.000021	-0.000019	-0.000027	0.000001	-0.000004	0.183120	1.236060	-0.335720	-0.840208	-0.260864	0.469115	-1.000000	-1.000000	-1.000000	-1.000000	-1.000000	-1.000000	-1.000000	63.000000	0.000000	-1.000000	-1.000000	369624.000000	1775715763.767806
-65764.440000	-32960.205000	-15858.585000	-4100.760000	-22915.305000	-38454.705000	973.035000	-30400.605000	-0.000011	-0.000024	-0.000022	-0.000020	-0.000019	-0.000026	0.000001	-0.000004	0.183120	1.236060	-0.335720	-0.840208	-0.260864	0.469115	-1.000000	-1.000000	-1.000000	-1.000000	-1.000000	-1.000000	-1.000000	63.000000	0.000000	-1.000000	-1.000000	369625.000000	1775715763.767810
-65764.440000	-32960.205000	-15858.585000	-4100.760000	-22915.305000	-38454.705000	973.035000	-30400.605000	-0.000011	-0.000024	-0.000022	-0.000020	-0.000019	-0.000026	0.000001	-0.000004	0.183120	1.236060	-0.335720	-0.840208	-0.260864	0.469115	-1.000000	-1.000000	-1.000000	-1.000000	-1.000000	-1.000000	-1.000000	63.000000	0.000000	-1.000000	-1.000000	369626.000000	1775715763.767815
-65764.440000	-32960.205000	-15858.585000	-4100.760000	-22915.305000	-38454.705000	973.035000	-30400.605000	-0.000011	-0.000024	-0.000022	-0.000020	-0.000019	-0.000026	0.000001	-0.000004	0.183120	1.236060	-0.335720	-0.840208	-0.260864	0.469115	-1.000000	-1.000000	-1.000000	-1.000000	-1.000000	-1.000000	-1.000000	63.000000	0.000000	-1.000000	-1.000000	369627.000000	1775715763.767820
-65764.440000	-32960.205000	-15858.585000	-4100.760000	-22915.305000	-38454.705000	973.035000	-30400.605000	-0.000011	-0.000024	-0.000022	-0.000020	-0.000018	-0.000026	0.000001	-0.000004	0.183120	1.236060	-0.335720	-0.840208	-0.260864	0.469115	-1.000000	-1.000000	-1.000000	-1.000000	-1.000000	-1.000000	-1.000000	63.000000	0.000000	-1.000000	-1.000000	369628.000000	1775715763.767825
-65764.440000	-32960.205000	-15858.585000	-4100.760000	-22915.305000	-38454.705000	973.035000	-30400.605000	-0.000011	-0.000023	-0.000022	-0.000020	-0.000018	-0.000025	0.000001	-0.000004	0.183120	1.236060	-0.335720	-0.840208	-0.260864	0.469115	-1.000000	-1.000000	-1.000000	-1.000000	-1.000000	-1.000000	-1.000000	63.000000	0.000000	-1.000000	-1.000000	369629.000000	1775715763.767830
-65764.440000	-32960.205000	-15858.585000	-4100.760000	-22915.305000	-38454.705000	973.035000	-30400.605000	-0.000011	-0.000023	-0.000021	-0.000019	-0.000018	-0.000025	0.000001	-0.000004	0.183120	1.236060	-0.335720	-0.840208	-0.260864	0.469115	-1.000000	-1.000000	-1.000000	-1.000000	-1.000000	-1.000000	-1.000000	63.000000	0.000000	-1.000000	-1.000000	369630.000000	1775715763.767834
-65764.440000	-32960.205000	-15858.585000	-4100.760000	-22915.305000	-38454.705000	973.035000	-30400.605000	-0.000010	-0.000023	-0.000021	-0.000019	-0.000018	-0.000025	0.000001	-0.000004	0.183120	1.236060	-0.335720	-0.840208	-0.260864	0.469115	-1.000000	-1.000000	-1.000000	-1.000000	-1.000000	-1.000000	-1.000000	63.000000	0.000000	-1.000000	-1.000000	369631.000000	1775715763.767839
-65764.440000	-32960.205000	-15858.585000	-4100.760000	-22915.305000	-38454.705000	973.035000	-30400.605000	-0.000010	-0.000023	-0.000021	-0.000019	-0.000018	-0.000025	0.000001	-0.000004	0.183120	1.236060	-0.335720	-0.840208	-0.260864	0.469115	-1.000000	-1.000000	-1.000000	-1.000000	-1.000000	-1.000000	-1.000000	63.000000	0.000000	-1.000000	-1.000000	369632.000000	1775715763.767843
-65764.440000	-32960.205000	-15858.585000	-4100.760000	-22915.305000	-38454.705000	973.035000	-30400.605000	-0.000010	-0.000023	-0.000021	-0.000019	-0.000017	-0.000024	0.000001	-0.000004	0.183120	1.236060	-0.335720	-0.840208	-0.260864	0.469115	-1.000000	-1.000000	-1.000000	-1.000000	-1.000000	-1.000000	-1.000000	63.000000	0.000000	-1.000000	-1.000000	369633.000000	1775715763.767847
