Channel1	Channel2	Channel3	Channel4	Channel5	Channel6	Channel7	Channel8	FilteredChannel1	FilteredChannel2	FilteredChannel3	FilteredChannel4	FilteredChannel5	FilteredChannel6	FilteredChannel7	FilteredChannel8	GyroX	GyroY	GyroZ	AccX	AccY	AccZ	PPG1	PPG2	rawPPG1	rawPPG2	rawPPG3	Hr	Hrv	Battery	Trigger	PhysicalTrigger	AutoTrigger	NumMeasurements	Timestamp
-68435.775000	-34508.520000	-20383.020000	-9147.780000	-24978.195000	-38709.045000	-5154.390000	-29979.135000	1.459114	3.724732	3.400998	5.389878	6.971436	8.982129	-1.321029	-0.697996	-0.671440	1.709120	0.717220	-0.802732	-0.311279	0.505126	-1.000000	-1.000000	-1.000000	-1.000000	-1.000000	-1.000000	-1.000000	62.000000	0.000000	-1.000000	-1.000000	511683.000000	1775716048.094670
-68430.780000	-34506.315000	-20379.015000	-9142.380000	-24984.945000	-38713.095000	-5162.670000	-29977.695000	10.016962	12.763940	13.664645	12.561864	11.936609	10.869383	-4.014713	6.279933	-0.671440	1.709120	0.717220	-0.802732	-0.311279	0.505126	-1.000000	-1.000000	-1.000000	-1.000000	-1.000000	-1.000000	-1.000000	62.000000	0.000000	-1.000000	-1.000000	511684.000000	1775716048.094694
-68437.440000	-34509.330000	-20377.665000	-9135.045000	-24995.070000	-38716.290000	-5169.510000	-29984.085000	14.432926	16.681426	18.771138	16.155429	11.937551	8.129367	-5.048229	10.871967	-0.671440	1.709120	0.717220	-0.802732	-0.311279	0.505126	-1.000000	-1.000000	-1.000000	-1.000000	-1.000000	-1.000000	-1.000000	62.000000	0.000000	-1.000000	-1.000000	511685.000000	1775716048.097581
-68446.530000	-34517.520000	-20391.930000	-9146.970000	-24996.645000	-38719.710000	-5169.330000	-29990.070000	12.010352	13.194635	15.773748	13.995314	6.331460	2.317087	-4.768764	10.092991	-0.671440	1.709120	0.717220	-0.802732	-0.311279	0.505126	-1.000000	-1.000000	-1.000000	-1.000000	-1.000000	-1.000000	-1.000000	62.000000	0.000000	-1.000000	-1.000000	511686.000000	1775716048.097620
-68443.515000	-34515.630000	-20389.230000	-9148.455000	-24996.780000	-38722.365000	-5161.860000	-29986.245000	3.921195	4.126265	5.922645	6.217601	-1.831065	-3.660645	-3.249643	4.382837	-0.671440	1.709120	0.717220	-0.802732	-0.311279	0.505126	-1.000000	-1.000000	-1.000000	-1.000000	-1.000000	-1.000000	-1.000000	62.000000	0.000000	-1.000000	-1.000000	511687.000000	1775716048.108471
-68438.970000	-34511.445000	-20384.640000	-9145.530000	-24995.970000	-38726.595000	-5160.645000	-29983.140000	-5.021334	-5.548212	-5.577145	-3.961913	-7.879363	-7.245712	-0.224048	-2.462385	-0.671440	1.709120	0.717220	-0.802732	-0.311279	0.505126	-1.000000	-1.000000	-1.000000	-1.000000	-1.000000	-1.000000	-1.000000	62.000000	0.000000	-1.000000	-1.000000	511688.000000	1775716048.108497
-68441.445000	-34513.515000	-20384.415000	-9145.800000	-24996.915000	-38729.115000	-5166.855000	-29985.750000	-9.948495	-11.048488	-12.779050	-11.616222	-9.127527	-7.477566	3.321398	-6.574520	-0.671440	1.709120	0.717220	-0.802732	-0.311279	0.505126	-1.000000	-1.000000	-1.000000	-1.000000	-1.000000	-1.000000	-1.000000	62.000000	0.000000	-1.000000	-1.000000	511689.000000	1775716048.108523
-68434.110000	-34506.180000	-20375.730000	-9137.070000	-24985.395000	-38715.930000	-5164.380000	-29980.980000	-9.383201	-10.816001	-13.078466	-13.445795	-5.943348	-4.714988	5.353201	-6.782785	-0.671440	1.709120	0.717220	-0.802732	-0.311279	0.505126	-1.000000	-1.000000	-1.000000	-1.000000	-1.000000	-1.000000	-1.000000	62.000000	0.000000	-1.000000	-1.000000	511690.000000	1775716048.108534
-68434.470000	-34508.340000	-20382.975000	-9144.630000	-24983.865000	-38705.085000	-5163.840000	-29981.970000	-5.044263	-6.469378	-8.113893	-9.726477	-0.475771	0.223668	4.943163	-4.251704	-0.412020	1.526000	1.190280	-0.803160	-0.311767	0.505370	-1.000000	-1.000000	-1.000000	-1.000000	-1.000000	-1.000000	-1.000000	62.000000	0.000000	-1.000000	-1.000000	511691.000000	1775716048.115316
-68436.720000	-34509.555000	-20387.115000	-9149.535000	-24985.845000	-38706.570000	-5163.480000	-29982.465000	0.037210	-1.101106	-1.922626	-3.719488	4.392569	5.587426	2.934509	-0.971883	-0.412020	1.526000	1.190280	-0.803160	-0.311767	0.505370	-1.000000	-1.000000	-1.000000	-1.000000	-1.000000	-1.000000	-1.000000	62.000000	0.000000	-1.000000	-1.000000	511692.000000	1775716048.115350
-68436.360000	-34508.565000	-20384.190000	-9147.105000	-24987.780000	-38714.715000	-5170.005000	-29984.715000	3.213558	2.572651	2.090621	1.045876	6.117416	8.308385	0.525316	1.307367	-0.412020	1.526000	1.190280	-0.803160	-0.311767	0.505370	-1.000000	-1.000000	-1.000000	-1.000000	-1.000000	-1.000000	-1.000000	62.000000	0.000000	-1.000000	-1.000000	511693.000000	1775716048.116603
-68432.445000	-34507.710000	-20384.235000	-9147.510000	-24987.105000	-38715.480000	-5171.355000	-29984.175000	3.712775	3.671658	3.334202	3.380220	4.183363	6.242992	-1.641471	1.901279	-0.412020	1.526000	1.190280	-0.803160	-0.311767	0.505370	-1.000000	-1.000000	-1.000000	-1.000000	-1.000000	-1.000000	-1.000000	62.000000	0.000000	-1.000000	-1.000000	511694.000000	1775716048.116630
-68431.545000	-34506.360000	-20383.155000	-9146.970000	-24987.465000	-38715.030000	-5168.115000	-29982.465000	2.588237	2.966890	3.073589	3.991396	0.372671	0.664866	-3.005692	1.338125	-0.412020	1.526000	1.190280	-0.803160	-0.311767	0.505370	-1.000000	-1.000000	-1.000000	-1.000000	-1.000000	-1.000000	-1.000000	62.000000	0.000000	-1.000000	-1.000000	511695.000000	1775716048.120799
-68431.275000	-34502.625000	-20377.980000	-9143.820000	-24986.700000	-38712.375000	-5168.430000	-29983.140000	1.159878	1.704642	2.529479	3.789464	-2.882506	-4.699522	-2.903632	0.603561	-0.412020	1.526000	1.190280	-0.803160	-0.311767	0.505370	-1.000000	-1.000000	-1.000000	-1.000000	-1.000000	-1.000000	-1.000000	62.000000	0.000000	-1.000000	-1.000000	511696.000000	1775716048.120825
-68429.970000	-34500.510000	-20375.370000	-9140.895000	-24982.470000	-38710.665000	-5171.130000	-29984.805000	0.041197	0.789167	2.285650	3.330208	-4.051132	-6.839819	-1.452457	0.198049	-0.412020	1.526000	1.190280	-0.803160	-0.311767	0.505370	-1.000000	-1.000000	-1.000000	-1.000000	-1.000000	-1.000000	-1.000000	62.000000	0.000000	-1.000000	-1.000000	511697.000000	1775716048.122390
-68440.635000	-34511.625000	-20385.630000	-9147.690000	-24988.815000	-38714.040000	-5170.095000	-29990.880000	-0.846768	0.198922	2.012383	2.621162	-3.104978	-5.400908	0.290027	-0.093813	-0.412020	1.526000	1.190280	-0.803160	-0.311767	0.505370	-1.000000	-1.000000	-1.000000	-1.000000	-1.000000	-1.000000	-1.000000	62.000000	0.000000	-1.000000	-1.000000	511698.000000	1775716048.122411
-68440.320000	-34511.580000	-20385.270000	-9147.060000	-24988.275000	-38714.400000	-5168.970000	-29989.890000	-1.851578	-0.791632	0.802778	1.233361	-1.297636	-2.213578	1.430575	-0.578547	-0.412020	1.526000	1.190280	-0.803160	-0.311767	0.505370	-1.000000	-1.000000	-1.000000	-1.000000	-1.000000	-1.000000	-1.000000	62.000000	0.000000	-1.000000	-1.000000	511699.000000	1775716048.127993
-68429.655000	-34500.465000	-20372.760000	-9135.585000	-24977.970000	-38705.805000	-5165.595000	-29981.295000	-2.492718	-1.946080	-1.044298	-0.509969	0.306567	0.801109	1.856364	-0.820547	-0.412020	1.526000	1.190280	-0.803160	-0.311767	0.505370	-1.000000	-1.000000	-1.000000	-1.000000	-1.000000	-1.000000	-1.000000	62.000000	0.000000	-1.000000	-1.000000	511700.000000	1775716048.128021
-68427.990000	-34500.960000	-20374.470000	-9138.105000	-24981.030000	-38710.080000	-5167.800000	-29980.485000	-1.532447	-1.833583	-1.838141	-1.377123	1.669480	2.859384	1.773139	-0.006570	-0.503580	2.212700	0.915600	-0.802427	-0.309386	0.506163	-1.000000	-1.000000	-1.000000	-1.000000	-1.000000	-1.000000	-1.000000	62.000000	0.000000	-1.000000	-1.000000	511701.000000	1775716048.129328
-68422.950000	-34500.240000	-20377.305000	-9142.650000	-24985.350000	-38719.080000	-5169.195000	-29978.730000	1.035886	-0.146708	-1.075574	-1.163143	2.500204	3.422658	1.168487	1.617356	-0.503580	2.212700	0.915600	-0.802427	-0.309386	0.506163	-1.000000	-1.000000	-1.000000	-1.000000	-1.000000	-1.000000	-1.000000	62.000000	0.000000	-1.000000	-1.000000	511702.000000	1775716048.129349
-68425.335000	-34504.470000	-20382.075000	-9147.780000	-24990.930000	-38729.025000	-5170.185000	-29979.405000	3.468897	1.575662	-0.191313	-1.095189	1.905382	1.856241	0.022256	2.702619	-0.503580	2.212700	0.915600	-0.802427	-0.309386	0.506163	-1.000000	-1.000000	-1.000000	-1.000000	-1.000000	-1.000000	-1.000000	62.000000	0.000000	-1.000000	-1.000000	511703.000000	1775716048.134697
-68431.590000	-34510.680000	-20386.395000	-9153.855000	-24991.830000	-38726.685000	-5177.250000	-29985.120000	3.840776	1.731430	-0.448308	-1.956929	-0.114543	-1.164320	-1.366682	2.153623	-0.503580	2.212700	0.915600	-0.802427	-0.309386	0.506163	-1.000000	-1.000000	-1.000000	-1.000000	-1.000000	-1.000000	-1.000000	62.000000	0.000000	-1.000000	-1.000000	511704.000000	1775716048.134726
-68435.955000	-34513.155000	-20386.170000	-9157.095000	-24986.880000	-38705.625000	-5171.175000	-29988.720000	1.540425	0.109561	-1.564349	-3.174564	-2.090092	-2.975549	-2.421515	-0.055131	-0.503580	2.212700	0.915600	-0.802427	-0.309386	0.506163	-1.000000	-1.000000	-1.000000	-1.000000	-1.000000	-1.000000	-1.000000	62.000000	0.000000	-1.000000	-1.000000	511705.000000	1775716048.137412
-68433.570000	-34509.420000	-20382.615000	-9158.130000	-24982.965000	-38706.615000	-5168.250000	-29986.200000	-2.053289	-1.910275	-2.171138	-3.510066	-2.303040	-1.199313	-2.316422	-2.719635	-0.503580	2.212700	0.915600	-0.802427	-0.309386	0.506163	-1.000000	-1.000000	-1.000000	-1.000000	-1.000000	-1.000000	-1.000000	62.000000	0.000000	-1.000000	-1.000000	511706.000000	1775716048.137434
-68432.130000	-34507.575000	-20382.930000	-9150.975000	-24975.540000	-38705.805000	-5168.970000	-29985.615000	-4.427135	-2.470489	-1.231739	-2.021142	-0.356725	2.983430	-0.742286	-4.036565	-0.503580	2.212700	0.915600	-0.802427	-0.309386	0.506163	-1.000000	-1.000000	-1.000000	-1.000000	-1.000000	-1.000000	-1.000000	62.000000	0.000000	-1.000000	-1.000000	511707.000000	1775716048.145424
-68431.185000	-34509.105000	-20384.640000	-9132.795000	-24966.270000	-38702.655000	-5164.560000	-29981.295000	-4.034404	-1.022976	0.822344	1.502857	2.624721	5.833543	1.381963	-3.042354	-0.503580	2.212700	0.915600	-0.802427	-0.309386	0.506163	-1.000000	-1.000000	-1.000000	-1.000000	-1.000000	-1.000000	-1.000000	62.000000	0.000000	-1.000000	-1.000000	511708.000000	1775716048.145450
-68431.815000	-34512.210000	-20388.465000	-9142.875000	-24988.500000	-38719.170000	-5169.015000	-29983.815000	-1.451510	1.165689	2.490371	5.874285	4.477352	4.860742	2.707467	-0.412033	-0.503580	2.212700	0.915600	-0.802427	-0.309386	0.506163	-1.000000	-1.000000	-1.000000	-1.000000	-1.000000	-1.000000	-1.000000	62.000000	0.000000	-1.000000	-1.000000	511709.000000	1775716048.149837
-68431.545000	-34514.235000	-20390.940000	-9152.730000	-25002.765000	-38732.490000	-5170.455000	-29987.280000	1.466494	2.389438	2.632832	7.972112	2.733585	0.045398	2.415794	2.051425	-0.503580	2.212700	0.915600	-0.802427	-0.309386	0.506163	-1.000000	-1.000000	-1.000000	-1.000000	-1.000000	-1.000000	-1.000000	62.000000	0.000000	-1.000000	-1.000000	511710.000000	1775716048.149867
-68430.105000	-34513.920000	-20389.545000	-9148.905000	-24982.920000	-38725.200000	-5166.045000	-29985.390000	3.182794	2.058087	1.414137	5.422790	-2.244414	-6.126081	0.763923	2.867844	-1.556520	1.571780	1.190280	-0.802122	-0.307738	0.505858	-1.000000	-1.000000	-1.000000	-1.000000	-1.000000	-1.000000	-1.000000	62.000000	0.000000	-1.000000	-1.000000	511711.000000	1775716048.149894
-68428.845000	-34509.420000	-20385.585000	-9153.270000	-24990.975000	-38716.785000	-5163.390000	-29981.070000	3.300050	0.952036	0.061065	-0.219895	-6.112524	-9.234468	-0.909664	2.150309	-1.556520	1.571780	1.190280	-0.802122	-0.307738	0.505858	-1.000000	-1.000000	-1.000000	-1.000000	-1.000000	-1.000000	-1.000000	62.000000	0.000000	-1.000000	-1.000000	511712.000000	1775716048.149907
-68426.280000	-34500.780000	-20374.155000	-9145.890000	-24998.715000	-38705.490000	-5160.600000	-29977.740000	2.317776	0.365485	-0.140236	-5.065471	-5.806386	-6.358236	-1.426006	1.137397	-1.556520	1.571780	1.190280	-0.802122	-0.307738	0.505858	-1.000000	-1.000000	-1.000000	-1.000000	-1.000000	-1.000000	-1.000000	62.000000	0.000000	-1.000000	-1.000000	511713.000000	1775716048.153664
-68427.180000	-34505.145000	-20380.275000	-9146.565000	-24992.280000	-38713.050000	-5162.130000	-29978.280000	0.949250	0.779274	0.951338	-6.422423	-2.561331	0.756481	-0.857849	0.614192	-1.556520	1.571780	1.190280	-0.802122	-0.307738	0.505858	-1.000000	-1.000000	-1.000000	-1.000000	-1.000000	-1.000000	-1.000000	62.000000	0.000000	-1.000000	-1.000000	511714.000000	1775716048.153709
-68425.245000	-34505.595000	-20379.510000	-9138.645000	-24990.210000	-38720.790000	-5166.720000	-29979.450000	-0.334819	1.215546	1.886742	-4.208470	1.333017	6.838620	-0.243225	0.295684	-1.556520	1.571780	1.190280	-0.802122	-0.307738	0.505858	-1.000000	-1.000000	-1.000000	-1.000000	-1.000000	-1.000000	-1.000000	62.000000	0.000000	-1.000000	-1.000000	511715.000000	1775716048.158288
-68419.575000	-34500.060000	-20369.835000	-9128.340000	-24983.910000	-38719.440000	-5165.280000	-29975.580000	-1.178926	0.626722	1.401563	-0.122660	4.585134	7.804275	-0.412250	-0.304886	-1.556520	1.571780	1.190280	-0.802122	-0.307738	0.505858	-1.000000	-1.000000	-1.000000	-1.000000	-1.000000	-1.000000	-1.000000	62.000000	0.000000	-1.000000	-1.000000	511716.000000	1775716048.158311
-68419.980000	-34499.655000	-20365.920000	-9121.770000	-24977.745000	-38712.780000	-5166.045000	-29974.590000	-1.295124	-0.639172	0.099812	3.818295	6.410679	4.274881	-1.096144	-1.009442	-1.556520	1.571780	1.190280	-0.802122	-0.307738	0.505858	-1.000000	-1.000000	-1.000000	-1.000000	-1.000000	-1.000000	-1.000000	62.000000	0.000000	-1.000000	-1.000000	511717.000000	1775716048.165055
-68428.665000	-34504.965000	-20370.600000	-9125.415000	-24976.125000	-38694.240000	-5161.230000	-29978.640000	-1.077392	-1.761200	-0.983554	5.736935	6.336002	0.273526	-1.340515	-1.440197	-1.556520	1.571780	1.190280	-0.802122	-0.307738	0.505858	-1.000000	-1.000000	-1.000000	-1.000000	-1.000000	-1.000000	-1.000000	62.000000	0.000000	-1.000000	-1.000000	511718.000000	1775716048.165083
-68422.905000	-34501.275000	-20371.365000	-9131.130000	-24976.440000	-38687.490000	-5155.740000	-29974.140000	-1.286514	-2.488071	-1.933975	4.267276	4.221500	-0.889919	-0.488228	-1.578897	-1.556520	1.571780	1.190280	-0.802122	-0.307738	0.505858	-1.000000	-1.000000	-1.000000	-1.000000	-1.000000	-1.000000	-1.000000	62.000000	0.000000	-1.000000	-1.000000	511719.000000	1775716048.166591
-68416.020000	-34497.270000	-20374.785000	-9138.105000	-24982.065000	-38700.180000	-5157.585000	-29968.920000	-1.575242	-2.532013	-3.044372	-0.314212	0.424036	0.267163	1.172320	-1.270705	-1.556520	1.571780	1.190280	-0.802122	-0.307738	0.505858	-1.000000	-1.000000	-1.000000	-1.000000	-1.000000	-1.000000	-1.000000	62.000000	0.000000	-1.000000	-1.000000	511720.000000	1775716048.166623
-68417.055000	-34497.990000	-20376.765000	-9139.905000	-24983.595000	-38704.455000	-5161.680000	-29971.125000	-0.914005	-1.545112	-3.895729	-5.672998	-3.951890	0.364398	2.340024	-0.322078	-1.358140	2.105880	0.824040	-0.802671	-0.308532	0.506041	-1.000000	-1.000000	-1.000000	-1.000000	-1.000000	-1.000000	-1.000000	62.000000	0.000000	-1.000000	-1.000000	511721.000000	1775716048.174230
-68415.120000	-34492.815000	-20372.310000	-9137.295000	-24978.645000	-38710.620000	-5169.555000	-29972.835000	0.544584	0.106223	-3.690929	-8.656722	-7.077072	-2.408757	1.724365	0.680974	-1.358140	2.105880	0.824040	-0.802671	-0.308532	0.506041	-1.000000	-1.000000	-1.000000	-1.000000	-1.000000	-1.000000	-1.000000	62.000000	0.000000	-1.000000	-1.000000	511722.000000	1775716048.174258
-68416.155000	-34490.790000	-20366.595000	-9128.205000	-24970.455000	-38713.680000	-5178.105000	-29978.910000	1.625551	1.627042	-1.842215	-7.240202	-7.138470	-6.269783	-0.717894	0.771661	-1.358140	2.105880	0.824040	-0.802671	-0.308532	0.506041	-1.000000	-1.000000	-1.000000	-1.000000	-1.000000	-1.000000	-1.000000	62.000000	0.000000	-1.000000	-1.000000	511723.000000	1775716048.174287
-68416.920000	-34491.330000	-20366.730000	-9127.260000	-24968.655000	-38709.720000	-5198.895000	-29986.110000	1.552197	2.372618	1.279687	-1.931833	-3.858063	-8.041804	-3.904673	-0.364787	-1.358140	2.105880	0.824040	-0.802671	-0.308532	0.506041	-1.000000	-1.000000	-1.000000	-1.000000	-1.000000	-1.000000	-1.000000	62.000000	0.000000	-1.000000	-1.000000	511724.000000	1775716048.174300
-68400.855000	-34479.405000	-20356.425000	-9119.700000	-24964.155000	-38712.420000	-5193.855000	-29969.280000	0.755595	2.172789	4.261497	4.393695	0.861106	-5.977414	-6.221002	-1.711890	-1.358140	2.105880	0.824040	-0.802671	-0.308532	0.506041	-1.000000	-1.000000	-1.000000	-1.000000	-1.000000	-1.000000	-1.000000	62.000000	0.000000	-1.000000	-1.000000	511725.000000	1775716048.177917
-68403.375000	-34487.505000	-20365.830000	-9128.790000	-24971.400000	-38713.050000	-5175.450000	-29962.530000	0.429413	1.389132	5.593968	8.308637	4.220039	-1.056391	-5.345176	-1.262567	-1.358140	2.105880	0.824040	-0.802671	-0.308532	0.506041	-1.000000	-1.000000	-1.000000	-1.000000	-1.000000	-1.000000	-1.000000	62.000000	0.000000	-1.000000	-1.000000	511726.000000	1775716048.177945
-68414.535000	-34498.305000	-20375.685000	-9136.845000	-24977.565000	-38702.340000	-5150.745000	-29969.280000	0.521753	-0.063304	4.175357	7.668876	4.320026	4.201261	0.501024	1.389288	-1.358140	2.105880	0.824040	-0.802671	-0.308532	0.506041	-1.000000	-1.000000	-1.000000	-1.000000	-1.000000	-1.000000	-1.000000	62.000000	0.000000	-1.000000	-1.000000	511727.000000	1775716048.181742
-68424.030000	-34505.505000	-20381.265000	-9141.795000	-24983.235000	-38700.315000	-5139.270000	-29977.290000	-0.547247	-2.600672	0.055350	2.841279	1.317116	7.879181	9.596485	3.637293	-1.358140	2.105880	0.824040	-0.802671	-0.308532	0.506041	-1.000000	-1.000000	-1.000000	-1.000000	-1.000000	-1.000000	-1.000000	62.000000	0.000000	-1.000000	-1.000000	511728.000000	1775716048.181772
-68426.055000	-34509.780000	-20386.170000	-9147.195000	-24985.395000	-38700.315000	-5132.925000	-29976.795000	-3.154045	-5.330235	-4.676454	-3.233931	-2.599489	8.933820	16.485558	2.953379	-1.358140	2.105880	0.824040	-0.802671	-0.308532	0.506041	-1.000000	-1.000000	-1.000000	-1.000000	-1.000000	-1.000000	-1.000000	62.000000	0.000000	-1.000000	-1.000000	511729.000000	1775716048.187659
-68421.420000	-34507.170000	-20382.570000	-9146.475000	-24980.805000	-38707.290000	-5141.520000	-29974.365000	-5.205847	-6.163552	-7.046015	-7.019025	-4.667163	6.779244	15.836624	0.003667	-1.358140	2.105880	0.824040	-0.802671	-0.308532	0.506041	-1.000000	-1.000000	-1.000000	-1.000000	-1.000000	-1.000000	-1.000000	62.000000	0.000000	-1.000000	-1.000000	511730.000000	1775716048.187686
-68424.705000	-34509.555000	-20385.900000	-9149.670000	-24984.000000	-38717.640000	-5152.365000	-29979.540000	-4.407906	-3.822060	-5.498198	-6.701785	-3.488611	1.777963	6.502008	-2.630597	-1.388660	1.297100	1.526000	-0.802671	-0.308959	0.506163	-1.000000	-1.000000	-1.000000	-1.000000	-1.000000	-1.000000	-1.000000	62.000000	0.000000	-1.000000	-1.000000	511731.000000	1775716048.188304
-68418.045000	-34506.765000	-20385.135000	-9150.930000	-24981.840000	-38721.825000	-5151.555000	-29976.030000	-0.751537	0.827464	-1.045357	-3.028693	-0.002228	-4.285348	-7.297414	-3.350359	-1.388660	1.297100	1.526000	-0.802671	-0.308959	0.506163	-1.000000	-1.000000	-1.000000	-1.000000	-1.000000	-1.000000	-1.000000	62.000000	0.000000	-1.000000	-1.000000	511732.000000	1775716048.188324
-68408.730000	-34499.070000	-20376.495000	-9146.340000	-24986.790000	-38712.735000	-5144.850000	-29967.885000	3.929261	5.596952	3.860055	1.720777	3.454834	-8.412329	-18.152374	-2.024889	-1.388660	1.297100	1.526000	-0.802671	-0.308959	0.506163	-1.000000	-1.000000	-1.000000	-1.000000	-1.000000	-1.000000	-1.000000	62.000000	0.000000	-1.000000	-1.000000	511733.000000	1775716048.193694
-68413.365000	-34497.945000	-20371.590000	-9145.440000	-24985.890000	-38706.480000	-5147.370000	-29970.045000	7.465997	8.585409	7.315104	5.477146	4.980408	-7.940011	-20.411485	0.619505	-1.388660	1.297100	1.526000	-0.802671	-0.308959	0.506163	-1.000000	-1.000000	-1.000000	-1.000000	-1.000000	-1.000000	-1.000000	62.000000	0.000000	-1.000000	-1.000000	511734.000000	1775716048.193719
-68417.280000	-34502.130000	-20377.485000	-9147.285000	-24979.905000	-38700.225000	-5155.920000	-29975.535000	7.874465	8.579571	8.204137	6.988111	4.329094	-2.909437	-14.247386	2.872571	-1.388660	1.297100	1.526000	-0.802671	-0.308959	0.506163	-1.000000	-1.000000	-1.000000	-1.000000	-1.000000	-1.000000	-1.000000	62.000000	0.000000	-1.000000	-1.000000	511735.000000	1775716048.197837
-68416.155000	-34502.355000	-20378.160000	-9134.100000	-24977.565000	-38700.000000	-5159.025000	-29976.480000	4.570563	5.298174	5.883024	6.048942	2.705645	3.524859	-4.537920	3.010307	-1.388660	1.297100	1.526000	-0.802671	-0.308959	0.506163	-1.000000	-1.000000	-1.000000	-1.000000	-1.000000	-1.000000	-1.000000	62.000000	0.000000	-1.000000	-1.000000	511736.000000	1775716048.197865
-68411.115000	-34498.080000	-20371.860000	-9121.635000	-24973.290000	-38700.945000	-5157.495000	-29972.565000	-0.491035	0.175163	1.229770	3.935596	1.271322	7.431372	3.839026	1.155722	-1.388660	1.297100	1.526000	-0.802671	-0.308959	0.506163	-1.000000	-1.000000	-1.000000	-1.000000	-1.000000	-1.000000	-1.000000	62.000000	0.000000	-1.000000	-1.000000	511737.000000	1775716048.201560
-68414.220000	-34502.130000	-20376.315000	-9132.795000	-24977.295000	-38699.595000	-5154.750000	-29974.140000	-4.361379	-4.278255	-3.326414	1.880457	0.166464	6.880101	8.846754	-0.935034	-1.388660	1.297100	1.526000	-0.802671	-0.308959	0.506163	-1.000000	-1.000000	-1.000000	-1.000000	-1.000000	-1.000000	-1.000000	62.000000	0.000000	-1.000000	-1.000000	511738.000000	1775716048.201588
-68421.465000	-34508.745000	-20381.670000	-9141.165000	-24982.245000	-38696.580000	-5155.245000	-29980.620000	-5.752468	-6.554217	-5.998900	-0.778079	-1.181633	2.959683	10.568192	-2.012999	-1.388660	1.297100	1.526000	-0.802671	-0.308959	0.506163	-1.000000	-1.000000	-1.000000	-1.000000	-1.000000	-1.000000	-1.000000	62.000000	0.000000	-1.000000	-1.000000	511739.000000	1775716048.205927
-68414.715000	-34499.790000	-20373.705000	-9137.115000	-24975.585000	-38693.250000	-5152.230000	-29975.040000	-5.186328	-6.567744	-6.463682	-4.659518	-2.883877	-1.518108	9.656543	-2.090388	-1.388660	1.297100	1.526000	-0.802671	-0.308959	0.506163	-1.000000	-1.000000	-1.000000	-1.000000	-1.000000	-1.000000	-1.000000	62.000000	0.000000	-1.000000	-1.000000	511740.000000	1775716048.205956
-68414.265000	-34498.125000	-20373.480000	-9140.220000	-24974.055000	-38699.325000	-5155.695000	-29975.130000	-3.261069	-4.470843	-4.793905	-8.002316	-3.880227	-4.368081	6.836021	-1.355555	-1.266580	1.388660	1.068200	-0.803099	-0.309692	0.504820	-1.000000	-1.000000	-1.000000	-1.000000	-1.000000	-1.000000	-1.000000	62.000000	0.000000	-1.000000	-1.000000	511741.000000	1775716048.216630
-68412.240000	-34496.820000	-20371.995000	-9137.430000	-24968.475000	-38701.080000	-5155.605000	-29974.320000	-0.454419	-0.891833	-1.598255	-8.447225	-3.128238	-5.241072	2.931667	0.016809	-1.266580	1.388660	1.068200	-0.803099	-0.309692	0.504820	-1.000000	-1.000000	-1.000000	-1.000000	-1.000000	-1.000000	-1.000000	62.000000	0.000000	-1.000000	-1.000000	511742.000000	1775716048.216658
-68409.315000	-34496.415000	-20370.465000	-9127.080000	-24958.215000	-38705.625000	-5156.640000	-29973.465000	2.244866	2.505746	1.625905	-5.357302	-0.775580	-4.805100	-1.023091	1.381479	-1.266580	1.388660	1.068200	-0.803099	-0.309692	0.504820	-1.000000	-1.000000	-1.000000	-1.000000	-1.000000	-1.000000	-1.000000	62.000000	0.000000	-1.000000	-1.000000	511743.000000	1775716048.216687
-68410.305000	-34501.365000	-20376.900000	-9130.050000	-24965.100000	-38710.440000	-5159.655000	-29975.085000	3.782323	4.037586	3.373332	-0.029981	1.920042	-3.633831	-3.947297	2.009540	-1.266580	1.388660	1.068200	-0.803099	-0.309692	0.504820	-1.000000	-1.000000	-1.000000	-1.000000	-1.000000	-1.000000	-1.000000	62.000000	0.000000	-1.000000	-1.000000	511744.000000	1775716048.216700
-68410.845000	-34505.865000	-20384.640000	-9146.745000	-24988.905000	-38721.015000	-5157.945000	-29974.545000	3.609209	3.086618	2.844698	4.504686	2.675520	-2.181397	-5.176588	1.623234	-1.266580	1.388660	1.068200	-0.803099	-0.309692	0.504820	-1.000000	-1.000000	-1.000000	-1.000000	-1.000000	-1.000000	-1.000000	62.000000	0.000000	-1.000000	-1.000000	511745.000000	1775716048.221359
-68407.020000	-34498.935000	-20375.550000	-9143.010000	-25007.175000	-38725.290000	-5156.595000	-29973.420000	2.007247	0.592952	0.634159	5.369391	-0.409464	-0.864357	-4.569901	0.562202	-1.266580	1.388660	1.068200	-0.803099	-0.309692	0.504820	-1.000000	-1.000000	-1.000000	-1.000000	-1.000000	-1.000000	-1.000000	62.000000	0.000000	-1.000000	-1.000000	511746.000000	1775716048.221387
-68400.495000	-34490.970000	-20366.505000	-9129.510000	-24986.745000	-38715.030000	-5155.695000	-29968.605000	0.147989	-1.260459	-1.030503	3.170230	-5.515641	0.576542	-2.528088	-0.391853	-1.266580	1.388660	1.068200	-0.803099	-0.309692	0.504820	-1.000000	-1.000000	-1.000000	-1.000000	-1.000000	-1.000000	-1.000000	62.000000	0.000000	-1.000000	-1.000000	511747.000000	1775716048.226171
-68399.370000	-34488.810000	-20365.965000	-9128.070000	-24976.350000	-38706.840000	-5156.865000	-29966.085000	-0.816690	-0.940798	-0.400792	1.252485	-7.149833	3.060554	-0.062227	-0.593341	-1.266580	1.388660	1.068200	-0.803099	-0.309692	0.504820	-1.000000	-1.000000	-1.000000	-1.000000	-1.000000	-1.000000	-1.000000	62.000000	0.000000	-1.000000	-1.000000	511748.000000	1775716048.226198
-68405.400000	-34495.245000	-20373.795000	-9136.665000	-24980.400000	-38704.230000	-5159.520000	-29969.820000	-0.961637	0.704430	1.498446	1.086873	-2.369703	6.448437	1.629440	-0.193473	-1.266580	1.388660	1.068200	-0.803099	-0.309692	0.504820	-1.000000	-1.000000	-1.000000	-1.000000	-1.000000	-1.000000	-1.000000	62.000000	0.000000	-1.000000	-1.000000	511749.000000	1775716048.226227
-68407.965000	-34500.105000	-20378.655000	-9143.820000	-24984.090000	-38702.430000	-5164.335000	-29975.490000	-1.322419	1.388984	2.066200	0.994237	5.198131	8.708782	1.833330	-0.133730	-1.266580	1.388660	1.068200	-0.803099	-0.309692	0.504820	-1.000000	-1.000000	-1.000000	-1.000000	-1.000000	-1.000000	-1.000000	62.000000	0.000000	-1.000000	-1.000000	511750.000000	1775716048.226238
-68402.565000	-34491.870000	-20363.715000	-9127.215000	-24974.865000	-38696.535000	-5167.125000	-29974.770000	-2.179567	0.193443	0.567270	-0.249622	9.843360	7.874928	0.710133	-1.001226	-0.061040	1.876980	0.732480	-0.803160	-0.309692	0.504576	-1.000000	-1.000000	-1.000000	-1.000000	-1.000000	-1.000000	-1.000000	62.000000	0.000000	-1.000000	-1.000000	511751.000000	1775716048.231932
-68405.805000	-34496.820000	-20367.900000	-9126.450000	-24978.195000	-38702.430000	-5158.170000	-29976.030000	-2.577364	-1.521923	-1.100130	-1.287291	9.392059	3.910865	-0.604856	-2.124236	-0.061040	1.876980	0.732480	-0.803160	-0.309692	0.504576	-1.000000	-1.000000	-1.000000	-1.000000	-1.000000	-1.000000	-1.000000	62.000000	0.000000	-1.000000	-1.000000	511752.000000	1775716048.231960
-68408.865000	-34500.195000	-20372.895000	-9132.570000	-24978.870000	-38705.040000	-5148.090000	-29975.400000	-1.922006	-2.333416	-1.542527	-0.934839	5.137448	-1.711655	-0.510963	-2.349513	-0.061040	1.876980	0.732480	-0.803160	-0.309692	0.504576	-1.000000	-1.000000	-1.000000	-1.000000	-1.000000	-1.000000	-1.000000	62.000000	0.000000	-1.000000	-1.000000	511753.000000	1775716048.234146
-68406.255000	-34498.665000	-20378.430000	-9140.625000	-24982.830000	-38715.345000	-5150.250000	-29973.420000	-0.661418	-2.133492	-1.491658	-0.377834	-0.547824	-7.072953	1.387746	-1.246747	-0.061040	1.876980	0.732480	-0.803160	-0.309692	0.504576	-1.000000	-1.000000	-1.000000	-1.000000	-1.000000	-1.000000	-1.000000	62.000000	0.000000	-1.000000	-1.000000	511754.000000	1775716048.234175
-68406.210000	-34498.485000	-20376.675000	-9139.365000	-24984.180000	-38720.700000	-5158.755000	-29975.805000	0.687079	-1.201386	-1.756320	-0.997605	-5.363081	-10.421957	3.177137	0.634932	-0.061040	1.876980	0.732480	-0.803160	-0.309692	0.504576	-1.000000	-1.000000	-1.000000	-1.000000	-1.000000	-1.000000	-1.000000	62.000000	0.000000	-1.000000	-1.000000	511755.000000	1775716048.238200
-68406.480000	-34497.720000	-20373.390000	-9135.315000	-24976.980000	-38700.405000	-5155.245000	-29977.695000	1.830794	0.218791	-1.788163	-2.105781	-7.522866	-10.173668	2.611147	2.166507	-0.061040	1.876980	0.732480	-0.803160	-0.309692	0.504576	-1.000000	-1.000000	-1.000000	-1.000000	-1.000000	-1.000000	-1.000000	62.000000	0.000000	-1.000000	-1.000000	511756.000000	1775716048.238227
-68411.295000	-34505.055000	-20380.275000	-9140.175000	-24980.625000	-38700.585000	-5153.940000	-29981.925000	2.323733	1.486719	-0.867128	-2.127832	-6.360649	-5.413682	-0.056565	2.423060	-0.061040	1.876980	0.732480	-0.803160	-0.309692	0.504576	-1.000000	-1.000000	-1.000000	-1.000000	-1.000000	-1.000000	-1.000000	62.000000	0.000000	-1.000000	-1.000000	511757.000000	1775716048.242815
-68413.005000	-34508.205000	-20383.695000	-9143.280000	-24984.855000	-38707.020000	-5154.165000	-29982.735000	1.790248	1.747682	0.486820	-0.881415	-3.068476	1.885572	-2.634013	1.382656	-0.061040	1.876980	0.732480	-0.803160	-0.309692	0.504576	-1.000000	-1.000000	-1.000000	-1.000000	-1.000000	-1.000000	-1.000000	62.000000	0.000000	-1.000000	-1.000000	511758.000000	1775716048.242843
-68409.045000	-34503.255000	-20375.325000	-9135.540000	-24981.030000	-38708.010000	-5155.560000	-29979.315000	0.587347	0.974596	1.420316	0.707676	0.173301	7.247584	-3.594451	-0.020662	-0.061040	1.876980	0.732480	-0.803160	-0.309692	0.504576	-1.000000	-1.000000	-1.000000	-1.000000	-1.000000	-1.000000	-1.000000	62.000000	0.000000	-1.000000	-1.000000	511759.000000	1775716048.247854
-68409.315000	-34502.850000	-20371.590000	-9132.345000	-24982.020000	-38714.805000	-5162.895000	-29982.015000	-0.279789	0.264852	2.134182	2.200674	2.174635	7.816269	-3.080306	-0.692188	-0.061040	1.876980	0.732480	-0.803160	-0.309692	0.504576	-1.000000	-1.000000	-1.000000	-1.000000	-1.000000	-1.000000	-1.000000	62.000000	0.000000	-1.000000	-1.000000	511760.000000	1775716048.247880
-68403.915000	-34500.870000	-20374.290000	-9137.610000	-24984.675000	-38718.225000	-5164.830000	-29979.450000	-0.178578	0.455108	2.901536	3.299872	2.872762	4.300586	-2.084181	-0.386848	-0.595140	1.922760	0.701960	-0.803282	-0.309264	0.504210	-1.000000	-1.000000	-1.000000	-1.000000	-1.000000	-1.000000	-1.000000	62.000000	0.000000	-1.000000	-1.000000	511761.000000	1775716048.255860
-68397.165000	-34498.080000	-20379.915000	-9145.305000	-24984.990000	-38713.050000	-5161.725000	-29974.050000	0.752162	1.245580	2.886725	3.019527	2.460188	-0.356539	-1.093403	0.459609	-0.595140	1.922760	0.701960	-0.803282	-0.309264	0.504210	-1.000000	-1.000000	-1.000000	-1.000000	-1.000000	-1.000000	-1.000000	62.000000	0.000000	-1.000000	-1.000000	511762.000000	1775716048.255888
-68396.490000	-34494.345000	-20376.900000	-9143.775000	-24980.940000	-38704.005000	-5156.235000	-29972.295000	1.876006	1.890209	1.333271	0.880083	1.453085	-2.936839	0.306723	1.406288	-0.595140	1.922760	0.701960	-0.803282	-0.309264	0.504210	-1.000000	-1.000000	-1.000000	-1.000000	-1.000000	-1.000000	-1.000000	62.000000	0.000000	-1.000000	-1.000000	511763.000000	1775716048.255916
-68398.740000	-34491.240000	-20370.195000	-9137.250000	-24972.120000	-38696.895000	-5154.660000	-29974.770000	2.165004	1.919608	-0.872936	-1.713833	0.804059	-1.963834	2.340213	1.868199	-0.595140	1.922760	0.701960	-0.803282	-0.309264	0.504210	-1.000000	-1.000000	-1.000000	-1.000000	-1.000000	-1.000000	-1.000000	62.000000	0.000000	-1.000000	-1.000000	511764.000000	1775716048.255928
-68406.795000	-34496.910000	-20375.730000	-9140.805000	-24971.715000	-38696.490000	-5157.180000	-29982.060000	0.738954	1.100007	-2.142253	-2.738022	1.077164	1.224003	4.101960	1.081658	-0.595140	1.922760	0.701960	-0.803282	-0.309264	0.504210	-1.000000	-1.000000	-1.000000	-1.000000	-1.000000	-1.000000	-1.000000	62.000000	0.000000	-1.000000	-1.000000	511765.000000	1775716048.258320
-68389.470000	-34485.930000	-20365.155000	-9129.825000	-24960.240000	-38692.350000	-5147.010000	-29967.840000	-1.833813	-0.452409	-1.993619	-1.673727	1.814947	3.723515	4.422668	-0.791428	-0.595140	1.922760	0.701960	-0.803282	-0.309264	0.504210	-1.000000	-1.000000	-1.000000	-1.000000	-1.000000	-1.000000	-1.000000	62.000000	0.000000	-1.000000	-1.000000	511766.000000	1775716048.258348
-68386.680000	-34485.345000	-20364.390000	-9129.060000	-24968.520000	-38697.975000	-5143.995000	-29960.100000	-3.327474	-1.842355	-0.862872	0.557175	2.000543	3.494439	3.325122	-1.998052	-0.595140	1.922760	0.701960	-0.803282	-0.309264	0.504210	-1.000000	-1.000000	-1.000000	-1.000000	-1.000000	-1.000000	-1.000000	62.000000	0.000000	-1.000000	-1.000000	511767.000000	1775716048.265834
-68387.760000	-34485.885000	-20365.065000	-9130.995000	-24982.920000	-38706.975000	-5149.890000	-29959.695000	-2.442341	-2.272820	0.465346	2.444923	0.456748	0.390176	1.465596	-1.208141	-0.595140	1.922760	0.701960	-0.803282	-0.309264	0.504210	-1.000000	-1.000000	-1.000000	-1.000000	-1.000000	-1.000000	-1.000000	62.000000	0.000000	-1.000000	-1.000000	511768.000000	1775716048.265864
-68389.605000	-34484.490000	-20364.075000	-9131.760000	-24978.150000	-38706.255000	-5154.885000	-29962.440000	-0.539662	-2.015276	0.987662	2.560566	-3.042298	-4.057126	-1.056303	0.459130	-0.595140	1.922760	0.701960	-0.803282	-0.309264	0.504210	-1.000000	-1.000000	-1.000000	-1.000000	-1.000000	-1.000000	-1.000000	62.000000	0.000000	-1.000000	-1.000000	511769.000000	1775716048.265893
-68394.420000	-34488.090000	-20366.640000	-9137.160000	-24982.425000	-38708.595000	-5162.220000	-29969.100000	0.319425	-1.703315	0.299746	0.645318	-6.389442	-7.224765	-4.056485	0.814182	-0.595140	1.922760	0.701960	-0.803282	-0.309264	0.504210	-1.000000	-1.000000	-1.000000	-1.000000	-1.000000	-1.000000	-1.000000	62.000000	0.000000	-1.000000	-1.000000	511770.000000	1775716048.265906
-68381.055000	-34476.750000	-20352.915000	-9128.340000	-24966.315000	-38692.350000	-5160.060000	-29961.540000	-0.182903	-1.394053	-0.837400	-2.005997	-6.660318	-6.822678	-6.361772	-0.723004	-0.717220	1.632820	0.091560	-0.804197	-0.309081	0.505126	-1.000000	-1.000000	-1.000000	-1.000000	-1.000000	-1.000000	-1.000000	62.000000	0.000000	-1.000000	-1.000000	511771.000000	1775716048.269855
-68378.355000	-34472.610000	-20349.990000	-9125.595000	-24957.270000	-38678.265000	-5158.980000	-29959.200000	-0.554890	-0.500702	-1.057365	-3.378860	-2.747660	-2.257222	-6.357226	-2.486817	-0.717220	1.632820	0.091560	-0.804197	-0.309081	0.505126	-1.000000	-1.000000	-1.000000	-1.000000	-1.000000	-1.000000	-1.000000	62.000000	0.000000	-1.000000	-1.000000	511772.000000	1775716048.269881
-68379.615000	-34475.940000	-20355.480000	-9127.620000	-24960.645000	-38684.610000	-5149.980000	-29960.190000	0.202229	1.032782	-0.124626	-2.545060	3.409416	4.349704	-3.348141	-2.679260	-0.717220	1.632820	0.091560	-0.804197	-0.309081	0.505126	-1.000000	-1.000000	-1.000000	-1.000000	-1.000000	-1.000000	-1.000000	62.000000	0.000000	-1.000000	-1.000000	511773.000000	1775716048.273355
-68394.555000	-34493.940000	-20371.725000	-9135.495000	-24979.680000	-38712.330000	-5144.400000	-29968.920000	0.939621	1.700282	0.241242	-0.727657	7.387610	8.153732	1.671551	-1.502405	-0.717220	1.632820	0.091560	-0.804197	-0.309081	0.505126	-1.000000	-1.000000	-1.000000	-1.000000	-1.000000	-1.000000	-1.000000	62.000000	0.000000	-1.000000	-1.000000	511774.000000	1775716048.273378
-68402.745000	-34501.860000	-20377.440000	-9139.815000	-24983.010000	-38711.565000	-5146.830000	-29975.985000	-0.117796	-0.087646	-1.516444	0.153337	5.807845	5.451073	6.286584	-0.546562	-0.717220	1.632820	0.091560	-0.804197	-0.309081	0.505126	-1.000000	-1.000000	-1.000000	-1.000000	-1.000000	-1.000000	-1.000000	62.000000	0.000000	-1.000000	-1.000000	511775.000000	1775716048.277927
-68398.875000	-34496.865000	-20369.880000	-9128.115000	-24976.890000	-38701.215000	-5146.560000	-29975.220000	-2.638548	-3.339179	-4.183525	-0.145904	0.126339	-1.436391	7.902195	-0.595725	-0.717220	1.632820	0.091560	-0.804197	-0.309081	0.505126	-1.000000	-1.000000	-1.000000	-1.000000	-1.000000	-1.000000	-1.000000	62.000000	0.000000	-1.000000	-1.000000	511776.000000	1775716048.277952
-68405.400000	-34503.930000	-20375.865000	-9132.165000	-24980.130000	-38701.485000	-5152.770000	-29980.800000	-4.152639	-4.928092	-4.765314	-0.150963	-4.732590	-6.189020	5.566680	-0.860260	-0.717220	1.632820	0.091560	-0.804197	-0.309081	0.505126	-1.000000	-1.000000	-1.000000	-1.000000	-1.000000	-1.000000	-1.000000	62.000000	0.000000	-1.000000	-1.000000	511777.000000	1775716048.282467
-68400.450000	-34500.600000	-20374.065000	-9134.100000	-24978.690000	-38704.680000	-5152.050000	-29975.355000	-2.910883	-3.113371	-2.120203	0.808562	-5.502795	-5.529637	0.667630	-0.253143	-0.717220	1.632820	0.091560	-0.804197	-0.309081	0.505126	-1.000000	-1.000000	-1.000000	-1.000000	-1.000000	-1.000000	-1.000000	62.000000	0.000000	-1.000000	-1.000000	511778.000000	1775716048.282497
-68397.930000	-34498.530000	-20372.535000	-9133.515000	-24977.295000	-38703.645000	-5146.920000	-29972.790000	0.648367	1.103408	2.140485	1.766600	-2.660724	-1.374617	-3.947190	1.539440	-0.717220	1.632820	0.091560	-0.804197	-0.309081	0.505126	-1.000000	-1.000000	-1.000000	-1.000000	-1.000000	-1.000000	-1.000000	62.000000	0.000000	-1.000000	-1.000000	511779.000000	1775716048.286114
-68394.330000	-34499.340000	-20376.450000	-9138.915000	-24980.985000	-38703.240000	-5148.765000	-29972.700000	4.748068	5.428742	5.637296	1.797712	1.308493	2.765119	-5.809242	3.832193	-0.717220	1.632820	0.091560	-0.804197	-0.309081	0.505126	-1.000000	-1.000000	-1.000000	-1.000000	-1.000000	-1.000000	-1.000000	62.000000	0.000000	-1.000000	-1.000000	511780.000000	1775716048.286147
-68389.740000	-34495.380000	-20372.850000	-9137.475000	-24980.220000	-38698.560000	-5143.770000	-29967.345000	7.403092	7.739351	6.752711	0.884091	3.958438	4.872963	-4.514866	5.285049	-1.281840	0.915600	1.022420	-0.804380	-0.307677	0.505614	-1.000000	-1.000000	-1.000000	-1.000000	-1.000000	-1.000000	-1.000000	62.000000	0.000000	-1.000000	-1.000000	511781.000000	1775716048.289827
-68391.315000	-34492.455000	-20367.945000	-9131.940000	-24975.855000	-38691.855000	-5146.155000	-29969.820000	7.368872	7.215343	5.470860	-0.171053	4.339380	4.888985	-1.527289	4.943305	-1.281840	0.915600	1.022420	-0.804380	-0.307677	0.505614	-1.000000	-1.000000	-1.000000	-1.000000	-1.000000	-1.000000	-1.000000	62.000000	0.000000	-1.000000	-1.000000	511782.000000	1775716048.289853
-68393.115000	-34493.220000	-20367.945000	-9131.085000	-24973.470000	-38696.085000	-5148.495000	-29972.115000	4.541202	4.475412	3.028729	-0.362215	3.192556	3.585494	1.154444	2.718607	-1.281840	0.915600	1.022420	-0.804380	-0.307677	0.505614	-1.000000	-1.000000	-1.000000	-1.000000	-1.000000	-1.000000	-1.000000	62.000000	0.000000	-1.000000	-1.000000	511783.000000	1775716048.293581
-68398.290000	-34499.565000	-20373.570000	-9135.495000	-24976.620000	-38703.285000	-5154.120000	-29976.570000	-0.098288	0.577198	0.375145	0.266920	1.561713	1.256583	2.092206	-0.746094	-1.281840	0.915600	1.022420	-0.804380	-0.307677	0.505614	-1.000000	-1.000000	-1.000000	-1.000000	-1.000000	-1.000000	-1.000000	62.000000	0.000000	-1.000000	-1.000000	511784.000000	1775716048.293603
-68396.130000	-34499.700000	-20373.930000	-9133.830000	-24975.540000	-38703.195000	-5154.390000	-29974.455000	-4.692086	-3.439739	-2.243301	0.669601	-0.162815	-1.921681	1.192363	-4.090909	-1.281840	0.915600	1.022420	-0.804380	-0.307677	0.505614	-1.000000	-1.000000	-1.000000	-1.000000	-1.000000	-1.000000	-1.000000	62.000000	0.000000	-1.000000	-1.000000	511785.000000	1775716048.298778
-68390.100000	-34493.580000	-20364.480000	-9125.055000	-24965.460000	-38701.170000	-5151.645000	-29969.370000	-7.096058	-6.150250	-4.164441	0.444653	-1.569107	-4.695159	-0.279174	-5.626798	-1.281840	0.915600	1.022420	-0.804380	-0.307677	0.505614	-1.000000	-1.000000	-1.000000	-1.000000	-1.000000	-1.000000	-1.000000	62.000000	0.000000	-1.000000	-1.000000	511786.000000	1775716048.298806
-68387.535000	-34492.590000	-20372.130000	-9140.220000	-24976.665000	-38707.470000	-5154.795000	-29969.010000	-6.102428	-6.192730	-4.382076	-0.015270	-2.109244	-5.501496	-0.874857	-4.476388	-1.281840	0.915600	1.022420	-0.804380	-0.307677	0.505614	-1.000000	-1.000000	-1.000000	-1.000000	-1.000000	-1.000000	-1.000000	62.000000	0.000000	-1.000000	-1.000000	511787.000000	1775716048.301915
-68382.675000	-34488.765000	-20369.970000	-9137.295000	-24969.870000	-38711.115000	-5157.225000	-29965.815000	-2.490008	-3.646639	-3.074699	-0.814809	-2.038790	-4.225215	-0.352619	-1.461785	-1.281840	0.915600	1.022420	-0.804380	-0.307677	0.505614	-1.000000	-1.000000	-1.000000	-1.000000	-1.000000	-1.000000	-1.000000	62.000000	0.000000	-1.000000	-1.000000	511788.000000	1775716048.301941
-68391.270000	-34497.540000	-20375.775000	-9140.130000	-24973.155000	-38715.255000	-5158.845000	-29973.870000	1.362654	-0.304537	-1.468844	-1.940575	-1.860864	-2.012947	0.473302	1.423147	-1.281840	0.915600	1.022420	-0.804380	-0.307677	0.505614	-1.000000	-1.000000	-1.000000	-1.000000	-1.000000	-1.000000	-1.000000	62.000000	0.000000	-1.000000	-1.000000	511789.000000	1775716048.309242
-68393.160000	-34498.170000	-20374.650000	-9142.425000	-24999.300000	-38714.220000	-5152.770000	-29974.455000	3.056855	1.669395	-0.402868	-2.544682	-2.021362	0.157597	1.053249	2.440938	-1.281840	0.915600	1.022420	-0.804380	-0.307677	0.505614	-1.000000	-1.000000	-1.000000	-1.000000	-1.000000	-1.000000	-1.000000	62.000000	0.000000	-1.000000	-1.000000	511790.000000	1775716048.309270
-68395.050000	-34498.980000	-20374.965000	-9140.715000	-24991.380000	-38704.770000	-5143.680000	-29973.690000	1.983972	1.547356	0.156357	-2.004005	-3.035954	2.168218	1.693084	1.454994	-1.449700	1.648080	1.159760	-0.803587	-0.307738	0.505736	-1.000000	-1.000000	-1.000000	-1.000000	-1.000000	-1.000000	-1.000000	62.000000	0.000000	-1.000000	-1.000000	511791.000000	1775716048.314629
-68393.790000	-34497.315000	-20374.290000	-9140.625000	-24980.355000	-38688.705000	-5143.095000	-29974.095000	-0.297020	0.437454	0.666808	-0.433851	-3.561917	4.472693	2.665120	-0.117303	-1.449700	1.648080	1.159760	-0.803587	-0.307738	0.505736	-1.000000	-1.000000	-1.000000	-1.000000	-1.000000	-1.000000	-1.000000	62.000000	0.000000	-1.000000	-1.000000	511792.000000	1775716048.314660
-68384.835000	-34490.340000	-20366.820000	-9135.135000	-24974.100000	-38676.690000	-5145.345000	-29969.820000	-1.567256	-0.073528	1.452459	1.597801	-1.134986	7.067760	3.154229	-0.832827	-1.449700	1.648080	1.159760	-0.803587	-0.307738	0.505736	-1.000000	-1.000000	-1.000000	-1.000000	-1.000000	-1.000000	-1.000000	62.000000	0.000000	-1.000000	-1.000000	511793.000000	1775716048.326754
-68381.730000	-34484.940000	-20359.395000	-9125.640000	-24970.815000	-38683.170000	-5157.315000	-29969.595000	-0.655153	0.784089	2.595921	3.483366	3.905856	8.411168	1.795902	-0.278919	-1.449700	1.648080	1.159760	-0.803587	-0.307738	0.505736	-1.000000	-1.000000	-1.000000	-1.000000	-1.000000	-1.000000	-1.000000	62.000000	0.000000	-1.000000	-1.000000	511794.000000	1775716048.326782
-68373.000000	-34474.545000	-20350.035000	-9112.815000	-24959.790000	-38680.380000	-5157.900000	-29963.700000	1.798442	2.593491	3.846545	4.911874	8.369248	6.253278	-1.622012	1.000491	-1.449700	1.648080	1.159760	-0.803587	-0.307738	0.505736	-1.000000	-1.000000	-1.000000	-1.000000	-1.000000	-1.000000	-1.000000	62.000000	0.000000	-1.000000	-1.000000	511795.000000	1775716048.326812
-68369.310000	-34471.485000	-20347.335000	-9113.400000	-24958.710000	-38683.395000	-5157.630000	-29962.665000	4.030675	4.138628	4.441908	5.429717	9.523317	0.397064	-5.232123	2.120426	-1.449700	1.648080	1.159760	-0.803587	-0.307738	0.505736	-1.000000	-1.000000	-1.000000	-1.000000	-1.000000	-1.000000	-1.000000	62.000000	0.000000	-1.000000	-1.000000	511796.000000	1775716048.326825
-68376.915000	-34478.190000	-20353.320000	-9117.225000	-24962.130000	-38686.995000	-5157.000000	-29966.715000	4.319307	3.952025	3.307723	3.989082	6.610271	-6.529844	-6.456270	2.268471	-1.449700	1.648080	1.159760	-0.803587	-0.307738	0.505736	-1.000000	-1.000000	-1.000000	-1.000000	-1.000000	-1.000000	-1.000000	62.000000	0.000000	-1.000000	-1.000000	511797.000000	1775716048.326840
-68390.595000	-34493.445000	-20366.730000	-9128.790000	-24972.885000	-38694.330000	-5153.220000	-29977.065000	1.610603	0.925316	-0.273632	-0.129939	0.485184	-11.350758	-4.335767	0.819044	-1.449700	1.648080	1.159760	-0.803587	-0.307738	0.505736	-1.000000	-1.000000	-1.000000	-1.000000	-1.000000	-1.000000	-1.000000	62.000000	0.000000	-1.000000	-1.000000	511798.000000	1775716048.326851
-68403.060000	-34510.680000	-20385.000000	-9147.420000	-24986.565000	-38702.835000	-5143.185000	-29987.415000	-3.619394	-4.629796	-5.775737	-6.122654	-6.809495	-12.396903	0.061363	-2.167383	-1.449700	1.648080	1.159760	-0.803587	-0.307738	0.505736	-1.000000	-1.000000	-1.000000	-1.000000	-1.000000	-1.000000	-1.000000	62.000000	0.000000	-1.000000	-1.000000	511799.000000	1775716048.326865
-68393.610000	-34503.660000	-20379.195000	-9143.910000	-24980.490000	-38703.105000	-5157.225000	-29986.155000	-8.557906	-10.031633	-10.747417	-11.424713	-12.264404	-9.711207	4.408713	-5.277505	-1.449700	1.648080	1.159760	-0.803587	-0.307738	0.505736	-1.000000	-1.000000	-1.000000	-1.000000	-1.000000	-1.000000	-1.000000	62.000000	0.000000	-1.000000	-1.000000	511800.000000	1775716048.326876
-68383.350000	-34495.380000	-20371.320000	-9137.070000	-24975.270000	-38706.165000	-5153.265000	-29975.490000	-9.214399	-11.079873	-11.425939	-12.432352	-12.697726	-4.324826	6.083649	-6.005189	-0.595140	1.648080	1.327620	-0.802549	-0.308593	0.506896	-1.000000	-1.000000	-1.000000	-1.000000	-1.000000	-1.000000	-1.000000	62.000000	0.000000	-1.000000	-1.000000	511801.000000	1775716048.332075
-68384.610000	-34500.915000	-20376.990000	-9140.670000	-24981.030000	-38713.320000	-5138.955000	-29967.570000	-4.102440	-5.857250	-6.055777	-7.330302	-7.298153	1.950004	4.593837	-2.700898	-0.595140	1.648080	1.327620	-0.802549	-0.308593	0.506896	-1.000000	-1.000000	-1.000000	-1.000000	-1.000000	-1.000000	-1.000000	62.000000	0.000000	-1.000000	-1.000000	511802.000000	1775716048.332105
-68381.640000	-34497.540000	-20369.970000	-9135.405000	-24992.190000	-38711.115000	-5142.780000	-29965.365000	3.654219	2.680355	2.626623	1.476028	0.635823	6.914586	2.084291	3.293882	-0.595140	1.648080	1.327620	-0.802549	-0.308593	0.506896	-1.000000	-1.000000	-1.000000	-1.000000	-1.000000	-1.000000	-1.000000	62.000000	0.000000	-1.000000	-1.000000	511803.000000	1775716048.340889
-68375.970000	-34490.565000	-20371.905000	-9140.220000	-24984.765000	-38701.215000	-5145.750000	-29966.625000	9.285857	9.650820	9.851214	9.233123	6.536744	9.482817	0.069622	8.180051	-0.595140	1.648080	1.327620	-0.802549	-0.308593	0.506896	-1.000000	-1.000000	-1.000000	-1.000000	-1.000000	-1.000000	-1.000000	62.000000	0.000000	-1.000000	-1.000000	511804.000000	1775716048.340916
-68381.865000	-34493.715000	-20376.045000	-9151.965000	-24984.450000	-38695.140000	-5144.985000	-29972.070000	10.188346	12.187357	12.351989	12.152138	8.670638	10.081981	-1.693713	8.688935	-0.595140	1.648080	1.327620	-0.802549	-0.308593	0.506896	-1.000000	-1.000000	-1.000000	-1.000000	-1.000000	-1.000000	-1.000000	62.000000	0.000000	-1.000000	-1.000000	511805.000000	1775716048.340942
-68383.170000	-34492.725000	-20369.745000	-9147.510000	-24977.025000	-38683.845000	-5144.040000	-29973.645000	6.514286	9.939201	9.699869	9.361703	8.111650	9.298396	-3.227363	4.499602	-0.595140	1.648080	1.327620	-0.802549	-0.308593	0.506896	-1.000000	-1.000000	-1.000000	-1.000000	-1.000000	-1.000000	-1.000000	62.000000	0.000000	-1.000000	-1.000000	511806.000000	1775716048.340954
-68376.375000	-34484.940000	-20358.765000	-9135.990000	-24969.015000	-38680.785000	-5145.795000	-29969.010000	0.562397	4.556743	4.369308	3.692002	6.425069	7.135371	-3.877303	-1.646036	-0.595140	1.648080	1.327620	-0.802549	-0.308593	0.506896	-1.000000	-1.000000	-1.000000	-1.000000	-1.000000	-1.000000	-1.000000	62.000000	0.000000	-1.000000	-1.000000	511807.000000	1775716048.348353
-68377.905000	-34489.260000	-20363.895000	-9131.490000	-24971.310000	-38686.905000	-5146.560000	-29971.035000	-4.367401	-1.153014	-0.388309	-0.592478	4.373576	3.246915	-3.350893	-6.077896	-0.595140	1.648080	1.327620	-0.802549	-0.308593	0.506896	-1.000000	-1.000000	-1.000000	-1.000000	-1.000000	-1.000000	-1.000000	62.000000	0.000000	-1.000000	-1.000000	511808.000000	1775716048.348381
-68384.430000	-34495.740000	-20366.640000	-9125.865000	-24971.940000	-38698.740000	-5142.015000	-29974.095000	-6.411713	-5.296108	-3.416680	-1.671986	1.708502	-2.507392	-1.894821	-7.002973	-0.595140	1.648080	1.327620	-0.802549	-0.308593	0.506896	-1.000000	-1.000000	-1.000000	-1.000000	-1.000000	-1.000000	-1.000000	62.000000	0.000000	-1.000000	-1.000000	511809.000000	1775716048.348409
-68379.255000	-34494.390000	-20368.035000	-9123.075000	-24971.400000	-38694.555000	-5137.920000	-29972.205000	-5.934887	-7.485824	-5.305760	-0.842517	-1.745914	-8.829213	0.160097	-5.112586	-0.595140	1.648080	1.327620	-0.802549	-0.308593	0.506896	-1.000000	-1.000000	-1.000000	-1.000000	-1.000000	-1.000000	-1.000000	62.000000	0.000000	-1.000000	-1.000000	511810.000000	1775716048.348422
-68369.355000	-34488.720000	-20369.565000	-9128.880000	-24974.280000	-38693.790000	-5138.010000	-29967.210000	-3.699674	-7.453363	-6.288292	-0.379073	-5.102352	-12.654524	2.265772	-1.895443	0.442540	1.526000	0.900340	-0.802854	-0.310973	0.506774	-1.000000	-1.000000	-1.000000	-1.000000	-1.000000	-1.000000	-1.000000	62.000000	0.000000	-1.000000	-1.000000	511811.000000	1775716048.350836
-68369.220000	-34485.210000	-20363.715000	-9127.080000	-24975.855000	-38708.235000	-5146.965000	-29967.975000	-0.242215	-4.903473	-5.837911	-1.586348	-7.088085	-11.824365	3.305046	1.420574	0.442540	1.526000	0.900340	-0.802854	-0.310973	0.506774	-1.000000	-1.000000	-1.000000	-1.000000	-1.000000	-1.000000	-1.000000	62.000000	0.000000	-1.000000	-1.000000	511812.000000	1775716048.350856
-68366.700000	-34480.980000	-20359.170000	-9123.660000	-24972.480000	-38711.115000	-5153.085000	-29967.525000	3.072865	-0.662563	-3.520900	-3.783047	-6.923188	-7.420890	2.234554	3.685918	0.442540	1.526000	0.900340	-0.802854	-0.310973	0.506774	-1.000000	-1.000000	-1.000000	-1.000000	-1.000000	-1.000000	-1.000000	62.000000	0.000000	-1.000000	-1.000000	511813.000000	1775716048.353735
-68375.565000	-34487.325000	-20365.110000	-9130.455000	-24978.060000	-38716.785000	-5161.320000	-29974.005000	4.365069	3.194361	-0.030180	-5.208303	-4.672441	-2.030764	-0.655892	3.985870	0.442540	1.526000	0.900340	-0.802854	-0.310973	0.506774	-1.000000	-1.000000	-1.000000	-1.000000	-1.000000	-1.000000	-1.000000	62.000000	0.000000	-1.000000	-1.000000	511814.000000	1775716048.353754
-68381.595000	-34489.665000	-20367.360000	-9133.245000	-24979.005000	-38712.690000	-5159.205000	-29975.265000	2.698834	4.584662	2.705522	-5.061538	-1.442527	2.752068	-3.518078	2.261938	0.442540	1.526000	0.900340	-0.802854	-0.310973	0.506774	-1.000000	-1.000000	-1.000000	-1.000000	-1.000000	-1.000000	-1.000000	62.000000	0.000000	-1.000000	-1.000000	511815.000000	1775716048.359080
-68382.990000	-34491.375000	-20367.135000	-9131.040000	-24972.930000	-38699.865000	-5152.725000	-29976.390000	-0.954739	3.052368	3.274366	-3.626971	1.479443	6.654273	-4.086935	-0.389212	0.442540	1.526000	0.900340	-0.802854	-0.310973	0.506774	-1.000000	-1.000000	-1.000000	-1.000000	-1.000000	-1.000000	-1.000000	62.000000	0.000000	-1.000000	-1.000000	511816.000000	1775716048.359096
-68383.080000	-34495.020000	-20367.225000	-9130.590000	-24972.255000	-38688.930000	-5138.145000	-29976.840000	-4.089966	0.085682	2.118397	-1.237755	3.619803	9.835559	-1.233003	-2.330273	0.442540	1.526000	0.900340	-0.802854	-0.310973	0.506774	-1.000000	-1.000000	-1.000000	-1.000000	-1.000000	-1.000000	-1.000000	62.000000	0.000000	-1.000000	-1.000000	511817.000000	1775716048.372606
-68375.520000	-34492.005000	-20367.720000	-9132.570000	-24974.370000	-38687.220000	-5126.355000	-29967.840000	-4.454730	-2.253365	0.632490	1.559731	4.737817	11.569860	4.051383	-2.419087	0.442540	1.526000	0.900340	-0.802854	-0.310973	0.506774	-1.000000	-1.000000	-1.000000	-1.000000	-1.000000	-1.000000	-1.000000	62.000000	0.000000	-1.000000	-1.000000	511818.000000	1775716048.372633
-68372.730000	-34489.620000	-20365.470000	-9131.715000	-24973.065000	-38691.090000	-5130.090000	-29966.040000	-1.652779	-2.609760	-0.190164	3.746843	4.385095	10.115866	8.711783	-0.558923	0.442540	1.526000	0.900340	-0.802854	-0.310973	0.506774	-1.000000	-1.000000	-1.000000	-1.000000	-1.000000	-1.000000	-1.000000	62.000000	0.000000	-1.000000	-1.000000	511819.000000	1775716048.372656
-68366.520000	-34481.790000	-20357.190000	-9123.300000	-24963.255000	-38686.275000	-5131.080000	-29961.990000	2.654314	-0.838573	0.016805	4.702997	2.836064	4.761452	9.232565	2.103046	0.442540	1.526000	0.900340	-0.802854	-0.310973	0.506774	-1.000000	-1.000000	-1.000000	-1.000000	-1.000000	-1.000000	-1.000000	62.000000	0.000000	-1.000000	-1.000000	511820.000000	1775716048.372667
-68370.075000	-34486.065000	-20360.790000	-9125.505000	-24965.820000	-38686.500000	-5136.975000	-29966.040000	5.852118	1.888268	1.012055	4.602047	1.165292	-2.529519	4.460307	3.709320	1.403920	1.220800	0.183120	-0.802915	-0.310363	0.507384	-1.000000	-1.000000	-1.000000	-1.000000	-1.000000	-1.000000	-1.000000	62.000000	0.000000	-1.000000	-1.000000	511821.000000	1775716048.372680
-68373.270000	-34486.965000	-20359.080000	-9122.715000	-24963.255000	-38681.640000	-5135.940000	-29968.155000	5.942661	3.598303	1.787629	3.614306	-0.093664	-8.383782	-3.163434	2.985963	1.403920	1.220800	0.183120	-0.802915	-0.310363	0.507384	-1.000000	-1.000000	-1.000000	-1.000000	-1.000000	-1.000000	-1.000000	62.000000	0.000000	-1.000000	-1.000000	511822.000000	1775716048.372690
-68376.780000	-34488.405000	-20357.910000	-9121.815000	-24966.135000	-38686.905000	-5139.855000	-29971.800000	2.756753	3.006123	1.432055	1.784263	-1.214272	-10.601525	-9.468862	0.183472	1.403920	1.220800	0.183120	-0.802915	-0.310363	0.507384	-1.000000	-1.000000	-1.000000	-1.000000	-1.000000	-1.000000	-1.000000	62.000000	0.000000	-1.000000	-1.000000	511823.000000	1775716048.373291
-68378.805000	-34492.545000	-20368.665000	-9133.965000	-24974.640000	-38693.880000	-5144.355000	-29974.770000	-1.873928	0.562711	-0.077978	-0.654412	-2.514555	-9.406096	-11.559488	-3.108595	1.403920	1.220800	0.183120	-0.802915	-0.310363	0.507384	-1.000000	-1.000000	-1.000000	-1.000000	-1.000000	-1.000000	-1.000000	62.000000	0.000000	-1.000000	-1.000000	511824.000000	1775716048.373311
-68374.440000	-34489.755000	-20368.755000	-9134.955000	-24968.340000	-38691.495000	-5143.455000	-29972.205000	-5.287664	-2.139617	-2.231047	-3.378973	-3.790139	-6.413249	-9.199119	-5.021513	1.403920	1.220800	0.183120	-0.802915	-0.310363	0.507384	-1.000000	-1.000000	-1.000000	-1.000000	-1.000000	-1.000000	-1.000000	62.000000	0.000000	-1.000000	-1.000000	511825.000000	1775716048.377028
-68373.405000	-34488.765000	-20365.740000	-9131.715000	-24958.755000	-38694.555000	-5143.230000	-29970.540000	-5.657000	-3.479714	-3.899816	-5.383408	-3.858731	-2.804508	-3.967660	-4.438619	1.403920	1.220800	0.183120	-0.802915	-0.310363	0.507384	-1.000000	-1.000000	-1.000000	-1.000000	-1.000000	-1.000000	-1.000000	62.000000	0.000000	-1.000000	-1.000000	511826.000000	1775716048.377048
-68375.340000	-34491.690000	-20369.160000	-9132.390000	-24952.455000	-38700.270000	-5147.505000	-29972.070000	-3.190427	-2.855501	-3.757664	-5.182327	-1.606691	0.713914	1.839892	-1.705237	1.403920	1.220800	0.183120	-0.802915	-0.310363	0.507384	-1.000000	-1.000000	-1.000000	-1.000000	-1.000000	-1.000000	-1.000000	62.000000	0.000000	-1.000000	-1.000000	511827.000000	1775716048.381809
-68365.485000	-34482.825000	-20360.070000	-9126.990000	-24951.555000	-38699.100000	-5142.330000	-29963.565000	0.345524	-0.920552	-1.609313	-2.485059	2.095332	3.340217	6.068257	1.664230	1.403920	1.220800	0.183120	-0.802915	-0.310363	0.507384	-1.000000	-1.000000	-1.000000	-1.000000	-1.000000	-1.000000	-1.000000	62.000000	0.000000	-1.000000	-1.000000	511828.000000	1775716048.381827
-68359.680000	-34476.255000	-20352.420000	-9125.190000	-24975.720000	-38706.615000	-5143.095000	-29960.955000	3.405001	1.460352	1.690446	1.394009	4.311125	4.594881	7.730692	4.271775	1.403920	1.220800	0.183120	-0.802915	-0.310363	0.507384	-1.000000	-1.000000	-1.000000	-1.000000	-1.000000	-1.000000	-1.000000	62.000000	0.000000	-1.000000	-1.000000	511829.000000	1775716048.392583
-68360.175000	-34478.370000	-20355.750000	-9127.665000	-24976.575000	-38704.140000	-5146.200000	-29962.530000	5.093835	3.468963	4.736022	4.480071	2.534540	4.537267	6.951377	5.246245	1.403920	1.220800	0.183120	-0.802915	-0.310363	0.507384	-1.000000	-1.000000	-1.000000	-1.000000	-1.000000	-1.000000	-1.000000	62.000000	0.000000	-1.000000	-1.000000	511830.000000	1775716048.392603
-68355.090000	-34472.880000	-20351.565000	-9129.330000	-24980.715000	-38701.935000	-5148.360000	-29960.100000	4.739584	4.026651	5.785484	5.174242	-2.141175	3.743008	4.274253	4.123091	-0.564620	1.617560	0.793520	-0.802244	-0.306823	0.507018	-1.000000	-1.000000	-1.000000	-1.000000	-1.000000	-1.000000	-1.000000	62.000000	0.000000	-1.000000	-1.000000	511831.000000	1775716048.392624
-68352.705000	-34471.305000	-20352.105000	-9128.430000	-24973.515000	-38692.395000	-5142.735000	-29958.120000	2.490344	2.727397	4.098451	3.319487	-5.592659	3.127247	0.831571	1.418277	-0.564620	1.617560	0.793520	-0.802244	-0.306823	0.507018	-1.000000	-1.000000	-1.000000	-1.000000	-1.000000	-1.000000	-1.000000	62.000000	0.000000	-1.000000	-1.000000	511832.000000	1775716048.392630
-68355.270000	-34472.880000	-20349.810000	-9116.460000	-24961.095000	-38669.760000	-5139.540000	-29959.470000	-0.586226	0.282108	0.694049	0.534398	-4.579679	3.486098	-1.714116	-1.507422	-0.564620	1.617560	0.793520	-0.802244	-0.306823	0.507018	-1.000000	-1.000000	-1.000000	-1.000000	-1.000000	-1.000000	-1.000000	62.000000	0.000000	-1.000000	-1.000000	511833.000000	1775716048.393241
-68362.830000	-34478.820000	-20352.105000	-9112.680000	-24960.015000	-38669.670000	-5142.510000	-29965.500000	-3.528532	-2.399702	-2.682389	-1.043791	0.625811	4.718986	-2.476801	-3.636282	-0.564620	1.617560	0.793520	-0.802244	-0.306823	0.507018	-1.000000	-1.000000	-1.000000	-1.000000	-1.000000	-1.000000	-1.000000	62.000000	0.000000	-1.000000	-1.000000	511834.000000	1775716048.393263
-68362.965000	-34480.395000	-20354.130000	-9115.830000	-24968.790000	-38690.055000	-5136.840000	-29965.455000	-5.711230	-4.607898	-4.784968	-0.901568	6.255968	4.606558	-1.999365	-4.684410	-0.564620	1.617560	0.793520	-0.802244	-0.306823	0.507018	-1.000000	-1.000000	-1.000000	-1.000000	-1.000000	-1.000000	-1.000000	62.000000	0.000000	-1.000000	-1.000000	511835.000000	1775716048.397139
-68369.220000	-34491.105000	-20364.930000	-9125.460000	-24975.630000	-38698.065000	-5135.535000	-29971.170000	-6.408273	-5.707693	-5.392891	-0.638595	7.897850	0.361480	-1.158963	-4.570825	-0.564620	1.617560	0.793520	-0.802244	-0.306823	0.507018	-1.000000	-1.000000	-1.000000	-1.000000	-1.000000	-1.000000	-1.000000	62.000000	0.000000	-1.000000	-1.000000	511836.000000	1775716048.397165
-68372.280000	-34494.165000	-20366.010000	-9130.275000	-24975.765000	-38704.005000	-5146.200000	-29975.625000	-5.200918	-5.384921	-4.937780	-1.843577	4.425667	-7.142995	-0.643195	-3.392503	-0.564620	1.617560	0.793520	-0.802244	-0.306823	0.507018	-1.000000	-1.000000	-1.000000	-1.000000	-1.000000	-1.000000	-1.000000	62.000000	0.000000	-1.000000	-1.000000	511837.000000	1775716048.401704
-68372.730000	-34492.815000	-20370.195000	-9136.620000	-24973.380000	-38697.255000	-5141.385000	-29974.005000	-2.444490	-3.558479	-3.614318	-4.120052	-1.197131	-12.986636	-1.012289	-1.504295	-0.564620	1.617560	0.793520	-0.802244	-0.306823	0.507018	-1.000000	-1.000000	-1.000000	-1.000000	-1.000000	-1.000000	-1.000000	62.000000	0.000000	-1.000000	-1.000000	511838.000000	1775716048.401728
-68377.095000	-34494.030000	-20367.315000	-9136.890000	-24972.615000	-38687.760000	-5142.600000	-29976.660000	0.969461	-0.314226	-1.282665	-5.549569	-4.974914	-12.545917	-1.833218	0.765274	-0.564620	1.617560	0.793520	-0.802244	-0.306823	0.507018	-1.000000	-1.000000	-1.000000	-1.000000	-1.000000	-1.000000	-1.000000	62.000000	0.000000	-1.000000	-1.000000	511839.000000	1775716048.405105
-68372.820000	-34490.340000	-20366.505000	-9138.735000	-24967.980000	-38687.040000	-5149.620000	-29974.725000	3.984262	3.548657	1.855315	-4.549133	-5.062715	-5.474789	-2.100845	2.967883	-0.564620	1.617560	0.793520	-0.802244	-0.306823	0.507018	-1.000000	-1.000000	-1.000000	-1.000000	-1.000000	-1.000000	-1.000000	62.000000	0.000000	-1.000000	-1.000000	511840.000000	1775716048.405125
-68365.440000	-34483.365000	-20361.645000	-9128.655000	-24962.895000	-38691.450000	-5150.565000	-29970.495000	5.990142	6.734140	4.965667	-0.990673	-2.223486	3.868931	-1.651822	4.545439	-1.678600	1.480220	1.266580	-0.802671	-0.304137	0.507201	-1.000000	-1.000000	-1.000000	-1.000000	-1.000000	-1.000000	-1.000000	62.000000	0.000000	-1.000000	-1.000000	511841.000000	1775716048.417302
-68365.755000	-34486.740000	-20362.680000	-9121.950000	-24967.305000	-38692.530000	-5148.180000	-29974.455000	6.852611	8.118867	6.873000	3.961481	1.331810	9.931000	-0.738797	5.063755	-1.678600	1.480220	1.266580	-0.802671	-0.304137	0.507201	-1.000000	-1.000000	-1.000000	-1.000000	-1.000000	-1.000000	-1.000000	62.000000	0.000000	-1.000000	-1.000000	511842.000000	1775716048.417329
-68345.820000	-34476.570000	-20355.705000	-9114.210000	-24959.475000	-38675.520000	-5154.480000	-29969.550000	6.530329	7.093293	6.734751	8.349318	3.403844	10.507787	0.538725	4.224709	-1.678600	1.480220	1.266580	-0.802671	-0.304137	0.507201	-1.000000	-1.000000	-1.000000	-1.000000	-1.000000	-1.000000	-1.000000	62.000000	0.000000	-1.000000	-1.000000	511843.000000	1775716048.417355
-68344.470000	-34472.970000	-20354.850000	-9119.250000	-24960.870000	-38678.985000	-5151.510000	-29966.220000	5.271409	4.167038	4.676368	9.946203	3.251540	7.462508	1.770479	2.327800	-1.678600	1.480220	1.266580	-0.802671	-0.304137	0.507201	-1.000000	-1.000000	-1.000000	-1.000000	-1.000000	-1.000000	-1.000000	62.000000	0.000000	-1.000000	-1.000000	511844.000000	1775716048.417367
-68354.865000	-34479.540000	-20360.250000	-9126.630000	-24971.535000	-38692.080000	-5142.105000	-29963.205000	2.872003	0.488512	1.435797	7.256859	1.342270	3.039048	2.683687	0.293824	-1.678600	1.480220	1.266580	-0.802671	-0.304137	0.507201	-1.000000	-1.000000	-1.000000	-1.000000	-1.000000	-1.000000	-1.000000	62.000000	0.000000	-1.000000	-1.000000	511845.000000	1775716048.417380
-68355.540000	-34482.375000	-20361.330000	-9127.890000	-24969.555000	-38683.170000	-5145.210000	-29962.890000	-1.398712	-3.311094	-2.260729	0.917161	-1.580783	-1.854396	3.410237	-1.238974	-1.678600	1.480220	1.266580	-0.802671	-0.304137	0.507201	-1.000000	-1.000000	-1.000000	-1.000000	-1.000000	-1.000000	-1.000000	62.000000	0.000000	-1.000000	-1.000000	511846.000000	1775716048.417392
-68354.190000	-34481.115000	-20359.665000	-9127.935000	-24969.240000	-38687.670000	-5157.225000	-29966.670000	-6.579693	-6.542367	-5.348812	-5.938645	-4.088901	-5.773815	3.296486	-2.335512	-1.678600	1.480220	1.266580	-0.802671	-0.304137	0.507201	-1.000000	-1.000000	-1.000000	-1.000000	-1.000000	-1.000000	-1.000000	62.000000	0.000000	-1.000000	-1.000000	511847.000000	1775716048.425598
-68356.980000	-34480.980000	-20358.720000	-9126.090000	-24969.015000	-38691.315000	-5143.410000	-29966.940000	-9.909638	-7.877040	-6.479093	-9.673676	-4.543601	-7.125448	1.531269	-3.276288	-1.678600	1.480220	1.266580	-0.802671	-0.304137	0.507201	-1.000000	-1.000000	-1.000000	-1.000000	-1.000000	-1.000000	-1.000000	62.000000	0.000000	-1.000000	-1.000000	511848.000000	1775716048.425624
-68358.645000	-34481.070000	-20359.665000	-9127.170000	-24969.105000	-38693.970000	-5129.550000	-29965.185000	-9.591615	-6.521256	-5.180160	-8.774773	-2.694302	-5.950695	-0.553901	-3.846416	-1.678600	1.480220	1.266580	-0.802671	-0.304137	0.507201	-1.000000	-1.000000	-1.000000	-1.000000	-1.000000	-1.000000	-1.000000	62.000000	0.000000	-1.000000	-1.000000	511849.000000	1775716048.425697
-68356.125000	-34477.290000	-20355.795000	-9124.290000	-24965.280000	-38692.215000	-5124.960000	-29964.240000	-6.029143	-3.079883	-2.293297	-4.464157	0.288181	-3.287692	-0.767679	-3.422648	-1.678600	1.480220	1.266580	-0.802671	-0.304137	0.507201	-1.000000	-1.000000	-1.000000	-1.000000	-1.000000	-1.000000	-1.000000	62.000000	0.000000	-1.000000	-1.000000	511850.000000	1775716048.425717
-68360.715000	-34482.105000	-20358.810000	-9124.740000	-24964.740000	-38691.450000	-5124.510000	-29968.065000	-0.984497	0.877385	0.773495	0.691650	2.960300	-0.064886	0.604728	-1.924447	-2.044840	1.403920	1.373400	-0.803037	-0.305236	0.507750	-1.000000	-1.000000	-1.000000	-1.000000	-1.000000	-1.000000	-1.000000	62.000000	0.000000	-1.000000	-1.000000	511851.000000	1775716048.429161
-68364.315000	-34486.650000	-20360.115000	-9124.245000	-24963.930000	-38682.090000	-5126.130000	-29969.865000	3.353135	3.539865	2.733614	4.402807	4.275203	3.030235	1.217516	-0.163144	-2.044840	1.403920	1.373400	-0.803037	-0.305236	0.507750	-1.000000	-1.000000	-1.000000	-1.000000	-1.000000	-1.000000	-1.000000	62.000000	0.000000	-1.000000	-1.000000	511852.000000	1775716048.429179
-68369.355000	-34493.085000	-20363.850000	-9126.810000	-24966.315000	-38679.390000	-5132.340000	-29973.015000	5.359151	3.794389	2.921445	5.510538	3.787910	5.424327	-0.448515	0.975298	-2.044840	1.403920	1.373400	-0.803037	-0.305236	0.507750	-1.000000	-1.000000	-1.000000	-1.000000	-1.000000	-1.000000	-1.000000	62.000000	0.000000	-1.000000	-1.000000	511853.000000	1775716048.433156
-68374.440000	-34500.195000	-20372.715000	-9135.270000	-24974.055000	-38689.155000	-5139.315000	-29979.630000	4.817174	1.962308	1.529644	4.037550	1.673561	6.175147	-3.849105	1.187195	-2.044840	1.403920	1.373400	-0.803037	-0.305236	0.507750	-1.000000	-1.000000	-1.000000	-1.000000	-1.000000	-1.000000	-1.000000	62.000000	0.000000	-1.000000	-1.000000	511854.000000	1775716048.433175
-68368.140000	-34496.955000	-20376.720000	-9140.985000	-24976.800000	-38693.430000	-5138.730000	-29975.355000	2.930269	-0.394583	-0.646090	0.847463	-1.322615	4.184424	-6.948332	0.801912	-2.044840	1.403920	1.373400	-0.803037	-0.305236	0.507750	-1.000000	-1.000000	-1.000000	-1.000000	-1.000000	-1.000000	-1.000000	62.000000	0.000000	-1.000000	-1.000000	511855.000000	1775716048.441564
-68365.395000	-34490.340000	-20367.315000	-9133.110000	-24971.715000	-38692.530000	-5140.530000	-29973.645000	1.530508	-1.289884	-2.186542	-2.307858	-3.731563	-0.064305	-7.525758	0.687601	-2.044840	1.403920	1.373400	-0.803037	-0.305236	0.507750	-1.000000	-1.000000	-1.000000	-1.000000	-1.000000	-1.000000	-1.000000	62.000000	0.000000	-1.000000	-1.000000	511856.000000	1775716048.441586
-68367.915000	-34491.420000	-20375.505000	-9144.405000	-24974.730000	-38696.490000	-5141.430000	-29973.645000	1.472434	0.175024	-1.736764	-3.519310	-4.019623	-4.135669	-4.812810	1.408027	-2.044840	1.403920	1.373400	-0.803037	-0.305236	0.507750	-1.000000	-1.000000	-1.000000	-1.000000	-1.000000	-1.000000	-1.000000	62.000000	0.000000	-1.000000	-1.000000	511857.000000	1775716048.442832
-68372.910000	-34492.230000	-20372.130000	-9140.985000	-24972.480000	-38700.090000	-5145.165000	-29976.705000	1.794898	2.711144	0.371722	-2.484214	-2.078839	-5.882813	-0.144439	2.364735	-2.044840	1.403920	1.373400	-0.803037	-0.305236	0.507750	-1.000000	-1.000000	-1.000000	-1.000000	-1.000000	-1.000000	-1.000000	62.000000	0.000000	-1.000000	-1.000000	511858.000000	1775716048.442855
-68366.070000	-34485.705000	-20363.895000	-9131.355000	-24964.605000	-38700.945000	-5144.895000	-29973.330000	1.271716	4.205077	2.672324	-0.140432	0.866461	-4.961345	4.176037	2.534756	-2.044840	1.403920	1.373400	-0.803037	-0.305236	0.507750	-1.000000	-1.000000	-1.000000	-1.000000	-1.000000	-1.000000	-1.000000	62.000000	0.000000	-1.000000	-1.000000	511859.000000	1775716048.445081
-68361.165000	-34486.065000	-20363.805000	-9130.815000	-24971.220000	-38701.035000	-5142.150000	-29969.370000	0.178347	3.808681	4.229302	2.688650	3.379723	-2.259132	6.583107	1.785072	-2.044840	1.403920	1.373400	-0.803037	-0.305236	0.507750	-1.000000	-1.000000	-1.000000	-1.000000	-1.000000	-1.000000	-1.000000	62.000000	0.000000	-1.000000	-1.000000	511860.000000	1775716048.445100
-68353.740000	-34481.835000	-20359.845000	-9128.205000	-24977.790000	-38694.015000	-5136.525000	-29961.405000	-0.355947	1.998022	4.495705	4.854287	4.009412	1.087995	6.949394	0.900028	-1.205540	1.907500	0.686700	-0.802000	-0.307616	0.508177	-1.000000	-1.000000	-1.000000	-1.000000	-1.000000	-1.000000	-1.000000	62.000000	0.000000	-1.000000	-1.000000	511861.000000	1775716048.450799
-68350.050000	-34478.280000	-20355.840000	-9121.365000	-24964.020000	-38685.285000	-5136.705000	-29958.480000	0.010745	-0.268265	3.213351	5.134290	2.365004	4.221199	5.888594	0.522969	-1.205540	1.907500	0.686700	-0.802000	-0.307616	0.508177	-1.000000	-1.000000	-1.000000	-1.000000	-1.000000	-1.000000	-1.000000	62.000000	0.000000	-1.000000	-1.000000	511862.000000	1775716048.450824
-68352.885000	-34480.845000	-20359.170000	-9124.695000	-24966.270000	-38682.000000	-5137.740000	-29961.315000	0.434058	-2.144045	0.789480	3.366708	0.119204	6.391560	3.782519	0.331902	-1.205540	1.907500	0.686700	-0.802000	-0.307616	0.508177	-1.000000	-1.000000	-1.000000	-1.000000	-1.000000	-1.000000	-1.000000	62.000000	0.000000	-1.000000	-1.000000	511863.000000	1775716048.455456
-68354.415000	-34482.240000	-20361.015000	-9127.170000	-24968.565000	-38685.375000	-5141.520000	-29964.555000	-0.234933	-3.392063	-2.100325	0.183033	-1.129373	6.537961	0.785404	-0.601786	-1.205540	1.907500	0.686700	-0.802000	-0.307616	0.508177	-1.000000	-1.000000	-1.000000	-1.000000	-1.000000	-1.000000	-1.000000	62.000000	0.000000	-1.000000	-1.000000	511864.000000	1775716048.455476
-68355.585000	-34482.060000	-20360.070000	-9127.440000	-24964.380000	-38691.855000	-5148.765000	-29967.660000	-2.145695	-4.064281	-4.628551	-3.401431	-1.480690	3.805003	-2.641977	-2.545896	-1.205540	1.907500	0.686700	-0.802000	-0.307616	0.508177	-1.000000	-1.000000	-1.000000	-1.000000	-1.000000	-1.000000	-1.000000	62.000000	0.000000	-1.000000	-1.000000	511865.000000	1775716048.458436
-68342.355000	-34469.415000	-20350.440000	-9124.515000	-24948.090000	-38695.590000	-5152.950000	-29959.020000	-3.895830	-3.722482	-5.581226	-5.886202	-1.136965	-1.224877	-5.598094	-4.361990	-1.205540	1.907500	0.686700	-0.802000	-0.307616	0.508177	-1.000000	-1.000000	-1.000000	-1.000000	-1.000000	-1.000000	-1.000000	62.000000	0.000000	-1.000000	-1.000000	511866.000000	1775716048.458461
-68330.430000	-34460.730000	-20343.915000	-9124.200000	-24943.680000	-38699.370000	-5152.995000	-29952.090000	-3.490069	-1.662794	-4.014908	-6.023326	0.264640	-6.283457	-6.908428	-4.247218	-1.205540	1.907500	0.686700	-0.802000	-0.307616	0.508177	-1.000000	-1.000000	-1.000000	-1.000000	-1.000000	-1.000000	-1.000000	62.000000	0.000000	-1.000000	-1.000000	511867.000000	1775716048.461260
-68328.090000	-34454.205000	-20329.380000	-9110.250000	-24947.370000	-38691.090000	-5158.305000	-29951.685000	-0.510938	1.744225	-0.302381	-3.647257	1.979002	-8.643848	-5.786627	-1.671677	-1.205540	1.907500	0.686700	-0.802000	-0.307616	0.508177	-1.000000	-1.000000	-1.000000	-1.000000	-1.000000	-1.000000	-1.000000	62.000000	0.000000	-1.000000	-1.000000	511868.000000	1775716048.461286
-68326.785000	-34447.995000	-20317.635000	-9088.830000	-24956.145000	-38672.955000	-5161.185000	-29950.560000	2.874968	4.662179	3.938499	0.685315	1.937490	-6.534692	-2.720516	1.692064	-1.205540	1.907500	0.686700	-0.802000	-0.307616	0.508177	-1.000000	-1.000000	-1.000000	-1.000000	-1.000000	-1.000000	-1.000000	62.000000	0.000000	-1.000000	-1.000000	511869.000000	1775716048.465973
-68345.730000	-34472.475000	-20347.605000	-9107.190000	-24972.525000	-38683.980000	-5142.780000	-29958.030000	3.628687	4.787867	6.049064	5.263140	-1.093841	-0.727813	1.181033	3.451979	-1.205540	1.907500	0.686700	-0.802000	-0.307616	0.508177	-1.000000	-1.000000	-1.000000	-1.000000	-1.000000	-1.000000	-1.000000	62.000000	0.000000	-1.000000	-1.000000	511870.000000	1775716048.466000
-68356.665000	-34488.765000	-20366.640000	-9122.760000	-24971.985000	-38678.040000	-5119.470000	-29959.695000	0.324844	0.614438	3.019417	6.447902	-5.799174	4.978062	5.614409	2.494896	-0.137340	2.441600	-0.244160	-0.800596	-0.308105	0.508788	-1.000000	-1.000000	-1.000000	-1.000000	-1.000000	-1.000000	-1.000000	62.000000	0.000000	-1.000000	-1.000000	511871.000000	1775716048.475366
-68355.180000	-34487.145000	-20365.155000	-9129.510000	-24966.810000	-38676.510000	-5120.820000	-29959.515000	-5.145099	-6.296180	-4.676561	1.978310	-8.651268	7.036587	9.910661	-0.210956	-0.137340	2.441600	-0.244160	-0.800596	-0.308105	0.508788	-1.000000	-1.000000	-1.000000	-1.000000	-1.000000	-1.000000	-1.000000	62.000000	0.000000	-1.000000	-1.000000	511872.000000	1775716048.475392
-68355.495000	-34488.675000	-20369.205000	-9139.590000	-24972.165000	-38687.850000	-5125.635000	-29961.045000	-8.425986	-10.966218	-11.393066	-5.423912	-6.840430	4.966949	11.206792	-2.504369	-0.137340	2.441600	-0.244160	-0.800596	-0.308105	0.508788	-1.000000	-1.000000	-1.000000	-1.000000	-1.000000	-1.000000	-1.000000	62.000000	0.000000	-1.000000	-1.000000	511873.000000	1775716048.476673
-68361.795000	-34493.760000	-20371.005000	-9138.195000	-24972.975000	-38684.520000	-5129.685000	-29967.795000	-6.724720	-9.540936	-11.686379	-10.389962	-1.223904	0.429136	6.852518	-3.036544	-0.137340	2.441600	-0.244160	-0.800596	-0.308105	0.508788	-1.000000	-1.000000	-1.000000	-1.000000	-1.000000	-1.000000	-1.000000	62.000000	0.000000	-1.000000	-1.000000	511874.000000	1775716048.476689
-68364.720000	-34496.820000	-20369.700000	-9125.190000	-24974.775000	-38683.215000	-5133.870000	-29971.170000	-1.304683	-2.958652	-5.273471	-9.217999	4.736689	-3.886245	-1.899676	-2.116415	-0.137340	2.441600	-0.244160	-0.800596	-0.308105	0.508788	-1.000000	-1.000000	-1.000000	-1.000000	-1.000000	-1.000000	-1.000000	62.000000	0.000000	-1.000000	-1.000000	511875.000000	1775716048.477358
-68365.935000	-34498.755000	-20368.485000	-9123.390000	-24974.415000	-38687.265000	-5142.240000	-29973.330000	4.445662	4.727435	3.963564	-2.013046	8.171439	-5.596022	-10.595435	-0.667058	-0.137340	2.441600	-0.244160	-0.800596	-0.308105	0.508788	-1.000000	-1.000000	-1.000000	-1.000000	-1.000000	-1.000000	-1.000000	62.000000	0.000000	-1.000000	-1.000000	511876.000000	1775716048.477378
-68357.700000	-34489.395000	-20361.780000	-9122.670000	-24969.600000	-38690.730000	-5144.310000	-29966.715000	8.125036	10.053211	11.457271	7.126238	8.348864	-4.463129	-15.068493	0.933827	-0.137340	2.441600	-0.244160	-0.800596	-0.308105	0.508788	-1.000000	-1.000000	-1.000000	-1.000000	-1.000000	-1.000000	-1.000000	62.000000	0.000000	-1.000000	-1.000000	511877.000000	1775716048.487334
-68356.215000	-34485.570000	-20365.470000	-9130.050000	-24970.230000	-38691.945000	-5141.025000	-29966.580000	9.246913	11.890564	14.314934	12.679476	6.222983	-1.951139	-13.509065	2.733711	-0.137340	2.441600	-0.244160	-0.800596	-0.308105	0.508788	-1.000000	-1.000000	-1.000000	-1.000000	-1.000000	-1.000000	-1.000000	62.000000	0.000000	-1.000000	-1.000000	511878.000000	1775716048.487362
-68360.445000	-34486.335000	-20364.075000	-9129.195000	-24971.355000	-38689.965000	-5140.980000	-29972.970000	8.027816	10.523839	11.907666	11.702761	3.056322	0.590286	-6.798814	4.157297	-0.137340	2.441600	-0.244160	-0.800596	-0.308105	0.508788	-1.000000	-1.000000	-1.000000	-1.000000	-1.000000	-1.000000	-1.000000	62.000000	0.000000	-1.000000	-1.000000	511879.000000	1775716048.490816
-68355.495000	-34482.195000	-20358.540000	-9122.940000	-24965.055000	-38682.270000	-5137.470000	-29970.450000	4.727383	6.548295	5.837569	5.746778	-0.168528	2.711478	1.964900	4.083320	-0.137340	2.441600	-0.244160	-0.800596	-0.308105	0.508788	-1.000000	-1.000000	-1.000000	-1.000000	-1.000000	-1.000000	-1.000000	62.000000	0.000000	-1.000000	-1.000000	511880.000000	1775716048.490838
-68353.110000	-34482.960000	-20360.655000	-9123.930000	-24964.245000	-38677.365000	-5140.575000	-29969.820000	0.443104	1.143621	-0.884071	-0.975561	-2.497929	4.427184	8.985700	2.390351	-0.442540	2.609460	-0.259420	-0.801145	-0.306640	0.509703	-1.000000	-1.000000	-1.000000	-1.000000	-1.000000	-1.000000	-1.000000	62.000000	0.000000	-1.000000	-1.000000	511881.000000	1775716048.490863
-68346.630000	-34478.145000	-20357.505000	-9122.040000	-24962.220000	-38669.940000	-5132.790000	-29960.865000	-3.033065	-3.912912	-5.766681	-5.233211	-3.424027	5.475064	11.790406	0.352964	-0.442540	2.609460	-0.259420	-0.801145	-0.306640	0.509703	-1.000000	-1.000000	-1.000000	-1.000000	-1.000000	-1.000000	-1.000000	62.000000	0.000000	-1.000000	-1.000000	511882.000000	1775716048.490875
-68340.735000	-34477.245000	-20356.740000	-9122.580000	-24963.930000	-38668.590000	-5133.915000	-29956.365000	-4.484722	-7.036747	-7.813787	-6.336209	-3.302050	5.229987	10.298868	-0.653459	-0.442540	2.609460	-0.259420	-0.801145	-0.306640	0.509703	-1.000000	-1.000000	-1.000000	-1.000000	-1.000000	-1.000000	-1.000000	62.000000	0.000000	-1.000000	-1.000000	511883.000000	1775716048.497026
-68343.030000	-34481.790000	-20358.855000	-9124.920000	-24967.485000	-38674.980000	-5146.245000	-29963.655000	-4.053264	-7.705406	-7.279001	-5.261549	-2.898442	3.102565	5.828008	-0.602246	-0.442540	2.609460	-0.259420	-0.801145	-0.306640	0.509703	-1.000000	-1.000000	-1.000000	-1.000000	-1.000000	-1.000000	-1.000000	62.000000	0.000000	-1.000000	-1.000000	511884.000000	1775716048.497053
-68348.880000	-34484.220000	-20359.080000	-9123.750000	-24967.665000	-38685.195000	-5151.015000	-29967.165000	-3.124011	-6.650021	-5.240907	-3.376368	-2.681335	-0.996345	-0.202640	-0.862172	-0.442540	2.609460	-0.259420	-0.801145	-0.306640	0.509703	-1.000000	-1.000000	-1.000000	-1.000000	-1.000000	-1.000000	-1.000000	62.000000	0.000000	-1.000000	-1.000000	511885.000000	1775716048.500862
-68346.045000	-34480.485000	-20361.330000	-9128.430000	-24963.750000	-38693.880000	-5150.340000	-29964.915000	-2.929424	-4.762342	-2.856974	-1.613362	-2.356549	-6.029161	-5.769117	-2.204538	-0.442540	2.609460	-0.259420	-0.801145	-0.306640	0.509703	-1.000000	-1.000000	-1.000000	-1.000000	-1.000000	-1.000000	-1.000000	62.000000	0.000000	-1.000000	-1.000000	511886.000000	1775716048.500879
-68347.485000	-34480.350000	-20361.870000	-9129.060000	-24961.140000	-38691.225000	-5149.665000	-29967.165000	-3.188198	-2.285891	-0.809248	-0.378484	-1.250747	-9.642790	-8.330456	-3.629830	-0.442540	2.609460	-0.259420	-0.801145	-0.306640	0.509703	-1.000000	-1.000000	-1.000000	-1.000000	-1.000000	-1.000000	-1.000000	62.000000	0.000000	-1.000000	-1.000000	511887.000000	1775716048.502311
-68351.985000	-34484.130000	-20365.605000	-9130.770000	-24962.805000	-38690.865000	-5141.475000	-29969.685000	-2.915258	0.444950	0.643160	0.330346	0.606818	-9.370799	-6.637527	-3.850977	-0.442540	2.609460	-0.259420	-0.801145	-0.306640	0.509703	-1.000000	-1.000000	-1.000000	-1.000000	-1.000000	-1.000000	-1.000000	62.000000	0.000000	-1.000000	-1.000000	511888.000000	1775716048.502327
-68358.555000	-34490.790000	-20370.825000	-9138.285000	-24982.740000	-38698.290000	-5137.875000	-29974.230000	-1.939102	2.406695	1.381834	0.681269	1.867342	-4.922691	-1.721040	-2.748086	-0.442540	2.609460	-0.259420	-0.801145	-0.306640	0.509703	-1.000000	-1.000000	-1.000000	-1.000000	-1.000000	-1.000000	-1.000000	62.000000	0.000000	-1.000000	-1.000000	511889.000000	1775716048.512695
-68351.490000	-34485.390000	-20364.345000	-9133.740000	-24985.575000	-38697.615000	-5138.055000	-29971.395000	-0.591029	2.891724	1.563325	0.798092	1.000794	1.195091	3.655174	-0.963495	-0.442540	2.609460	-0.259420	-0.801145	-0.306640	0.509703	-1.000000	-1.000000	-1.000000	-1.000000	-1.000000	-1.000000	-1.000000	62.000000	0.000000	-1.000000	-1.000000	511890.000000	1775716048.512724
-68350.185000	-34481.430000	-20359.620000	-9127.890000	-24974.235000	-38693.475000	-5135.850000	-29969.055000	1.221973	2.565377	1.912971	1.158666	-1.159563	6.080499	6.577356	1.040143	-0.625660	3.540320	-0.396760	-0.801512	-0.306029	0.510192	-1.000000	-1.000000	-1.000000	-1.000000	-1.000000	-1.000000	-1.000000	62.000000	0.000000	-1.000000	-1.000000	511891.000000	1775716048.512776
-68352.345000	-34479.225000	-20356.425000	-9124.965000	-24968.880000	-38689.695000	-5137.650000	-29969.325000	3.341167	2.534259	2.919968	2.266125	-1.606113	8.495043	5.836228	2.933856	-0.625660	3.540320	-0.396760	-0.801512	-0.306029	0.510192	-1.000000	-1.000000	-1.000000	-1.000000	-1.000000	-1.000000	-1.000000	62.000000	0.000000	-1.000000	-1.000000	511892.000000	1775716048.512788
-68347.035000	-34476.120000	-20354.670000	-9126.990000	-24962.490000	-38678.220000	-5138.415000	-29966.355000	4.779492	2.873362	3.923832	3.527852	1.057156	8.623353	2.347179	4.115269	-0.625660	3.540320	-0.396760	-0.801512	-0.306029	0.510192	-1.000000	-1.000000	-1.000000	-1.000000	-1.000000	-1.000000	-1.000000	62.000000	0.000000	-1.000000	-1.000000	511893.000000	1775716048.523937
-68353.290000	-34487.100000	-20367.090000	-9140.265000	-24972.705000	-38687.220000	-5144.670000	-29972.070000	4.670728	2.619721	3.534164	3.346304	4.685289	6.920778	-1.942634	3.967985	-0.625660	3.540320	-0.396760	-0.801512	-0.306029	0.510192	-1.000000	-1.000000	-1.000000	-1.000000	-1.000000	-1.000000	-1.000000	62.000000	0.000000	-1.000000	-1.000000	511894.000000	1775716048.523961
-68358.915000	-34492.410000	-20370.870000	-9141.255000	-24977.880000	-38693.970000	-5143.590000	-29977.290000	2.782879	0.758842	0.865258	0.774610	5.757853	3.278634	-5.182252	2.227447	-0.625660	3.540320	-0.396760	-0.801512	-0.306029	0.510192	-1.000000	-1.000000	-1.000000	-1.000000	-1.000000	-1.000000	-1.000000	62.000000	0.000000	-1.000000	-1.000000	511895.000000	1775716048.523987
-68353.065000	-34485.885000	-20361.240000	-9123.030000	-24970.545000	-38685.420000	-5137.335000	-29972.025000	-0.236742	-2.236762	-2.923284	-2.575254	3.081836	-1.829653	-5.997888	-0.502267	-0.625660	3.540320	-0.396760	-0.801512	-0.306029	0.510192	-1.000000	-1.000000	-1.000000	-1.000000	-1.000000	-1.000000	-1.000000	62.000000	0.000000	-1.000000	-1.000000	511896.000000	1775716048.523998
-68349.420000	-34484.940000	-20359.935000	-9121.815000	-24970.005000	-38686.410000	-5140.980000	-29970.765000	-2.599757	-4.165435	-4.974096	-3.536453	-1.010045	-6.091099	-4.014070	-2.575603	-0.625660	3.540320	-0.396760	-0.801512	-0.306029	0.510192	-1.000000	-1.000000	-1.000000	-1.000000	-1.000000	-1.000000	-1.000000	62.000000	0.000000	-1.000000	-1.000000	511897.000000	1775716048.524125
-68348.070000	-34483.860000	-20356.560000	-9121.275000	-24968.385000	-38690.460000	-5151.330000	-29973.105000	-2.835601	-3.480901	-3.756349	-1.335327	-3.557743	-7.434482	-0.735087	-2.792976	-0.625660	3.540320	-0.396760	-0.801512	-0.306029	0.510192	-1.000000	-1.000000	-1.000000	-1.000000	-1.000000	-1.000000	-1.000000	62.000000	0.000000	-1.000000	-1.000000	511898.000000	1775716048.524149
-68340.555000	-34477.605000	-20348.190000	-9114.660000	-24960.330000	-38682.270000	-5154.480000	-29970.540000	-1.209258	-0.810073	-0.397726	1.639058	-3.554006	-5.922997	1.423648	-1.571983	-0.625660	3.540320	-0.396760	-0.801512	-0.306029	0.510192	-1.000000	-1.000000	-1.000000	-1.000000	-1.000000	-1.000000	-1.000000	62.000000	0.000000	-1.000000	-1.000000	511899.000000	1775716048.528695
-68335.245000	-34473.555000	-20349.315000	-9121.320000	-24962.895000	-38688.030000	-5151.555000	-29965.950000	1.001775	2.195783	2.895465	2.908109	-1.743430	-2.808698	1.684631	0.042160	-0.625660	3.540320	-0.396760	-0.801512	-0.306029	0.510192	-1.000000	-1.000000	-1.000000	-1.000000	-1.000000	-1.000000	-1.000000	62.000000	0.000000	-1.000000	-1.000000	511900.000000	1775716048.528718
-68335.245000	-34477.785000	-20355.030000	-9129.330000	-24971.670000	-38698.380000	-5143.545000	-29963.970000	2.503280	3.971990	4.133676	1.503368	0.060520	0.126847	1.464376	1.408574	-2.487380	3.555580	0.030520	-0.800291	-0.303527	0.510192	-1.000000	-1.000000	-1.000000	-1.000000	-1.000000	-1.000000	-1.000000	62.000000	0.000000	-1.000000	-1.000000	511901.000000	1775716048.531037
-68336.775000	-34480.080000	-20359.170000	-9130.230000	-24965.415000	-38689.335000	-5137.560000	-29963.340000	2.292614	3.428545	2.388201	-1.911287	0.303460	1.443228	2.304343	2.089851	-2.487380	3.555580	0.030520	-0.800291	-0.303527	0.510192	-1.000000	-1.000000	-1.000000	-1.000000	-1.000000	-1.000000	-1.000000	62.000000	0.000000	-1.000000	-1.000000	511902.000000	1775716048.531059
-68342.535000	-34483.320000	-20366.145000	-9131.085000	-24956.055000	-38684.565000	-5137.110000	-29965.320000	0.157310	0.710894	-1.399521	-5.088993	-0.449123	1.681542	3.965461	1.692428	-2.487380	3.555580	0.030520	-0.800291	-0.303527	0.510192	-1.000000	-1.000000	-1.000000	-1.000000	-1.000000	-1.000000	-1.000000	62.000000	0.000000	-1.000000	-1.000000	511903.000000	1775716048.538645
-68350.815000	-34490.025000	-20375.865000	-9144.855000	-24957.945000	-38695.050000	-5137.605000	-29971.215000	-3.076392	-2.710146	-5.096734	-6.001222	-0.477402	2.048697	4.699159	0.147837	-2.487380	3.555580	0.030520	-0.800291	-0.303527	0.510192	-1.000000	-1.000000	-1.000000	-1.000000	-1.000000	-1.000000	-1.000000	62.000000	0.000000	-1.000000	-1.000000	511904.000000	1775716048.538671
-68355.180000	-34494.975000	-20376.990000	-9151.380000	-24982.515000	-38700.315000	-5135.895000	-29977.650000	-5.915861	-5.160211	-6.808878	-4.687097	-0.011972	2.086480	3.212428	-2.113454	-2.487380	3.555580	0.030520	-0.800291	-0.303527	0.510192	-1.000000	-1.000000	-1.000000	-1.000000	-1.000000	-1.000000	-1.000000	62.000000	0.000000	-1.000000	-1.000000	511905.000000	1775716048.540037
-68348.115000	-34486.155000	-20359.845000	-9123.165000	-24975.135000	-38707.065000	-5142.645000	-29974.140000	-6.615706	-5.404264	-5.209833	-1.730813	-0.813722	0.835633	-0.117206	-4.020797	-2.487380	3.555580	0.030520	-0.800291	-0.303527	0.510192	-1.000000	-1.000000	-1.000000	-1.000000	-1.000000	-1.000000	-1.000000	62.000000	0.000000	-1.000000	-1.000000	511906.000000	1775716048.540059
-68329.710000	-34468.830000	-20341.440000	-9101.565000	-24969.915000	-38711.835000	-5142.735000	-29958.615000	-3.743589	-2.576209	0.229315	3.526220	-2.390680	-1.244394	-3.824069	-3.890905	-2.487380	3.555580	0.030520	-0.800291	-0.303527	0.510192	-1.000000	-1.000000	-1.000000	-1.000000	-1.000000	-1.000000	-1.000000	62.000000	0.000000	-1.000000	-1.000000	511907.000000	1775716048.540744
-68331.555000	-34471.665000	-20345.265000	-9106.605000	-24965.280000	-38694.960000	-5154.030000	-29962.845000	2.266315	2.726500	7.566718	10.172402	-2.165845	-2.370969	-6.415858	-0.895178	-2.487380	3.555580	0.030520	-0.800291	-0.303527	0.510192	-1.000000	-1.000000	-1.000000	-1.000000	-1.000000	-1.000000	-1.000000	62.000000	0.000000	-1.000000	-1.000000	511908.000000	1775716048.540759
-68339.655000	-34478.190000	-20351.925000	-9113.895000	-24960.825000	-38663.730000	-5153.265000	-29970.495000	7.896159	7.268503	12.021132	13.528922	0.659779	-0.330807	-7.020453	3.006384	-2.487380	3.555580	0.030520	-0.800291	-0.303527	0.510192	-1.000000	-1.000000	-1.000000	-1.000000	-1.000000	-1.000000	-1.000000	62.000000	0.000000	-1.000000	-1.000000	511909.000000	1775716048.550612
-68347.980000	-34487.415000	-20368.845000	-9134.010000	-24969.870000	-38662.515000	-5143.275000	-29976.885000	8.879159	7.364452	9.583044	9.307535	4.008398	5.104807	-5.170986	4.469090	-2.487380	3.555580	0.030520	-0.800291	-0.303527	0.510192	-1.000000	-1.000000	-1.000000	-1.000000	-1.000000	-1.000000	-1.000000	62.000000	0.000000	-1.000000	-1.000000	511910.000000	1775716048.550638
-68350.905000	-34492.545000	-20371.680000	-9136.890000	-24971.220000	-38664.765000	-5136.480000	-29978.955000	4.384742	2.561389	0.971541	-1.391767	5.067870	9.948483	-0.782570	2.419976	-4.410140	3.784480	-0.259420	-0.800779	-0.303039	0.509703	-1.000000	-1.000000	-1.000000	-1.000000	-1.000000	-1.000000	-1.000000	62.000000	0.000000	-1.000000	-1.000000	511911.000000	1775716048.550671
-68350.455000	-34494.345000	-20371.320000	-9136.530000	-24970.770000	-38671.065000	-5131.170000	-29977.425000	-2.221723	-3.891729	-8.473055	-12.260619	3.009201	9.068357	4.764219	-1.058620	-4.410140	3.784480	-0.259420	-0.800779	-0.303039	0.509703	-1.000000	-1.000000	-1.000000	-1.000000	-1.000000	-1.000000	-1.000000	62.000000	0.000000	-1.000000	-1.000000	511912.000000	1775716048.550683
-68348.250000	-34489.665000	-20361.825000	-9126.225000	-24961.500000	-38666.205000	-5134.455000	-29976.750000	-6.503368	-7.750253	-12.732698	-16.462630	-0.228894	1.798598	8.612455	-3.089059	-4.410140	3.784480	-0.259420	-0.800779	-0.303039	0.509703	-1.000000	-1.000000	-1.000000	-1.000000	-1.000000	-1.000000	-1.000000	62.000000	0.000000	-1.000000	-1.000000	511913.000000	1775716048.553252
-68348.655000	-34490.205000	-20366.640000	-9130.905000	-24959.070000	-38663.235000	-5136.615000	-29977.425000	-6.322269	-6.817577	-9.633300	-11.826446	-2.035413	-7.280340	8.367246	-2.483352	-4.410140	3.784480	-0.259420	-0.800779	-0.303039	0.509703	-1.000000	-1.000000	-1.000000	-1.000000	-1.000000	-1.000000	-1.000000	62.000000	0.000000	-1.000000	-1.000000	511914.000000	1775716048.553270
-68343.255000	-34487.775000	-20370.555000	-9137.970000	-24973.965000	-38679.525000	-5133.285000	-29971.170000	-2.664175	-2.190648	-2.199894	-2.248791	-1.929790	-13.006670	4.126906	-0.086022	-4.410140	3.784480	-0.259420	-0.800779	-0.303039	0.509703	-1.000000	-1.000000	-1.000000	-1.000000	-1.000000	-1.000000	-1.000000	62.000000	0.000000	-1.000000	-1.000000	511915.000000	1775716048.559786
-68344.605000	-34490.250000	-20371.680000	-9139.545000	-24984.990000	-38690.505000	-5137.425000	-29972.700000	1.870850	3.002324	4.442770	6.009007	-1.849487	-13.865696	-1.540078	2.493419	-4.410140	3.784480	-0.259420	-0.800779	-0.303039	0.509703	-1.000000	-1.000000	-1.000000	-1.000000	-1.000000	-1.000000	-1.000000	62.000000	0.000000	-1.000000	-1.000000	511916.000000	1775716048.559812
-68341.410000	-34488.000000	-20367.270000	-9133.785000	-24974.550000	-38683.305000	-5136.435000	-29969.460000	4.862355	5.985749	7.348795	9.472233	-2.899034	-10.899149	-5.776780	3.864039	-4.410140	3.784480	-0.259420	-0.800779	-0.303039	0.509703	-1.000000	-1.000000	-1.000000	-1.000000	-1.000000	-1.000000	-1.000000	62.000000	0.000000	-1.000000	-1.000000	511917.000000	1775716048.563900
-68336.010000	-34482.240000	-20361.825000	-9129.105000	-24970.365000	-38682.765000	-5133.420000	-29965.185000	5.292298	5.971577	6.906189	8.818467	-3.296163	-4.939212	-7.048426	3.491383	-4.410140	3.784480	-0.259420	-0.800779	-0.303039	0.509703	-1.000000	-1.000000	-1.000000	-1.000000	-1.000000	-1.000000	-1.000000	62.000000	0.000000	-1.000000	-1.000000	511918.000000	1775716048.563924
-68336.055000	-34482.015000	-20361.825000	-9129.330000	-24970.095000	-38684.070000	-5135.220000	-29967.975000	3.703920	3.989113	4.880491	6.275817	-1.229734	2.702121	-5.356025	1.824477	-4.410140	3.784480	-0.259420	-0.800779	-0.303039	0.509703	-1.000000	-1.000000	-1.000000	-1.000000	-1.000000	-1.000000	-1.000000	62.000000	0.000000	-1.000000	-1.000000	511919.000000	1775716048.575104
-68337.720000	-34482.240000	-20361.690000	-9129.420000	-24969.465000	-38684.565000	-5139.180000	-29972.115000	1.110467	1.343021	2.403760	3.198875	2.290344	9.225578	-2.136297	-0.504832	-4.410140	3.784480	-0.259420	-0.800779	-0.303039	0.509703	-1.000000	-1.000000	-1.000000	-1.000000	-1.000000	-1.000000	-1.000000	62.000000	0.000000	-1.000000	-1.000000	511920.000000	1775716048.575160
-68337.045000	-34480.170000	-20358.990000	-9127.080000	-24966.720000	-38682.945000	-5147.010000	-29975.850000	-1.668254	-1.183035	-0.124939	0.089284	4.833258	12.099295	0.554742	-2.986666	-3.494540	3.586100	0.244160	-0.803160	-0.305968	0.507506	-1.000000	-1.000000	-1.000000	-1.000000	-1.000000	-1.000000	-1.000000	62.000000	0.000000	-1.000000	-1.000000	511921.000000	1775716048.575229
-68321.340000	-34467.165000	-20347.650000	-9116.910000	-24954.255000	-38668.995000	-5145.660000	-29966.355000	-3.499332	-2.779916	-2.061975	-2.336478	5.249250	11.056094	1.571962	-4.622223	-3.494540	3.586100	0.244160	-0.803160	-0.305968	0.507506	-1.000000	-1.000000	-1.000000	-1.000000	-1.000000	-1.000000	-1.000000	62.000000	0.000000	-1.000000	-1.000000	511922.000000	1775716048.575247
-68318.460000	-34465.950000	-20346.885000	-9119.790000	-24952.860000	-38670.255000	-5133.195000	-29956.320000	-3.169766	-2.682886	-2.615267	-3.303233	4.118422	7.738699	1.675371	-3.985555	-3.494540	3.586100	0.244160	-0.803160	-0.305968	0.507506	-1.000000	-1.000000	-1.000000	-1.000000	-1.000000	-1.000000	-1.000000	62.000000	0.000000	-1.000000	-1.000000	511923.000000	1775716048.575258
-68325.345000	-34473.195000	-20353.545000	-9128.745000	-24960.375000	-38681.820000	-5132.340000	-29958.480000	-1.181102	-1.492713	-2.152894	-3.246808	2.022212	3.364094	2.445135	-0.889691	-3.494540	3.586100	0.244160	-0.803160	-0.305968	0.507506	-1.000000	-1.000000	-1.000000	-1.000000	-1.000000	-1.000000	-1.000000	62.000000	0.000000	-1.000000	-1.000000	511924.000000	1775716048.575269
-68332.680000	-34480.170000	-20360.430000	-9131.940000	-24967.440000	-38676.465000	-5126.805000	-29963.205000	0.068008	-1.101746	-2.185736	-3.484076	-1.236033	-1.774403	3.986052	2.468637	-3.494540	3.586100	0.244160	-0.803160	-0.305968	0.507506	-1.000000	-1.000000	-1.000000	-1.000000	-1.000000	-1.000000	-1.000000	62.000000	0.000000	-1.000000	-1.000000	511925.000000	1775716048.590406
-68335.740000	-34482.285000	-20359.710000	-9121.590000	-24966.945000	-38675.880000	-5130.855000	-29968.470000	-0.944357	-2.379845	-3.327248	-4.002784	-5.114727	-6.347108	4.740681	3.369863	-3.494540	3.586100	0.244160	-0.803160	-0.305968	0.507506	-1.000000	-1.000000	-1.000000	-1.000000	-1.000000	-1.000000	-1.000000	62.000000	0.000000	-1.000000	-1.000000	511926.000000	1775716048.590433
-68336.775000	-34484.580000	-20362.095000	-9122.940000	-24968.655000	-38681.865000	-5141.430000	-29972.970000	-3.095722	-4.030786	-4.343889	-3.275334	-7.630257	-8.406967	3.165761	1.251955	-3.494540	3.586100	0.244160	-0.803160	-0.305968	0.507506	-1.000000	-1.000000	-1.000000	-1.000000	-1.000000	-1.000000	-1.000000	62.000000	0.000000	-1.000000	-1.000000	511927.000000	1775716048.590477
-68327.955000	-34476.390000	-20355.615000	-9120.510000	-24963.930000	-38681.730000	-5147.280000	-29967.930000	-3.901645	-3.994239	-3.616110	-0.763220	-7.004395	-7.558774	-0.880047	-1.931875	-3.494540	3.586100	0.244160	-0.803160	-0.305968	0.507506	-1.000000	-1.000000	-1.000000	-1.000000	-1.000000	-1.000000	-1.000000	62.000000	0.000000	-1.000000	-1.000000	511928.000000	1775716048.590489
-68323.320000	-34472.655000	-20352.105000	-9118.530000	-24959.430000	-38678.580000	-5152.275000	-29963.880000	-1.813379	-1.294613	-0.716409	2.211716	-3.206982	-4.709687	-5.551487	-3.442671	-3.494540	3.586100	0.244160	-0.803160	-0.305968	0.507506	-1.000000	-1.000000	-1.000000	-1.000000	-1.000000	-1.000000	-1.000000	62.000000	0.000000	-1.000000	-1.000000	511929.000000	1775716048.590976
-68323.905000	-34474.680000	-20355.615000	-9125.010000	-24961.455000	-38681.370000	-5148.135000	-29961.630000	2.291075	2.928265	3.091357	3.929584	1.948171	-0.976635	-7.983964	-2.047134	-3.494540	3.586100	0.244160	-0.803160	-0.305968	0.507506	-1.000000	-1.000000	-1.000000	-1.000000	-1.000000	-1.000000	-1.000000	62.000000	0.000000	-1.000000	-1.000000	511930.000000	1775716048.590994
-68327.280000	-34479.630000	-20358.495000	-9130.230000	-24966.945000	-38687.895000	-5140.620000	-29962.980000	5.614275	5.960088	5.505511	3.374810	5.683180	2.220293	-6.273300	1.017533	-2.227960	3.815000	-0.991900	-0.804014	-0.306457	0.505309	-1.000000	-1.000000	-1.000000	-1.000000	-1.000000	-1.000000	-1.000000	62.000000	0.000000	-1.000000	-1.000000	511931.000000	1775716048.591659
-68334.570000	-34486.515000	-20360.250000	-9131.670000	-24969.600000	-38681.595000	-5133.285000	-29968.380000	5.757465	5.689771	5.064532	0.887209	6.048095	3.713925	-0.858675	3.285911	-2.227960	3.815000	-0.991900	-0.804014	-0.306457	0.505309	-1.000000	-1.000000	-1.000000	-1.000000	-1.000000	-1.000000	-1.000000	62.000000	0.000000	-1.000000	-1.000000	511932.000000	1775716048.591674
-68331.240000	-34482.555000	-20357.640000	-9126.630000	-24964.425000	-38675.160000	-5128.245000	-29967.300000	2.709037	2.466170	2.435100	-1.699450	3.523672	3.816326	5.522302	3.197492	-2.227960	3.815000	-0.991900	-0.804014	-0.306457	0.505309	-1.000000	-1.000000	-1.000000	-1.000000	-1.000000	-1.000000	-1.000000	62.000000	0.000000	-1.000000	-1.000000	511933.000000	1775716048.597045
-68327.685000	-34474.590000	-20348.865000	-9114.570000	-24958.890000	-38685.555000	-5137.515000	-29967.390000	-1.138042	-1.064825	-0.243389	-2.230474	0.557584	3.421749	9.256165	1.252724	-2.227960	3.815000	-0.991900	-0.804014	-0.306457	0.505309	-1.000000	-1.000000	-1.000000	-1.000000	-1.000000	-1.000000	-1.000000	62.000000	0.000000	-1.000000	-1.000000	511934.000000	1775716048.597071
-68324.535000	-34470.540000	-20347.380000	-9114.390000	-24958.620000	-38688.705000	-5147.190000	-29966.580000	-3.097582	-2.271474	-1.199267	-0.093765	-0.810675	2.302808	7.847950	-0.824860	-2.227960	3.815000	-0.991900	-0.804014	-0.306457	0.505309	-1.000000	-1.000000	-1.000000	-1.000000	-1.000000	-1.000000	-1.000000	62.000000	0.000000	-1.000000	-1.000000	511935.000000	1775716048.612283
-68331.105000	-34480.080000	-20356.290000	-9123.615000	-24956.955000	-38675.025000	-5146.470000	-29970.630000	-2.572353	-1.114029	-0.694423	2.719186	-0.583469	0.381277	1.897530	-1.841653	-2.227960	3.815000	-0.991900	-0.804014	-0.306457	0.505309	-1.000000	-1.000000	-1.000000	-1.000000	-1.000000	-1.000000	-1.000000	62.000000	0.000000	-1.000000	-1.000000	511936.000000	1775716048.612310
-68330.970000	-34484.265000	-20361.690000	-9127.215000	-24951.285000	-38668.365000	-5143.365000	-29968.200000	-1.073113	0.080505	-0.587513	3.244857	0.078039	-0.804256	-4.707089	-1.743521	-2.227960	3.815000	-0.991900	-0.804014	-0.306457	0.505309	-1.000000	-1.000000	-1.000000	-1.000000	-1.000000	-1.000000	-1.000000	62.000000	0.000000	-1.000000	-1.000000	511937.000000	1775716048.612336
-68334.255000	-34487.865000	-20363.895000	-9127.890000	-24948.585000	-38672.730000	-5141.790000	-29967.570000	-0.150162	-0.421088	-1.851044	0.761981	0.424450	-0.281008	-7.795872	-0.931680	-2.227960	3.815000	-0.991900	-0.804014	-0.306457	0.505309	-1.000000	-1.000000	-1.000000	-1.000000	-1.000000	-1.000000	-1.000000	62.000000	0.000000	-1.000000	-1.000000	511938.000000	1775716048.612346
-68332.140000	-34478.820000	-20352.060000	-9117.945000	-24943.500000	-38666.295000	-5146.920000	-29965.455000	-0.043561	-1.826792	-3.170383	-2.414139	0.347085	0.717731	-6.298236	0.223849	-2.227960	3.815000	-0.991900	-0.804014	-0.306457	0.505309	-1.000000	-1.000000	-1.000000	-1.000000	-1.000000	-1.000000	-1.000000	62.000000	0.000000	-1.000000	-1.000000	511939.000000	1775716048.612358
-68315.805000	-34463.520000	-20346.570000	-9120.330000	-24956.145000	-38665.665000	-5147.595000	-29957.670000	0.186340	-1.822879	-2.415759	-3.497597	-0.307473	0.753757	-2.361210	1.408086	-2.227960	3.815000	-0.991900	-0.804014	-0.306457	0.505309	-1.000000	-1.000000	-1.000000	-1.000000	-1.000000	-1.000000	-1.000000	62.000000	0.000000	-1.000000	-1.000000	511940.000000	1775716048.612368
-68309.235000	-34459.965000	-20342.340000	-9117.495000	-24947.055000	-38666.700000	-5147.100000	-29954.520000	1.637899	0.755665	0.706138	-2.003308	-1.716011	-0.305675	1.281418	2.397361	-2.365300	3.128300	-0.518840	-0.805174	-0.307128	0.503966	-1.000000	-1.000000	-1.000000	-1.000000	-1.000000	-1.000000	-1.000000	62.000000	0.000000	-1.000000	-1.000000	511941.000000	1775716048.612380
-68309.145000	-34460.145000	-20338.920000	-9117.315000	-24969.015000	-38665.935000	-5139.990000	-29952.450000	3.799605	4.149924	4.109141	0.413216	-3.452900	-1.867137	3.428606	2.805954	-2.365300	3.128300	-0.518840	-0.805174	-0.307128	0.503966	-1.000000	-1.000000	-1.000000	-1.000000	-1.000000	-1.000000	-1.000000	62.000000	0.000000	-1.000000	-1.000000	511942.000000	1775716048.612390
-68326.515000	-34480.080000	-20355.390000	-9119.115000	-24968.925000	-38663.325000	-5112.045000	-29960.685000	4.191019	4.914833	5.102598	1.969204	-4.873886	-3.068281	4.743750	1.948626	-2.365300	3.128300	-0.518840	-0.805174	-0.307128	0.503966	-1.000000	-1.000000	-1.000000	-1.000000	-1.000000	-1.000000	-1.000000	62.000000	0.000000	-1.000000	-1.000000	511943.000000	1775716048.621374
-68339.205000	-34494.345000	-20369.520000	-9131.175000	-24973.335000	-38672.640000	-5113.215000	-29971.395000	0.746041	1.016996	2.130362	1.694840	-5.211265	-3.317317	6.219513	-0.655255	-2.365300	3.128300	-0.518840	-0.805174	-0.307128	0.503966	-1.000000	-1.000000	-1.000000	-1.000000	-1.000000	-1.000000	-1.000000	62.000000	0.000000	-1.000000	-1.000000	511944.000000	1775716048.621400
-68337.495000	-34491.915000	-20369.115000	-9135.045000	-24972.480000	-38681.370000	-5134.365000	-29974.365000	-5.272653	-5.667667	-3.608415	-0.401152	-3.490979	-3.001704	6.384102	-4.334761	-2.365300	3.128300	-0.518840	-0.805174	-0.307128	0.503966	-1.000000	-1.000000	-1.000000	-1.000000	-1.000000	-1.000000	-1.000000	62.000000	0.000000	-1.000000	-1.000000	511945.000000	1775716048.621423
-68326.965000	-34485.480000	-20360.970000	-9128.835000	-24965.505000	-38676.015000	-5133.375000	-29967.795000	-9.318637	-10.000265	-7.940696	-2.820483	0.387868	-2.596768	2.452735	-6.820405	-2.365300	3.128300	-0.518840	-0.805174	-0.307128	0.503966	-1.000000	-1.000000	-1.000000	-1.000000	-1.000000	-1.000000	-1.000000	62.000000	0.000000	-1.000000	-1.000000	511946.000000	1775716048.621435
-68331.870000	-34486.920000	-20353.635000	-9119.565000	-24967.890000	-38677.230000	-5134.230000	-29971.215000	-7.773191	-8.193247	-7.032907	-3.135829	5.095871	-1.513838	-4.658417	-5.890053	-2.365300	3.128300	-0.518840	-0.805174	-0.307128	0.503966	-1.000000	-1.000000	-1.000000	-1.000000	-1.000000	-1.000000	-1.000000	62.000000	0.000000	-1.000000	-1.000000	511947.000000	1775716048.643313
-68332.005000	-34486.065000	-20357.775000	-9121.005000	-24964.965000	-38672.055000	-5132.430000	-29970.045000	-1.729003	-1.426802	-1.217268	-0.433310	8.411244	0.836512	-10.235822	-1.794204	-2.365300	3.128300	-0.518840	-0.805174	-0.307128	0.503966	-1.000000	-1.000000	-1.000000	-1.000000	-1.000000	-1.000000	-1.000000	62.000000	0.000000	-1.000000	-1.000000	511948.000000	1775716048.643339
-68326.695000	-34484.130000	-20364.210000	-9130.815000	-24966.315000	-38669.580000	-5128.380000	-29965.995000	4.673791	5.846164	5.158178	3.137617	8.614298	3.812986	-10.638662	3.070090	-2.365300	3.128300	-0.518840	-0.805174	-0.307128	0.503966	-1.000000	-1.000000	-1.000000	-1.000000	-1.000000	-1.000000	-1.000000	62.000000	0.000000	-1.000000	-1.000000	511949.000000	1775716048.643369
-68327.505000	-34487.010000	-20369.340000	-9138.870000	-24971.040000	-38676.015000	-5130.090000	-29965.500000	8.280075	9.795025	7.700420	4.275815	5.608786	5.844905	-6.029111	6.412889	-2.365300	3.128300	-0.518840	-0.805174	-0.307128	0.503966	-1.000000	-1.000000	-1.000000	-1.000000	-1.000000	-1.000000	-1.000000	62.000000	0.000000	-1.000000	-1.000000	511950.000000	1775716048.643381
-68327.550000	-34487.190000	-20366.505000	-9135.720000	-24969.330000	-38679.615000	-5129.505000	-29964.375000	8.170795	9.118102	5.584245	2.057400	0.775299	5.410376	0.490302	7.107745	-1.907500	2.838360	-0.839300	-0.804258	-0.310119	0.503356	-1.000000	-1.000000	-1.000000	-1.000000	-1.000000	-1.000000	-1.000000	62.000000	0.000000	-1.000000	-1.000000	511951.000000	1775716048.643396
-68326.695000	-34485.930000	-20363.940000	-9132.840000	-24967.755000	-38680.920000	-5129.910000	-29964.150000	5.082354	5.015334	1.461992	-1.165539	-3.643539	2.432751	5.447478	5.219948	-1.907500	2.838360	-0.839300	-0.804258	-0.310119	0.503356	-1.000000	-1.000000	-1.000000	-1.000000	-1.000000	-1.000000	-1.000000	62.000000	0.000000	-1.000000	-1.000000	511952.000000	1775716048.643407
-68327.145000	-34486.650000	-20362.680000	-9129.420000	-24965.505000	-38679.615000	-5135.175000	-29967.030000	0.794430	0.041084	-1.526757	-2.498336	-5.711948	-1.289506	7.019698	1.763968	-1.907500	2.838360	-0.839300	-0.804258	-0.310119	0.503356	-1.000000	-1.000000	-1.000000	-1.000000	-1.000000	-1.000000	-1.000000	62.000000	0.000000	-1.000000	-1.000000	511953.000000	1775716048.643421
-68322.555000	-34481.565000	-20358.180000	-9126.765000	-24963.705000	-38676.330000	-5143.140000	-29966.940000	-2.756680	-3.526914	-2.149785	-1.224083	-5.009264	-3.518648	5.218736	-1.867792	-1.907500	2.838360	-0.839300	-0.804258	-0.310119	0.503356	-1.000000	-1.000000	-1.000000	-1.000000	-1.000000	-1.000000	-1.000000	62.000000	0.000000	-1.000000	-1.000000	511954.000000	1775716048.643432
-68316.435000	-34475.850000	-20353.140000	-9122.490000	-24960.330000	-38671.065000	-5137.740000	-29959.965000	-4.235837	-4.552220	-0.998646	1.261777	-2.565324	-3.197025	1.556763	-4.246250	-1.907500	2.838360	-0.839300	-0.804258	-0.310119	0.503356	-1.000000	-1.000000	-1.000000	-1.000000	-1.000000	-1.000000	-1.000000	62.000000	0.000000	-1.000000	-1.000000	511955.000000	1775716048.643446
-68308.425000	-34469.460000	-20347.830000	-9117.720000	-24956.640000	-38671.740000	-5136.390000	-29953.575000	-3.331604	-3.174339	0.684617	3.151536	0.143166	-0.987341	-1.461830	-4.275575	-1.907500	2.838360	-0.839300	-0.804258	-0.310119	0.503356	-1.000000	-1.000000	-1.000000	-1.000000	-1.000000	-1.000000	-1.000000	62.000000	0.000000	-1.000000	-1.000000	511956.000000	1775716048.643456
-68312.025000	-34474.230000	-20353.725000	-9124.335000	-24964.515000	-38685.690000	-5141.925000	-29960.415000	-1.071513	-0.801822	1.607587	3.281200	1.818948	1.043140	-2.214801	-2.265510	-1.907500	2.838360	-0.839300	-0.804258	-0.310119	0.503356	-1.000000	-1.000000	-1.000000	-1.000000	-1.000000	-1.000000	-1.000000	62.000000	0.000000	-1.000000	-1.000000	511957.000000	1775716048.643470
-68318.505000	-34481.430000	-20360.385000	-9130.230000	-24969.870000	-38700.945000	-5142.600000	-29964.600000	0.490158	0.471728	0.703267	1.214877	1.533352	0.675711	-1.281030	-0.208697	-1.907500	2.838360	-0.839300	-0.804258	-0.310119	0.503356	-1.000000	-1.000000	-1.000000	-1.000000	-1.000000	-1.000000	-1.000000	62.000000	0.000000	-1.000000	-1.000000	511958.000000	1775716048.643480
-68325.570000	-34489.170000	-20366.595000	-9137.025000	-24968.475000	-38688.165000	-5131.620000	-29966.175000	-0.187727	-0.596656	-2.054289	-2.438134	-0.463190	-1.983325	0.106005	0.183212	-1.907500	2.838360	-0.839300	-0.804258	-0.310119	0.503356	-1.000000	-1.000000	-1.000000	-1.000000	-1.000000	-1.000000	-1.000000	62.000000	0.000000	-1.000000	-1.000000	511959.000000	1775716048.652284
-68325.075000	-34486.245000	-20363.580000	-9137.565000	-24961.725000	-38670.660000	-5121.180000	-29963.970000	-2.544264	-3.063510	-5.013233	-5.812921	-2.298325	-3.507283	1.749865	-0.728927	-1.907500	2.838360	-0.839300	-0.804258	-0.310119	0.503356	-1.000000	-1.000000	-1.000000	-1.000000	-1.000000	-1.000000	-1.000000	62.000000	0.000000	-1.000000	-1.000000	511960.000000	1775716048.652312
-68326.875000	-34484.715000	-20361.150000	-9134.820000	-24961.950000	-38669.535000	-5127.300000	-29967.435000	-4.333978	-4.424779	-5.798900	-6.730179	-2.115025	-0.926623	3.409270	-1.406000	-1.602300	2.899400	-1.007160	-0.802732	-0.311462	0.502684	-1.000000	-1.000000	-1.000000	-1.000000	-1.000000	-1.000000	-1.000000	62.000000	0.000000	-1.000000	-1.000000	511961.000000	1775716048.663102
-68319.270000	-34475.805000	-20348.820000	-9115.245000	-24954.210000	-38664.855000	-5133.015000	-29964.015000	-3.651228	-2.868080	-3.201024	-3.953477	0.073003	4.175163	3.530887	-0.969156	-1.602300	2.899400	-1.007160	-0.802732	-0.311462	0.502684	-1.000000	-1.000000	-1.000000	-1.000000	-1.000000	-1.000000	-1.000000	62.000000	0.000000	-1.000000	-1.000000	511962.000000	1775716048.663129
-68314.590000	-34473.600000	-20346.300000	-9108.495000	-24952.815000	-38665.890000	-5132.745000	-29960.820000	-0.316763	1.167610	1.799446	1.925258	2.739369	7.484608	0.988413	0.457938	-1.602300	2.899400	-1.007160	-0.802732	-0.311462	0.502684	-1.000000	-1.000000	-1.000000	-1.000000	-1.000000	-1.000000	-1.000000	62.000000	0.000000	-1.000000	-1.000000	511963.000000	1775716048.663158
-68313.870000	-34473.105000	-20347.650000	-9114.075000	-24956.730000	-38673.900000	-5134.905000	-29961.315000	4.010506	5.294295	6.366996	7.811738	4.113445	6.262899	-2.932918	2.189583	-1.602300	2.899400	-1.007160	-0.802732	-0.311462	0.502684	-1.000000	-1.000000	-1.000000	-1.000000	-1.000000	-1.000000	-1.000000	62.000000	0.000000	-1.000000	-1.000000	511964.000000	1775716048.663169
-68305.860000	-34464.555000	-20339.370000	-9108.180000	-24949.620000	-38665.980000	-5128.920000	-29955.555000	6.921830	7.074572	7.764904	9.714928	3.256168	1.167322	-5.600221	3.317070	-1.602300	2.899400	-1.007160	-0.802732	-0.311462	0.502684	-1.000000	-1.000000	-1.000000	-1.000000	-1.000000	-1.000000	-1.000000	62.000000	0.000000	-1.000000	-1.000000	511965.000000	1775716048.663184
-68308.695000	-34471.845000	-20349.315000	-9118.755000	-24956.910000	-38662.695000	-5126.265000	-29960.145000	6.966283	5.743996	5.406312	6.246461	0.754619	-4.369119	-5.272735	3.223225	-1.602300	2.899400	-1.007160	-0.802732	-0.311462	0.502684	-1.000000	-1.000000	-1.000000	-1.000000	-1.000000	-1.000000	-1.000000	62.000000	0.000000	-1.000000	-1.000000	511966.000000	1775716048.663194
-68318.190000	-34482.330000	-20359.440000	-9126.990000	-24961.905000	-38660.490000	-5121.585000	-29964.105000	4.023130	1.825426	0.425983	-0.693585	-2.160235	-6.959486	-2.222712	1.717223	-1.602300	2.899400	-1.007160	-0.802732	-0.311462	0.502684	-1.000000	-1.000000	-1.000000	-1.000000	-1.000000	-1.000000	-1.000000	62.000000	0.000000	-1.000000	-1.000000	511967.000000	1775716048.663210
-68318.685000	-34482.645000	-20359.710000	-9128.070000	-24963.570000	-38672.505000	-5134.365000	-29965.410000	-0.958537	-3.365060	-5.201374	-7.646798	-4.503047	-6.147160	1.389152	-0.833361	-1.602300	2.899400	-1.007160	-0.802732	-0.311462	0.502684	-1.000000	-1.000000	-1.000000	-1.000000	-1.000000	-1.000000	-1.000000	62.000000	0.000000	-1.000000	-1.000000	511968.000000	1775716048.663220
-68313.690000	-34480.170000	-20357.145000	-9128.565000	-24963.795000	-38677.365000	-5133.915000	-29962.890000	-5.603886	-7.310626	-8.656604	-11.099129	-5.286840	-4.040128	3.010550	-3.163787	-1.602300	2.899400	-1.007160	-0.802732	-0.311462	0.502684	-1.000000	-1.000000	-1.000000	-1.000000	-1.000000	-1.000000	-1.000000	62.000000	0.000000	-1.000000	-1.000000	511969.000000	1775716048.682205
-68310.945000	-34476.165000	-20350.215000	-9123.120000	-24961.140000	-38677.500000	-5135.085000	-29962.395000	-7.183786	-7.561793	-7.713402	-9.261888	-3.864737	-2.386359	2.013486	-3.833802	-1.602300	2.899400	-1.007160	-0.802732	-0.311462	0.502684	-1.000000	-1.000000	-1.000000	-1.000000	-1.000000	-1.000000	-1.000000	62.000000	0.000000	-1.000000	-1.000000	511970.000000	1775716048.682231
-68309.280000	-34472.565000	-20342.925000	-9115.065000	-24954.390000	-38668.275000	-5135.445000	-29963.115000	-4.979559	-3.898457	-2.629202	-3.085338	-0.561584	-0.841080	0.041981	-2.546877	-2.624720	2.670500	-0.473060	-0.804136	-0.310180	0.503173	-1.000000	-1.000000	-1.000000	-1.000000	-1.000000	-1.000000	-1.000000	62.000000	0.000000	-1.000000	-1.000000	511971.000000	1775716048.682256
-68310.720000	-34473.780000	-20347.470000	-9115.470000	-24951.015000	-38656.980000	-5134.680000	-29964.285000	-0.835803	1.417641	3.740213	4.361129	3.372609	1.828059	-1.061276	-0.351436	-2.624720	2.670500	-0.473060	-0.804136	-0.310180	0.503173	-1.000000	-1.000000	-1.000000	-1.000000	-1.000000	-1.000000	-1.000000	62.000000	0.000000	-1.000000	-1.000000	511972.000000	1775716048.682269
-68305.635000	-34471.350000	-20348.505000	-9113.175000	-24949.215000	-38652.615000	-5137.290000	-29960.775000	2.678455	5.370164	7.636846	9.403615	6.182016	5.530179	-0.753037	1.470097	-2.624720	2.670500	-0.473060	-0.804136	-0.310180	0.503173	-1.000000	-1.000000	-1.000000	-1.000000	-1.000000	-1.000000	-1.000000	62.000000	0.000000	-1.000000	-1.000000	511973.000000	1775716048.682283
-68314.185000	-34480.215000	-20356.695000	-9124.020000	-24960.780000	-38661.930000	-5132.025000	-29966.490000	4.035166	6.097072	6.964339	9.661019	6.231766	8.035501	0.414990	2.263970	-2.624720	2.670500	-0.473060	-0.804136	-0.310180	0.503173	-1.000000	-1.000000	-1.000000	-1.000000	-1.000000	-1.000000	-1.000000	62.000000	0.000000	-1.000000	-1.000000	511974.000000	1775716048.682294
-68322.510000	-34484.220000	-20356.290000	-9123.120000	-24960.645000	-38663.865000	-5124.330000	-29970.585000	2.850092	3.554884	2.628089	5.310960	3.037300	6.767111	1.816815	1.812778	-2.624720	2.670500	-0.473060	-0.804136	-0.310180	0.503173	-1.000000	-1.000000	-1.000000	-1.000000	-1.000000	-1.000000	-1.000000	62.000000	0.000000	-1.000000	-1.000000	511975.000000	1775716048.682326
-68310.405000	-34473.960000	-20347.740000	-9115.335000	-24951.240000	-38657.520000	-5125.230000	-29963.115000	0.081272	-0.409968	-2.195789	-0.769516	-1.568393	1.898552	3.019889	0.499153	-2.624720	2.670500	-0.473060	-0.804136	-0.310180	0.503173	-1.000000	-1.000000	-1.000000	-1.000000	-1.000000	-1.000000	-1.000000	62.000000	0.000000	-1.000000	-1.000000	511976.000000	1775716048.682338
-68312.655000	-34474.230000	-20347.470000	-9116.190000	-24952.320000	-38659.860000	-5136.255000	-29966.175000	-1.917016	-2.935449	-4.339115	-4.817505	-4.430276	-3.416901	3.049827	-0.515701	-2.624720	2.670500	-0.473060	-0.804136	-0.310180	0.503173	-1.000000	-1.000000	-1.000000	-1.000000	-1.000000	-1.000000	-1.000000	62.000000	0.000000	-1.000000	-1.000000	511977.000000	1775716048.682354
-68312.880000	-34473.690000	-20345.715000	-9114.345000	-24951.915000	-38662.020000	-5139.495000	-29967.480000	-1.691706	-2.684015	-3.143307	-5.228538	-4.184207	-6.322378	0.916216	-0.579437	-2.624720	2.670500	-0.473060	-0.804136	-0.310180	0.503173	-1.000000	-1.000000	-1.000000	-1.000000	-1.000000	-1.000000	-1.000000	62.000000	0.000000	-1.000000	-1.000000	511978.000000	1775716048.682364
-68306.760000	-34471.215000	-20345.130000	-9114.165000	-24951.330000	-38662.290000	-5137.380000	-29961.675000	-0.006674	-0.778444	-0.450890	-3.162444	-2.070196	-6.281212	-2.559395	-0.076667	-2.624720	2.670500	-0.473060	-0.804136	-0.310180	0.503173	-1.000000	-1.000000	-1.000000	-1.000000	-1.000000	-1.000000	-1.000000	62.000000	0.000000	-1.000000	-1.000000	511979.000000	1775716048.695848
-68305.320000	-34474.635000	-20350.440000	-9120.330000	-24957.270000	-38667.780000	-5132.250000	-29961.855000	1.767634	0.938812	1.479605	-0.759315	-0.046030	-4.294039	-4.816538	0.577448	-2.624720	2.670500	-0.473060	-0.804136	-0.310180	0.503173	-1.000000	-1.000000	-1.000000	-1.000000	-1.000000	-1.000000	-1.000000	62.000000	0.000000	-1.000000	-1.000000	511980.000000	1775716048.695875
-68307.120000	-34482.780000	-20361.285000	-9132.930000	-24966.180000	-38671.965000	-5125.050000	-29963.790000	2.643363	1.203836	1.309793	0.197753	0.536247	-1.792673	-3.946708	1.034376	-2.746800	2.334780	1.144500	-0.805784	-0.309264	0.502318	-1.000000	-1.000000	-1.000000	-1.000000	-1.000000	-1.000000	-1.000000	62.000000	0.000000	-1.000000	-1.000000	511981.000000	1775716048.695903
-68309.100000	-34486.065000	-20367.315000	-9144.765000	-24970.770000	-38675.790000	-5125.140000	-29965.365000	2.001881	-0.233388	-0.893854	-0.953350	-0.521122	0.139331	-0.468983	0.781929	-2.746800	2.334780	1.144500	-0.805784	-0.309264	0.502318	-1.000000	-1.000000	-1.000000	-1.000000	-1.000000	-1.000000	-1.000000	62.000000	0.000000	-1.000000	-1.000000	511982.000000	1775716048.695914
-68309.595000	-34481.655000	-20362.950000	-9142.560000	-24960.510000	-38674.305000	-5118.795000	-29963.655000	0.053599	-2.166426	-3.380137	-3.025733	-1.811276	1.326743	3.225664	-0.197363	-2.746800	2.334780	1.144500	-0.805784	-0.309264	0.502318	-1.000000	-1.000000	-1.000000	-1.000000	-1.000000	-1.000000	-1.000000	62.000000	0.000000	-1.000000	-1.000000	511983.000000	1775716048.695926
-68316.705000	-34481.700000	-20358.540000	-9131.445000	-24949.440000	-38673.900000	-5123.745000	-29968.920000	-2.201927	-2.699093	-3.686089	-3.331986	-1.117671	2.252236	4.854157	-1.285040	-2.746800	2.334780	1.144500	-0.805784	-0.309264	0.502318	-1.000000	-1.000000	-1.000000	-1.000000	-1.000000	-1.000000	-1.000000	62.000000	0.000000	-1.000000	-1.000000	511984.000000	1775716048.695935
-68313.015000	-34475.355000	-20345.985000	-9106.335000	-24932.610000	-38669.040000	-5125.185000	-29968.200000	-3.677526	-1.059016	-0.726641	0.285611	2.419643	3.273908	3.556650	-1.932023	-2.746800	2.334780	1.144500	-0.805784	-0.309264	0.502318	-1.000000	-1.000000	-1.000000	-1.000000	-1.000000	-1.000000	-1.000000	62.000000	0.000000	-1.000000	-1.000000	511985.000000	1775716048.698941
-68303.880000	-34470.720000	-20341.845000	-9108.000000	-24943.725000	-38668.995000	-5123.025000	-29961.945000	-3.388852	1.871736	4.154794	6.894232	6.737363	4.165184	0.220242	-1.757235	-2.746800	2.334780	1.144500	-0.805784	-0.309264	0.502318	-1.000000	-1.000000	-1.000000	-1.000000	-1.000000	-1.000000	-1.000000	62.000000	0.000000	-1.000000	-1.000000	511986.000000	1775716048.698967
-68300.820000	-34470.090000	-20336.985000	-9105.750000	-24978.015000	-38677.005000	-5126.985000	-29958.615000	-0.931044	4.396097	8.016225	11.998810	7.359617	4.088465	-3.091297	-0.451694	-2.746800	2.334780	1.144500	-0.805784	-0.309264	0.502318	-1.000000	-1.000000	-1.000000	-1.000000	-1.000000	-1.000000	-1.000000	62.000000	0.000000	-1.000000	-1.000000	511987.000000	1775716048.701663
-68306.670000	-34478.415000	-20343.015000	-9109.215000	-24967.215000	-38679.615000	-5134.815000	-29962.395000	2.363658	4.801487	8.198218	11.181357	1.682039	2.237589	-4.865175	1.455399	-2.746800	2.334780	1.144500	-0.805784	-0.309264	0.502318	-1.000000	-1.000000	-1.000000	-1.000000	-1.000000	-1.000000	-1.000000	62.000000	0.000000	-1.000000	-1.000000	511988.000000	1775716048.701682
-68313.510000	-34484.805000	-20352.960000	-9121.455000	-24969.105000	-38680.335000	-5142.510000	-29968.470000	3.928010	2.273907	3.921640	4.036691	-6.532283	-0.903195	-5.052660	2.436159	-2.746800	2.334780	1.144500	-0.805784	-0.309264	0.502318	-1.000000	-1.000000	-1.000000	-1.000000	-1.000000	-1.000000	-1.000000	62.000000	0.000000	-1.000000	-1.000000	511989.000000	1775716048.705329
-68305.230000	-34477.470000	-20361.420000	-9135.405000	-24965.055000	-38673.495000	-5136.840000	-29964.825000	2.632255	-1.936593	-3.197128	-6.110705	-10.600028	-3.422042	-3.986036	1.552896	-2.746800	2.334780	1.144500	-0.805784	-0.309264	0.502318	-1.000000	-1.000000	-1.000000	-1.000000	-1.000000	-1.000000	-1.000000	62.000000	0.000000	-1.000000	-1.000000	511990.000000	1775716048.705348
-68303.340000	-34474.860000	-20356.200000	-9133.515000	-24954.030000	-38659.590000	-5129.775000	-29962.215000	0.124965	-4.873526	-9.554437	-14.407369	-7.733003	-3.397114	-1.392946	-0.255804	-2.762060	2.090620	0.793520	-0.805479	-0.310546	0.502196	-1.000000	-1.000000	-1.000000	-1.000000	-1.000000	-1.000000	-1.000000	62.000000	0.000000	-1.000000	-1.000000	511991.000000	1775716048.710156
-68303.745000	-34478.415000	-20360.070000	-9138.465000	-24957.540000	-38664.720000	-5129.550000	-29961.945000	-1.368320	-4.641018	-11.479702	-16.618338	-0.312786	-0.723914	2.587942	-1.319389	-2.762060	2.090620	0.793520	-0.805479	-0.310546	0.502196	-1.000000	-1.000000	-1.000000	-1.000000	-1.000000	-1.000000	-1.000000	62.000000	0.000000	-1.000000	-1.000000	511992.000000	1775716048.710181
