Channel1	Channel2	Channel3	Channel4	Channel5	Channel6	Channel7	Channel8	FilteredChannel1	FilteredChannel2	FilteredChannel3	FilteredChannel4	FilteredChannel5	FilteredChannel6	FilteredChannel7	FilteredChannel8	GyroX	GyroY	GyroZ	AccX	AccY	AccZ	PPG1	PPG2	rawPPG1	rawPPG2	rawPPG3	Hr	Hrv	Battery	Trigger	PhysicalTrigger	AutoTrigger	NumMeasurements	Timestamp
-1604.745000	-533.520000	5416.470000	29167.155000	22598.505000	14387.085000	-31303.350000	-15902.325000	1.174773	1.357881	1.194794	1.488034	2.096650	0.768456	-2.580497	0.308218	0.549360	2.472120	-3.189340	-0.895444	-0.064148	0.426391	-1.000000	-1.000000	-1.000000	-1.000000	-1.000000	-1.000000	-1.000000	54.000000	0.000000	-1.000000	-1.000000	355176.000000	1775778983.153469
-1606.095000	-535.815000	5412.105000	29152.755000	22588.605000	14386.365000	-31304.745000	-15904.305000	0.405955	0.831677	0.752299	-1.814314	1.864959	1.693922	-1.418028	-0.479003	0.549360	2.472120	-3.189340	-0.895444	-0.064148	0.426391	-1.000000	-1.000000	-1.000000	-1.000000	-1.000000	-1.000000	-1.000000	54.000000	0.000000	-1.000000	-1.000000	355177.000000	1775778983.153496
-1605.510000	-534.645000	5413.995000	29155.410000	22592.520000	14399.910000	-31303.800000	-15904.305000	-0.939076	-0.530603	-0.711689	-5.612653	-0.559297	3.612159	-0.147353	-1.653440	0.549360	2.472120	-3.189340	-0.895444	-0.064148	0.426391	-1.000000	-1.000000	-1.000000	-1.000000	-1.000000	-1.000000	-1.000000	54.000000	0.000000	-1.000000	-1.000000	355178.000000	1775778983.153525
-1608.390000	-538.965000	5409.855000	29157.120000	22604.310000	14488.155000	-31292.910000	-15904.935000	-1.857231	-1.680155	-1.984948	-7.926768	-3.135816	6.722254	0.649344	-2.343117	0.549360	2.472120	-3.189340	-0.895444	-0.064148	0.426391	-1.000000	-1.000000	-1.000000	-1.000000	-1.000000	-1.000000	-1.000000	54.000000	0.000000	-1.000000	-1.000000	355179.000000	1775778983.153538
-1612.305000	-543.105000	5406.435000	29155.005000	22599.630000	14490.495000	-31293.315000	-15907.995000	-1.786404	-1.900110	-2.094988	-6.725562	-3.324618	11.705388	1.250646	-1.930184	0.152600	0.839300	-0.854560	-0.893552	-0.062927	0.426085	-1.000000	-1.000000	-1.000000	-1.000000	-1.000000	-1.000000	-1.000000	54.000000	0.000000	-1.000000	-1.000000	355180.000000	1775778983.157183
-1614.060000	-545.310000	5403.825000	29152.170000	22590.900000	14450.130000	-31296.465000	-15909.345000	-1.012688	-1.330635	-1.172547	-2.477011	-1.360783	14.018672	1.535530	-0.697693	0.152600	0.839300	-0.854560	-0.893552	-0.062927	0.426085	-1.000000	-1.000000	-1.000000	-1.000000	-1.000000	-1.000000	-1.000000	54.000000	0.000000	-1.000000	-1.000000	355181.000000	1775778983.157207
-1614.645000	-548.370000	5400.180000	29149.245000	22588.020000	14446.125000	-31293.180000	-15908.040000	0.007016	-0.360249	0.130603	2.281099	0.302745	5.523639	0.835548	0.695266	0.152600	0.839300	-0.854560	-0.893552	-0.062927	0.426085	-1.000000	-1.000000	-1.000000	-1.000000	-1.000000	-1.000000	-1.000000	54.000000	0.000000	-1.000000	-1.000000	355182.000000	1775778983.162710
-1617.165000	-550.530000	5396.535000	29145.735000	22583.295000	14431.590000	-31297.545000	-15910.065000	1.012140	0.705632	1.222884	5.220377	0.329838	-13.019754	-0.786711	1.806756	0.152600	0.839300	-0.854560	-0.893552	-0.062927	0.426085	-1.000000	-1.000000	-1.000000	-1.000000	-1.000000	-1.000000	-1.000000	54.000000	0.000000	-1.000000	-1.000000	355183.000000	1775778983.162738
-1612.620000	-546.345000	5400.180000	29148.435000	22588.020000	14435.280000	-31296.645000	-15906.555000	1.850857	1.705247	1.882854	5.639963	-0.418578	-30.185993	-2.465141	2.418346	0.152600	0.839300	-0.854560	-0.893552	-0.062927	0.426085	-1.000000	-1.000000	-1.000000	-1.000000	-1.000000	-1.000000	-1.000000	54.000000	0.000000	-1.000000	-1.000000	355184.000000	1775778983.177724
-1615.770000	-549.270000	5398.380000	29147.760000	22589.370000	14445.135000	-31298.220000	-15909.615000	2.424223	2.586032	2.315866	4.380738	-0.357059	-34.654030	-3.328787	2.444349	0.152600	0.839300	-0.854560	-0.893552	-0.062927	0.426085	-1.000000	-1.000000	-1.000000	-1.000000	-1.000000	-1.000000	-1.000000	54.000000	0.000000	-1.000000	-1.000000	355185.000000	1775778983.177749
-1611.585000	-544.770000	5401.350000	29149.020000	22589.820000	14444.370000	-31298.355000	-15904.845000	2.553996	3.106224	2.633344	2.661296	1.051499	-23.605494	-2.943780	1.925417	0.152600	0.839300	-0.854560	-0.893552	-0.062927	0.426085	-1.000000	-1.000000	-1.000000	-1.000000	-1.000000	-1.000000	-1.000000	54.000000	0.000000	-1.000000	-1.000000	355186.000000	1775778983.177777
-1609.425000	-542.340000	5404.230000	29151.450000	22590.135000	14436.225000	-31300.470000	-15903.540000	2.152874	3.008844	2.664566	1.194523	2.820469	-3.824861	-1.542352	1.126161	0.152600	0.839300	-0.854560	-0.893552	-0.062927	0.426085	-1.000000	-1.000000	-1.000000	-1.000000	-1.000000	-1.000000	-1.000000	54.000000	0.000000	-1.000000	-1.000000	355187.000000	1775778983.177788
-1607.715000	-539.325000	5408.280000	29155.545000	22591.125000	14433.480000	-31302.000000	-15903.585000	1.395207	2.332255	2.304427	0.245225	3.606379	13.895550	0.151695	0.357302	0.152600	0.839300	-0.854560	-0.893552	-0.062927	0.426085	-1.000000	-1.000000	-1.000000	-1.000000	-1.000000	-1.000000	-1.000000	54.000000	0.000000	-1.000000	-1.000000	355188.000000	1775778983.177800
-1603.980000	-534.060000	5415.120000	29162.160000	22596.435000	14436.495000	-31301.235000	-15901.020000	0.477973	1.276234	1.639072	-0.120115	2.987563	22.477748	1.470078	-0.334102	0.152600	0.839300	-0.854560	-0.893552	-0.062927	0.426085	-1.000000	-1.000000	-1.000000	-1.000000	-1.000000	-1.000000	-1.000000	54.000000	0.000000	-1.000000	-1.000000	355189.000000	1775778983.177810
-1602.900000	-530.505000	5420.430000	29167.110000	22601.160000	14431.320000	-31305.690000	-15901.695000	-0.443130	0.117814	0.860333	-0.020398	1.608917	21.427719	2.106789	-0.964554	-1.175020	-0.381500	0.518840	-0.898985	-0.063598	0.427062	-1.000000	-1.000000	-1.000000	-1.000000	-1.000000	-1.000000	-1.000000	54.000000	0.000000	-1.000000	-1.000000	355190.000000	1775778983.177821
-1597.860000	-525.915000	5425.830000	29169.495000	22605.165000	14429.880000	-31303.080000	-15895.890000	-1.188691	-0.891348	0.069335	0.123655	0.333188	14.242310	2.048055	-1.372182	-1.175020	-0.381500	0.518840	-0.898985	-0.063598	0.427062	-1.000000	-1.000000	-1.000000	-1.000000	-1.000000	-1.000000	-1.000000	54.000000	0.000000	-1.000000	-1.000000	355191.000000	1775778983.177832
-1601.280000	-531.945000	5420.025000	29159.595000	22599.405000	14429.205000	-31301.100000	-15896.070000	-1.676065	-1.807563	-0.974297	-0.464837	-0.693154	5.240186	1.632783	-1.329296	-1.175020	-0.381500	0.518840	-0.898985	-0.063598	0.427062	-1.000000	-1.000000	-1.000000	-1.000000	-1.000000	-1.000000	-1.000000	54.000000	0.000000	-1.000000	-1.000000	355192.000000	1775778983.180766
-1606.365000	-539.820000	5407.290000	29147.940000	22591.170000	14430.960000	-31299.345000	-15898.680000	-2.154422	-3.069529	-2.866419	-2.525818	-2.092074	-2.027553	1.349061	-0.974617	-1.175020	-0.381500	0.518840	-0.898985	-0.063598	0.427062	-1.000000	-1.000000	-1.000000	-1.000000	-1.000000	-1.000000	-1.000000	54.000000	0.000000	-1.000000	-1.000000	355193.000000	1775778983.180789
-1606.995000	-541.305000	5404.635000	29145.015000	22589.505000	14436.585000	-31297.590000	-15899.130000	-2.861907	-4.729396	-5.645888	-5.612399	-4.100889	-5.623674	1.276258	-0.831889	-1.175020	-0.381500	0.518840	-0.898985	-0.063598	0.427062	-1.000000	-1.000000	-1.000000	-1.000000	-1.000000	-1.000000	-1.000000	54.000000	0.000000	-1.000000	-1.000000	355194.000000	1775778983.184502
-1607.175000	-540.540000	5407.380000	29149.020000	22590.270000	14434.470000	-31300.335000	-15899.670000	-3.314525	-5.663248	-7.664605	-7.491283	-5.580331	-5.591604	1.028386	-1.062950	-1.175020	-0.381500	0.518840	-0.898985	-0.063598	0.427062	-1.000000	-1.000000	-1.000000	-1.000000	-1.000000	-1.000000	-1.000000	54.000000	0.000000	-1.000000	-1.000000	355195.000000	1775778983.184533
-1604.700000	-538.065000	5397.750000	29148.345000	22588.605000	14425.380000	-31306.500000	-15899.445000	-2.651426	-4.458475	-6.868752	-5.917717	-5.002306	-3.791820	0.100211	-1.239986	-1.175020	-0.381500	0.518840	-0.898985	-0.063598	0.427062	-1.000000	-1.000000	-1.000000	-1.000000	-1.000000	-1.000000	-1.000000	54.000000	0.000000	-1.000000	-1.000000	355196.000000	1775778983.199956
-1600.560000	-533.295000	5399.010000	29152.395000	22590.765000	14412.780000	-31311.765000	-15897.870000	-0.605952	-0.968627	-3.233015	-1.045700	-2.171861	-2.697005	-1.640904	-0.895972	-1.175020	-0.381500	0.518840	-0.898985	-0.063598	0.427062	-1.000000	-1.000000	-1.000000	-1.000000	-1.000000	-1.000000	-1.000000	54.000000	0.000000	-1.000000	-1.000000	355197.000000	1775778983.199984
-1600.695000	-530.775000	5409.720000	29158.155000	22595.670000	14407.335000	-31313.565000	-15898.140000	2.100269	3.403859	1.710539	4.748298	1.720737	-3.341494	-3.482758	0.021618	-1.175020	-0.381500	0.518840	-0.898985	-0.063598	0.427062	-1.000000	-1.000000	-1.000000	-1.000000	-1.000000	-1.000000	-1.000000	54.000000	0.000000	-1.000000	-1.000000	355198.000000	1775778983.200014
-1594.530000	-524.205000	5421.780000	29171.745000	22605.255000	14409.270000	-31309.200000	-15892.020000	4.190235	6.682948	6.689863	9.014780	5.249076	-4.355909	-4.068749	1.186881	-1.175020	-0.381500	0.518840	-0.898985	-0.063598	0.427062	-1.000000	-1.000000	-1.000000	-1.000000	-1.000000	-1.000000	-1.000000	54.000000	0.000000	-1.000000	-1.000000	355199.000000	1775778983.200028
-1594.035000	-524.880000	5424.435000	29176.920000	22601.520000	14398.650000	-31305.825000	-15888.600000	4.762079	7.488098	10.424873	10.488541	7.212482	-3.671841	-2.440049	2.256492	-2.624720	0.763000	-2.624720	-0.904111	-0.065979	0.424865	-1.000000	-1.000000	-1.000000	-1.000000	-1.000000	-1.000000	-1.000000	54.000000	0.000000	-1.000000	-1.000000	355200.000000	1775778983.200043
-1601.505000	-533.430000	5418.585000	29179.215000	22594.680000	14398.695000	-31303.665000	-15892.335000	3.520904	5.363640	10.936381	8.763836	6.433207	-0.981973	0.894740	2.780996	-2.624720	0.763000	-2.624720	-0.904111	-0.065979	0.424865	-1.000000	-1.000000	-1.000000	-1.000000	-1.000000	-1.000000	-1.000000	54.000000	0.000000	-1.000000	-1.000000	355201.000000	1775778983.200055
-1603.890000	-533.880000	5419.485000	29176.830000	22594.635000	14398.110000	-31306.005000	-15895.035000	0.620357	0.874291	6.974421	4.044368	2.633274	2.429939	4.032879	2.075465	-2.624720	0.763000	-2.624720	-0.904111	-0.065979	0.424865	-1.000000	-1.000000	-1.000000	-1.000000	-1.000000	-1.000000	-1.000000	54.000000	0.000000	-1.000000	-1.000000	355202.000000	1775778983.206595
-1606.500000	-536.040000	5415.885000	29151.630000	22589.280000	14392.890000	-31309.515000	-15898.050000	-2.859378	-4.021245	-0.071960	-2.807978	-2.480344	5.147192	5.009401	0.010904	-2.624720	0.763000	-2.624720	-0.904111	-0.065979	0.424865	-1.000000	-1.000000	-1.000000	-1.000000	-1.000000	-1.000000	-1.000000	54.000000	0.000000	-1.000000	-1.000000	355203.000000	1775778983.206623
-1605.420000	-538.065000	5411.340000	29141.910000	22589.280000	14411.880000	-31302.765000	-15896.610000	-5.095293	-6.894999	-6.901105	-10.276244	-6.271496	6.455846	3.410487	-2.378983	-2.624720	0.763000	-2.624720	-0.904111	-0.065979	0.424865	-1.000000	-1.000000	-1.000000	-1.000000	-1.000000	-1.000000	-1.000000	54.000000	0.000000	-1.000000	-1.000000	355204.000000	1775778983.206654
-1603.575000	-539.010000	5409.585000	29148.480000	22592.745000	14440.320000	-31290.840000	-15893.775000	-4.808159	-6.616263	-10.677832	-15.308034	-6.965806	7.188721	0.919819	-3.546759	-2.624720	0.763000	-2.624720	-0.904111	-0.065979	0.424865	-1.000000	-1.000000	-1.000000	-1.000000	-1.000000	-1.000000	-1.000000	54.000000	0.000000	-1.000000	-1.000000	355205.000000	1775778983.206668
-1605.960000	-539.730000	5409.000000	29149.920000	22591.845000	14441.220000	-31296.870000	-15896.160000	-2.243962	-3.791582	-10.270634	-14.181594	-4.448713	8.246559	-0.527980	-2.748720	-2.624720	0.763000	-2.624720	-0.904111	-0.065979	0.424865	-1.000000	-1.000000	-1.000000	-1.000000	-1.000000	-1.000000	-1.000000	54.000000	0.000000	-1.000000	-1.000000	355206.000000	1775778983.207826
-1610.415000	-544.320000	5402.835000	29145.915000	22589.100000	14440.905000	-31300.560000	-15898.500000	0.917087	-0.071240	-6.420693	-6.461484	-0.363828	7.854733	-1.066404	-0.756120	-2.624720	0.763000	-2.624720	-0.904111	-0.065979	0.424865	-1.000000	-1.000000	-1.000000	-1.000000	-1.000000	-1.000000	-1.000000	54.000000	0.000000	-1.000000	-1.000000	355207.000000	1775778983.207842
-1604.430000	-537.255000	5409.270000	29153.610000	22593.870000	14429.205000	-31296.780000	-15893.010000	2.971819	2.943705	-1.121924	3.847003	3.045874	3.214747	-1.886274	1.095957	-2.624720	0.763000	-2.624720	-0.904111	-0.065979	0.424865	-1.000000	-1.000000	-1.000000	-1.000000	-1.000000	-1.000000	-1.000000	54.000000	0.000000	-1.000000	-1.000000	355208.000000	1775778983.212605
-1602.945000	-533.835000	5414.130000	29159.730000	22597.110000	14416.290000	-31296.960000	-15892.650000	3.595435	4.689603	3.830766	11.941586	4.665474	-5.582764	-2.902824	2.231118	-2.624720	0.763000	-2.624720	-0.904111	-0.065979	0.424865	-1.000000	-1.000000	-1.000000	-1.000000	-1.000000	-1.000000	-1.000000	54.000000	0.000000	-1.000000	-1.000000	355209.000000	1775778983.212632
-1604.070000	-535.680000	5411.520000	29158.785000	22596.120000	14430.060000	-31297.455000	-15895.215000	3.296186	5.218829	7.251227	15.085184	4.591254	-14.462704	-3.183267	2.573507	-3.647140	1.251320	-4.333840	-0.900388	-0.067810	0.424437	-1.000000	-1.000000	-1.000000	-1.000000	-1.000000	-1.000000	-1.000000	54.000000	0.000000	-1.000000	-1.000000	355210.000000	1775778983.223304
-1604.610000	-537.840000	5408.145000	29155.635000	22591.935000	14433.795000	-31299.975000	-15895.620000	2.279637	4.281520	8.008065	12.654952	3.090324	-17.731315	-2.467719	1.954549	-3.647140	1.251320	-4.333840	-0.900388	-0.067810	0.424437	-1.000000	-1.000000	-1.000000	-1.000000	-1.000000	-1.000000	-1.000000	54.000000	0.000000	-1.000000	-1.000000	355211.000000	1775778983.223331
-1601.145000	-534.105000	5411.430000	29158.560000	22593.240000	14428.890000	-31305.240000	-15893.280000	0.723262	1.910248	5.766299	6.036123	0.547078	-13.049708	-1.317427	0.600054	-3.647140	1.251320	-4.333840	-0.900388	-0.067810	0.424437	-1.000000	-1.000000	-1.000000	-1.000000	-1.000000	-1.000000	-1.000000	54.000000	0.000000	-1.000000	-1.000000	355212.000000	1775778983.223360
-1597.680000	-528.705000	5416.245000	29163.420000	22594.005000	14426.370000	-31308.345000	-15891.705000	-0.700497	-0.751953	1.974140	-1.533664	-1.993734	-3.793269	-0.424398	-0.653913	-3.647140	1.251320	-4.333840	-0.900388	-0.067810	0.424437	-1.000000	-1.000000	-1.000000	-1.000000	-1.000000	-1.000000	-1.000000	54.000000	0.000000	-1.000000	-1.000000	355213.000000	1775778983.223373
-1596.780000	-529.020000	5415.660000	29163.690000	22594.545000	14430.285000	-31306.815000	-15890.850000	-1.354187	-2.323078	-1.226959	-6.727251	-3.306865	4.683096	0.108785	-1.133182	-3.647140	1.251320	-4.333840	-0.900388	-0.067810	0.424437	-1.000000	-1.000000	-1.000000	-1.000000	-1.000000	-1.000000	-1.000000	54.000000	0.000000	-1.000000	-1.000000	355214.000000	1775778983.223389
-1598.895000	-532.665000	5412.240000	29159.550000	22593.960000	14440.455000	-31302.810000	-15890.715000	-1.356175	-2.626091	-2.914953	-8.313038	-3.007808	9.532980	0.847367	-0.894609	-3.647140	1.251320	-4.333840	-0.900388	-0.067810	0.424437	-1.000000	-1.000000	-1.000000	-1.000000	-1.000000	-1.000000	-1.000000	54.000000	0.000000	-1.000000	-1.000000	355215.000000	1775778983.223400
-1599.615000	-534.195000	5410.755000	29159.100000	22594.905000	14449.995000	-31295.250000	-15891.165000	-1.335582	-2.516577	-3.528466	-7.252838	-1.665304	10.920557	2.283438	-0.461542	-3.647140	1.251320	-4.333840	-0.900388	-0.067810	0.424437	-1.000000	-1.000000	-1.000000	-1.000000	-1.000000	-1.000000	-1.000000	54.000000	0.000000	-1.000000	-1.000000	355216.000000	1775778983.229196
-1605.600000	-541.755000	5403.285000	29154.555000	22592.970000	14450.355000	-31296.420000	-15896.385000	-1.678249	-2.635600	-3.698384	-5.059841	-0.166830	9.837718	4.015462	-0.356356	-3.647140	1.251320	-4.333840	-0.900388	-0.067810	0.424437	-1.000000	-1.000000	-1.000000	-1.000000	-1.000000	-1.000000	-1.000000	54.000000	0.000000	-1.000000	-1.000000	355217.000000	1775778983.229224
-1604.880000	-540.630000	5404.455000	29156.760000	22589.460000	14436.855000	-31300.920000	-15895.710000	-2.207061	-2.854094	-3.567624	-2.659673	0.743148	6.377317	4.649728	-0.759697	-3.647140	1.251320	-4.333840	-0.900388	-0.067810	0.424437	-1.000000	-1.000000	-1.000000	-1.000000	-1.000000	-1.000000	-1.000000	54.000000	0.000000	-1.000000	-1.000000	355218.000000	1775778983.238787
-1601.145000	-537.165000	5408.145000	29162.835000	22588.245000	14426.370000	-31302.945000	-15893.415000	-2.203464	-2.390848	-2.677791	-0.203961	0.750872	0.349196	3.009558	-1.195509	-3.647140	1.251320	-4.333840	-0.900388	-0.067810	0.424437	-1.000000	-1.000000	-1.000000	-1.000000	-1.000000	-1.000000	-1.000000	54.000000	0.000000	-1.000000	-1.000000	355219.000000	1775778983.238814
-1597.365000	-533.475000	5412.015000	29169.045000	22592.565000	14422.725000	-31302.270000	-15890.040000	-0.940338	-0.540353	-0.528627	2.466177	0.289553	-6.689787	-0.359093	-0.864723	-3.952340	3.677660	-1.739640	-0.894224	-0.069885	0.421874	-1.000000	-1.000000	-1.000000	-1.000000	-1.000000	-1.000000	-1.000000	54.000000	0.000000	-1.000000	-1.000000	355220.000000	1775778983.238840
-1598.355000	-535.905000	5408.055000	29170.575000	22594.500000	14428.305000	-31302.180000	-15890.265000	1.309864	2.207350	2.303578	4.902509	0.238732	-11.164822	-3.465634	0.377899	-3.952340	3.677660	-1.739640	-0.894224	-0.069885	0.421874	-1.000000	-1.000000	-1.000000	-1.000000	-1.000000	-1.000000	-1.000000	54.000000	0.000000	-1.000000	-1.000000	355221.000000	1775778983.238853
-1595.880000	-534.375000	5407.605000	29170.395000	22597.110000	14436.720000	-31299.795000	-15887.970000	3.231085	4.262840	4.184368	5.890659	0.940888	-10.034626	-4.599555	1.751767	-3.952340	3.677660	-1.739640	-0.894224	-0.069885	0.421874	-1.000000	-1.000000	-1.000000	-1.000000	-1.000000	-1.000000	-1.000000	54.000000	0.000000	-1.000000	-1.000000	355222.000000	1775778983.246123
-1598.715000	-534.735000	5405.760000	29154.375000	22596.480000	14434.155000	-31302.855000	-15891.030000	3.638520	4.429292	3.965996	4.266023	1.798282	-3.676051	-3.526792	2.292162	-3.952340	3.677660	-1.739640	-0.894224	-0.069885	0.421874	-1.000000	-1.000000	-1.000000	-1.000000	-1.000000	-1.000000	-1.000000	54.000000	0.000000	-1.000000	-1.000000	355223.000000	1775778983.246149
-1599.165000	-533.565000	5409.180000	29152.530000	22597.785000	14433.120000	-31301.595000	-15890.535000	2.322430	2.838668	2.076620	0.020446	1.941221	3.946776	-1.338671	1.590417	-3.952340	3.677660	-1.739640	-0.894224	-0.069885	0.421874	-1.000000	-1.000000	-1.000000	-1.000000	-1.000000	-1.000000	-1.000000	54.000000	0.000000	-1.000000	-1.000000	355224.000000	1775778983.246217
-1599.615000	-535.005000	5409.135000	29155.725000	22594.185000	14425.785000	-31304.340000	-15890.805000	0.045422	0.495008	-0.050335	-4.698589	1.010271	8.333625	0.615810	0.064939	-3.952340	3.677660	-1.739640	-0.894224	-0.069885	0.421874	-1.000000	-1.000000	-1.000000	-1.000000	-1.000000	-1.000000	-1.000000	54.000000	0.000000	-1.000000	-1.000000	355225.000000	1775778983.246239
-1601.325000	-537.390000	5405.490000	29151.720000	22587.750000	14413.275000	-31309.830000	-15892.560000	-1.988599	-1.614265	-1.386299	-6.774519	-0.773434	7.475968	1.491400	-1.386098	-3.952340	3.677660	-1.739640	-0.894224	-0.069885	0.421874	-1.000000	-1.000000	-1.000000	-1.000000	-1.000000	-1.000000	-1.000000	54.000000	0.000000	-1.000000	-1.000000	355226.000000	1775778983.259251
-1599.525000	-533.025000	5411.115000	29156.760000	22588.110000	14402.340000	-31313.340000	-15892.380000	-2.880209	-2.834177	-1.809772	-5.003787	-2.743116	2.447453	1.086559	-2.096153	-3.952340	3.677660	-1.739640	-0.894224	-0.069885	0.421874	-1.000000	-1.000000	-1.000000	-1.000000	-1.000000	-1.000000	-1.000000	54.000000	0.000000	-1.000000	-1.000000	355227.000000	1775778983.259278
-1598.220000	-530.505000	5414.715000	29161.260000	22590.090000	14411.430000	-31309.020000	-15890.805000	-2.368723	-2.714144	-1.382578	-0.647754	-3.751248	-3.285290	0.076188	-1.858729	-3.952340	3.677660	-1.739640	-0.894224	-0.069885	0.421874	-1.000000	-1.000000	-1.000000	-1.000000	-1.000000	-1.000000	-1.000000	54.000000	0.000000	-1.000000	-1.000000	355228.000000	1775778983.259304
-1601.190000	-532.530000	5413.905000	29162.160000	22591.755000	14431.365000	-31307.715000	-15893.505000	-0.899897	-1.390496	-0.282596	3.984871	-2.863944	-5.345626	-0.287808	-0.879044	-3.952340	3.677660	-1.739640	-0.894224	-0.069885	0.421874	-1.000000	-1.000000	-1.000000	-1.000000	-1.000000	-1.000000	-1.000000	54.000000	0.000000	-1.000000	-1.000000	355229.000000	1775778983.259317
-1601.865000	-533.475000	5413.095000	29161.890000	22589.730000	14430.105000	-31309.605000	-15894.450000	0.538831	0.128750	0.701955	6.624572	-0.438746	-1.817790	0.497730	0.221620	-2.182180	4.410140	-0.946120	-0.896116	-0.070129	0.421203	-1.000000	-1.000000	-1.000000	-1.000000	-1.000000	-1.000000	-1.000000	54.000000	0.000000	-1.000000	-1.000000	355230.000000	1775778983.259331
-1596.195000	-530.055000	5413.455000	29161.170000	22591.530000	14423.805000	-31303.980000	-15886.980000	1.304770	0.911485	0.780978	6.088707	2.058562	4.127909	1.712683	0.993031	-2.182180	4.410140	-0.946120	-0.896116	-0.070129	0.421203	-1.000000	-1.000000	-1.000000	-1.000000	-1.000000	-1.000000	-1.000000	54.000000	0.000000	-1.000000	-1.000000	355231.000000	1775778983.259342
-1597.680000	-534.015000	5408.460000	29159.550000	22599.765000	14450.940000	-31296.240000	-15885.405000	1.565640	0.883650	-0.077003	2.923422	3.507734	7.594523	2.605489	1.612914	-2.182180	4.410140	-0.946120	-0.896116	-0.070129	0.421203	-1.000000	-1.000000	-1.000000	-1.000000	-1.000000	-1.000000	-1.000000	54.000000	0.000000	-1.000000	-1.000000	355232.000000	1775778983.259900
-1602.765000	-543.150000	5396.310000	29148.345000	22590.720000	14454.135000	-31297.275000	-15887.610000	1.428932	0.194108	-1.536360	-1.296650	3.662904	7.258031	2.916147	2.086835	-2.182180	4.410140	-0.946120	-0.896116	-0.070129	0.421203	-1.000000	-1.000000	-1.000000	-1.000000	-1.000000	-1.000000	-1.000000	54.000000	0.000000	-1.000000	-1.000000	355233.000000	1775778983.259922
-1603.035000	-544.320000	5394.735000	29146.995000	22586.355000	14443.830000	-31301.955000	-15889.320000	0.611939	-1.084606	-3.160769	-5.003617	2.307217	4.196616	2.159009	1.780732	-2.182180	4.410140	-0.946120	-0.896116	-0.070129	0.421203	-1.000000	-1.000000	-1.000000	-1.000000	-1.000000	-1.000000	-1.000000	54.000000	0.000000	-1.000000	-1.000000	355234.000000	1775778983.265699
-1599.795000	-537.795000	5403.420000	29155.995000	22593.600000	14443.065000	-31303.215000	-15888.510000	-0.591074	-2.092307	-3.744385	-6.593076	-0.260016	-1.055247	-0.073985	0.418816	-2.182180	4.410140	-0.946120	-0.896116	-0.070129	0.421203	-1.000000	-1.000000	-1.000000	-1.000000	-1.000000	-1.000000	-1.000000	54.000000	0.000000	-1.000000	-1.000000	355235.000000	1775778983.265727
-1598.400000	-535.455000	5406.165000	29157.795000	22593.960000	14440.410000	-31307.940000	-15888.870000	-1.207520	-1.476300	-1.862078	-4.817695	-2.387696	-7.129045	-3.076738	-1.279789	-2.182180	4.410140	-0.946120	-0.896116	-0.070129	0.421203	-1.000000	-1.000000	-1.000000	-1.000000	-1.000000	-1.000000	-1.000000	54.000000	0.000000	-1.000000	-1.000000	355236.000000	1775778983.269259
-1597.140000	-532.845000	5409.225000	29159.730000	22594.770000	14438.340000	-31310.055000	-15888.420000	-0.749587	0.859595	2.102122	-0.421094	-2.690006	-11.199596	-5.337224	-2.310261	-2.182180	4.410140	-0.946120	-0.896116	-0.070129	0.421203	-1.000000	-1.000000	-1.000000	-1.000000	-1.000000	-1.000000	-1.000000	54.000000	0.000000	-1.000000	-1.000000	355237.000000	1775778983.269282
-1595.430000	-531.495000	5409.585000	29159.955000	22593.960000	14434.605000	-31309.605000	-15885.630000	0.303095	3.381587	5.761598	3.918923	-1.521230	-11.264826	-5.635729	-2.176403	-2.182180	4.410140	-0.946120	-0.896116	-0.070129	0.421203	-1.000000	-1.000000	-1.000000	-1.000000	-1.000000	-1.000000	-1.000000	54.000000	0.000000	-1.000000	-1.000000	355238.000000	1775778983.275890
-1594.395000	-530.415000	5410.620000	29160.765000	22592.970000	14433.660000	-31307.355000	-15883.650000	1.141531	4.400624	6.834308	5.810179	-0.150225	-7.523763	-3.644156	-1.011677	-2.182180	4.410140	-0.946120	-0.896116	-0.070129	0.421203	-1.000000	-1.000000	-1.000000	-1.000000	-1.000000	-1.000000	-1.000000	54.000000	0.000000	-1.000000	-1.000000	355239.000000	1775778983.275915
-1593.990000	-532.305000	5408.460000	29157.840000	22588.695000	14431.050000	-31303.980000	-15882.840000	1.262784	3.295360	4.776898	4.650626	0.453893	-1.809697	-0.074973	0.545990	-0.976640	2.609460	-0.701960	-0.898130	-0.070556	0.423461	-1.000000	-1.000000	-1.000000	-1.000000	-1.000000	-1.000000	-1.000000	54.000000	0.000000	-1.000000	-1.000000	355240.000000	1775778983.279194
-1594.575000	-534.330000	5404.770000	29153.745000	22583.745000	14414.895000	-31303.440000	-15882.795000	0.626867	0.614054	0.713664	1.399366	0.024399	3.341081	3.562893	1.637309	-0.976640	2.609460	-0.701960	-0.898130	-0.070556	0.423461	-1.000000	-1.000000	-1.000000	-1.000000	-1.000000	-1.000000	-1.000000	54.000000	0.000000	-1.000000	-1.000000	355241.000000	1775778983.279223
-1593.855000	-531.540000	5408.775000	29158.245000	22584.060000	14402.700000	-31309.740000	-15882.705000	-0.419017	-2.313908	-3.385836	-2.156293	-0.957868	5.620540	5.530724	1.711602	-0.976640	2.609460	-0.701960	-0.898130	-0.070556	0.423461	-1.000000	-1.000000	-1.000000	-1.000000	-1.000000	-1.000000	-1.000000	54.000000	0.000000	-1.000000	-1.000000	355242.000000	1775778983.284547
-1595.295000	-531.720000	5410.395000	29160.540000	22588.020000	14401.710000	-31314.555000	-15885.135000	-1.351013	-4.013131	-5.554442	-4.094861	-1.414879	4.667244	4.711515	0.825061	-0.976640	2.609460	-0.701960	-0.898130	-0.070556	0.423461	-1.000000	-1.000000	-1.000000	-1.000000	-1.000000	-1.000000	-1.000000	54.000000	0.000000	-1.000000	-1.000000	355243.000000	1775778983.284572
-1604.025000	-541.890000	5401.035000	29153.565000	22590.585000	14422.275000	-31307.085000	-15889.320000	-1.936774	-3.999511	-5.144581	-3.682182	-0.483626	3.043812	1.744491	-0.578185	-0.976640	2.609460	-0.701960	-0.898130	-0.070556	0.423461	-1.000000	-1.000000	-1.000000	-1.000000	-1.000000	-1.000000	-1.000000	54.000000	0.000000	-1.000000	-1.000000	355244.000000	1775778983.284590
-1607.130000	-547.920000	5395.815000	29150.190000	22591.485000	14441.580000	-31301.100000	-15890.265000	-2.357227	-3.174686	-3.406929	-2.052100	1.504942	4.114882	-0.996442	-1.912136	-0.976640	2.609460	-0.701960	-0.898130	-0.070556	0.423461	-1.000000	-1.000000	-1.000000	-1.000000	-1.000000	-1.000000	-1.000000	54.000000	0.000000	-1.000000	-1.000000	355245.000000	1775778983.284597
-1600.470000	-542.880000	5399.460000	29153.070000	22589.595000	14432.400000	-31300.425000	-15884.370000	-2.363983	-2.281045	-1.739706	-0.625136	3.154539	7.853207	-1.632136	-2.385455	-0.976640	2.609460	-0.701960	-0.898130	-0.070556	0.423461	-1.000000	-1.000000	-1.000000	-1.000000	-1.000000	-1.000000	-1.000000	54.000000	0.000000	-1.000000	-1.000000	355246.000000	1775778983.299471
-1598.670000	-540.315000	5400.945000	29152.800000	22584.420000	14412.645000	-31305.825000	-15883.920000	-1.104586	-0.797904	-0.130928	0.395022	3.130115	9.577779	-0.691572	-1.367900	-0.976640	2.609460	-0.701960	-0.898130	-0.070556	0.423461	-1.000000	-1.000000	-1.000000	-1.000000	-1.000000	-1.000000	-1.000000	54.000000	0.000000	-1.000000	-1.000000	355247.000000	1775778983.299496
-1592.145000	-531.630000	5410.485000	29161.710000	22591.620000	14409.585000	-31306.770000	-15878.790000	1.526346	1.827981	1.979346	1.486194	1.364800	5.040983	-0.072957	0.793149	-0.976640	2.609460	-0.701960	-0.898130	-0.070556	0.423461	-1.000000	-1.000000	-1.000000	-1.000000	-1.000000	-1.000000	-1.000000	54.000000	0.000000	-1.000000	-1.000000	355248.000000	1775778983.299524
-1591.470000	-530.190000	5409.315000	29162.070000	22595.445000	14410.080000	-31306.320000	-15878.970000	4.272158	4.864375	4.322935	2.785587	-0.660609	-3.950934	-0.649174	2.852626	-0.976640	2.609460	-0.701960	-0.898130	-0.070556	0.423461	-1.000000	-1.000000	-1.000000	-1.000000	-1.000000	-1.000000	-1.000000	54.000000	0.000000	-1.000000	-1.000000	355249.000000	1775778983.299536
-1593.405000	-531.000000	5403.195000	29157.885000	22601.025000	14423.760000	-31305.150000	-15880.365000	5.404971	6.555197	5.486119	3.562675	-1.365760	-11.011534	-1.635355	3.548162	-0.030520	1.617560	-0.534100	-0.899778	-0.072204	0.425292	-1.000000	-1.000000	-1.000000	-1.000000	-1.000000	-1.000000	-1.000000	54.000000	0.000000	-1.000000	-1.000000	355250.000000	1775778983.299552
-1592.235000	-531.270000	5405.670000	29155.185000	22603.095000	14445.135000	-31301.910000	-15879.465000	4.006890	5.487284	4.147849	2.704422	-0.630034	-11.009970	-1.852581	2.403483	-0.030520	1.617560	-0.534100	-0.899778	-0.072204	0.425292	-1.000000	-1.000000	-1.000000	-1.000000	-1.000000	-1.000000	-1.000000	54.000000	0.000000	-1.000000	-1.000000	355251.000000	1775778983.299563
-1597.230000	-539.100000	5400.495000	29152.710000	22596.480000	14472.495000	-31300.695000	-15881.985000	0.698140	1.796218	0.773011	0.153552	0.271775	-3.632946	-0.903861	0.071572	-0.030520	1.617560	-0.534100	-0.899778	-0.072204	0.425292	-1.000000	-1.000000	-1.000000	-1.000000	-1.000000	-1.000000	-1.000000	54.000000	0.000000	-1.000000	-1.000000	355252.000000	1775778983.301203
-1601.145000	-542.790000	5398.605000	29152.710000	22580.010000	14452.020000	-31309.605000	-15885.315000	-2.968528	-2.979161	-2.809464	-2.698160	-0.332675	6.112239	0.446709	-2.266574	-0.030520	1.617560	-0.534100	-0.899778	-0.072204	0.425292	-1.000000	-1.000000	-1.000000	-1.000000	-1.000000	-1.000000	-1.000000	54.000000	0.000000	-1.000000	-1.000000	355253.000000	1775778983.301224
-1597.185000	-535.590000	5411.655000	29169.585000	22579.020000	14432.580000	-31314.690000	-15883.515000	-5.388650	-6.551124	-4.704399	-3.873028	-2.913313	10.299920	0.831449	-3.640359	-0.030520	1.617560	-0.534100	-0.899778	-0.072204	0.425292	-1.000000	-1.000000	-1.000000	-1.000000	-1.000000	-1.000000	-1.000000	54.000000	0.000000	-1.000000	-1.000000	355254.000000	1775778983.304520
-1601.370000	-540.990000	5404.230000	29171.880000	22586.715000	14444.820000	-31311.090000	-15885.180000	-5.453165	-6.969869	-3.864758	-2.145941	-5.397681	5.092497	-0.091685	-3.496223	-0.030520	1.617560	-0.534100	-0.899778	-0.072204	0.425292	-1.000000	-1.000000	-1.000000	-1.000000	-1.000000	-1.000000	-1.000000	54.000000	0.000000	-1.000000	-1.000000	355255.000000	1775778983.304539
-1599.480000	-538.965000	5402.880000	29156.940000	22592.880000	14440.185000	-31308.570000	-15883.380000	-3.303543	-4.280785	-1.291613	1.092789	-4.731648	-4.732425	-0.976575	-1.941256	-0.030520	1.617560	-0.534100	-0.899778	-0.072204	0.425292	-1.000000	-1.000000	-1.000000	-1.000000	-1.000000	-1.000000	-1.000000	54.000000	0.000000	-1.000000	-1.000000	355256.000000	1775778983.308084
-1595.880000	-532.890000	5413.770000	29151.855000	22596.165000	14434.515000	-31304.880000	-15880.230000	-0.130614	-0.233788	1.022713	2.439103	-0.338684	-11.496549	-0.444568	0.313228	-0.030520	1.617560	-0.534100	-0.899778	-0.072204	0.425292	-1.000000	-1.000000	-1.000000	-1.000000	-1.000000	-1.000000	-1.000000	54.000000	0.000000	-1.000000	-1.000000	355257.000000	1775778983.308103
-1600.245000	-536.940000	5411.205000	29156.580000	22597.830000	14446.305000	-31304.520000	-15882.750000	2.714668	3.343684	2.338132	0.583963	5.077965	-11.627023	1.316917	2.338309	-0.030520	1.617560	-0.534100	-0.899778	-0.072204	0.425292	-1.000000	-1.000000	-1.000000	-1.000000	-1.000000	-1.000000	-1.000000	54.000000	0.000000	-1.000000	-1.000000	355258.000000	1775778983.313215
-1600.965000	-537.120000	5409.495000	29159.685000	22598.055000	14449.545000	-31305.105000	-15883.695000	4.046095	5.026596	2.604406	-2.070318	8.071254	-5.886441	2.882375	3.213372	-0.030520	1.617560	-0.534100	-0.899778	-0.072204	0.425292	-1.000000	-1.000000	-1.000000	-1.000000	-1.000000	-1.000000	-1.000000	54.000000	0.000000	-1.000000	-1.000000	355259.000000	1775778983.313243
-1599.345000	-536.310000	5408.730000	29159.595000	22596.210000	14441.400000	-31306.680000	-15882.210000	3.466509	4.288291	1.603779	-2.723058	7.032395	2.170787	2.951708	2.587555	0.152600	1.373400	1.022420	-0.901243	-0.073059	0.423766	-1.000000	-1.000000	-1.000000	-1.000000	-1.000000	-1.000000	-1.000000	54.000000	0.000000	-1.000000	-1.000000	355260.000000	1775778983.316746
-1597.500000	-537.255000	5404.185000	29154.960000	22592.385000	14437.935000	-31307.895000	-15879.915000	1.812547	1.981522	-0.341784	-1.178997	2.768897	7.823132	1.355709	1.118880	0.152600	1.373400	1.022420	-0.901243	-0.073059	0.423766	-1.000000	-1.000000	-1.000000	-1.000000	-1.000000	-1.000000	-1.000000	54.000000	0.000000	-1.000000	-1.000000	355261.000000	1775778983.316773
-1594.980000	-533.385000	5408.955000	29159.235000	22596.615000	14439.060000	-31306.410000	-15877.440000	0.311976	-0.410185	-2.197553	0.880275	-2.335877	8.537125	-0.923988	-0.135565	0.152600	1.373400	1.022420	-0.901243	-0.073059	0.423766	-1.000000	-1.000000	-1.000000	-1.000000	-1.000000	-1.000000	-1.000000	54.000000	0.000000	-1.000000	-1.000000	355262.000000	1775778983.320539
-1596.870000	-533.790000	5409.495000	29160.585000	22596.345000	14426.505000	-31313.970000	-15880.590000	-0.473095	-1.770013	-2.799889	2.193917	-5.664358	5.313052	-2.674534	-0.709565	0.152600	1.373400	1.022420	-0.901243	-0.073059	0.423766	-1.000000	-1.000000	-1.000000	-1.000000	-1.000000	-1.000000	-1.000000	54.000000	0.000000	-1.000000	-1.000000	355263.000000	1775778983.320558
-1594.035000	-530.955000	5412.195000	29163.420000	22597.605000	14423.715000	-31314.780000	-15877.530000	-0.753393	-1.846083	-1.728036	2.600341	-5.926088	0.633973	-3.389863	-0.880415	0.152600	1.373400	1.022420	-0.901243	-0.073059	0.423766	-1.000000	-1.000000	-1.000000	-1.000000	-1.000000	-1.000000	-1.000000	54.000000	0.000000	-1.000000	-1.000000	355264.000000	1775778983.330586
-1594.215000	-532.170000	5411.160000	29160.720000	22594.005000	14427.045000	-31315.590000	-15878.475000	-0.864335	-1.151722	0.243488	2.232955	-3.818477	-3.031331	-3.066903	-0.955623	0.152600	1.373400	1.022420	-0.901243	-0.073059	0.423766	-1.000000	-1.000000	-1.000000	-1.000000	-1.000000	-1.000000	-1.000000	54.000000	0.000000	-1.000000	-1.000000	355265.000000	1775778983.330614
-1594.845000	-533.205000	5409.765000	29158.425000	22591.530000	14433.030000	-31315.545000	-15878.700000	-0.936616	-0.457307	1.778198	1.083007	-1.132079	-3.715298	-1.740957	-0.963048	0.152600	1.373400	1.022420	-0.901243	-0.073059	0.423766	-1.000000	-1.000000	-1.000000	-1.000000	-1.000000	-1.000000	-1.000000	54.000000	0.000000	-1.000000	-1.000000	355266.000000	1775778983.330639
-1598.895000	-537.930000	5403.555000	29154.330000	22588.290000	14437.305000	-31313.655000	-15881.625000	-1.097371	-0.342261	1.903295	-0.699004	0.672614	-1.159467	0.280612	-0.943879	0.152600	1.373400	1.022420	-0.901243	-0.073059	0.423766	-1.000000	-1.000000	-1.000000	-1.000000	-1.000000	-1.000000	-1.000000	54.000000	0.000000	-1.000000	-1.000000	355267.000000	1775778983.330652
-1599.390000	-538.740000	5401.665000	29152.530000	22587.885000	14448.375000	-31305.510000	-15880.680000	-1.411455	-0.857494	0.577325	-2.493275	1.263252	2.878604	2.446252	-0.937099	0.152600	1.373400	1.022420	-0.901243	-0.073059	0.423766	-1.000000	-1.000000	-1.000000	-1.000000	-1.000000	-1.000000	-1.000000	54.000000	0.000000	-1.000000	-1.000000	355268.000000	1775778983.332126
-1598.985000	-539.865000	5399.685000	29150.685000	22587.120000	14442.930000	-31305.690000	-15879.870000	-1.584574	-1.436321	-1.228227	-3.429484	1.212142	5.844221	4.166626	-0.757829	0.152600	1.373400	1.022420	-0.901243	-0.073059	0.423766	-1.000000	-1.000000	-1.000000	-1.000000	-1.000000	-1.000000	-1.000000	54.000000	0.000000	-1.000000	-1.000000	355269.000000	1775778983.332145
-1594.710000	-534.645000	5405.355000	29157.570000	22591.620000	14433.480000	-31303.530000	-15875.595000	-1.080696	-1.267030	-2.097010	-2.832754	1.275299	5.501049	4.671256	-0.120111	-0.793520	2.182180	0.244160	-0.899351	-0.072693	0.422057	-1.000000	-1.000000	-1.000000	-1.000000	-1.000000	-1.000000	-1.000000	54.000000	0.000000	-1.000000	-1.000000	355270.000000	1775778983.338136
-1595.655000	-534.330000	5406.255000	29159.370000	22591.755000	14432.040000	-31303.800000	-15875.730000	0.244523	0.017744	-1.186791	-0.624282	1.797820	1.333498	3.407987	0.941146	-0.793520	2.182180	0.244160	-0.899351	-0.072693	0.422057	-1.000000	-1.000000	-1.000000	-1.000000	-1.000000	-1.000000	-1.000000	54.000000	0.000000	-1.000000	-1.000000	355271.000000	1775778983.338160
-1595.385000	-533.475000	5409.315000	29161.440000	22595.985000	14434.155000	-31305.780000	-15876.495000	1.723821	1.824466	1.011457	2.260813	2.476413	-4.269970	0.700136	1.832197	-0.793520	2.182180	0.244160	-0.899351	-0.072693	0.422057	-1.000000	-1.000000	-1.000000	-1.000000	-1.000000	-1.000000	-1.000000	54.000000	0.000000	-1.000000	-1.000000	355272.000000	1775778983.339966
-1597.230000	-534.690000	5408.685000	29161.035000	22595.580000	14432.130000	-31309.470000	-15878.970000	2.381717	2.958924	3.009880	4.196622	2.675104	-7.695495	-2.436075	1.805278	-0.793520	2.182180	0.244160	-0.899351	-0.072693	0.422057	-1.000000	-1.000000	-1.000000	-1.000000	-1.000000	-1.000000	-1.000000	54.000000	0.000000	-1.000000	-1.000000	355273.000000	1775778983.339984
-1598.130000	-536.715000	5404.275000	29157.615000	22590.945000	14425.110000	-31313.610000	-15879.510000	1.805903	2.621275	3.413228	4.003748	1.851356	-7.337602	-4.884508	0.706704	-0.793520	2.182180	0.244160	-0.899351	-0.072693	0.422057	-1.000000	-1.000000	-1.000000	-1.000000	-1.000000	-1.000000	-1.000000	54.000000	0.000000	-1.000000	-1.000000	355274.000000	1775778983.347494
-1589.805000	-529.740000	5408.955000	29162.160000	22593.600000	14416.290000	-31311.810000	-15871.950000	0.570330	1.113377	1.914772	1.839599	-0.034557	-4.473228	-5.736066	-0.658972	-0.793520	2.182180	0.244160	-0.899351	-0.072693	0.422057	-1.000000	-1.000000	-1.000000	-1.000000	-1.000000	-1.000000	-1.000000	54.000000	0.000000	-1.000000	-1.000000	355275.000000	1775778983.347525
-1588.590000	-528.165000	5411.160000	29164.860000	22594.815000	14398.965000	-31314.645000	-15873.345000	-0.195961	-0.355431	-0.338230	-0.804008	-2.087219	-1.549675	-4.553137	-1.161411	-0.793520	2.182180	0.244160	-0.899351	-0.072693	0.422057	-1.000000	-1.000000	-1.000000	-1.000000	-1.000000	-1.000000	-1.000000	54.000000	0.000000	-1.000000	-1.000000	355276.000000	1775778983.348725
-1589.310000	-527.670000	5414.265000	29165.670000	22591.710000	14389.515000	-31320.000000	-15876.900000	-0.100965	-0.925337	-1.781794	-2.347247	-3.156593	-0.162887	-1.902458	-0.698169	-0.793520	2.182180	0.244160	-0.899351	-0.072693	0.422057	-1.000000	-1.000000	-1.000000	-1.000000	-1.000000	-1.000000	-1.000000	54.000000	0.000000	-1.000000	-1.000000	355277.000000	1775778983.348747
-1594.755000	-531.945000	5411.655000	29162.475000	22588.785000	14390.505000	-31324.455000	-15881.490000	0.019096	-0.935553	-1.922934	-2.492485	-3.030639	0.148861	0.771926	-0.311288	-0.793520	2.182180	0.244160	-0.899351	-0.072693	0.422057	-1.000000	-1.000000	-1.000000	-1.000000	-1.000000	-1.000000	-1.000000	54.000000	0.000000	-1.000000	-1.000000	355278.000000	1775778983.361929
-1596.420000	-535.455000	5407.875000	29158.560000	22589.055000	14418.585000	-31321.620000	-15881.130000	-0.708721	-1.227403	-1.502793	-2.076203	-2.224995	1.742214	2.435255	-0.675965	-0.793520	2.182180	0.244160	-0.899351	-0.072693	0.422057	-1.000000	-1.000000	-1.000000	-1.000000	-1.000000	-1.000000	-1.000000	54.000000	0.000000	-1.000000	-1.000000	355279.000000	1775778983.361960
-1594.305000	-534.690000	5408.145000	29159.325000	22589.730000	14436.720000	-31317.930000	-15877.305000	-1.966012	-1.965140	-1.374551	-1.814763	-1.078899	6.572104	3.272139	-1.198634	-3.128300	2.685760	0.488320	-0.898008	-0.071594	0.420714	-1.000000	-1.000000	-1.000000	-1.000000	-1.000000	-1.000000	-1.000000	54.000000	0.000000	-1.000000	-1.000000	355280.000000	1775778983.361990
-1592.505000	-533.295000	5408.595000	29161.395000	22591.350000	14433.795000	-31313.970000	-15875.280000	-2.515631	-2.362585	-1.488791	-1.509468	0.318092	12.781682	3.909353	-0.837711	-3.128300	2.685760	0.488320	-0.898008	-0.071594	0.420714	-1.000000	-1.000000	-1.000000	-1.000000	-1.000000	-1.000000	-1.000000	54.000000	0.000000	-1.000000	-1.000000	355281.000000	1775778983.362004
-1593.045000	-534.645000	5403.375000	29158.065000	22592.610000	14437.395000	-31309.695000	-15874.155000	-1.632953	-1.666424	-1.310884	-0.669640	1.722344	15.041057	4.373859	0.547694	-3.128300	2.685760	0.488320	-0.898008	-0.071594	0.420714	-1.000000	-1.000000	-1.000000	-1.000000	-1.000000	-1.000000	-1.000000	54.000000	0.000000	-1.000000	-1.000000	355282.000000	1775778983.362019
-1597.995000	-538.785000	5398.155000	29153.205000	22589.955000	14440.095000	-31307.940000	-15876.765000	0.039799	-0.175159	-0.838333	0.432727	2.607287	10.045473	4.114250	1.960610	-3.128300	2.685760	0.488320	-0.898008	-0.071594	0.420714	-1.000000	-1.000000	-1.000000	-1.000000	-1.000000	-1.000000	-1.000000	54.000000	0.000000	-1.000000	-1.000000	355283.000000	1775778983.362031
-1605.645000	-546.615000	5391.945000	29147.445000	22587.210000	14456.700000	-31304.835000	-15881.355000	1.099181	0.979877	-0.509628	0.966204	2.408996	0.209126	2.685480	2.189594	-3.128300	2.685760	0.488320	-0.898008	-0.071594	0.420714	-1.000000	-1.000000	-1.000000	-1.000000	-1.000000	-1.000000	-1.000000	54.000000	0.000000	-1.000000	-1.000000	355284.000000	1775778983.378056
-1607.130000	-548.370000	5390.280000	29148.435000	22585.455000	14470.335000	-31303.620000	-15882.120000	0.777542	1.006876	-0.410883	0.675282	1.071360	-8.639363	0.283615	0.895550	-3.128300	2.685760	0.488320	-0.898008	-0.071594	0.420714	-1.000000	-1.000000	-1.000000	-1.000000	-1.000000	-1.000000	-1.000000	54.000000	0.000000	-1.000000	-1.000000	355285.000000	1775778983.378084
-1602.360000	-542.025000	5398.560000	29160.090000	22589.550000	14457.645000	-31307.265000	-15879.915000	-0.149192	0.447487	0.087096	0.485420	-0.594127	-12.613013	-2.396007	-0.959967	-3.128300	2.685760	0.488320	-0.898008	-0.071594	0.420714	-1.000000	-1.000000	-1.000000	-1.000000	-1.000000	-1.000000	-1.000000	54.000000	0.000000	-1.000000	-1.000000	355286.000000	1775778983.378113
-1594.755000	-532.665000	5408.910000	29171.880000	22595.760000	14436.495000	-31313.430000	-15874.965000	-0.067880	0.765122	1.844461	1.705668	-1.324164	-12.826259	-4.731643	-1.851971	-3.128300	2.685760	0.488320	-0.898008	-0.071594	0.420714	-1.000000	-1.000000	-1.000000	-1.000000	-1.000000	-1.000000	-1.000000	54.000000	0.000000	-1.000000	-1.000000	355287.000000	1775778983.378126
-1596.510000	-533.160000	5408.685000	29173.590000	22593.960000	14420.520000	-31320.855000	-15876.720000	1.568002	2.490859	4.591398	4.189721	-0.589696	-12.532144	-6.318489	-1.115282	-3.128300	2.685760	0.488320	-0.898008	-0.071594	0.420714	-1.000000	-1.000000	-1.000000	-1.000000	-1.000000	-1.000000	-1.000000	54.000000	0.000000	-1.000000	-1.000000	355288.000000	1775778983.378141
-1595.070000	-532.665000	5406.165000	29165.535000	22590.945000	14407.695000	-31319.820000	-15875.280000	3.407803	4.194495	6.308719	5.630214	0.637864	-12.415904	-6.607318	0.440700	-3.128300	2.685760	0.488320	-0.898008	-0.071594	0.420714	-1.000000	-1.000000	-1.000000	-1.000000	-1.000000	-1.000000	-1.000000	54.000000	0.000000	-1.000000	-1.000000	355289.000000	1775778983.378153
-1591.740000	-532.575000	5401.080000	29146.995000	22588.110000	14418.045000	-31314.690000	-15870.645000	3.763498	3.996321	4.939953	3.386079	0.883413	-10.034102	-4.813945	1.588109	-3.525060	1.999060	1.510740	-0.898069	-0.071838	0.421386	-1.000000	-1.000000	-1.000000	-1.000000	-1.000000	-1.000000	-1.000000	54.000000	0.000000	-1.000000	-1.000000	355290.000000	1775778983.378167
-1590.840000	-532.395000	5399.055000	29145.870000	22587.390000	14446.665000	-31310.730000	-15870.420000	2.338971	1.579166	0.586491	-2.584050	-0.200023	-2.542610	-0.765361	1.848532	-3.525060	1.999060	1.510740	-0.898069	-0.071838	0.421386	-1.000000	-1.000000	-1.000000	-1.000000	-1.000000	-1.000000	-1.000000	54.000000	0.000000	-1.000000	-1.000000	355291.000000	1775778983.378178
-1593.315000	-531.810000	5402.655000	29153.700000	22590.450000	14457.105000	-31307.040000	-15872.220000	-0.058638	-1.736777	-4.327741	-8.527209	-1.575300	9.752340	4.191325	1.257705	-3.525060	1.999060	1.510740	-0.898069	-0.071838	0.421386	-1.000000	-1.000000	-1.000000	-1.000000	-1.000000	-1.000000	-1.000000	54.000000	0.000000	-1.000000	-1.000000	355292.000000	1775778983.380003
-1595.565000	-534.555000	5401.845000	29152.530000	22586.310000	14441.535000	-31311.585000	-15873.165000	-2.523849	-4.295145	-6.940459	-9.856828	-2.029842	21.071243	7.638198	-0.048931	-3.525060	1.999060	1.510740	-0.898069	-0.071838	0.421386	-1.000000	-1.000000	-1.000000	-1.000000	-1.000000	-1.000000	-1.000000	54.000000	0.000000	-1.000000	-1.000000	355293.000000	1775778983.380025
-1597.455000	-536.715000	5399.280000	29151.405000	22587.705000	14435.460000	-31309.065000	-15871.770000	-4.302251	-5.221341	-6.211066	-5.696516	-1.358881	23.542836	7.726589	-1.562334	-3.525060	1.999060	1.510740	-0.898069	-0.071838	0.421386	-1.000000	-1.000000	-1.000000	-1.000000	-1.000000	-1.000000	-1.000000	54.000000	0.000000	-1.000000	-1.000000	355294.000000	1775778983.383693
-1603.215000	-544.230000	5391.045000	29146.140000	22587.795000	14451.570000	-31306.365000	-15875.190000	-4.866964	-4.663366	-3.457756	0.689195	-0.149241	15.122818	4.695797	-2.516439	-3.525060	1.999060	1.510740	-0.898069	-0.071838	0.421386	-1.000000	-1.000000	-1.000000	-1.000000	-1.000000	-1.000000	-1.000000	54.000000	0.000000	-1.000000	-1.000000	355295.000000	1775778983.383714
-1602.315000	-545.175000	5389.920000	29142.135000	22590.450000	14464.620000	-31293.360000	-15869.970000	-4.105110	-3.268424	-0.756941	5.300149	1.046365	2.097415	0.791641	-2.447869	-3.525060	1.999060	1.510740	-0.898069	-0.071838	0.421386	-1.000000	-1.000000	-1.000000	-1.000000	-1.000000	-1.000000	-1.000000	54.000000	0.000000	-1.000000	-1.000000	355296.000000	1775778983.387832
-1600.830000	-543.240000	5391.720000	29144.160000	22589.595000	14452.695000	-31294.890000	-15870.015000	-2.149529	-1.389811	0.977581	6.364013	1.866971	-7.851326	-1.707194	-1.330831	-3.525060	1.999060	1.510740	-0.898069	-0.071838	0.421386	-1.000000	-1.000000	-1.000000	-1.000000	-1.000000	-1.000000	-1.000000	54.000000	0.000000	-1.000000	-1.000000	355297.000000	1775778983.387848
-1598.715000	-539.190000	5396.040000	29152.485000	22592.025000	14445.630000	-31304.475000	-15872.220000	0.640395	1.025208	2.223123	4.942373	2.048823	-12.405428	-2.648128	0.303823	-3.525060	1.999060	1.510740	-0.898069	-0.071838	0.421386	-1.000000	-1.000000	-1.000000	-1.000000	-1.000000	-1.000000	-1.000000	54.000000	0.000000	-1.000000	-1.000000	355298.000000	1775778983.399982
-1598.445000	-537.615000	5391.450000	29151.180000	22593.510000	14443.875000	-31307.895000	-15872.580000	3.387052	3.671611	3.392701	3.141965	1.589387	-13.171931	-3.546085	1.472181	-3.525060	1.999060	1.510740	-0.898069	-0.071838	0.421386	-1.000000	-1.000000	-1.000000	-1.000000	-1.000000	-1.000000	-1.000000	54.000000	0.000000	-1.000000	-1.000000	355299.000000	1775778983.400006
-1595.520000	-534.735000	5390.190000	29151.630000	22596.750000	14446.845000	-31305.735000	-15870.105000	4.991282	5.564695	3.898480	1.826894	0.809075	-11.296164	-4.842221	1.658140	-2.289000	1.236060	1.419180	-0.899717	-0.073059	0.422850	-1.000000	-1.000000	-1.000000	-1.000000	-1.000000	-1.000000	-1.000000	54.000000	0.000000	-1.000000	-1.000000	355300.000000	1775778983.400033
-1594.800000	-535.815000	5392.710000	29155.500000	22595.625000	14444.910000	-31306.545000	-15869.340000	4.879698	5.698482	3.119896	0.621735	0.031011	-6.990550	-5.188578	1.232387	-2.289000	1.236060	1.419180	-0.899717	-0.073059	0.422850	-1.000000	-1.000000	-1.000000	-1.000000	-1.000000	-1.000000	-1.000000	54.000000	0.000000	-1.000000	-1.000000	355301.000000	1775778983.400044
-1592.280000	-534.645000	5395.635000	29158.560000	22591.260000	14438.025000	-31309.200000	-15866.730000	3.285912	3.825237	1.528276	-0.626099	-0.776351	-1.379329	-3.579366	0.785167	-2.289000	1.236060	1.419180	-0.899717	-0.073059	0.422850	-1.000000	-1.000000	-1.000000	-1.000000	-1.000000	-1.000000	-1.000000	54.000000	0.000000	-1.000000	-1.000000	355302.000000	1775778983.400574
-1593.180000	-535.590000	5400.810000	29164.860000	22589.235000	14434.920000	-31313.745000	-15869.115000	0.944703	0.693345	0.185427	-1.520099	-1.793122	3.366770	-0.716972	0.494338	-2.289000	1.236060	1.419180	-0.899717	-0.073059	0.422850	-1.000000	-1.000000	-1.000000	-1.000000	-1.000000	-1.000000	-1.000000	54.000000	0.000000	-1.000000	-1.000000	355303.000000	1775778983.400588
-1593.360000	-535.635000	5403.960000	29174.355000	22590.405000	14433.570000	-31317.120000	-15869.520000	-1.365902	-2.388259	-0.327704	-1.620233	-2.698547	5.766749	1.841593	0.119267	-2.289000	1.236060	1.419180	-0.899717	-0.073059	0.422850	-1.000000	-1.000000	-1.000000	-1.000000	-1.000000	-1.000000	-1.000000	54.000000	0.000000	-1.000000	-1.000000	355304.000000	1775778983.404493
-1590.120000	-533.115000	5403.060000	29162.970000	22589.505000	14422.905000	-31318.920000	-15865.830000	-2.986462	-4.238873	-0.319357	-1.166050	-2.734083	5.793308	3.117038	-0.430965	-2.289000	1.236060	1.419180	-0.899717	-0.073059	0.422850	-1.000000	-1.000000	-1.000000	-1.000000	-1.000000	-1.000000	-1.000000	54.000000	0.000000	-1.000000	-1.000000	355305.000000	1775778983.404510
-1584.945000	-524.565000	5412.240000	29148.930000	22592.790000	14424.345000	-31313.475000	-15860.610000	-3.331598	-4.144354	-0.418061	-1.580538	-1.543370	4.195003	3.308099	-0.691707	-2.289000	1.236060	1.419180	-0.899717	-0.073059	0.422850	-1.000000	-1.000000	-1.000000	-1.000000	-1.000000	-1.000000	-1.000000	54.000000	0.000000	-1.000000	-1.000000	355306.000000	1775778983.407961
-1586.025000	-526.185000	5412.195000	29151.810000	22593.240000	14434.560000	-31310.685000	-15861.420000	-2.311238	-2.227259	-0.725915	-3.699616	0.451253	2.402740	3.283263	-0.282043	-2.289000	1.236060	1.419180	-0.899717	-0.073059	0.422850	-1.000000	-1.000000	-1.000000	-1.000000	-1.000000	-1.000000	-1.000000	54.000000	0.000000	-1.000000	-1.000000	355307.000000	1775778983.407976
-1590.705000	-531.810000	5405.355000	29152.395000	22587.930000	14439.150000	-31309.515000	-15864.165000	-0.837384	0.091946	-1.238238	-5.716535	2.212730	2.018771	3.424572	0.297158	-2.289000	1.236060	1.419180	-0.899717	-0.073059	0.422850	-1.000000	-1.000000	-1.000000	-1.000000	-1.000000	-1.000000	-1.000000	54.000000	0.000000	-1.000000	-1.000000	355308.000000	1775778983.412605
-1595.430000	-534.870000	5406.345000	29153.565000	22586.580000	14439.420000	-31312.530000	-15870.060000	-0.203179	0.991342	-2.234179	-5.037836	2.643504	3.011488	3.136800	0.100443	-2.289000	1.236060	1.419180	-0.899717	-0.073059	0.422850	-1.000000	-1.000000	-1.000000	-1.000000	-1.000000	-1.000000	-1.000000	54.000000	0.000000	-1.000000	-1.000000	355309.000000	1775778983.412621
-1602.045000	-541.080000	5395.770000	29149.650000	22585.815000	14447.430000	-31311.990000	-15873.480000	-0.840826	0.002217	-3.514543	-1.447441	1.593007	3.695451	1.710941	-1.140535	-0.350980	1.083460	1.312360	-0.899412	-0.073486	0.423217	-1.000000	-1.000000	-1.000000	-1.000000	-1.000000	-1.000000	-1.000000	54.000000	0.000000	-1.000000	-1.000000	355310.000000	1775778983.415944
-1597.680000	-539.640000	5392.935000	29154.060000	22592.205000	14453.055000	-31306.770000	-15868.080000	-1.869857	-1.685548	-4.370432	2.964586	0.156504	2.903177	-0.513050	-2.466062	-0.350980	1.083460	1.312360	-0.899412	-0.073486	0.423217	-1.000000	-1.000000	-1.000000	-1.000000	-1.000000	-1.000000	-1.000000	54.000000	0.000000	-1.000000	-1.000000	355311.000000	1775778983.415961
-1596.015000	-538.560000	5397.030000	29156.130000	22592.070000	14447.385000	-31310.010000	-15868.170000	-1.774274	-2.345180	-3.964595	6.080951	-0.389473	0.696298	-2.359576	-2.412135	-0.350980	1.083460	1.312360	-0.899412	-0.073486	0.423217	-1.000000	-1.000000	-1.000000	-1.000000	-1.000000	-1.000000	-1.000000	54.000000	0.000000	-1.000000	-1.000000	355312.000000	1775778983.425391
-1595.880000	-537.345000	5400.630000	29155.230000	22589.415000	14443.065000	-31311.900000	-15867.900000	0.078731	-1.095122	-1.588397	6.940982	0.057127	-2.544023	-3.196372	-0.623923	-0.350980	1.083460	1.312360	-0.899412	-0.073486	0.423217	-1.000000	-1.000000	-1.000000	-1.000000	-1.000000	-1.000000	-1.000000	54.000000	0.000000	-1.000000	-1.000000	355313.000000	1775778983.425413
-1594.530000	-536.355000	5399.550000	29154.510000	22589.010000	14442.210000	-31311.000000	-15865.470000	2.662320	1.410815	2.276901	5.478125	0.493105	-5.990722	-3.211290	1.757537	-0.350980	1.083460	1.312360	-0.899412	-0.073486	0.423217	-1.000000	-1.000000	-1.000000	-1.000000	-1.000000	-1.000000	-1.000000	54.000000	0.000000	-1.000000	-1.000000	355314.000000	1775778983.427021
-1593.405000	-533.295000	5401.260000	29156.985000	22590.000000	14438.340000	-31312.125000	-15864.030000	4.369826	3.685831	5.702821	2.428723	0.240029	-8.078202	-2.607191	3.377147	-0.350980	1.083460	1.312360	-0.899412	-0.073486	0.423217	-1.000000	-1.000000	-1.000000	-1.000000	-1.000000	-1.000000	-1.000000	54.000000	0.000000	-1.000000	-1.000000	355315.000000	1775778983.427042
-1591.020000	-530.145000	5403.195000	29158.605000	22589.595000	14424.480000	-31314.645000	-15862.770000	4.371934	4.628679	6.908437	-0.774197	-0.418024	-7.823545	-1.546014	3.597025	-0.350980	1.083460	1.312360	-0.899412	-0.073486	0.423217	-1.000000	-1.000000	-1.000000	-1.000000	-1.000000	-1.000000	-1.000000	54.000000	0.000000	-1.000000	-1.000000	355316.000000	1775778983.431844
-1588.590000	-528.210000	5405.445000	29161.080000	22589.055000	14416.920000	-31318.245000	-15862.275000	2.918073	4.002793	5.604973	-2.823985	-0.919212	-5.788143	-0.450851	2.502887	-0.350980	1.083460	1.312360	-0.899412	-0.073486	0.423217	-1.000000	-1.000000	-1.000000	-1.000000	-1.000000	-1.000000	-1.000000	54.000000	0.000000	-1.000000	-1.000000	355317.000000	1775778983.431868
-1588.230000	-526.410000	5406.435000	29162.430000	22587.210000	14418.450000	-31326.480000	-15863.400000	0.827946	2.192504	2.748029	-3.286875	-1.047940	-2.839347	0.160030	0.632191	-0.350980	1.083460	1.312360	-0.899412	-0.073486	0.423217	-1.000000	-1.000000	-1.000000	-1.000000	-1.000000	-1.000000	-1.000000	54.000000	0.000000	-1.000000	-1.000000	355318.000000	1775778983.437253
-1585.980000	-523.395000	5409.720000	29164.860000	22587.525000	14416.560000	-31334.670000	-15863.670000	-1.125319	-0.087898	-0.342281	-2.566450	-0.887721	0.871046	-0.015639	-1.319351	-0.350980	1.083460	1.312360	-0.899412	-0.073486	0.423217	-1.000000	-1.000000	-1.000000	-1.000000	-1.000000	-1.000000	-1.000000	54.000000	0.000000	-1.000000	-1.000000	355319.000000	1775778983.437276
-1580.445000	-518.220000	5414.895000	29170.395000	22597.200000	14435.865000	-31326.255000	-15858.225000	-2.347785	-1.966668	-2.526832	-1.318923	-0.353072	5.266845	-0.484987	-2.590805	2.121140	1.526000	0.717220	-0.896970	-0.071838	0.424620	-1.000000	-1.000000	-1.000000	-1.000000	-1.000000	-1.000000	-1.000000	54.000000	0.000000	-1.000000	-1.000000	355320.000000	1775778983.437299
-1580.130000	-517.815000	5415.705000	29171.970000	22603.860000	14457.060000	-31313.925000	-15856.470000	-2.508134	-2.826284	-3.249890	-0.044472	0.897426	9.960322	0.259461	-2.555114	2.121140	1.526000	0.717220	-0.896970	-0.071838	0.424620	-1.000000	-1.000000	-1.000000	-1.000000	-1.000000	-1.000000	-1.000000	54.000000	0.000000	-1.000000	-1.000000	355321.000000	1775778983.437312
-1585.620000	-524.970000	5408.820000	29166.885000	22600.755000	14460.570000	-31303.710000	-15855.840000	-2.011652	-2.899689	-2.982875	0.685641	2.499650	13.641258	3.158677	-1.342918	2.121140	1.526000	0.717220	-0.896970	-0.071838	0.424620	-1.000000	-1.000000	-1.000000	-1.000000	-1.000000	-1.000000	-1.000000	54.000000	0.000000	-1.000000	-1.000000	355322.000000	1775778983.443490
-1594.665000	-537.615000	5395.950000	29156.085000	22591.710000	14466.600000	-31298.490000	-15860.970000	-1.902388	-3.190098	-2.989811	0.109556	2.866705	13.639321	6.815479	-0.012396	2.121140	1.526000	0.717220	-0.896970	-0.071838	0.424620	-1.000000	-1.000000	-1.000000	-1.000000	-1.000000	-1.000000	-1.000000	54.000000	0.000000	-1.000000	-1.000000	355323.000000	1775778983.443515
-1594.800000	-537.885000	5394.870000	29155.455000	22590.765000	14458.635000	-31304.205000	-15863.265000	-2.625502	-4.140245	-3.896594	-1.826385	0.822834	8.060060	8.195881	0.327059	2.121140	1.526000	0.717220	-0.896970	-0.071838	0.424620	-1.000000	-1.000000	-1.000000	-1.000000	-1.000000	-1.000000	-1.000000	54.000000	0.000000	-1.000000	-1.000000	355324.000000	1775778983.444815
-1591.470000	-533.565000	5398.380000	29156.895000	22591.395000	14446.305000	-31306.905000	-15860.655000	-3.130845	-4.491320	-4.486125	-3.628120	-2.538187	-2.042750	5.197697	-0.350966	2.121140	1.526000	0.717220	-0.896970	-0.071838	0.424620	-1.000000	-1.000000	-1.000000	-1.000000	-1.000000	-1.000000	-1.000000	54.000000	0.000000	-1.000000	-1.000000	355325.000000	1775778983.444833
-1597.995000	-540.045000	5393.970000	29153.160000	22590.180000	14442.885000	-31307.445000	-15863.895000	-2.102435	-2.682332	-3.016087	-3.467132	-4.740627	-12.857148	-1.246341	-1.037826	2.121140	1.526000	0.717220	-0.896970	-0.071838	0.424620	-1.000000	-1.000000	-1.000000	-1.000000	-1.000000	-1.000000	-1.000000	54.000000	0.000000	-1.000000	-1.000000	355326.000000	1775778983.453703
-1598.895000	-541.440000	5394.420000	29153.970000	22590.585000	14439.060000	-31311.810000	-15864.795000	0.210129	0.828898	0.411006	-1.155798	-4.362595	-19.463467	-7.696347	-0.986283	2.121140	1.526000	0.717220	-0.896970	-0.071838	0.424620	-1.000000	-1.000000	-1.000000	-1.000000	-1.000000	-1.000000	-1.000000	54.000000	0.000000	-1.000000	-1.000000	355327.000000	1775778983.453726
-1598.985000	-541.440000	5394.330000	29154.105000	22589.730000	14434.020000	-31318.020000	-15866.730000	2.474004	4.096212	4.007513	1.958310	-1.900899	-18.725363	-11.024195	-0.319178	2.121140	1.526000	0.717220	-0.896970	-0.071838	0.424620	-1.000000	-1.000000	-1.000000	-1.000000	-1.000000	-1.000000	-1.000000	54.000000	0.000000	-1.000000	-1.000000	355328.000000	1775778983.453754
-1599.705000	-542.205000	5393.385000	29154.060000	22588.605000	14434.155000	-31320.090000	-15867.765000	3.793512	5.744185	6.093631	4.357254	1.080339	-11.335434	-10.268448	0.496165	2.121140	1.526000	0.717220	-0.896970	-0.071838	0.424620	-1.000000	-1.000000	-1.000000	-1.000000	-1.000000	-1.000000	-1.000000	54.000000	0.000000	-1.000000	-1.000000	355329.000000	1775778983.453765
-1596.510000	-539.595000	5396.355000	29157.165000	22590.315000	14439.780000	-31317.975000	-15864.345000	4.021183	5.572396	6.040798	5.172218	3.150126	-0.760565	-6.198194	1.184879	1.617560	1.587040	0.930860	-0.896177	-0.068847	0.426207	-1.000000	-1.000000	-1.000000	-1.000000	-1.000000	-1.000000	-1.000000	54.000000	0.000000	-1.000000	-1.000000	355330.000000	1775778983.459500
-1597.455000	-539.730000	5395.005000	29155.545000	22587.525000	14442.705000	-31320.180000	-15865.605000	3.406238	4.117853	4.275952	4.366193	3.711265	9.042208	-0.449386	1.724814	1.617560	1.587040	0.930860	-0.896177	-0.068847	0.426207	-1.000000	-1.000000	-1.000000	-1.000000	-1.000000	-1.000000	-1.000000	54.000000	0.000000	-1.000000	-1.000000	355331.000000	1775778983.459526
-1594.530000	-536.715000	5394.240000	29154.420000	22583.835000	14445.900000	-31316.445000	-15862.590000	2.261380	2.123986	1.679914	2.385565	2.835091	14.957929	4.915242	2.028491	1.617560	1.587040	0.930860	-0.896177	-0.068847	0.426207	-1.000000	-1.000000	-1.000000	-1.000000	-1.000000	-1.000000	-1.000000	54.000000	0.000000	-1.000000	-1.000000	355332.000000	1775778983.461192
-1595.655000	-537.570000	5395.410000	29154.060000	22580.550000	14434.245000	-31319.055000	-15864.570000	0.845947	0.176331	-0.901681	-0.116789	0.962162	15.245395	8.122689	1.871341	1.617560	1.587040	0.930860	-0.896177	-0.068847	0.426207	-1.000000	-1.000000	-1.000000	-1.000000	-1.000000	-1.000000	-1.000000	54.000000	0.000000	-1.000000	-1.000000	355333.000000	1775778983.461214
-1589.805000	-530.550000	5402.610000	29160.945000	22584.465000	14416.020000	-31321.080000	-15859.440000	-0.508171	-1.306745	-2.585719	-2.159558	-0.975032	9.744147	8.305311	1.202718	1.617560	1.587040	0.930860	-0.896177	-0.068847	0.426207	-1.000000	-1.000000	-1.000000	-1.000000	-1.000000	-1.000000	-1.000000	54.000000	0.000000	-1.000000	-1.000000	355334.000000	1775778983.464941
-1586.115000	-526.230000	5407.245000	29166.075000	22589.415000	14405.760000	-31321.890000	-15856.200000	-1.336550	-1.940459	-2.672989	-2.711194	-1.741115	0.403525	5.743595	0.375726	1.617560	1.587040	0.930860	-0.896177	-0.068847	0.426207	-1.000000	-1.000000	-1.000000	-1.000000	-1.000000	-1.000000	-1.000000	54.000000	0.000000	-1.000000	-1.000000	355335.000000	1775778983.464961
-1586.790000	-527.040000	5407.560000	29167.335000	22597.110000	14424.975000	-31317.525000	-15856.560000	-1.453113	-1.726960	-1.423557	-1.648569	-0.697085	-8.071688	1.928477	-0.215075	1.617560	1.587040	0.930860	-0.896177	-0.068847	0.426207	-1.000000	-1.000000	-1.000000	-1.000000	-1.000000	-1.000000	-1.000000	54.000000	0.000000	-1.000000	-1.000000	355336.000000	1775778983.471259
-1592.955000	-534.105000	5401.755000	29163.285000	22600.755000	14456.385000	-31314.015000	-15861.915000	-1.433552	-1.497260	-0.228057	-0.198403	1.498413	-9.880063	-1.159719	-0.765213	1.617560	1.587040	0.930860	-0.896177	-0.068847	0.426207	-1.000000	-1.000000	-1.000000	-1.000000	-1.000000	-1.000000	-1.000000	54.000000	0.000000	-1.000000	-1.000000	355337.000000	1775778983.471281
-1598.760000	-541.035000	5395.050000	29157.660000	22593.780000	14464.260000	-31319.010000	-15867.225000	-2.088094	-2.228922	-0.499264	0.064373	3.066807	-3.139578	-2.518297	-1.792396	1.617560	1.587040	0.930860	-0.896177	-0.068847	0.426207	-1.000000	-1.000000	-1.000000	-1.000000	-1.000000	-1.000000	-1.000000	54.000000	0.000000	-1.000000	-1.000000	355338.000000	1775778983.475890
-1600.470000	-543.330000	5392.890000	29155.635000	22588.875000	14463.405000	-31320.900000	-15867.855000	-3.322473	-3.760379	-2.256584	-1.264211	2.251454	6.835845	-2.728781	-3.152011	1.617560	1.587040	0.930860	-0.896177	-0.068847	0.426207	-1.000000	-1.000000	-1.000000	-1.000000	-1.000000	-1.000000	-1.000000	54.000000	0.000000	-1.000000	-1.000000	355339.000000	1775778983.475915
-1597.905000	-541.215000	5392.620000	29154.645000	22587.075000	14465.835000	-31321.845000	-15865.830000	-3.905272	-4.593461	-3.932985	-2.993895	-0.959285	11.865514	-2.742179	-3.761327	0.076300	2.441600	1.815940	-0.898008	-0.065735	0.425353	-1.000000	-1.000000	-1.000000	-1.000000	-1.000000	-1.000000	-1.000000	54.000000	0.000000	-1.000000	-1.000000	355340.000000	1775778983.477215
-1593.855000	-537.210000	5395.815000	29154.915000	22588.245000	14462.820000	-31319.145000	-15862.095000	-2.588127	-3.225057	-3.743087	-3.477421	-4.433539	8.324257	-2.618830	-2.579246	0.076300	2.441600	1.815940	-0.898008	-0.065735	0.425353	-1.000000	-1.000000	-1.000000	-1.000000	-1.000000	-1.000000	-1.000000	54.000000	0.000000	-1.000000	-1.000000	355341.000000	1775778983.477230
-1590.390000	-533.790000	5398.560000	29158.470000	22592.970000	14459.220000	-31314.825000	-15857.235000	0.575105	0.340412	-1.213863	-1.993807	-5.648110	-1.016340	-1.798244	0.286346	0.076300	2.441600	1.815940	-0.898008	-0.065735	0.425353	-1.000000	-1.000000	-1.000000	-1.000000	-1.000000	-1.000000	-1.000000	54.000000	0.000000	-1.000000	-1.000000	355342.000000	1775778983.480795
-1593.855000	-539.865000	5390.865000	29151.495000	22586.580000	14448.510000	-31317.030000	-15859.260000	3.970751	4.267200	2.295084	0.724911	-3.846237	-10.608667	-0.175755	3.435113	0.076300	2.441600	1.815940	-0.898008	-0.065735	0.425353	-1.000000	-1.000000	-1.000000	-1.000000	-1.000000	-1.000000	-1.000000	54.000000	0.000000	-1.000000	-1.000000	355343.000000	1775778983.480820
-1595.430000	-542.430000	5387.085000	29148.255000	22582.755000	14450.445000	-31312.800000	-15858.045000	5.501246	6.095541	4.453978	2.919246	-0.628978	-15.863184	1.479696	5.036981	0.076300	2.441600	1.815940	-0.898008	-0.065735	0.425353	-1.000000	-1.000000	-1.000000	-1.000000	-1.000000	-1.000000	-1.000000	54.000000	0.000000	-1.000000	-1.000000	355344.000000	1775778983.490582
-1592.865000	-539.865000	5389.470000	29150.460000	22584.105000	14453.280000	-31310.955000	-15854.940000	4.343375	4.867154	4.072574	3.366774	1.834874	-14.622835	2.351448	4.277079	0.076300	2.441600	1.815940	-0.898008	-0.065735	0.425353	-1.000000	-1.000000	-1.000000	-1.000000	-1.000000	-1.000000	-1.000000	54.000000	0.000000	-1.000000	-1.000000	355345.000000	1775778983.490607
-1591.785000	-536.445000	5395.230000	29154.780000	22586.670000	14446.620000	-31317.795000	-15856.380000	1.609431	1.972525	2.249881	2.570745	2.874792	-7.753013	2.100149	1.891893	0.076300	2.441600	1.815940	-0.898008	-0.065735	0.425353	-1.000000	-1.000000	-1.000000	-1.000000	-1.000000	-1.000000	-1.000000	54.000000	0.000000	-1.000000	-1.000000	355346.000000	1775778983.490635
-1586.340000	-530.145000	5402.610000	29161.215000	22590.855000	14440.050000	-31319.370000	-15852.015000	-0.844526	-0.376552	0.975631	1.879355	3.130343	0.980967	0.648392	-0.739774	0.076300	2.441600	1.815940	-0.898008	-0.065735	0.425353	-1.000000	-1.000000	-1.000000	-1.000000	-1.000000	-1.000000	-1.000000	54.000000	0.000000	-1.000000	-1.000000	355347.000000	1775778983.490646
-1585.890000	-529.965000	5403.195000	29162.835000	22591.845000	14429.430000	-31321.125000	-15852.105000	-1.894564	-1.097166	1.024919	1.882063	3.158959	7.237682	-1.448199	-2.495083	0.076300	2.441600	1.815940	-0.898008	-0.065735	0.425353	-1.000000	-1.000000	-1.000000	-1.000000	-1.000000	-1.000000	-1.000000	54.000000	0.000000	-1.000000	-1.000000	355348.000000	1775778983.493770
-1588.095000	-531.270000	5402.385000	29163.825000	22593.060000	14414.355000	-31331.160000	-15855.120000	-1.744102	-0.794014	1.418035	1.954516	2.828941	8.770372	-3.115345	-3.023522	0.076300	2.441600	1.815940	-0.898008	-0.065735	0.425353	-1.000000	-1.000000	-1.000000	-1.000000	-1.000000	-1.000000	-1.000000	54.000000	0.000000	-1.000000	-1.000000	355349.000000	1775778983.493791
-1587.420000	-529.605000	5404.410000	29166.120000	22593.555000	14410.710000	-31335.525000	-15856.740000	-1.366706	-0.691800	0.817178	1.194982	1.779789	6.250285	-3.757921	-2.789985	-2.105880	2.533160	0.549360	-0.899595	-0.063721	0.424376	-1.000000	-1.000000	-1.000000	-1.000000	-1.000000	-1.000000	-1.000000	54.000000	0.000000	-1.000000	-1.000000	355350.000000	1775778983.501766
-1582.650000	-524.790000	5408.955000	29170.620000	22597.020000	14419.935000	-31329.585000	-15853.680000	-1.225808	-1.131872	-0.828120	-0.410200	0.131830	2.752465	-3.104003	-2.229231	-2.105880	2.533160	0.549360	-0.899595	-0.063721	0.424376	-1.000000	-1.000000	-1.000000	-1.000000	-1.000000	-1.000000	-1.000000	54.000000	0.000000	-1.000000	-1.000000	355351.000000	1775778983.501791
-1579.815000	-523.980000	5409.045000	29169.810000	22595.760000	14435.820000	-31325.535000	-15851.160000	-0.930788	-1.502958	-2.430461	-2.063984	-1.495531	1.815955	-0.748299	-1.215520	-2.105880	2.533160	0.549360	-0.899595	-0.063721	0.424376	-1.000000	-1.000000	-1.000000	-1.000000	-1.000000	-1.000000	-1.000000	54.000000	0.000000	-1.000000	-1.000000	355352.000000	1775778983.501817
-1583.145000	-528.840000	5402.385000	29161.485000	22587.210000	14455.125000	-31313.925000	-15852.645000	-0.270247	-1.475996	-3.277977	-3.279713	-2.738529	4.667736	3.039142	0.278130	-2.105880	2.533160	0.549360	-0.899595	-0.063721	0.424376	-1.000000	-1.000000	-1.000000	-1.000000	-1.000000	-1.000000	-1.000000	54.000000	0.000000	-1.000000	-1.000000	355353.000000	1775778983.501829
-1589.985000	-537.345000	5394.195000	29153.565000	22584.105000	14466.825000	-31301.730000	-15855.165000	0.099897	-1.574107	-3.690885	-4.287923	-3.732224	9.109434	6.923872	1.574638	-2.105880	2.533160	0.549360	-0.899595	-0.063721	0.424376	-1.000000	-1.000000	-1.000000	-1.000000	-1.000000	-1.000000	-1.000000	54.000000	0.000000	-1.000000	-1.000000	355354.000000	1775778983.517592
-1595.385000	-544.815000	5387.040000	29148.255000	22583.160000	14449.410000	-31309.020000	-15857.595000	-0.552241	-2.325215	-4.105190	-5.113449	-4.261332	10.677726	8.905263	1.855515	-2.105880	2.533160	0.549360	-0.899595	-0.063721	0.424376	-1.000000	-1.000000	-1.000000	-1.000000	-1.000000	-1.000000	-1.000000	54.000000	0.000000	-1.000000	-1.000000	355355.000000	1775778983.517618
-1596.510000	-548.190000	5380.875000	29147.535000	22580.235000	14433.255000	-31310.055000	-15855.930000	-1.867038	-3.271818	-4.189840	-4.939620	-3.610106	5.523663	7.037958	1.105146	-2.105880	2.533160	0.549360	-0.899595	-0.063721	0.424376	-1.000000	-1.000000	-1.000000	-1.000000	-1.000000	-1.000000	-1.000000	54.000000	0.000000	-1.000000	-1.000000	355356.000000	1775778983.517644
-1597.005000	-548.775000	5373.135000	29146.230000	22579.425000	14440.095000	-31309.560000	-15856.560000	-2.516675	-3.163800	-3.253463	-2.894293	-1.587378	-5.387780	1.373569	0.134790	-2.105880	2.533160	0.549360	-0.899595	-0.063721	0.424376	-1.000000	-1.000000	-1.000000	-1.000000	-1.000000	-1.000000	-1.000000	54.000000	0.000000	-1.000000	-1.000000	355357.000000	1775778983.517655
-1594.845000	-547.020000	5374.395000	29149.155000	22583.430000	14458.860000	-31307.130000	-15854.220000	-1.495466	-1.147111	-1.018108	0.829301	1.183264	-15.165213	-5.185800	-0.268241	-2.105880	2.533160	0.549360	-0.899595	-0.063721	0.424376	-1.000000	-1.000000	-1.000000	-1.000000	-1.000000	-1.000000	-1.000000	54.000000	0.000000	-1.000000	-1.000000	355358.000000	1775778983.517668
-1592.235000	-543.645000	5380.920000	29154.735000	22583.880000	14447.610000	-31310.865000	-15852.735000	0.988219	2.354309	2.355392	4.971605	3.812107	-17.081142	-9.232316	0.071574	-2.105880	2.533160	0.549360	-0.899595	-0.063721	0.424376	-1.000000	-1.000000	-1.000000	-1.000000	-1.000000	-1.000000	-1.000000	54.000000	0.000000	-1.000000	-1.000000	355359.000000	1775778983.517678
-1589.580000	-537.165000	5390.100000	29153.025000	22583.250000	14427.855000	-31317.075000	-15852.690000	3.730506	5.905085	6.321494	7.905063	5.348929	-11.574339	-9.516820	0.761965	-4.410140	3.326680	-0.320460	-0.897825	-0.064209	0.424437	-1.000000	-1.000000	-1.000000	-1.000000	-1.000000	-1.000000	-1.000000	54.000000	0.000000	-1.000000	-1.000000	355360.000000	1775778983.517690
-1590.705000	-534.240000	5396.760000	29148.975000	22583.520000	14424.030000	-31320.315000	-15855.165000	5.283617	7.951477	9.628707	8.152405	5.069065	-4.430189	-7.038198	1.119460	-4.410140	3.326680	-0.320460	-0.897825	-0.064209	0.424437	-1.000000	-1.000000	-1.000000	-1.000000	-1.000000	-1.000000	-1.000000	54.000000	0.000000	-1.000000	-1.000000	355361.000000	1775778983.517700
-1588.320000	-530.640000	5405.085000	29166.930000	22590.315000	14443.605000	-31315.545000	-15852.780000	4.778740	7.512929	10.629727	5.587404	3.204901	0.878126	-3.247181	0.721918	-4.410140	3.326680	-0.320460	-0.897825	-0.064209	0.424437	-1.000000	-1.000000	-1.000000	-1.000000	-1.000000	-1.000000	-1.000000	54.000000	0.000000	-1.000000	-1.000000	355362.000000	1775778983.523487
-1591.515000	-535.545000	5400.405000	29168.820000	22588.605000	14463.540000	-31315.905000	-15855.030000	2.436228	4.487562	8.226494	2.106270	0.867418	5.570927	0.970915	-0.174996	-4.410140	3.326680	-0.320460	-0.897825	-0.064209	0.424437	-1.000000	-1.000000	-1.000000	-1.000000	-1.000000	-1.000000	-1.000000	54.000000	0.000000	-1.000000	-1.000000	355363.000000	1775778983.523512
-1591.020000	-535.365000	5399.910000	29172.330000	22591.305000	14479.020000	-31314.330000	-15853.140000	-0.688698	-0.275217	2.561947	-0.502933	-1.056224	11.013925	4.720617	-0.979303	-4.410140	3.326680	-0.320460	-0.897825	-0.064209	0.424437	-1.000000	-1.000000	-1.000000	-1.000000	-1.000000	-1.000000	-1.000000	54.000000	0.000000	-1.000000	-1.000000	355364.000000	1775778983.532954
-1588.320000	-532.845000	5401.260000	29176.380000	22592.790000	14468.535000	-31316.580000	-15851.430000	-3.247481	-4.968501	-4.511789	-2.183307	-2.295149	14.898496	6.815460	-1.231775	-4.410140	3.326680	-0.320460	-0.897825	-0.064209	0.424437	-1.000000	-1.000000	-1.000000	-1.000000	-1.000000	-1.000000	-1.000000	54.000000	0.000000	-1.000000	-1.000000	355365.000000	1775778983.532980
-1589.220000	-533.475000	5397.120000	29165.985000	22590.225000	14458.185000	-31318.740000	-15853.095000	-4.188864	-7.550455	-10.047432	-3.650101	-2.855750	12.929806	6.481272	-0.842476	-4.410140	3.326680	-0.320460	-0.897825	-0.064209	0.424437	-1.000000	-1.000000	-1.000000	-1.000000	-1.000000	-1.000000	-1.000000	54.000000	0.000000	-1.000000	-1.000000	355366.000000	1775778983.533004
-1589.715000	-533.475000	5394.285000	29146.230000	22590.810000	14454.090000	-31317.660000	-15852.645000	-3.457184	-7.181067	-11.986029	-5.698108	-2.927942	3.958727	4.037089	-0.203436	-4.410140	3.326680	-0.320460	-0.897825	-0.064209	0.424437	-1.000000	-1.000000	-1.000000	-1.000000	-1.000000	-1.000000	-1.000000	54.000000	0.000000	-1.000000	-1.000000	355367.000000	1775778983.533016
-1591.920000	-536.580000	5393.205000	29147.895000	22590.900000	14449.725000	-31317.705000	-15853.455000	-1.915839	-4.673919	-10.164867	-8.266784	-2.633748	-7.672749	0.844426	0.205212	-4.410140	3.326680	-0.320460	-0.897825	-0.064209	0.424437	-1.000000	-1.000000	-1.000000	-1.000000	-1.000000	-1.000000	-1.000000	54.000000	0.000000	-1.000000	-1.000000	355368.000000	1775778983.533043
-1588.095000	-532.440000	5397.795000	29158.470000	22593.375000	14447.835000	-31318.245000	-15851.880000	-0.423085	-1.502129	-5.628076	-9.047409	-1.857557	-15.582864	-1.636344	0.278006	-4.410140	3.326680	-0.320460	-0.897825	-0.064209	0.424437	-1.000000	-1.000000	-1.000000	-1.000000	-1.000000	-1.000000	-1.000000	54.000000	0.000000	-1.000000	-1.000000	355369.000000	1775778983.533055
-1587.420000	-530.550000	5399.640000	29161.260000	22592.295000	14446.170000	-31319.820000	-15852.465000	0.760526	1.321924	0.101546	-5.416042	-0.608712	-16.139609	-2.769328	0.210238	-3.708180	3.723440	-0.244160	-0.896116	-0.066406	0.423888	-1.000000	-1.000000	-1.000000	-1.000000	-1.000000	-1.000000	-1.000000	54.000000	0.000000	-1.000000	-1.000000	355370.000000	1775778983.544187
-1584.540000	-529.020000	5399.460000	29160.270000	22587.930000	14440.005000	-31320.315000	-15849.180000	1.662588	3.330273	5.165221	1.760046	0.610918	-10.174725	-2.740413	0.216794	-3.708180	3.723440	-0.244160	-0.896116	-0.066406	0.423888	-1.000000	-1.000000	-1.000000	-1.000000	-1.000000	-1.000000	-1.000000	54.000000	0.000000	-1.000000	-1.000000	355371.000000	1775778983.544213
-1582.605000	-528.480000	5398.470000	29158.830000	22583.385000	14429.340000	-31321.575000	-15846.390000	2.178960	4.153501	7.788006	8.322416	1.053765	-1.705246	-2.036202	0.432014	-3.708180	3.723440	-0.244160	-0.896116	-0.066406	0.423888	-1.000000	-1.000000	-1.000000	-1.000000	-1.000000	-1.000000	-1.000000	54.000000	0.000000	-1.000000	-1.000000	355372.000000	1775778983.544242
-1580.895000	-527.130000	5398.785000	29159.685000	22582.890000	14419.260000	-31324.500000	-15845.085000	2.140665	3.626389	7.263978	10.691164	0.550175	4.886923	-1.134487	0.808183	-3.708180	3.723440	-0.244160	-0.896116	-0.066406	0.423888	-1.000000	-1.000000	-1.000000	-1.000000	-1.000000	-1.000000	-1.000000	54.000000	0.000000	-1.000000	-1.000000	355373.000000	1775778983.544255
-1578.015000	-524.835000	5401.125000	29161.485000	22584.060000	14414.130000	-31326.390000	-15843.240000	1.524207	2.112249	4.450796	8.439830	-0.134824	7.489346	-0.415774	1.028380	-3.708180	3.723440	-0.244160	-0.896116	-0.066406	0.423888	-1.000000	-1.000000	-1.000000	-1.000000	-1.000000	-1.000000	-1.000000	54.000000	0.000000	-1.000000	-1.000000	355374.000000	1775778983.547716
-1581.570000	-527.895000	5398.740000	29160.945000	22588.110000	14422.005000	-31322.295000	-15845.040000	0.457022	0.283920	1.033802	3.663782	-0.012530	7.085953	0.094420	0.736659	-3.708180	3.723440	-0.244160	-0.896116	-0.066406	0.423888	-1.000000	-1.000000	-1.000000	-1.000000	-1.000000	-1.000000	-1.000000	54.000000	0.000000	-1.000000	-1.000000	355375.000000	1775778983.547742
-1583.955000	-529.470000	5396.130000	29161.260000	22593.060000	14436.765000	-31315.320000	-15845.175000	-0.945227	-1.385597	-1.721748	-1.094508	1.212157	6.390472	0.848211	-0.153790	-3.708180	3.723440	-0.244160	-0.896116	-0.066406	0.423888	-1.000000	-1.000000	-1.000000	-1.000000	-1.000000	-1.000000	-1.000000	54.000000	0.000000	-1.000000	-1.000000	355376.000000	1775778983.549986
-1588.230000	-532.665000	5394.060000	29161.395000	22596.660000	14450.895000	-31318.020000	-15849.810000	-2.451680	-2.642356	-3.365110	-4.188793	2.892551	7.234651	2.019161	-1.374989	-3.708180	3.723440	-0.244160	-0.896116	-0.066406	0.423888	-1.000000	-1.000000	-1.000000	-1.000000	-1.000000	-1.000000	-1.000000	54.000000	0.000000	-1.000000	-1.000000	355377.000000	1775778983.550003
-1590.750000	-533.385000	5395.950000	29164.050000	22598.775000	14457.870000	-31321.845000	-15853.770000	-3.515346	-3.188059	-3.755516	-5.064542	3.871316	8.786748	2.709978	-2.490052	-3.708180	3.723440	-0.244160	-0.896116	-0.066406	0.423888	-1.000000	-1.000000	-1.000000	-1.000000	-1.000000	-1.000000	-1.000000	54.000000	0.000000	-1.000000	-1.000000	355378.000000	1775778983.553066
-1593.945000	-535.770000	5394.780000	29164.320000	22599.360000	14478.660000	-31320.540000	-15856.290000	-3.546802	-2.774328	-2.856769	-4.034204	3.262844	8.685910	1.894909	-3.056467	-3.708180	3.723440	-0.244160	-0.896116	-0.066406	0.423888	-1.000000	-1.000000	-1.000000	-1.000000	-1.000000	-1.000000	-1.000000	54.000000	0.000000	-1.000000	-1.000000	355379.000000	1775778983.553085
-1597.590000	-541.440000	5387.895000	29156.985000	22591.485000	14476.860000	-31321.395000	-15858.045000	-2.394158	-1.578004	-1.200919	-2.163952	0.931281	5.543427	-0.096253	-2.671201	-1.693860	4.181240	-0.061040	-0.896482	-0.068847	0.424010	-1.000000	-1.000000	-1.000000	-1.000000	-1.000000	-1.000000	-1.000000	54.000000	0.000000	-1.000000	-1.000000	355380.000000	1775778983.559535
-1593.720000	-539.685000	5388.300000	29154.510000	22587.660000	14465.970000	-31320.540000	-15853.005000	-0.383806	-0.146659	0.203045	-0.804409	-2.503872	-0.692229	-1.938115	-1.128357	-1.693860	4.181240	-0.061040	-0.896482	-0.068847	0.424010	-1.000000	-1.000000	-1.000000	-1.000000	-1.000000	-1.000000	-1.000000	54.000000	0.000000	-1.000000	-1.000000	355381.000000	1775778983.559559
-1589.580000	-539.145000	5384.250000	29149.560000	22583.610000	14456.160000	-31318.605000	-15847.470000	2.070632	1.211495	0.843984	-0.518892	-5.671785	-9.032403	-2.598172	1.417923	-1.693860	4.181240	-0.061040	-0.896482	-0.068847	0.424010	-1.000000	-1.000000	-1.000000	-1.000000	-1.000000	-1.000000	-1.000000	54.000000	0.000000	-1.000000	-1.000000	355382.000000	1775778983.563206
-1593.450000	-542.790000	5382.270000	29148.525000	22581.270000	14450.265000	-31319.370000	-15851.340000	4.302240	2.367989	0.934310	-0.740130	-6.947568	-16.625277	-1.930506	4.082153	-1.693860	4.181240	-0.061040	-0.896482	-0.068847	0.424010	-1.000000	-1.000000	-1.000000	-1.000000	-1.000000	-1.000000	-1.000000	54.000000	0.000000	-1.000000	-1.000000	355383.000000	1775778983.563231
-1591.515000	-538.470000	5388.570000	29157.075000	22588.155000	14455.845000	-31317.795000	-15849.765000	5.196062	2.984987	0.980538	-0.383084	-5.395593	-19.436575	-0.571429	5.312449	-1.693860	4.181240	-0.061040	-0.896482	-0.068847	0.424010	-1.000000	-1.000000	-1.000000	-1.000000	-1.000000	-1.000000	-1.000000	54.000000	0.000000	-1.000000	-1.000000	355384.000000	1775778983.578953
-1590.975000	-536.040000	5391.990000	29160.720000	22589.775000	14452.650000	-31321.305000	-15850.890000	4.171501	2.950696	1.547177	1.312034	-1.316878	-15.129187	0.588084	4.220621	-1.693860	4.181240	-0.061040	-0.896482	-0.068847	0.424010	-1.000000	-1.000000	-1.000000	-1.000000	-1.000000	-1.000000	-1.000000	54.000000	0.000000	-1.000000	-1.000000	355385.000000	1775778983.578980
-1589.130000	-534.240000	5394.285000	29161.170000	22590.135000	14447.070000	-31325.355000	-15850.530000	1.869372	2.496877	2.607446	3.761626	3.546012	-5.444533	0.877514	1.457844	-1.693860	4.181240	-0.061040	-0.896482	-0.068847	0.424010	-1.000000	-1.000000	-1.000000	-1.000000	-1.000000	-1.000000	-1.000000	54.000000	0.000000	-1.000000	-1.000000	355386.000000	1775778983.579004
-1579.860000	-522.945000	5407.605000	29171.475000	22599.180000	14440.815000	-31325.445000	-15842.655000	-0.384940	1.874896	3.473242	5.353571	6.910764	4.756868	0.227218	-1.349103	-1.693860	4.181240	-0.061040	-0.896482	-0.068847	0.424010	-1.000000	-1.000000	-1.000000	-1.000000	-1.000000	-1.000000	-1.000000	54.000000	0.000000	-1.000000	-1.000000	355387.000000	1775778983.579016
-1571.175000	-512.370000	5418.630000	29181.915000	22607.280000	14416.335000	-31336.605000	-15835.590000	-1.361939	1.486918	3.779366	5.269461	7.725681	10.774862	-0.835432	-2.587866	-1.693860	4.181240	-0.061040	-0.896482	-0.068847	0.424010	-1.000000	-1.000000	-1.000000	-1.000000	-1.000000	-1.000000	-1.000000	54.000000	0.000000	-1.000000	-1.000000	355388.000000	1775778983.579143
-1565.055000	-506.925000	5419.755000	29183.670000	22605.480000	14397.345000	-31348.710000	-15832.215000	-0.791131	1.484982	3.377381	3.818410	6.249097	10.421966	-1.950561	-1.811134	-1.693860	4.181240	-0.061040	-0.896482	-0.068847	0.424010	-1.000000	-1.000000	-1.000000	-1.000000	-1.000000	-1.000000	-1.000000	54.000000	0.000000	-1.000000	-1.000000	355389.000000	1775778983.579155
-1563.345000	-504.045000	5423.850000	29184.480000	22595.895000	14382.180000	-31348.395000	-15832.665000	0.259137	1.159660	1.693009	1.259722	2.751276	5.118403	-2.843936	-0.220256	-0.595140	3.097780	-0.442540	-0.899595	-0.069458	0.423644	-1.000000	-1.000000	-1.000000	-1.000000	-1.000000	-1.000000	-1.000000	54.000000	0.000000	-1.000000	-1.000000	355390.000000	1775778983.579177
-1578.240000	-522.630000	5402.430000	29167.155000	22579.020000	14382.540000	-31340.655000	-15844.095000	0.030850	-0.711565	-1.822302	-2.489573	-2.566179	-0.668895	-2.405122	0.270637	-0.595140	3.097780	-0.442540	-0.899595	-0.069458	0.423644	-1.000000	-1.000000	-1.000000	-1.000000	-1.000000	-1.000000	-1.000000	54.000000	0.000000	-1.000000	-1.000000	355391.000000	1775778983.579189
-1595.655000	-546.165000	5372.010000	29144.970000	22572.675000	14439.555000	-31315.635000	-15852.060000	-2.752882	-5.002859	-7.305552	-7.367558	-8.389407	-1.450636	0.789727	-1.435877	-0.595140	3.097780	-0.442540	-0.899595	-0.069458	0.423644	-1.000000	-1.000000	-1.000000	-1.000000	-1.000000	-1.000000	-1.000000	54.000000	0.000000	-1.000000	-1.000000	355392.000000	1775778983.581735
-1605.870000	-556.695000	5364.765000	29136.285000	22565.880000	14475.060000	-31309.020000	-15857.910000	-7.376734	-10.709803	-13.418157	-12.150176	-11.964856	6.089100	6.457959	-4.481694	-0.595140	3.097780	-0.442540	-0.899595	-0.069458	0.423644	-1.000000	-1.000000	-1.000000	-1.000000	-1.000000	-1.000000	-1.000000	54.000000	0.000000	-1.000000	-1.000000	355393.000000	1775778983.581754
-1601.280000	-549.990000	5376.330000	29144.160000	22576.815000	14494.185000	-31308.570000	-15853.230000	-10.566278	-13.980534	-15.950383	-13.668033	-10.649327	18.367277	11.306121	-6.346688	-0.595140	3.097780	-0.442540	-0.899595	-0.069458	0.423644	-1.000000	-1.000000	-1.000000	-1.000000	-1.000000	-1.000000	-1.000000	54.000000	0.000000	-1.000000	-1.000000	355394.000000	1775778983.586308
-1601.190000	-550.530000	5376.285000	29147.355000	22588.155000	14503.905000	-31307.715000	-15851.565000	-8.793261	-10.799277	-10.739449	-8.937159	-3.861030	25.430369	11.164864	-4.831568	-0.595140	3.097780	-0.442540	-0.899595	-0.069458	0.423644	-1.000000	-1.000000	-1.000000	-1.000000	-1.000000	-1.000000	-1.000000	54.000000	0.000000	-1.000000	-1.000000	355395.000000	1775778983.586324
-1599.795000	-548.055000	5378.625000	29149.785000	22586.805000	14483.205000	-31314.420000	-15851.565000	-1.805810	-1.373158	1.070873	1.121029	5.767056	19.155974	4.943506	-0.143704	-0.595140	3.097780	-0.442540	-0.899595	-0.069458	0.423644	-1.000000	-1.000000	-1.000000	-1.000000	-1.000000	-1.000000	-1.000000	54.000000	0.000000	-1.000000	-1.000000	355396.000000	1775778983.590288
-1599.120000	-545.400000	5380.245000	29151.270000	22582.485000	14466.150000	-31321.935000	-15854.265000	6.845407	9.574378	13.245742	11.527986	13.069151	-0.240258	-4.551284	5.055656	-0.595140	3.097780	-0.442540	-0.899595	-0.069458	0.423644	-1.000000	-1.000000	-1.000000	-1.000000	-1.000000	-1.000000	-1.000000	54.000000	0.000000	-1.000000	-1.000000	355397.000000	1775778983.590307
-1598.310000	-543.645000	5382.675000	29152.845000	22582.530000	14461.155000	-31323.330000	-15853.770000	12.735385	16.660846	19.697721	17.086381	13.924448	-23.918642	-12.785882	7.856895	-0.595140	3.097780	-0.442540	-0.899595	-0.069458	0.423644	-1.000000	-1.000000	-1.000000	-1.000000	-1.000000	-1.000000	-1.000000	54.000000	0.000000	-1.000000	-1.000000	355398.000000	1775778983.592976
-1596.645000	-542.070000	5384.790000	29153.880000	22583.520000	14459.850000	-31322.250000	-15850.845000	13.479639	17.151623	18.269147	15.752659	8.547088	-39.416532	-15.871300	7.285244	-0.595140	3.097780	-0.442540	-0.899595	-0.069458	0.423644	-1.000000	-1.000000	-1.000000	-1.000000	-1.000000	-1.000000	-1.000000	54.000000	0.000000	-1.000000	-1.000000	355399.000000	1775778983.593000
-1591.425000	-538.380000	5387.040000	29155.905000	22584.735000	14459.355000	-31318.875000	-15845.040000	9.625708	11.776601	10.852657	9.106012	0.717697	-38.751544	-12.464511	4.533811	-0.442540	2.838360	-0.885080	-0.900022	-0.069519	0.422240	-1.000000	-1.000000	-1.000000	-1.000000	-1.000000	-1.000000	-1.000000	54.000000	0.000000	-1.000000	-1.000000	355400.000000	1775778983.609590
-1591.155000	-536.130000	5389.920000	29157.840000	22587.480000	14455.080000	-31321.170000	-15844.815000	3.625963	3.639579	1.410643	0.719020	-5.459077	-23.289278	-4.524836	1.458325	-0.442540	2.838360	-0.885080	-0.900022	-0.069519	0.422240	-1.000000	-1.000000	-1.000000	-1.000000	-1.000000	-1.000000	-1.000000	54.000000	0.000000	-1.000000	-1.000000	355401.000000	1775778983.609617
-1589.940000	-532.440000	5394.330000	29161.935000	22591.530000	14457.060000	-31321.395000	-15843.735000	-2.036885	-3.789333	-6.270230	-5.949905	-7.813745	-1.542106	3.890957	-0.939667	-0.442540	2.838360	-0.885080	-0.900022	-0.069519	0.422240	-1.000000	-1.000000	-1.000000	-1.000000	-1.000000	-1.000000	-1.000000	54.000000	0.000000	-1.000000	-1.000000	355402.000000	1775778983.609644
-1593.045000	-535.770000	5391.720000	29160.945000	22589.820000	14454.360000	-31325.580000	-15846.840000	-5.961728	-8.360896	-10.145427	-9.052260	-6.576132	16.913913	9.115813	-2.648350	-0.442540	2.838360	-0.885080	-0.900022	-0.069519	0.422240	-1.000000	-1.000000	-1.000000	-1.000000	-1.000000	-1.000000	-1.000000	54.000000	0.000000	-1.000000	-1.000000	355403.000000	1775778983.609657
-1591.380000	-536.175000	5390.460000	29159.460000	22588.830000	14450.940000	-31325.715000	-15845.040000	-7.724276	-9.761563	-10.373263	-8.793012	-3.651263	26.075360	9.758824	-3.830259	-0.442540	2.838360	-0.885080	-0.900022	-0.069519	0.422240	-1.000000	-1.000000	-1.000000	-1.000000	-1.000000	-1.000000	-1.000000	54.000000	0.000000	-1.000000	-1.000000	355404.000000	1775778983.609672
-1588.140000	-534.825000	5390.505000	29159.190000	22588.560000	14451.615000	-31323.645000	-15841.440000	-7.305444	-8.703869	-8.318851	-6.602444	-1.058720	24.957846	6.935769	-4.205510	-0.442540	2.838360	-0.885080	-0.900022	-0.069519	0.422240	-1.000000	-1.000000	-1.000000	-1.000000	-1.000000	-1.000000	-1.000000	54.000000	0.000000	-1.000000	-1.000000	355405.000000	1775778983.609684
-1588.725000	-533.565000	5392.305000	29161.080000	22591.395000	14453.685000	-31323.645000	-15842.655000	-5.018369	-5.972456	-5.183940	-3.781446	0.391275	16.798530	3.024842	-3.392649	-0.442540	2.838360	-0.885080	-0.900022	-0.069519	0.422240	-1.000000	-1.000000	-1.000000	-1.000000	-1.000000	-1.000000	-1.000000	54.000000	0.000000	-1.000000	-1.000000	355406.000000	1775778983.612017
-1589.040000	-533.115000	5392.305000	29160.945000	22591.170000	14452.920000	-31324.680000	-15842.565000	-1.865063	-2.401634	-1.724154	-1.006546	1.013435	6.532048	-0.116205	-1.716230	-0.442540	2.838360	-0.885080	-0.900022	-0.069519	0.422240	-1.000000	-1.000000	-1.000000	-1.000000	-1.000000	-1.000000	-1.000000	54.000000	0.000000	-1.000000	-1.000000	355407.000000	1775778983.612041
-1591.020000	-535.725000	5387.040000	29156.760000	22587.885000	14448.420000	-31329.000000	-15844.545000	0.797347	0.907170	1.254589	1.209709	1.206310	-2.057480	-1.981557	-0.080675	-0.442540	2.838360	-0.885080	-0.900022	-0.069519	0.422240	-1.000000	-1.000000	-1.000000	-1.000000	-1.000000	-1.000000	-1.000000	54.000000	0.000000	-1.000000	-1.000000	355408.000000	1775778983.621127
-1589.715000	-535.365000	5381.280000	29152.305000	22586.760000	14446.170000	-31328.100000	-15841.845000	2.159425	2.948389	2.813903	2.267205	0.968236	-7.404534	-2.857997	0.902880	-0.442540	2.838360	-0.885080	-0.900022	-0.069519	0.422240	-1.000000	-1.000000	-1.000000	-1.000000	-1.000000	-1.000000	-1.000000	54.000000	0.000000	-1.000000	-1.000000	355409.000000	1775778983.621151
-1588.230000	-534.195000	5382.405000	29152.035000	22587.930000	14448.600000	-31329.855000	-15841.530000	2.361031	3.464454	2.689906	2.031252	0.409874	-9.326036	-2.952493	1.296032	-1.464960	2.884140	-1.022420	-0.898740	-0.069824	0.421325	-1.000000	-1.000000	-1.000000	-1.000000	-1.000000	-1.000000	-1.000000	54.000000	0.000000	-1.000000	-1.000000	355410.000000	1775778983.621176
-1581.390000	-526.005000	5393.430000	29158.650000	22590.720000	14448.870000	-31333.725000	-15839.325000	2.148708	3.115162	2.005007	1.352044	0.063778	-8.167299	-2.374403	1.438886	-1.464960	2.884140	-1.022420	-0.898740	-0.069824	0.421325	-1.000000	-1.000000	-1.000000	-1.000000	-1.000000	-1.000000	-1.000000	54.000000	0.000000	-1.000000	-1.000000	355411.000000	1775778983.621189
-1575.900000	-516.645000	5409.360000	29171.205000	22594.770000	14446.170000	-31340.205000	-15838.830000	2.205881	2.914514	2.519530	1.579667	0.401326	-4.970212	-1.557972	1.475050	-1.464960	2.884140	-1.022420	-0.898740	-0.069824	0.421325	-1.000000	-1.000000	-1.000000	-1.000000	-1.000000	-1.000000	-1.000000	54.000000	0.000000	-1.000000	-1.000000	355412.000000	1775778983.622967
-1574.370000	-512.820000	5417.505000	29180.790000	22592.655000	14430.555000	-31347.090000	-15839.640000	2.512518	3.226518	4.695208	3.272241	1.223821	-1.692378	-1.060004	1.285473	-1.464960	2.884140	-1.022420	-0.898740	-0.069824	0.421325	-1.000000	-1.000000	-1.000000	-1.000000	-1.000000	-1.000000	-1.000000	54.000000	0.000000	-1.000000	-1.000000	355413.000000	1775778983.622984
-1571.400000	-511.380000	5419.845000	29188.755000	22596.390000	14425.695000	-31339.395000	-15833.790000	2.345580	3.238595	6.680050	5.356171	1.748381	-0.194436	-0.769105	0.813908	-1.464960	2.884140	-1.022420	-0.898740	-0.069824	0.421325	-1.000000	-1.000000	-1.000000	-1.000000	-1.000000	-1.000000	-1.000000	54.000000	0.000000	-1.000000	-1.000000	355414.000000	1775778983.624240
-1583.955000	-527.535000	5402.700000	29172.105000	22589.280000	14418.810000	-31326.840000	-15838.020000	0.923010	1.566107	5.554875	5.496509	1.328815	-0.550841	0.417506	0.254093	-1.464960	2.884140	-1.022420	-0.898740	-0.069824	0.421325	-1.000000	-1.000000	-1.000000	-1.000000	-1.000000	-1.000000	-1.000000	54.000000	0.000000	-1.000000	-1.000000	355415.000000	1775778983.624259
-1595.790000	-541.800000	5386.590000	29156.580000	22578.525000	14420.610000	-31321.755000	-15845.220000	-2.099072	-2.539208	-0.190022	1.601094	-0.290105	-1.046328	3.181793	-0.470369	-1.464960	2.884140	-1.022420	-0.898740	-0.069824	0.421325	-1.000000	-1.000000	-1.000000	-1.000000	-1.000000	-1.000000	-1.000000	54.000000	0.000000	-1.000000	-1.000000	355416.000000	1775778983.631728
-1592.820000	-541.350000	5383.530000	29158.965000	22580.370000	14436.135000	-31321.845000	-15842.610000	-5.743937	-7.686267	-8.518355	-5.513445	-2.685762	0.240899	6.082251	-1.564419	-1.464960	2.884140	-1.022420	-0.898740	-0.069824	0.421325	-1.000000	-1.000000	-1.000000	-1.000000	-1.000000	-1.000000	-1.000000	54.000000	0.000000	-1.000000	-1.000000	355417.000000	1775778983.631757
-1591.920000	-540.405000	5383.980000	29164.770000	22584.150000	14473.710000	-31321.845000	-15842.835000	-7.432539	-10.327133	-14.302241	-11.238591	-4.206494	4.453985	6.548023	-2.409977	-1.464960	2.884140	-1.022420	-0.898740	-0.069824	0.421325	-1.000000	-1.000000	-1.000000	-1.000000	-1.000000	-1.000000	-1.000000	54.000000	0.000000	-1.000000	-1.000000	355418.000000	1775778983.639522
-1593.540000	-541.395000	5382.045000	29165.535000	22583.115000	14490.000000	-31322.655000	-15844.455000	-5.325389	-7.863931	-13.376917	-11.115128	-3.244704	10.866760	3.544992	-2.120138	-1.464960	2.884140	-1.022420	-0.898740	-0.069824	0.421325	-1.000000	-1.000000	-1.000000	-1.000000	-1.000000	-1.000000	-1.000000	54.000000	0.000000	-1.000000	-1.000000	355419.000000	1775778983.639548
-1595.925000	-543.285000	5379.165000	29164.860000	22582.575000	14471.505000	-31326.255000	-15846.255000	-0.483533	-1.372038	-6.149844	-5.209083	-0.222145	15.139510	-1.540002	-0.794357	-1.556520	2.716280	-0.152600	-0.898862	-0.070373	0.422789	-1.000000	-1.000000	-1.000000	-1.000000	-1.000000	-1.000000	-1.000000	54.000000	0.000000	-1.000000	-1.000000	355420.000000	1775778983.639574
-1598.490000	-544.905000	5377.905000	29155.770000	22586.310000	14464.935000	-31324.500000	-15847.515000	4.221951	5.483289	3.179247	2.330778	2.921795	11.513661	-6.153151	0.696822	-1.556520	2.716280	-0.152600	-0.898862	-0.070373	0.422789	-1.000000	-1.000000	-1.000000	-1.000000	-1.000000	-1.000000	-1.000000	54.000000	0.000000	-1.000000	-1.000000	355421.000000	1775778983.639584
-1596.645000	-542.655000	5380.650000	29141.280000	22589.010000	14461.965000	-31322.115000	-15845.265000	6.598278	9.476799	10.173636	6.834905	4.684688	-0.504760	-8.088368	1.693890	-1.556520	2.716280	-0.152600	-0.898862	-0.070373	0.422789	-1.000000	-1.000000	-1.000000	-1.000000	-1.000000	-1.000000	-1.000000	54.000000	0.000000	-1.000000	-1.000000	355422.000000	1775778983.641074
-1596.915000	-543.555000	5377.635000	29140.965000	22584.870000	14455.575000	-31326.570000	-15845.085000	6.314758	9.596649	12.612222	6.414563	4.571847	-14.322135	-6.694448	2.119225	-1.556520	2.716280	-0.152600	-0.898862	-0.070373	0.422789	-1.000000	-1.000000	-1.000000	-1.000000	-1.000000	-1.000000	-1.000000	54.000000	0.000000	-1.000000	-1.000000	355423.000000	1775778983.641111
-1595.295000	-541.755000	5379.615000	29147.760000	22582.935000	14453.415000	-31329.315000	-15843.915000	4.331298	6.742086	10.618417	3.190758	2.648747	-22.167057	-3.291540	2.113679	-1.556520	2.716280	-0.152600	-0.898862	-0.070373	0.422789	-1.000000	-1.000000	-1.000000	-1.000000	-1.000000	-1.000000	-1.000000	54.000000	0.000000	-1.000000	-1.000000	355424.000000	1775778983.648230
-1593.675000	-539.595000	5382.180000	29151.900000	22584.285000	14453.550000	-31329.045000	-15841.980000	1.852013	2.654362	5.927709	0.964223	-0.310960	-20.566872	0.123813	1.745997	-1.556520	2.716280	-0.152600	-0.898862	-0.070373	0.422789	-1.000000	-1.000000	-1.000000	-1.000000	-1.000000	-1.000000	-1.000000	54.000000	0.000000	-1.000000	-1.000000	355425.000000	1775778983.648256
-1591.155000	-536.265000	5384.790000	29155.005000	22584.735000	14453.370000	-31328.055000	-15840.540000	-0.220697	-0.954931	0.903540	1.415091	-2.815718	-11.214720	2.483671	1.109339	-1.556520	2.716280	-0.152600	-0.898862	-0.070373	0.422789	-1.000000	-1.000000	-1.000000	-1.000000	-1.000000	-1.000000	-1.000000	54.000000	0.000000	-1.000000	-1.000000	355426.000000	1775778983.654542
-1587.195000	-532.170000	5389.920000	29160.450000	22587.750000	14456.610000	-31325.625000	-15837.750000	-1.434742	-3.041637	-2.660268	3.251566	-3.640666	1.031997	3.752152	0.370562	-1.556520	2.716280	-0.152600	-0.898862	-0.070373	0.422789	-1.000000	-1.000000	-1.000000	-1.000000	-1.000000	-1.000000	-1.000000	54.000000	0.000000	-1.000000	-1.000000	355427.000000	1775778983.654563
-1586.655000	-531.315000	5390.190000	29161.080000	22587.525000	14453.280000	-31327.830000	-15837.165000	-1.804459	-3.510908	-4.182308	4.266748	-2.676881	10.999843	4.112249	-0.314023	-1.556520	2.716280	-0.152600	-0.898862	-0.070373	0.422789	-1.000000	-1.000000	-1.000000	-1.000000	-1.000000	-1.000000	-1.000000	54.000000	0.000000	-1.000000	-1.000000	355428.000000	1775778983.654580
-1586.205000	-529.335000	5391.765000	29163.555000	22588.785000	14450.175000	-31330.890000	-15836.130000	-1.756470	-3.019834	-4.185964	3.191097	-0.828842	15.322330	3.476640	-0.888095	-1.556520	2.716280	-0.152600	-0.898862	-0.070373	0.422789	-1.000000	-1.000000	-1.000000	-1.000000	-1.000000	-1.000000	-1.000000	54.000000	0.000000	-1.000000	-1.000000	355429.000000	1775778983.654590
-1583.865000	-526.455000	5394.285000	29166.930000	22590.270000	14445.900000	-31334.940000	-15836.355000	-1.733238	-2.309051	-3.549245	0.325483	0.778757	13.430246	1.774810	-1.363499	-2.533160	1.587040	0.396760	-0.900449	-0.070984	0.423522	-1.000000	-1.000000	-1.000000	-1.000000	-1.000000	-1.000000	-1.000000	54.000000	0.000000	-1.000000	-1.000000	355430.000000	1775778983.657797
-1575.405000	-517.995000	5402.610000	29175.120000	22597.965000	14443.740000	-31333.545000	-15829.740000	-1.624697	-1.561718	-2.632094	-2.763710	1.653545	7.412101	-0.439146	-1.586129	-2.533160	1.587040	0.396760	-0.900449	-0.070984	0.423522	-1.000000	-1.000000	-1.000000	-1.000000	-1.000000	-1.000000	-1.000000	54.000000	0.000000	-1.000000	-1.000000	355431.000000	1775778983.657822
-1575.585000	-517.005000	5404.455000	29176.065000	22597.830000	14436.180000	-31336.695000	-15829.245000	-1.024450	-0.608310	-1.348488	-4.479249	1.946004	0.531376	-2.087772	-1.252348	-2.533160	1.587040	0.396760	-0.900449	-0.070984	0.423522	-1.000000	-1.000000	-1.000000	-1.000000	-1.000000	-1.000000	-1.000000	54.000000	0.000000	-1.000000	-1.000000	355432.000000	1775778983.661520
-1581.345000	-525.195000	5395.320000	29167.380000	22588.605000	14430.420000	-31337.865000	-15831.720000	-0.270947	0.127090	-0.178931	-4.656865	1.517423	-4.633153	-2.482176	-0.523274	-2.533160	1.587040	0.396760	-0.900449	-0.070984	0.423522	-1.000000	-1.000000	-1.000000	-1.000000	-1.000000	-1.000000	-1.000000	54.000000	0.000000	-1.000000	-1.000000	355433.000000	1775778983.661545
-1585.755000	-533.790000	5386.320000	29159.685000	22579.605000	14431.410000	-31335.030000	-15833.610000	-0.378606	-0.403318	-0.318045	-4.516760	-0.250744	-6.824748	-1.701749	-0.136882	-2.533160	1.587040	0.396760	-0.900449	-0.070984	0.423522	-1.000000	-1.000000	-1.000000	-1.000000	-1.000000	-1.000000	-1.000000	54.000000	0.000000	-1.000000	-1.000000	355434.000000	1775778983.672127
-1584.990000	-533.250000	5386.320000	29160.360000	22574.205000	14429.340000	-31331.790000	-15833.025000	-1.513752	-2.269993	-1.999194	-4.727678	-3.131808	-5.839909	-0.139056	-0.450116	-2.533160	1.587040	0.396760	-0.900449	-0.070984	0.423522	-1.000000	-1.000000	-1.000000	-1.000000	-1.000000	-1.000000	-1.000000	54.000000	0.000000	-1.000000	-1.000000	355435.000000	1775778983.672154
-1585.980000	-531.270000	5388.795000	29165.895000	22575.105000	14428.305000	-31335.345000	-15836.130000	-2.491116	-3.736525	-3.482683	-4.233116	-5.351698	-2.605025	1.544779	-1.008139	-2.533160	1.587040	0.396760	-0.900449	-0.070984	0.423522	-1.000000	-1.000000	-1.000000	-1.000000	-1.000000	-1.000000	-1.000000	54.000000	0.000000	-1.000000	-1.000000	355436.000000	1775778983.672183
-1583.865000	-527.040000	5393.430000	29172.735000	22576.320000	14412.780000	-31343.895000	-15837.660000	-2.097066	-2.896266	-2.702371	-1.642591	-4.919529	0.816311	2.214065	-1.235884	-2.533160	1.587040	0.396760	-0.900449	-0.070984	0.423522	-1.000000	-1.000000	-1.000000	-1.000000	-1.000000	-1.000000	-1.000000	54.000000	0.000000	-1.000000	-1.000000	355437.000000	1775778983.672197
-1580.040000	-523.260000	5395.230000	29171.430000	22585.860000	14421.780000	-31336.830000	-15832.440000	-0.188223	0.354348	0.534911	2.650490	-1.373839	2.554260	1.253412	-0.816951	-2.533160	1.587040	0.396760	-0.900449	-0.070984	0.423522	-1.000000	-1.000000	-1.000000	-1.000000	-1.000000	-1.000000	-1.000000	54.000000	0.000000	-1.000000	-1.000000	355438.000000	1775778983.673852
-1586.025000	-532.395000	5383.395000	29147.940000	22589.280000	14471.010000	-31320.585000	-15833.115000	2.241099	4.051150	4.125201	5.893961	3.815005	3.585826	-0.032127	0.358075	-2.533160	1.587040	0.396760	-0.900449	-0.070984	0.423522	-1.000000	-1.000000	-1.000000	-1.000000	-1.000000	-1.000000	-1.000000	54.000000	0.000000	-1.000000	-1.000000	355439.000000	1775778983.673882
-1592.190000	-539.865000	5377.095000	29142.180000	22584.555000	14507.595000	-31316.490000	-15838.695000	3.527020	5.495861	5.271782	5.136535	7.880418	7.197730	0.333837	1.725261	-1.052940	3.097780	0.289940	-0.900144	-0.071045	0.422850	-1.000000	-1.000000	-1.000000	-1.000000	-1.000000	-1.000000	-1.000000	54.000000	0.000000	-1.000000	-1.000000	355440.000000	1775778983.679384
-1592.640000	-537.660000	5381.685000	29151.855000	22586.535000	14500.305000	-31319.865000	-15840.045000	2.702122	3.670544	3.263398	1.028915	8.319554	12.831452	2.013554	2.180965	-1.052940	3.097780	0.289940	-0.900144	-0.071045	0.422850	-1.000000	-1.000000	-1.000000	-1.000000	-1.000000	-1.000000	-1.000000	54.000000	0.000000	-1.000000	-1.000000	355441.000000	1775778983.679412
-1590.120000	-533.790000	5386.680000	29157.705000	22591.305000	14478.885000	-31318.425000	-15835.365000	0.665830	0.434673	0.360940	-2.148726	5.017141	13.566967	2.586061	1.469525	-1.052940	3.097780	0.289940	-0.900144	-0.071045	0.422850	-1.000000	-1.000000	-1.000000	-1.000000	-1.000000	-1.000000	-1.000000	54.000000	0.000000	-1.000000	-1.000000	355442.000000	1775778983.680004
-1594.665000	-538.785000	5380.920000	29151.720000	22585.095000	14463.090000	-31323.105000	-15839.055000	-0.849496	-1.613528	-0.979150	-1.563074	0.155600	3.775677	0.677780	0.483386	-1.052940	3.097780	0.289940	-0.900144	-0.071045	0.422850	-1.000000	-1.000000	-1.000000	-1.000000	-1.000000	-1.000000	-1.000000	54.000000	0.000000	-1.000000	-1.000000	355443.000000	1775778983.680026
-1593.585000	-538.560000	5382.000000	29153.070000	22583.790000	14458.140000	-31325.670000	-15839.010000	-1.115044	-1.762313	-0.652768	1.314277	-4.078523	-12.998594	-2.793412	-0.100599	-1.052940	3.097780	0.289940	-0.900144	-0.071045	0.422850	-1.000000	-1.000000	-1.000000	-1.000000	-1.000000	-1.000000	-1.000000	54.000000	0.000000	-1.000000	-1.000000	355444.000000	1775778983.684189
-1591.020000	-537.120000	5384.295000	29155.455000	22584.645000	14457.645000	-31326.930000	-15837.660000	-0.443825	-0.856150	0.117561	3.511994	-6.458645	-26.364134	-5.778728	-0.300032	-1.052940	3.097780	0.289940	-0.900144	-0.071045	0.422850	-1.000000	-1.000000	-1.000000	-1.000000	-1.000000	-1.000000	-1.000000	54.000000	0.000000	-1.000000	-1.000000	355445.000000	1775778983.684205
-1585.485000	-531.990000	5387.400000	29158.155000	22587.210000	14459.535000	-31323.600000	-15831.405000	0.732899	0.334242	0.667950	3.733359	-6.346705	-27.913400	-6.459993	-0.115463	-1.052940	3.097780	0.289940	-0.900144	-0.071045	0.422850	-1.000000	-1.000000	-1.000000	-1.000000	-1.000000	-1.000000	-1.000000	54.000000	0.000000	-1.000000	-1.000000	355446.000000	1775778983.688982
-1584.270000	-530.460000	5387.445000	29158.740000	22587.885000	14458.545000	-31324.365000	-15829.695000	1.964902	1.448213	0.907346	2.370446	-3.937981	-17.108821	-4.288084	0.536179	-1.052940	3.097780	0.289940	-0.900144	-0.071045	0.422850	-1.000000	-1.000000	-1.000000	-1.000000	-1.000000	-1.000000	-1.000000	54.000000	0.000000	-1.000000	-1.000000	355447.000000	1775778983.689047
-1587.780000	-533.025000	5386.950000	29157.570000	22586.445000	14454.270000	-31328.775000	-15834.240000	2.464468	1.996489	0.697325	0.269401	-0.524936	-0.441531	-0.486242	1.167523	-1.052940	3.097780	0.289940	-0.900144	-0.071045	0.422850	-1.000000	-1.000000	-1.000000	-1.000000	-1.000000	-1.000000	-1.000000	54.000000	0.000000	-1.000000	-1.000000	355448.000000	1775778983.693336
-1586.385000	-530.190000	5390.955000	29161.575000	22588.110000	14453.685000	-31329.270000	-15834.195000	1.544327	1.464443	0.002565	-1.773603	2.230506	13.732470	2.800953	0.876637	-1.052940	3.097780	0.289940	-0.900144	-0.071045	0.422850	-1.000000	-1.000000	-1.000000	-1.000000	-1.000000	-1.000000	-1.000000	54.000000	0.000000	-1.000000	-1.000000	355449.000000	1775778983.693361
-1582.425000	-526.770000	5394.105000	29163.780000	22590.540000	14456.430000	-31326.165000	-15829.245000	-0.392873	0.110425	-0.740511	-2.980074	3.443624	20.290166	4.302894	-0.374859	-0.686700	2.365300	1.022420	-0.898985	-0.070312	0.423217	-1.000000	-1.000000	-1.000000	-1.000000	-1.000000	-1.000000	-1.000000	54.000000	0.000000	-1.000000	-1.000000	355450.000000	1775778983.715928
-1582.695000	-529.470000	5388.345000	29157.795000	22585.275000	14452.380000	-31327.515000	-15827.715000	-2.050182	-1.199205	-1.150573	-3.072866	3.165148	18.890241	4.222225	-1.476355	-0.686700	2.365300	1.022420	-0.898985	-0.070312	0.423217	-1.000000	-1.000000	-1.000000	-1.000000	-1.000000	-1.000000	-1.000000	54.000000	0.000000	-1.000000	-1.000000	355451.000000	1775778983.715956
-1579.860000	-527.400000	5388.165000	29158.200000	22586.265000	14454.315000	-31325.130000	-15825.105000	-2.567424	-1.970341	-1.477817	-2.610801	1.775878	12.232413	3.266742	-1.543675	-0.686700	2.365300	1.022420	-0.898985	-0.070312	0.423217	-1.000000	-1.000000	-1.000000	-1.000000	-1.000000	-1.000000	-1.000000	54.000000	0.000000	-1.000000	-1.000000	355452.000000	1775778983.715986
-1583.190000	-528.435000	5387.400000	29156.130000	22583.745000	14449.635000	-31328.910000	-15829.110000	-2.091200	-2.166386	-1.915295	-2.121587	-0.071114	3.886229	1.898836	-0.848406	-0.686700	2.365300	1.022420	-0.898985	-0.070312	0.423217	-1.000000	-1.000000	-1.000000	-1.000000	-1.000000	-1.000000	-1.000000	54.000000	0.000000	-1.000000	-1.000000	355453.000000	1775778983.715998
-1579.140000	-523.035000	5394.960000	29164.950000	22590.270000	14451.705000	-31328.280000	-15825.915000	-1.253970	-1.766262	-1.915874	-1.362753	-1.393833	-3.130018	0.344733	-0.249720	-0.686700	2.365300	1.022420	-0.898985	-0.070312	0.423217	-1.000000	-1.000000	-1.000000	-1.000000	-1.000000	-1.000000	-1.000000	54.000000	0.000000	-1.000000	-1.000000	355454.000000	1775778983.716013
-1569.240000	-514.080000	5401.980000	29172.960000	22597.380000	14453.280000	-31326.390000	-15816.915000	-0.276102	-0.623067	-0.723038	0.281003	-1.304406	-7.017890	-1.047492	0.043519	-0.686700	2.365300	1.022420	-0.898985	-0.070312	0.423217	-1.000000	-1.000000	-1.000000	-1.000000	-1.000000	-1.000000	-1.000000	54.000000	0.000000	-1.000000	-1.000000	355455.000000	1775778983.716049
-1565.595000	-510.885000	5397.345000	29169.180000	22591.305000	14436.720000	-31335.705000	-15816.195000	1.082233	1.181685	1.401882	2.586226	0.089619	-7.697336	-1.920083	0.550674	-0.686700	2.365300	1.022420	-0.898985	-0.070312	0.423217	-1.000000	-1.000000	-1.000000	-1.000000	-1.000000	-1.000000	-1.000000	54.000000	0.000000	-1.000000	-1.000000	355456.000000	1775778983.716080
-1566.540000	-510.615000	5394.150000	29165.985000	22585.770000	14413.995000	-31342.770000	-15818.895000	2.400755	2.739852	2.804392	3.916669	1.213760	-7.067744	-2.500974	1.166291	-0.686700	2.365300	1.022420	-0.898985	-0.070312	0.423217	-1.000000	-1.000000	-1.000000	-1.000000	-1.000000	-1.000000	-1.000000	54.000000	0.000000	-1.000000	-1.000000	355457.000000	1775778983.716092
-1568.745000	-512.865000	5393.385000	29164.275000	22585.140000	14405.310000	-31342.635000	-15820.155000	2.475140	2.748862	2.124270	2.854398	0.629153	-7.012028	-3.020190	0.985826	-0.686700	2.365300	1.022420	-0.898985	-0.070312	0.423217	-1.000000	-1.000000	-1.000000	-1.000000	-1.000000	-1.000000	-1.000000	54.000000	0.000000	-1.000000	-1.000000	355458.000000	1775778983.716105
-1572.705000	-517.365000	5392.845000	29162.295000	22581.045000	14403.780000	-31343.130000	-15821.640000	0.703258	0.762478	-0.093361	-0.056494	-1.222664	-6.768668	-2.827395	-0.298368	-0.686700	2.365300	1.022420	-0.898985	-0.070312	0.423217	-1.000000	-1.000000	-1.000000	-1.000000	-1.000000	-1.000000	-1.000000	54.000000	0.000000	-1.000000	-1.000000	355459.000000	1775778983.716116
-1575.630000	-520.020000	5395.995000	29166.255000	22585.005000	14421.645000	-31339.800000	-15823.260000	-2.121961	-2.304753	-2.071165	-2.823256	-2.677159	-3.692118	-1.192080	-1.903007	-0.396760	3.952340	0.976640	-0.897337	-0.070007	0.422484	-1.000000	-1.000000	-1.000000	-1.000000	-1.000000	-1.000000	-1.000000	54.000000	0.000000	-1.000000	-1.000000	355460.000000	1775778983.716414
-1579.365000	-524.340000	5398.335000	29170.305000	22593.375000	14471.730000	-31325.760000	-15822.405000	-4.416889	-4.784092	-2.420186	-3.614573	-2.300109	4.103098	1.792637	-2.747688	-0.396760	3.952340	0.976640	-0.897337	-0.070007	0.422484	-1.000000	-1.000000	-1.000000	-1.000000	-1.000000	-1.000000	-1.000000	54.000000	0.000000	-1.000000	-1.000000	355461.000000	1775778983.716430
-1588.455000	-534.285000	5391.765000	29158.110000	22587.300000	14490.810000	-31322.385000	-15826.635000	-5.044619	-5.488061	-1.212561	-2.282549	-0.016293	15.359162	5.224063	-2.319570	-0.396760	3.952340	0.976640	-0.897337	-0.070007	0.422484	-1.000000	-1.000000	-1.000000	-1.000000	-1.000000	-1.000000	-1.000000	54.000000	0.000000	-1.000000	-1.000000	355462.000000	1775778983.721000
-1596.510000	-543.240000	5378.940000	29143.890000	22575.960000	14469.885000	-31327.290000	-15833.205000	-4.053330	-4.486379	-0.010140	-0.756229	2.247033	23.545268	7.233942	-1.089513	-0.396760	3.952340	0.976640	-0.897337	-0.070007	0.422484	-1.000000	-1.000000	-1.000000	-1.000000	-1.000000	-1.000000	-1.000000	54.000000	0.000000	-1.000000	-1.000000	355463.000000	1775778983.721023
-1596.240000	-542.250000	5379.165000	29144.745000	22575.060000	14463.360000	-31322.880000	-15833.430000	-2.058549	-2.399006	-0.197158	-0.763823	2.292443	20.327021	5.964042	0.047283	-0.396760	3.952340	0.976640	-0.897337	-0.070007	0.422484	-1.000000	-1.000000	-1.000000	-1.000000	-1.000000	-1.000000	-1.000000	54.000000	0.000000	-1.000000	-1.000000	355464.000000	1775778983.725242
-1593.405000	-536.355000	5386.365000	29154.555000	22580.235000	14468.985000	-31323.735000	-15832.485000	0.699895	0.649472	-1.029100	-1.293100	0.425897	4.856114	1.695420	0.857149	-0.396760	3.952340	0.976640	-0.897337	-0.070007	0.422484	-1.000000	-1.000000	-1.000000	-1.000000	-1.000000	-1.000000	-1.000000	54.000000	0.000000	-1.000000	-1.000000	355465.000000	1775778983.725269
-1591.335000	-535.590000	5381.685000	29158.335000	22587.660000	14487.075000	-31323.150000	-15830.955000	4.004513	4.489452	-0.644310	-0.001296	-0.900026	-13.545699	-3.246385	1.728855	-0.396760	3.952340	0.976640	-0.897337	-0.070007	0.422484	-1.000000	-1.000000	-1.000000	-1.000000	-1.000000	-1.000000	-1.000000	54.000000	0.000000	-1.000000	-1.000000	355466.000000	1775778983.729154
-1594.800000	-539.730000	5376.645000	29156.670000	22588.335000	14480.820000	-31326.165000	-15833.430000	6.773817	7.713154	1.081027	3.247155	-0.118084	-23.994406	-6.598911	2.682094	-0.396760	3.952340	0.976640	-0.897337	-0.070007	0.422484	-1.000000	-1.000000	-1.000000	-1.000000	-1.000000	-1.000000	-1.000000	54.000000	0.000000	-1.000000	-1.000000	355467.000000	1775778983.729177
-1593.405000	-537.435000	5384.070000	29160.450000	22589.505000	14472.360000	-31325.850000	-15832.935000	7.487825	8.387190	2.670916	6.047095	1.854588	-23.168790	-7.381509	3.118398	-0.396760	3.952340	0.976640	-0.897337	-0.070007	0.422484	-1.000000	-1.000000	-1.000000	-1.000000	-1.000000	-1.000000	-1.000000	54.000000	0.000000	-1.000000	-1.000000	355468.000000	1775778983.737086
-1590.120000	-534.555000	5387.265000	29165.895000	22589.730000	14469.030000	-31325.445000	-15830.010000	5.699150	6.093964	3.400731	6.373388	2.986363	-15.227448	-5.771635	2.640061	-0.396760	3.952340	0.976640	-0.897337	-0.070007	0.422484	-1.000000	-1.000000	-1.000000	-1.000000	-1.000000	-1.000000	-1.000000	54.000000	0.000000	-1.000000	-1.000000	355469.000000	1775778983.737110
-1590.030000	-537.210000	5381.280000	29165.580000	22582.890000	14460.255000	-31329.945000	-15829.380000	2.461432	2.194311	3.316101	4.223358	2.095865	-5.776226	-2.731168	1.549637	-0.091560	3.052000	1.739640	-0.896299	-0.068909	0.422118	-1.000000	-1.000000	-1.000000	-1.000000	-1.000000	-1.000000	-1.000000	54.000000	0.000000	-1.000000	-1.000000	355470.000000	1775778983.737137
-1582.650000	-532.890000	5382.135000	29167.695000	22582.845000	14458.770000	-31327.515000	-15822.810000	-0.694151	-1.611264	2.145827	0.748214	-0.528370	1.825089	0.404180	0.448026	-0.091560	3.052000	1.739640	-0.896299	-0.068909	0.422118	-1.000000	-1.000000	-1.000000	-1.000000	-1.000000	-1.000000	-1.000000	54.000000	0.000000	-1.000000	-1.000000	355471.000000	1775778983.737149
-1581.435000	-532.305000	5381.505000	29169.270000	22582.305000	14457.105000	-31327.965000	-15821.190000	-2.665539	-4.089228	-0.007889	-2.694030	-3.356687	6.661338	2.692976	-0.234146	-0.091560	3.052000	1.739640	-0.896299	-0.068909	0.422118	-1.000000	-1.000000	-1.000000	-1.000000	-1.000000	-1.000000	-1.000000	54.000000	0.000000	-1.000000	-1.000000	355472.000000	1775778983.740307
-1582.470000	-533.115000	5379.525000	29163.645000	22580.235000	14455.350000	-31329.765000	-15821.280000	-3.312973	-4.781750	-2.175945	-5.046979	-4.661024	9.146931	3.817210	-0.568431	-0.091560	3.052000	1.739640	-0.896299	-0.068909	0.422118	-1.000000	-1.000000	-1.000000	-1.000000	-1.000000	-1.000000	-1.000000	54.000000	0.000000	-1.000000	-1.000000	355473.000000	1775778983.740324
-1581.255000	-529.515000	5382.990000	29147.670000	22582.260000	14455.845000	-31330.080000	-15821.640000	-3.316173	-4.073873	-3.340822	-6.249531	-3.810869	9.789848	3.724377	-1.046546	-0.091560	3.052000	1.739640	-0.896299	-0.068909	0.422118	-1.000000	-1.000000	-1.000000	-1.000000	-1.000000	-1.000000	-1.000000	54.000000	0.000000	-1.000000	-1.000000	355474.000000	1775778983.747980
-1581.345000	-526.770000	5387.895000	29148.435000	22585.410000	14456.430000	-31331.205000	-15822.495000	-3.190495	-2.570032	-2.946578	-6.745824	-1.345983	8.891762	2.656264	-1.893674	-0.091560	3.052000	1.739640	-0.896299	-0.068909	0.422118	-1.000000	-1.000000	-1.000000	-1.000000	-1.000000	-1.000000	-1.000000	54.000000	0.000000	-1.000000	-1.000000	355475.000000	1775778983.748005
-1581.120000	-526.635000	5388.660000	29156.400000	22585.185000	14454.135000	-31331.925000	-15822.495000	-2.886863	-0.811586	-1.164293	-5.857064	1.591439	6.731771	1.169089	-2.738153	-0.091560	3.052000	1.739640	-0.896299	-0.068909	0.422118	-1.000000	-1.000000	-1.000000	-1.000000	-1.000000	-1.000000	-1.000000	54.000000	0.000000	-1.000000	-1.000000	355476.000000	1775778983.755092
-1581.705000	-528.480000	5386.455000	29156.715000	22582.980000	14450.760000	-31333.590000	-15822.990000	-2.225243	0.509334	0.861714	-2.393097	3.612546	3.604983	-0.180253	-2.985926	-0.091560	3.052000	1.739640	-0.896299	-0.068909	0.422118	-1.000000	-1.000000	-1.000000	-1.000000	-1.000000	-1.000000	-1.000000	54.000000	0.000000	-1.000000	-1.000000	355477.000000	1775778983.755119
-1578.825000	-525.915000	5389.605000	29160.405000	22585.545000	14453.055000	-31330.620000	-15819.120000	-1.168576	0.898953	1.813037	2.897258	3.808483	0.105489	-0.990701	-2.266684	-0.091560	3.052000	1.739640	-0.896299	-0.068909	0.422118	-1.000000	-1.000000	-1.000000	-1.000000	-1.000000	-1.000000	-1.000000	54.000000	0.000000	-1.000000	-1.000000	355478.000000	1775778983.755148
-1575.765000	-522.360000	5393.115000	29163.915000	22590.045000	14455.035000	-31328.235000	-15815.385000	0.217554	0.635004	1.467333	7.435877	2.535386	-2.664800	-0.992903	-0.598970	-0.091560	3.052000	1.739640	-0.896299	-0.068909	0.422118	-1.000000	-1.000000	-1.000000	-1.000000	-1.000000	-1.000000	-1.000000	54.000000	0.000000	-1.000000	-1.000000	355479.000000	1775778983.755160
-1576.485000	-524.070000	5389.830000	29160.405000	22586.805000	14450.400000	-31329.630000	-15816.780000	1.638978	0.366196	0.520662	8.983323	0.881803	-3.875283	-0.309153	1.437454	-2.319520	2.792580	0.900340	-0.898496	-0.069641	0.421264	-1.000000	-1.000000	-1.000000	-1.000000	-1.000000	-1.000000	-1.000000	54.000000	0.000000	-1.000000	-1.000000	355480.000000	1775778983.756344
-1576.485000	-523.170000	5391.450000	29163.510000	22588.110000	14448.645000	-31333.005000	-15818.490000	2.469139	0.259397	-0.493547	6.924767	-0.535240	-3.788399	0.327353	2.734257	-2.319520	2.792580	0.900340	-0.898496	-0.069641	0.421264	-1.000000	-1.000000	-1.000000	-1.000000	-1.000000	-1.000000	-1.000000	54.000000	0.000000	-1.000000	-1.000000	355481.000000	1775778983.756363
-1572.975000	-519.930000	5395.995000	29166.930000	22588.335000	14448.105000	-31331.745000	-15814.530000	2.304070	0.166232	-1.217316	2.578947	-1.579170	-3.137422	0.228656	2.574568	-2.319520	2.792580	0.900340	-0.898496	-0.069641	0.421264	-1.000000	-1.000000	-1.000000	-1.000000	-1.000000	-1.000000	-1.000000	54.000000	0.000000	-1.000000	-1.000000	355482.000000	1775778983.761922
-1575.270000	-522.540000	5393.475000	29165.085000	22586.490000	14445.495000	-31332.015000	-15814.620000	1.398731	0.085871	-1.276458	-1.753337	-2.113191	-2.257265	-0.435487	1.394174	-2.319520	2.792580	0.900340	-0.898496	-0.069641	0.421264	-1.000000	-1.000000	-1.000000	-1.000000	-1.000000	-1.000000	-1.000000	54.000000	0.000000	-1.000000	-1.000000	355483.000000	1775778983.761948
-1576.215000	-524.115000	5391.180000	29164.860000	22587.165000	14440.320000	-31334.040000	-15815.565000	0.201678	-0.077510	-0.867657	-4.528877	-2.095334	-1.306535	-0.996979	0.084302	-2.319520	2.792580	0.900340	-0.898496	-0.069641	0.421264	-1.000000	-1.000000	-1.000000	-1.000000	-1.000000	-1.000000	-1.000000	54.000000	0.000000	-1.000000	-1.000000	355484.000000	1775778983.765008
-1573.830000	-520.965000	5392.980000	29166.030000	22584.510000	14426.820000	-31340.880000	-15814.845000	-0.905814	-0.401476	-0.554047	-5.396123	-1.638392	-0.742008	-1.225301	-0.878507	-2.319520	2.792580	0.900340	-0.898496	-0.069641	0.421264	-1.000000	-1.000000	-1.000000	-1.000000	-1.000000	-1.000000	-1.000000	54.000000	0.000000	-1.000000	-1.000000	355485.000000	1775778983.765029
-1570.005000	-514.710000	5399.955000	29171.520000	22585.140000	14410.755000	-31349.205000	-15814.665000	-1.387396	-0.449854	-0.276955	-4.500804	-0.926232	-1.165417	-1.472421	-1.335225	-2.319520	2.792580	0.900340	-0.898496	-0.069641	0.421264	-1.000000	-1.000000	-1.000000	-1.000000	-1.000000	-1.000000	-1.000000	54.000000	0.000000	-1.000000	-1.000000	355486.000000	1775778983.769547
-1562.490000	-504.720000	5410.530000	29182.185000	22591.215000	14392.935000	-31354.515000	-15810.975000	-0.795264	0.397831	0.627213	-2.103560	-0.008516	-2.617199	-1.955322	-1.186294	-2.319520	2.792580	0.900340	-0.898496	-0.069641	0.421264	-1.000000	-1.000000	-1.000000	-1.000000	-1.000000	-1.000000	-1.000000	54.000000	0.000000	-1.000000	-1.000000	355487.000000	1775778983.769570
-1559.655000	-502.380000	5412.060000	29182.905000	22591.935000	14402.610000	-31356.675000	-15809.400000	0.678341	2.009190	2.261190	1.078845	1.192527	-3.695517	-2.171999	-0.455598	-2.319520	2.792580	0.900340	-0.898496	-0.069641	0.421264	-1.000000	-1.000000	-1.000000	-1.000000	-1.000000	-1.000000	-1.000000	54.000000	0.000000	-1.000000	-1.000000	355488.000000	1775778983.780278
-1563.975000	-509.355000	5403.960000	29175.030000	22589.955000	14435.100000	-31343.715000	-15810.255000	1.942136	3.013694	3.294661	3.338787	2.265405	-1.453750	-1.070306	0.484337	-2.319520	2.792580	0.900340	-0.898496	-0.069641	0.421264	-1.000000	-1.000000	-1.000000	-1.000000	-1.000000	-1.000000	-1.000000	54.000000	0.000000	-1.000000	-1.000000	355489.000000	1775778983.780305
-1568.835000	-514.755000	5398.830000	29171.835000	22596.210000	14475.105000	-31331.340000	-15811.920000	1.612995	1.782188	1.997036	2.901278	2.476967	6.232604	2.111996	0.957690	-1.754900	3.052000	0.671440	-0.899534	-0.069397	0.421447	-1.000000	-1.000000	-1.000000	-1.000000	-1.000000	-1.000000	-1.000000	54.000000	0.000000	-1.000000	-1.000000	355490.000000	1775778983.780330
