Channel1	Channel2	Channel3	Channel4	Channel5	Channel6	Channel7	Channel8	FilteredChannel1	FilteredChannel2	FilteredChannel3	FilteredChannel4	FilteredChannel5	FilteredChannel6	FilteredChannel7	FilteredChannel8	GyroX	GyroY	GyroZ	AccX	AccY	AccZ	PPG1	PPG2	rawPPG1	rawPPG2	rawPPG3	Hr	Hrv	Battery	Trigger	PhysicalTrigger	AutoTrigger	NumMeasurements	Timestamp
1991.340000	3882.060000	12784.950000	32650.380000	22348.575000	20695.185000	-32800.860000	-17809.470000	-2.245656	0.928465	5.100092	16.121931	2.444932	-18.125205	-18.085807	-4.454508	-1.846460	0.457800	2.182180	-0.903135	-0.001709	0.419738	-1.000000	-1.000000	-1.000000	-1.000000	-1.000000	-1.000000	-1.000000	54.000000	0.000000	-1.000000	-1.000000	441094.000000	1775779155.153682
1974.330000	3860.730000	12766.815000	32635.800000	22336.470000	20730.420000	-32781.870000	-17812.845000	5.708629	7.462613	9.903964	28.426150	8.456250	-6.939448	-13.813528	2.890231	-1.846460	0.457800	2.182180	-0.903135	-0.001709	0.419738	-1.000000	-1.000000	-1.000000	-1.000000	-1.000000	-1.000000	-1.000000	54.000000	0.000000	-1.000000	-1.000000	441095.000000	1775779155.153707
1974.960000	3855.195000	12755.700000	32624.730000	22318.560000	20701.890000	-32785.695000	-17814.870000	10.777216	9.834368	9.260046	26.606670	10.619003	4.517504	-3.077031	9.363525	-3.235120	2.670500	3.006220	-0.902158	-0.004639	0.413634	-1.000000	-1.000000	-1.000000	-1.000000	-1.000000	-1.000000	-1.000000	54.000000	0.000000	-1.000000	-1.000000	441096.000000	1775779155.157663
1980.855000	3861.585000	12760.470000	32628.195000	22315.410000	20670.390000	-32796.495000	-17815.095000	10.511749	6.732040	3.372772	12.511760	5.582369	8.704378	7.545461	11.547361	-3.235120	2.670500	3.006220	-0.902158	-0.004639	0.413634	-1.000000	-1.000000	-1.000000	-1.000000	-1.000000	-1.000000	-1.000000	54.000000	0.000000	-1.000000	-1.000000	441097.000000	1775779155.157687
1988.955000	3870.990000	12768.705000	32634.180000	22320.765000	20666.295000	-32796.135000	-17809.515000	6.979181	1.937576	-2.915117	-4.478906	-3.367501	2.406385	11.677207	9.111034	-3.235120	2.670500	3.006220	-0.902158	-0.004639	0.413634	-1.000000	-1.000000	-1.000000	-1.000000	-1.000000	-1.000000	-1.000000	54.000000	0.000000	-1.000000	-1.000000	441098.000000	1775779155.167490
1983.555000	3864.960000	12762.630000	32629.545000	22318.335000	20664.720000	-32797.215000	-17814.690000	3.217199	-0.572682	-5.087593	-15.193685	-9.692809	-8.538322	8.483506	4.187235	-3.235120	2.670500	3.006220	-0.902158	-0.004639	0.413634	-1.000000	-1.000000	-1.000000	-1.000000	-1.000000	-1.000000	-1.000000	54.000000	0.000000	-1.000000	-1.000000	441099.000000	1775779155.167517
1980.270000	3863.250000	12765.195000	32643.585000	22334.850000	20678.085000	-32800.455000	-17821.170000	0.116422	-0.612809	-3.051881	-16.449377	-9.564043	-14.153777	2.010254	-1.035392	-3.235120	2.670500	3.006220	-0.902158	-0.004639	0.413634	-1.000000	-1.000000	-1.000000	-1.000000	-1.000000	-1.000000	-1.000000	54.000000	0.000000	-1.000000	-1.000000	441100.000000	1775779155.172204
1983.150000	3867.120000	12770.370000	32655.465000	22343.985000	20680.830000	-32798.610000	-17819.550000	-2.660338	-0.198597	0.418645	-10.320163	-3.660966	-9.482831	-3.248639	-5.226042	-3.235120	2.670500	3.006220	-0.902158	-0.004639	0.413634	-1.000000	-1.000000	-1.000000	-1.000000	-1.000000	-1.000000	-1.000000	54.000000	0.000000	-1.000000	-1.000000	441101.000000	1775779155.172226
1989.045000	3873.330000	12776.130000	32662.485000	22342.770000	20675.025000	-32801.940000	-17816.940000	-4.618713	-0.272278	3.098254	-1.191281	4.096099	2.056914	-5.046451	-7.202382	-3.235120	2.670500	3.006220	-0.902158	-0.004639	0.413634	-1.000000	-1.000000	-1.000000	-1.000000	-1.000000	-1.000000	-1.000000	54.000000	0.000000	-1.000000	-1.000000	441102.000000	1775779155.172334
1992.285000	3877.965000	12776.400000	32653.935000	22338.495000	20675.160000	-32801.445000	-17816.040000	-4.752373	-0.398003	4.062847	5.863747	8.690499	12.523849	-3.655169	-6.256897	-3.235120	2.670500	3.006220	-0.902158	-0.004639	0.413634	-1.000000	-1.000000	-1.000000	-1.000000	-1.000000	-1.000000	-1.000000	54.000000	0.000000	-1.000000	-1.000000	441103.000000	1775779155.172352
1993.635000	3879.495000	12772.350000	32626.305000	22329.045000	20673.945000	-32801.445000	-17817.120000	-3.114940	-0.282359	2.974709	6.719933	7.239462	16.182580	-0.761492	-3.172434	-3.235120	2.670500	3.006220	-0.902158	-0.004639	0.413634	-1.000000	-1.000000	-1.000000	-1.000000	-1.000000	-1.000000	-1.000000	54.000000	0.000000	-1.000000	-1.000000	441104.000000	1775779155.173268
1996.695000	3883.590000	12776.580000	32626.485000	22332.420000	20665.755000	-32805.540000	-17815.950000	-0.940839	-0.276939	0.178837	0.877620	1.065213	12.538801	1.865702	0.199271	-3.235120	2.670500	3.006220	-0.902158	-0.004639	0.413634	-1.000000	-1.000000	-1.000000	-1.000000	-1.000000	-1.000000	-1.000000	54.000000	0.000000	-1.000000	-1.000000	441105.000000	1775779155.173282
2003.805000	3892.410000	12785.985000	32644.845000	22340.385000	20650.185000	-32818.995000	-17814.330000	0.646233	-0.584327	-2.733982	-6.629252	-5.285150	4.434259	2.837621	2.382244	-2.960440	2.594200	2.243220	-0.902952	-0.007507	0.411498	-1.000000	-1.000000	-1.000000	-1.000000	-1.000000	-1.000000	-1.000000	54.000000	0.000000	-1.000000	-1.000000	441106.000000	1775779155.180568
2017.890000	3908.160000	12798.630000	32659.380000	22350.105000	20629.620000	-32829.435000	-17805.870000	1.580273	-0.649240	-3.678358	-8.643857	-7.444303	-4.634488	1.483238	3.123113	-2.960440	2.594200	2.243220	-0.902952	-0.007507	0.411498	-1.000000	-1.000000	-1.000000	-1.000000	-1.000000	-1.000000	-1.000000	54.000000	0.000000	-1.000000	-1.000000	441107.000000	1775779155.180592
2029.635000	3921.300000	12809.655000	32665.050000	22357.035000	20604.510000	-32834.745000	-17800.020000	2.439455	0.225776	-1.912472	-2.960228	-4.468790	-11.773842	-1.336174	3.078376	-2.960440	2.594200	2.243220	-0.902952	-0.007507	0.411498	-1.000000	-1.000000	-1.000000	-1.000000	-1.000000	-1.000000	-1.000000	54.000000	0.000000	-1.000000	-1.000000	441108.000000	1775779155.182042
2022.075000	3915.045000	12809.070000	32658.795000	22353.435000	20618.100000	-32829.390000	-17809.380000	2.965297	1.440145	1.050438	5.583717	0.807226	-14.414664	-3.253707	2.528779	-2.960440	2.594200	2.243220	-0.902952	-0.007507	0.411498	-1.000000	-1.000000	-1.000000	-1.000000	-1.000000	-1.000000	-1.000000	54.000000	0.000000	-1.000000	-1.000000	441109.000000	1775779155.182059
1998.180000	3887.820000	12788.775000	32645.160000	22339.845000	20651.760000	-32806.575000	-17825.445000	1.312186	0.559510	2.149766	9.940399	4.067794	-9.737106	-1.815121	0.592084	-2.960440	2.594200	2.243220	-0.902952	-0.007507	0.411498	-1.000000	-1.000000	-1.000000	-1.000000	-1.000000	-1.000000	-1.000000	54.000000	0.000000	-1.000000	-1.000000	441110.000000	1775779155.190742
1983.465000	3870.810000	12774.105000	32631.750000	22327.695000	20673.270000	-32799.330000	-17835.345000	-3.858424	-4.320859	-0.910284	6.743798	2.674439	2.726987	3.401588	-3.288357	-2.960440	2.594200	2.243220	-0.902952	-0.007507	0.411498	-1.000000	-1.000000	-1.000000	-1.000000	-1.000000	-1.000000	-1.000000	54.000000	0.000000	-1.000000	-1.000000	441111.000000	1775779155.190778
1971.045000	3859.605000	12771.855000	32643.630000	22323.690000	20704.005000	-32803.605000	-17847.675000	-10.454831	-11.171491	-6.781638	-1.223711	-2.210165	17.778134	9.197098	-7.541701	-2.960440	2.594200	2.243220	-0.902952	-0.007507	0.411498	-1.000000	-1.000000	-1.000000	-1.000000	-1.000000	-1.000000	-1.000000	54.000000	0.000000	-1.000000	-1.000000	441112.000000	1775779155.190819
1975.320000	3864.915000	12775.050000	32651.505000	22330.575000	20707.470000	-32806.080000	-17846.055000	-13.661474	-14.564864	-10.665786	-7.366114	-6.364829	26.854704	10.659011	-9.256521	-2.960440	2.594200	2.243220	-0.902952	-0.007507	0.411498	-1.000000	-1.000000	-1.000000	-1.000000	-1.000000	-1.000000	-1.000000	54.000000	0.000000	-1.000000	-1.000000	441113.000000	1775779155.190833
1979.055000	3867.030000	12774.870000	32649.570000	22336.785000	20697.795000	-32799.870000	-17842.815000	-9.885975	-10.359853	-8.660342	-7.261422	-5.924549	23.588361	5.991959	-6.405108	-2.960440	2.594200	2.243220	-0.902952	-0.007507	0.411498	-1.000000	-1.000000	-1.000000	-1.000000	-1.000000	-1.000000	-1.000000	54.000000	0.000000	-1.000000	-1.000000	441114.000000	1775779155.192367
1978.965000	3863.385000	12767.220000	32631.255000	22330.530000	20706.390000	-32791.635000	-17842.410000	-0.036178	0.294947	-1.534226	-2.630713	-0.820591	8.176076	-1.654864	0.425654	-2.960440	2.594200	2.243220	-0.902952	-0.007507	0.411498	-1.000000	-1.000000	-1.000000	-1.000000	-1.000000	-1.000000	-1.000000	54.000000	0.000000	-1.000000	-1.000000	441115.000000	1775779155.192386
1971.405000	3857.670000	12765.375000	32629.320000	22332.780000	20716.290000	-32785.875000	-17840.790000	10.634107	11.527828	6.247160	1.468938	5.226391	-11.520375	-7.463365	7.951684	-0.274680	5.997180	2.762060	-0.904295	-0.011719	0.409240	-1.000000	-1.000000	-1.000000	-1.000000	-1.000000	-1.000000	-1.000000	54.000000	0.000000	-1.000000	-1.000000	441116.000000	1775779155.197218
1981.620000	3867.570000	12772.980000	32636.565000	22328.055000	20680.380000	-32794.785000	-17835.570000	16.549410	17.610024	10.801589	2.589072	8.318205	-25.905025	-9.191076	12.472739	-0.274680	5.997180	2.762060	-0.904295	-0.011719	0.409240	-1.000000	-1.000000	-1.000000	-1.000000	-1.000000	-1.000000	-1.000000	54.000000	0.000000	-1.000000	-1.000000	441117.000000	1775779155.197243
1989.855000	3875.805000	12780.135000	32643.135000	22328.010000	20653.245000	-32806.170000	-17833.320000	16.045324	17.114253	11.446796	2.385624	7.233658	-31.306026	-8.203594	12.323668	-0.274680	5.997180	2.762060	-0.904295	-0.011719	0.409240	-1.000000	-1.000000	-1.000000	-1.000000	-1.000000	-1.000000	-1.000000	54.000000	0.000000	-1.000000	-1.000000	441118.000000	1775779155.204499
1991.205000	3878.145000	12782.250000	32646.060000	22331.565000	20645.505000	-32808.285000	-17834.940000	11.111656	12.143837	9.423962	2.950974	3.432764	-28.903419	-6.766638	8.114593	-0.274680	5.997180	2.762060	-0.904295	-0.011719	0.409240	-1.000000	-1.000000	-1.000000	-1.000000	-1.000000	-1.000000	-1.000000	54.000000	0.000000	-1.000000	-1.000000	441119.000000	1775779155.204520
1992.285000	3881.025000	12784.860000	32648.805000	22335.570000	20648.070000	-32806.170000	-17836.245000	4.283722	5.226884	5.788735	4.103409	-0.432828	-19.516070	-5.175892	1.689389	-0.274680	5.997180	2.762060	-0.904295	-0.011719	0.409240	-1.000000	-1.000000	-1.000000	-1.000000	-1.000000	-1.000000	-1.000000	54.000000	0.000000	-1.000000	-1.000000	441120.000000	1775779155.205739
1992.420000	3883.230000	12787.335000	32650.515000	22336.290000	20670.525000	-32809.995000	-17838.900000	-2.595663	-1.772291	1.256244	4.335011	-2.496415	-3.727496	-2.399848	-4.670327	-0.274680	5.997180	2.762060	-0.904295	-0.011719	0.409240	-1.000000	-1.000000	-1.000000	-1.000000	-1.000000	-1.000000	-1.000000	54.000000	0.000000	-1.000000	-1.000000	441121.000000	1775779155.205758
1997.370000	3887.550000	12790.305000	32650.470000	22324.410000	20647.260000	-32820.165000	-17837.640000	-7.884839	-7.257265	-3.147216	2.740498	-2.929366	14.496088	1.355847	-8.867730	-0.274680	5.997180	2.762060	-0.904295	-0.011719	0.409240	-1.000000	-1.000000	-1.000000	-1.000000	-1.000000	-1.000000	-1.000000	54.000000	0.000000	-1.000000	-1.000000	441122.000000	1775779155.213322
2010.105000	3902.445000	12807.045000	32668.335000	22336.020000	20630.160000	-32823.090000	-17830.035000	-10.030181	-9.800359	-5.978017	0.033071	-2.921954	27.060508	4.383038	-9.551573	-0.274680	5.997180	2.762060	-0.904295	-0.011719	0.409240	-1.000000	-1.000000	-1.000000	-1.000000	-1.000000	-1.000000	-1.000000	54.000000	0.000000	-1.000000	-1.000000	441123.000000	1775779155.213349
2008.305000	3900.645000	12804.795000	32670.000000	22335.255000	20649.510000	-32815.710000	-17831.160000	-8.502832	-8.852794	-6.194397	-1.972354	-2.615180	28.055365	5.715610	-6.718675	-0.274680	5.997180	2.762060	-0.904295	-0.011719	0.409240	-1.000000	-1.000000	-1.000000	-1.000000	-1.000000	-1.000000	-1.000000	54.000000	0.000000	-1.000000	-1.000000	441124.000000	1775779155.213377
1993.455000	3880.575000	12783.735000	32655.690000	22326.345000	20671.425000	-32808.555000	-17840.565000	-5.116169	-6.131256	-4.921244	-2.777502	-1.692227	20.218951	6.133183	-2.302154	-0.274680	5.997180	2.762060	-0.904295	-0.011719	0.409240	-1.000000	-1.000000	-1.000000	-1.000000	-1.000000	-1.000000	-1.000000	54.000000	0.000000	-1.000000	-1.000000	441125.000000	1775779155.213388
1988.955000	3875.085000	12779.595000	32650.875000	22332.645000	20705.580000	-32797.845000	-17846.235000	-2.888998	-4.650107	-4.766603	-3.890979	-0.730573	11.320919	6.604128	0.840159	3.555580	5.814060	1.876980	-0.905759	-0.017273	0.408751	-1.000000	-1.000000	-1.000000	-1.000000	-1.000000	-1.000000	-1.000000	54.000000	0.000000	-1.000000	-1.000000	441126.000000	1775779155.217218
1994.760000	3881.430000	12784.545000	32653.395000	22333.005000	20691.045000	-32799.015000	-17844.840000	-2.582825	-4.887228	-5.928792	-5.782262	-0.052051	5.478311	6.759197	1.494927	3.555580	5.814060	1.876980	-0.905759	-0.017273	0.408751	-1.000000	-1.000000	-1.000000	-1.000000	-1.000000	-1.000000	-1.000000	54.000000	0.000000	-1.000000	-1.000000	441127.000000	1775779155.217243
1998.360000	3884.850000	12784.905000	32648.400000	22334.400000	20674.620000	-32796.180000	-17837.955000	-2.076527	-4.138476	-5.645059	-6.641277	0.691367	0.116756	5.250594	1.038745	3.555580	5.814060	1.876980	-0.905759	-0.017273	0.408751	-1.000000	-1.000000	-1.000000	-1.000000	-1.000000	-1.000000	-1.000000	54.000000	0.000000	-1.000000	-1.000000	441128.000000	1775779155.225702
1990.710000	3879.540000	12781.845000	32629.905000	22336.290000	20664.855000	-32795.100000	-17843.085000	0.191140	-0.641893	-2.269968	-5.306520	1.477612	-8.438116	1.507860	1.313373	3.555580	5.814060	1.876980	-0.905759	-0.017273	0.408751	-1.000000	-1.000000	-1.000000	-1.000000	-1.000000	-1.000000	-1.000000	54.000000	0.000000	-1.000000	-1.000000	441129.000000	1775779155.225725
1986.885000	3875.355000	12774.780000	32638.320000	22343.535000	20670.570000	-32799.420000	-17847.180000	3.056406	3.961992	2.565339	-2.583134	2.025808	-18.212598	-3.367216	2.271234	3.555580	5.814060	1.876980	-0.905759	-0.017273	0.408751	-1.000000	-1.000000	-1.000000	-1.000000	-1.000000	-1.000000	-1.000000	54.000000	0.000000	-1.000000	-1.000000	441130.000000	1775779155.225752
1991.970000	3880.710000	12784.005000	32664.420000	22359.465000	20667.285000	-32804.100000	-17845.605000	4.647266	6.951992	6.184169	1.308496	2.500149	-23.035165	-7.599690	2.638576	3.555580	5.814060	1.876980	-0.905759	-0.017273	0.408751	-1.000000	-1.000000	-1.000000	-1.000000	-1.000000	-1.000000	-1.000000	54.000000	0.000000	-1.000000	-1.000000	441131.000000	1775779155.225764
1997.685000	3888.720000	12807.540000	32688.315000	22373.055000	20671.515000	-32800.140000	-17843.625000	4.802571	7.532301	7.969667	7.244621	3.336830	-19.218127	-9.651387	2.044622	3.555580	5.814060	1.876980	-0.905759	-0.017273	0.408751	-1.000000	-1.000000	-1.000000	-1.000000	-1.000000	-1.000000	-1.000000	54.000000	0.000000	-1.000000	-1.000000	441132.000000	1775779155.229291
1994.445000	3884.535000	12802.005000	32686.335000	22367.925000	20674.935000	-32805.720000	-17845.650000	4.316825	6.477852	8.792842	13.661697	3.983254	-8.533139	-8.629525	1.117587	3.555580	5.814060	1.876980	-0.905759	-0.017273	0.408751	-1.000000	-1.000000	-1.000000	-1.000000	-1.000000	-1.000000	-1.000000	54.000000	0.000000	-1.000000	-1.000000	441133.000000	1775779155.229317
1990.845000	3875.580000	12775.860000	32644.440000	22334.265000	20648.160000	-32815.620000	-17849.430000	3.194734	4.065795	7.544181	14.986934	2.068363	3.380592	-5.204023	0.223245	3.555580	5.814060	1.876980	-0.905759	-0.017273	0.408751	-1.000000	-1.000000	-1.000000	-1.000000	-1.000000	-1.000000	-1.000000	54.000000	0.000000	-1.000000	-1.000000	441134.000000	1775779155.232529
1988.775000	3872.880000	12768.885000	32617.305000	22316.985000	20640.960000	-32813.145000	-17851.995000	1.042015	0.201507	1.954949	6.322089	-4.341679	10.392805	-1.241326	-0.742063	3.555580	5.814060	1.876980	-0.905759	-0.017273	0.408751	-1.000000	-1.000000	-1.000000	-1.000000	-1.000000	-1.000000	-1.000000	54.000000	0.000000	-1.000000	-1.000000	441135.000000	1775779155.232547
1979.235000	3862.980000	12762.360000	32619.735000	22313.205000	20671.020000	-32801.220000	-17859.240000	-1.794066	-4.113681	-6.514729	-9.324784	-12.700655	11.020635	2.317150	-1.777944	7.294280	8.408260	1.815940	-0.903806	-0.018860	0.410460	-1.000000	-1.000000	-1.000000	-1.000000	-1.000000	-1.000000	-1.000000	54.000000	0.000000	-1.000000	-1.000000	441136.000000	1775779155.236487
1974.285000	3857.805000	12761.370000	32613.930000	22316.445000	20709.405000	-32796.495000	-17865.990000	-4.371323	-7.106576	-12.626151	-21.417372	-16.570701	10.070883	5.722660	-2.674647	7.294280	8.408260	1.815940	-0.903806	-0.018860	0.410460	-1.000000	-1.000000	-1.000000	-1.000000	-1.000000	-1.000000	-1.000000	54.000000	0.000000	-1.000000	-1.000000	441137.000000	1775779155.236505
1980.405000	3867.885000	12776.805000	32623.830000	22330.260000	20704.635000	-32801.535000	-17865.360000	-5.471718	-7.249143	-12.096948	-21.407286	-11.474163	11.663417	8.308791	-3.011979	7.294280	8.408260	1.815940	-0.903806	-0.018860	0.410460	-1.000000	-1.000000	-1.000000	-1.000000	-1.000000	-1.000000	-1.000000	54.000000	0.000000	-1.000000	-1.000000	441138.000000	1775779155.241363
1983.330000	3871.485000	12784.995000	32641.470000	22336.515000	20694.870000	-32801.715000	-17863.110000	-3.963374	-3.833146	-4.648312	-9.268843	1.005598	12.814680	8.220897	-2.109388	7.294280	8.408260	1.815940	-0.903806	-0.018860	0.410460	-1.000000	-1.000000	-1.000000	-1.000000	-1.000000	-1.000000	-1.000000	54.000000	0.000000	-1.000000	-1.000000	441139.000000	1775779155.241383
1986.750000	3870.855000	12780.135000	32636.520000	22328.010000	20681.955000	-32801.535000	-17858.340000	-0.093019	1.841480	5.574107	7.891819	14.055943	7.797734	4.827536	0.320703	7.294280	8.408260	1.815940	-0.903806	-0.018860	0.410460	-1.000000	-1.000000	-1.000000	-1.000000	-1.000000	-1.000000	-1.000000	54.000000	0.000000	-1.000000	-1.000000	441140.000000	1775779155.257952
1984.005000	3866.715000	12774.735000	32630.850000	22321.395000	20673.945000	-32801.895000	-17860.005000	4.036840	6.500766	12.270115	20.377380	20.111707	-3.709554	-0.176886	3.385844	7.294280	8.408260	1.815940	-0.903806	-0.018860	0.410460	-1.000000	-1.000000	-1.000000	-1.000000	-1.000000	-1.000000	-1.000000	54.000000	0.000000	-1.000000	-1.000000	441141.000000	1775779155.257978
1986.210000	3869.595000	12777.120000	32633.955000	22322.925000	20667.600000	-32805.135000	-17860.545000	6.014875	7.500229	11.773560	21.910110	16.360889	-15.784109	-4.379303	5.314450	7.294280	8.408260	1.815940	-0.903806	-0.018860	0.410460	-1.000000	-1.000000	-1.000000	-1.000000	-1.000000	-1.000000	-1.000000	54.000000	0.000000	-1.000000	-1.000000	441142.000000	1775779155.258085
1986.030000	3869.235000	12775.905000	32632.200000	22320.810000	20655.000000	-32809.905000	-17861.355000	5.003594	4.941070	5.640918	13.569443	6.355958	-21.764258	-6.420104	4.846500	7.294280	8.408260	1.815940	-0.903806	-0.018860	0.410460	-1.000000	-1.000000	-1.000000	-1.000000	-1.000000	-1.000000	-1.000000	54.000000	0.000000	-1.000000	-1.000000	441143.000000	1775779155.258099
1988.505000	3872.610000	12779.955000	32636.295000	22323.420000	20647.845000	-32814.045000	-17860.455000	2.045341	0.967890	-1.615308	1.505504	-3.712997	-19.143909	-6.279119	2.297123	7.294280	8.408260	1.815940	-0.903806	-0.018860	0.410460	-1.000000	-1.000000	-1.000000	-1.000000	-1.000000	-1.000000	-1.000000	54.000000	0.000000	-1.000000	-1.000000	441144.000000	1775779155.258118
1989.270000	3875.130000	12784.185000	32643.450000	22328.055000	20649.330000	-32817.195000	-17862.390000	-1.079607	-2.190964	-6.145214	-7.971032	-9.349072	-9.884046	-4.589105	-0.871570	7.294280	8.408260	1.815940	-0.903806	-0.018860	0.410460	-1.000000	-1.000000	-1.000000	-1.000000	-1.000000	-1.000000	-1.000000	54.000000	0.000000	-1.000000	-1.000000	441145.000000	1775779155.258129
1994.445000	3882.915000	12793.590000	32655.690000	22335.345000	20642.985000	-32824.620000	-17860.455000	-2.988133	-3.346970	-6.487415	-11.366240	-9.333331	1.908877	-2.143587	-3.208534	6.805960	9.522240	0.732480	-0.902769	-0.016540	0.412352	-1.000000	-1.000000	-1.000000	-1.000000	-1.000000	-1.000000	-1.000000	54.000000	0.000000	-1.000000	-1.000000	441146.000000	1775779155.258143
2000.025000	3888.045000	12797.550000	32661.135000	22336.920000	20652.300000	-32825.340000	-17855.730000	-3.118613	-2.510959	-3.563687	-8.872156	-5.342636	11.958196	0.273448	-3.859118	6.805960	9.522240	0.732480	-0.902769	-0.016540	0.412352	-1.000000	-1.000000	-1.000000	-1.000000	-1.000000	-1.000000	-1.000000	54.000000	0.000000	-1.000000	-1.000000	441147.000000	1775779155.258153
2001.060000	3887.730000	12796.155000	32660.775000	22334.805000	20661.615000	-32827.905000	-17857.170000	-1.839144	-0.756343	0.133339	-3.684265	-0.635971	17.580901	2.218467	-2.793406	6.805960	9.522240	0.732480	-0.902769	-0.016540	0.412352	-1.000000	-1.000000	-1.000000	-1.000000	-1.000000	-1.000000	-1.000000	54.000000	0.000000	-1.000000	-1.000000	441148.000000	1775779155.260539
2000.835000	3886.740000	12794.850000	32659.470000	22338.270000	20665.620000	-32829.885000	-17861.040000	-0.330481	0.330600	2.035467	0.256243	2.012326	18.184200	3.563566	-1.032977	6.805960	9.522240	0.732480	-0.902769	-0.016540	0.412352	-1.000000	-1.000000	-1.000000	-1.000000	-1.000000	-1.000000	-1.000000	54.000000	0.000000	-1.000000	-1.000000	441149.000000	1775779155.260558
2003.445000	3891.960000	12798.855000	32652.720000	22344.345000	20685.330000	-32823.585000	-17862.435000	0.295680	-0.043910	1.315030	0.836246	2.080359	14.497522	4.283299	0.055532	6.805960	9.522240	0.732480	-0.902769	-0.016540	0.412352	-1.000000	-1.000000	-1.000000	-1.000000	-1.000000	-1.000000	-1.000000	54.000000	0.000000	-1.000000	-1.000000	441150.000000	1775779155.266611
2008.800000	3898.620000	12804.210000	32658.795000	22347.315000	20677.680000	-32819.670000	-17857.350000	0.005429	-1.084944	-0.644513	-1.207950	0.932729	8.000282	4.560309	0.152404	6.805960	9.522240	0.732480	-0.902769	-0.016540	0.412352	-1.000000	-1.000000	-1.000000	-1.000000	-1.000000	-1.000000	-1.000000	54.000000	0.000000	-1.000000	-1.000000	441151.000000	1775779155.266634
2001.150000	3889.260000	12792.780000	32656.545000	22344.300000	20681.325000	-32798.070000	-17860.005000	-0.577402	-1.678458	-2.113626	-3.309132	-0.188513	0.089771	4.780635	0.036483	6.805960	9.522240	0.732480	-0.902769	-0.016540	0.412352	-1.000000	-1.000000	-1.000000	-1.000000	-1.000000	-1.000000	-1.000000	54.000000	0.000000	-1.000000	-1.000000	441152.000000	1775779155.269924
1984.635000	3869.640000	12773.745000	32641.155000	22338.720000	20690.280000	-32780.430000	-17868.015000	-1.537654	-2.240241	-3.119655	-3.729118	-1.212615	-7.569740	5.343631	0.087570	6.805960	9.522240	0.732480	-0.902769	-0.016540	0.412352	-1.000000	-1.000000	-1.000000	-1.000000	-1.000000	-1.000000	-1.000000	54.000000	0.000000	-1.000000	-1.000000	441153.000000	1775779155.269942
1976.940000	3858.975000	12763.620000	32630.805000	22335.705000	20671.740000	-32792.895000	-17873.505000	-3.358471	-3.886174	-4.592419	-3.049850	-2.426712	-12.835627	5.460904	-0.220044	6.805960	9.522240	0.732480	-0.902769	-0.016540	0.412352	-1.000000	-1.000000	-1.000000	-1.000000	-1.000000	-1.000000	-1.000000	54.000000	0.000000	-1.000000	-1.000000	441154.000000	1775779155.272515
1979.685000	3860.370000	12769.380000	32628.915000	22333.545000	20676.780000	-32797.125000	-17872.065000	-5.034914	-5.767158	-5.687835	-2.238128	-3.423373	-14.715494	2.719828	-0.986423	6.805960	9.522240	0.732480	-0.902769	-0.016540	0.412352	-1.000000	-1.000000	-1.000000	-1.000000	-1.000000	-1.000000	-1.000000	54.000000	0.000000	-1.000000	-1.000000	441155.000000	1775779155.272532
1982.790000	3865.275000	12780.135000	32636.205000	22327.605000	20684.070000	-32800.725000	-17872.425000	-4.272328	-5.117571	-3.828668	-0.690981	-3.408853	-13.006098	-3.702046	-1.270212	5.234180	10.392060	-0.930860	-0.900388	-0.011230	0.416137	-1.000000	-1.000000	-1.000000	-1.000000	-1.000000	-1.000000	-1.000000	54.000000	0.000000	-1.000000	-1.000000	441156.000000	1775779155.277738
1987.515000	3866.175000	12773.295000	32630.085000	22323.915000	20695.770000	-32794.380000	-17869.095000	-0.158078	-0.541776	1.763840	2.413939	-2.183998	-7.453588	-10.638294	-0.264554	5.234180	10.392060	-0.930860	-0.900388	-0.011230	0.416137	-1.000000	-1.000000	-1.000000	-1.000000	-1.000000	-1.000000	-1.000000	54.000000	0.000000	-1.000000	-1.000000	441157.000000	1775779155.277764
1990.755000	3868.650000	12771.315000	32635.710000	22331.970000	20708.370000	-32792.265000	-17866.890000	5.499282	5.980010	7.984641	6.099002	-0.040063	0.793265	-13.560847	1.738403	5.234180	10.392060	-0.930860	-0.900388	-0.011230	0.416137	-1.000000	-1.000000	-1.000000	-1.000000	-1.000000	-1.000000	-1.000000	54.000000	0.000000	-1.000000	-1.000000	441158.000000	1775779155.281262
1990.800000	3871.845000	12775.995000	32647.860000	22342.455000	20683.080000	-32807.340000	-17868.735000	9.555789	10.817464	10.842720	8.595205	2.919726	8.090654	-10.957102	3.558493	5.234180	10.392060	-0.930860	-0.900388	-0.011230	0.416137	-1.000000	-1.000000	-1.000000	-1.000000	-1.000000	-1.000000	-1.000000	54.000000	0.000000	-1.000000	-1.000000	441159.000000	1775779155.281280
1996.155000	3877.920000	12782.565000	32655.645000	22347.990000	20639.250000	-32814.135000	-17864.595000	9.836801	11.647058	9.378740	9.180802	6.241599	9.246758	-5.423427	4.009956	5.234180	10.392060	-0.930860	-0.900388	-0.011230	0.416137	-1.000000	-1.000000	-1.000000	-1.000000	-1.000000	-1.000000	-1.000000	54.000000	0.000000	-1.000000	-1.000000	441160.000000	1775779155.284520
1998.945000	3882.285000	12785.490000	32650.155000	22333.410000	20589.615000	-32820.300000	-17865.765000	6.503807	8.602072	5.415652	7.584100	8.037152	1.438998	-0.375615	2.834933	5.234180	10.392060	-0.930860	-0.900388	-0.011230	0.416137	-1.000000	-1.000000	-1.000000	-1.000000	-1.000000	-1.000000	-1.000000	54.000000	0.000000	-1.000000	-1.000000	441161.000000	1775779155.284536
1998.495000	3882.960000	12788.595000	32634.180000	22322.205000	20616.075000	-32811.840000	-17867.115000	1.421925	3.362976	1.039379	3.109475	5.864560	-10.549358	3.134470	0.644866	5.234180	10.392060	-0.930860	-0.900388	-0.011230	0.416137	-1.000000	-1.000000	-1.000000	-1.000000	-1.000000	-1.000000	-1.000000	54.000000	0.000000	-1.000000	-1.000000	441162.000000	1775779155.288580
1990.935000	3877.785000	12792.555000	32637.060000	22318.515000	20650.770000	-32803.785000	-17874.855000	-3.559160	-2.295175	-2.544218	-3.838412	-0.271960	-15.071020	6.060981	-1.843948	5.234180	10.392060	-0.930860	-0.900388	-0.011230	0.416137	-1.000000	-1.000000	-1.000000	-1.000000	-1.000000	-1.000000	-1.000000	54.000000	0.000000	-1.000000	-1.000000	441163.000000	1775779155.288599
1993.140000	3880.035000	12796.560000	32646.195000	22328.415000	20644.605000	-32818.995000	-17873.955000	-7.239570	-6.986729	-4.759917	-9.997150	-6.604432	-4.977743	8.606615	-3.967857	5.234180	10.392060	-0.930860	-0.900388	-0.011230	0.416137	-1.000000	-1.000000	-1.000000	-1.000000	-1.000000	-1.000000	-1.000000	54.000000	0.000000	-1.000000	-1.000000	441164.000000	1775779155.295104
1991.880000	3878.460000	12790.305000	32640.030000	22324.455000	20647.755000	-32827.275000	-17877.330000	-8.618639	-9.453278	-5.605924	-11.523116	-8.720702	13.046991	8.842476	-4.890985	5.234180	10.392060	-0.930860	-0.900388	-0.011230	0.416137	-1.000000	-1.000000	-1.000000	-1.000000	-1.000000	-1.000000	-1.000000	54.000000	0.000000	-1.000000	-1.000000	441165.000000	1775779155.295129
1992.465000	3880.170000	12789.000000	32643.585000	22328.325000	20669.715000	-32817.825000	-17877.240000	-7.187956	-8.944491	-5.676464	-7.994061	-5.704010	25.894906	5.639334	-4.051337	-0.030520	11.734940	-1.434440	-0.898374	-0.003906	0.416747	-1.000000	-1.000000	-1.000000	-1.000000	-1.000000	-1.000000	-1.000000	54.000000	0.000000	-1.000000	-1.000000	441166.000000	1775779155.297445
1994.895000	3884.850000	12797.055000	32653.665000	22338.045000	20693.115000	-32810.805000	-17876.655000	-3.592987	-5.781920	-5.190601	-1.976399	-0.053768	27.056162	1.294369	-1.730414	-0.030520	11.734940	-1.434440	-0.898374	-0.003906	0.416747	-1.000000	-1.000000	-1.000000	-1.000000	-1.000000	-1.000000	-1.000000	54.000000	0.000000	-1.000000	-1.000000	441167.000000	1775779155.297469
1999.710000	3889.215000	12797.955000	32665.005000	22347.405000	20689.020000	-32820.660000	-17877.015000	0.747710	-1.162299	-3.550742	3.990420	5.289050	18.266784	-1.336748	1.115896	-0.030520	11.734940	-1.434440	-0.898374	-0.003906	0.416747	-1.000000	-1.000000	-1.000000	-1.000000	-1.000000	-1.000000	-1.000000	54.000000	0.000000	-1.000000	-1.000000	441168.000000	1775779155.301250
2002.725000	3893.265000	12804.885000	32681.340000	22365.900000	20687.400000	-32838.930000	-17878.950000	4.386516	3.274466	-0.632093	8.346540	8.552553	3.862600	-2.518128	3.307097	-0.030520	11.734940	-1.434440	-0.898374	-0.003906	0.416747	-1.000000	-1.000000	-1.000000	-1.000000	-1.000000	-1.000000	-1.000000	54.000000	0.000000	-1.000000	-1.000000	441169.000000	1775779155.301272
1993.005000	3879.585000	12794.985000	32672.250000	22351.680000	20671.245000	-32816.700000	-17879.490000	5.994486	5.681379	2.329811	9.781297	8.705135	-11.793695	-3.652321	3.982148	-0.030520	11.734940	-1.434440	-0.898374	-0.003906	0.416747	-1.000000	-1.000000	-1.000000	-1.000000	-1.000000	-1.000000	-1.000000	54.000000	0.000000	-1.000000	-1.000000	441170.000000	1775779155.305263
1996.155000	3883.860000	12798.855000	32675.085000	22351.455000	20637.720000	-32801.580000	-17874.630000	4.782708	4.838831	3.626061	7.091619	4.885835	-24.615653	-3.497156	3.209084	-0.030520	11.734940	-1.434440	-0.898374	-0.003906	0.416747	-1.000000	-1.000000	-1.000000	-1.000000	-1.000000	-1.000000	-1.000000	54.000000	0.000000	-1.000000	-1.000000	441171.000000	1775779155.305286
1994.220000	3883.905000	12799.530000	32664.510000	22358.655000	20639.340000	-32806.620000	-17877.870000	1.575838	1.668605	2.851721	0.681667	-1.915470	-31.154319	-0.505051	1.806026	-0.030520	11.734940	-1.434440	-0.898374	-0.003906	0.416747	-1.000000	-1.000000	-1.000000	-1.000000	-1.000000	-1.000000	-1.000000	54.000000	0.000000	-1.000000	-1.000000	441172.000000	1775779155.309421
1994.445000	3882.645000	12802.095000	32664.330000	22354.560000	20646.855000	-32809.770000	-17877.420000	-1.568382	-1.331374	1.244577	-6.694557	-8.091951	-28.206143	3.115971	0.388573	-0.030520	11.734940	-1.434440	-0.898374	-0.003906	0.416747	-1.000000	-1.000000	-1.000000	-1.000000	-1.000000	-1.000000	-1.000000	54.000000	0.000000	-1.000000	-1.000000	441173.000000	1775779155.309444
1978.605000	3858.705000	12773.565000	32628.960000	22333.590000	20749.635000	-32785.020000	-17885.430000	-3.390452	-2.960552	-0.399049	-12.046272	-10.953026	-13.191954	4.270824	-0.990007	-0.030520	11.734940	-1.434440	-0.898374	-0.003906	0.416747	-1.000000	-1.000000	-1.000000	-1.000000	-1.000000	-1.000000	-1.000000	54.000000	0.000000	-1.000000	-1.000000	441174.000000	1775779155.314930
1964.385000	3837.825000	12744.360000	32578.830000	22295.205000	20745.630000	-32770.710000	-17893.755000	-4.320434	-4.272504	-3.074183	-14.919024	-11.392853	11.765524	3.380867	-2.480825	-0.030520	11.734940	-1.434440	-0.898374	-0.003906	0.416747	-1.000000	-1.000000	-1.000000	-1.000000	-1.000000	-1.000000	-1.000000	54.000000	0.000000	-1.000000	-1.000000	441175.000000	1775779155.314957
1974.375000	3849.210000	12752.955000	32598.045000	22300.470000	20691.045000	-32789.475000	-17888.310000	-4.693350	-5.632334	-6.782013	-15.503979	-11.029820	33.568402	1.939550	-3.732702	-2.731540	11.887540	-0.015260	-0.902525	0.003845	0.415221	-1.000000	-1.000000	-1.000000	-1.000000	-1.000000	-1.000000	-1.000000	54.000000	0.000000	-1.000000	-1.000000	441176.000000	1775779155.316956
1975.905000	3857.760000	12764.880000	32614.920000	22317.165000	20696.040000	-32797.665000	-17886.465000	-3.236340	-4.568575	-7.782853	-10.562171	-8.066567	35.419159	-1.000558	-3.555132	-2.731540	11.887540	-0.015260	-0.902525	0.003845	0.415221	-1.000000	-1.000000	-1.000000	-1.000000	-1.000000	-1.000000	-1.000000	54.000000	0.000000	-1.000000	-1.000000	441177.000000	1775779155.316973
1987.560000	3872.160000	12781.080000	32633.460000	22335.480000	20707.470000	-32800.230000	-17881.245000	0.963820	0.997001	-2.351214	2.634937	0.514280	16.126368	-6.024987	-1.221142	-2.731540	11.887540	-0.015260	-0.902525	0.003845	0.415221	-1.000000	-1.000000	-1.000000	-1.000000	-1.000000	-1.000000	-1.000000	54.000000	0.000000	-1.000000	-1.000000	441178.000000	1775779155.330553
1988.820000	3872.115000	12781.710000	32638.320000	22339.485000	20701.035000	-32808.870000	-17884.620000	6.352438	8.927108	7.734265	19.495606	12.948160	-8.681279	-10.551663	2.198225	-2.731540	11.887540	-0.015260	-0.902525	0.003845	0.415221	-1.000000	-1.000000	-1.000000	-1.000000	-1.000000	-1.000000	-1.000000	54.000000	0.000000	-1.000000	-1.000000	441179.000000	1775779155.330578
1988.640000	3872.025000	12782.790000	32638.005000	22334.535000	20690.280000	-32806.035000	-17885.070000	9.782863	14.082634	15.946156	30.348692	22.231957	-24.101771	-11.312230	4.522136	-2.731540	11.887540	-0.015260	-0.902525	0.003845	0.415221	-1.000000	-1.000000	-1.000000	-1.000000	-1.000000	-1.000000	-1.000000	54.000000	0.000000	-1.000000	-1.000000	441180.000000	1775779155.330603
1997.055000	3881.295000	12792.150000	32645.520000	22339.080000	20675.340000	-32807.790000	-17881.245000	9.061620	12.907257	16.877583	28.587720	22.155206	-26.074549	-7.257446	4.428069	-2.731540	11.887540	-0.015260	-0.902525	0.003845	0.415221	-1.000000	-1.000000	-1.000000	-1.000000	-1.000000	-1.000000	-1.000000	54.000000	0.000000	-1.000000	-1.000000	441181.000000	1775779155.330613
2002.320000	3887.505000	12799.305000	32656.635000	22346.910000	20651.355000	-32817.240000	-17879.625000	4.821995	6.408083	10.550692	15.670675	12.839848	-18.738721	-0.250575	2.491040	-2.731540	11.887540	-0.015260	-0.902525	0.003845	0.415221	-1.000000	-1.000000	-1.000000	-1.000000	-1.000000	-1.000000	-1.000000	54.000000	0.000000	-1.000000	-1.000000	441182.000000	1775779155.330688
2002.275000	3888.135000	12802.410000	32664.735000	22352.445000	20642.220000	-32821.020000	-17882.325000	-0.497815	-1.571797	1.071709	-0.963711	0.033671	-8.326133	6.071238	0.098396	-2.731540	11.887540	-0.015260	-0.902525	0.003845	0.415221	-1.000000	-1.000000	-1.000000	-1.000000	-1.000000	-1.000000	-1.000000	54.000000	0.000000	-1.000000	-1.000000	441183.000000	1775779155.330708
1996.245000	3878.775000	12791.070000	32652.945000	22340.070000	20664.225000	-32807.520000	-17883.990000	-5.049374	-8.005370	-7.534046	-14.212914	-10.351566	1.744859	9.340499	-1.921490	-2.731540	11.887540	-0.015260	-0.902525	0.003845	0.415221	-1.000000	-1.000000	-1.000000	-1.000000	-1.000000	-1.000000	-1.000000	54.000000	0.000000	-1.000000	-1.000000	441184.000000	1775779155.332612
2002.635000	3883.860000	12792.375000	32651.415000	22333.320000	20682.180000	-32799.600000	-17875.350000	-7.977463	-11.682487	-13.236598	-21.183013	-15.958601	11.551315	10.066965	-3.079115	-2.731540	11.887540	-0.015260	-0.902525	0.003845	0.415221	-1.000000	-1.000000	-1.000000	-1.000000	-1.000000	-1.000000	-1.000000	54.000000	0.000000	-1.000000	-1.000000	441185.000000	1775779155.332637
2006.505000	3892.095000	12803.670000	32661.945000	22339.305000	20688.885000	-32817.825000	-17879.220000	-8.467757	-11.834918	-14.814804	-21.721513	-16.768142	20.457716	9.093839	-2.887505	-5.691980	10.636220	-0.427280	-0.906248	0.006226	0.413939	-1.000000	-1.000000	-1.000000	-1.000000	-1.000000	-1.000000	-1.000000	54.000000	0.000000	-1.000000	-1.000000	441186.000000	1775779155.339027
2004.165000	3891.960000	12802.275000	32655.870000	22336.920000	20672.640000	-32831.640000	-17884.980000	-6.237290	-8.175728	-11.521421	-16.472327	-13.020045	24.328571	5.427474	-1.758376	-5.691980	10.636220	-0.427280	-0.906248	0.006226	0.413939	-1.000000	-1.000000	-1.000000	-1.000000	-1.000000	-1.000000	-1.000000	54.000000	0.000000	-1.000000	-1.000000	441187.000000	1775779155.339051
1999.395000	3883.635000	12789.720000	32647.815000	22326.795000	20659.005000	-32826.060000	-17887.365000	-2.624571	-2.495032	-5.067085	-7.883663	-6.120878	18.831471	-0.990582	-0.926953	-5.691980	10.636220	-0.427280	-0.906248	0.006226	0.413939	-1.000000	-1.000000	-1.000000	-1.000000	-1.000000	-1.000000	-1.000000	54.000000	0.000000	-1.000000	-1.000000	441188.000000	1775779155.341358
1990.260000	3872.970000	12780.585000	32643.810000	22325.760000	20663.235000	-32811.390000	-17894.610000	0.217830	1.899165	0.643864	0.173740	0.897755	5.076127	-6.557427	-0.963955	-5.691980	10.636220	-0.427280	-0.906248	0.006226	0.413939	-1.000000	-1.000000	-1.000000	-1.000000	-1.000000	-1.000000	-1.000000	54.000000	0.000000	-1.000000	-1.000000	441189.000000	1775779155.341380
1989.225000	3871.080000	12779.730000	32639.085000	22333.185000	20630.340000	-32812.020000	-17895.060000	1.186464	3.074787	3.153496	5.217609	5.810468	-10.239507	-7.261846	-1.364643	-5.691980	10.636220	-0.427280	-0.906248	0.006226	0.413939	-1.000000	-1.000000	-1.000000	-1.000000	-1.000000	-1.000000	-1.000000	54.000000	0.000000	-1.000000	-1.000000	441190.000000	1775779155.345335
2002.500000	3885.030000	12794.310000	32647.680000	22339.620000	20587.185000	-32825.430000	-17883.540000	1.253017	2.311985	3.596917	7.356611	8.568865	-21.232659	-3.644068	-0.996613	-5.691980	10.636220	-0.427280	-0.906248	0.006226	0.413939	-1.000000	-1.000000	-1.000000	-1.000000	-1.000000	-1.000000	-1.000000	54.000000	0.000000	-1.000000	-1.000000	441191.000000	1775779155.345359
2002.860000	3881.835000	12793.770000	32663.250000	22338.675000	20621.205000	-32818.680000	-17881.110000	2.285821	2.351210	4.547098	8.339823	9.644092	-24.950897	0.199884	1.060835	-5.691980	10.636220	-0.427280	-0.906248	0.006226	0.413939	-1.000000	-1.000000	-1.000000	-1.000000	-1.000000	-1.000000	-1.000000	54.000000	0.000000	-1.000000	-1.000000	441192.000000	1775779155.349809
1984.095000	3859.245000	12767.310000	32635.125000	22322.295000	20694.780000	-32791.410000	-17895.060000	4.049217	3.431266	5.921275	8.907697	8.366174	-17.293441	2.249775	3.794526	-5.691980	10.636220	-0.427280	-0.906248	0.006226	0.413939	-1.000000	-1.000000	-1.000000	-1.000000	-1.000000	-1.000000	-1.000000	54.000000	0.000000	-1.000000	-1.000000	441193.000000	1775779155.349823
1966.455000	3839.085000	12743.820000	32585.985000	22304.430000	20737.170000	-32773.815000	-17907.120000	3.800633	2.798733	4.605856	6.386492	3.679731	3.589662	4.067456	4.376893	-5.691980	10.636220	-0.427280	-0.906248	0.006226	0.413939	-1.000000	-1.000000	-1.000000	-1.000000	-1.000000	-1.000000	-1.000000	54.000000	0.000000	-1.000000	-1.000000	441194.000000	1775779155.353698
1975.095000	3852.315000	12761.550000	32596.515000	22310.955000	20707.200000	-32788.215000	-17902.440000	0.446788	-0.512047	-0.214347	-1.229673	-3.230437	27.794337	6.066415	1.630848	-5.691980	10.636220	-0.427280	-0.906248	0.006226	0.413939	-1.000000	-1.000000	-1.000000	-1.000000	-1.000000	-1.000000	-1.000000	54.000000	0.000000	-1.000000	-1.000000	441195.000000	1775779155.353718
1985.220000	3867.885000	12786.885000	32642.955000	22324.320000	20688.795000	-32802.615000	-17898.885000	-2.833979	-2.883565	-3.760449	-8.364328	-7.988060	37.149590	5.092030	-1.954829	-5.646200	10.254720	-1.297100	-0.905637	0.002991	0.414367	-1.000000	-1.000000	-1.000000	-1.000000	-1.000000	-1.000000	-1.000000	54.000000	0.000000	-1.000000	-1.000000	441196.000000	1775779155.359620
1990.485000	3874.185000	12791.295000	32650.020000	22327.740000	20681.685000	-32806.350000	-17897.445000	-2.279687	-0.584040	-1.227442	-6.419642	-6.795047	22.867810	-0.957880	-3.116856	-5.646200	10.254720	-1.297100	-0.905637	0.002991	0.414367	-1.000000	-1.000000	-1.000000	-1.000000	-1.000000	-1.000000	-1.000000	54.000000	0.000000	-1.000000	-1.000000	441197.000000	1775779155.359644
1994.310000	3877.650000	12794.355000	32648.355000	22334.895000	20678.085000	-32810.445000	-17896.320000	1.851139	5.059283	5.481402	4.124285	-0.655681	-5.419128	-9.021919	-1.304019	-5.646200	10.254720	-1.297100	-0.905637	0.002991	0.414367	-1.000000	-1.000000	-1.000000	-1.000000	-1.000000	-1.000000	-1.000000	54.000000	0.000000	-1.000000	-1.000000	441198.000000	1775779155.360866
1994.355000	3873.330000	12794.130000	32652.585000	22341.420000	20672.055000	-32815.665000	-17897.580000	5.936553	9.079807	9.974169	13.643883	5.871094	-29.658267	-13.686594	1.515430	-5.646200	10.254720	-1.297100	-0.905637	0.002991	0.414367	-1.000000	-1.000000	-1.000000	-1.000000	-1.000000	-1.000000	-1.000000	54.000000	0.000000	-1.000000	-1.000000	441199.000000	1775779155.360883
2002.680000	3877.470000	12798.270000	32661.180000	22342.410000	20657.655000	-32815.170000	-17892.405000	6.850024	7.943618	8.283233	14.580549	8.808257	-37.940737	-12.105089	3.213336	-5.646200	10.254720	-1.297100	-0.905637	0.002991	0.414367	-1.000000	-1.000000	-1.000000	-1.000000	-1.000000	-1.000000	-1.000000	54.000000	0.000000	-1.000000	-1.000000	441200.000000	1775779155.386217
1996.515000	3873.510000	12804.570000	32671.980000	22343.715000	20660.535000	-32813.280000	-17892.315000	4.148851	2.244064	1.711400	7.454203	6.875573	-29.667758	-5.274672	3.084945	-5.646200	10.254720	-1.297100	-0.905637	0.002991	0.414367	-1.000000	-1.000000	-1.000000	-1.000000	-1.000000	-1.000000	-1.000000	54.000000	0.000000	-1.000000	-1.000000	441201.000000	1775779155.386243
1995.660000	3878.820000	12792.510000	32657.355000	22336.470000	20654.280000	-32815.305000	-17893.530000	-0.694611	-4.552131	-5.708983	-2.651010	1.340165	-11.707120	3.387373	1.575850	-5.646200	10.254720	-1.297100	-0.905637	0.002991	0.414367	-1.000000	-1.000000	-1.000000	-1.000000	-1.000000	-1.000000	-1.000000	54.000000	0.000000	-1.000000	-1.000000	441202.000000	1775779155.386270
1993.410000	3888.225000	12797.055000	32648.535000	22341.195000	20648.790000	-32812.335000	-17887.050000	-5.567928	-8.741742	-10.815339	-11.537621	-5.013684	7.048815	10.049163	-0.459220	-5.646200	10.254720	-1.297100	-0.905637	0.002991	0.414367	-1.000000	-1.000000	-1.000000	-1.000000	-1.000000	-1.000000	-1.000000	54.000000	0.000000	-1.000000	-1.000000	441203.000000	1775779155.386281
1997.100000	3891.015000	12806.325000	32661.495000	22346.505000	20655.585000	-32809.095000	-17887.050000	-8.328264	-8.453648	-11.890779	-16.618441	-9.012086	19.683764	12.468005	-1.995441	-5.646200	10.254720	-1.297100	-0.905637	0.002991	0.414367	-1.000000	-1.000000	-1.000000	-1.000000	-1.000000	-1.000000	-1.000000	54.000000	0.000000	-1.000000	-1.000000	441204.000000	1775779155.386294
2000.385000	3885.120000	12794.850000	32656.770000	22336.020000	20656.665000	-32808.645000	-17894.790000	-7.691307	-4.881632	-8.665263	-15.815047	-8.940856	23.757167	10.693864	-2.633217	-5.646200	10.254720	-1.297100	-0.905637	0.002991	0.414367	-1.000000	-1.000000	-1.000000	-1.000000	-1.000000	-1.000000	-1.000000	54.000000	0.000000	-1.000000	-1.000000	441205.000000	1775779155.386305
1991.295000	3872.880000	12785.220000	32652.585000	22329.270000	20672.820000	-32804.145000	-17899.515000	-4.265806	-1.351583	-3.457281	-9.517493	-6.015980	20.836693	6.241046	-2.985388	-3.326680	8.759240	-2.166920	-0.905637	-0.002319	0.415954	-1.000000	-1.000000	-1.000000	-1.000000	-1.000000	-1.000000	-1.000000	54.000000	0.000000	-1.000000	-1.000000	441206.000000	1775779155.386317
1991.295000	3870.405000	12785.445000	32643.360000	22330.035000	20685.105000	-32802.345000	-17898.795000	-0.332851	-0.294743	0.592283	-1.394828	-2.620540	14.299911	1.114050	-3.380742	-3.326680	8.759240	-2.166920	-0.905637	-0.002319	0.415954	-1.000000	-1.000000	-1.000000	-1.000000	-1.000000	-1.000000	-1.000000	54.000000	0.000000	-1.000000	-1.000000	441207.000000	1775779155.386328
1994.085000	3872.160000	12787.785000	32617.485000	22333.230000	20698.695000	-32799.735000	-17897.490000	2.274454	-1.098836	2.710674	4.266041	0.342558	7.198828	-2.997836	-3.069911	-3.326680	8.759240	-2.166920	-0.905637	-0.002319	0.415954	-1.000000	-1.000000	-1.000000	-1.000000	-1.000000	-1.000000	-1.000000	54.000000	0.000000	-1.000000	-1.000000	441208.000000	1775779155.386340
1987.830000	3867.705000	12786.345000	32627.880000	22325.760000	20686.410000	-32804.055000	-17904.735000	3.349334	-1.403230	4.014292	5.635408	2.973064	0.582967	-5.378734	-1.489457	-3.326680	8.759240	-2.166920	-0.905637	-0.002319	0.415954	-1.000000	-1.000000	-1.000000	-1.000000	-1.000000	-1.000000	-1.000000	54.000000	0.000000	-1.000000	-1.000000	441209.000000	1775779155.386350
1986.885000	3870.135000	12785.805000	32636.385000	22328.055000	20683.260000	-32805.945000	-17905.590000	3.232761	0.025375	5.080766	4.940485	4.812873	-6.181651	-6.258334	0.644251	-3.326680	8.759240	-2.166920	-0.905637	-0.002319	0.415954	-1.000000	-1.000000	-1.000000	-1.000000	-1.000000	-1.000000	-1.000000	54.000000	0.000000	-1.000000	-1.000000	441210.000000	1775779155.389560
1982.655000	3867.795000	12783.240000	32638.725000	22330.170000	20677.185000	-32809.455000	-17907.525000	2.241334	2.541567	5.418928	5.625688	5.347567	-12.847560	-6.091800	2.240348	-3.326680	8.759240	-2.166920	-0.905637	-0.002319	0.415954	-1.000000	-1.000000	-1.000000	-1.000000	-1.000000	-1.000000	-1.000000	54.000000	0.000000	-1.000000	-1.000000	441211.000000	1775779155.389581
1989.405000	3875.400000	12793.770000	32651.370000	22338.945000	20661.030000	-32812.110000	-17907.165000	1.070259	4.823013	4.692711	8.053309	4.931304	-17.340210	-5.051172	2.943141	-3.326680	8.759240	-2.166920	-0.905637	-0.002319	0.415954	-1.000000	-1.000000	-1.000000	-1.000000	-1.000000	-1.000000	-1.000000	54.000000	0.000000	-1.000000	-1.000000	441212.000000	1775779155.389602
1986.660000	3873.195000	12791.340000	32649.030000	22331.385000	20638.395000	-32817.105000	-17912.160000	0.552478	5.897551	3.370911	9.831804	4.036188	-18.025033	-3.252921	2.884256	-3.326680	8.759240	-2.166920	-0.905637	-0.002319	0.415954	-1.000000	-1.000000	-1.000000	-1.000000	-1.000000	-1.000000	-1.000000	54.000000	0.000000	-1.000000	-1.000000	441213.000000	1775779155.389609
1989.495000	3873.870000	12787.785000	32644.935000	22327.380000	20638.620000	-32811.930000	-17905.950000	0.809510	5.262567	1.751373	8.415057	2.287273	-14.711039	-0.913303	2.300056	-3.326680	8.759240	-2.166920	-0.905637	-0.002319	0.415954	-1.000000	-1.000000	-1.000000	-1.000000	-1.000000	-1.000000	-1.000000	54.000000	0.000000	-1.000000	-1.000000	441214.000000	1775779155.393966
2000.475000	3885.120000	12797.820000	32648.895000	22343.535000	20662.785000	-32813.505000	-17897.850000	1.403223	3.151934	-0.219225	3.174677	-0.309750	-7.061719	1.743969	1.795421	-3.326680	8.759240	-2.166920	-0.905637	-0.002319	0.415954	-1.000000	-1.000000	-1.000000	-1.000000	-1.000000	-1.000000	-1.000000	54.000000	0.000000	-1.000000	-1.000000	441215.000000	1775779155.393986
1996.245000	3881.025000	12794.445000	32645.205000	22345.335000	20705.805000	-32808.105000	-17903.025000	1.953959	0.653173	-1.967089	-3.706385	-2.175321	5.386537	4.224346	1.789469	-0.549360	6.088740	-3.189340	-0.907407	-0.005859	0.416320	-1.000000	-1.000000	-1.000000	-1.000000	-1.000000	-1.000000	-1.000000	54.000000	0.000000	-1.000000	-1.000000	441216.000000	1775779155.397172
1989.270000	3872.385000	12783.600000	32634.135000	22328.145000	20709.405000	-32797.440000	-17903.925000	1.642209	-1.663021	-3.106637	-9.202865	-2.545403	19.888754	5.921050	1.543063	-0.549360	6.088740	-3.189340	-0.907407	-0.005859	0.416320	-1.000000	-1.000000	-1.000000	-1.000000	-1.000000	-1.000000	-1.000000	54.000000	0.000000	-1.000000	-1.000000	441217.000000	1775779155.397192
1993.140000	3872.295000	12779.010000	32630.400000	22320.945000	20672.280000	-32804.370000	-17899.650000	-0.247376	-4.025926	-4.163568	-11.708735	-3.027095	28.213100	6.339309	0.251217	-0.549360	6.088740	-3.189340	-0.907407	-0.005859	0.416320	-1.000000	-1.000000	-1.000000	-1.000000	-1.000000	-1.000000	-1.000000	54.000000	0.000000	-1.000000	-1.000000	441218.000000	1775779155.401400
1994.580000	3875.220000	12782.880000	32635.485000	22321.845000	20647.080000	-32816.205000	-17902.980000	-2.741827	-5.803906	-4.986035	-10.691662	-4.529725	21.988086	4.560734	-1.589016	-0.549360	6.088740	-3.189340	-0.907407	-0.005859	0.416320	-1.000000	-1.000000	-1.000000	-1.000000	-1.000000	-1.000000	-1.000000	54.000000	0.000000	-1.000000	-1.000000	441219.000000	1775779155.401412
2001.870000	3885.570000	12795.660000	32648.445000	22331.790000	20633.580000	-32821.470000	-17899.065000	-3.882362	-5.434010	-4.053886	-5.966318	-5.182879	2.417755	0.120027	-2.941058	-0.549360	6.088740	-3.189340	-0.907407	-0.005859	0.416320	-1.000000	-1.000000	-1.000000	-1.000000	-1.000000	-1.000000	-1.000000	54.000000	0.000000	-1.000000	-1.000000	441220.000000	1775779155.404597
2002.095000	3886.020000	12796.245000	32649.255000	22331.970000	20630.700000	-32819.490000	-17898.345000	-2.807305	-2.364496	-0.489306	1.336045	-2.886676	-18.652961	-5.123103	-3.174724	-0.549360	6.088740	-3.189340	-0.907407	-0.005859	0.416320	-1.000000	-1.000000	-1.000000	-1.000000	-1.000000	-1.000000	-1.000000	54.000000	0.000000	-1.000000	-1.000000	441221.000000	1775779155.404604
2000.115000	3884.130000	12793.725000	32651.145000	22332.780000	20641.230000	-32817.690000	-17901.315000	-0.527676	1.718602	3.979862	8.030472	1.657860	-28.318293	-7.840470	-2.340609	-0.549360	6.088740	-3.189340	-0.907407	-0.005859	0.416320	-1.000000	-1.000000	-1.000000	-1.000000	-1.000000	-1.000000	-1.000000	54.000000	0.000000	-1.000000	-1.000000	441222.000000	1775779155.409288
2001.060000	3888.495000	12801.510000	32665.680000	22343.670000	20652.795000	-32821.920000	-17905.995000	1.153164	4.245533	6.419834	10.984223	5.758175	-21.751900	-6.378953	-1.237373	-0.549360	6.088740	-3.189340	-0.907407	-0.005859	0.416320	-1.000000	-1.000000	-1.000000	-1.000000	-1.000000	-1.000000	-1.000000	54.000000	0.000000	-1.000000	-1.000000	441223.000000	1775779155.409307
1993.995000	3882.960000	12797.325000	32665.185000	22339.215000	20659.410000	-32817.780000	-17911.575000	1.242320	4.059166	5.624497	9.617288	7.399613	-4.135080	-2.060102	-0.729572	-0.549360	6.088740	-3.189340	-0.907407	-0.005859	0.416320	-1.000000	-1.000000	-1.000000	-1.000000	-1.000000	-1.000000	-1.000000	54.000000	0.000000	-1.000000	-1.000000	441224.000000	1775779155.413284
1991.385000	3880.485000	12795.975000	32667.165000	22338.135000	20622.375000	-32828.985000	-17913.645000	-0.056274	1.707153	2.399900	5.211517	5.918799	13.125968	2.345282	-0.894672	-0.549360	6.088740	-3.189340	-0.907407	-0.005859	0.416320	-1.000000	-1.000000	-1.000000	-1.000000	-1.000000	-1.000000	-1.000000	54.000000	0.000000	-1.000000	-1.000000	441225.000000	1775779155.413304
1986.930000	3875.175000	12788.100000	32655.555000	22335.210000	20622.060000	-32826.015000	-17916.345000	-1.755866	-1.455083	-1.758373	-0.738729	1.859887	19.729780	4.585485	-1.030218	-3.082520	2.212700	-1.709120	-0.910703	-0.005371	0.413817	-1.000000	-1.000000	-1.000000	-1.000000	-1.000000	-1.000000	-1.000000	54.000000	0.000000	-1.000000	-1.000000	441226.000000	1775779155.418236
1986.885000	3870.765000	12776.445000	32626.260000	22330.350000	20657.115000	-32810.535000	-17913.060000	-2.627185	-3.919625	-5.437535	-7.143521	-2.985838	14.828572	4.557424	-0.366543	-3.082520	2.212700	-1.709120	-0.910703	-0.005371	0.413817	-1.000000	-1.000000	-1.000000	-1.000000	-1.000000	-1.000000	-1.000000	54.000000	0.000000	-1.000000	-1.000000	441227.000000	1775779155.418258
1988.460000	3866.940000	12767.625000	32619.735000	22329.225000	20698.920000	-32791.680000	-17909.100000	-1.892366	-4.661528	-7.634942	-12.830057	-6.491366	7.295026	4.310605	1.333194	-3.082520	2.212700	-1.709120	-0.910703	-0.005371	0.413817	-1.000000	-1.000000	-1.000000	-1.000000	-1.000000	-1.000000	-1.000000	54.000000	0.000000	-1.000000	-1.000000	441228.000000	1775779155.421255
1991.070000	3869.280000	12769.695000	32625.225000	22331.745000	20712.375000	-32791.410000	-17906.625000	0.329792	-3.397329	-7.482805	-15.045662	-7.192361	4.948299	5.085146	3.524227	-3.082520	2.212700	-1.709120	-0.910703	-0.005371	0.413817	-1.000000	-1.000000	-1.000000	-1.000000	-1.000000	-1.000000	-1.000000	54.000000	0.000000	-1.000000	-1.000000	441229.000000	1775779155.421288
1988.190000	3874.140000	12774.645000	32610.285000	22324.005000	20711.070000	-32790.915000	-17905.680000	2.947331	-0.435499	-4.242419	-11.084183	-4.990322	6.255577	5.242326	5.009606	-3.082520	2.212700	-1.709120	-0.910703	-0.005371	0.413817	-1.000000	-1.000000	-1.000000	-1.000000	-1.000000	-1.000000	-1.000000	54.000000	0.000000	-1.000000	-1.000000	441230.000000	1775779155.444110
1988.460000	3876.570000	12783.780000	32630.895000	22325.985000	20692.035000	-32805.225000	-17911.845000	4.439845	3.274751	1.678612	-1.812144	-1.339513	4.089365	2.300496	4.598025	-3.082520	2.212700	-1.709120	-0.910703	-0.005371	0.413817	-1.000000	-1.000000	-1.000000	-1.000000	-1.000000	-1.000000	-1.000000	54.000000	0.000000	-1.000000	-1.000000	441231.000000	1775779155.444136
1996.110000	3883.185000	12792.735000	32649.795000	22340.700000	20686.500000	-32809.140000	-17909.685000	4.145480	6.234916	8.170707	9.333052	2.276250	-5.142508	-3.906625	2.037557	-3.082520	2.212700	-1.709120	-0.910703	-0.005371	0.413817	-1.000000	-1.000000	-1.000000	-1.000000	-1.000000	-1.000000	-1.000000	54.000000	0.000000	-1.000000	-1.000000	441232.000000	1775779155.444207
1997.460000	3883.320000	12784.140000	32636.835000	22341.915000	20691.855000	-32815.440000	-17913.870000	2.763903	7.119848	12.091200	18.188405	5.373645	-17.169504	-10.460424	-1.505461	-3.082520	2.212700	-1.709120	-0.910703	-0.005371	0.413817	-1.000000	-1.000000	-1.000000	-1.000000	-1.000000	-1.000000	-1.000000	54.000000	0.000000	-1.000000	-1.000000	441233.000000	1775779155.444224
2003.805000	3892.860000	12794.445000	32640.255000	22336.020000	20687.130000	-32826.555000	-17913.555000	1.266900	5.578492	11.058704	20.171437	7.059604	-23.898442	-13.632807	-4.260068	-3.082520	2.212700	-1.709120	-0.910703	-0.005371	0.413817	-1.000000	-1.000000	-1.000000	-1.000000	-1.000000	-1.000000	-1.000000	54.000000	0.000000	-1.000000	-1.000000	441234.000000	1775779155.444243
2011.365000	3905.325000	12818.385000	32671.845000	22343.805000	20685.195000	-32839.155000	-17911.170000	0.142227	2.636395	6.048941	14.254036	5.996079	-20.965007	-11.964151	-5.025601	-3.082520	2.212700	-1.709120	-0.910703	-0.005371	0.413817	-1.000000	-1.000000	-1.000000	-1.000000	-1.000000	-1.000000	-1.000000	54.000000	0.000000	-1.000000	-1.000000	441235.000000	1775779155.444255
2024.100000	3915.585000	12823.335000	32690.835000	22348.350000	20652.975000	-32855.265000	-17905.050000	-0.336295	0.008853	0.793617	5.274219	2.622267	-10.984450	-6.858892	-3.520638	-9.201780	-0.244160	0.534100	-0.911863	-0.002075	0.409667	-1.000000	-1.000000	-1.000000	-1.000000	-1.000000	-1.000000	-1.000000	54.000000	0.000000	-1.000000	-1.000000	441236.000000	1775779155.444270
2024.235000	3916.035000	12831.480000	32692.590000	22339.980000	20614.770000	-32846.895000	-17895.735000	-0.266516	-1.588104	-2.488446	-1.690734	-1.173763	-0.920085	-0.500656	-0.334596	-9.201780	-0.244160	0.534100	-0.911863	-0.002075	0.409667	-1.000000	-1.000000	-1.000000	-1.000000	-1.000000	-1.000000	-1.000000	54.000000	0.000000	-1.000000	-1.000000	441237.000000	1775779155.444282
2014.425000	3903.750000	12825.315000	32685.165000	22333.905000	20610.045000	-32823.585000	-17898.165000	-0.706067	-3.145197	-4.574104	-6.354956	-4.335167	4.174578	6.386701	3.069011	-9.201780	-0.244160	0.534100	-0.911863	-0.002075	0.409667	-1.000000	-1.000000	-1.000000	-1.000000	-1.000000	-1.000000	-1.000000	54.000000	0.000000	-1.000000	-1.000000	441238.000000	1775779155.444296
2000.520000	3888.405000	12803.580000	32656.770000	22321.305000	20624.760000	-32806.260000	-17912.430000	-3.008468	-6.032939	-7.233123	-11.197113	-6.716345	5.989993	13.782750	4.459968	-9.201780	-0.244160	0.534100	-0.911863	-0.002075	0.409667	-1.000000	-1.000000	-1.000000	-1.000000	-1.000000	-1.000000	-1.000000	54.000000	0.000000	-1.000000	-1.000000	441239.000000	1775779155.444309
1986.255000	3875.400000	12788.595000	32633.730000	22312.440000	20649.735000	-32797.845000	-17922.870000	-7.006269	-9.940785	-11.169774	-17.224202	-7.986714	9.941725	19.570531	2.170377	-9.201780	-0.244160	0.534100	-0.911863	-0.002075	0.409667	-1.000000	-1.000000	-1.000000	-1.000000	-1.000000	-1.000000	-1.000000	54.000000	0.000000	-1.000000	-1.000000	441240.000000	1775779155.474867
1976.310000	3861.945000	12773.385000	32625.315000	22321.980000	20687.220000	-32792.490000	-17921.520000	-10.456357	-12.521116	-14.679605	-21.871405	-7.175035	18.111549	19.858835	-2.676890	-9.201780	-0.244160	0.534100	-0.911863	-0.002075	0.409667	-1.000000	-1.000000	-1.000000	-1.000000	-1.000000	-1.000000	-1.000000	54.000000	0.000000	-1.000000	-1.000000	441241.000000	1775779155.474894
1980.990000	3864.960000	12777.030000	32638.095000	22351.545000	20691.495000	-32797.530000	-17917.245000	-10.385332	-11.111081	-14.378299	-20.194291	-2.742550	26.426987	12.585706	-6.293052	-9.201780	-0.244160	0.534100	-0.911863	-0.002075	0.409667	-1.000000	-1.000000	-1.000000	-1.000000	-1.000000	-1.000000	-1.000000	54.000000	0.000000	-1.000000	-1.000000	441242.000000	1775779155.474921
1984.950000	3869.910000	12777.930000	32644.755000	22362.615000	20709.450000	-32792.895000	-17915.940000	-5.149492	-4.597760	-8.002557	-9.360276	5.479603	27.716652	-0.120925	-5.631110	-9.201780	-0.244160	0.534100	-0.911863	-0.002075	0.409667	-1.000000	-1.000000	-1.000000	-1.000000	-1.000000	-1.000000	-1.000000	54.000000	0.000000	-1.000000	-1.000000	441243.000000	1775779155.474930
1976.310000	3857.940000	12761.235000	32629.860000	22349.250000	20739.780000	-32775.705000	-17920.575000	3.605235	5.081401	2.745672	7.015099	13.480693	18.588066	-12.515689	-1.257811	-9.201780	-0.244160	0.534100	-0.911863	-0.002075	0.409667	-1.000000	-1.000000	-1.000000	-1.000000	-1.000000	-1.000000	-1.000000	54.000000	0.000000	-1.000000	-1.000000	441244.000000	1775779155.474941
1985.490000	3865.410000	12771.945000	32638.365000	22342.680000	20706.345000	-32793.885000	-17914.680000	11.496817	13.373057	12.749515	20.535409	14.945107	2.070917	-19.079480	3.654520	-9.201780	-0.244160	0.534100	-0.911863	-0.002075	0.409667	-1.000000	-1.000000	-1.000000	-1.000000	-1.000000	-1.000000	-1.000000	54.000000	0.000000	-1.000000	-1.000000	441245.000000	1775779155.474950
1992.240000	3875.085000	12788.910000	32655.870000	22336.560000	20678.715000	-32812.740000	-17913.780000	15.102841	16.846531	18.259808	25.443130	7.675489	-17.094452	-19.142397	6.492791	-13.795040	-1.724380	1.480220	-0.912473	-0.002319	0.404418	-1.000000	-1.000000	-1.000000	-1.000000	-1.000000	-1.000000	-1.000000	54.000000	0.000000	-1.000000	-1.000000	441246.000000	1775779155.476253
1991.565000	3876.570000	12793.455000	32664.915000	22336.875000	20679.570000	-32812.515000	-17918.865000	13.858699	15.337892	19.015716	22.266537	-3.848031	-33.735026	-15.598888	6.429707	-13.795040	-1.724380	1.480220	-0.912473	-0.002319	0.404418	-1.000000	-1.000000	-1.000000	-1.000000	-1.000000	-1.000000	-1.000000	54.000000	0.000000	-1.000000	-1.000000	441247.000000	1775779155.476298
1988.955000	3875.355000	12792.105000	32668.695000	22330.395000	20670.930000	-32811.030000	-17922.420000	8.701159	10.138518	15.514077	14.280066	-12.718570	-40.660777	-9.946138	3.746736	-13.795040	-1.724380	1.480220	-0.912473	-0.002319	0.404418	-1.000000	-1.000000	-1.000000	-1.000000	-1.000000	-1.000000	-1.000000	54.000000	0.000000	-1.000000	-1.000000	441248.000000	1775779155.476319
1992.195000	3878.280000	12789.585000	32635.980000	22324.905000	20648.160000	-32819.580000	-17919.900000	1.382091	2.798155	7.967210	3.568770	-14.951622	-33.752734	-2.309835	-0.250841	-13.795040	-1.724380	1.480220	-0.912473	-0.002319	0.404418	-1.000000	-1.000000	-1.000000	-1.000000	-1.000000	-1.000000	-1.000000	54.000000	0.000000	-1.000000	-1.000000	441249.000000	1775779155.476329
1995.390000	3882.780000	12792.645000	32617.170000	22320.225000	20658.870000	-32811.030000	-17916.615000	-5.395426	-4.420857	-1.901247	-8.929168	-11.023807	-16.315784	5.852079	-3.402050	-13.795040	-1.724380	1.480220	-0.912473	-0.002319	0.404418	-1.000000	-1.000000	-1.000000	-1.000000	-1.000000	-1.000000	-1.000000	54.000000	0.000000	-1.000000	-1.000000	441250.000000	1775779155.476567
1984.455000	3869.865000	12782.205000	32620.095000	22317.570000	20696.535000	-32800.680000	-17923.545000	-9.391712	-9.395389	-10.748787	-20.143098	-3.954590	5.234571	12.418296	-4.285585	-13.795040	-1.724380	1.480220	-0.912473	-0.002319	0.404418	-1.000000	-1.000000	-1.000000	-1.000000	-1.000000	-1.000000	-1.000000	54.000000	0.000000	-1.000000	-1.000000	441251.000000	1775779155.476607
1983.915000	3871.710000	12786.885000	32633.910000	22329.495000	20710.530000	-32810.580000	-17928.765000	-10.288730	-11.476933	-15.645550	-24.058505	3.285699	25.338584	15.730754	-3.453716	-13.795040	-1.724380	1.480220	-0.912473	-0.002319	0.404418	-1.000000	-1.000000	-1.000000	-1.000000	-1.000000	-1.000000	-1.000000	54.000000	0.000000	-1.000000	-1.000000	441252.000000	1775779155.476632
1988.910000	3880.305000	12798.495000	32648.850000	22339.035000	20686.455000	-32820.255000	-17927.910000	-8.678355	-10.619825	-15.051079	-16.851583	9.088822	37.319592	14.158423	-2.252670	-13.795040	-1.724380	1.480220	-0.912473	-0.002319	0.404418	-1.000000	-1.000000	-1.000000	-1.000000	-1.000000	-1.000000	-1.000000	54.000000	0.000000	-1.000000	-1.000000	441253.000000	1775779155.476645
1996.380000	3889.620000	12809.160000	32660.145000	22347.225000	20670.435000	-32825.565000	-17925.075000	-4.827308	-6.574590	-9.045609	-1.535582	12.564723	34.420277	7.484252	-1.046150	-13.795040	-1.724380	1.480220	-0.912473	-0.002319	0.404418	-1.000000	-1.000000	-1.000000	-1.000000	-1.000000	-1.000000	-1.000000	54.000000	0.000000	-1.000000	-1.000000	441254.000000	1775779155.476660
1992.420000	3883.590000	12800.160000	32649.885000	22333.455000	20652.930000	-32823.360000	-17928.045000	0.360861	-0.476321	-0.415974	13.411316	12.362983	16.732258	-1.291188	0.439447	-13.795040	-1.724380	1.480220	-0.912473	-0.002319	0.404418	-1.000000	-1.000000	-1.000000	-1.000000	-1.000000	-1.000000	-1.000000	54.000000	0.000000	-1.000000	-1.000000	441255.000000	1775779155.476671
1985.850000	3870.990000	12784.095000	32632.065000	22313.880000	20636.910000	-32828.085000	-17931.690000	4.531770	4.365464	5.799706	19.457403	7.071377	-6.681227	-7.709751	1.830342	-12.360600	-3.219860	1.556520	-0.914487	-0.009766	0.398803	-1.000000	-1.000000	-1.000000	-1.000000	-1.000000	-1.000000	-1.000000	54.000000	0.000000	-1.000000	-1.000000	441256.000000	1775779155.478179
1992.150000	3879.045000	12795.030000	32644.755000	22324.140000	20630.835000	-32831.145000	-17926.470000	5.671939	5.267292	6.375653	14.126659	-2.134726	-24.123533	-9.379206	2.430786	-12.360600	-3.219860	1.556520	-0.914487	-0.009766	0.398803	-1.000000	-1.000000	-1.000000	-1.000000	-1.000000	-1.000000	-1.000000	54.000000	0.000000	-1.000000	-1.000000	441257.000000	1775779155.478197
1995.795000	3880.935000	12796.065000	32650.740000	22329.405000	20635.470000	-32808.780000	-17920.620000	4.252053	3.153816	3.156334	3.045560	-10.106276	-28.206203	-6.580743	2.389711	-12.360600	-3.219860	1.556520	-0.914487	-0.009766	0.398803	-1.000000	-1.000000	-1.000000	-1.000000	-1.000000	-1.000000	-1.000000	54.000000	0.000000	-1.000000	-1.000000	441258.000000	1775779155.482261
1996.560000	3878.865000	12791.970000	32653.170000	22336.290000	20648.880000	-32795.145000	-17919.495000	2.229882	0.887470	0.157139	-5.701009	-11.774583	-18.591561	-0.576702	2.313978	-12.360600	-3.219860	1.556520	-0.914487	-0.009766	0.398803	-1.000000	-1.000000	-1.000000	-1.000000	-1.000000	-1.000000	-1.000000	54.000000	0.000000	-1.000000	-1.000000	441259.000000	1775779155.482285
1987.245000	3865.725000	12778.380000	32650.785000	22354.200000	20707.065000	-32793.840000	-17925.615000	0.545158	-0.365948	-1.138218	-8.518228	-6.662746	-0.290840	6.136580	1.983190	-12.360600	-3.219860	1.556520	-0.914487	-0.009766	0.398803	-1.000000	-1.000000	-1.000000	-1.000000	-1.000000	-1.000000	-1.000000	54.000000	0.000000	-1.000000	-1.000000	441260.000000	1775779155.492391
1978.425000	3852.495000	12765.870000	32642.460000	22347.270000	20740.590000	-32793.705000	-17931.240000	-1.274945	-1.499406	-1.843111	-7.016683	1.431991	19.668154	9.587044	0.529968	-12.360600	-3.219860	1.556520	-0.914487	-0.009766	0.398803	-1.000000	-1.000000	-1.000000	-1.000000	-1.000000	-1.000000	-1.000000	54.000000	0.000000	-1.000000	-1.000000	441261.000000	1775779155.492418
1978.020000	3855.510000	12771.135000	32634.135000	22330.395000	20706.480000	-32797.575000	-17928.765000	-3.390954	-2.970104	-2.615964	-4.552843	6.863934	32.208157	7.217271	-1.980730	-12.360600	-3.219860	1.556520	-0.914487	-0.009766	0.398803	-1.000000	-1.000000	-1.000000	-1.000000	-1.000000	-1.000000	-1.000000	54.000000	0.000000	-1.000000	-1.000000	441262.000000	1775779155.492449
1986.660000	3866.715000	12779.460000	32624.010000	22328.775000	20682.270000	-32797.530000	-17922.420000	-4.433244	-3.190136	-2.115339	-3.190305	5.859257	27.908302	0.291263	-3.887937	-12.360600	-3.219860	1.556520	-0.914487	-0.009766	0.398803	-1.000000	-1.000000	-1.000000	-1.000000	-1.000000	-1.000000	-1.000000	54.000000	0.000000	-1.000000	-1.000000	441263.000000	1775779155.492462
1987.380000	3870.945000	12775.680000	32625.270000	22316.580000	20654.010000	-32807.115000	-17925.300000	-2.840313	-0.410366	0.824745	-2.709902	-0.178139	5.887477	-7.302865	-3.596326	-12.360600	-3.219860	1.556520	-0.914487	-0.009766	0.398803	-1.000000	-1.000000	-1.000000	-1.000000	-1.000000	-1.000000	-1.000000	54.000000	0.000000	-1.000000	-1.000000	441264.000000	1775779155.494090
1993.410000	3879.180000	12780.630000	32639.130000	22319.505000	20624.445000	-32819.445000	-17923.455000	0.949531	4.468230	4.785123	-1.293360	-6.304126	-22.409395	-12.131296	-1.446156	-12.360600	-3.219860	1.556520	-0.914487	-0.009766	0.398803	-1.000000	-1.000000	-1.000000	-1.000000	-1.000000	-1.000000	-1.000000	54.000000	0.000000	-1.000000	-1.000000	441265.000000	1775779155.494106
2000.835000	3885.930000	12784.860000	32633.415000	22333.590000	20619.720000	-32833.620000	-17923.590000	4.792070	8.452873	7.216621	2.264516	-7.995638	-41.370831	-12.971819	0.904118	-3.006220	-4.883200	3.219860	-0.917600	-0.019470	0.396239	-1.000000	-1.000000	-1.000000	-1.000000	-1.000000	-1.000000	-1.000000	54.000000	0.000000	-1.000000	-1.000000	441266.000000	1775779155.500862
2000.070000	3889.755000	12798.360000	32639.085000	22349.205000	20656.530000	-32830.830000	-17928.630000	6.670359	9.093355	7.094237	6.492561	-3.560888	-40.416988	-10.047262	2.096217	-3.006220	-4.883200	3.219860	-0.917600	-0.019470	0.396239	-1.000000	-1.000000	-1.000000	-1.000000	-1.000000	-1.000000	-1.000000	54.000000	0.000000	-1.000000	-1.000000	441267.000000	1775779155.500885
1983.735000	3877.605000	12801.780000	32658.480000	22358.160000	20716.020000	-32807.070000	-17933.670000	5.276592	5.633102	5.082223	8.975046	4.706288	-18.157812	-3.477682	1.606118	-3.006220	-4.883200	3.219860	-0.917600	-0.019470	0.396239	-1.000000	-1.000000	-1.000000	-1.000000	-1.000000	-1.000000	-1.000000	54.000000	0.000000	-1.000000	-1.000000	441268.000000	1775779155.502760
1979.730000	3869.055000	12797.865000	32656.005000	22352.085000	20740.500000	-32792.130000	-17936.955000	0.468541	-1.122057	1.912974	8.903755	11.463063	15.946350	6.221526	-0.135400	-3.006220	-4.883200	3.219860	-0.917600	-0.019470	0.396239	-1.000000	-1.000000	-1.000000	-1.000000	-1.000000	-1.000000	-1.000000	54.000000	0.000000	-1.000000	-1.000000	441269.000000	1775779155.502837
1988.145000	3875.940000	12803.760000	32653.125000	22350.195000	20700.900000	-32805.630000	-17930.970000	-5.332142	-8.412574	-2.076498	6.137739	11.907167	43.286751	15.532260	-1.735331	-3.006220	-4.883200	3.219860	-0.917600	-0.019470	0.396239	-1.000000	-1.000000	-1.000000	-1.000000	-1.000000	-1.000000	-1.000000	54.000000	0.000000	-1.000000	-1.000000	441270.000000	1775779155.505944
1990.980000	3876.030000	12794.040000	32649.165000	22341.645000	20678.895000	-32812.920000	-17929.260000	-8.082215	-12.199075	-6.026478	0.701023	5.418195	46.334814	18.479093	-1.695657	-3.006220	-4.883200	3.219860	-0.917600	-0.019470	0.396239	-1.000000	-1.000000	-1.000000	-1.000000	-1.000000	-1.000000	-1.000000	54.000000	0.000000	-1.000000	-1.000000	441271.000000	1775779155.505970
1994.130000	3878.460000	12794.625000	32651.820000	22341.780000	20681.820000	-32808.015000	-17927.055000	-5.919301	-10.308527	-8.708067	-5.718457	-4.148372	23.425114	12.449617	0.169377	-3.006220	-4.883200	3.219860	-0.917600	-0.019470	0.396239	-1.000000	-1.000000	-1.000000	-1.000000	-1.000000	-1.000000	-1.000000	54.000000	0.000000	-1.000000	-1.000000	441272.000000	1775779155.527005
1991.385000	3875.760000	12792.780000	32644.035000	22339.755000	20688.255000	-32806.845000	-17930.475000	-0.818897	-4.319750	-9.152110	-10.240805	-11.423783	-8.951458	1.478865	2.409093	-3.006220	-4.883200	3.219860	-0.917600	-0.019470	0.396239	-1.000000	-1.000000	-1.000000	-1.000000	-1.000000	-1.000000	-1.000000	54.000000	0.000000	-1.000000	-1.000000	441273.000000	1775779155.527031
1989.810000	3876.255000	12792.555000	32639.130000	22339.845000	20688.255000	-32816.385000	-17934.210000	3.592247	2.134479	-6.945040	-11.150026	-12.964569	-30.920399	-8.037301	3.203832	-3.006220	-4.883200	3.219860	-0.917600	-0.019470	0.396239	-1.000000	-1.000000	-1.000000	-1.000000	-1.000000	-1.000000	-1.000000	54.000000	0.000000	-1.000000	-1.000000	441274.000000	1775779155.527057
1994.130000	3882.510000	12799.215000	32649.075000	22344.165000	20684.835000	-32823.360000	-17932.140000	5.078894	6.258591	-2.618514	-8.481313	-8.800718	-33.819099	-12.694142	1.959327	-3.006220	-4.883200	3.219860	-0.917600	-0.019470	0.396239	-1.000000	-1.000000	-1.000000	-1.000000	-1.000000	-1.000000	-1.000000	54.000000	0.000000	-1.000000	-1.000000	441275.000000	1775779155.527068
1997.460000	3885.345000	12802.230000	32653.845000	22347.945000	20684.205000	-32820.210000	-17928.720000	3.997106	7.438704	2.512639	-3.004288	-1.527473	-21.824587	-12.355140	-0.170906	4.990020	-3.235120	1.983800	-0.914487	-0.026977	0.397155	-1.000000	-1.000000	-1.000000	-1.000000	-1.000000	-1.000000	-1.000000	54.000000	0.000000	-1.000000	-1.000000	441276.000000	1775779155.527175
2000.475000	3886.245000	12802.185000	32653.890000	22348.170000	20685.465000	-32819.355000	-17926.155000	2.022132	6.353918	6.667094	3.526540	5.403747	-4.704379	-8.068205	-1.488218	4.990020	-3.235120	1.983800	-0.914487	-0.026977	0.397155	-1.000000	-1.000000	-1.000000	-1.000000	-1.000000	-1.000000	-1.000000	54.000000	0.000000	-1.000000	-1.000000	441277.000000	1775779155.527188
2006.685000	3890.160000	12801.915000	32655.915000	22349.295000	20684.205000	-32813.865000	-17920.305000	0.439107	3.851201	8.143366	8.282284	9.158976	9.189171	-1.529892	-1.275411	4.990020	-3.235120	1.983800	-0.914487	-0.026977	0.397155	-1.000000	-1.000000	-1.000000	-1.000000	-1.000000	-1.000000	-1.000000	54.000000	0.000000	-1.000000	-1.000000	441278.000000	1775779155.527204
2012.535000	3895.425000	12803.220000	32662.890000	22348.305000	20656.125000	-32825.295000	-17919.315000	-0.282072	0.926377	6.466209	9.348982	8.715955	15.285922	4.631723	-0.055582	4.990020	-3.235120	1.983800	-0.914487	-0.026977	0.397155	-1.000000	-1.000000	-1.000000	-1.000000	-1.000000	-1.000000	-1.000000	54.000000	0.000000	-1.000000	-1.000000	441279.000000	1775779155.527214
2018.655000	3906.225000	12816.360000	32674.770000	22347.585000	20660.985000	-32833.305000	-17922.240000	-0.279040	-1.246389	3.027375	7.262376	5.064456	12.954685	7.548083	0.940754	4.990020	-3.235120	1.983800	-0.914487	-0.026977	0.397155	-1.000000	-1.000000	-1.000000	-1.000000	-1.000000	-1.000000	-1.000000	54.000000	0.000000	-1.000000	-1.000000	441280.000000	1775779155.542030
2017.395000	3905.505000	12817.710000	32670.585000	22342.185000	20669.130000	-32830.605000	-17925.705000	-0.169990	-2.034239	0.075213	3.822609	0.236612	6.168219	6.230670	0.609333	4.990020	-3.235120	1.983800	-0.914487	-0.026977	0.397155	-1.000000	-1.000000	-1.000000	-1.000000	-1.000000	-1.000000	-1.000000	54.000000	0.000000	-1.000000	-1.000000	441281.000000	1775779155.542058
2012.130000	3900.555000	12817.710000	32675.310000	22344.120000	20634.975000	-32820.030000	-17919.900000	-0.816138	-2.127177	-1.411292	0.130785	-3.781039	0.283082	2.910755	-0.933513	4.990020	-3.235120	1.983800	-0.914487	-0.026977	0.397155	-1.000000	-1.000000	-1.000000	-1.000000	-1.000000	-1.000000	-1.000000	54.000000	0.000000	-1.000000	-1.000000	441282.000000	1775779155.542085
1998.720000	3887.280000	12805.245000	32663.160000	22347.585000	20635.830000	-32805.720000	-17924.895000	-2.760445	-2.975492	-2.391402	-3.500627	-5.504207	-3.055220	1.041989	-2.369951	4.990020	-3.235120	1.983800	-0.914487	-0.026977	0.397155	-1.000000	-1.000000	-1.000000	-1.000000	-1.000000	-1.000000	-1.000000	54.000000	0.000000	-1.000000	-1.000000	441283.000000	1775779155.542097
1999.170000	3885.390000	12801.330000	32638.725000	22359.825000	20682.360000	-32792.580000	-17922.465000	-5.399066	-4.978717	-4.060296	-7.095813	-4.233276	-3.446884	2.072394	-2.670555	4.990020	-3.235120	1.983800	-0.914487	-0.026977	0.397155	-1.000000	-1.000000	-1.000000	-1.000000	-1.000000	-1.000000	-1.000000	54.000000	0.000000	-1.000000	-1.000000	441284.000000	1775779155.542111
1983.555000	3866.895000	12783.780000	32636.565000	22347.855000	20702.295000	-32797.215000	-17937.630000	-7.011905	-6.849619	-6.235621	-10.332999	-0.861725	1.217450	4.233139	-2.068828	4.990020	-3.235120	1.983800	-0.914487	-0.026977	0.397155	-1.000000	-1.000000	-1.000000	-1.000000	-1.000000	-1.000000	-1.000000	54.000000	0.000000	-1.000000	-1.000000	441285.000000	1775779155.542121
1973.970000	3857.130000	12770.685000	32630.580000	22323.735000	20693.070000	-32796.360000	-17945.505000	-6.414872	-7.138435	-7.759559	-11.294816	1.582441	9.287179	4.197121	-1.636244	10.071600	-3.555580	1.602300	-0.909605	-0.026184	0.401061	-1.000000	-1.000000	-1.000000	-1.000000	-1.000000	-1.000000	-1.000000	54.000000	0.000000	-1.000000	-1.000000	441286.000000	1775779155.542134
1985.580000	3869.910000	12783.915000	32645.790000	22333.275000	20687.670000	-32798.250000	-17935.515000	-3.481220	-4.917148	-7.090286	-7.607798	0.626222	13.348224	0.462244	-1.593945	10.071600	-3.555580	1.602300	-0.909605	-0.026184	0.401061	-1.000000	-1.000000	-1.000000	-1.000000	-1.000000	-1.000000	-1.000000	54.000000	0.000000	-1.000000	-1.000000	441287.000000	1775779155.542144
1994.805000	3879.585000	12794.355000	32656.500000	22341.105000	20661.030000	-32805.855000	-17928.495000	1.814877	0.552790	-2.559345	0.867577	-1.888098	7.793310	-5.283877	-0.451336	10.071600	-3.555580	1.602300	-0.909605	-0.026184	0.401061	-1.000000	-1.000000	-1.000000	-1.000000	-1.000000	-1.000000	-1.000000	54.000000	0.000000	-1.000000	-1.000000	441288.000000	1775779155.542156
1990.935000	3874.905000	12786.750000	32636.205000	22330.260000	20614.230000	-32820.030000	-17932.455000	8.270511	8.031751	5.167104	10.467127	-2.276177	-6.116715	-10.219253	2.569472	10.071600	-3.555580	1.602300	-0.909605	-0.026184	0.401061	-1.000000	-1.000000	-1.000000	-1.000000	-1.000000	-1.000000	-1.000000	54.000000	0.000000	-1.000000	-1.000000	441289.000000	1775779155.542166
1995.435000	3879.405000	12790.980000	32624.685000	22331.385000	20606.895000	-32820.705000	-17931.375000	12.604543	13.532514	11.860767	15.068639	-0.145323	-21.593585	-12.267746	5.616390	10.071600	-3.555580	1.602300	-0.909605	-0.026184	0.401061	-1.000000	-1.000000	-1.000000	-1.000000	-1.000000	-1.000000	-1.000000	54.000000	0.000000	-1.000000	-1.000000	441290.000000	1775779155.548902
1995.255000	3880.755000	12794.625000	32635.665000	22333.095000	20636.145000	-32814.270000	-17934.030000	12.162833	13.747366	13.583144	11.793869	2.381524	-28.705011	-10.102775	6.270957	10.071600	-3.555580	1.602300	-0.909605	-0.026184	0.401061	-1.000000	-1.000000	-1.000000	-1.000000	-1.000000	-1.000000	-1.000000	54.000000	0.000000	-1.000000	-1.000000	441291.000000	1775779155.548928
2000.970000	3888.045000	12804.795000	32650.605000	22341.555000	20664.225000	-32812.785000	-17931.600000	7.320959	8.933596	10.216823	4.523894	4.014111	-19.870090	-3.677468	4.063848	10.071600	-3.555580	1.602300	-0.909605	-0.026184	0.401061	-1.000000	-1.000000	-1.000000	-1.000000	-1.000000	-1.000000	-1.000000	54.000000	0.000000	-1.000000	-1.000000	441292.000000	1775779155.550365
2012.760000	3901.185000	12816.855000	32662.395000	22348.260000	20669.310000	-32815.620000	-17922.780000	0.916610	2.167259	4.562569	-0.617877	4.742759	2.181234	4.541091	0.633018	10.071600	-3.555580	1.602300	-0.909605	-0.026184	0.401061	-1.000000	-1.000000	-1.000000	-1.000000	-1.000000	-1.000000	-1.000000	54.000000	0.000000	-1.000000	-1.000000	441293.000000	1775779155.550392
2007.630000	3894.705000	12809.745000	32657.895000	22347.540000	20702.340000	-32807.115000	-17926.470000	-4.079392	-3.401127	-0.702093	-1.601419	4.585238	24.910381	10.736100	-1.926206	10.071600	-3.555580	1.602300	-0.909605	-0.026184	0.401061	-1.000000	-1.000000	-1.000000	-1.000000	-1.000000	-1.000000	-1.000000	54.000000	0.000000	-1.000000	-1.000000	441294.000000	1775779155.553506
1993.005000	3876.570000	12790.485000	32640.750000	22339.395000	20757.330000	-32795.460000	-17935.245000	-6.995300	-7.142472	-5.240806	-1.354065	2.903697	37.024467	12.828227	-3.128796	10.071600	-3.555580	1.602300	-0.909605	-0.026184	0.401061	-1.000000	-1.000000	-1.000000	-1.000000	-1.000000	-1.000000	-1.000000	54.000000	0.000000	-1.000000	-1.000000	441295.000000	1775779155.553527
1993.860000	3877.020000	12790.710000	32642.595000	22341.960000	20731.995000	-32806.845000	-17935.380000	-8.844137	-10.053432	-9.702645	-3.280429	-0.592306	34.824000	10.968232	-3.875898	6.577060	-2.792580	2.502640	-0.907468	-0.016174	0.404540	-1.000000	-1.000000	-1.000000	-1.000000	-1.000000	-1.000000	-1.000000	54.000000	0.000000	-1.000000	-1.000000	441296.000000	1775779155.557593
1986.435000	3867.660000	12781.620000	32636.295000	22340.700000	20699.325000	-32809.635000	-17940.780000	-9.588193	-11.686930	-12.830100	-6.967261	-4.515041	18.365938	5.776730	-4.433698	6.577060	-2.792580	2.502640	-0.907468	-0.016174	0.404540	-1.000000	-1.000000	-1.000000	-1.000000	-1.000000	-1.000000	-1.000000	54.000000	0.000000	-1.000000	-1.000000	441297.000000	1775779155.557618
1990.485000	3872.520000	12787.110000	32639.580000	22341.420000	20693.790000	-32803.470000	-17937.540000	-8.067625	-10.319155	-12.182605	-9.177950	-6.685416	-8.364710	-1.218669	-4.087147	6.577060	-2.792580	2.502640	-0.907468	-0.016174	0.404540	-1.000000	-1.000000	-1.000000	-1.000000	-1.000000	-1.000000	-1.000000	54.000000	0.000000	-1.000000	-1.000000	441298.000000	1775779155.572623
1992.555000	3878.010000	12796.695000	32645.295000	22346.820000	20689.425000	-32806.305000	-17939.430000	-3.832474	-5.219523	-6.760576	-7.516155	-5.984926	-33.804716	-6.939108	-2.295240	6.577060	-2.792580	2.502640	-0.907468	-0.016174	0.404540	-1.000000	-1.000000	-1.000000	-1.000000	-1.000000	-1.000000	-1.000000	54.000000	0.000000	-1.000000	-1.000000	441299.000000	1775779155.572651
1989.270000	3877.380000	12792.195000	32648.175000	22350.195000	20691.180000	-32810.805000	-17944.515000	1.909505	2.224065	1.737591	-2.216031	-2.836333	-44.818232	-9.141126	0.416737	6.577060	-2.792580	2.502640	-0.907468	-0.016174	0.404540	-1.000000	-1.000000	-1.000000	-1.000000	-1.000000	-1.000000	-1.000000	54.000000	0.000000	-1.000000	-1.000000	441300.000000	1775779155.572777
1989.720000	3877.335000	12787.245000	32652.315000	22349.385000	20679.840000	-32814.270000	-17943.570000	6.685615	8.793226	9.177862	4.144540	1.121626	-36.882633	-8.062323	2.702982	6.577060	-2.792580	2.502640	-0.907468	-0.016174	0.404540	-1.000000	-1.000000	-1.000000	-1.000000	-1.000000	-1.000000	-1.000000	54.000000	0.000000	-1.000000	-1.000000	441301.000000	1775779155.572792
1993.095000	3879.720000	12788.595000	32655.870000	22344.930000	20660.220000	-32823.405000	-17944.200000	8.588103	11.530185	11.803282	8.457632	3.740830	-16.519222	-5.292761	3.701333	6.577060	-2.792580	2.502640	-0.907468	-0.016174	0.404540	-1.000000	-1.000000	-1.000000	-1.000000	-1.000000	-1.000000	-1.000000	54.000000	0.000000	-1.000000	-1.000000	441302.000000	1775779155.572811
2006.235000	3889.125000	12788.505000	32654.295000	22344.705000	20633.760000	-32832.495000	-17933.490000	7.774636	9.977641	9.280372	8.977123	3.748703	4.486965	-2.443396	3.709292	6.577060	-2.792580	2.502640	-0.907468	-0.016174	0.404540	-1.000000	-1.000000	-1.000000	-1.000000	-1.000000	-1.000000	-1.000000	54.000000	0.000000	-1.000000	-1.000000	441303.000000	1775779155.572823
2012.985000	3895.290000	12803.400000	32650.785000	22346.370000	20625.480000	-32837.265000	-17927.145000	5.799420	6.029259	4.414851	5.791999	1.755532	17.362999	-0.377453	3.599894	6.577060	-2.792580	2.502640	-0.907468	-0.016174	0.404540	-1.000000	-1.000000	-1.000000	-1.000000	-1.000000	-1.000000	-1.000000	54.000000	0.000000	-1.000000	-1.000000	441304.000000	1775779155.575879
2007.000000	3891.780000	12823.155000	32658.975000	22344.030000	20639.880000	-32824.440000	-17932.995000	3.508987	1.727905	0.827786	0.668078	-0.474059	21.142322	1.399250	3.476886	6.577060	-2.792580	2.502640	-0.907468	-0.016174	0.404540	-1.000000	-1.000000	-1.000000	-1.000000	-1.000000	-1.000000	-1.000000	54.000000	0.000000	-1.000000	-1.000000	441305.000000	1775779155.575905
1996.920000	3877.470000	12808.575000	32659.380000	22340.610000	20669.220000	-32800.770000	-17940.555000	0.208329	-2.435819	-0.069022	-3.649805	-1.734981	20.823912	4.397448	2.141218	0.305200	-3.540320	3.387720	-0.909299	-0.006104	0.406127	-1.000000	-1.000000	-1.000000	-1.000000	-1.000000	-1.000000	-1.000000	54.000000	0.000000	-1.000000	-1.000000	441306.000000	1775779155.577018
1999.530000	3881.835000	12803.490000	32654.610000	22351.005000	20703.330000	-32795.190000	-17938.485000	-4.350934	-6.501911	-0.565084	-5.440321	-1.736144	21.200510	8.948074	-1.056938	0.305200	-3.540320	3.387720	-0.909299	-0.006104	0.406127	-1.000000	-1.000000	-1.000000	-1.000000	-1.000000	-1.000000	-1.000000	54.000000	0.000000	-1.000000	-1.000000	441307.000000	1775779155.577037
1998.360000	3887.370000	12810.105000	32654.925000	22353.705000	20693.205000	-32800.680000	-17934.345000	-8.247195	-8.992481	-3.021788	-5.076340	-0.414285	21.738776	12.184793	-4.500852	0.305200	-3.540320	3.387720	-0.909299	-0.006104	0.406127	-1.000000	-1.000000	-1.000000	-1.000000	-1.000000	-1.000000	-1.000000	54.000000	0.000000	-1.000000	-1.000000	441308.000000	1775779155.581650
1994.985000	3879.900000	12798.450000	32645.700000	22343.220000	20683.080000	-32803.020000	-17936.865000	-9.110813	-8.076326	-6.393075	-3.806962	1.460669	17.062399	10.198393	-5.829557	0.305200	-3.540320	3.387720	-0.909299	-0.006104	0.406127	-1.000000	-1.000000	-1.000000	-1.000000	-1.000000	-1.000000	-1.000000	54.000000	0.000000	-1.000000	-1.000000	441309.000000	1775779155.581678
1986.570000	3864.780000	12780.855000	32630.715000	22330.980000	20690.235000	-32802.345000	-17944.245000	-6.712347	-4.563334	-8.635146	-2.774857	1.890507	4.091662	2.612172	-4.618965	0.305200	-3.540320	3.387720	-0.909299	-0.006104	0.406127	-1.000000	-1.000000	-1.000000	-1.000000	-1.000000	-1.000000	-1.000000	54.000000	0.000000	-1.000000	-1.000000	441310.000000	1775779155.589177
1992.330000	3873.420000	12792.510000	32644.485000	22332.915000	20654.505000	-32819.040000	-17945.865000	-2.642748	-0.973231	-8.785689	-2.212881	-0.102719	-13.149622	-6.890450	-2.378874	0.305200	-3.540320	3.387720	-0.909299	-0.006104	0.406127	-1.000000	-1.000000	-1.000000	-1.000000	-1.000000	-1.000000	-1.000000	54.000000	0.000000	-1.000000	-1.000000	441311.000000	1775779155.589204
2009.790000	3896.190000	12818.160000	32671.080000	22350.285000	20633.670000	-32831.820000	-17938.845000	1.941447	2.190664	-5.415973	-0.305017	-2.402454	-27.731780	-14.193536	-0.284429	0.305200	-3.540320	3.387720	-0.909299	-0.006104	0.406127	-1.000000	-1.000000	-1.000000	-1.000000	-1.000000	-1.000000	-1.000000	54.000000	0.000000	-1.000000	-1.000000	441312.000000	1775779155.593193
2018.835000	3903.255000	12821.670000	32671.665000	22353.885000	20640.420000	-32825.340000	-17930.700000	6.708479	6.122640	2.175811	4.510084	-1.871950	-33.951505	-16.621458	1.844777	0.305200	-3.540320	3.387720	-0.909299	-0.006104	0.406127	-1.000000	-1.000000	-1.000000	-1.000000	-1.000000	-1.000000	-1.000000	54.000000	0.000000	-1.000000	-1.000000	441313.000000	1775779155.593218
2008.215000	3893.805000	12811.230000	32655.645000	22345.830000	20669.130000	-32813.190000	-17930.295000	10.101766	9.705621	10.393721	9.437666	1.404090	-27.656690	-12.576607	4.148642	0.305200	-3.540320	3.387720	-0.909299	-0.006104	0.406127	-1.000000	-1.000000	-1.000000	-1.000000	-1.000000	-1.000000	-1.000000	54.000000	0.000000	-1.000000	-1.000000	441314.000000	1775779155.598676
2008.125000	3892.860000	12809.655000	32657.895000	22352.355000	20693.880000	-32815.440000	-17933.805000	9.370836	9.485058	13.309997	9.450902	4.124604	-9.028861	-2.944243	5.467240	0.305200	-3.540320	3.387720	-0.909299	-0.006104	0.406127	-1.000000	-1.000000	-1.000000	-1.000000	-1.000000	-1.000000	-1.000000	54.000000	0.000000	-1.000000	-1.000000	441315.000000	1775779155.598700
2005.785000	3887.955000	12803.535000	32660.010000	22353.255000	20679.480000	-32814.990000	-17935.965000	3.962885	4.195732	8.780482	3.738383	4.057172	13.968816	7.676708	4.377092	-4.730600	-4.700080	4.516960	-0.910032	-0.001892	0.407531	-1.000000	-1.000000	-1.000000	-1.000000	-1.000000	-1.000000	-1.000000	54.000000	0.000000	-1.000000	-1.000000	441316.000000	1775779155.598844
1993.860000	3870.900000	12780.585000	32649.435000	22347.855000	20690.820000	-32797.890000	-17942.265000	-3.374870	-3.691152	-0.263855	-3.705546	1.673135	29.046688	14.196633	0.944202	-4.730600	-4.700080	4.516960	-0.910032	-0.001892	0.407531	-1.000000	-1.000000	-1.000000	-1.000000	-1.000000	-1.000000	-1.000000	54.000000	0.000000	-1.000000	-1.000000	441317.000000	1775779155.598862
1974.420000	3847.635000	12758.940000	32633.055000	22329.495000	20700.315000	-32782.500000	-17955.315000	-9.471834	-10.824829	-9.490376	-9.112805	-1.894781	29.351254	15.157787	-3.360593	-4.730600	-4.700080	4.516960	-0.910032	-0.001892	0.407531	-1.000000	-1.000000	-1.000000	-1.000000	-1.000000	-1.000000	-1.000000	54.000000	0.000000	-1.000000	-1.000000	441318.000000	1775779155.602044
1976.400000	3853.485000	12767.985000	32635.440000	22328.505000	20681.730000	-32794.875000	-17956.980000	-12.372158	-14.511548	-14.939803	-11.067982	-5.653838	17.470691	11.735650	-6.734436	-4.730600	-4.700080	4.516960	-0.910032	-0.001892	0.407531	-1.000000	-1.000000	-1.000000	-1.000000	-1.000000	-1.000000	-1.000000	54.000000	0.000000	-1.000000	-1.000000	441319.000000	1775779155.602067
1981.575000	3861.900000	12776.625000	32609.700000	22329.180000	20686.275000	-32799.240000	-17956.575000	-10.583270	-12.259107	-13.126231	-9.479407	-7.738754	0.562623	4.784982	-7.454030	-4.730600	-4.700080	4.516960	-0.910032	-0.001892	0.407531	-1.000000	-1.000000	-1.000000	-1.000000	-1.000000	-1.000000	-1.000000	54.000000	0.000000	-1.000000	-1.000000	441320.000000	1775779155.615086
1987.695000	3870.990000	12792.735000	32632.920000	22337.280000	20672.505000	-32808.555000	-17956.395000	-3.816069	-3.524953	-3.534222	-5.019436	-6.084779	-14.052060	-4.357279	-4.680448	-4.730600	-4.700080	4.516960	-0.910032	-0.001892	0.407531	-1.000000	-1.000000	-1.000000	-1.000000	-1.000000	-1.000000	-1.000000	54.000000	0.000000	-1.000000	-1.000000	441321.000000	1775779155.615110
1997.505000	3882.015000	12805.335000	32659.110000	22338.855000	20634.435000	-32820.165000	-17952.525000	5.477734	8.196362	9.535789	2.069915	-0.725979	-21.904695	-12.569531	0.521601	-4.730600	-4.700080	4.516960	-0.910032	-0.001892	0.407531	-1.000000	-1.000000	-1.000000	-1.000000	-1.000000	-1.000000	-1.000000	54.000000	0.000000	-1.000000	-1.000000	441322.000000	1775779155.615161
2007.990000	3894.615000	12818.565000	32674.680000	22348.080000	20638.395000	-32814.000000	-17937.855000	13.197656	17.289223	19.448356	11.213815	5.714619	-22.598478	-16.348187	5.960296	-4.730600	-4.700080	4.516960	-0.910032	-0.001892	0.407531	-1.000000	-1.000000	-1.000000	-1.000000	-1.000000	-1.000000	-1.000000	54.000000	0.000000	-1.000000	-1.000000	441323.000000	1775779155.615173
2007.270000	3891.285000	12813.795000	32672.745000	22354.560000	20680.560000	-32809.365000	-17934.390000	15.959399	19.521825	21.171804	18.504277	10.055114	-15.931770	-13.590614	9.731127	-4.730600	-4.700080	4.516960	-0.910032	-0.001892	0.407531	-1.000000	-1.000000	-1.000000	-1.000000	-1.000000	-1.000000	-1.000000	54.000000	0.000000	-1.000000	-1.000000	441324.000000	1775779155.615192
1999.395000	3877.695000	12797.460000	32639.220000	22342.725000	20689.470000	-32812.245000	-17940.780000	12.312790	13.556269	13.341440	17.861142	10.230445	-1.458408	-5.246234	10.204179	-4.730600	-4.700080	4.516960	-0.910032	-0.001892	0.407531	-1.000000	-1.000000	-1.000000	-1.000000	-1.000000	-1.000000	-1.000000	54.000000	0.000000	-1.000000	-1.000000	441325.000000	1775779155.615204
2000.430000	3882.555000	12798.945000	32627.160000	22340.745000	20707.875000	-32804.640000	-17942.445000	3.515569	1.659393	-0.960326	6.659380	5.736873	16.070293	4.569454	6.381960	-5.447820	-4.227020	3.876040	-0.907957	-0.004639	0.409850	-1.000000	-1.000000	-1.000000	-1.000000	-1.000000	-1.000000	-1.000000	54.000000	0.000000	-1.000000	-1.000000	441326.000000	1775779155.617763
1999.395000	3883.770000	12800.610000	32637.420000	22347.135000	20724.030000	-32809.905000	-17950.770000	-6.372451	-10.375388	-14.734335	-9.694261	-1.398036	27.716103	11.354916	-0.604442	-5.447820	-4.227020	3.876040	-0.907957	-0.004639	0.409850	-1.000000	-1.000000	-1.000000	-1.000000	-1.000000	-1.000000	-1.000000	54.000000	0.000000	-1.000000	-1.000000	441327.000000	1775779155.617789
2002.185000	3888.630000	12808.755000	32651.910000	22358.925000	20708.235000	-32824.485000	-17953.155000	-12.699317	-16.602198	-20.971143	-20.466824	-6.931142	27.267628	12.447849	-7.626237	-5.447820	-4.227020	3.876040	-0.907957	-0.004639	0.409850	-1.000000	-1.000000	-1.000000	-1.000000	-1.000000	-1.000000	-1.000000	54.000000	0.000000	-1.000000	-1.000000	441328.000000	1775779155.628136
2003.355000	3890.520000	12813.210000	32656.230000	22352.940000	20662.110000	-32832.090000	-17949.465000	-13.146125	-15.019781	-17.372391	-18.881711	-7.905198	13.771001	7.708465	-11.364751	-5.447820	-4.227020	3.876040	-0.907957	-0.004639	0.409850	-1.000000	-1.000000	-1.000000	-1.000000	-1.000000	-1.000000	-1.000000	54.000000	0.000000	-1.000000	-1.000000	441329.000000	1775779155.628160
2000.205000	3884.985000	12805.920000	32648.220000	22342.005000	20634.300000	-32821.425000	-17945.280000	-8.711988	-8.174642	-7.428044	-7.772071	-5.469286	-8.456430	0.291586	-10.011712	-5.447820	-4.227020	3.876040	-0.907957	-0.004639	0.409850	-1.000000	-1.000000	-1.000000	-1.000000	-1.000000	-1.000000	-1.000000	54.000000	0.000000	-1.000000	-1.000000	441330.000000	1775779155.628186
1992.420000	3871.305000	12791.160000	32638.185000	22345.020000	20670.795000	-32793.930000	-17946.045000	-2.636368	-0.883981	2.298890	4.021635	-2.845916	-28.535125	-4.351999	-4.458637	-5.447820	-4.227020	3.876040	-0.907957	-0.004639	0.409850	-1.000000	-1.000000	-1.000000	-1.000000	-1.000000	-1.000000	-1.000000	54.000000	0.000000	-1.000000	-1.000000	441331.000000	1775779155.628197
1992.960000	3869.325000	12787.380000	32637.825000	22351.590000	20692.710000	-32790.645000	-17943.660000	1.958009	3.129150	6.837741	9.588550	-1.246866	-33.182533	-2.843960	2.131377	-5.447820	-4.227020	3.876040	-0.907957	-0.004639	0.409850	-1.000000	-1.000000	-1.000000	-1.000000	-1.000000	-1.000000	-1.000000	54.000000	0.000000	-1.000000	-1.000000	441332.000000	1775779155.646821
1991.655000	3870.765000	12789.090000	32637.240000	22342.230000	20704.950000	-32802.570000	-17951.490000	4.039175	3.685165	6.118583	8.337479	0.138037	-18.358415	2.172221	6.426580	-5.447820	-4.227020	3.876040	-0.907957	-0.004639	0.409850	-1.000000	-1.000000	-1.000000	-1.000000	-1.000000	-1.000000	-1.000000	54.000000	0.000000	-1.000000	-1.000000	441333.000000	1775779155.646846
2002.095000	3883.185000	12800.430000	32644.080000	22336.785000	20685.915000	-32813.190000	-17946.810000	4.561471	3.365427	3.834610	4.130008	1.344317	5.345744	4.438282	6.878315	-5.447820	-4.227020	3.876040	-0.907957	-0.004639	0.409850	-1.000000	-1.000000	-1.000000	-1.000000	-1.000000	-1.000000	-1.000000	54.000000	0.000000	-1.000000	-1.000000	441334.000000	1775779155.646870
2017.395000	3903.210000	12822.660000	32665.185000	22349.430000	20648.520000	-32833.305000	-17938.485000	5.097812	4.663206	3.662178	1.264106	1.879652	21.309324	0.630694	4.562785	-5.447820	-4.227020	3.876040	-0.907957	-0.004639	0.409850	-1.000000	-1.000000	-1.000000	-1.000000	-1.000000	-1.000000	-1.000000	54.000000	0.000000	-1.000000	-1.000000	441335.000000	1775779155.646881
2024.325000	3910.860000	12830.085000	32669.955000	22350.870000	20633.130000	-32834.880000	-17932.860000	6.304388	7.721959	6.344318	1.699312	2.375111	20.183027	-6.823138	2.018154	-0.808780	-3.448760	4.135460	-0.905210	-0.010193	0.412719	-1.000000	-1.000000	-1.000000	-1.000000	-1.000000	-1.000000	-1.000000	54.000000	0.000000	-1.000000	-1.000000	441336.000000	1775779155.646894
2015.370000	3900.060000	12822.120000	32661.135000	22348.080000	20653.470000	-32819.895000	-17938.215000	6.757571	9.666308	8.877724	3.611993	3.247878	6.762273	-11.901425	0.568961	-0.808780	-3.448760	4.135460	-0.905210	-0.010193	0.412719	-1.000000	-1.000000	-1.000000	-1.000000	-1.000000	-1.000000	-1.000000	54.000000	0.000000	-1.000000	-1.000000	441337.000000	1775779155.646905
1988.460000	3868.290000	12791.835000	32633.325000	22343.310000	20728.665000	-32777.145000	-17952.570000	3.721580	6.437338	6.645806	2.769299	3.393518	-4.370684	-9.074737	-0.739922	-0.808780	-3.448760	4.135460	-0.905210	-0.010193	0.412719	-1.000000	-1.000000	-1.000000	-1.000000	-1.000000	-1.000000	-1.000000	54.000000	0.000000	-1.000000	-1.000000	441338.000000	1775779155.646913
1975.635000	3854.610000	12777.210000	32626.710000	22337.910000	20716.785000	-32779.305000	-17962.560000	-3.734617	-3.047045	-2.071833	-2.942817	1.735045	-2.663465	1.849998	-3.286795	-0.808780	-3.448760	4.135460	-0.905210	-0.010193	0.412719	-1.000000	-1.000000	-1.000000	-1.000000	-1.000000	-1.000000	-1.000000	54.000000	0.000000	-1.000000	-1.000000	441339.000000	1775779155.646919
1990.890000	3871.800000	12794.355000	32650.245000	22343.445000	20679.885000	-32796.180000	-17953.290000	-11.817752	-13.695151	-12.680290	-9.843138	-1.088237	6.678441	13.335473	-6.224551	-0.808780	-3.448760	4.135460	-0.905210	-0.010193	0.412719	-1.000000	-1.000000	-1.000000	-1.000000	-1.000000	-1.000000	-1.000000	54.000000	0.000000	-1.000000	-1.000000	441340.000000	1775779155.646926
1998.540000	3879.855000	12794.670000	32662.845000	22350.060000	20666.430000	-32806.665000	-17948.610000	-13.998745	-17.237655	-17.078462	-11.085222	-2.988942	9.434443	15.841700	-6.609449	-0.808780	-3.448760	4.135460	-0.905210	-0.010193	0.412719	-1.000000	-1.000000	-1.000000	-1.000000	-1.000000	-1.000000	-1.000000	54.000000	0.000000	-1.000000	-1.000000	441341.000000	1775779155.646933
1999.035000	3877.650000	12782.655000	32652.810000	22353.930000	20662.830000	-32805.990000	-17948.025000	-7.695069	-10.435103	-11.922224	-4.573211	-2.416994	0.378123	7.370509	-2.944305	-0.808780	-3.448760	4.135460	-0.905210	-0.010193	0.412719	-1.000000	-1.000000	-1.000000	-1.000000	-1.000000	-1.000000	-1.000000	54.000000	0.000000	-1.000000	-1.000000	441342.000000	1775779155.665739
1997.955000	3876.930000	12786.570000	32619.420000	22345.740000	20668.545000	-32802.885000	-17947.125000	2.780760	1.642715	-1.600613	3.723517	-0.166121	-12.404880	-5.135171	2.697604	-0.808780	-3.448760	4.135460	-0.905210	-0.010193	0.412719	-1.000000	-1.000000	-1.000000	-1.000000	-1.000000	-1.000000	-1.000000	54.000000	0.000000	-1.000000	-1.000000	441343.000000	1775779155.665766
1994.085000	3874.185000	12796.785000	32606.820000	22342.140000	20668.860000	-32807.565000	-17954.055000	10.608976	11.094192	7.703399	6.190962	1.331233	-18.318394	-13.190933	6.672835	-0.808780	-3.448760	4.135460	-0.905210	-0.010193	0.412719	-1.000000	-1.000000	-1.000000	-1.000000	-1.000000	-1.000000	-1.000000	54.000000	0.000000	-1.000000	-1.000000	441344.000000	1775779155.665864
1991.655000	3870.585000	12808.485000	32631.705000	22343.805000	20677.410000	-32802.435000	-17959.275000	11.934333	13.477281	13.059969	2.384188	0.740144	-13.636630	-13.276320	6.689020	-0.808780	-3.448760	4.135460	-0.905210	-0.010193	0.412719	-1.000000	-1.000000	-1.000000	-1.000000	-1.000000	-1.000000	-1.000000	54.000000	0.000000	-1.000000	-1.000000	441345.000000	1775779155.665884
2001.285000	3883.590000	12817.485000	32667.345000	22347.450000	20677.860000	-32807.790000	-17958.105000	7.700315	9.601071	14.187035	-0.511227	-0.838105	-2.217652	-7.277944	3.223583	2.456860	-1.800680	4.669560	-0.903867	-0.013367	0.413878	-1.000000	-1.000000	-1.000000	-1.000000	-1.000000	-1.000000	-1.000000	54.000000	0.000000	-1.000000	-1.000000	441346.000000	1775779155.665908
2010.375000	3895.920000	12816.855000	32671.125000	22359.915000	20676.600000	-32815.665000	-17948.475000	1.993500	3.772157	11.429863	3.078152	-1.328463	8.875965	0.265501	-0.851834	2.456860	-1.800680	4.669560	-0.903867	-0.013367	0.413878	-1.000000	-1.000000	-1.000000	-1.000000	-1.000000	-1.000000	-1.000000	54.000000	0.000000	-1.000000	-1.000000	441347.000000	1775779155.665920
2015.280000	3903.840000	12827.025000	32683.140000	22377.645000	20688.390000	-32818.905000	-17937.900000	-1.594875	-0.067795	5.522814	10.141018	0.450945	14.333955	5.238938	-2.464886	2.456860	-1.800680	4.669560	-0.903867	-0.013367	0.413878	-1.000000	-1.000000	-1.000000	-1.000000	-1.000000	-1.000000	-1.000000	54.000000	0.000000	-1.000000	-1.000000	441348.000000	1775779155.665934
2016.720000	3901.275000	12825.135000	32674.410000	22360.455000	20675.880000	-32817.870000	-17940.645000	-2.481956	-1.368554	-1.696662	13.162371	3.396767	13.042536	6.382167	-0.991740	2.456860	-1.800680	4.669560	-0.903867	-0.013367	0.413878	-1.000000	-1.000000	-1.000000	-1.000000	-1.000000	-1.000000	-1.000000	54.000000	0.000000	-1.000000	-1.000000	441349.000000	1775779155.665946
2016.270000	3896.550000	12819.375000	32673.240000	22346.415000	20646.270000	-32810.220000	-17938.620000	-2.322582	-2.243339	-8.009423	8.020307	4.007648	6.298404	5.285228	1.305688	2.456860	-1.800680	4.669560	-0.903867	-0.013367	0.413878	-1.000000	-1.000000	-1.000000	-1.000000	-1.000000	-1.000000	-1.000000	54.000000	0.000000	-1.000000	-1.000000	441350.000000	1775779155.665959
2010.690000	3890.835000	12815.145000	32678.685000	22354.920000	20640.105000	-32809.770000	-17942.220000	-2.763643	-4.402573	-12.022465	-2.879870	0.301025	-3.609832	4.094838	1.824972	2.456860	-1.800680	4.669560	-0.903867	-0.013367	0.413878	-1.000000	-1.000000	-1.000000	-1.000000	-1.000000	-1.000000	-1.000000	54.000000	0.000000	-1.000000	-1.000000	441351.000000	1775779155.665970
2002.995000	3882.870000	12807.180000	32660.280000	22349.655000	20652.030000	-32801.310000	-17947.800000	-4.235971	-7.375543	-13.065164	-13.349878	-4.928282	-11.879071	3.566499	-0.104074	2.456860	-1.800680	4.669560	-0.903867	-0.013367	0.413878	-1.000000	-1.000000	-1.000000	-1.000000	-1.000000	-1.000000	-1.000000	54.000000	0.000000	-1.000000	-1.000000	441352.000000	1775779155.678334
1999.980000	3882.645000	12808.485000	32653.305000	22352.805000	20688.210000	-32796.945000	-17952.390000	-5.906750	-9.188104	-10.913083	-18.760121	-7.420010	-12.392062	3.221853	-3.303491	2.456860	-1.800680	4.669560	-0.903867	-0.013367	0.413878	-1.000000	-1.000000	-1.000000	-1.000000	-1.000000	-1.000000	-1.000000	54.000000	0.000000	-1.000000	-1.000000	441353.000000	1775779155.678355
1996.920000	3879.180000	12803.220000	32640.930000	22353.480000	20732.850000	-32794.155000	-17955.900000	-6.270272	-8.058086	-6.010311	-18.002343	-5.696774	-2.668900	2.351673	-5.819287	2.456860	-1.800680	4.669560	-0.903867	-0.013367	0.413878	-1.000000	-1.000000	-1.000000	-1.000000	-1.000000	-1.000000	-1.000000	54.000000	0.000000	-1.000000	-1.000000	441354.000000	1775779155.678394
1996.335000	3880.305000	12801.015000	32623.470000	22350.960000	20727.720000	-32797.260000	-17959.005000	-4.319793	-3.805728	0.193205	-12.346239	-1.261814	12.253560	0.441342	-6.100647	2.456860	-1.800680	4.669560	-0.903867	-0.013367	0.413878	-1.000000	-1.000000	-1.000000	-1.000000	-1.000000	-1.000000	-1.000000	54.000000	0.000000	-1.000000	-1.000000	441355.000000	1775779155.678404
1999.980000	3887.280000	12811.050000	32645.970000	22352.760000	20685.870000	-32811.930000	-17957.430000	-0.355486	2.091855	5.834266	-3.832723	3.146862	20.808254	-2.702335	-3.821100	3.265640	-1.602300	4.944240	-0.903501	-0.009644	0.411803	-1.000000	-1.000000	-1.000000	-1.000000	-1.000000	-1.000000	-1.000000	54.000000	0.000000	-1.000000	-1.000000	441356.000000	1775779155.678420
2004.930000	3893.985000	12817.755000	32655.015000	22350.465000	20638.035000	-32825.430000	-17952.795000	4.302135	7.621590	9.833722	6.250223	5.480919	13.255280	-6.723767	0.217654	3.265640	-1.602300	4.944240	-0.903501	-0.009644	0.411803	-1.000000	-1.000000	-1.000000	-1.000000	-1.000000	-1.000000	-1.000000	54.000000	0.000000	-1.000000	-1.000000	441357.000000	1775779155.678430
2015.055000	3896.145000	12813.705000	32650.605000	22343.400000	20629.260000	-32815.575000	-17943.795000	8.088594	10.929134	11.495372	15.786675	5.136172	-7.995733	-9.867808	4.669823	3.265640	-1.602300	4.944240	-0.903501	-0.009644	0.411803	-1.000000	-1.000000	-1.000000	-1.000000	-1.000000	-1.000000	-1.000000	54.000000	0.000000	-1.000000	-1.000000	441358.000000	1775779155.681483
2006.460000	3885.390000	12799.710000	32641.605000	22343.490000	20662.020000	-32803.425000	-17946.765000	9.543951	10.465668	9.629984	20.343914	2.683941	-27.656731	-9.055706	7.914849	3.265640	-1.602300	4.944240	-0.903501	-0.009644	0.411803	-1.000000	-1.000000	-1.000000	-1.000000	-1.000000	-1.000000	-1.000000	54.000000	0.000000	-1.000000	-1.000000	441359.000000	1775779155.681511
1997.415000	3873.690000	12783.330000	32629.860000	22345.830000	20727.135000	-32789.835000	-17952.030000	7.378020	5.635127	3.658391	16.643691	-0.259729	-29.043248	-2.806551	8.216341	3.265640	-1.602300	4.944240	-0.903501	-0.009644	0.411803	-1.000000	-1.000000	-1.000000	-1.000000	-1.000000	-1.000000	-1.000000	54.000000	0.000000	-1.000000	-1.000000	441360.000000	1775779155.684960
1992.195000	3866.940000	12778.920000	32626.665000	22351.860000	20752.740000	-32788.845000	-17956.350000	1.675081	-2.010246	-4.480940	6.283641	-1.791557	-8.411423	6.150341	4.843319	3.265640	-1.602300	4.944240	-0.903501	-0.009644	0.411803	-1.000000	-1.000000	-1.000000	-1.000000	-1.000000	-1.000000	-1.000000	54.000000	0.000000	-1.000000	-1.000000	441361.000000	1775779155.684976
1999.620000	3876.390000	12794.985000	32641.380000	22357.575000	20719.350000	-32794.740000	-17952.840000	-4.798810	-8.556376	-10.218296	-4.793592	-1.098979	19.755571	12.303616	-0.632504	3.265640	-1.602300	4.944240	-0.903501	-0.009644	0.411803	-1.000000	-1.000000	-1.000000	-1.000000	-1.000000	-1.000000	-1.000000	54.000000	0.000000	-1.000000	-1.000000	441362.000000	1775779155.690613
1998.000000	3878.865000	12804.795000	32648.400000	22350.240000	20687.130000	-32806.620000	-17958.690000	-8.203176	-10.027969	-9.341772	-10.357681	0.793416	33.485354	11.499419	-5.208870	3.265640	-1.602300	4.944240	-0.903501	-0.009644	0.411803	-1.000000	-1.000000	-1.000000	-1.000000	-1.000000	-1.000000	-1.000000	54.000000	0.000000	-1.000000	-1.000000	441363.000000	1775779155.690634
2001.465000	3885.210000	12814.470000	32661.675000	22353.390000	20687.895000	-32811.930000	-17960.040000	-6.961417	-5.709964	-2.046845	-8.438193	1.833122	22.977650	4.109342	-6.921427	3.265640	-1.602300	4.944240	-0.903501	-0.009644	0.411803	-1.000000	-1.000000	-1.000000	-1.000000	-1.000000	-1.000000	-1.000000	54.000000	0.000000	-1.000000	-1.000000	441364.000000	1775779155.694759
2001.555000	3885.885000	12815.460000	32663.205000	22354.155000	20679.390000	-32818.545000	-17961.300000	-2.659190	1.284497	6.714090	-2.172955	1.060580	-1.656374	-5.298914	-5.779698	3.265640	-1.602300	4.944240	-0.903501	-0.009644	0.411803	-1.000000	-1.000000	-1.000000	-1.000000	-1.000000	-1.000000	-1.000000	54.000000	0.000000	-1.000000	-1.000000	441365.000000	1775779155.694783
2001.420000	3885.705000	12815.145000	32662.035000	22356.630000	20682.450000	-32821.290000	-17962.245000	1.815285	6.642591	11.204227	3.210082	-0.629170	-22.260886	-11.386199	-2.883377	2.029580	-1.632820	6.470240	-0.904539	-0.003845	0.410888	-1.000000	-1.000000	-1.000000	-1.000000	-1.000000	-1.000000	-1.000000	54.000000	0.000000	-1.000000	-1.000000	441366.000000	1775779155.703856
2005.110000	3889.935000	12817.530000	32662.710000	22355.010000	20676.870000	-32819.220000	-17958.195000	4.322150	7.809644	9.039520	4.165813	-1.935482	-27.729578	-11.352709	0.473867	2.029580	-1.632820	6.470240	-0.904539	-0.003845	0.410888	-1.000000	-1.000000	-1.000000	-1.000000	-1.000000	-1.000000	-1.000000	54.000000	0.000000	-1.000000	-1.000000	441367.000000	1775779155.703878
2018.295000	3899.700000	12823.560000	32665.050000	22354.605000	20654.235000	-32829.480000	-17947.395000	4.626325	5.321255	2.337702	0.928919	-2.360628	-19.017568	-6.070600	3.445685	2.029580	-1.632820	6.470240	-0.904539	-0.003845	0.410888	-1.000000	-1.000000	-1.000000	-1.000000	-1.000000	-1.000000	-1.000000	54.000000	0.000000	-1.000000	-1.000000	441368.000000	1775779155.703902
2019.285000	3900.825000	12823.650000	32665.905000	22355.910000	20641.410000	-32826.465000	-17946.450000	3.836164	1.599998	-4.572819	-3.515182	-2.053413	-4.876957	0.976579	5.584986	2.029580	-1.632820	6.470240	-0.904539	-0.003845	0.410888	-1.000000	-1.000000	-1.000000	-1.000000	-1.000000	-1.000000	-1.000000	54.000000	0.000000	-1.000000	-1.000000	441369.000000	1775779155.703912
2004.840000	3883.140000	12806.685000	32652.855000	22352.085000	20662.245000	-32805.990000	-17953.290000	2.271424	-1.857754	-8.837457	-6.474108	-1.326335	6.928648	6.800939	5.984330	2.029580	-1.632820	6.470240	-0.904539	-0.003845	0.410888	-1.000000	-1.000000	-1.000000	-1.000000	-1.000000	-1.000000	-1.000000	54.000000	0.000000	-1.000000	-1.000000	441370.000000	1775779155.705319
1991.385000	3867.255000	12790.305000	32638.185000	22341.105000	20692.755000	-32792.940000	-17961.795000	-1.003809	-5.435763	-10.558506	-7.466732	-0.750386	14.941084	10.743143	3.553461	2.029580	-1.632820	6.470240	-0.904539	-0.003845	0.410888	-1.000000	-1.000000	-1.000000	-1.000000	-1.000000	-1.000000	-1.000000	54.000000	0.000000	-1.000000	-1.000000	441371.000000	1775779155.705339
1991.835000	3868.110000	12790.620000	32637.735000	22329.135000	20677.680000	-32799.645000	-17962.470000	-5.642499	-8.946061	-10.532678	-7.047500	-1.060610	20.078558	12.303773	-1.208332	2.029580	-1.632820	6.470240	-0.904539	-0.003845	0.410888	-1.000000	-1.000000	-1.000000	-1.000000	-1.000000	-1.000000	-1.000000	54.000000	0.000000	-1.000000	-1.000000	441372.000000	1775779155.709093
1992.870000	3869.685000	12791.745000	32640.345000	22329.360000	20672.280000	-32809.140000	-17964.675000	-8.729066	-9.968794	-8.012890	-4.815200	-2.093776	20.087597	9.591798	-5.721417	2.029580	-1.632820	6.470240	-0.904539	-0.003845	0.410888	-1.000000	-1.000000	-1.000000	-1.000000	-1.000000	-1.000000	-1.000000	54.000000	0.000000	-1.000000	-1.000000	441373.000000	1775779155.709119
2004.750000	3883.410000	12805.470000	32654.745000	22341.285000	20667.960000	-32809.995000	-17958.285000	-7.308091	-6.178890	-2.023554	0.032653	-2.111120	12.484203	2.075782	-7.224435	2.029580	-1.632820	6.470240	-0.904539	-0.003845	0.410888	-1.000000	-1.000000	-1.000000	-1.000000	-1.000000	-1.000000	-1.000000	54.000000	0.000000	-1.000000	-1.000000	441374.000000	1775779155.719907
2001.420000	3881.025000	12805.380000	32654.745000	22337.820000	20655.810000	-32811.255000	-17961.480000	-1.468239	1.598921	6.204243	6.640353	0.445061	-0.309749	-7.006371	-4.923291	2.029580	-1.632820	6.470240	-0.904539	-0.003845	0.410888	-1.000000	-1.000000	-1.000000	-1.000000	-1.000000	-1.000000	-1.000000	54.000000	0.000000	-1.000000	-1.000000	441375.000000	1775779155.719936
1996.830000	3875.310000	12801.600000	32653.035000	22343.895000	20659.950000	-32804.595000	-17963.865000	5.235012	9.135423	12.900131	11.849090	4.552697	-12.292417	-12.744302	-0.562664	-0.946120	-2.350040	5.447820	-0.906187	-0.001709	0.413268	-1.000000	-1.000000	-1.000000	-1.000000	-1.000000	-1.000000	-1.000000	54.000000	0.000000	-1.000000	-1.000000	441376.000000	1775779155.719969
2005.695000	3885.660000	12811.230000	32656.860000	22357.080000	20674.935000	-32801.715000	-17956.575000	8.792571	12.125164	14.456072	12.447469	7.706161	-17.738296	-12.326063	3.229619	-0.946120	-2.350040	5.447820	-0.906187	-0.001709	0.413268	-1.000000	-1.000000	-1.000000	-1.000000	-1.000000	-1.000000	-1.000000	54.000000	0.000000	-1.000000	-1.000000	441377.000000	1775779155.719981
2012.625000	3891.780000	12817.350000	32652.900000	22360.275000	20665.800000	-32810.130000	-17949.960000	8.277640	9.987718	10.707121	8.056643	8.458420	-14.543911	-6.918576	5.227956	-0.946120	-2.350040	5.447820	-0.906187	-0.001709	0.413268	-1.000000	-1.000000	-1.000000	-1.000000	-1.000000	-1.000000	-1.000000	54.000000	0.000000	-1.000000	-1.000000	441378.000000	1775779155.722085
2011.185000	3890.430000	12817.755000	32656.815000	22362.345000	20655.495000	-32823.765000	-17953.155000	5.347195	5.146432	4.356092	1.119797	6.472316	-6.251376	-0.706568	5.490111	-0.946120	-2.350040	5.447820	-0.906187	-0.001709	0.413268	-1.000000	-1.000000	-1.000000	-1.000000	-1.000000	-1.000000	-1.000000	54.000000	0.000000	-1.000000	-1.000000	441379.000000	1775779155.722104
2006.505000	3886.695000	12815.550000	32658.930000	22364.910000	20673.990000	-32823.090000	-17959.545000	1.455396	-0.214390	-2.008145	-5.021587	2.099686	1.469335	2.684525	3.902148	-0.946120	-2.350040	5.447820	-0.906187	-0.001709	0.413268	-1.000000	-1.000000	-1.000000	-1.000000	-1.000000	-1.000000	-1.000000	54.000000	0.000000	-1.000000	-1.000000	441380.000000	1775779155.725915
2002.275000	3884.805000	12815.010000	32653.350000	22352.985000	20668.590000	-32829.390000	-17967.015000	-2.718763	-4.936949	-6.935615	-8.108342	-3.448542	6.053600	3.014072	0.409869	-0.946120	-2.350040	5.447820	-0.906187	-0.001709	0.413268	-1.000000	-1.000000	-1.000000	-1.000000	-1.000000	-1.000000	-1.000000	54.000000	0.000000	-1.000000	-1.000000	441381.000000	1775779155.725942
2001.015000	3881.880000	12809.385000	32641.605000	22341.600000	20667.240000	-32822.910000	-17967.150000	-6.209378	-8.027775	-9.614644	-8.244545	-8.726941	7.462174	2.394992	-3.786102	-0.946120	-2.350040	5.447820	-0.906187	-0.001709	0.413268	-1.000000	-1.000000	-1.000000	-1.000000	-1.000000	-1.000000	-1.000000	54.000000	0.000000	-1.000000	-1.000000	441382.000000	1775779155.734640
2008.755000	3890.115000	12813.660000	32649.705000	22345.920000	20643.480000	-32831.415000	-17961.615000	-7.510453	-8.481932	-9.643436	-6.731291	-12.085761	5.541866	2.513725	-6.313671	-0.946120	-2.350040	5.447820	-0.906187	-0.001709	0.413268	-1.000000	-1.000000	-1.000000	-1.000000	-1.000000	-1.000000	-1.000000	54.000000	0.000000	-1.000000	-1.000000	441383.000000	1775779155.734668
2013.885000	3898.080000	12825.720000	32667.705000	22359.330000	20623.230000	-32823.360000	-17958.555000	-5.567889	-5.774018	-6.837987	-3.671965	-11.270450	0.342506	3.384865	-5.372206	-0.946120	-2.350040	5.447820	-0.906187	-0.001709	0.413268	-1.000000	-1.000000	-1.000000	-1.000000	-1.000000	-1.000000	-1.000000	54.000000	0.000000	-1.000000	-1.000000	441384.000000	1775779155.741771
2007.720000	3888.045000	12812.220000	32663.430000	22354.380000	20626.875000	-32806.980000	-17959.590000	-1.261735	-0.982809	-1.924383	1.230257	-5.432239	-5.976733	4.495885	-1.521208	-0.946120	-2.350040	5.447820	-0.906187	-0.001709	0.413268	-1.000000	-1.000000	-1.000000	-1.000000	-1.000000	-1.000000	-1.000000	54.000000	0.000000	-1.000000	-1.000000	441385.000000	1775779155.741796
1992.105000	3865.365000	12780.180000	32647.680000	22348.440000	20713.185000	-32784.030000	-17967.015000	2.407785	2.636199	2.022324	5.704716	2.489365	-7.510276	6.004069	2.522290	-1.587040	-1.480220	4.913720	-0.904111	-0.001831	0.416869	-1.000000	-1.000000	-1.000000	-1.000000	-1.000000	-1.000000	-1.000000	54.000000	0.000000	-1.000000	-1.000000	441386.000000	1775779155.741824
1984.545000	3857.760000	12778.560000	32657.355000	22352.625000	20748.825000	-32779.755000	-17971.785000	2.749392	2.216067	1.832511	6.444949	7.936170	1.583817	7.527323	4.083336	-1.587040	-1.480220	4.913720	-0.904111	-0.001831	0.416869	-1.000000	-1.000000	-1.000000	-1.000000	-1.000000	-1.000000	-1.000000	54.000000	0.000000	-1.000000	-1.000000	441387.000000	1775779155.741836
1986.930000	3861.855000	12785.895000	32653.620000	22346.775000	20714.805000	-32789.880000	-17970.300000	0.267377	-1.075903	-1.025122	3.502991	8.858805	16.769094	6.775222	2.727861	-1.587040	-1.480220	4.913720	-0.904111	-0.001831	0.416869	-1.000000	-1.000000	-1.000000	-1.000000	-1.000000	-1.000000	-1.000000	54.000000	0.000000	-1.000000	-1.000000	441388.000000	1775779155.741851
2004.255000	3877.830000	12793.950000	32641.830000	22350.510000	20678.580000	-32807.655000	-17957.925000	-1.546377	-2.726831	-1.629122	-0.461480	6.268000	22.677133	1.264643	0.537226	-1.587040	-1.480220	4.913720	-0.904111	-0.001831	0.416869	-1.000000	-1.000000	-1.000000	-1.000000	-1.000000	-1.000000	-1.000000	54.000000	0.000000	-1.000000	-1.000000	441389.000000	1775779155.741862
2010.195000	3887.955000	12810.600000	32648.130000	22369.005000	20692.260000	-32813.730000	-17959.005000	0.236099	0.369887	2.489926	-3.441957	2.792067	10.302640	-8.168506	-0.101292	-1.587040	-1.480220	4.913720	-0.904111	-0.001831	0.416869	-1.000000	-1.000000	-1.000000	-1.000000	-1.000000	-1.000000	-1.000000	54.000000	0.000000	-1.000000	-1.000000	441390.000000	1775779155.751333
2008.935000	3889.395000	12823.155000	32652.225000	22370.265000	20700.360000	-32817.420000	-17965.980000	4.625673	6.555466	9.205592	-4.167431	0.976413	-11.436271	-16.577028	0.789522	-1.587040	-1.480220	4.913720	-0.904111	-0.001831	0.416869	-1.000000	-1.000000	-1.000000	-1.000000	-1.000000	-1.000000	-1.000000	54.000000	0.000000	-1.000000	-1.000000	441391.000000	1775779155.751360
2015.685000	3895.065000	12824.775000	32653.890000	22365.000000	20682.045000	-32818.995000	-17962.245000	7.734961	10.994168	13.955546	-2.148624	0.838698	-26.570868	-18.588748	1.268624	-1.587040	-1.480220	4.913720	-0.904111	-0.001831	0.416869	-1.000000	-1.000000	-1.000000	-1.000000	-1.000000	-1.000000	-1.000000	54.000000	0.000000	-1.000000	-1.000000	441392.000000	1775779155.751386
1997.145000	3881.970000	12809.745000	32643.585000	22345.245000	20679.615000	-32810.265000	-17967.690000	6.614893	9.974923	12.590283	1.086118	-0.159160	-27.771239	-12.539738	0.336170	-1.587040	-1.480220	4.913720	-0.904111	-0.001831	0.416869	-1.000000	-1.000000	-1.000000	-1.000000	-1.000000	-1.000000	-1.000000	54.000000	0.000000	-1.000000	-1.000000	441393.000000	1775779155.751397
1979.370000	3865.455000	12792.510000	32629.905000	22331.970000	20686.635000	-32805.360000	-17974.080000	0.871966	3.113379	3.941576	2.710880	-3.857381	-17.700997	-1.141148	-1.470925	-1.587040	-1.480220	4.913720	-0.904111	-0.001831	0.416869	-1.000000	-1.000000	-1.000000	-1.000000	-1.000000	-1.000000	-1.000000	54.000000	0.000000	-1.000000	-1.000000	441394.000000	1775779155.754342
1988.595000	3868.425000	12794.085000	32634.225000	22341.195000	20687.085000	-32803.200000	-17971.695000	-6.913548	-6.516365	-8.436917	1.428650	-8.509350	-2.596377	10.356848	-3.133667	-1.587040	-1.480220	4.913720	-0.904111	-0.001831	0.416869	-1.000000	-1.000000	-1.000000	-1.000000	-1.000000	-1.000000	-1.000000	54.000000	0.000000	-1.000000	-1.000000	441395.000000	1775779155.754363
1986.165000	3862.530000	12786.885000	32629.770000	22341.330000	20696.490000	-32791.725000	-17972.460000	-11.686903	-13.550457	-17.728035	-1.019532	-9.802624	11.294277	17.062360	-3.516494	-1.617560	-2.868880	4.211760	-0.904722	-0.002380	0.418761	-1.000000	-1.000000	-1.000000	-1.000000	-1.000000	-1.000000	-1.000000	54.000000	0.000000	-1.000000	-1.000000	441396.000000	1775779155.757376
1992.240000	3866.670000	12788.685000	32629.995000	22339.125000	20690.010000	-32796.315000	-17970.300000	-9.985415	-13.993552	-18.843658	-2.080166	-5.614666	19.270565	16.943489	-2.070900	-1.617560	-2.868880	4.211760	-0.904722	-0.002380	0.418761	-1.000000	-1.000000	-1.000000	-1.000000	-1.000000	-1.000000	-1.000000	54.000000	0.000000	-1.000000	-1.000000	441397.000000	1775779155.757400
1999.890000	3875.670000	12797.685000	32640.930000	22345.110000	20691.630000	-32801.805000	-17968.410000	-2.917647	-7.868489	-11.664789	-0.803343	1.709001	19.355765	10.806257	0.556345	-1.617560	-2.868880	4.211760	-0.904722	-0.002380	0.418761	-1.000000	-1.000000	-1.000000	-1.000000	-1.000000	-1.000000	-1.000000	54.000000	0.000000	-1.000000	-1.000000	441398.000000	1775779155.774410
1987.965000	3870.045000	12798.180000	32647.995000	22349.385000	20698.605000	-32801.670000	-17968.590000	5.170525	1.393493	-0.087947	2.276148	8.205510	12.993549	1.367472	3.015725	-1.617560	-2.868880	4.211760	-0.904722	-0.002380	0.418761	-1.000000	-1.000000	-1.000000	-1.000000	-1.000000	-1.000000	-1.000000	54.000000	0.000000	-1.000000	-1.000000	441399.000000	1775779155.774436
1993.860000	3877.740000	12802.140000	32659.380000	22357.800000	20686.230000	-32806.890000	-17966.745000	9.670627	9.025830	10.353416	5.658727	11.317024	4.021135	-7.421161	4.118090	-1.617560	-2.868880	4.211760	-0.904722	-0.002380	0.418761	-1.000000	-1.000000	-1.000000	-1.000000	-1.000000	-1.000000	-1.000000	54.000000	0.000000	-1.000000	-1.000000	441400.000000	1775779155.774463
2000.970000	3883.455000	12804.615000	32670.720000	22366.710000	20673.225000	-32814.585000	-17969.310000	9.046560	11.940445	15.320910	7.527266	10.573972	-4.349988	-12.328638	3.448789	-1.617560	-2.868880	4.211760	-0.904722	-0.002380	0.418761	-1.000000	-1.000000	-1.000000	-1.000000	-1.000000	-1.000000	-1.000000	54.000000	0.000000	-1.000000	-1.000000	441401.000000	1775779155.774475
1996.110000	3878.460000	12801.510000	32663.610000	22361.220000	20672.505000	-32818.185000	-17973.945000	5.243926	10.043942	13.677857	6.534031	6.797486	-10.366255	-12.459549	1.351663	-1.617560	-2.868880	4.211760	-0.904722	-0.002380	0.418761	-1.000000	-1.000000	-1.000000	-1.000000	-1.000000	-1.000000	-1.000000	54.000000	0.000000	-1.000000	-1.000000	441402.000000	1775779155.774489
1994.355000	3876.210000	12797.505000	32625.135000	22349.025000	20663.955000	-32815.350000	-17975.025000	0.631521	4.799082	7.139756	1.494946	0.848573	-12.520809	-8.655776	-1.337824	-1.617560	-2.868880	4.211760	-0.904722	-0.002380	0.418761	-1.000000	-1.000000	-1.000000	-1.000000	-1.000000	-1.000000	-1.000000	54.000000	0.000000	-1.000000	-1.000000	441403.000000	1775779155.774500
1987.470000	3869.055000	12796.200000	32624.190000	22338.630000	20646.315000	-32816.205000	-17980.740000	-3.492569	-1.748618	-1.048132	-7.380295	-6.228346	-10.477801	-2.511502	-3.500357	-1.617560	-2.868880	4.211760	-0.904722	-0.002380	0.418761	-1.000000	-1.000000	-1.000000	-1.000000	-1.000000	-1.000000	-1.000000	54.000000	0.000000	-1.000000	-1.000000	441404.000000	1775779155.774513
1989.270000	3871.305000	12805.020000	32646.285000	22344.930000	20669.670000	-32816.205000	-17981.415000	-6.203330	-7.132303	-7.250647	-15.252597	-11.945614	-5.440500	3.776335	-4.265061	-1.617560	-2.868880	4.211760	-0.904722	-0.002380	0.418761	-1.000000	-1.000000	-1.000000	-1.000000	-1.000000	-1.000000	-1.000000	54.000000	0.000000	-1.000000	-1.000000	441405.000000	1775779155.774524
1994.535000	3878.235000	12811.815000	32654.610000	22351.095000	20684.745000	-32816.790000	-17977.455000	-6.534514	-9.083128	-8.862254	-15.117553	-12.929045	1.819130	7.948028	-3.291124	0.412020	-0.778260	3.631880	-0.904356	-0.000977	0.417846	-1.000000	-1.000000	-1.000000	-1.000000	-1.000000	-1.000000	-1.000000	54.000000	0.000000	-1.000000	-1.000000	441406.000000	1775779155.779206
1996.155000	3880.845000	12812.805000	32654.520000	22348.485000	20679.120000	-32815.845000	-17976.240000	-4.121820	-6.739830	-5.934118	-5.846571	-8.035801	9.836122	8.828427	-0.779014	0.412020	-0.778260	3.631880	-0.904356	-0.000977	0.417846	-1.000000	-1.000000	-1.000000	-1.000000	-1.000000	-1.000000	-1.000000	54.000000	0.000000	-1.000000	-1.000000	441407.000000	1775779155.779233
