Channel1	Channel2	Channel3	Channel4	Channel5	Channel6	Channel7	Channel8	FilteredChannel1	FilteredChannel2	FilteredChannel3	FilteredChannel4	FilteredChannel5	FilteredChannel6	FilteredChannel7	FilteredChannel8	GyroX	GyroY	GyroZ	AccX	AccY	AccZ	PPG1	PPG2	rawPPG1	rawPPG2	rawPPG3	Hr	Hrv	Battery	Trigger	PhysicalTrigger	AutoTrigger	NumMeasurements	Timestamp
763.380000	1832.265000	8319.150000	31351.725000	21641.580000	18726.795000	-32446.665000	-13833.315000	-3.340351	-5.019409	-6.782995	-7.716446	-7.238591	1.008314	3.785650	-0.640216	0.152600	1.938020	-0.305200	-0.873228	-0.009949	0.471373	-1.000000	-1.000000	-1.000000	-1.000000	-1.000000	-1.000000	-1.000000	54.000000	0.000000	-1.000000	-1.000000	394372.000000	1775779061.620442
759.060000	1827.810000	8316.360000	31350.240000	21641.895000	18729.855000	-32451.705000	-13838.940000	-1.328939	-3.994843	-6.258152	-7.824195	-8.499567	-1.932575	3.609099	1.179579	0.152600	1.938020	-0.305200	-0.873228	-0.009949	0.471373	-1.000000	-1.000000	-1.000000	-1.000000	-1.000000	-1.000000	-1.000000	54.000000	0.000000	-1.000000	-1.000000	394373.000000	1775779061.620467
757.665000	1826.235000	8314.875000	31349.610000	21643.155000	18734.175000	-32453.550000	-13842.090000	0.802768	-1.642935	-3.490484	-4.812253	-6.197368	-3.474471	2.026256	1.989552	0.595140	1.571780	0.244160	-0.872984	-0.009399	0.472960	-1.000000	-1.000000	-1.000000	-1.000000	-1.000000	-1.000000	-1.000000	54.000000	0.000000	-1.000000	-1.000000	394374.000000	1775779061.624683
761.220000	1829.610000	8319.420000	31354.380000	21650.985000	18741.870000	-32450.850000	-13840.335000	1.950308	0.567148	-0.178756	-0.523279	-1.524816	-2.369142	0.163392	1.551479	0.595140	1.571780	0.244160	-0.872984	-0.009399	0.472960	-1.000000	-1.000000	-1.000000	-1.000000	-1.000000	-1.000000	-1.000000	54.000000	0.000000	-1.000000	-1.000000	394375.000000	1775779061.624733
762.660000	1832.040000	8323.560000	31358.205000	21653.640000	18740.070000	-32453.370000	-13840.830000	2.215600	2.103586	2.604928	3.371824	3.546282	0.430749	-0.907828	0.709720	0.595140	1.571780	0.244160	-0.872984	-0.009399	0.472960	-1.000000	-1.000000	-1.000000	-1.000000	-1.000000	-1.000000	-1.000000	54.000000	0.000000	-1.000000	-1.000000	394376.000000	1775779061.624763
761.220000	1831.545000	8323.110000	31356.675000	21649.770000	18732.330000	-32459.535000	-13843.440000	2.088039	2.984544	4.365720	5.712174	6.850054	2.568926	-0.973341	0.307899	0.595140	1.571780	0.244160	-0.872984	-0.009399	0.472960	-1.000000	-1.000000	-1.000000	-1.000000	-1.000000	-1.000000	-1.000000	54.000000	0.000000	-1.000000	-1.000000	394377.000000	1775779061.624774
769.005000	1839.510000	8331.435000	31363.920000	21653.595000	18722.205000	-32461.290000	-13838.355000	1.744837	3.168021	4.748180	5.856891	6.875618	1.997789	-0.721685	0.452175	0.595140	1.571780	0.244160	-0.872984	-0.009399	0.472960	-1.000000	-1.000000	-1.000000	-1.000000	-1.000000	-1.000000	-1.000000	54.000000	0.000000	-1.000000	-1.000000	394378.000000	1775779061.638309
773.685000	1845.585000	8337.825000	31370.220000	21655.620000	18708.570000	-32466.330000	-13836.060000	1.419434	2.841277	3.927190	4.218013	4.013565	-1.339438	-0.659162	0.978956	0.595140	1.571780	0.244160	-0.872984	-0.009399	0.472960	-1.000000	-1.000000	-1.000000	-1.000000	-1.000000	-1.000000	-1.000000	54.000000	0.000000	-1.000000	-1.000000	394379.000000	1775779061.638335
774.495000	1847.745000	8339.355000	31371.525000	21655.260000	18707.985000	-32472.315000	-13836.645000	1.243774	2.268778	2.468802	1.919415	0.190626	-5.286274	-0.750357	1.581397	0.595140	1.571780	0.244160	-0.872984	-0.009399	0.472960	-1.000000	-1.000000	-1.000000	-1.000000	-1.000000	-1.000000	-1.000000	54.000000	0.000000	-1.000000	-1.000000	394380.000000	1775779061.639716
777.015000	1851.660000	8343.720000	31374.990000	21659.805000	18715.095000	-32467.545000	-13833.855000	0.812071	1.298353	0.639563	-0.318816	-2.775209	-6.658883	-0.661402	1.685494	0.595140	1.571780	0.244160	-0.872984	-0.009399	0.472960	-1.000000	-1.000000	-1.000000	-1.000000	-1.000000	-1.000000	-1.000000	54.000000	0.000000	-1.000000	-1.000000	394381.000000	1775779061.639735
767.520000	1840.905000	8335.080000	31368.105000	21658.950000	18720.045000	-32460.705000	-13838.310000	-0.417835	-0.454544	-1.563847	-2.388467	-3.997761	-3.529259	0.263191	0.918895	0.595140	1.571780	0.244160	-0.872984	-0.009399	0.472960	-1.000000	-1.000000	-1.000000	-1.000000	-1.000000	-1.000000	-1.000000	54.000000	0.000000	-1.000000	-1.000000	394382.000000	1775779061.639856
758.835000	1828.980000	8322.030000	31356.270000	21655.620000	18748.035000	-32444.055000	-13841.685000	-2.649495	-3.266043	-4.238081	-4.497278	-3.688691	3.225751	2.522692	-0.648594	0.595140	1.571780	0.244160	-0.872984	-0.009399	0.472960	-1.000000	-1.000000	-1.000000	-1.000000	-1.000000	-1.000000	-1.000000	54.000000	0.000000	-1.000000	-1.000000	394383.000000	1775779061.639872
756.585000	1825.785000	8318.205000	31352.175000	21651.435000	18760.050000	-32439.870000	-13843.845000	-5.212207	-6.537137	-7.018033	-6.553244	-2.827949	10.713280	5.489148	-2.503055	0.091560	1.251320	0.763000	-0.874693	-0.007568	0.473021	-1.000000	-1.000000	-1.000000	-1.000000	-1.000000	-1.000000	-1.000000	54.000000	0.000000	-1.000000	-1.000000	394384.000000	1775779061.642937
753.930000	1825.110000	8319.645000	31354.650000	21648.420000	18745.605000	-32445.000000	-13847.895000	-6.418916	-8.249521	-8.275766	-7.334837	-2.168809	14.761169	6.997757	-3.757945	0.091560	1.251320	0.763000	-0.874693	-0.007568	0.473021	-1.000000	-1.000000	-1.000000	-1.000000	-1.000000	-1.000000	-1.000000	54.000000	0.000000	-1.000000	-1.000000	394385.000000	1775779061.642964
757.215000	1827.630000	8321.220000	31356.900000	21651.210000	18747.495000	-32443.515000	-13844.070000	-4.864994	-6.458765	-6.194551	-5.268810	-1.580328	11.569018	4.878106	-3.630228	0.091560	1.251320	0.763000	-0.874693	-0.007568	0.473021	-1.000000	-1.000000	-1.000000	-1.000000	-1.000000	-1.000000	-1.000000	54.000000	0.000000	-1.000000	-1.000000	394386.000000	1775779061.650756
754.605000	1823.985000	8315.910000	31350.645000	21647.025000	18745.020000	-32445.630000	-13846.050000	-0.822847	-1.417599	-1.050341	-0.567426	-0.516135	1.755125	-0.510906	-1.921935	0.091560	1.251320	0.763000	-0.874693	-0.007568	0.473021	-1.000000	-1.000000	-1.000000	-1.000000	-1.000000	-1.000000	-1.000000	54.000000	0.000000	-1.000000	-1.000000	394387.000000	1775779061.650787
756.000000	1826.235000	8318.610000	31351.860000	21647.520000	18745.110000	-32444.820000	-13845.060000	3.798355	4.381952	4.599069	4.388318	1.005649	-9.221795	-6.289577	0.676503	0.091560	1.251320	0.763000	-0.874693	-0.007568	0.473021	-1.000000	-1.000000	-1.000000	-1.000000	-1.000000	-1.000000	-1.000000	54.000000	0.000000	-1.000000	-1.000000	394388.000000	1775779061.652084
753.570000	1822.995000	8315.820000	31349.520000	21646.890000	18743.130000	-32450.130000	-13848.480000	6.781389	8.160913	8.114642	7.193108	2.377555	-15.681717	-9.562542	2.851832	0.091560	1.251320	0.763000	-0.874693	-0.007568	0.473021	-1.000000	-1.000000	-1.000000	-1.000000	-1.000000	-1.000000	-1.000000	54.000000	0.000000	-1.000000	-1.000000	394389.000000	1775779061.652101
751.005000	1821.645000	8314.695000	31348.755000	21647.430000	18740.655000	-32456.610000	-13851.990000	6.941928	8.533214	8.395343	7.096477	3.099800	-15.392200	-9.365134	3.515467	0.091560	1.251320	0.763000	-0.874693	-0.007568	0.473021	-1.000000	-1.000000	-1.000000	-1.000000	-1.000000	-1.000000	-1.000000	54.000000	0.000000	-1.000000	-1.000000	394390.000000	1775779061.652716
753.120000	1824.120000	8317.125000	31348.530000	21645.225000	18727.020000	-32458.680000	-13850.820000	4.615776	5.942371	5.967547	4.825296	2.983447	-10.012440	-6.555693	2.537010	0.091560	1.251320	0.763000	-0.874693	-0.007568	0.473021	-1.000000	-1.000000	-1.000000	-1.000000	-1.000000	-1.000000	-1.000000	54.000000	0.000000	-1.000000	-1.000000	394391.000000	1775779061.652734
757.485000	1826.955000	8316.630000	31346.235000	21643.155000	18715.905000	-32457.285000	-13845.150000	1.411369	2.203555	2.418360	1.740046	2.039959	-3.324845	-2.420048	0.955171	0.091560	1.251320	0.763000	-0.874693	-0.007568	0.473021	-1.000000	-1.000000	-1.000000	-1.000000	-1.000000	-1.000000	-1.000000	54.000000	0.000000	-1.000000	-1.000000	394392.000000	1775779061.658652
757.530000	1828.935000	8320.050000	31350.105000	21643.695000	18721.710000	-32458.950000	-13847.445000	-0.956130	-0.807677	-0.648263	-0.883257	0.578918	1.875771	1.989250	0.031343	0.091560	1.251320	0.763000	-0.874693	-0.007568	0.473021	-1.000000	-1.000000	-1.000000	-1.000000	-1.000000	-1.000000	-1.000000	54.000000	0.000000	-1.000000	-1.000000	394393.000000	1775779061.658677
757.530000	1829.025000	8320.275000	31348.305000	21639.240000	18733.950000	-32459.715000	-13848.705000	-1.953931	-2.339852	-2.392700	-2.258016	-0.827185	5.681005	5.536075	-0.100174	-3.021480	1.281840	0.732480	-0.877134	-0.006348	0.472716	-1.000000	-1.000000	-1.000000	-1.000000	-1.000000	-1.000000	-1.000000	54.000000	0.000000	-1.000000	-1.000000	394394.000000	1775779061.661267
757.710000	1829.970000	8321.400000	31349.880000	21639.195000	18732.645000	-32463.495000	-13850.865000	-2.122591	-2.733007	-2.832997	-2.351025	-1.732846	9.130999	7.117363	-0.220841	-3.021480	1.281840	0.732480	-0.877134	-0.006348	0.472716	-1.000000	-1.000000	-1.000000	-1.000000	-1.000000	-1.000000	-1.000000	54.000000	0.000000	-1.000000	-1.000000	394395.000000	1775779061.661290
764.055000	1837.440000	8329.770000	31359.105000	21645.990000	18722.295000	-32466.465000	-13847.670000	-1.951413	-2.482517	-2.368767	-1.557557	-1.798744	11.160863	6.295061	-0.708308	-3.021480	1.281840	0.732480	-0.877134	-0.006348	0.472716	-1.000000	-1.000000	-1.000000	-1.000000	-1.000000	-1.000000	-1.000000	54.000000	0.000000	-1.000000	-1.000000	394396.000000	1775779061.667862
761.085000	1834.740000	8327.385000	31356.855000	21644.685000	18714.960000	-32471.730000	-13851.045000	-1.494043	-1.789137	-1.366718	-0.262941	-0.796526	9.418218	3.598737	-1.194045	-3.021480	1.281840	0.732480	-0.877134	-0.006348	0.472716	-1.000000	-1.000000	-1.000000	-1.000000	-1.000000	-1.000000	-1.000000	54.000000	0.000000	-1.000000	-1.000000	394397.000000	1775779061.667888
763.560000	1836.855000	8329.635000	31358.880000	21646.440000	18711.585000	-32469.345000	-13847.265000	-0.930674	-1.028141	-0.428552	0.801449	0.744047	3.741180	0.352230	-1.262031	-3.021480	1.281840	0.732480	-0.877134	-0.006348	0.472716	-1.000000	-1.000000	-1.000000	-1.000000	-1.000000	-1.000000	-1.000000	54.000000	0.000000	-1.000000	-1.000000	394398.000000	1775779061.668505
757.980000	1829.835000	8321.355000	31350.375000	21638.700000	18705.420000	-32468.805000	-13850.055000	-0.675844	-0.793985	-0.320573	0.689750	1.604153	-3.001972	-1.872216	-0.851599	-3.021480	1.281840	0.732480	-0.877134	-0.006348	0.472716	-1.000000	-1.000000	-1.000000	-1.000000	-1.000000	-1.000000	-1.000000	54.000000	0.000000	-1.000000	-1.000000	394399.000000	1775779061.668521
751.095000	1819.890000	8309.565000	31338.495000	21632.625000	18719.685000	-32455.305000	-13852.440000	-1.047916	-1.477270	-1.478197	-1.039241	0.856517	-7.135936	-2.003844	-0.287747	-3.021480	1.281840	0.732480	-0.877134	-0.006348	0.472716	-1.000000	-1.000000	-1.000000	-1.000000	-1.000000	-1.000000	-1.000000	54.000000	0.000000	-1.000000	-1.000000	394400.000000	1775779061.682289
751.275000	1820.070000	8310.330000	31341.060000	21635.910000	18731.160000	-32451.570000	-13852.530000	-1.899271	-2.789769	-3.432679	-3.663108	-1.127079	-6.333250	-0.076190	-0.014455	-3.021480	1.281840	0.732480	-0.877134	-0.006348	0.472716	-1.000000	-1.000000	-1.000000	-1.000000	-1.000000	-1.000000	-1.000000	54.000000	0.000000	-1.000000	-1.000000	394401.000000	1775779061.682314
754.920000	1826.235000	8319.060000	31352.130000	21652.200000	18751.500000	-32451.705000	-13850.280000	-2.252589	-3.311309	-4.312213	-4.925795	-2.351018	-0.963880	2.383615	-0.000740	-3.021480	1.281840	0.732480	-0.877134	-0.006348	0.472716	-1.000000	-1.000000	-1.000000	-1.000000	-1.000000	-1.000000	-1.000000	54.000000	0.000000	-1.000000	-1.000000	394402.000000	1775779061.682340
755.325000	1828.260000	8321.805000	31355.820000	21658.320000	18759.555000	-32453.640000	-13850.055000	-1.095361	-1.579406	-2.263463	-2.777869	-0.892021	5.780483	3.112510	0.174826	-3.021480	1.281840	0.732480	-0.877134	-0.006348	0.472716	-1.000000	-1.000000	-1.000000	-1.000000	-1.000000	-1.000000	-1.000000	54.000000	0.000000	-1.000000	-1.000000	394403.000000	1775779061.682352
752.895000	1826.055000	8318.970000	31350.780000	21650.670000	18753.480000	-32451.345000	-13850.145000	1.221796	1.918563	2.048092	1.848353	2.382066	9.408344	1.172751	0.616881	-4.364360	1.693860	-0.152600	-0.879514	-0.008179	0.470580	-1.000000	-1.000000	-1.000000	-1.000000	-1.000000	-1.000000	-1.000000	54.000000	0.000000	-1.000000	-1.000000	394404.000000	1775779061.682496
751.815000	1824.480000	8316.900000	31347.585000	21644.865000	18743.895000	-32453.235000	-13851.180000	3.162308	4.882306	5.666429	5.476995	4.100517	6.699303	-2.198279	0.953722	-4.364360	1.693860	-0.152600	-0.879514	-0.008179	0.470580	-1.000000	-1.000000	-1.000000	-1.000000	-1.000000	-1.000000	-1.000000	54.000000	0.000000	-1.000000	-1.000000	394405.000000	1775779061.682509
756.630000	1828.665000	8319.600000	31349.520000	21645.765000	18737.280000	-32450.265000	-13846.815000	3.648814	5.517065	6.303254	5.651580	2.228998	-1.663564	-4.896029	0.903413	-4.364360	1.693860	-0.152600	-0.879514	-0.008179	0.470580	-1.000000	-1.000000	-1.000000	-1.000000	-1.000000	-1.000000	-1.000000	54.000000	0.000000	-1.000000	-1.000000	394406.000000	1775779061.696314
757.215000	1828.395000	8318.655000	31348.485000	21642.615000	18736.020000	-32450.220000	-13845.915000	2.917191	3.966985	4.147166	2.958635	-1.756883	-10.944796	-5.505478	0.651174	-4.364360	1.693860	-0.152600	-0.879514	-0.008179	0.470580	-1.000000	-1.000000	-1.000000	-1.000000	-1.000000	-1.000000	-1.000000	54.000000	0.000000	-1.000000	-1.000000	394407.000000	1775779061.696342
755.685000	1828.215000	8319.285000	31349.970000	21644.865000	18735.390000	-32455.395000	-13848.660000	1.651397	1.458296	0.903490	-0.354076	-4.847916	-15.630903	-4.064788	0.373062	-4.364360	1.693860	-0.152600	-0.879514	-0.008179	0.470580	-1.000000	-1.000000	-1.000000	-1.000000	-1.000000	-1.000000	-1.000000	54.000000	0.000000	-1.000000	-1.000000	394408.000000	1775779061.697819
758.745000	1832.445000	8325.000000	31353.480000	21646.395000	18732.780000	-32454.855000	-13847.355000	0.222734	-0.866760	-1.715572	-2.415826	-5.142066	-13.285569	-1.777140	-0.099651	-4.364360	1.693860	-0.152600	-0.879514	-0.008179	0.470580	-1.000000	-1.000000	-1.000000	-1.000000	-1.000000	-1.000000	-1.000000	54.000000	0.000000	-1.000000	-1.000000	394409.000000	1775779061.697837
759.960000	1835.955000	8329.455000	31357.890000	21649.410000	18738.360000	-32449.995000	-13845.555000	-1.008972	-2.171771	-2.635709	-2.509114	-2.702171	-5.598522	0.358475	-0.722845	-4.364360	1.693860	-0.152600	-0.879514	-0.008179	0.470580	-1.000000	-1.000000	-1.000000	-1.000000	-1.000000	-1.000000	-1.000000	54.000000	0.000000	-1.000000	-1.000000	394410.000000	1775779061.697860
755.370000	1830.465000	8325.000000	31355.910000	21646.350000	18735.615000	-32456.655000	-13850.820000	-1.761392	-2.309796	-1.986866	-1.173702	0.832147	3.496919	2.041285	-1.167585	-4.364360	1.693860	-0.152600	-0.879514	-0.008179	0.470580	-1.000000	-1.000000	-1.000000	-1.000000	-1.000000	-1.000000	-1.000000	54.000000	0.000000	-1.000000	-1.000000	394411.000000	1775779061.697872
755.010000	1829.070000	8323.515000	31355.145000	21646.665000	18732.960000	-32458.725000	-13851.270000	-2.178829	-2.053249	-1.089217	0.190852	3.379427	10.048929	2.843720	-1.391825	-4.364360	1.693860	-0.152600	-0.879514	-0.008179	0.470580	-1.000000	-1.000000	-1.000000	-1.000000	-1.000000	-1.000000	-1.000000	54.000000	0.000000	-1.000000	-1.000000	394412.000000	1775779061.697886
759.375000	1833.030000	8327.160000	31357.890000	21649.680000	18732.600000	-32457.555000	-13847.175000	-2.275175	-1.982935	-0.945719	0.543125	3.888073	11.782214	2.459531	-1.354655	-4.364360	1.693860	-0.152600	-0.879514	-0.008179	0.470580	-1.000000	-1.000000	-1.000000	-1.000000	-1.000000	-1.000000	-1.000000	54.000000	0.000000	-1.000000	-1.000000	394413.000000	1775779061.697897
761.940000	1835.370000	8328.780000	31358.655000	21650.625000	18730.080000	-32459.490000	-13847.400000	-1.608199	-1.667786	-1.178853	0.047725	2.836953	9.050959	1.435882	-0.713941	-4.471180	2.075360	-1.037680	-0.875486	-0.010010	0.468810	-1.000000	-1.000000	-1.000000	-1.000000	-1.000000	-1.000000	-1.000000	54.000000	0.000000	-1.000000	-1.000000	394414.000000	1775779061.706365
763.470000	1836.675000	8330.085000	31359.735000	21650.400000	18728.505000	-32463.630000	-13849.155000	-0.108899	-0.615683	-0.977497	-0.533315	1.254036	4.056150	0.482999	0.424684	-4.471180	2.075360	-1.037680	-0.875486	-0.010010	0.468810	-1.000000	-1.000000	-1.000000	-1.000000	-1.000000	-1.000000	-1.000000	54.000000	0.000000	-1.000000	-1.000000	394415.000000	1775779061.706390
764.010000	1838.520000	8331.165000	31360.410000	21652.740000	18729.810000	-32463.360000	-13848.390000	1.451153	0.816894	-0.230788	-0.747363	-0.177110	-0.714778	-0.187263	1.322059	-4.471180	2.075360	-1.037680	-0.875486	-0.010010	0.468810	-1.000000	-1.000000	-1.000000	-1.000000	-1.000000	-1.000000	-1.000000	54.000000	0.000000	-1.000000	-1.000000	394416.000000	1775779061.706419
760.635000	1837.575000	8330.850000	31359.105000	21651.390000	18722.070000	-32470.380000	-13853.070000	2.071971	1.810089	0.568569	-0.625545	-1.139852	-3.667051	-0.597230	1.402425	-4.471180	2.075360	-1.037680	-0.875486	-0.010010	0.468810	-1.000000	-1.000000	-1.000000	-1.000000	-1.000000	-1.000000	-1.000000	54.000000	0.000000	-1.000000	-1.000000	394417.000000	1775779061.706431
768.420000	1846.125000	8339.490000	31367.250000	21655.305000	18722.700000	-32470.695000	-13849.020000	1.469357	1.950333	1.062135	-0.292243	-1.533480	-4.587211	-0.816917	0.734916	-4.471180	2.075360	-1.037680	-0.875486	-0.010010	0.468810	-1.000000	-1.000000	-1.000000	-1.000000	-1.000000	-1.000000	-1.000000	54.000000	0.000000	-1.000000	-1.000000	394418.000000	1775779061.709796
770.130000	1844.820000	8336.835000	31363.515000	21648.285000	18714.420000	-32471.325000	-13847.985000	0.438508	1.528341	1.310524	0.261898	-1.494376	-4.084242	-0.772702	-0.002069	-4.471180	2.075360	-1.037680	-0.875486	-0.010010	0.468810	-1.000000	-1.000000	-1.000000	-1.000000	-1.000000	-1.000000	-1.000000	54.000000	0.000000	-1.000000	-1.000000	394419.000000	1775779061.709851
769.230000	1841.400000	8331.435000	31356.720000	21639.645000	18706.860000	-32468.895000	-13848.165000	-0.179530	0.767150	1.107670	0.602194	-1.567316	-2.981921	-0.192602	-0.179160	-4.471180	2.075360	-1.037680	-0.875486	-0.010010	0.468810	-1.000000	-1.000000	-1.000000	-1.000000	-1.000000	-1.000000	-1.000000	54.000000	0.000000	-1.000000	-1.000000	394420.000000	1775779061.714058
761.670000	1832.760000	8322.345000	31348.890000	21633.120000	18700.830000	-32464.710000	-13854.015000	-0.605096	-0.638427	-0.157260	-0.105370	-2.249553	-1.972671	0.988937	-0.010089	-4.471180	2.075360	-1.037680	-0.875486	-0.010010	0.468810	-1.000000	-1.000000	-1.000000	-1.000000	-1.000000	-1.000000	-1.000000	54.000000	0.000000	-1.000000	-1.000000	394421.000000	1775779061.714084
749.835000	1819.485000	8309.790000	31338.720000	21632.805000	18726.840000	-32449.365000	-13859.730000	-1.658151	-2.847188	-2.526838	-1.928500	-3.015744	-0.589023	2.592399	-0.270268	-4.471180	2.075360	-1.037680	-0.875486	-0.010010	0.468810	-1.000000	-1.000000	-1.000000	-1.000000	-1.000000	-1.000000	-1.000000	54.000000	0.000000	-1.000000	-1.000000	394422.000000	1775779061.717812
746.865000	1816.830000	8308.215000	31338.495000	21637.845000	18735.570000	-32447.970000	-13861.260000	-3.416799	-5.117567	-4.874061	-3.691934	-2.477449	2.617699	4.198811	-1.198553	-4.471180	2.075360	-1.037680	-0.875486	-0.010010	0.468810	-1.000000	-1.000000	-1.000000	-1.000000	-1.000000	-1.000000	-1.000000	54.000000	0.000000	-1.000000	-1.000000	394423.000000	1775779061.717839
753.795000	1825.785000	8317.710000	31347.810000	21646.530000	18734.715000	-32451.030000	-13855.995000	-4.412572	-5.597231	-5.138758	-3.538302	0.244545	7.073777	4.597904	-1.904773	-2.289000	4.700080	-0.595140	-0.871214	-0.012695	0.468932	-1.000000	-1.000000	-1.000000	-1.000000	-1.000000	-1.000000	-1.000000	54.000000	0.000000	-1.000000	-1.000000	394424.000000	1775779061.726472
756.630000	1829.520000	8321.040000	31350.735000	21651.795000	18746.595000	-32449.725000	-13853.700000	-2.791989	-2.643805	-1.865163	-0.401439	4.394844	9.486461	2.503047	-1.201031	-2.289000	4.700080	-0.595140	-0.871214	-0.012695	0.468932	-1.000000	-1.000000	-1.000000	-1.000000	-1.000000	-1.000000	-1.000000	54.000000	0.000000	-1.000000	-1.000000	394425.000000	1775779061.726496
757.215000	1830.645000	8322.210000	31349.745000	21651.480000	18759.105000	-32449.095000	-13854.555000	1.309791	2.899974	3.742438	4.347950	7.687560	7.826088	-1.574653	0.868656	-2.289000	4.700080	-0.595140	-0.871214	-0.012695	0.468932	-1.000000	-1.000000	-1.000000	-1.000000	-1.000000	-1.000000	-1.000000	54.000000	0.000000	-1.000000	-1.000000	394426.000000	1775779061.726523
759.915000	1833.345000	8322.480000	31343.445000	21643.020000	18746.955000	-32444.280000	-13848.570000	5.503222	7.839056	8.290225	7.494802	7.667768	2.934643	-5.359091	2.952912	-2.289000	4.700080	-0.595140	-0.871214	-0.012695	0.468932	-1.000000	-1.000000	-1.000000	-1.000000	-1.000000	-1.000000	-1.000000	54.000000	0.000000	-1.000000	-1.000000	394427.000000	1775779061.726536
759.420000	1831.185000	8318.925000	31342.950000	21640.320000	18740.970000	-32452.920000	-13852.170000	7.337141	9.315009	8.998327	6.778428	3.598809	-3.695535	-6.934956	3.764331	-2.289000	4.700080	-0.595140	-0.871214	-0.012695	0.468932	-1.000000	-1.000000	-1.000000	-1.000000	-1.000000	-1.000000	-1.000000	54.000000	0.000000	-1.000000	-1.000000	394428.000000	1775779061.739529
762.615000	1836.045000	8327.475000	31352.805000	21647.970000	18740.655000	-32455.935000	-13853.430000	6.053683	6.794891	5.753307	3.008884	-2.370877	-10.193282	-6.263103	2.789344	-2.289000	4.700080	-0.595140	-0.871214	-0.012695	0.468932	-1.000000	-1.000000	-1.000000	-1.000000	-1.000000	-1.000000	-1.000000	54.000000	0.000000	-1.000000	-1.000000	394429.000000	1775779061.739555
761.310000	1838.520000	8331.480000	31357.080000	21649.275000	18727.605000	-32461.920000	-13857.435000	2.630660	2.054721	0.953060	-0.801631	-6.513120	-13.896551	-4.444316	0.334187	-2.289000	4.700080	-0.595140	-0.871214	-0.012695	0.468932	-1.000000	-1.000000	-1.000000	-1.000000	-1.000000	-1.000000	-1.000000	54.000000	0.000000	-1.000000	-1.000000	394430.000000	1775779061.739583
764.370000	1840.230000	8332.065000	31358.295000	21649.905000	18708.975000	-32467.320000	-13855.545000	-1.187742	-2.383517	-2.748671	-2.526851	-6.757118	-13.478962	-2.327731	-2.427763	-2.289000	4.700080	-0.595140	-0.871214	-0.012695	0.468932	-1.000000	-1.000000	-1.000000	-1.000000	-1.000000	-1.000000	-1.000000	54.000000	0.000000	-1.000000	-1.000000	394431.000000	1775779061.739593
764.865000	1841.130000	8332.830000	31361.085000	21654.540000	18708.030000	-32467.455000	-13855.455000	-3.876579	-4.970512	-4.458955	-2.440625	-3.969881	-9.728385	-0.194221	-3.995986	-2.289000	4.700080	-0.595140	-0.871214	-0.012695	0.468932	-1.000000	-1.000000	-1.000000	-1.000000	-1.000000	-1.000000	-1.000000	54.000000	0.000000	-1.000000	-1.000000	394432.000000	1775779061.739605
764.145000	1838.700000	8328.735000	31357.530000	21657.960000	18723.780000	-32461.425000	-13854.195000	-4.756138	-5.566057	-4.766103	-1.946950	-0.278739	-3.358319	2.120966	-3.579115	-2.289000	4.700080	-0.595140	-0.871214	-0.012695	0.468932	-1.000000	-1.000000	-1.000000	-1.000000	-1.000000	-1.000000	-1.000000	54.000000	0.000000	-1.000000	-1.000000	394433.000000	1775779061.739614
759.825000	1835.010000	8325.945000	31354.110000	21655.170000	18738.810000	-32461.065000	-13857.615000	-4.195050	-4.905277	-4.520646	-2.093934	2.460843	5.418662	4.685004	-1.686849	0.595140	3.357200	0.274680	-0.874021	-0.013550	0.471373	-1.000000	-1.000000	-1.000000	-1.000000	-1.000000	-1.000000	-1.000000	54.000000	0.000000	-1.000000	-1.000000	394434.000000	1775779061.741105
757.575000	1833.795000	8325.945000	31355.055000	21657.510000	18746.460000	-32461.065000	-13860.675000	-3.079658	-3.776212	-4.027773	-2.899449	3.170129	14.562635	6.670065	0.309833	0.595140	3.357200	0.274680	-0.874021	-0.013550	0.471373	-1.000000	-1.000000	-1.000000	-1.000000	-1.000000	-1.000000	-1.000000	54.000000	0.000000	-1.000000	-1.000000	394435.000000	1775779061.741130
762.255000	1836.450000	8325.540000	31353.885000	21655.845000	18743.535000	-32458.230000	-13856.850000	-1.848787	-2.365581	-2.965244	-3.412995	1.973953	19.692017	6.846470	1.404989	0.595140	3.357200	0.274680	-0.874021	-0.013550	0.471373	-1.000000	-1.000000	-1.000000	-1.000000	-1.000000	-1.000000	-1.000000	54.000000	0.000000	-1.000000	-1.000000	394436.000000	1775779061.748626
759.420000	1831.770000	8319.510000	31346.370000	21646.800000	18742.140000	-32455.620000	-13857.570000	-0.340235	-0.557965	-1.206461	-2.886936	-0.198539	17.211437	4.941664	1.687380	0.595140	3.357200	0.274680	-0.874021	-0.013550	0.471373	-1.000000	-1.000000	-1.000000	-1.000000	-1.000000	-1.000000	-1.000000	54.000000	0.000000	-1.000000	-1.000000	394437.000000	1775779061.748654
764.775000	1836.315000	8321.760000	31347.810000	21646.125000	18737.370000	-32453.640000	-13851.810000	1.403154	1.369017	0.718267	-1.545243	-2.427040	7.637174	1.855462	1.743225	0.595140	3.357200	0.274680	-0.874021	-0.013550	0.471373	-1.000000	-1.000000	-1.000000	-1.000000	-1.000000	-1.000000	-1.000000	54.000000	0.000000	-1.000000	-1.000000	394438.000000	1775779061.752558
770.760000	1843.020000	8327.610000	31351.455000	21646.395000	18730.530000	-32457.105000	-13846.590000	3.002948	3.048289	2.398749	0.223106	-3.684426	-4.588855	-1.294970	1.943747	0.595140	3.357200	0.274680	-0.874021	-0.013550	0.471373	-1.000000	-1.000000	-1.000000	-1.000000	-1.000000	-1.000000	-1.000000	54.000000	0.000000	-1.000000	-1.000000	394439.000000	1775779061.752579
773.280000	1847.160000	8332.335000	31355.910000	21651.435000	18728.955000	-32459.850000	-13846.320000	4.086279	4.362911	3.908537	2.348839	-2.968618	-14.092128	-3.864534	2.191261	0.595140	3.357200	0.274680	-0.874021	-0.013550	0.471373	-1.000000	-1.000000	-1.000000	-1.000000	-1.000000	-1.000000	-1.000000	54.000000	0.000000	-1.000000	-1.000000	394440.000000	1775779061.754130
773.415000	1848.150000	8333.325000	31357.260000	21654.855000	18731.205000	-32461.425000	-13847.940000	4.110392	4.892822	4.989086	4.389485	-0.249794	-17.228789	-5.476359	1.837713	0.595140	3.357200	0.274680	-0.874021	-0.013550	0.471373	-1.000000	-1.000000	-1.000000	-1.000000	-1.000000	-1.000000	-1.000000	54.000000	0.000000	-1.000000	-1.000000	394441.000000	1775779061.754150
763.020000	1837.125000	8323.335000	31350.015000	21654.360000	18749.880000	-32454.180000	-13855.590000	2.438328	3.739227	4.623368	5.183357	3.109391	-13.113400	-5.552439	0.234523	0.595140	3.357200	0.274680	-0.874021	-0.013550	0.471373	-1.000000	-1.000000	-1.000000	-1.000000	-1.000000	-1.000000	-1.000000	54.000000	0.000000	-1.000000	-1.000000	394442.000000	1775779061.758562
758.070000	1831.770000	8319.240000	31345.200000	21648.870000	18752.175000	-32443.875000	-13857.930000	-0.965760	0.408679	1.971786	3.654910	5.027197	-3.787316	-3.476816	-2.418179	0.595140	3.357200	0.274680	-0.874021	-0.013550	0.471373	-1.000000	-1.000000	-1.000000	-1.000000	-1.000000	-1.000000	-1.000000	54.000000	0.000000	-1.000000	-1.000000	394443.000000	1775779061.758586
761.355000	1837.170000	8326.980000	31354.065000	21655.845000	18742.545000	-32449.185000	-13857.120000	-4.677541	-3.823257	-1.978536	0.356153	4.339783	5.859449	0.244007	-4.762941	2.716280	2.945180	0.885080	-0.877622	-0.011902	0.472228	-1.000000	-1.000000	-1.000000	-1.000000	-1.000000	-1.000000	-1.000000	54.000000	0.000000	-1.000000	-1.000000	394444.000000	1775779061.761952
765.900000	1844.865000	8335.530000	31361.940000	21661.425000	18735.705000	-32458.815000	-13857.930000	-6.216762	-6.078787	-4.444098	-2.286776	2.011461	10.372765	3.233756	-5.154865	2.716280	2.945180	0.885080	-0.877622	-0.011902	0.472228	-1.000000	-1.000000	-1.000000	-1.000000	-1.000000	-1.000000	-1.000000	54.000000	0.000000	-1.000000	-1.000000	394445.000000	1775779061.761978
769.860000	1847.160000	8337.285000	31363.650000	21664.395000	18734.355000	-32461.020000	-13854.330000	-4.218422	-4.528931	-3.584221	-2.382714	-0.027694	7.998617	3.180911	-3.096684	2.716280	2.945180	0.885080	-0.877622	-0.011902	0.472228	-1.000000	-1.000000	-1.000000	-1.000000	-1.000000	-1.000000	-1.000000	54.000000	0.000000	-1.000000	-1.000000	394446.000000	1775779061.768956
766.305000	1841.265000	8331.030000	31356.540000	21659.490000	18734.985000	-32460.840000	-13855.500000	0.055941	-0.512261	-0.648947	-0.763531	-1.073602	1.878281	0.525402	0.388467	2.716280	2.945180	0.885080	-0.877622	-0.011902	0.472228	-1.000000	-1.000000	-1.000000	-1.000000	-1.000000	-1.000000	-1.000000	54.000000	0.000000	-1.000000	-1.000000	394447.000000	1775779061.768980
765.495000	1838.520000	8327.070000	31350.870000	21654.315000	18739.935000	-32457.780000	-13854.420000	3.727264	2.726753	1.394231	0.112271	-1.899280	-3.180769	-2.049003	3.519754	2.716280	2.945180	0.885080	-0.877622	-0.011902	0.472228	-1.000000	-1.000000	-1.000000	-1.000000	-1.000000	-1.000000	-1.000000	54.000000	0.000000	-1.000000	-1.000000	394448.000000	1775779061.770314
765.810000	1838.070000	8326.080000	31349.250000	21651.705000	18742.140000	-32454.090000	-13854.015000	4.769166	3.198433	0.983248	-0.958002	-3.147151	-4.360396	-2.355177	4.891685	2.716280	2.945180	0.885080	-0.877622	-0.011902	0.472228	-1.000000	-1.000000	-1.000000	-1.000000	-1.000000	-1.000000	-1.000000	54.000000	0.000000	-1.000000	-1.000000	394449.000000	1775779061.770338
761.445000	1834.965000	8322.435000	31344.120000	21645.630000	18743.805000	-32450.535000	-13857.255000	3.254286	1.482072	-0.943489	-2.891508	-4.327714	-2.082652	-0.299839	4.168900	2.716280	2.945180	0.885080	-0.877622	-0.011902	0.472228	-1.000000	-1.000000	-1.000000	-1.000000	-1.000000	-1.000000	-1.000000	54.000000	0.000000	-1.000000	-1.000000	394450.000000	1775779061.779779
759.555000	1833.705000	8321.085000	31342.095000	21643.875000	18741.780000	-32453.010000	-13858.965000	0.516220	-0.650998	-2.516718	-3.890747	-4.473702	1.150203	2.432702	1.912230	2.716280	2.945180	0.885080	-0.877622	-0.011902	0.472228	-1.000000	-1.000000	-1.000000	-1.000000	-1.000000	-1.000000	-1.000000	54.000000	0.000000	-1.000000	-1.000000	394451.000000	1775779061.779807
761.220000	1835.505000	8323.965000	31345.155000	21646.170000	18740.025000	-32453.955000	-13857.570000	-1.891869	-1.783763	-2.520310	-2.973640	-2.995160	2.901828	3.769306	-0.739884	2.716280	2.945180	0.885080	-0.877622	-0.011902	0.472228	-1.000000	-1.000000	-1.000000	-1.000000	-1.000000	-1.000000	-1.000000	54.000000	0.000000	-1.000000	-1.000000	394452.000000	1775779061.779836
763.155000	1837.845000	8326.710000	31348.665000	21648.960000	18739.620000	-32454.180000	-13855.995000	-2.740007	-1.346005	-0.775280	-0.224631	0.016945	2.344147	2.826797	-2.460503	2.716280	2.945180	0.885080	-0.877622	-0.011902	0.472228	-1.000000	-1.000000	-1.000000	-1.000000	-1.000000	-1.000000	-1.000000	54.000000	0.000000	-1.000000	-1.000000	394453.000000	1775779061.779848
764.820000	1839.240000	8328.285000	31351.770000	21653.280000	18744.255000	-32452.650000	-13855.410000	-1.752011	0.285734	1.881682	3.288184	3.628652	0.461033	0.456700	-2.547514	1.007160	1.236060	1.159760	-0.878782	-0.009216	0.472045	-1.000000	-1.000000	-1.000000	-1.000000	-1.000000	-1.000000	-1.000000	54.000000	0.000000	-1.000000	-1.000000	394454.000000	1775779061.783050
762.660000	1837.260000	8327.070000	31350.645000	21651.570000	18743.085000	-32455.395000	-13857.345000	0.160240	1.972434	3.956600	5.851026	6.287382	-1.097325	-1.774759	-1.424946	1.007160	1.236060	1.159760	-0.878782	-0.009216	0.472045	-1.000000	-1.000000	-1.000000	-1.000000	-1.000000	-1.000000	-1.000000	54.000000	0.000000	-1.000000	-1.000000	394455.000000	1775779061.783072
767.070000	1842.930000	8332.335000	31354.875000	21654.855000	18742.500000	-32454.225000	-13853.835000	1.672974	2.650258	4.320639	6.115885	6.658193	-1.545937	-2.873172	-0.093597	1.007160	1.236060	1.159760	-0.878782	-0.009216	0.472045	-1.000000	-1.000000	-1.000000	-1.000000	-1.000000	-1.000000	-1.000000	54.000000	0.000000	-1.000000	-1.000000	394456.000000	1775779061.784267
764.325000	1840.320000	8330.850000	31354.470000	21655.845000	18736.650000	-32461.020000	-13858.560000	2.080580	2.126128	3.008055	4.066333	4.608545	-1.329898	-2.788158	0.723355	1.007160	1.236060	1.159760	-0.878782	-0.009216	0.472045	-1.000000	-1.000000	-1.000000	-1.000000	-1.000000	-1.000000	-1.000000	54.000000	0.000000	-1.000000	-1.000000	394457.000000	1775779061.784284
765.045000	1841.220000	8332.740000	31357.035000	21660.435000	18741.015000	-32461.515000	-13859.595000	1.414293	0.809913	0.827161	0.842675	1.318444	-1.105642	-2.070743	0.722510	1.007160	1.236060	1.159760	-0.878782	-0.009216	0.472045	-1.000000	-1.000000	-1.000000	-1.000000	-1.000000	-1.000000	-1.000000	54.000000	0.000000	-1.000000	-1.000000	394458.000000	1775779061.799775
767.115000	1842.840000	8332.425000	31356.270000	21657.645000	18744.480000	-32457.915000	-13857.210000	0.170111	-0.731706	-1.341355	-2.175960	-1.732375	-0.747637	-1.081418	0.094145	1.007160	1.236060	1.159760	-0.878782	-0.009216	0.472045	-1.000000	-1.000000	-1.000000	-1.000000	-1.000000	-1.000000	-1.000000	54.000000	0.000000	-1.000000	-1.000000	394459.000000	1775779061.799799
764.550000	1840.140000	8328.645000	31352.400000	21651.705000	18740.070000	-32460.030000	-13860.315000	-0.943287	-1.891501	-2.883987	-4.128873	-3.857871	0.093513	0.254574	-0.494624	1.007160	1.236060	1.159760	-0.878782	-0.009216	0.472045	-1.000000	-1.000000	-1.000000	-1.000000	-1.000000	-1.000000	-1.000000	54.000000	0.000000	-1.000000	-1.000000	394460.000000	1775779061.799936
769.185000	1847.115000	8337.375000	31360.635000	21657.285000	18737.010000	-32459.085000	-13858.290000	-1.460406	-2.254394	-3.437926	-4.694835	-4.976890	0.899757	1.695101	-0.589425	1.007160	1.236060	1.159760	-0.878782	-0.009216	0.472045	-1.000000	-1.000000	-1.000000	-1.000000	-1.000000	-1.000000	-1.000000	54.000000	0.000000	-1.000000	-1.000000	394461.000000	1775779061.799953
771.885000	1850.445000	8341.920000	31365.000000	21659.040000	18730.170000	-32460.255000	-13856.580000	-1.201600	-1.594996	-2.603381	-3.608739	-4.694075	0.789066	2.573804	-0.184118	1.007160	1.236060	1.159760	-0.878782	-0.009216	0.472045	-1.000000	-1.000000	-1.000000	-1.000000	-1.000000	-1.000000	-1.000000	54.000000	0.000000	-1.000000	-1.000000	394462.000000	1775779061.799973
778.185000	1855.935000	8347.455000	31370.625000	21661.200000	18719.055000	-32459.895000	-13850.820000	-0.199669	-0.059445	-0.437263	-1.043768	-2.751944	-0.464435	2.487586	0.619566	1.007160	1.236060	1.159760	-0.878782	-0.009216	0.472045	-1.000000	-1.000000	-1.000000	-1.000000	-1.000000	-1.000000	-1.000000	54.000000	0.000000	-1.000000	-1.000000	394463.000000	1775779061.799985
779.355000	1856.385000	8347.410000	31368.735000	21657.510000	18703.080000	-32465.655000	-13852.890000	1.082812	1.535758	1.916170	1.738543	-0.035142	-2.446660	1.486440	1.516682	-2.304260	1.632820	1.190280	-0.876890	-0.006226	0.470763	-1.000000	-1.000000	-1.000000	-1.000000	-1.000000	-1.000000	-1.000000	54.000000	0.000000	-1.000000	-1.000000	394464.000000	1775779061.801733
777.825000	1852.515000	8341.695000	31362.570000	21655.170000	18702.495000	-32465.250000	-13853.115000	1.766899	2.053503	2.815979	2.945475	1.893954	-4.151317	-0.074302	1.820709	-2.304260	1.632820	1.190280	-0.876890	-0.006226	0.470763	-1.000000	-1.000000	-1.000000	-1.000000	-1.000000	-1.000000	-1.000000	54.000000	0.000000	-1.000000	-1.000000	394465.000000	1775779061.801750
773.370000	1846.485000	8334.000000	31354.875000	21655.530000	18732.375000	-32459.535000	-13855.005000	1.070316	0.794538	1.315583	1.578726	2.188565	-3.406961	-1.373833	1.009513	-2.304260	1.632820	1.190280	-0.876890	-0.006226	0.470763	-1.000000	-1.000000	-1.000000	-1.000000	-1.000000	-1.000000	-1.000000	54.000000	0.000000	-1.000000	-1.000000	394466.000000	1775779061.811455
759.555000	1833.795000	8321.220000	31342.095000	21648.105000	18765.540000	-32453.955000	-13866.570000	-1.133548	-1.956810	-2.085116	-1.743141	1.214676	2.150127	-1.372905	-0.807812	-2.304260	1.632820	1.190280	-0.876890	-0.006226	0.470763	-1.000000	-1.000000	-1.000000	-1.000000	-1.000000	-1.000000	-1.000000	54.000000	0.000000	-1.000000	-1.000000	394467.000000	1775779061.811481
761.805000	1837.035000	8325.675000	31346.910000	21652.335000	18757.350000	-32452.065000	-13864.590000	-3.961045	-4.795889	-5.423872	-4.948474	-0.095029	11.007709	0.062712	-2.965710	-2.304260	1.632820	1.190280	-0.876890	-0.006226	0.470763	-1.000000	-1.000000	-1.000000	-1.000000	-1.000000	-1.000000	-1.000000	54.000000	0.000000	-1.000000	-1.000000	394468.000000	1775779061.811508
773.505000	1849.815000	8340.255000	31362.435000	21667.230000	18739.260000	-32454.360000	-13855.995000	-5.256889	-5.388442	-5.889207	-5.240560	-0.475338	16.080806	1.668754	-4.008770	-2.304260	1.632820	1.190280	-0.876890	-0.006226	0.470763	-1.000000	-1.000000	-1.000000	-1.000000	-1.000000	-1.000000	-1.000000	54.000000	0.000000	-1.000000	-1.000000	394469.000000	1775779061.811519
775.125000	1852.155000	8344.620000	31366.485000	21670.785000	18730.035000	-32456.250000	-13853.880000	-3.078362	-2.176709	-1.916353	-1.157399	1.047500	11.089184	1.879330	-2.506565	-2.304260	1.632820	1.190280	-0.876890	-0.006226	0.470763	-1.000000	-1.000000	-1.000000	-1.000000	-1.000000	-1.000000	-1.000000	54.000000	0.000000	-1.000000	-1.000000	394470.000000	1775779061.815282
774.810000	1850.310000	8341.335000	31362.840000	21662.910000	18731.250000	-32460.075000	-13855.365000	1.671958	3.268022	4.407012	5.067875	3.369379	-1.985142	0.268146	0.942403	-2.304260	1.632820	1.190280	-0.876890	-0.006226	0.470763	-1.000000	-1.000000	-1.000000	-1.000000	-1.000000	-1.000000	-1.000000	54.000000	0.000000	-1.000000	-1.000000	394471.000000	1775779061.815305
777.195000	1851.660000	8339.940000	31361.355000	21661.335000	18745.110000	-32459.715000	-13854.015000	5.750803	7.208060	8.597222	8.884993	3.791499	-14.249847	-2.143161	3.914711	-2.304260	1.632820	1.190280	-0.876890	-0.006226	0.470763	-1.000000	-1.000000	-1.000000	-1.000000	-1.000000	-1.000000	-1.000000	54.000000	0.000000	-1.000000	-1.000000	394472.000000	1775779061.817398
772.335000	1847.655000	8337.375000	31359.870000	21663.180000	18751.590000	-32461.920000	-13859.145000	6.658798	7.213883	7.896954	7.689768	1.293074	-17.804855	-3.765269	4.493045	-2.304260	1.632820	1.190280	-0.876890	-0.006226	0.470763	-1.000000	-1.000000	-1.000000	-1.000000	-1.000000	-1.000000	-1.000000	54.000000	0.000000	-1.000000	-1.000000	394473.000000	1775779061.817422
771.390000	1844.235000	8333.370000	31356.630000	21658.905000	18750.780000	-32453.370000	-13857.795000	4.173026	3.637188	3.168059	2.636867	-2.370346	-11.800273	-3.483562	2.580844	-4.776380	2.685760	1.007160	-0.874387	-0.007141	0.468810	-1.000000	-1.000000	-1.000000	-1.000000	-1.000000	-1.000000	-1.000000	54.000000	0.000000	-1.000000	-1.000000	394474.000000	1775779061.823696
772.830000	1842.120000	8328.555000	31350.960000	21654.180000	18745.380000	-32448.510000	-13854.195000	0.011204	-1.326299	-2.629402	-3.176054	-4.971445	-1.866338	-1.137758	-0.300617	-4.776380	2.685760	1.007160	-0.874387	-0.007141	0.468810	-1.000000	-1.000000	-1.000000	-1.000000	-1.000000	-1.000000	-1.000000	54.000000	0.000000	-1.000000	-1.000000	394475.000000	1775779061.823716
771.930000	1840.410000	8326.215000	31347.855000	21655.845000	18751.320000	-32447.430000	-13855.140000	-3.397885	-5.117379	-6.654836	-7.070583	-5.481512	5.569123	2.198847	-2.246023	-4.776380	2.685760	1.007160	-0.874387	-0.007141	0.468810	-1.000000	-1.000000	-1.000000	-1.000000	-1.000000	-1.000000	-1.000000	54.000000	0.000000	-1.000000	-1.000000	394476.000000	1775779061.825085
762.705000	1831.185000	8318.160000	31341.645000	21653.010000	18762.255000	-32448.105000	-13863.915000	-4.734494	-6.303088	-7.522155	-7.843687	-3.886034	8.145088	4.510872	-2.674614	-4.776380	2.685760	1.007160	-0.874387	-0.007141	0.468810	-1.000000	-1.000000	-1.000000	-1.000000	-1.000000	-1.000000	-1.000000	54.000000	0.000000	-1.000000	-1.000000	394477.000000	1775779061.825103
762.120000	1832.085000	8320.455000	31344.570000	21653.325000	18757.935000	-32449.455000	-13865.040000	-4.358806	-5.105048	-5.506136	-5.703670	-0.966049	7.193574	4.296617	-2.423215	-4.776380	2.685760	1.007160	-0.874387	-0.007141	0.468810	-1.000000	-1.000000	-1.000000	-1.000000	-1.000000	-1.000000	-1.000000	54.000000	0.000000	-1.000000	-1.000000	394478.000000	1775779061.843707
761.490000	1834.560000	8323.020000	31347.540000	21653.415000	18750.870000	-32454.945000	-13866.750000	-2.990130	-2.365705	-1.675133	-1.619590	2.010701	4.276344	1.669833	-2.095194	-4.776380	2.685760	1.007160	-0.874387	-0.007141	0.468810	-1.000000	-1.000000	-1.000000	-1.000000	-1.000000	-1.000000	-1.000000	54.000000	0.000000	-1.000000	-1.000000	394479.000000	1775779061.843733
764.460000	1838.835000	8328.555000	31352.355000	21658.950000	18752.085000	-32454.990000	-13865.040000	-0.863734	1.198499	2.768946	3.071612	4.084798	0.227123	-1.904929	-1.378349	-4.776380	2.685760	1.007160	-0.874387	-0.007141	0.468810	-1.000000	-1.000000	-1.000000	-1.000000	-1.000000	-1.000000	-1.000000	54.000000	0.000000	-1.000000	-1.000000	394480.000000	1775779061.843761
767.160000	1841.715000	8331.300000	31354.605000	21661.425000	18748.980000	-32457.240000	-13863.195000	1.741735	4.606779	6.420746	6.733610	4.965958	-3.533755	-4.513607	0.091575	-4.776380	2.685760	1.007160	-0.874387	-0.007141	0.468810	-1.000000	-1.000000	-1.000000	-1.000000	-1.000000	-1.000000	-1.000000	54.000000	0.000000	-1.000000	-1.000000	394481.000000	1775779061.843773
768.780000	1845.045000	8334.720000	31358.295000	21663.315000	18749.115000	-32457.330000	-13863.330000	4.056927	6.587914	7.918681	7.968173	4.655579	-5.340285	-4.886338	1.984719	-4.776380	2.685760	1.007160	-0.874387	-0.007141	0.468810	-1.000000	-1.000000	-1.000000	-1.000000	-1.000000	-1.000000	-1.000000	54.000000	0.000000	-1.000000	-1.000000	394482.000000	1775779061.843787
767.385000	1846.260000	8336.160000	31359.600000	21661.785000	18750.150000	-32458.320000	-13866.480000	5.050820	6.287231	6.657187	6.384734	3.131889	-4.572418	-3.084189	3.314794	-4.776380	2.685760	1.007160	-0.874387	-0.007141	0.468810	-1.000000	-1.000000	-1.000000	-1.000000	-1.000000	-1.000000	-1.000000	54.000000	0.000000	-1.000000	-1.000000	394483.000000	1775779061.843798
772.515000	1851.210000	8339.940000	31363.560000	21663.540000	18753.075000	-32456.700000	-13862.115000	4.193120	3.871727	3.227114	2.816417	0.638626	-1.829972	-0.187253	3.282076	-4.730600	2.289000	1.251320	-0.873594	-0.010498	0.469115	-1.000000	-1.000000	-1.000000	-1.000000	-1.000000	-1.000000	-1.000000	54.000000	0.000000	-1.000000	-1.000000	394484.000000	1775779061.843812
772.290000	1849.230000	8335.980000	31358.160000	21658.005000	18750.150000	-32457.150000	-13860.990000	2.015717	0.416595	-0.971424	-1.293561	-2.101813	1.470967	2.490668	2.126229	-4.730600	2.289000	1.251320	-0.873594	-0.010498	0.469115	-1.000000	-1.000000	-1.000000	-1.000000	-1.000000	-1.000000	-1.000000	54.000000	0.000000	-1.000000	-1.000000	394485.000000	1775779061.843822
771.435000	1847.880000	8336.925000	31360.185000	21661.245000	18747.675000	-32457.015000	-13860.900000	-0.463562	-2.898459	-4.573407	-4.702297	-4.181661	3.652516	3.962676	0.680752	-4.730600	2.289000	1.251320	-0.873594	-0.010498	0.469115	-1.000000	-1.000000	-1.000000	-1.000000	-1.000000	-1.000000	-1.000000	54.000000	0.000000	-1.000000	-1.000000	394486.000000	1775779061.845722
774.360000	1849.320000	8337.555000	31360.815000	21663.180000	18745.110000	-32458.635000	-13858.290000	-2.466109	-5.209165	-6.562370	-6.473729	-4.751348	3.730698	3.836365	-0.517682	-4.730600	2.289000	1.251320	-0.873594	-0.010498	0.469115	-1.000000	-1.000000	-1.000000	-1.000000	-1.000000	-1.000000	-1.000000	54.000000	0.000000	-1.000000	-1.000000	394487.000000	1775779061.845743
771.840000	1845.180000	8332.155000	31354.920000	21658.545000	18752.085000	-32456.295000	-13860.495000	-3.496594	-5.933785	-6.478630	-6.179180	-3.564489	2.220014	2.435180	-1.319225	-4.730600	2.289000	1.251320	-0.873594	-0.010498	0.469115	-1.000000	-1.000000	-1.000000	-1.000000	-1.000000	-1.000000	-1.000000	54.000000	0.000000	-1.000000	-1.000000	394488.000000	1775779061.854872
770.445000	1844.775000	8331.930000	31354.785000	21657.870000	18752.040000	-32454.630000	-13861.845000	-3.495163	-5.050021	-4.766053	-4.354970	-1.495241	0.656290	0.656255	-1.820168	-4.730600	2.289000	1.251320	-0.873594	-0.010498	0.469115	-1.000000	-1.000000	-1.000000	-1.000000	-1.000000	-1.000000	-1.000000	54.000000	0.000000	-1.000000	-1.000000	394489.000000	1775779061.854897
771.615000	1847.475000	8337.195000	31361.445000	21663.000000	18744.210000	-32463.900000	-13864.230000	-2.772840	-2.998333	-2.172852	-1.785605	0.402366	-0.159768	-0.813194	-2.174534	-4.730600	2.289000	1.251320	-0.873594	-0.010498	0.469115	-1.000000	-1.000000	-1.000000	-1.000000	-1.000000	-1.000000	-1.000000	54.000000	0.000000	-1.000000	-1.000000	394490.000000	1775779061.854924
773.055000	1850.085000	8339.985000	31363.830000	21664.530000	18731.880000	-32468.895000	-13864.680000	-1.543385	-0.261318	0.867587	1.180497	1.880089	-0.982232	-2.096100	-2.295390	-4.730600	2.289000	1.251320	-0.873594	-0.010498	0.469115	-1.000000	-1.000000	-1.000000	-1.000000	-1.000000	-1.000000	-1.000000	54.000000	0.000000	-1.000000	-1.000000	394491.000000	1775779061.854935
774.360000	1852.245000	8342.775000	31366.710000	21665.205000	18725.355000	-32463.270000	-13864.185000	0.029413	2.503998	3.732176	3.951129	2.901972	-2.620460	-3.145986	-1.891324	-4.730600	2.289000	1.251320	-0.873594	-0.010498	0.469115	-1.000000	-1.000000	-1.000000	-1.000000	-1.000000	-1.000000	-1.000000	54.000000	0.000000	-1.000000	-1.000000	394492.000000	1775779061.858343
769.995000	1846.845000	8338.725000	31363.560000	21661.605000	18726.030000	-32460.480000	-13867.920000	1.437795	4.263535	5.293242	5.364417	3.023378	-4.245367	-2.962184	-0.887881	-4.730600	2.289000	1.251320	-0.873594	-0.010498	0.469115	-1.000000	-1.000000	-1.000000	-1.000000	-1.000000	-1.000000	-1.000000	54.000000	0.000000	-1.000000	-1.000000	394493.000000	1775779061.858366
768.735000	1844.010000	8335.395000	31357.890000	21655.845000	18741.420000	-32461.515000	-13869.270000	1.961320	4.059683	4.594828	4.462102	1.799122	-3.737343	-1.026466	0.287203	-2.060100	2.380560	0.854560	-0.874998	-0.012268	0.469603	-1.000000	-1.000000	-1.000000	-1.000000	-1.000000	-1.000000	-1.000000	54.000000	0.000000	-1.000000	-1.000000	394494.000000	1775779061.861946
770.220000	1842.030000	8331.660000	31352.760000	21652.200000	18769.635000	-32455.350000	-13865.130000	1.449562	1.965267	1.799517	1.374748	-0.528136	0.518667	1.637842	1.202711	-2.060100	2.380560	0.854560	-0.874998	-0.012268	0.469603	-1.000000	-1.000000	-1.000000	-1.000000	-1.000000	-1.000000	-1.000000	54.000000	0.000000	-1.000000	-1.000000	394495.000000	1775779061.861973
774.045000	1842.120000	8329.005000	31350.780000	21653.100000	18768.960000	-32452.560000	-13860.495000	0.662082	-0.667622	-1.652419	-2.401853	-2.772038	7.384179	3.611310	1.972375	-2.060100	2.380560	0.854560	-0.874998	-0.012268	0.469603	-1.000000	-1.000000	-1.000000	-1.000000	-1.000000	-1.000000	-1.000000	54.000000	0.000000	-1.000000	-1.000000	394496.000000	1775779061.865357
773.415000	1843.605000	8330.355000	31352.535000	21654.270000	18760.545000	-32455.440000	-13861.890000	0.409058	-2.223179	-3.925302	-4.745115	-3.456564	12.073715	4.024534	2.695019	-2.060100	2.380560	0.854560	-0.874998	-0.012268	0.469603	-1.000000	-1.000000	-1.000000	-1.000000	-1.000000	-1.000000	-1.000000	54.000000	0.000000	-1.000000	-1.000000	394497.000000	1775779061.865380
770.760000	1843.110000	8331.660000	31353.120000	21653.280000	18752.760000	-32460.705000	-13866.345000	0.589954	-2.003140	-3.874279	-4.317689	-2.077352	9.778256	2.480335	2.747862	-2.060100	2.380560	0.854560	-0.874998	-0.012268	0.469603	-1.000000	-1.000000	-1.000000	-1.000000	-1.000000	-1.000000	-1.000000	54.000000	0.000000	-1.000000	-1.000000	394498.000000	1775779061.869972
775.845000	1847.295000	8336.520000	31357.170000	21656.610000	18755.325000	-32458.905000	-13861.260000	0.597251	-0.484798	-1.631813	-1.468078	0.474267	0.918975	-0.539348	1.559069	-2.060100	2.380560	0.854560	-0.874998	-0.012268	0.469603	-1.000000	-1.000000	-1.000000	-1.000000	-1.000000	-1.000000	-1.000000	54.000000	0.000000	-1.000000	-1.000000	394499.000000	1775779061.869995
774.900000	1845.720000	8335.305000	31355.820000	21656.610000	18758.160000	-32462.415000	-13862.835000	0.314595	1.270832	1.496035	2.106762	2.784259	-8.827124	-3.454364	-0.300080	-2.060100	2.380560	0.854560	-0.874998	-0.012268	0.469603	-1.000000	-1.000000	-1.000000	-1.000000	-1.000000	-1.000000	-1.000000	54.000000	0.000000	-1.000000	-1.000000	394500.000000	1775779061.878645
778.545000	1850.670000	8342.235000	31362.705000	21664.170000	18758.835000	-32462.640000	-13860.720000	0.024441	2.315583	3.841929	4.562196	3.925818	-13.625564	-4.732333	-1.722257	-2.060100	2.380560	0.854560	-0.874998	-0.012268	0.469603	-1.000000	-1.000000	-1.000000	-1.000000	-1.000000	-1.000000	-1.000000	54.000000	0.000000	-1.000000	-1.000000	394501.000000	1775779061.878671
777.600000	1850.085000	8341.155000	31363.155000	21665.520000	18753.120000	-32463.045000	-13862.430000	-0.152217	2.274461	4.416619	5.023187	3.778446	-11.865635	-3.953704	-2.193724	-2.060100	2.380560	0.854560	-0.874998	-0.012268	0.469603	-1.000000	-1.000000	-1.000000	-1.000000	-1.000000	-1.000000	-1.000000	54.000000	0.000000	-1.000000	-1.000000	394502.000000	1775779061.878702
783.720000	1857.060000	8349.705000	31373.280000	21677.085000	18760.185000	-32456.385000	-13857.435000	-0.225373	1.422513	3.298636	3.802243	2.771044	-5.953976	-1.600695	-1.811347	-2.060100	2.380560	0.854560	-0.874998	-0.012268	0.469603	-1.000000	-1.000000	-1.000000	-1.000000	-1.000000	-1.000000	-1.000000	54.000000	0.000000	-1.000000	-1.000000	394503.000000	1775779061.878714
783.540000	1859.985000	8353.395000	31377.105000	21677.985000	18750.960000	-32464.305000	-13860.990000	-0.165034	0.395550	1.364629	1.872818	1.450280	0.601546	1.271685	-0.921289	1.190280	2.639980	0.350980	-0.875608	-0.011902	0.471312	-1.000000	-1.000000	-1.000000	-1.000000	-1.000000	-1.000000	-1.000000	54.000000	0.000000	-1.000000	-1.000000	394504.000000	1775779061.882723
771.300000	1849.455000	8340.885000	31362.705000	21655.755000	18729.765000	-32478.570000	-13874.940000	-0.313208	-0.575727	-0.712494	-0.286772	-0.448972	4.676058	2.900020	-0.331260	1.190280	2.639980	0.350980	-0.875608	-0.011902	0.471312	-1.000000	-1.000000	-1.000000	-1.000000	-1.000000	-1.000000	-1.000000	54.000000	0.000000	-1.000000	-1.000000	394505.000000	1775779061.882747
781.470000	1859.220000	8349.795000	31369.095000	21659.310000	18731.160000	-32472.675000	-13865.850000	-1.130472	-1.765855	-2.901235	-2.941343	-3.699043	4.635534	2.104769	-0.726664	1.190280	2.639980	0.350980	-0.875608	-0.011902	0.471312	-1.000000	-1.000000	-1.000000	-1.000000	-1.000000	-1.000000	-1.000000	54.000000	0.000000	-1.000000	-1.000000	394506.000000	1775779061.888106
781.335000	1858.455000	8348.805000	31366.980000	21657.240000	18718.020000	-32466.870000	-13862.565000	-1.910864	-2.743020	-4.552179	-5.425708	-7.140723	1.907505	0.248243	-1.201629	1.190280	2.639980	0.350980	-0.875608	-0.011902	0.471312	-1.000000	-1.000000	-1.000000	-1.000000	-1.000000	-1.000000	-1.000000	54.000000	0.000000	-1.000000	-1.000000	394507.000000	1775779061.888130
774.045000	1851.210000	8341.965000	31360.680000	21650.220000	18706.545000	-32462.325000	-13868.280000	-1.666070	-2.796657	-4.693102	-6.275983	-8.139766	-0.660542	-0.161010	-0.428568	1.190280	2.639980	0.350980	-0.875608	-0.011902	0.471312	-1.000000	-1.000000	-1.000000	-1.000000	-1.000000	-1.000000	-1.000000	54.000000	0.000000	-1.000000	-1.000000	394508.000000	1775779061.894118
770.085000	1847.070000	8338.950000	31358.475000	21648.240000	18699.480000	-32467.815000	-13873.455000	-0.877033	-2.316887	-3.593399	-5.160036	-5.817108	-1.564888	1.271407	1.011996	1.190280	2.639980	0.350980	-0.875608	-0.011902	0.471312	-1.000000	-1.000000	-1.000000	-1.000000	-1.000000	-1.000000	-1.000000	54.000000	0.000000	-1.000000	-1.000000	394509.000000	1775779061.894141
761.760000	1837.395000	8331.300000	31353.570000	21652.515000	18727.380000	-32467.860000	-13880.205000	-0.563106	-2.054842	-2.190961	-2.833474	-1.352147	-0.058113	2.625765	1.518033	1.190280	2.639980	0.350980	-0.875608	-0.011902	0.471312	-1.000000	-1.000000	-1.000000	-1.000000	-1.000000	-1.000000	-1.000000	54.000000	0.000000	-1.000000	-1.000000	394510.000000	1775779061.894300
751.860000	1826.595000	8320.005000	31343.670000	21649.230000	18746.055000	-32467.770000	-13888.170000	-0.969581	-2.158502	-1.100217	-0.303575	3.524827	4.682136	2.289137	0.527816	1.190280	2.639980	0.350980	-0.875608	-0.011902	0.471312	-1.000000	-1.000000	-1.000000	-1.000000	-1.000000	-1.000000	-1.000000	54.000000	0.000000	-1.000000	-1.000000	394511.000000	1775779061.894314
753.660000	1826.910000	8320.185000	31344.435000	21650.445000	18761.085000	-32459.310000	-13885.335000	-1.484709	-2.128741	-0.403740	1.596716	7.026495	11.353752	0.662465	-1.036910	1.190280	2.639980	0.350980	-0.875608	-0.011902	0.471312	-1.000000	-1.000000	-1.000000	-1.000000	-1.000000	-1.000000	-1.000000	54.000000	0.000000	-1.000000	-1.000000	394512.000000	1775779061.904452
764.370000	1835.505000	8327.160000	31350.195000	21652.650000	18753.750000	-32456.205000	-13875.795000	-0.762798	-0.817107	0.692537	2.957494	7.970455	15.313317	-0.685385	-1.383301	1.190280	2.639980	0.350980	-0.875608	-0.011902	0.471312	-1.000000	-1.000000	-1.000000	-1.000000	-1.000000	-1.000000	-1.000000	54.000000	0.000000	-1.000000	-1.000000	394513.000000	1775779061.904479
766.620000	1835.730000	8326.395000	31348.485000	21650.085000	18747.450000	-32460.390000	-13874.220000	2.072566	2.462877	3.010436	4.382486	6.417909	11.902199	-1.032661	0.568029	1.861720	2.380560	0.686700	-0.876035	-0.010193	0.472228	-1.000000	-1.000000	-1.000000	-1.000000	-1.000000	-1.000000	-1.000000	54.000000	0.000000	-1.000000	-1.000000	394514.000000	1775779061.904505
769.320000	1838.430000	8329.230000	31349.070000	21649.095000	18748.080000	-32461.020000	-13872.960000	5.771653	6.412258	5.808674	5.553574	3.231400	1.179589	-1.118820	3.661149	1.861720	2.380560	0.686700	-0.876035	-0.010193	0.472228	-1.000000	-1.000000	-1.000000	-1.000000	-1.000000	-1.000000	-1.000000	54.000000	0.000000	-1.000000	-1.000000	394515.000000	1775779061.904517
769.860000	1841.310000	8333.775000	31354.200000	21652.110000	18742.905000	-32461.965000	-13872.735000	7.704070	8.584545	7.319661	5.525173	-0.353116	-11.402153	-1.682543	5.418404	1.861720	2.380560	0.686700	-0.876035	-0.010193	0.472228	-1.000000	-1.000000	-1.000000	-1.000000	-1.000000	-1.000000	-1.000000	54.000000	0.000000	-1.000000	-1.000000	394516.000000	1775779061.910474
766.935000	1839.060000	8332.560000	31351.410000	21645.270000	18729.315000	-32466.960000	-13876.875000	6.235928	7.543754	6.488868	4.003692	-3.091312	-19.577619	-2.498514	4.330958	1.861720	2.380560	0.686700	-0.876035	-0.010193	0.472228	-1.000000	-1.000000	-1.000000	-1.000000	-1.000000	-1.000000	-1.000000	54.000000	0.000000	-1.000000	-1.000000	394517.000000	1775779061.910499
760.410000	1831.455000	8323.920000	31340.205000	21631.815000	18724.635000	-32466.465000	-13881.735000	1.755245	3.492532	3.285874	1.162218	-4.689690	-20.558261	-2.933258	0.753310	1.861720	2.380560	0.686700	-0.876035	-0.010193	0.472228	-1.000000	-1.000000	-1.000000	-1.000000	-1.000000	-1.000000	-1.000000	54.000000	0.000000	-1.000000	-1.000000	394518.000000	1775779061.910526
757.980000	1830.555000	8323.965000	31341.780000	21638.745000	18735.930000	-32462.820000	-13883.670000	-3.792186	-2.082055	-1.463365	-2.544274	-5.433703	-14.753844	-2.381144	-3.567022	1.861720	2.380560	0.686700	-0.876035	-0.010193	0.472228	-1.000000	-1.000000	-1.000000	-1.000000	-1.000000	-1.000000	-1.000000	54.000000	0.000000	-1.000000	-1.000000	394519.000000	1775779061.910538
760.995000	1835.145000	8330.805000	31349.880000	21653.730000	18753.570000	-32460.705000	-13882.275000	-7.769855	-6.672778	-5.697115	-5.475097	-4.481759	-3.941078	-0.563746	-6.397724	1.861720	2.380560	0.686700	-0.876035	-0.010193	0.472228	-1.000000	-1.000000	-1.000000	-1.000000	-1.000000	-1.000000	-1.000000	54.000000	0.000000	-1.000000	-1.000000	394520.000000	1775779061.916777
764.910000	1838.655000	8335.710000	31356.270000	21660.615000	18762.930000	-32457.960000	-13878.630000	-8.127991	-7.920730	-6.993818	-5.502607	-0.723025	8.637214	1.941163	-6.211847	1.861720	2.380560	0.686700	-0.876035	-0.010193	0.472228	-1.000000	-1.000000	-1.000000	-1.000000	-1.000000	-1.000000	-1.000000	54.000000	0.000000	-1.000000	-1.000000	394521.000000	1775779061.916802
764.730000	1837.710000	8334.495000	31354.335000	21656.430000	18753.345000	-32459.985000	-13878.090000	-4.833661	-5.495615	-4.830322	-2.497673	4.371430	17.800300	3.841408	-3.170376	1.861720	2.380560	0.686700	-0.876035	-0.010193	0.472228	-1.000000	-1.000000	-1.000000	-1.000000	-1.000000	-1.000000	-1.000000	54.000000	0.000000	-1.000000	-1.000000	394522.000000	1775779061.916825
767.520000	1839.330000	8335.035000	31354.920000	21656.205000	18760.140000	-32459.490000	-13875.705000	0.022348	-1.364644	-1.170137	1.164207	7.179782	18.932705	4.030834	0.955114	1.861720	2.380560	0.686700	-0.876035	-0.010193	0.472228	-1.000000	-1.000000	-1.000000	-1.000000	-1.000000	-1.000000	-1.000000	54.000000	0.000000	-1.000000	-1.000000	394523.000000	1775779061.916834
768.285000	1838.385000	8331.930000	31351.230000	21652.110000	18758.475000	-32461.695000	-13874.850000	3.872258	2.007868	1.482709	2.921457	5.562711	11.978206	2.408491	4.044140	0.427280	2.395820	0.900340	-0.876096	-0.008606	0.470092	-1.000000	-1.000000	-1.000000	-1.000000	-1.000000	-1.000000	-1.000000	54.000000	0.000000	-1.000000	-1.000000	394524.000000	1775779061.928121
765.315000	1837.980000	8331.030000	31349.880000	21650.310000	18754.020000	-32467.005000	-13880.565000	5.196236	3.295147	1.980307	2.044014	0.669276	1.310055	-0.192388	4.788400	0.427280	2.395820	0.900340	-0.876096	-0.008606	0.470092	-1.000000	-1.000000	-1.000000	-1.000000	-1.000000	-1.000000	-1.000000	54.000000	0.000000	-1.000000	-1.000000	394525.000000	1775779061.928150
767.745000	1843.875000	8339.130000	31358.115000	21654.990000	18755.955000	-32464.215000	-13880.655000	3.935053	2.706292	0.993517	-0.172261	-4.348131	-7.975888	-2.586161	3.079112	0.427280	2.395820	0.900340	-0.876096	-0.008606	0.470092	-1.000000	-1.000000	-1.000000	-1.000000	-1.000000	-1.000000	-1.000000	54.000000	0.000000	-1.000000	-1.000000	394526.000000	1775779061.928255
767.160000	1843.065000	8340.030000	31358.160000	21651.480000	18746.460000	-32466.645000	-13882.950000	1.298529	1.410062	0.142653	-1.635187	-6.671060	-12.665652	-3.643736	0.073946	0.427280	2.395820	0.900340	-0.876096	-0.008606	0.470092	-1.000000	-1.000000	-1.000000	-1.000000	-1.000000	-1.000000	-1.000000	54.000000	0.000000	-1.000000	-1.000000	394527.000000	1775779061.928276
770.355000	1846.485000	8344.485000	31363.155000	21654.495000	18745.605000	-32466.915000	-13880.430000	-1.079357	0.353984	0.305587	-1.353886	-5.604976	-12.249884	-2.952850	-2.417176	0.427280	2.395820	0.900340	-0.876096	-0.008606	0.470092	-1.000000	-1.000000	-1.000000	-1.000000	-1.000000	-1.000000	-1.000000	54.000000	0.000000	-1.000000	-1.000000	394528.000000	1775779061.930773
775.035000	1850.895000	8347.320000	31366.305000	21659.445000	18744.660000	-32465.655000	-13876.290000	-2.092153	-0.178698	1.048929	0.052423	-2.332248	-8.146395	-1.097531	-3.045595	0.427280	2.395820	0.900340	-0.876096	-0.008606	0.470092	-1.000000	-1.000000	-1.000000	-1.000000	-1.000000	-1.000000	-1.000000	54.000000	0.000000	-1.000000	-1.000000	394529.000000	1775779061.930791
772.965000	1847.205000	8341.875000	31362.795000	21661.155000	18748.980000	-32465.520000	-13877.685000	-1.640999	-0.325683	1.382322	1.298243	1.451070	-2.235629	0.967134	-1.716410	0.427280	2.395820	0.900340	-0.876096	-0.008606	0.470092	-1.000000	-1.000000	-1.000000	-1.000000	-1.000000	-1.000000	-1.000000	54.000000	0.000000	-1.000000	-1.000000	394530.000000	1775779061.948900
767.970000	1839.150000	8332.740000	31355.730000	21656.970000	18749.205000	-32466.060000	-13880.835000	-0.724858	-0.719072	0.380195	1.182016	4.056354	3.628892	2.409011	0.290988	0.427280	2.395820	0.900340	-0.876096	-0.008606	0.470092	-1.000000	-1.000000	-1.000000	-1.000000	-1.000000	-1.000000	-1.000000	54.000000	0.000000	-1.000000	-1.000000	394531.000000	1775779061.948926
765.135000	1833.210000	8322.795000	31343.715000	21643.605000	18741.240000	-32465.655000	-13881.015000	-0.553618	-1.963677	-2.128414	-0.767941	4.049343	7.509084	2.740577	1.403003	0.427280	2.395820	0.900340	-0.876096	-0.008606	0.470092	-1.000000	-1.000000	-1.000000	-1.000000	-1.000000	-1.000000	-1.000000	54.000000	0.000000	-1.000000	-1.000000	394532.000000	1775779061.948956
766.485000	1835.010000	8323.830000	31343.220000	21641.355000	18738.090000	-32467.410000	-13880.340000	-1.206625	-3.491268	-4.848465	-3.618907	1.241294	7.920379	2.002210	1.179046	0.427280	2.395820	0.900340	-0.876096	-0.008606	0.470092	-1.000000	-1.000000	-1.000000	-1.000000	-1.000000	-1.000000	-1.000000	54.000000	0.000000	-1.000000	-1.000000	394533.000000	1775779061.948968
769.545000	1839.645000	8330.805000	31351.230000	21648.240000	18736.965000	-32468.445000	-13879.350000	-1.591254	-3.653090	-5.441667	-5.069595	-2.321174	5.122689	0.634827	0.354106	-1.358140	2.960440	-0.106820	-0.875486	-0.006470	0.468993	-1.000000	-1.000000	-1.000000	-1.000000	-1.000000	-1.000000	-1.000000	54.000000	0.000000	-1.000000	-1.000000	394534.000000	1775779061.948983
772.785000	1841.985000	8333.505000	31353.975000	21651.750000	18732.555000	-32466.375000	-13876.110000	-0.744949	-1.437361	-2.508883	-3.155345	-3.585354	1.141003	-0.716649	-0.162691	-1.358140	2.960440	-0.106820	-0.875486	-0.006470	0.468993	-1.000000	-1.000000	-1.000000	-1.000000	-1.000000	-1.000000	-1.000000	54.000000	0.000000	-1.000000	-1.000000	394535.000000	1775779061.948993
772.965000	1843.830000	8336.655000	31357.215000	21655.305000	18730.890000	-32470.515000	-13877.595000	1.096542	2.222178	2.686888	1.520892	-1.466478	-1.941407	-1.483762	-0.051692	-1.358140	2.960440	-0.106820	-0.875486	-0.006470	0.468993	-1.000000	-1.000000	-1.000000	-1.000000	-1.000000	-1.000000	-1.000000	54.000000	0.000000	-1.000000	-1.000000	394536.000000	1775779061.949007
770.985000	1844.235000	8337.645000	31357.710000	21654.405000	18733.230000	-32477.445000	-13881.015000	2.664225	5.162998	7.081261	6.064758	2.209866	-3.068599	-1.708700	0.230299	-1.358140	2.960440	-0.106820	-0.875486	-0.006470	0.468993	-1.000000	-1.000000	-1.000000	-1.000000	-1.000000	-1.000000	-1.000000	54.000000	0.000000	-1.000000	-1.000000	394537.000000	1775779061.949017
771.030000	1844.910000	8338.050000	31356.900000	21650.985000	18730.575000	-32481.675000	-13883.355000	2.802071	5.748209	8.236217	7.738751	4.576821	-2.243478	-1.885823	-0.002103	-1.358140	2.960440	-0.106820	-0.875486	-0.006470	0.468993	-1.000000	-1.000000	-1.000000	-1.000000	-1.000000	-1.000000	-1.000000	54.000000	0.000000	-1.000000	-1.000000	394538.000000	1775779061.951370
771.480000	1847.070000	8340.705000	31358.835000	21652.020000	18736.200000	-32477.670000	-13884.030000	1.489793	3.904576	5.837770	5.817996	4.055359	-0.321559	-1.939616	-0.787122	-1.358140	2.960440	-0.106820	-0.875486	-0.006470	0.468993	-1.000000	-1.000000	-1.000000	-1.000000	-1.000000	-1.000000	-1.000000	54.000000	0.000000	-1.000000	-1.000000	394539.000000	1775779061.951392
769.185000	1845.270000	8340.345000	31358.745000	21653.505000	18745.695000	-32467.590000	-13884.930000	-0.341243	0.824627	1.476379	1.703575	1.360684	1.772410	-0.938190	-1.450951	-1.358140	2.960440	-0.106820	-0.875486	-0.006470	0.468993	-1.000000	-1.000000	-1.000000	-1.000000	-1.000000	-1.000000	-1.000000	54.000000	0.000000	-1.000000	-1.000000	394540.000000	1775779061.954184
768.510000	1842.705000	8338.050000	31356.900000	21653.280000	18745.965000	-32456.655000	-13882.230000	-1.760953	-2.132105	-2.766884	-2.425510	-1.511445	3.423607	1.757179	-1.314638	-1.358140	2.960440	-0.106820	-0.875486	-0.006470	0.468993	-1.000000	-1.000000	-1.000000	-1.000000	-1.000000	-1.000000	-1.000000	54.000000	0.000000	-1.000000	-1.000000	394541.000000	1775779061.954199
766.845000	1840.005000	8333.235000	31351.725000	21648.870000	18745.605000	-32457.825000	-13884.030000	-2.319211	-4.123543	-5.576792	-5.112415	-3.166778	3.774506	5.095175	-0.288395	-1.358140	2.960440	-0.106820	-0.875486	-0.006470	0.468993	-1.000000	-1.000000	-1.000000	-1.000000	-1.000000	-1.000000	-1.000000	54.000000	0.000000	-1.000000	-1.000000	394542.000000	1775779061.958544
768.645000	1840.095000	8331.300000	31348.620000	21648.015000	18751.950000	-32459.040000	-13883.085000	-1.948089	-4.725403	-6.543841	-5.993994	-3.479877	2.244710	6.555265	1.026313	-1.358140	2.960440	-0.106820	-0.875486	-0.006470	0.468993	-1.000000	-1.000000	-1.000000	-1.000000	-1.000000	-1.000000	-1.000000	54.000000	0.000000	-1.000000	-1.000000	394543.000000	1775779061.958565
767.745000	1839.420000	8331.705000	31349.475000	21649.320000	18752.400000	-32462.280000	-13884.615000	-0.850176	-3.808280	-5.661984	-5.200039	-2.806081	-0.431045	4.396754	1.830680	-3.235120	2.823100	-0.671440	-0.874448	-0.006287	0.469298	-1.000000	-1.000000	-1.000000	-1.000000	-1.000000	-1.000000	-1.000000	54.000000	0.000000	-1.000000	-1.000000	394544.000000	1775779061.966976
767.070000	1839.375000	8330.625000	31347.990000	21645.315000	18747.585000	-32466.195000	-13886.190000	0.470381	-1.723224	-3.195934	-2.976966	-1.455641	-2.990203	-0.590136	1.712061	-3.235120	2.823100	-0.671440	-0.874448	-0.006287	0.469298	-1.000000	-1.000000	-1.000000	-1.000000	-1.000000	-1.000000	-1.000000	54.000000	0.000000	-1.000000	-1.000000	394545.000000	1775779061.967000
770.310000	1841.805000	8331.840000	31349.430000	21644.145000	18746.730000	-32464.125000	-13882.635000	1.452431	0.742501	0.068654	0.044199	0.041463	-4.777195	-5.688342	0.880214	-3.235120	2.823100	-0.671440	-0.874448	-0.006287	0.469298	-1.000000	-1.000000	-1.000000	-1.000000	-1.000000	-1.000000	-1.000000	54.000000	0.000000	-1.000000	-1.000000	394546.000000	1775779061.976151
769.005000	1839.105000	8328.915000	31345.830000	21640.455000	18736.380000	-32466.285000	-13883.580000	1.861675	2.709326	2.947246	2.782469	1.066201	-5.592563	-8.171978	0.006532	-3.235120	2.823100	-0.671440	-0.874448	-0.006287	0.469298	-1.000000	-1.000000	-1.000000	-1.000000	-1.000000	-1.000000	-1.000000	54.000000	0.000000	-1.000000	-1.000000	394547.000000	1775779061.976173
769.995000	1841.850000	8333.190000	31350.015000	21643.155000	18730.800000	-32470.470000	-13884.345000	1.684084	3.514978	4.482384	4.272858	1.451485	-5.436715	-7.129581	-0.463343	-3.235120	2.823100	-0.671440	-0.874448	-0.006287	0.469298	-1.000000	-1.000000	-1.000000	-1.000000	-1.000000	-1.000000	-1.000000	54.000000	0.000000	-1.000000	-1.000000	394548.000000	1775779061.976196
770.355000	1843.785000	8336.295000	31353.210000	21649.095000	18740.610000	-32466.915000	-13884.120000	1.006933	3.106723	4.559253	4.361397	1.655546	-4.066125	-3.669111	-0.628149	-3.235120	2.823100	-0.671440	-0.874448	-0.006287	0.469298	-1.000000	-1.000000	-1.000000	-1.000000	-1.000000	-1.000000	-1.000000	54.000000	0.000000	-1.000000	-1.000000	394549.000000	1775779061.976207
768.285000	1841.130000	8334.225000	31350.465000	21647.205000	18738.270000	-32469.390000	-13887.945000	0.072340	1.949714	3.628697	3.480788	2.122158	-0.952228	0.455985	-0.739682	-3.235120	2.823100	-0.671440	-0.874448	-0.006287	0.469298	-1.000000	-1.000000	-1.000000	-1.000000	-1.000000	-1.000000	-1.000000	54.000000	0.000000	-1.000000	-1.000000	394550.000000	1775779061.976222
770.310000	1845.540000	8338.860000	31353.480000	21649.050000	18737.010000	-32468.040000	-13885.380000	-0.816790	0.521874	2.053232	1.936669	2.477801	3.210133	3.754253	-0.878903	-3.235120	2.823100	-0.671440	-0.874448	-0.006287	0.469298	-1.000000	-1.000000	-1.000000	-1.000000	-1.000000	-1.000000	-1.000000	54.000000	0.000000	-1.000000	-1.000000	394551.000000	1775779061.976233
768.060000	1843.515000	8337.105000	31354.695000	21651.885000	18735.480000	-32471.190000	-13886.370000	-1.357981	-0.729104	0.211347	0.095108	2.071238	6.283871	5.246870	-0.845450	-3.235120	2.823100	-0.671440	-0.874448	-0.006287	0.469298	-1.000000	-1.000000	-1.000000	-1.000000	-1.000000	-1.000000	-1.000000	54.000000	0.000000	-1.000000	-1.000000	394552.000000	1775779061.983053
772.830000	1845.720000	8336.790000	31353.120000	21650.355000	18734.265000	-32467.725000	-13880.295000	-1.332705	-1.473053	-1.462492	-1.473819	0.876661	6.709453	4.799194	-0.342086	-3.235120	2.823100	-0.671440	-0.874448	-0.006287	0.469298	-1.000000	-1.000000	-1.000000	-1.000000	-1.000000	-1.000000	-1.000000	54.000000	0.000000	-1.000000	-1.000000	394553.000000	1775779061.983080
775.755000	1849.500000	8339.490000	31354.605000	21649.545000	18720.360000	-32474.205000	-13880.430000	-0.649931	-1.592318	-2.624663	-2.436268	-0.718378	4.431868	3.032665	0.637728	-3.204600	2.624720	-0.122080	-0.873289	-0.007446	0.469725	-1.000000	-1.000000	-1.000000	-1.000000	-1.000000	-1.000000	-1.000000	54.000000	0.000000	-1.000000	-1.000000	394554.000000	1775779061.983107
773.055000	1848.645000	8340.165000	31356.180000	21648.195000	18715.860000	-32475.915000	-13885.515000	0.413518	-1.121340	-2.920900	-2.664721	-2.253875	0.383626	0.703664	1.471882	-3.204600	2.624720	-0.122080	-0.873289	-0.007446	0.469725	-1.000000	-1.000000	-1.000000	-1.000000	-1.000000	-1.000000	-1.000000	54.000000	0.000000	-1.000000	-1.000000	394555.000000	1775779061.983119
766.170000	1841.085000	8333.955000	31349.385000	21640.500000	18735.570000	-32461.740000	-13888.530000	0.946876	-0.587969	-2.394910	-2.256194	-3.327836	-3.207674	-1.200580	1.221996	-3.204600	2.624720	-0.122080	-0.873289	-0.007446	0.469725	-1.000000	-1.000000	-1.000000	-1.000000	-1.000000	-1.000000	-1.000000	54.000000	0.000000	-1.000000	-1.000000	394556.000000	1775779061.987327
760.635000	1835.370000	8328.870000	31345.245000	21638.880000	18749.475000	-32466.060000	-13894.290000	0.133382	-0.830464	-1.765669	-1.770142	-3.763576	-3.292455	-1.521662	-0.300657	-3.204600	2.624720	-0.122080	-0.873289	-0.007446	0.469725	-1.000000	-1.000000	-1.000000	-1.000000	-1.000000	-1.000000	-1.000000	54.000000	0.000000	-1.000000	-1.000000	394557.000000	1775779061.987348
766.620000	1841.580000	8334.180000	31349.475000	21643.290000	18761.580000	-32465.835000	-13889.790000	-1.494332	-1.731193	-1.433380	-1.496519	-3.249778	0.847524	-0.478145	-2.069246	-3.204600	2.624720	-0.122080	-0.873289	-0.007446	0.469725	-1.000000	-1.000000	-1.000000	-1.000000	-1.000000	-1.000000	-1.000000	54.000000	0.000000	-1.000000	-1.000000	394558.000000	1775779061.990634
769.410000	1844.550000	8337.825000	31351.770000	21643.515000	18765.585000	-32469.120000	-13888.980000	-2.178851	-1.872121	-0.727111	-0.821468	-1.366456	6.010999	0.314039	-2.578067	-3.204600	2.624720	-0.122080	-0.873289	-0.007446	0.469725	-1.000000	-1.000000	-1.000000	-1.000000	-1.000000	-1.000000	-1.000000	54.000000	0.000000	-1.000000	-1.000000	394559.000000	1775779061.990652
767.700000	1844.145000	8338.860000	31353.570000	21645.585000	18758.655000	-32472.765000	-13891.905000	-0.929814	-0.337995	0.938440	0.748841	1.469778	7.696881	-0.179565	-1.295927	-3.204600	2.624720	-0.122080	-0.873289	-0.007446	0.469725	-1.000000	-1.000000	-1.000000	-1.000000	-1.000000	-1.000000	-1.000000	54.000000	0.000000	-1.000000	-1.000000	394560.000000	1775779061.994823
764.370000	1841.760000	8338.635000	31354.155000	21646.935000	18750.195000	-32475.555000	-13896.720000	1.199918	1.906442	2.842758	2.596522	3.936753	3.661108	-1.624899	0.654805	-3.204600	2.624720	-0.122080	-0.873289	-0.007446	0.469725	-1.000000	-1.000000	-1.000000	-1.000000	-1.000000	-1.000000	-1.000000	54.000000	0.000000	-1.000000	-1.000000	394561.000000	1775779061.994846
762.480000	1840.995000	8339.130000	31353.705000	21646.080000	18739.935000	-32478.525000	-13900.140000	2.402461	3.135889	3.669325	3.555434	4.833595	-4.450286	-2.922695	1.707627	-3.204600	2.624720	-0.122080	-0.873289	-0.007446	0.469725	-1.000000	-1.000000	-1.000000	-1.000000	-1.000000	-1.000000	-1.000000	54.000000	0.000000	-1.000000	-1.000000	394562.000000	1775779061.997698
763.335000	1843.470000	8341.605000	31356.180000	21649.860000	18734.580000	-32476.905000	-13899.465000	2.011356	2.687630	2.906018	3.023454	3.859662	-12.191195	-3.042142	1.429533	-3.204600	2.624720	-0.122080	-0.873289	-0.007446	0.469725	-1.000000	-1.000000	-1.000000	-1.000000	-1.000000	-1.000000	-1.000000	54.000000	0.000000	-1.000000	-1.000000	394563.000000	1775779061.997717
764.685000	1846.845000	8345.430000	31360.860000	21651.705000	18724.455000	-32478.300000	-13900.230000	0.795236	1.329667	1.210462	1.476188	1.748664	-15.329081	-1.650978	0.630007	-1.846460	1.861720	0.015260	-0.874387	-0.008728	0.470519	-1.000000	-1.000000	-1.000000	-1.000000	-1.000000	-1.000000	-1.000000	54.000000	0.000000	-1.000000	-1.000000	394564.000000	1775779062.000777
764.415000	1843.470000	8341.245000	31355.730000	21648.330000	18726.120000	-32478.210000	-13898.565000	-0.154718	0.103090	-0.459783	-0.175712	-0.463993	-12.317481	0.641737	0.255695	-1.846460	1.861720	0.015260	-0.874387	-0.008728	0.470519	-1.000000	-1.000000	-1.000000	-1.000000	-1.000000	-1.000000	-1.000000	54.000000	0.000000	-1.000000	-1.000000	394565.000000	1775779062.000795
763.560000	1838.970000	8335.350000	31349.385000	21644.505000	18738.945000	-32473.665000	-13894.920000	-0.448970	-0.809949	-1.849260	-1.674498	-2.311495	-4.298731	2.771709	0.613537	-1.846460	1.861720	0.015260	-0.874387	-0.008728	0.470519	-1.000000	-1.000000	-1.000000	-1.000000	-1.000000	-1.000000	-1.000000	54.000000	0.000000	-1.000000	-1.000000	394566.000000	1775779062.005524
762.165000	1833.525000	8325.855000	31338.180000	21635.505000	18742.455000	-32476.050000	-13896.495000	-0.398828	-1.795221	-3.236990	-3.309331	-3.794136	5.907693	3.948838	1.346459	-1.846460	1.861720	0.015260	-0.874387	-0.008728	0.470519	-1.000000	-1.000000	-1.000000	-1.000000	-1.000000	-1.000000	-1.000000	54.000000	0.000000	-1.000000	-1.000000	394567.000000	1775779062.005549
763.785000	1834.785000	8325.405000	31337.955000	21638.295000	18747.810000	-32473.620000	-13895.280000	-0.361984	-2.740090	-4.423553	-4.802777	-4.665163	14.286692	3.781863	1.697483	-1.846460	1.861720	0.015260	-0.874387	-0.008728	0.470519	-1.000000	-1.000000	-1.000000	-1.000000	-1.000000	-1.000000	-1.000000	54.000000	0.000000	-1.000000	-1.000000	394568.000000	1775779062.014402
758.205000	1831.455000	8326.845000	31342.455000	21642.480000	18742.140000	-32475.780000	-13901.400000	-0.438708	-2.886884	-4.355478	-4.842980	-4.067011	17.075423	2.338692	1.053801	-1.846460	1.861720	0.015260	-0.874387	-0.008728	0.470519	-1.000000	-1.000000	-1.000000	-1.000000	-1.000000	-1.000000	-1.000000	54.000000	0.000000	-1.000000	-1.000000	394569.000000	1775779062.014428
760.455000	1836.180000	8332.830000	31348.620000	21647.340000	18744.705000	-32474.745000	-13901.085000	-0.623123	-1.712487	-2.090347	-2.230899	-1.386917	13.075157	0.222680	-0.546797	-1.846460	1.861720	0.015260	-0.874387	-0.008728	0.470519	-1.000000	-1.000000	-1.000000	-1.000000	-1.000000	-1.000000	-1.000000	54.000000	0.000000	-1.000000	-1.000000	394570.000000	1775779062.014451
760.770000	1835.775000	8331.795000	31346.595000	21644.010000	18743.490000	-32476.680000	-13902.030000	-0.698468	0.505408	1.861166	2.338279	2.411429	4.582621	-1.739166	-2.276962	-1.846460	1.861720	0.015260	-0.874387	-0.008728	0.470519	-1.000000	-1.000000	-1.000000	-1.000000	-1.000000	-1.000000	-1.000000	54.000000	0.000000	-1.000000	-1.000000	394571.000000	1775779062.014462
757.395000	1830.330000	8325.090000	31339.350000	21635.910000	18738.450000	-32476.905000	-13903.515000	-0.414357	2.662905	5.329551	6.131623	4.960707	-4.258779	-2.903972	-3.074109	-1.846460	1.861720	0.015260	-0.874387	-0.008728	0.470519	-1.000000	-1.000000	-1.000000	-1.000000	-1.000000	-1.000000	-1.000000	54.000000	0.000000	-1.000000	-1.000000	394572.000000	1775779062.016315
762.075000	1832.175000	8324.730000	31338.000000	21634.785000	18735.525000	-32474.790000	-13898.835000	0.117538	3.454833	6.086892	6.602919	4.494073	-10.153400	-2.978244	-2.453491	-1.846460	1.861720	0.015260	-0.874387	-0.008728	0.470519	-1.000000	-1.000000	-1.000000	-1.000000	-1.000000	-1.000000	-1.000000	54.000000	0.000000	-1.000000	-1.000000	394573.000000	1775779062.016336
763.200000	1834.470000	8327.610000	31340.745000	21635.685000	18729.540000	-32481.630000	-13900.545000	0.739733	2.674119	3.981529	3.812749	1.656504	-11.821397	-2.133294	-0.699996	-1.083460	0.946120	-0.473060	-0.877256	-0.008240	0.469908	-1.000000	-1.000000	-1.000000	-1.000000	-1.000000	-1.000000	-1.000000	54.000000	0.000000	-1.000000	-1.000000	394574.000000	1775779062.020775
767.835000	1842.120000	8336.160000	31348.260000	21637.980000	18719.280000	-32488.830000	-13899.285000	1.398559	1.411100	1.042923	0.258059	-1.166293	-9.844422	-1.175329	1.265507	-1.083460	0.946120	-0.473060	-0.877256	-0.008240	0.469908	-1.000000	-1.000000	-1.000000	-1.000000	-1.000000	-1.000000	-1.000000	54.000000	0.000000	-1.000000	-1.000000	394575.000000	1775779062.020793
775.260000	1851.525000	8345.745000	31355.370000	21640.590000	18708.300000	-32491.305000	-13894.560000	1.967548	0.874700	-0.503328	-1.537970	-2.123864	-6.023399	-0.855424	2.498156	-1.083460	0.946120	-0.473060	-0.877256	-0.008240	0.469908	-1.000000	-1.000000	-1.000000	-1.000000	-1.000000	-1.000000	-1.000000	54.000000	0.000000	-1.000000	-1.000000	394576.000000	1775779062.031258
775.035000	1852.560000	8348.670000	31356.360000	21638.745000	18681.975000	-32495.220000	-13895.820000	2.214581	1.244130	-0.114615	-1.070829	-1.188429	-2.449082	-0.927467	2.695472	-1.083460	0.946120	-0.473060	-0.877256	-0.008240	0.469908	-1.000000	-1.000000	-1.000000	-1.000000	-1.000000	-1.000000	-1.000000	54.000000	0.000000	-1.000000	-1.000000	394577.000000	1775779062.031287
779.040000	1856.700000	8354.160000	31362.885000	21648.555000	18680.220000	-32491.395000	-13893.390000	1.730407	1.493335	0.893010	0.237236	0.470998	-0.314654	-0.502777	1.975405	-1.083460	0.946120	-0.473060	-0.877256	-0.008240	0.469908	-1.000000	-1.000000	-1.000000	-1.000000	-1.000000	-1.000000	-1.000000	54.000000	0.000000	-1.000000	-1.000000	394578.000000	1775779062.031316
771.120000	1848.195000	8345.655000	31356.810000	21652.650000	18707.895000	-32479.245000	-13897.620000	0.191121	0.417625	0.726618	0.678419	1.908029	1.776338	1.156679	0.567651	-1.083460	0.946120	-0.473060	-0.877256	-0.008240	0.469908	-1.000000	-1.000000	-1.000000	-1.000000	-1.000000	-1.000000	-1.000000	54.000000	0.000000	-1.000000	-1.000000	394579.000000	1775779062.031328
760.230000	1833.930000	8328.600000	31338.630000	21639.465000	18749.610000	-32465.565000	-13902.390000	-2.402595	-2.461074	-1.718668	-0.855854	2.357419	7.114712	4.151304	-1.230511	-1.083460	0.946120	-0.473060	-0.877256	-0.008240	0.469908	-1.000000	-1.000000	-1.000000	-1.000000	-1.000000	-1.000000	-1.000000	54.000000	0.000000	-1.000000	-1.000000	394580.000000	1775779062.032895
755.550000	1826.505000	8320.365000	31330.755000	21633.030000	18770.355000	-32460.390000	-13904.370000	-5.420679	-6.420125	-6.055796	-4.416658	0.773177	16.073615	7.298461	-2.967233	-1.083460	0.946120	-0.473060	-0.877256	-0.008240	0.469908	-1.000000	-1.000000	-1.000000	-1.000000	-1.000000	-1.000000	-1.000000	54.000000	0.000000	-1.000000	-1.000000	394581.000000	1775779062.032911
760.320000	1832.310000	8326.980000	31338.360000	21638.520000	18764.010000	-32458.635000	-13902.750000	-7.107117	-9.084584	-9.601905	-7.822592	-2.490143	22.863068	8.277946	-3.817252	-1.083460	0.946120	-0.473060	-0.877256	-0.008240	0.469908	-1.000000	-1.000000	-1.000000	-1.000000	-1.000000	-1.000000	-1.000000	54.000000	0.000000	-1.000000	-1.000000	394582.000000	1775779062.044737
761.265000	1833.705000	8328.915000	31340.655000	21638.475000	18755.235000	-32461.605000	-13904.235000	-5.583696	-7.730689	-8.870177	-7.623488	-4.908826	19.720720	5.379224	-3.054344	-1.083460	0.946120	-0.473060	-0.877256	-0.008240	0.469908	-1.000000	-1.000000	-1.000000	-1.000000	-1.000000	-1.000000	-1.000000	54.000000	0.000000	-1.000000	-1.000000	394583.000000	1775779062.044762
760.770000	1834.785000	8331.705000	31343.940000	21643.065000	18752.220000	-32466.555000	-13905.540000	-1.004018	-2.128200	-3.105712	-2.731816	-4.372604	5.049936	-0.849053	-0.939816	-0.595140	1.602300	0.122080	-0.877378	-0.008423	0.469237	-1.000000	-1.000000	-1.000000	-1.000000	-1.000000	-1.000000	-1.000000	54.000000	0.000000	-1.000000	-1.000000	394584.000000	1775779062.044787
760.950000	1835.370000	8331.030000	31342.275000	21640.500000	18746.010000	-32469.975000	-13905.945000	4.185258	4.812217	4.642287	4.150374	-1.286879	-14.101331	-7.747226	1.384816	-0.595140	1.602300	0.122080	-0.877378	-0.008423	0.469237	-1.000000	-1.000000	-1.000000	-1.000000	-1.000000	-1.000000	-1.000000	54.000000	0.000000	-1.000000	-1.000000	394585.000000	1775779062.044798
763.515000	1837.170000	8331.120000	31342.500000	21640.680000	18742.500000	-32469.255000	-13902.795000	7.361752	9.499430	10.129327	8.992104	2.151476	-27.785391	-12.045795	2.936332	-0.595140	1.602300	0.122080	-0.877378	-0.008423	0.469237	-1.000000	-1.000000	-1.000000	-1.000000	-1.000000	-1.000000	-1.000000	54.000000	0.000000	-1.000000	-1.000000	394586.000000	1775779062.052794
760.635000	1835.415000	8330.985000	31342.725000	21640.545000	18736.110000	-32474.880000	-13907.295000	7.443732	10.071333	10.940942	9.517758	3.942813	-30.095094	-11.773772	3.367012	-0.595140	1.602300	0.122080	-0.877378	-0.008423	0.469237	-1.000000	-1.000000	-1.000000	-1.000000	-1.000000	-1.000000	-1.000000	54.000000	0.000000	-1.000000	-1.000000	394587.000000	1775779062.052821
759.690000	1835.280000	8330.625000	31340.430000	21638.205000	18733.095000	-32474.250000	-13908.465000	4.866306	6.894201	7.502092	6.199919	3.549934	-21.578146	-7.411755	2.626754	-0.595140	1.602300	0.122080	-0.877378	-0.008423	0.469237	-1.000000	-1.000000	-1.000000	-1.000000	-1.000000	-1.000000	-1.000000	54.000000	0.000000	-1.000000	-1.000000	394588.000000	1775779062.052851
762.030000	1836.135000	8331.120000	31341.285000	21637.260000	18732.285000	-32476.140000	-13907.430000	1.054112	1.883646	2.112645	1.204842	1.674523	-7.268579	-1.191890	1.033246	-0.595140	1.602300	0.122080	-0.877378	-0.008423	0.469237	-1.000000	-1.000000	-1.000000	-1.000000	-1.000000	-1.000000	-1.000000	54.000000	0.000000	-1.000000	-1.000000	394589.000000	1775779062.052863
767.385000	1841.085000	8336.745000	31346.055000	21640.365000	18733.275000	-32475.465000	-13903.020000	-2.096913	-2.543726	-2.584904	-3.002948	-0.427406	6.832186	4.442465	-0.474122	-0.595140	1.602300	0.122080	-0.877378	-0.008423	0.469237	-1.000000	-1.000000	-1.000000	-1.000000	-1.000000	-1.000000	-1.000000	54.000000	0.000000	-1.000000	-1.000000	394590.000000	1775779062.053040
772.380000	1846.935000	8343.135000	31352.625000	21646.170000	18736.920000	-32472.495000	-13899.240000	-3.209283	-4.604246	-4.742220	-4.670364	-1.483157	16.356100	7.872128	-0.948291	-0.595140	1.602300	0.122080	-0.877378	-0.008423	0.469237	-1.000000	-1.000000	-1.000000	-1.000000	-1.000000	-1.000000	-1.000000	54.000000	0.000000	-1.000000	-1.000000	394591.000000	1775779062.053058
770.220000	1846.215000	8343.135000	31353.930000	21649.410000	18738.585000	-32475.645000	-13902.165000	-2.402599	-4.072281	-4.138303	-3.617504	-0.947579	19.533957	8.579837	-0.406054	-0.595140	1.602300	0.122080	-0.877378	-0.008423	0.469237	-1.000000	-1.000000	-1.000000	-1.000000	-1.000000	-1.000000	-1.000000	54.000000	0.000000	-1.000000	-1.000000	394592.000000	1775779062.057806
764.685000	1840.455000	8337.735000	31348.575000	21646.170000	18743.580000	-32478.075000	-13907.430000	-1.211981	-2.415327	-2.331971	-1.432485	0.415017	16.940440	6.773925	0.056398	-0.595140	1.602300	0.122080	-0.877378	-0.008423	0.469237	-1.000000	-1.000000	-1.000000	-1.000000	-1.000000	-1.000000	-1.000000	54.000000	0.000000	-1.000000	-1.000000	394593.000000	1775779062.057828
756.855000	1831.995000	8331.165000	31342.950000	21642.345000	18747.135000	-32475.420000	-13913.145000	-1.215643	-1.594309	-1.391956	-0.279424	1.038904	10.696055	3.318345	-0.613681	-1.068200	2.426340	0.610400	-0.877317	-0.008179	0.468749	-1.000000	-1.000000	-1.000000	-1.000000	-1.000000	-1.000000	-1.000000	54.000000	0.000000	-1.000000	-1.000000	394594.000000	1775779062.062653
759.510000	1832.445000	8330.940000	31341.060000	21638.970000	18749.745000	-32470.920000	-13909.365000	-2.455688	-2.232433	-1.999662	-0.993110	0.041082	3.399784	-0.150325	-2.113389	-1.068200	2.426340	0.610400	-0.877317	-0.008179	0.468749	-1.000000	-1.000000	-1.000000	-1.000000	-1.000000	-1.000000	-1.000000	54.000000	0.000000	-1.000000	-1.000000	394595.000000	1775779062.062679
763.785000	1834.695000	8330.580000	31339.035000	21635.055000	18744.165000	-32473.215000	-13906.170000	-3.261747	-3.006927	-2.944826	-2.466230	-1.957455	-3.005453	-2.199875	-2.866881	-1.068200	2.426340	0.610400	-0.877317	-0.008179	0.468749	-1.000000	-1.000000	-1.000000	-1.000000	-1.000000	-1.000000	-1.000000	54.000000	0.000000	-1.000000	-1.000000	394596.000000	1775779062.068277
764.685000	1836.720000	8332.425000	31340.520000	21633.795000	18733.635000	-32477.805000	-13906.575000	-2.061802	-2.188490	-2.596996	-2.950688	-3.503149	-7.774082	-2.811950	-1.756835	-1.068200	2.426340	0.610400	-0.877317	-0.008179	0.468749	-1.000000	-1.000000	-1.000000	-1.000000	-1.000000	-1.000000	-1.000000	54.000000	0.000000	-1.000000	-1.000000	394597.000000	1775779062.068300
766.350000	1839.375000	8336.385000	31345.920000	21638.520000	18730.800000	-32473.755000	-13904.145000	0.806237	0.444417	-0.481072	-1.524513	-3.357129	-10.697926	-2.813338	0.606419	-1.068200	2.426340	0.610400	-0.877317	-0.008179	0.468749	-1.000000	-1.000000	-1.000000	-1.000000	-1.000000	-1.000000	-1.000000	54.000000	0.000000	-1.000000	-1.000000	394598.000000	1775779062.075548
757.935000	1830.195000	8328.780000	31339.305000	21636.630000	18729.585000	-32474.520000	-13911.615000	3.389968	3.321167	2.348966	1.250748	-1.255623	-11.099082	-2.482396	2.547983	-1.068200	2.426340	0.610400	-0.877317	-0.008179	0.468749	-1.000000	-1.000000	-1.000000	-1.000000	-1.000000	-1.000000	-1.000000	54.000000	0.000000	-1.000000	-1.000000	394599.000000	1775779062.075574
756.540000	1829.565000	8328.960000	31338.630000	21637.080000	18730.890000	-32473.665000	-13913.640000	3.855279	4.404801	4.056334	3.569262	1.702466	-8.276291	-1.662604	2.705290	-1.068200	2.426340	0.610400	-0.877317	-0.008179	0.468749	-1.000000	-1.000000	-1.000000	-1.000000	-1.000000	-1.000000	-1.000000	54.000000	0.000000	-1.000000	-1.000000	394600.000000	1775779062.075759
760.320000	1835.460000	8335.440000	31343.985000	21641.760000	18734.445000	-32473.215000	-13911.795000	2.182195	3.245692	3.819245	4.088125	3.913964	-2.768412	-0.524121	1.152671	-1.068200	2.426340	0.610400	-0.877317	-0.008179	0.468749	-1.000000	-1.000000	-1.000000	-1.000000	-1.000000	-1.000000	-1.000000	54.000000	0.000000	-1.000000	-1.000000	394601.000000	1775779062.075851
764.145000	1839.060000	8338.905000	31347.135000	21645.405000	18740.745000	-32471.640000	-13908.780000	0.170697	1.415494	2.604954	3.215584	4.628959	3.552135	0.533600	-0.582494	-1.068200	2.426340	0.610400	-0.877317	-0.008179	0.468749	-1.000000	-1.000000	-1.000000	-1.000000	-1.000000	-1.000000	-1.000000	54.000000	0.000000	-1.000000	-1.000000	394602.000000	1775779062.088034
763.200000	1835.325000	8332.245000	31339.980000	21642.480000	18742.545000	-32472.045000	-13908.015000	-0.609863	0.346694	1.434124	1.869969	3.898604	8.395383	1.194569	-1.085043	-1.068200	2.426340	0.610400	-0.877317	-0.008179	0.468749	-1.000000	-1.000000	-1.000000	-1.000000	-1.000000	-1.000000	-1.000000	54.000000	0.000000	-1.000000	-1.000000	394603.000000	1775779062.088063
764.280000	1837.395000	8336.205000	31344.300000	21645.720000	18745.335000	-32471.055000	-13907.205000	-0.249281	-0.094787	0.212661	0.260406	1.971549	10.003910	1.299000	-0.328316	-1.312360	2.578940	0.793520	-0.876890	-0.009277	0.467955	-1.000000	-1.000000	-1.000000	-1.000000	-1.000000	-1.000000	-1.000000	54.000000	0.000000	-1.000000	-1.000000	394604.000000	1775779062.088090
762.660000	1835.550000	8335.485000	31342.635000	21641.805000	18740.520000	-32473.035000	-13908.915000	0.224817	-0.577832	-1.147713	-1.364777	-0.572133	7.857670	0.871914	0.671539	-1.312360	2.578940	0.793520	-0.876890	-0.009277	0.467955	-1.000000	-1.000000	-1.000000	-1.000000	-1.000000	-1.000000	-1.000000	54.000000	0.000000	-1.000000	-1.000000	394605.000000	1775779062.088101
766.395000	1838.340000	8339.175000	31346.055000	21644.010000	18741.060000	-32472.225000	-13905.810000	0.168046	-1.197128	-2.079234	-2.330623	-2.835300	2.931872	0.119425	1.010733	-1.312360	2.578940	0.793520	-0.876890	-0.009277	0.467955	-1.000000	-1.000000	-1.000000	-1.000000	-1.000000	-1.000000	-1.000000	54.000000	0.000000	-1.000000	-1.000000	394606.000000	1775779062.088115
764.820000	1836.810000	8338.995000	31345.785000	21644.010000	18734.535000	-32476.770000	-13909.275000	-0.286575	-1.605366	-2.113007	-2.248248	-3.987134	-2.685778	-0.669146	0.553149	-1.312360	2.578940	0.793520	-0.876890	-0.009277	0.467955	-1.000000	-1.000000	-1.000000	-1.000000	-1.000000	-1.000000	-1.000000	54.000000	0.000000	-1.000000	-1.000000	394607.000000	1775779062.088125
767.565000	1839.330000	8341.380000	31347.180000	21645.945000	18733.455000	-32475.240000	-13907.340000	-0.723148	-1.533501	-1.383145	-1.363535	-3.619302	-6.808167	-1.236566	-0.325126	-1.312360	2.578940	0.793520	-0.876890	-0.009277	0.467955	-1.000000	-1.000000	-1.000000	-1.000000	-1.000000	-1.000000	-1.000000	54.000000	0.000000	-1.000000	-1.000000	394608.000000	1775779062.088698
764.865000	1840.005000	8341.335000	31345.875000	21642.255000	18729.315000	-32480.505000	-13911.570000	-0.928181	-0.984090	-0.421294	-0.320760	-2.100392	-8.112493	-1.394041	-1.168687	-1.312360	2.578940	0.793520	-0.876890	-0.009277	0.467955	-1.000000	-1.000000	-1.000000	-1.000000	-1.000000	-1.000000	-1.000000	54.000000	0.000000	-1.000000	-1.000000	394609.000000	1775779062.088714
769.410000	1847.205000	8350.515000	31353.480000	21646.485000	18725.220000	-32483.520000	-13910.355000	-0.882591	-0.071548	0.406368	0.431430	-0.326392	-6.562608	-1.175840	-1.641262	-1.312360	2.578940	0.793520	-0.876890	-0.009277	0.467955	-1.000000	-1.000000	-1.000000	-1.000000	-1.000000	-1.000000	-1.000000	54.000000	0.000000	-1.000000	-1.000000	394610.000000	1775779062.097014
771.795000	1850.085000	8352.630000	31354.695000	21647.070000	18709.740000	-32488.110000	-13910.715000	-0.513974	1.054114	1.139999	0.973018	1.083622	-3.471832	-0.827912	-1.537380	-1.312360	2.578940	0.793520	-0.876890	-0.009277	0.467955	-1.000000	-1.000000	-1.000000	-1.000000	-1.000000	-1.000000	-1.000000	54.000000	0.000000	-1.000000	-1.000000	394611.000000	1775779062.097040
773.820000	1850.580000	8351.010000	31353.930000	21647.700000	18699.885000	-32494.050000	-13908.870000	0.194690	1.940337	1.600333	1.318035	1.940033	-0.767605	-0.527713	-0.789633	-1.312360	2.578940	0.793520	-0.876890	-0.009277	0.467955	-1.000000	-1.000000	-1.000000	-1.000000	-1.000000	-1.000000	-1.000000	54.000000	0.000000	-1.000000	-1.000000	394612.000000	1775779062.098791
777.105000	1852.335000	8353.890000	31357.755000	21652.875000	18698.130000	-32491.530000	-13903.155000	0.930466	1.910285	1.219240	1.125700	2.195390	0.698057	-0.180667	0.463336	-1.312360	2.578940	0.793520	-0.876890	-0.009277	0.467955	-1.000000	-1.000000	-1.000000	-1.000000	-1.000000	-1.000000	-1.000000	54.000000	0.000000	-1.000000	-1.000000	394613.000000	1775779062.098808
776.475000	1848.285000	8348.175000	31352.895000	21652.695000	18713.835000	-32476.410000	-13898.475000	1.238398	0.702768	-0.136001	0.279620	1.961416	2.099153	0.862338	1.923751	-1.052940	3.448760	0.701960	-0.876157	-0.010986	0.468810	-1.000000	-1.000000	-1.000000	-1.000000	-1.000000	-1.000000	-1.000000	54.000000	0.000000	-1.000000	-1.000000	394614.000000	1775779062.101996
767.295000	1838.385000	8338.635000	31343.805000	21648.555000	18741.060000	-32473.665000	-13906.305000	0.664399	-1.420210	-2.092548	-1.136053	1.241411	5.406678	3.163650	2.869251	-1.052940	3.448760	0.701960	-0.876157	-0.010986	0.468810	-1.000000	-1.000000	-1.000000	-1.000000	-1.000000	-1.000000	-1.000000	54.000000	0.000000	-1.000000	-1.000000	394615.000000	1775779062.102015
765.270000	1837.485000	8339.085000	31343.580000	21649.455000	18760.455000	-32473.980000	-13910.265000	-0.990028	-3.781334	-3.997443	-2.861725	-0.084651	10.802925	5.603627	2.195013	-1.052940	3.448760	0.701960	-0.876157	-0.010986	0.468810	-1.000000	-1.000000	-1.000000	-1.000000	-1.000000	-1.000000	-1.000000	54.000000	0.000000	-1.000000	-1.000000	394616.000000	1775779062.106265
758.025000	1830.960000	8333.280000	31337.730000	21643.605000	18761.355000	-32476.815000	-13918.365000	-3.037664	-5.169480	-4.740113	-3.988343	-1.692256	15.056545	5.830627	-0.370360	-1.052940	3.448760	0.701960	-0.876157	-0.010986	0.468810	-1.000000	-1.000000	-1.000000	-1.000000	-1.000000	-1.000000	-1.000000	54.000000	0.000000	-1.000000	-1.000000	394617.000000	1775779062.106285
756.585000	1828.305000	8329.680000	31333.050000	21636.270000	18757.935000	-32474.745000	-13919.490000	-4.170641	-4.589809	-3.577388	-3.627500	-3.012617	13.434104	2.870610	-3.500280	-1.052940	3.448760	0.701960	-0.876157	-0.010986	0.468810	-1.000000	-1.000000	-1.000000	-1.000000	-1.000000	-1.000000	-1.000000	54.000000	0.000000	-1.000000	-1.000000	394618.000000	1775779062.114553
757.395000	1827.135000	8326.710000	31329.720000	21632.310000	18746.640000	-32474.610000	-13917.780000	-3.424630	-2.110336	-0.963947	-1.852012	-3.682977	4.181384	-1.734535	-5.097669	-1.052940	3.448760	0.701960	-0.876157	-0.010986	0.468810	-1.000000	-1.000000	-1.000000	-1.000000	-1.000000	-1.000000	-1.000000	54.000000	0.000000	-1.000000	-1.000000	394619.000000	1775779062.114578
760.545000	1830.375000	8329.095000	31331.520000	21632.760000	18736.425000	-32473.530000	-13914.090000	-0.731496	1.405087	2.053765	0.669304	-3.281868	-9.315140	-5.427318	-3.809760	-1.052940	3.448760	0.701960	-0.876157	-0.010986	0.468810	-1.000000	-1.000000	-1.000000	-1.000000	-1.000000	-1.000000	-1.000000	54.000000	0.000000	-1.000000	-1.000000	394620.000000	1775779062.116431
763.065000	1835.370000	8336.610000	31336.920000	21636.405000	18732.195000	-32473.800000	-13913.145000	2.923724	4.875261	4.729559	3.348840	-1.368468	-20.600309	-6.612983	-0.136784	-1.052940	3.448760	0.701960	-0.876157	-0.010986	0.468810	-1.000000	-1.000000	-1.000000	-1.000000	-1.000000	-1.000000	-1.000000	54.000000	0.000000	-1.000000	-1.000000	394621.000000	1775779062.116450
766.080000	1839.510000	8341.380000	31343.445000	21643.470000	18742.320000	-32471.415000	-13910.805000	5.904025	7.255250	6.661974	5.705633	1.886489	-23.863168	-5.278978	3.850009	-1.052940	3.448760	0.701960	-0.876157	-0.010986	0.468810	-1.000000	-1.000000	-1.000000	-1.000000	-1.000000	-1.000000	-1.000000	54.000000	0.000000	-1.000000	-1.000000	394622.000000	1775779062.116485
764.865000	1837.305000	8337.510000	31341.015000	21643.155000	18758.970000	-32467.995000	-13912.290000	6.787068	7.592027	7.150792	6.940280	5.294279	-16.925433	-2.405640	5.993443	-1.052940	3.448760	0.701960	-0.876157	-0.010986	0.468810	-1.000000	-1.000000	-1.000000	-1.000000	-1.000000	-1.000000	-1.000000	54.000000	0.000000	-1.000000	-1.000000	394623.000000	1775779062.116496
764.055000	1834.785000	8332.740000	31334.310000	21636.765000	18755.955000	-32464.980000	-13911.345000	5.069722	5.322032	5.212879	5.886838	6.889160	-2.919648	0.771288	5.359139	-0.946120	3.021480	0.991900	-0.877744	-0.012146	0.470153	-1.000000	-1.000000	-1.000000	-1.000000	-1.000000	-1.000000	-1.000000	54.000000	0.000000	-1.000000	-1.000000	394624.000000	1775779062.125913
764.505000	1834.875000	8334.450000	31338.090000	21639.555000	18742.455000	-32470.515000	-13912.740000	1.490499	1.006705	0.953106	2.241456	5.335634	10.528915	3.002293	2.560621	-0.946120	3.021480	0.991900	-0.877744	-0.012146	0.470153	-1.000000	-1.000000	-1.000000	-1.000000	-1.000000	-1.000000	-1.000000	54.000000	0.000000	-1.000000	-1.000000	394625.000000	1775779062.125939
762.570000	1834.470000	8335.665000	31339.845000	21642.255000	18739.620000	-32472.945000	-13915.620000	-2.320913	-3.513248	-3.663613	-2.287847	1.521260	16.256474	3.278260	-0.912051	-0.946120	3.021480	0.991900	-0.877744	-0.012146	0.470153	-1.000000	-1.000000	-1.000000	-1.000000	-1.000000	-1.000000	-1.000000	54.000000	0.000000	-1.000000	-1.000000	394626.000000	1775779062.125966
761.805000	1833.165000	8334.180000	31336.290000	21637.395000	18741.285000	-32470.875000	-13916.070000	-4.853152	-6.279850	-6.308564	-5.316186	-2.257090	13.092438	1.706146	-3.638786	-0.946120	3.021480	0.991900	-0.877744	-0.012146	0.470153	-1.000000	-1.000000	-1.000000	-1.000000	-1.000000	-1.000000	-1.000000	54.000000	0.000000	-1.000000	-1.000000	394627.000000	1775779062.125978
760.770000	1832.130000	8332.920000	31333.320000	21634.380000	18744.795000	-32468.895000	-13916.610000	-5.432042	-6.489573	-6.197758	-5.970385	-4.549556	5.664844	-0.250494	-4.718170	-0.946120	3.021480	0.991900	-0.877744	-0.012146	0.470153	-1.000000	-1.000000	-1.000000	-1.000000	-1.000000	-1.000000	-1.000000	54.000000	0.000000	-1.000000	-1.000000	394628.000000	1775779062.133948
761.490000	1835.190000	8337.735000	31340.475000	21640.995000	18746.460000	-32473.665000	-13918.410000	-4.216531	-4.560144	-4.051207	-4.725479	-5.034678	-0.582686	-1.218116	-3.985054	-0.946120	3.021480	0.991900	-0.877744	-0.012146	0.470153	-1.000000	-1.000000	-1.000000	-1.000000	-1.000000	-1.000000	-1.000000	54.000000	0.000000	-1.000000	-1.000000	394629.000000	1775779062.133974
765.585000	1838.835000	8340.975000	31342.005000	21641.175000	18739.080000	-32475.600000	-13915.170000	-1.837409	-1.438512	-0.955514	-2.165904	-3.666539	-3.331465	-1.163120	-1.998522	-0.946120	3.021480	0.991900	-0.877744	-0.012146	0.470153	-1.000000	-1.000000	-1.000000	-1.000000	-1.000000	-1.000000	-1.000000	54.000000	0.000000	-1.000000	-1.000000	394630.000000	1775779062.133996
767.925000	1841.670000	8342.595000	31342.770000	21642.570000	18733.860000	-32478.885000	-13913.505000	0.913170	1.789721	2.012966	0.875200	-1.019604	-3.572511	-0.794318	0.428962	-0.946120	3.021480	0.991900	-0.877744	-0.012146	0.470153	-1.000000	-1.000000	-1.000000	-1.000000	-1.000000	-1.000000	-1.000000	54.000000	0.000000	-1.000000	-1.000000	394631.000000	1775779062.134005
767.520000	1841.085000	8343.045000	31344.705000	21646.395000	18740.430000	-32476.815000	-13914.045000	3.089358	3.968229	3.757120	3.101200	1.595414	-2.963536	-0.437944	2.472241	-0.946120	3.021480	0.991900	-0.877744	-0.012146	0.470153	-1.000000	-1.000000	-1.000000	-1.000000	-1.000000	-1.000000	-1.000000	54.000000	0.000000	-1.000000	-1.000000	394632.000000	1775779062.147749
761.805000	1833.975000	8336.250000	31340.520000	21647.160000	18750.105000	-32475.555000	-13916.880000	3.685294	4.112829	3.518717	3.554127	3.096425	-1.673659	0.131799	3.300206	-0.946120	3.021480	0.991900	-0.877744	-0.012146	0.470153	-1.000000	-1.000000	-1.000000	-1.000000	-1.000000	-1.000000	-1.000000	54.000000	0.000000	-1.000000	-1.000000	394633.000000	1775779062.147778
765.990000	1837.575000	8338.815000	31341.285000	21646.845000	18742.005000	-32479.110000	-13914.000000	2.387712	2.126531	1.432043	2.201840	3.081076	0.489221	0.989834	2.597919	-1.861720	2.823100	1.144500	-0.877256	-0.012695	0.470763	-1.000000	-1.000000	-1.000000	-1.000000	-1.000000	-1.000000	-1.000000	54.000000	0.000000	-1.000000	-1.000000	394634.000000	1775779062.147810
770.535000	1843.560000	8344.440000	31346.460000	21648.960000	18738.135000	-32476.050000	-13910.670000	0.291714	-0.536903	-1.084317	0.067349	1.761594	2.199568	1.678792	1.076198	-1.861720	2.823100	1.144500	-0.877256	-0.012695	0.470763	-1.000000	-1.000000	-1.000000	-1.000000	-1.000000	-1.000000	-1.000000	54.000000	0.000000	-1.000000	-1.000000	394635.000000	1775779062.147821
770.040000	1844.370000	8344.170000	31345.335000	21644.730000	18725.670000	-32475.645000	-13911.615000	-1.025425	-1.911647	-2.248498	-1.386414	-0.161741	1.717737	1.829454	-0.183127	-1.861720	2.823100	1.144500	-0.877256	-0.012695	0.470763	-1.000000	-1.000000	-1.000000	-1.000000	-1.000000	-1.000000	-1.000000	54.000000	0.000000	-1.000000	-1.000000	394636.000000	1775779062.147836
764.910000	1839.330000	8339.580000	31341.015000	21638.160000	18712.305000	-32478.075000	-13916.430000	-1.245570	-1.604049	-1.757884	-1.668200	-2.052203	-1.110814	1.448303	-0.896719	-1.861720	2.823100	1.144500	-0.877256	-0.012695	0.470763	-1.000000	-1.000000	-1.000000	-1.000000	-1.000000	-1.000000	-1.000000	54.000000	0.000000	-1.000000	-1.000000	394637.000000	1775779062.147846
761.895000	1835.190000	8335.620000	31337.685000	21637.080000	18712.935000	-32479.605000	-13919.625000	-1.261037	-0.915152	-0.866962	-1.489698	-3.497559	-4.512363	0.566943	-1.533061	-1.861720	2.823100	1.144500	-0.877256	-0.012695	0.470763	-1.000000	-1.000000	-1.000000	-1.000000	-1.000000	-1.000000	-1.000000	54.000000	0.000000	-1.000000	-1.000000	394638.000000	1775779062.154022
762.075000	1835.955000	8336.160000	31339.530000	21643.155000	18735.120000	-32474.205000	-13920.075000	-1.600846	-0.899741	-0.587949	-1.414013	-3.760195	-5.331192	-0.517204	-2.231029	-1.861720	2.823100	1.144500	-0.877256	-0.012695	0.470763	-1.000000	-1.000000	-1.000000	-1.000000	-1.000000	-1.000000	-1.000000	54.000000	0.000000	-1.000000	-1.000000	394639.000000	1775779062.154041
757.170000	1831.455000	8332.245000	31335.570000	21639.735000	18748.305000	-32478.435000	-13926.375000	-1.865078	-1.294714	-0.735713	-1.206017	-2.189807	-1.182498	-1.172712	-2.530331	-1.861720	2.823100	1.144500	-0.877256	-0.012695	0.470763	-1.000000	-1.000000	-1.000000	-1.000000	-1.000000	-1.000000	-1.000000	54.000000	0.000000	-1.000000	-1.000000	394640.000000	1775779062.154066
759.285000	1835.505000	8337.330000	31339.035000	21641.490000	18744.480000	-32482.125000	-13927.005000	-1.522478	-1.281838	-0.590044	-0.522590	0.580250	6.173814	-1.292661	-2.096009	-1.861720	2.823100	1.144500	-0.877256	-0.012695	0.470763	-1.000000	-1.000000	-1.000000	-1.000000	-1.000000	-1.000000	-1.000000	54.000000	0.000000	-1.000000	-1.000000	394641.000000	1775779062.154078
760.005000	1836.855000	8338.545000	31339.125000	21639.780000	18737.460000	-32482.485000	-13926.825000	-0.400490	-0.350745	0.326601	0.621748	2.965911	11.093035	-1.328044	-0.933821	-1.861720	2.823100	1.144500	-0.877256	-0.012695	0.470763	-1.000000	-1.000000	-1.000000	-1.000000	-1.000000	-1.000000	-1.000000	54.000000	0.000000	-1.000000	-1.000000	394642.000000	1775779062.159506
759.510000	1837.350000	8339.175000	31340.970000	21641.895000	18738.765000	-32483.925000	-13926.780000	1.224956	1.297479	1.785566	1.876899	3.864376	9.369982	-1.351917	0.771134	-1.861720	2.823100	1.144500	-0.877256	-0.012695	0.470763	-1.000000	-1.000000	-1.000000	-1.000000	-1.000000	-1.000000	-1.000000	54.000000	0.000000	-1.000000	-1.000000	394643.000000	1775779062.159529
764.505000	1841.265000	8340.705000	31341.195000	21641.805000	18740.520000	-32485.590000	-13921.425000	2.684023	2.797796	2.883282	2.663881	3.241066	2.280137	-1.060498	2.589787	-1.693860	2.563680	0.335720	-0.879270	-0.011414	0.470641	-1.000000	-1.000000	-1.000000	-1.000000	-1.000000	-1.000000	-1.000000	54.000000	0.000000	-1.000000	-1.000000	394644.000000	1775779062.162854
772.290000	1845.405000	8343.225000	31342.095000	21642.840000	18737.595000	-32483.295000	-13914.000000	3.537106	3.419897	2.904447	2.546942	1.751863	-5.369870	-0.326080	4.073670	-1.693860	2.563680	0.335720	-0.879270	-0.011414	0.470641	-1.000000	-1.000000	-1.000000	-1.000000	-1.000000	-1.000000	-1.000000	54.000000	0.000000	-1.000000	-1.000000	394645.000000	1775779062.162878
772.515000	1846.755000	8345.610000	31344.840000	21644.640000	18726.525000	-32484.825000	-13914.945000	3.702662	3.008407	1.917664	1.592147	0.173273	-9.866358	0.704834	4.778637	-1.693860	2.563680	0.335720	-0.879270	-0.011414	0.470641	-1.000000	-1.000000	-1.000000	-1.000000	-1.000000	-1.000000	-1.000000	54.000000	0.000000	-1.000000	-1.000000	394646.000000	1775779062.166181
771.345000	1847.745000	8345.880000	31344.390000	21642.480000	18713.115000	-32486.445000	-13917.420000	2.851798	1.687785	0.456129	0.290775	-0.986291	-10.645559	1.585095	3.980025	-1.693860	2.563680	0.335720	-0.879270	-0.011414	0.470641	-1.000000	-1.000000	-1.000000	-1.000000	-1.000000	-1.000000	-1.000000	54.000000	0.000000	-1.000000	-1.000000	394647.000000	1775779062.166199
764.865000	1839.420000	8337.285000	31336.470000	21635.730000	18715.725000	-32482.530000	-13921.830000	0.584464	-0.385247	-1.154945	-1.037643	-1.771293	-8.719954	1.873051	1.259114	-1.693860	2.563680	0.335720	-0.879270	-0.011414	0.470641	-1.000000	-1.000000	-1.000000	-1.000000	-1.000000	-1.000000	-1.000000	54.000000	0.000000	-1.000000	-1.000000	394648.000000	1775779062.172279
757.935000	1829.970000	8327.250000	31328.910000	21634.920000	18741.015000	-32476.725000	-13925.700000	-2.779587	-3.035851	-3.023742	-2.525296	-2.478141	-4.181434	1.733195	-2.605141	-1.693860	2.563680	0.335720	-0.879270	-0.011414	0.470641	-1.000000	-1.000000	-1.000000	-1.000000	-1.000000	-1.000000	-1.000000	54.000000	0.000000	-1.000000	-1.000000	394649.000000	1775779062.172305
759.510000	1832.580000	8330.805000	31331.880000	21635.685000	18742.950000	-32478.795000	-13925.835000	-5.861521	-5.502869	-4.800465	-3.900442	-2.845520	3.144763	1.558944	-5.824534	-1.693860	2.563680	0.335720	-0.879270	-0.011414	0.470641	-1.000000	-1.000000	-1.000000	-1.000000	-1.000000	-1.000000	-1.000000	54.000000	0.000000	-1.000000	-1.000000	394650.000000	1775779062.173640
765.045000	1839.240000	8338.635000	31336.875000	21636.180000	18739.530000	-32479.875000	-13923.540000	-6.683607	-6.034056	-4.934571	-3.910130	-2.195540	10.565043	1.118654	-6.658840	-1.693860	2.563680	0.335720	-0.879270	-0.011414	0.470641	-1.000000	-1.000000	-1.000000	-1.000000	-1.000000	-1.000000	-1.000000	54.000000	0.000000	-1.000000	-1.000000	394651.000000	1775779062.173656
764.190000	1839.195000	8339.895000	31338.405000	21635.505000	18736.515000	-32484.915000	-13925.385000	-4.245726	-3.419432	-2.205297	-1.652741	-0.468456	13.352707	-0.101728	-4.617542	-1.693860	2.563680	0.335720	-0.879270	-0.011414	0.470641	-1.000000	-1.000000	-1.000000	-1.000000	-1.000000	-1.000000	-1.000000	54.000000	0.000000	-1.000000	-1.000000	394652.000000	1775779062.178059
770.895000	1846.845000	8348.535000	31346.730000	21644.145000	18728.550000	-32490.405000	-13920.480000	0.281662	1.280645	2.373212	2.045295	1.658321	9.408699	-2.034121	-0.832508	-1.693860	2.563680	0.335720	-0.879270	-0.011414	0.470641	-1.000000	-1.000000	-1.000000	-1.000000	-1.000000	-1.000000	-1.000000	54.000000	0.000000	-1.000000	-1.000000	394653.000000	1775779062.178082
774.360000	1850.490000	8351.910000	31350.015000	21644.955000	18708.570000	-32497.695000	-13918.590000	4.573711	5.605478	6.329714	5.306094	3.464091	0.768241	-3.954315	2.914868	-1.480220	1.434440	0.381500	-0.877073	-0.008850	0.469603	-1.000000	-1.000000	-1.000000	-1.000000	-1.000000	-1.000000	-1.000000	54.000000	0.000000	-1.000000	-1.000000	394654.000000	1775779062.183453
774.360000	1848.960000	8348.850000	31348.035000	21641.175000	18701.145000	-32494.005000	-13917.915000	6.738543	7.465938	7.541623	6.424569	4.158419	-8.456751	-4.782076	5.192412	-1.480220	1.434440	0.381500	-0.877073	-0.008850	0.469603	-1.000000	-1.000000	-1.000000	-1.000000	-1.000000	-1.000000	-1.000000	54.000000	0.000000	-1.000000	-1.000000	394655.000000	1775779062.183470
767.610000	1841.265000	8343.135000	31344.030000	21640.635000	18708.975000	-32488.065000	-13922.820000	5.824804	5.847029	5.118408	4.531901	2.993524	-13.708049	-3.438303	5.168613	-1.480220	1.434440	0.381500	-0.877073	-0.008850	0.469603	-1.000000	-1.000000	-1.000000	-1.000000	-1.000000	-1.000000	-1.000000	54.000000	0.000000	-1.000000	-1.000000	394656.000000	1775779062.185435
759.240000	1833.795000	8337.330000	31338.090000	21638.385000	18724.635000	-32482.845000	-13930.695000	2.030063	1.201369	-0.068518	0.189636	0.259943	-11.589508	0.205810	2.763131	-1.480220	1.434440	0.381500	-0.877073	-0.008850	0.469603	-1.000000	-1.000000	-1.000000	-1.000000	-1.000000	-1.000000	-1.000000	54.000000	0.000000	-1.000000	-1.000000	394657.000000	1775779062.185452
756.945000	1830.645000	8332.830000	31333.770000	21639.420000	18750.510000	-32471.640000	-13930.785000	-3.007007	-4.354430	-5.567550	-4.659553	-2.596319	-2.216454	4.720465	-1.004484	-1.480220	1.434440	0.381500	-0.877073	-0.008850	0.469603	-1.000000	-1.000000	-1.000000	-1.000000	-1.000000	-1.000000	-1.000000	54.000000	0.000000	-1.000000	-1.000000	394658.000000	1775779062.188932
755.370000	1830.105000	8331.885000	31332.330000	21642.165000	18755.685000	-32478.075000	-13932.270000	-6.657694	-7.907089	-8.660036	-7.684944	-4.023167	9.888003	7.771417	-4.109022	-1.480220	1.434440	0.381500	-0.877073	-0.008850	0.469603	-1.000000	-1.000000	-1.000000	-1.000000	-1.000000	-1.000000	-1.000000	54.000000	0.000000	-1.000000	-1.000000	394659.000000	1775779062.188950
755.505000	1830.510000	8333.550000	31334.310000	21644.640000	18750.600000	-32481.180000	-13931.955000	-6.920523	-7.549321	-7.844082	-7.370263	-3.339026	17.616387	7.259049	-4.808905	-1.480220	1.434440	0.381500	-0.877073	-0.008850	0.469603	-1.000000	-1.000000	-1.000000	-1.000000	-1.000000	-1.000000	-1.000000	54.000000	0.000000	-1.000000	-1.000000	394660.000000	1775779062.198393
757.530000	1832.580000	8333.820000	31333.635000	21641.445000	18747.630000	-32478.525000	-13929.615000	-3.785531	-3.610994	-3.607070	-3.858604	-1.203813	15.787265	2.987547	-2.911577	-1.480220	1.434440	0.381500	-0.877073	-0.008850	0.469603	-1.000000	-1.000000	-1.000000	-1.000000	-1.000000	-1.000000	-1.000000	54.000000	0.000000	-1.000000	-1.000000	394661.000000	1775779062.198416
759.195000	1833.300000	8333.010000	31331.160000	21636.135000	18738.225000	-32482.215000	-13928.490000	0.993410	1.740848	1.846671	0.996562	0.750033	5.210425	-2.647340	0.369740	-1.480220	1.434440	0.381500	-0.877073	-0.008850	0.469603	-1.000000	-1.000000	-1.000000	-1.000000	-1.000000	-1.000000	-1.000000	54.000000	0.000000	-1.000000	-1.000000	394662.000000	1775779062.198437
761.850000	1837.800000	8338.815000	31337.325000	21638.655000	18732.060000	-32485.860000	-13927.500000	5.121055	5.984353	6.015760	4.883516	1.317173	-8.166970	-6.733705	3.307049	-1.480220	1.434440	0.381500	-0.877073	-0.008850	0.469603	-1.000000	-1.000000	-1.000000	-1.000000	-1.000000	-1.000000	-1.000000	54.000000	0.000000	-1.000000	-1.000000	394663.000000	1775779062.198447
767.070000	1843.785000	8345.610000	31343.625000	21645.450000	18729.405000	-32486.220000	-13923.990000	7.016433	7.676729	7.696076	6.698178	0.925735	-17.545258	-7.857214	4.617391	-0.396760	1.800680	2.533160	-0.873350	-0.007812	0.469847	-1.000000	-1.000000	-1.000000	-1.000000	-1.000000	-1.000000	-1.000000	54.000000	0.000000	-1.000000	-1.000000	394664.000000	1775779062.201696
767.970000	1844.460000	8345.295000	31341.420000	21643.380000	18721.395000	-32484.375000	-13922.730000	6.368153	6.763114	7.020698	6.515130	0.798875	-19.029543	-6.044483	4.064806	-0.396760	1.800680	2.533160	-0.873350	-0.007812	0.469847	-1.000000	-1.000000	-1.000000	-1.000000	-1.000000	-1.000000	-1.000000	54.000000	0.000000	-1.000000	-1.000000	394665.000000	1775779062.201718
766.755000	1842.705000	8344.710000	31341.195000	21643.110000	18716.805000	-32483.070000	-13923.630000	3.719648	3.838843	4.428243	4.506669	1.138266	-13.184685	-2.242254	2.184763	-0.396760	1.800680	2.533160	-0.873350	-0.007812	0.469847	-1.000000	-1.000000	-1.000000	-1.000000	-1.000000	-1.000000	-1.000000	54.000000	0.000000	-1.000000	-1.000000	394666.000000	1775779062.204877
764.145000	1838.340000	8341.965000	31340.835000	21646.395000	18729.720000	-32479.605000	-13924.845000	-0.034408	-0.285230	0.506305	1.090991	1.248690	-3.412299	1.997717	-0.292193	-0.396760	1.800680	2.533160	-0.873350	-0.007812	0.469847	-1.000000	-1.000000	-1.000000	-1.000000	-1.000000	-1.000000	-1.000000	54.000000	0.000000	-1.000000	-1.000000	394667.000000	1775779062.204894
759.060000	1832.040000	8334.405000	31332.600000	21641.535000	18748.395000	-32478.345000	-13929.255000	-3.774535	-4.485347	-3.697316	-2.671182	0.756242	7.004625	5.101278	-2.655290	-0.396760	1.800680	2.533160	-0.873350	-0.007812	0.469847	-1.000000	-1.000000	-1.000000	-1.000000	-1.000000	-1.000000	-1.000000	54.000000	0.000000	-1.000000	-1.000000	394668.000000	1775779062.210047
754.245000	1827.945000	8328.960000	31325.490000	21634.920000	18748.080000	-32483.025000	-13934.655000	-6.385723	-7.438259	-6.953051	-5.708205	-0.379577	15.301076	5.970833	-4.333536	-0.396760	1.800680	2.533160	-0.873350	-0.007812	0.469847	-1.000000	-1.000000	-1.000000	-1.000000	-1.000000	-1.000000	-1.000000	54.000000	0.000000	-1.000000	-1.000000	394669.000000	1775779062.210073
758.295000	1832.445000	8334.045000	31329.495000	21636.360000	18741.060000	-32483.970000	-13932.810000	-6.948184	-7.907049	-8.034426	-7.092476	-1.907099	18.175106	4.317684	-4.854304	-0.396760	1.800680	2.533160	-0.873350	-0.007812	0.469847	-1.000000	-1.000000	-1.000000	-1.000000	-1.000000	-1.000000	-1.000000	54.000000	0.000000	-1.000000	-1.000000	394670.000000	1775779062.217366
764.820000	1840.320000	8341.740000	31335.840000	21641.220000	18737.820000	-32485.995000	-13928.805000	-4.858874	-5.178995	-5.924122	-5.786782	-2.780506	13.551223	1.043838	-3.697560	-0.396760	1.800680	2.533160	-0.873350	-0.007812	0.469847	-1.000000	-1.000000	-1.000000	-1.000000	-1.000000	-1.000000	-1.000000	54.000000	0.000000	-1.000000	-1.000000	394671.000000	1775779062.217393
768.960000	1844.910000	8347.320000	31341.870000	21647.295000	18736.380000	-32487.480000	-13925.880000	-0.513520	0.079831	-0.894641	-1.620310	-1.834729	3.446952	-2.134457	-0.820036	-0.396760	1.800680	2.533160	-0.873350	-0.007812	0.469847	-1.000000	-1.000000	-1.000000	-1.000000	-1.000000	-1.000000	-1.000000	54.000000	0.000000	-1.000000	-1.000000	394672.000000	1775779062.218712
767.070000	1842.345000	8346.645000	31341.420000	21646.485000	18734.310000	-32486.490000	-13928.040000	4.125659	5.406024	4.742091	3.621370	0.715412	-6.907327	-3.778447	2.614562	-0.396760	1.800680	2.533160	-0.873350	-0.007812	0.469847	-1.000000	-1.000000	-1.000000	-1.000000	-1.000000	-1.000000	-1.000000	54.000000	0.000000	-1.000000	-1.000000	394673.000000	1775779062.218737
766.485000	1841.580000	8345.835000	31340.835000	21646.215000	18738.900000	-32480.820000	-13926.420000	6.521143	7.853416	7.869444	7.029889	3.102406	-12.732678	-3.307878	4.770614	0.747740	2.212700	2.777320	-0.878477	-0.007812	0.469908	-1.000000	-1.000000	-1.000000	-1.000000	-1.000000	-1.000000	-1.000000	54.000000	0.000000	-1.000000	-1.000000	394674.000000	1775779062.226429
765.000000	1839.330000	8343.405000	31336.155000	21638.700000	18737.865000	-32481.945000	-13929.120000	5.510523	6.239626	6.871171	6.701662	3.480964	-12.271647	-1.136086	4.604128	0.747740	2.212700	2.777320	-0.878477	-0.007812	0.469908	-1.000000	-1.000000	-1.000000	-1.000000	-1.000000	-1.000000	-1.000000	54.000000	0.000000	-1.000000	-1.000000	394675.000000	1775779062.226456
763.695000	1836.630000	8339.850000	31331.745000	21635.595000	18736.155000	-32480.505000	-13928.580000	2.057446	1.871312	2.633505	2.979735	1.404552	-7.175079	1.368298	2.496343	0.747740	2.212700	2.777320	-0.878477	-0.007812	0.469908	-1.000000	-1.000000	-1.000000	-1.000000	-1.000000	-1.000000	-1.000000	54.000000	0.000000	-1.000000	-1.000000	394676.000000	1775779062.226484
763.965000	1836.225000	8339.265000	31330.305000	21636.360000	18741.870000	-32481.405000	-13929.300000	-1.726906	-2.708982	-2.366379	-1.958193	-1.767365	-0.812643	2.725169	-0.251507	0.747740	2.212700	2.777320	-0.878477	-0.007812	0.469908	-1.000000	-1.000000	-1.000000	-1.000000	-1.000000	-1.000000	-1.000000	54.000000	0.000000	-1.000000	-1.000000	394677.000000	1775779062.226496
766.800000	1842.120000	8346.510000	31337.280000	21642.255000	18743.490000	-32484.510000	-13929.390000	-3.944508	-5.211760	-5.490672	-5.323368	-3.716439	4.152559	2.329423	-2.294886	0.747740	2.212700	2.777320	-0.878477	-0.007812	0.469908	-1.000000	-1.000000	-1.000000	-1.000000	-1.000000	-1.000000	-1.000000	54.000000	0.000000	-1.000000	-1.000000	394678.000000	1775779062.229264
769.410000	1847.070000	8352.135000	31343.130000	21645.990000	18730.395000	-32488.875000	-13928.220000	-3.779299	-4.552706	-5.171166	-5.206419	-2.945840	6.282214	0.531624	-2.929179	0.747740	2.212700	2.777320	-0.878477	-0.007812	0.469908	-1.000000	-1.000000	-1.000000	-1.000000	-1.000000	-1.000000	-1.000000	54.000000	0.000000	-1.000000	-1.000000	394679.000000	1775779062.229280
771.210000	1847.610000	8350.290000	31340.655000	21642.570000	18717.120000	-32489.190000	-13925.610000	-1.763736	-1.476268	-1.997703	-2.001377	-0.129978	4.784367	-1.666536	-2.185878	0.747740	2.212700	2.777320	-0.878477	-0.007812	0.469908	-1.000000	-1.000000	-1.000000	-1.000000	-1.000000	-1.000000	-1.000000	54.000000	0.000000	-1.000000	-1.000000	394680.000000	1775779062.243946
767.070000	1844.460000	8347.860000	31338.315000	21640.410000	18717.615000	-32487.570000	-13929.210000	0.588119	1.754929	1.490172	1.685499	2.420201	0.489316	-2.961933	-0.698582	0.747740	2.212700	2.777320	-0.878477	-0.007812	0.469908	-1.000000	-1.000000	-1.000000	-1.000000	-1.000000	-1.000000	-1.000000	54.000000	0.000000	-1.000000	-1.000000	394681.000000	1775779062.243975
762.930000	1842.120000	8347.140000	31335.165000	21640.365000	18727.920000	-32481.270000	-13932.270000	1.687796	2.990008	2.930199	3.262847	2.923217	-3.329354	-2.410854	0.485536	0.747740	2.212700	2.777320	-0.878477	-0.007812	0.469908	-1.000000	-1.000000	-1.000000	-1.000000	-1.000000	-1.000000	-1.000000	54.000000	0.000000	-1.000000	-1.000000	394682.000000	1775779062.244019
764.550000	1843.065000	8346.960000	31330.845000	21637.935000	18730.980000	-32471.325000	-13927.455000	1.057434	1.837710	1.987814	2.136203	1.499011	-3.373279	0.001045	0.753860	0.747740	2.212700	2.777320	-0.878477	-0.007812	0.469908	-1.000000	-1.000000	-1.000000	-1.000000	-1.000000	-1.000000	-1.000000	54.000000	0.000000	-1.000000	-1.000000	394683.000000	1775779062.244034
766.440000	1842.660000	8348.985000	31339.170000	21642.570000	18732.105000	-32479.380000	-13928.985000	-0.251631	-0.323296	0.056217	-0.233716	-0.446203	0.291571	2.986823	0.525985	-0.747740	0.579880	1.403920	-0.880247	-0.006226	0.469054	-1.000000	-1.000000	-1.000000	-1.000000	-1.000000	-1.000000	-1.000000	54.000000	0.000000	-1.000000	-1.000000	394684.000000	1775779062.245628
766.170000	1840.320000	8344.530000	31334.670000	21636.225000	18730.215000	-32485.815000	-13930.335000	-0.848497	-1.871632	-1.353781	-1.734565	-1.605736	4.424187	4.190895	0.374711	-0.747740	0.579880	1.403920	-0.880247	-0.006226	0.469054	-1.000000	-1.000000	-1.000000	-1.000000	-1.000000	-1.000000	-1.000000	54.000000	0.000000	-1.000000	-1.000000	394685.000000	1775779062.245645
767.475000	1840.770000	8342.685000	31331.655000	21634.470000	18733.860000	-32485.005000	-13928.940000	-0.366558	-2.149735	-1.771507	-1.607023	-1.762503	5.929485	2.274716	0.312304	-0.747740	0.579880	1.403920	-0.880247	-0.006226	0.469054	-1.000000	-1.000000	-1.000000	-1.000000	-1.000000	-1.000000	-1.000000	54.000000	0.000000	-1.000000	-1.000000	394686.000000	1775779062.245666
758.745000	1830.825000	8333.955000	31324.635000	21631.050000	18740.430000	-32484.645000	-13935.780000	0.441367	-1.524038	-1.631768	-0.835751	-1.467505	4.339219	-1.306655	0.128373	-0.747740	0.579880	1.403920	-0.880247	-0.006226	0.469054	-1.000000	-1.000000	-1.000000	-1.000000	-1.000000	-1.000000	-1.000000	54.000000	0.000000	-1.000000	-1.000000	394687.000000	1775779062.245678
762.885000	1834.785000	8338.095000	31328.550000	21635.100000	18738.630000	-32484.195000	-13932.450000	0.637988	-0.745185	-1.339367	-0.395306	-0.960640	1.261187	-3.830691	-0.279732	-0.747740	0.579880	1.403920	-0.880247	-0.006226	0.469054	-1.000000	-1.000000	-1.000000	-1.000000	-1.000000	-1.000000	-1.000000	54.000000	0.000000	-1.000000	-1.000000	394688.000000	1775779062.259366
