Channel1	Channel2	Channel3	Channel4	Channel5	Channel6	Channel7	Channel8	FilteredChannel1	FilteredChannel2	FilteredChannel3	FilteredChannel4	FilteredChannel5	FilteredChannel6	FilteredChannel7	FilteredChannel8	GyroX	GyroY	GyroZ	AccX	AccY	AccZ	PPG1	PPG2	rawPPG1	rawPPG2	rawPPG3	Hr	Hrv	Battery	Trigger	PhysicalTrigger	AutoTrigger	NumMeasurements	Timestamp
-12922.965000	-20453.130000	7102.935000	48304.035000	25317.360000	14421.510000	-27338.130000	-12661.785000	3.974963	4.752168	4.530569	2.493097	-5.799693	-26.907054	-3.504095	1.840116	-1.068200	3.631880	-0.564620	-0.817259	0.077514	0.543273	-1.000000	-1.000000	-1.000000	-1.000000	-1.000000	-1.000000	-1.000000	52.000000	0.000000	-1.000000	-1.000000	177077.000000	1775792208.468906
-12928.860000	-20459.160000	7097.985000	48300.255000	25325.910000	14427.315000	-27338.445000	-12666.780000	1.672317	2.350101	2.499548	1.514956	-3.190857	-18.391910	-4.226122	0.011832	-1.068200	3.631880	-0.564620	-0.817259	0.077514	0.543273	-1.000000	-1.000000	-1.000000	-1.000000	-1.000000	-1.000000	-1.000000	52.000000	0.000000	-1.000000	-1.000000	177078.000000	1775792208.844054
-12930.795000	-20461.320000	7097.310000	48300.120000	25321.680000	14418.945000	-27336.060000	-12669.390000	-1.238888	-0.913464	-0.418841	0.012021	2.267000	-2.301114	-3.388258	-1.787296	-1.068200	3.631880	-0.564620	-0.817259	0.077514	0.543273	-1.000000	-1.000000	-1.000000	-1.000000	-1.000000	-1.000000	-1.000000	52.000000	0.000000	-1.000000	-1.000000	177079.000000	1775792208.844078
-12925.755000	-20456.145000	7102.485000	48305.295000	25322.805000	14405.535000	-27330.930000	-12665.880000	-3.139226	-3.199165	-2.383119	-0.753877	7.010418	11.075647	-1.265580	-2.559454	-1.068200	3.631880	-0.564620	-0.817259	0.077514	0.543273	-1.000000	-1.000000	-1.000000	-1.000000	-1.000000	-1.000000	-1.000000	52.000000	0.000000	-1.000000	-1.000000	177080.000000	1775792208.844106
-12924.810000	-20454.210000	7104.510000	48307.905000	25322.310000	14393.115000	-27333.585000	-12666.015000	-2.741591	-3.020671	-2.062344	0.008455	7.800972	14.479993	1.335551	-1.636210	-1.068200	3.631880	-0.564620	-0.817259	0.077514	0.543273	-1.000000	-1.000000	-1.000000	-1.000000	-1.000000	-1.000000	-1.000000	52.000000	0.000000	-1.000000	-1.000000	177081.000000	1775792208.844116
-12922.470000	-20449.620000	7110.000000	48313.755000	25327.260000	14389.830000	-27350.415000	-12666.195000	-0.318965	-0.515497	0.243619	1.891640	4.644694	8.523256	2.805487	0.538135	-1.068200	3.631880	-0.564620	-0.817259	0.077514	0.543273	-1.000000	-1.000000	-1.000000	-1.000000	-1.000000	-1.000000	-1.000000	52.000000	0.000000	-1.000000	-1.000000	177082.000000	1775792208.844611
-12933.495000	-20461.680000	7096.860000	48299.580000	25311.195000	14413.770000	-27347.445000	-12674.655000	2.234825	2.373880	2.638743	3.305958	-0.284904	0.012884	1.814466	2.432611	-1.068200	3.631880	-0.564620	-0.817259	0.077514	0.543273	-1.000000	-1.000000	-1.000000	-1.000000	-1.000000	-1.000000	-1.000000	52.000000	0.000000	-1.000000	-1.000000	177083.000000	1775792208.844632
-12937.680000	-20467.350000	7091.010000	48295.800000	25319.025000	14421.105000	-27342.405000	-12676.770000	2.816482	3.201693	2.857901	2.459202	-4.843265	-3.788151	-0.568933	2.616367	-2.914660	2.411080	2.243220	-0.815489	0.080688	0.541747	-1.000000	-1.000000	-1.000000	-1.000000	-1.000000	-1.000000	-1.000000	52.000000	0.000000	-1.000000	-1.000000	177084.000000	1775792208.844656
-12940.110000	-20468.925000	7089.930000	48293.460000	25310.790000	14413.455000	-27345.960000	-12679.020000	1.037517	1.259237	0.418332	-0.689603	-7.316559	-1.353239	-1.772198	1.093317	-2.914660	2.411080	2.243220	-0.815489	0.080688	0.541747	-1.000000	-1.000000	-1.000000	-1.000000	-1.000000	-1.000000	-1.000000	52.000000	0.000000	-1.000000	-1.000000	177085.000000	1775792208.844668
-12944.835000	-20474.415000	7085.835000	48292.335000	25299.855000	14416.335000	-27338.355000	-12681.225000	-1.472945	-1.703201	-2.675777	-3.918623	-7.036995	2.763345	-0.780873	-0.794616	-2.914660	2.411080	2.243220	-0.815489	0.080688	0.541747	-1.000000	-1.000000	-1.000000	-1.000000	-1.000000	-1.000000	-1.000000	52.000000	0.000000	-1.000000	-1.000000	177086.000000	1775792208.844683
-12946.995000	-20477.700000	7082.460000	48287.745000	25282.755000	14396.985000	-27341.910000	-12685.005000	-2.866159	-3.482127	-4.123908	-5.000761	-5.198161	3.653454	1.379224	-1.802994	-2.914660	2.411080	2.243220	-0.815489	0.080688	0.541747	-1.000000	-1.000000	-1.000000	-1.000000	-1.000000	-1.000000	-1.000000	52.000000	0.000000	-1.000000	-1.000000	177087.000000	1775792208.844694
-12918.555000	-20449.215000	7108.470000	48311.460000	25301.655000	14404.455000	-27348.390000	-12665.880000	-1.912662	-2.650147	-2.767490	-3.139975	-2.892939	0.299533	2.867679	-1.284034	-2.914660	2.411080	2.243220	-0.815489	0.080688	0.541747	-1.000000	-1.000000	-1.000000	-1.000000	-1.000000	-1.000000	-1.000000	52.000000	0.000000	-1.000000	-1.000000	177088.000000	1775792208.844708
-12910.725000	-20440.575000	7115.310000	48314.880000	25324.245000	14415.075000	-27352.665000	-12659.220000	1.957297	1.418867	1.547620	1.326935	1.000993	-4.138943	2.260078	1.101428	-2.914660	2.411080	2.243220	-0.815489	0.080688	0.541747	-1.000000	-1.000000	-1.000000	-1.000000	-1.000000	-1.000000	-1.000000	52.000000	0.000000	-1.000000	-1.000000	177089.000000	1775792208.844719
-12912.660000	-20441.250000	7112.520000	48306.645000	25335.810000	14431.095000	-27340.785000	-12657.105000	6.847128	6.816450	6.717522	6.087369	7.401251	-5.241757	0.093072	4.343408	-2.914660	2.411080	2.243220	-0.815489	0.080688	0.541747	-1.000000	-1.000000	-1.000000	-1.000000	-1.000000	-1.000000	-1.000000	52.000000	0.000000	-1.000000	-1.000000	177090.000000	1775792208.845229
-12913.785000	-20441.250000	7116.930000	48315.825000	25341.975000	14429.700000	-27341.235000	-12657.780000	8.591582	9.222795	8.794050	7.606819	13.540993	-1.841743	-1.432151	5.845283	-2.914660	2.411080	2.243220	-0.815489	0.080688	0.541747	-1.000000	-1.000000	-1.000000	-1.000000	-1.000000	-1.000000	-1.000000	52.000000	0.000000	-1.000000	-1.000000	177091.000000	1775792208.845247
-12910.140000	-20442.690000	7114.095000	48314.385000	25331.310000	14412.285000	-27341.460000	-12655.845000	5.044112	6.092061	5.828229	4.837473	14.525041	2.509000	-1.149037	3.879795	-2.914660	2.411080	2.243220	-0.815489	0.080688	0.541747	-1.000000	-1.000000	-1.000000	-1.000000	-1.000000	-1.000000	-1.000000	52.000000	0.000000	-1.000000	-1.000000	177092.000000	1775792208.845264
-12904.065000	-20439.090000	7117.380000	48317.940000	25321.860000	14390.820000	-27335.250000	-12649.320000	-1.572735	-0.849406	-0.417632	-0.072274	7.860471	2.899865	0.079713	-0.525646	-2.914660	2.411080	2.243220	-0.815489	0.080688	0.541747	-1.000000	-1.000000	-1.000000	-1.000000	-1.000000	-1.000000	-1.000000	52.000000	0.000000	-1.000000	-1.000000	177093.000000	1775792208.845275
-12907.665000	-20438.055000	7115.085000	48308.850000	25303.680000	14351.085000	-27337.005000	-12649.320000	-7.218717	-7.437611	-6.433416	-4.533711	-4.169034	-2.433197	1.025113	-4.664976	-3.494540	0.564620	2.807840	-0.818662	0.079712	0.539610	-1.000000	-1.000000	-1.000000	-1.000000	-1.000000	-1.000000	-1.000000	52.000000	0.000000	-1.000000	-1.000000	177094.000000	1775792208.845287
-12910.455000	-20439.270000	7116.615000	48312.495000	25310.655000	14345.460000	-27331.380000	-12651.345000	-9.588519	-10.402510	-9.457324	-7.106871	-15.548326	-10.387146	1.122344	-6.648930	-3.494540	0.564620	2.807840	-0.818662	0.079712	0.539610	-1.000000	-1.000000	-1.000000	-1.000000	-1.000000	-1.000000	-1.000000	52.000000	0.000000	-1.000000	-1.000000	177095.000000	1775792208.845298
-12913.740000	-20441.430000	7112.205000	48305.160000	25315.605000	14376.870000	-27331.110000	-12656.340000	-8.815088	-9.213165	-8.778431	-7.310720	-19.856021	-13.941534	0.462748	-6.480890	-3.494540	0.564620	2.807840	-0.818662	0.079712	0.539610	-1.000000	-1.000000	-1.000000	-1.000000	-1.000000	-1.000000	-1.000000	52.000000	0.000000	-1.000000	-1.000000	177096.000000	1775792208.845309
-12923.235000	-20451.870000	7104.150000	48303.900000	25323.660000	14417.505000	-27343.260000	-12670.560000	-6.165374	-5.600306	-5.648453	-5.437560	-14.480688	-6.573535	-0.738836	-5.301200	-3.494540	0.564620	2.807840	-0.818662	0.079712	0.539610	-1.000000	-1.000000	-1.000000	-1.000000	-1.000000	-1.000000	-1.000000	52.000000	0.000000	-1.000000	-1.000000	177097.000000	1775792208.845319
-12923.415000	-20449.980000	7105.770000	48304.440000	25334.595000	14465.160000	-27339.345000	-12669.795000	-2.940797	-1.778053	-1.991447	-2.350241	-2.529524	11.118170	-2.415955	-4.053563	-3.494540	0.564620	2.807840	-0.818662	0.079712	0.539610	-1.000000	-1.000000	-1.000000	-1.000000	-1.000000	-1.000000	-1.000000	52.000000	0.000000	-1.000000	-1.000000	177098.000000	1775792208.845938
-12918.690000	-20448.090000	7104.510000	48297.015000	25330.590000	14430.465000	-27336.420000	-12660.750000	0.343608	1.294211	1.152599	0.940620	9.482502	28.815409	-3.685383	-2.262496	-3.494540	0.564620	2.807840	-0.818662	0.079712	0.539610	-1.000000	-1.000000	-1.000000	-1.000000	-1.000000	-1.000000	-1.000000	52.000000	0.000000	-1.000000	-1.000000	177099.000000	1775792208.845957
-12917.385000	-20450.430000	7104.285000	48296.070000	25324.470000	14391.405000	-27334.395000	-12657.330000	3.762779	3.762195	3.620038	3.364182	15.469849	31.882108	-3.166718	1.197183	-3.494540	0.564620	2.807840	-0.818662	0.079712	0.539610	-1.000000	-1.000000	-1.000000	-1.000000	-1.000000	-1.000000	-1.000000	52.000000	0.000000	-1.000000	-1.000000	177100.000000	1775792208.845978
-12914.550000	-20442.555000	7109.820000	48303.180000	25336.800000	14419.530000	-27330.120000	-12657.465000	6.788419	5.594394	5.303314	4.467174	13.362417	14.935499	-0.749864	5.691992	-3.494540	0.564620	2.807840	-0.818662	0.079712	0.539610	-1.000000	-1.000000	-1.000000	-1.000000	-1.000000	-1.000000	-1.000000	52.000000	0.000000	-1.000000	-1.000000	177101.000000	1775792208.845990
-12918.780000	-20448.540000	7098.435000	48290.445000	25332.525000	14479.155000	-27325.575000	-12659.535000	8.124782	6.363038	5.839149	4.557449	6.184926	-9.354038	2.281076	8.671380	-3.494540	0.564620	2.807840	-0.818662	0.079712	0.539610	-1.000000	-1.000000	-1.000000	-1.000000	-1.000000	-1.000000	-1.000000	52.000000	0.000000	-1.000000	-1.000000	177102.000000	1775792208.846092
-12922.155000	-20453.355000	7100.280000	48295.485000	25326.855000	14466.150000	-27330.480000	-12663.855000	6.753579	5.434359	4.678915	3.686877	-1.498735	-22.778986	4.274208	8.074642	-3.494540	0.564620	2.807840	-0.818662	0.079712	0.539610	-1.000000	-1.000000	-1.000000	-1.000000	-1.000000	-1.000000	-1.000000	52.000000	0.000000	-1.000000	-1.000000	177103.000000	1775792208.846105
-12921.570000	-20452.995000	7099.650000	48292.695000	25322.220000	14435.820000	-27334.845000	-12663.765000	3.029874	2.637864	2.082007	2.014680	-7.022068	-21.436568	3.943497	4.127938	-0.335720	-0.366240	2.487380	-0.822752	0.078125	0.539427	-1.000000	-1.000000	-1.000000	-1.000000	-1.000000	-1.000000	-1.000000	52.000000	0.000000	-1.000000	-1.000000	177104.000000	1775792208.846119
-12917.430000	-20449.755000	7101.315000	48292.605000	25323.255000	14436.945000	-27332.820000	-12657.735000	-1.128711	-0.757061	-0.520679	0.310226	-9.336813	-14.811799	1.351597	-0.793565	-0.335720	-0.366240	2.487380	-0.822752	0.078125	0.539427	-1.000000	-1.000000	-1.000000	-1.000000	-1.000000	-1.000000	-1.000000	52.000000	0.000000	-1.000000	-1.000000	177105.000000	1775792208.846128
-12911.940000	-20442.825000	7108.515000	48298.995000	25325.955000	14444.640000	-27325.530000	-12653.640000	-3.515804	-2.750726	-1.754709	-0.714726	-8.089518	-9.889068	-1.614939	-3.877619	-0.335720	-0.366240	2.487380	-0.822752	0.078125	0.539427	-1.000000	-1.000000	-1.000000	-1.000000	-1.000000	-1.000000	-1.000000	52.000000	0.000000	-1.000000	-1.000000	177106.000000	1775792208.846138
-12915.855000	-20444.940000	7107.660000	48300.795000	25326.495000	14426.190000	-27332.460000	-12658.950000	-3.417089	-2.479024	-1.305243	-0.716595	-3.952142	-6.174366	-2.924726	-4.113773	-0.335720	-0.366240	2.487380	-0.822752	0.078125	0.539427	-1.000000	-1.000000	-1.000000	-1.000000	-1.000000	-1.000000	-1.000000	52.000000	0.000000	-1.000000	-1.000000	177107.000000	1775792208.846148
-12911.040000	-20442.600000	7107.210000	48298.365000	25329.240000	14416.605000	-27336.015000	-12652.515000	-1.952008	-0.933850	-0.130776	-0.069927	1.187030	-2.249964	-2.517474	-2.677443	-0.335720	-0.366240	2.487380	-0.822752	0.078125	0.539427	-1.000000	-1.000000	-1.000000	-1.000000	-1.000000	-1.000000	-1.000000	52.000000	0.000000	-1.000000	-1.000000	177108.000000	1775792208.846160
-12917.070000	-20448.270000	7095.510000	48276.000000	25304.985000	14402.880000	-27341.100000	-12657.105000	-0.671044	0.178201	0.184806	-0.199762	4.698479	1.343290	-1.726279	-1.128882	-0.335720	-0.366240	2.487380	-0.822752	0.078125	0.539427	-1.000000	-1.000000	-1.000000	-1.000000	-1.000000	-1.000000	-1.000000	52.000000	0.000000	-1.000000	-1.000000	177109.000000	1775792208.846170
-12927.645000	-20458.215000	7089.480000	48272.670000	25280.145000	14383.755000	-27347.760000	-12670.245000	-0.585424	-0.239336	-1.254476	-2.321155	4.085513	3.794535	-1.386934	-0.531548	-0.335720	-0.366240	2.487380	-0.822752	0.078125	0.539427	-1.000000	-1.000000	-1.000000	-1.000000	-1.000000	-1.000000	-1.000000	52.000000	0.000000	-1.000000	-1.000000	177110.000000	1775792208.846182
-12915.315000	-20447.415000	7104.510000	48295.395000	25290.495000	14396.265000	-27339.615000	-12660.795000	-1.594939	-1.844941	-3.334413	-4.830148	-0.358683	5.284025	-1.162817	-1.190335	-0.335720	-0.366240	2.487380	-0.822752	0.078125	0.539427	-1.000000	-1.000000	-1.000000	-1.000000	-1.000000	-1.000000	-1.000000	52.000000	0.000000	-1.000000	-1.000000	177111.000000	1775792208.846193
-12901.410000	-20430.675000	7117.965000	48307.230000	25312.995000	14425.425000	-27320.940000	-12646.665000	-1.829400	-2.467013	-3.248533	-3.885755	-3.750389	7.710538	0.261866	-1.587465	-0.335720	-0.366240	2.487380	-0.822752	0.078125	0.539427	-1.000000	-1.000000	-1.000000	-1.000000	-1.000000	-1.000000	-1.000000	52.000000	0.000000	-1.000000	-1.000000	177112.000000	1775792208.846204
-12913.740000	-20443.680000	7111.080000	48308.625000	25309.170000	14422.680000	-27328.815000	-12657.510000	0.102696	-0.534219	0.085679	1.437451	-1.409569	12.341591	3.421866	-0.056273	-0.335720	-0.366240	2.487380	-0.822752	0.078125	0.539427	-1.000000	-1.000000	-1.000000	-1.000000	-1.000000	-1.000000	-1.000000	52.000000	0.000000	-1.000000	-1.000000	177113.000000	1775792208.846214
-12908.430000	-20436.480000	7117.245000	48310.245000	25323.660000	14425.335000	-27331.560000	-12655.395000	2.557532	2.267517	4.023388	7.137703	5.251192	16.190327	6.105424	2.281250	3.479280	-0.915600	1.678600	-0.828733	0.077148	0.541686	-1.000000	-1.000000	-1.000000	-1.000000	-1.000000	-1.000000	-1.000000	52.000000	0.000000	-1.000000	-1.000000	177114.000000	1775792208.846223
-12902.310000	-20428.920000	7123.860000	48313.845000	25334.685000	14417.460000	-27325.710000	-12649.860000	3.323923	3.493037	5.478350	8.714170	10.978219	14.433880	5.599739	3.248938	3.479280	-0.915600	1.678600	-0.828733	0.077148	0.541686	-1.000000	-1.000000	-1.000000	-1.000000	-1.000000	-1.000000	-1.000000	52.000000	0.000000	-1.000000	-1.000000	177115.000000	1775792208.846229
-12903.255000	-20431.080000	7123.455000	48316.275000	25335.720000	14414.085000	-27325.350000	-12650.400000	2.380392	2.859253	3.997229	5.336556	12.019095	5.912508	2.175672	2.550536	3.479280	-0.915600	1.678600	-0.828733	0.077148	0.541686	-1.000000	-1.000000	-1.000000	-1.000000	-1.000000	-1.000000	-1.000000	52.000000	0.000000	-1.000000	-1.000000	177116.000000	1775792208.846236
-12904.020000	-20432.565000	7119.090000	48310.425000	25346.610000	14423.355000	-27324.990000	-12650.445000	0.643508	1.036716	0.707688	-0.648637	7.728733	-5.456113	-1.795451	1.036010	3.479280	-0.915600	1.678600	-0.828733	0.077148	0.541686	-1.000000	-1.000000	-1.000000	-1.000000	-1.000000	-1.000000	-1.000000	52.000000	0.000000	-1.000000	-1.000000	177117.000000	1775792208.846242
-12903.660000	-20432.430000	7116.165000	48300.570000	25333.020000	14404.455000	-27325.035000	-12649.635000	-1.259392	-1.381393	-3.124934	-6.445588	-0.041058	-14.027444	-4.444981	-0.615793	3.479280	-0.915600	1.678600	-0.828733	0.077148	0.541686	-1.000000	-1.000000	-1.000000	-1.000000	-1.000000	-1.000000	-1.000000	52.000000	0.000000	-1.000000	-1.000000	177118.000000	1775792208.846248
-12916.395000	-20445.345000	7106.625000	48294.945000	25306.425000	14337.270000	-27329.355000	-12659.895000	-2.928984	-3.665889	-6.237263	-10.184740	-8.862819	-18.090005	-5.223333	-2.052295	3.479280	-0.915600	1.678600	-0.828733	0.077148	0.541686	-1.000000	-1.000000	-1.000000	-1.000000	-1.000000	-1.000000	-1.000000	52.000000	0.000000	-1.000000	-1.000000	177119.000000	1775792208.846254
-12924.315000	-20452.365000	7098.705000	48285.855000	25289.910000	14299.740000	-27337.590000	-12667.995000	-4.313769	-5.327888	-7.673338	-10.806638	-16.733638	-20.445945	-4.673685	-3.336923	3.479280	-0.915600	1.678600	-0.828733	0.077148	0.541686	-1.000000	-1.000000	-1.000000	-1.000000	-1.000000	-1.000000	-1.000000	52.000000	0.000000	-1.000000	-1.000000	177120.000000	1775792208.846260
-12927.240000	-20455.740000	7090.245000	48271.185000	25286.895000	14337.990000	-27344.835000	-12672.675000	-5.133835	-5.895222	-7.074103	-8.332224	-20.702686	-20.511899	-3.732168	-4.383989	3.479280	-0.915600	1.678600	-0.828733	0.077148	0.541686	-1.000000	-1.000000	-1.000000	-1.000000	-1.000000	-1.000000	-1.000000	52.000000	0.000000	-1.000000	-1.000000	177121.000000	1775792208.846266
-12899.880000	-20428.605000	7114.500000	48293.505000	25311.555000	14449.950000	-27327.195000	-12649.680000	-3.910791	-4.075568	-4.051734	-3.481328	-17.045082	-10.097061	-2.394444	-3.931439	3.479280	-0.915600	1.678600	-0.828733	0.077148	0.541686	-1.000000	-1.000000	-1.000000	-1.000000	-1.000000	-1.000000	-1.000000	52.000000	0.000000	-1.000000	-1.000000	177122.000000	1775792208.846272
-12903.930000	-20433.375000	7105.950000	48277.755000	25295.850000	14472.945000	-27316.710000	-12647.925000	0.661942	1.050364	1.573404	2.992616	-5.158761	15.462684	0.557752	-0.449742	3.479280	-0.915600	1.678600	-0.828733	0.077148	0.541686	-1.000000	-1.000000	-1.000000	-1.000000	-1.000000	-1.000000	-1.000000	52.000000	0.000000	-1.000000	-1.000000	177123.000000	1775792208.846278
-12907.170000	-20434.905000	7104.780000	48271.770000	25301.655000	14443.785000	-27312.120000	-12651.255000	6.543252	7.204997	7.652368	8.838716	9.460883	43.157078	5.180698	4.860953	6.287120	0.412020	-0.503580	-0.836363	0.077087	0.545531	-1.000000	-1.000000	-1.000000	-1.000000	-1.000000	-1.000000	-1.000000	52.000000	0.000000	-1.000000	-1.000000	177124.000000	1775792208.849439
-12900.465000	-20422.485000	7123.230000	48299.265000	25359.660000	14445.990000	-27322.605000	-12651.975000	9.460894	10.269071	10.827744	11.464772	20.219942	50.534259	8.658594	8.116248	6.287120	0.412020	-0.503580	-0.836363	0.077087	0.545531	-1.000000	-1.000000	-1.000000	-1.000000	-1.000000	-1.000000	-1.000000	52.000000	0.000000	-1.000000	-1.000000	177125.000000	1775792208.849456
-12896.055000	-20420.910000	7126.515000	48307.995000	25371.585000	14466.870000	-27314.190000	-12646.485000	7.744727	8.792032	10.261321	11.333797	25.319642	30.107944	7.896971	6.979361	6.287120	0.412020	-0.503580	-0.836363	0.077087	0.545531	-1.000000	-1.000000	-1.000000	-1.000000	-1.000000	-1.000000	-1.000000	52.000000	0.000000	-1.000000	-1.000000	177126.000000	1775792208.849526
-12907.440000	-20436.975000	7111.260000	48295.395000	25335.765000	14451.795000	-27324.495000	-12655.710000	2.971146	3.975973	6.762276	9.607174	23.585885	-4.312231	2.994564	2.569649	6.287120	0.412020	-0.503580	-0.836363	0.077087	0.545531	-1.000000	-1.000000	-1.000000	-1.000000	-1.000000	-1.000000	-1.000000	52.000000	0.000000	-1.000000	-1.000000	177127.000000	1775792208.849543
-12912.390000	-20448.180000	7103.160000	48293.505000	25323.210000	14439.015000	-27326.970000	-12655.665000	-2.787347	-2.772057	0.620733	5.243846	11.864492	-33.797377	-3.295296	-2.613057	6.287120	0.412020	-0.503580	-0.836363	0.077087	0.545531	-1.000000	-1.000000	-1.000000	-1.000000	-1.000000	-1.000000	-1.000000	52.000000	0.000000	-1.000000	-1.000000	177128.000000	1775792208.849564
-12906.855000	-20441.880000	7105.725000	48292.470000	25320.645000	14422.590000	-27321.345000	-12650.760000	-7.470569	-9.190942	-6.621769	-1.899742	-7.571650	-47.585081	-7.858820	-6.233666	6.287120	0.412020	-0.503580	-0.836363	0.077087	0.545531	-1.000000	-1.000000	-1.000000	-1.000000	-1.000000	-1.000000	-1.000000	52.000000	0.000000	-1.000000	-1.000000	177129.000000	1775792208.849576
-12909.690000	-20442.780000	7102.935000	48287.520000	25315.695000	14404.455000	-27326.025000	-12656.250000	-8.901049	-11.784510	-11.377389	-8.976387	-24.756175	-44.289203	-8.583001	-6.774391	6.287120	0.412020	-0.503580	-0.836363	0.077087	0.545531	-1.000000	-1.000000	-1.000000	-1.000000	-1.000000	-1.000000	-1.000000	52.000000	0.000000	-1.000000	-1.000000	177130.000000	1775792208.849590
-12902.535000	-20429.190000	7112.610000	48287.565000	25319.115000	14400.225000	-27325.215000	-12650.850000	-6.383049	-8.574585	-10.895009	-12.675737	-30.398884	-28.511531	-5.626164	-4.493034	6.287120	0.412020	-0.503580	-0.836363	0.077087	0.545531	-1.000000	-1.000000	-1.000000	-1.000000	-1.000000	-1.000000	-1.000000	52.000000	0.000000	-1.000000	-1.000000	177131.000000	1775792208.849601
-12903.750000	-20428.470000	7116.480000	48293.685000	25326.045000	14412.060000	-27327.780000	-12653.595000	-1.413085	-1.091082	-5.443496	-11.503952	-22.576473	-6.834225	-1.129379	-0.983018	6.287120	0.412020	-0.503580	-0.836363	0.077087	0.545531	-1.000000	-1.000000	-1.000000	-1.000000	-1.000000	-1.000000	-1.000000	52.000000	0.000000	-1.000000	-1.000000	177132.000000	1775792208.849614
-12905.820000	-20431.080000	7112.475000	48288.150000	25335.180000	14432.445000	-27325.755000	-12655.530000	3.347301	6.464777	1.897422	-6.273661	-6.300187	14.844754	2.696492	2.014527	6.287120	0.412020	-0.503580	-0.836363	0.077087	0.545531	-1.000000	-1.000000	-1.000000	-1.000000	-1.000000	-1.000000	-1.000000	52.000000	0.000000	-1.000000	-1.000000	177133.000000	1775792208.849625
-12914.505000	-20442.105000	7098.975000	48273.480000	25329.960000	14422.635000	-27324.990000	-12661.425000	5.474014	9.729803	6.810371	-0.059565	10.180545	30.987129	4.750775	3.230510	2.533160	1.907500	-2.594200	-0.833311	0.080688	0.546568	-1.000000	-1.000000	-1.000000	-1.000000	-1.000000	-1.000000	-1.000000	52.000000	0.000000	-1.000000	-1.000000	177134.000000	1775792208.849638
-12910.770000	-20438.370000	7103.925000	48279.375000	25312.230000	14420.835000	-27318.330000	-12658.905000	4.308922	7.268089	6.782694	3.843423	19.255859	36.223212	5.100500	2.533935	2.533160	1.907500	-2.594200	-0.833311	0.080688	0.546568	-1.000000	-1.000000	-1.000000	-1.000000	-1.000000	-1.000000	-1.000000	52.000000	0.000000	-1.000000	-1.000000	177135.000000	1775792208.849648
-12913.650000	-20442.015000	7108.965000	48293.730000	25296.615000	14405.085000	-27318.870000	-12663.900000	1.438189	1.593303	3.348174	5.134715	17.448038	28.499833	4.355242	0.980842	2.533160	1.907500	-2.594200	-0.833311	0.080688	0.546568	-1.000000	-1.000000	-1.000000	-1.000000	-1.000000	-1.000000	-1.000000	52.000000	0.000000	-1.000000	-1.000000	177136.000000	1775792208.849662
-12912.390000	-20440.350000	7113.240000	48304.080000	25300.485000	14375.655000	-27327.915000	-12664.440000	-0.903003	-3.336045	0.187416	5.983900	7.651757	11.255617	2.714917	-0.270673	2.533160	1.907500	-2.594200	-0.833311	0.080688	0.546568	-1.000000	-1.000000	-1.000000	-1.000000	-1.000000	-1.000000	-1.000000	52.000000	0.000000	-1.000000	-1.000000	177137.000000	1775792208.849672
-12899.790000	-20428.020000	7127.145000	48321.450000	25321.410000	14374.845000	-27332.955000	-12654.180000	-1.382926	-4.935920	-0.464653	7.510604	-2.318345	-8.160098	-0.051766	-0.522316	2.533160	1.907500	-2.594200	-0.833311	0.080688	0.546568	-1.000000	-1.000000	-1.000000	-1.000000	-1.000000	-1.000000	-1.000000	52.000000	0.000000	-1.000000	-1.000000	177138.000000	1775792208.849685
-12902.580000	-20430.675000	7120.395000	48307.050000	25315.650000	14405.670000	-27324.315000	-12654.315000	0.070085	-2.932310	0.926791	8.220675	-5.826718	-20.624595	-3.157483	0.523267	2.533160	1.907500	-2.594200	-0.833311	0.080688	0.546568	-1.000000	-1.000000	-1.000000	-1.000000	-1.000000	-1.000000	-1.000000	52.000000	0.000000	-1.000000	-1.000000	177139.000000	1775792208.849695
-12905.730000	-20431.080000	7113.150000	48287.025000	25317.630000	14441.850000	-27322.740000	-12656.250000	1.941851	0.571591	1.889392	5.139020	-2.918582	-19.176241	-4.545250	2.087854	2.533160	1.907500	-2.594200	-0.833311	0.080688	0.546568	-1.000000	-1.000000	-1.000000	-1.000000	-1.000000	-1.000000	-1.000000	52.000000	0.000000	-1.000000	-1.000000	177140.000000	1775792208.849708
-12907.350000	-20431.530000	7113.285000	48289.500000	25330.185000	14440.140000	-27331.470000	-12660.255000	2.179068	2.715307	0.369131	-2.561927	1.741471	-5.352754	-3.342503	2.517849	2.533160	1.907500	-2.594200	-0.833311	0.080688	0.546568	-1.000000	-1.000000	-1.000000	-1.000000	-1.000000	-1.000000	-1.000000	52.000000	0.000000	-1.000000	-1.000000	177141.000000	1775792208.849718
-12903.840000	-20432.475000	7111.845000	48292.605000	25345.755000	14445.945000	-27323.145000	-12653.370000	0.442519	2.329825	-2.867477	-10.742078	4.785369	10.151789	-0.929774	1.171468	2.533160	1.907500	-2.594200	-0.833311	0.080688	0.546568	-1.000000	-1.000000	-1.000000	-1.000000	-1.000000	-1.000000	-1.000000	52.000000	0.000000	-1.000000	-1.000000	177142.000000	1775792208.849731
-12909.195000	-20440.395000	7112.430000	48304.035000	25344.450000	14439.735000	-27328.095000	-12660.480000	-1.820949	0.142057	-5.262656	-13.523205	5.405599	16.325684	1.114369	-0.922380	2.533160	1.907500	-2.594200	-0.833311	0.080688	0.546568	-1.000000	-1.000000	-1.000000	-1.000000	-1.000000	-1.000000	-1.000000	52.000000	0.000000	-1.000000	-1.000000	177143.000000	1775792208.849741
-12904.245000	-20436.750000	7120.485000	48316.455000	25339.455000	14433.525000	-27331.020000	-12656.655000	-3.150198	-2.376926	-4.979463	-8.733262	3.239596	10.238135	2.049745	-2.497310	-3.036740	3.128300	-2.273740	-0.813169	0.086181	0.546568	-1.000000	-1.000000	-1.000000	-1.000000	-1.000000	-1.000000	-1.000000	52.000000	0.000000	-1.000000	-1.000000	177144.000000	1775792208.849754
-12896.550000	-20429.820000	7121.835000	48312.495000	25332.705000	14405.355000	-27326.925000	-12647.970000	-2.778234	-3.520148	-1.973746	0.505549	-1.691913	-3.332605	1.735806	-2.769370	-3.036740	3.128300	-2.273740	-0.813169	0.086181	0.546568	-1.000000	-1.000000	-1.000000	-1.000000	-1.000000	-1.000000	-1.000000	52.000000	0.000000	-1.000000	-1.000000	177145.000000	1775792208.849764
-12896.820000	-20428.740000	7120.710000	48306.195000	25323.750000	14374.440000	-27324.990000	-12648.735000	-0.755191	-2.240032	1.986938	8.100342	-7.723174	-17.236419	0.900907	-1.446035	-3.036740	3.128300	-2.273740	-0.813169	0.086181	0.546568	-1.000000	-1.000000	-1.000000	-1.000000	-1.000000	-1.000000	-1.000000	52.000000	0.000000	-1.000000	-1.000000	177146.000000	1775792208.849777
-12898.710000	-20427.300000	7113.960000	48287.835000	25307.370000	14386.275000	-27322.380000	-12650.400000	1.588481	0.630049	4.354915	9.285562	-12.201476	-25.014247	0.481346	0.545362	-3.036740	3.128300	-2.273740	-0.813169	0.086181	0.546568	-1.000000	-1.000000	-1.000000	-1.000000	-1.000000	-1.000000	-1.000000	52.000000	0.000000	-1.000000	-1.000000	177147.000000	1775792208.849788
-12911.445000	-20437.605000	7105.185000	48279.960000	25303.995000	14415.030000	-27327.690000	-12662.820000	2.294796	2.839740	3.604770	3.860824	-13.115711	-21.358174	0.495882	1.363907	-3.036740	3.128300	-2.273740	-0.813169	0.086181	0.546568	-1.000000	-1.000000	-1.000000	-1.000000	-1.000000	-1.000000	-1.000000	52.000000	0.000000	-1.000000	-1.000000	177148.000000	1775792208.849800
-12911.220000	-20436.390000	7108.920000	48285.360000	25316.190000	14445.585000	-27326.745000	-12663.315000	0.562632	2.677466	0.471765	-3.745266	-9.365959	-5.213917	0.247439	0.055907	-3.036740	3.128300	-2.273740	-0.813169	0.086181	0.546568	-1.000000	-1.000000	-1.000000	-1.000000	-1.000000	-1.000000	-1.000000	52.000000	0.000000	-1.000000	-1.000000	177149.000000	1775792208.849811
-12910.365000	-20436.480000	7105.320000	48278.970000	25301.835000	14417.730000	-27325.710000	-12662.685000	-2.147159	0.571429	-2.511826	-7.878602	-1.471498	15.832268	-0.503110	-2.198732	-3.036740	3.128300	-2.273740	-0.813169	0.086181	0.546568	-1.000000	-1.000000	-1.000000	-1.000000	-1.000000	-1.000000	-1.000000	52.000000	0.000000	-1.000000	-1.000000	177150.000000	1775792208.849823
-12914.595000	-20443.905000	7097.490000	48278.295000	25293.780000	14378.130000	-27330.705000	-12666.915000	-3.447311	-1.622408	-3.420738	-6.285200	6.996435	27.916682	-1.275277	-3.223627	-3.036740	3.128300	-2.273740	-0.813169	0.086181	0.546568	-1.000000	-1.000000	-1.000000	-1.000000	-1.000000	-1.000000	-1.000000	52.000000	0.000000	-1.000000	-1.000000	177151.000000	1775792208.849833
-12914.595000	-20443.905000	7097.490000	48278.295000	25293.780000	14378.130000	-27330.705000	-12666.915000	-2.454135	-2.666932	-2.397982	-0.982104	11.698922	22.496880	-1.690003	-2.150374	-3.036740	3.128300	-2.273740	-0.813169	0.086181	0.546568	-1.000000	-1.000000	-1.000000	-1.000000	-1.000000	-1.000000	-1.000000	52.000000	0.000000	-1.000000	-1.000000	177152.000000	1775792208.866996
-12914.595000	-20443.905000	7097.490000	48278.295000	25293.780000	14378.130000	-27330.705000	-12666.915000	-0.042331	-2.305019	-0.427904	4.562120	11.518215	5.233509	-1.608159	0.239917	-3.036740	3.128300	-2.273740	-0.813169	0.086181	0.546568	-1.000000	-1.000000	-1.000000	-1.000000	-1.000000	-1.000000	-1.000000	52.000000	0.000000	-1.000000	-1.000000	177153.000000	1775792208.867018
-12914.595000	-20443.905000	7097.490000	48278.295000	25293.780000	14378.130000	-27330.705000	-12666.915000	2.430640	-0.739825	1.752424	7.753171	8.340564	-10.329886	-0.913443	2.664663	-3.036740	3.128300	-2.273740	-0.813169	0.086181	0.546568	-1.000000	-1.000000	-1.000000	-1.000000	-1.000000	-1.000000	-1.000000	52.000000	0.000000	-1.000000	-1.000000	177154.000000	1775792208.867027
-12914.595000	-20443.905000	7097.490000	48278.295000	25293.780000	14378.130000	-27330.705000	-12666.915000	3.898085	1.312139	3.454848	7.674557	4.393097	-15.430908	0.220409	4.080284	-3.036740	3.128300	-2.273740	-0.813169	0.086181	0.546568	-1.000000	-1.000000	-1.000000	-1.000000	-1.000000	-1.000000	-1.000000	52.000000	0.000000	-1.000000	-1.000000	177155.000000	1775792208.867036
-12914.595000	-20443.905000	7097.490000	48278.295000	25293.780000	14378.130000	-27330.705000	-12666.915000	3.901594	2.866858	4.055420	4.984458	0.960814	-10.438674	1.298194	4.024185	-3.036740	3.128300	-2.273740	-0.813169	0.086181	0.546568	-1.000000	-1.000000	-1.000000	-1.000000	-1.000000	-1.000000	-1.000000	52.000000	0.000000	-1.000000	-1.000000	177156.000000	1775792208.867045
-12914.595000	-20443.905000	7097.490000	48278.295000	25293.780000	14378.130000	-27330.705000	-12666.915000	2.657472	3.269068	3.358411	1.200448	-1.521314	-1.145027	1.854586	2.709461	-3.036740	3.128300	-2.273740	-0.813169	0.086181	0.546568	-1.000000	-1.000000	-1.000000	-1.000000	-1.000000	-1.000000	-1.000000	52.000000	0.000000	-1.000000	-1.000000	177157.000000	1775792208.867054
-12914.595000	-20443.905000	7097.490000	48278.295000	25293.780000	14378.130000	-27330.705000	-12666.915000	0.818714	2.487739	1.708075	-2.146048	-3.035188	6.428091	1.720773	0.797829	-3.036740	3.128300	-2.273740	-0.813169	0.086181	0.546568	-1.000000	-1.000000	-1.000000	-1.000000	-1.000000	-1.000000	-1.000000	52.000000	0.000000	-1.000000	-1.000000	177158.000000	1775792208.867062
-12914.595000	-20443.905000	7097.490000	48278.295000	25293.780000	14378.130000	-27330.705000	-12666.915000	-0.889721	1.002519	-0.221806	-4.092850	-3.683429	9.144322	1.053704	-0.969651	-3.036740	3.128300	-2.273740	-0.813169	0.086181	0.546568	-1.000000	-1.000000	-1.000000	-1.000000	-1.000000	-1.000000	-1.000000	52.000000	0.000000	-1.000000	-1.000000	177159.000000	1775792208.867070
-12914.595000	-20443.905000	7097.490000	48278.295000	25293.780000	14378.130000	-27330.705000	-12666.915000	-1.964852	-0.528865	-1.766909	-4.422878	-3.598464	7.166520	0.190909	-2.076470	-3.036740	3.128300	-2.273740	-0.813169	0.086181	0.546568	-1.000000	-1.000000	-1.000000	-1.000000	-1.000000	-1.000000	-1.000000	52.000000	0.000000	-1.000000	-1.000000	177160.000000	1775792208.867078
-12914.595000	-20443.905000	7097.490000	48278.295000	25293.780000	14378.130000	-27330.705000	-12666.915000	-2.246797	-1.587245	-2.532072	-3.506400	-2.954927	2.668087	-0.536511	-2.358697	-3.036740	3.128300	-2.273740	-0.813169	0.086181	0.546568	-1.000000	-1.000000	-1.000000	-1.000000	-1.000000	-1.000000	-1.000000	52.000000	0.000000	-1.000000	-1.000000	177161.000000	1775792208.867086
-12914.595000	-20443.905000	7097.490000	48278.295000	25293.780000	14378.130000	-27330.705000	-12666.915000	-1.874227	-1.954431	-2.473375	-1.987071	-1.982033	-1.836497	-0.931522	-1.961206	-3.036740	3.128300	-2.273740	-0.813169	0.086181	0.546568	-1.000000	-1.000000	-1.000000	-1.000000	-1.000000	-1.000000	-1.000000	52.000000	0.000000	-1.000000	-1.000000	177162.000000	1775792208.867095
-12914.595000	-20443.905000	7097.490000	48278.295000	25293.780000	14378.130000	-27330.705000	-12666.915000	-1.146556	-1.705068	-1.820699	-0.481899	-0.934943	-4.652191	-0.964659	-1.195847	-3.036740	3.128300	-2.273740	-0.813169	0.086181	0.546568	-1.000000	-1.000000	-1.000000	-1.000000	-1.000000	-1.000000	-1.000000	52.000000	0.000000	-1.000000	-1.000000	177163.000000	1775792208.867102
-12914.595000	-20443.905000	7097.490000	48278.295000	25293.780000	14378.130000	-27330.705000	-12666.915000	-0.375674	-1.090561	-0.922071	0.604322	-0.038340	-5.279013	-0.732710	-0.387612	-3.036740	3.128300	-2.273740	-0.813169	0.086181	0.546568	-1.000000	-1.000000	-1.000000	-1.000000	-1.000000	-1.000000	-1.000000	52.000000	0.000000	-1.000000	-1.000000	177164.000000	1775792208.867110
-12914.595000	-20443.905000	7097.490000	48278.295000	25293.780000	14378.130000	-27330.705000	-12666.915000	0.216274	-0.397849	-0.094695	1.128903	0.564665	-4.172636	-0.385241	0.231958	-3.036740	3.128300	-2.273740	-0.813169	0.086181	0.546568	-1.000000	-1.000000	-1.000000	-1.000000	-1.000000	-1.000000	-1.000000	52.000000	0.000000	-1.000000	-1.000000	177165.000000	1775792208.867118
-12914.595000	-20443.905000	7097.490000	48278.295000	25293.780000	14378.130000	-27330.705000	-12666.915000	0.534266	0.155800	0.465236	1.159649	0.833763	-2.233790	-0.057947	0.563975	-3.036740	3.128300	-2.273740	-0.813169	0.086181	0.546568	-1.000000	-1.000000	-1.000000	-1.000000	-1.000000	-1.000000	-1.000000	52.000000	0.000000	-1.000000	-1.000000	177166.000000	1775792208.867126
-12914.595000	-20443.905000	7097.490000	48278.295000	25293.780000	14378.130000	-27330.705000	-12666.915000	0.594043	0.467616	0.702638	0.877078	0.818057	-0.329899	0.165768	0.625283	-3.036740	3.128300	-2.273740	-0.813169	0.086181	0.546568	-1.000000	-1.000000	-1.000000	-1.000000	-1.000000	-1.000000	-1.000000	52.000000	0.000000	-1.000000	-1.000000	177167.000000	1775792208.867134
-12914.595000	-20443.905000	7097.490000	48278.295000	25293.780000	14378.130000	-27330.705000	-12666.915000	0.477303	0.540642	0.671566	0.479396	0.619492	0.987753	0.262134	0.501693	-3.036740	3.128300	-2.273740	-0.813169	0.086181	0.546568	-1.000000	-1.000000	-1.000000	-1.000000	-1.000000	-1.000000	-1.000000	52.000000	0.000000	-1.000000	-1.000000	177168.000000	1775792208.867142
-12914.595000	-20443.905000	7097.490000	48278.295000	25293.780000	14378.130000	-27330.705000	-12666.915000	0.283500	0.444507	0.480617	0.118856	0.350836	1.548543	0.252526	0.297564	-3.036740	3.128300	-2.273740	-0.813169	0.086181	0.546568	-1.000000	-1.000000	-1.000000	-1.000000	-1.000000	-1.000000	-1.000000	52.000000	0.000000	-1.000000	-1.000000	177169.000000	1775792208.867150
-12914.595000	-20443.905000	7097.490000	48278.295000	25293.780000	14378.130000	-27330.705000	-12666.915000	0.094666	0.270130	0.241645	-0.123318	0.102976	1.474014	0.180260	0.098949	-3.036740	3.128300	-2.273740	-0.813169	0.086181	0.546568	-1.000000	-1.000000	-1.000000	-1.000000	-1.000000	-1.000000	-1.000000	52.000000	0.000000	-1.000000	-1.000000	177170.000000	1775792208.867158
-12914.595000	-20443.905000	7097.490000	48278.295000	25293.780000	14378.130000	-27330.705000	-12666.915000	-0.041007	0.095169	0.036689	-0.231295	-0.071284	1.028191	0.089524	-0.043616	-3.036740	3.128300	-2.273740	-0.813169	0.086181	0.546568	-1.000000	-1.000000	-1.000000	-1.000000	-1.000000	-1.000000	-1.000000	52.000000	0.000000	-1.000000	-1.000000	177171.000000	1775792208.867166
-12914.595000	-20443.905000	7097.490000	48278.295000	25293.780000	14378.130000	-27330.705000	-12666.915000	-0.109240	-0.033147	-0.093670	-0.232396	-0.157475	0.481342	0.012242	-0.115207	-3.036740	3.128300	-2.273740	-0.813169	0.086181	0.546568	-1.000000	-1.000000	-1.000000	-1.000000	-1.000000	-1.000000	-1.000000	52.000000	0.000000	-1.000000	-1.000000	177172.000000	1775792208.867174
-12914.595000	-20443.905000	7097.490000	48278.295000	25293.780000	14378.130000	-27330.705000	-12666.915000	-0.119942	-0.099402	-0.145339	-0.171628	-0.169107	0.026126	-0.036209	-0.126293	-3.036740	3.128300	-2.273740	-0.813169	0.086181	0.546568	-1.000000	-1.000000	-1.000000	-1.000000	-1.000000	-1.000000	-1.000000	52.000000	0.000000	-1.000000	-1.000000	177173.000000	1775792208.867181
-12914.595000	-20443.905000	7097.490000	48278.295000	25293.780000	14378.130000	-27330.705000	-12666.915000	-0.094523	-0.111521	-0.137216	-0.091776	-0.133489	-0.248485	-0.054692	-0.099415	-3.036740	3.128300	-2.273740	-0.813169	0.086181	0.546568	-1.000000	-1.000000	-1.000000	-1.000000	-1.000000	-1.000000	-1.000000	52.000000	0.000000	-1.000000	-1.000000	177174.000000	1775792208.867189
-12914.595000	-20443.905000	7097.490000	48278.295000	25293.780000	14378.130000	-27330.705000	-12666.915000	-0.055176	-0.088981	-0.096570	-0.022502	-0.079153	-0.341144	-0.050794	-0.057927	-3.036740	3.128300	-2.273740	-0.813169	0.086181	0.546568	-1.000000	-1.000000	-1.000000	-1.000000	-1.000000	-1.000000	-1.000000	52.000000	0.000000	-1.000000	-1.000000	177175.000000	1775792208.867197
-12914.595000	-20443.905000	7097.490000	48278.295000	25293.780000	14378.130000	-27330.705000	-12666.915000	-0.018419	-0.052567	-0.048041	0.022227	-0.027834	-0.302418	-0.035069	-0.019204	-3.036740	3.128300	-2.273740	-0.813169	0.086181	0.546568	-1.000000	-1.000000	-1.000000	-1.000000	-1.000000	-1.000000	-1.000000	52.000000	0.000000	-1.000000	-1.000000	177176.000000	1775792208.867205
-12914.595000	-20443.905000	7097.490000	48278.295000	25293.780000	14378.130000	-27330.705000	-12666.915000	0.007041	-0.018029	-0.007951	0.041202	0.008529	-0.198557	-0.016837	0.007598	-3.036740	3.128300	-2.273740	-0.813169	0.086181	0.546568	-1.000000	-1.000000	-1.000000	-1.000000	-1.000000	-1.000000	-1.000000	52.000000	0.000000	-1.000000	-1.000000	177177.000000	1775792208.867213
-12914.595000	-20443.905000	7097.490000	48278.295000	25293.780000	14378.130000	-27330.705000	-12666.915000	0.019338	0.006156	0.016658	0.040744	0.026924	-0.085928	-0.002105	0.020530	-3.036740	3.128300	-2.273740	-0.813169	0.086181	0.546568	-1.000000	-1.000000	-1.000000	-1.000000	-1.000000	-1.000000	-1.000000	52.000000	0.000000	-1.000000	-1.000000	177178.000000	1775792208.867221
-12914.595000	-20443.905000	7097.490000	48278.295000	25293.780000	14378.130000	-27330.705000	-12666.915000	0.020995	0.018004	0.025981	0.029654	0.030332	0.000824	0.006678	0.022251	-3.036740	3.128300	-2.273740	-0.813169	0.086181	0.546568	-1.000000	-1.000000	-1.000000	-1.000000	-1.000000	-1.000000	-1.000000	52.000000	0.000000	-1.000000	-1.000000	177179.000000	1775792208.867229
-12914.595000	-20443.905000	7097.490000	48278.295000	25293.780000	14378.130000	-27330.705000	-12666.915000	0.016303	0.019763	0.024264	0.015696	0.024399	0.049237	0.009760	0.017290	-3.036740	3.128300	-2.273740	-0.813169	0.086181	0.546568	-1.000000	-1.000000	-1.000000	-1.000000	-1.000000	-1.000000	-1.000000	52.000000	0.000000	-1.000000	-1.000000	177180.000000	1775792208.867236
-12914.595000	-20443.905000	7097.490000	48278.295000	25293.780000	14378.130000	-27330.705000	-12666.915000	0.009370	0.015440	0.016871	0.003930	0.014785	0.062924	0.008838	0.009974	-3.036740	3.128300	-2.273740	-0.813169	0.086181	0.546568	-1.000000	-1.000000	-1.000000	-1.000000	-1.000000	-1.000000	-1.000000	52.000000	0.000000	-1.000000	-1.000000	177181.000000	1775792208.867244
-12914.595000	-20443.905000	7097.490000	48278.295000	25293.780000	14378.130000	-27330.705000	-12666.915000	0.003073	0.008922	0.008326	-0.003463	0.005647	0.053526	0.005952	0.003332	-3.036740	3.128300	-2.273740	-0.813169	0.086181	0.546568	-1.000000	-1.000000	-1.000000	-1.000000	-1.000000	-1.000000	-1.000000	52.000000	0.000000	-1.000000	-1.000000	177182.000000	1775792208.867252
-12914.595000	-20443.905000	7097.490000	48278.295000	25293.780000	14378.130000	-27330.705000	-12666.915000	-0.001180	0.002958	0.001444	-0.006483	-0.000818	0.033908	0.002766	-0.001151	-3.036740	3.128300	-2.273740	-0.813169	0.086181	0.546568	-1.000000	-1.000000	-1.000000	-1.000000	-1.000000	-1.000000	-1.000000	52.000000	0.000000	-1.000000	-1.000000	177183.000000	1775792208.867260
-12914.595000	-20443.905000	7097.490000	48278.295000	25293.780000	14378.130000	-27330.705000	-12666.915000	-0.003172	-0.001090	-0.002675	-0.006319	-0.004100	0.014020	0.000279	-0.003250	-3.036740	3.128300	-2.273740	-0.813169	0.086181	0.546568	-1.000000	-1.000000	-1.000000	-1.000000	-1.000000	-1.000000	-1.000000	52.000000	0.000000	-1.000000	-1.000000	177184.000000	1775792208.867268
-12914.595000	-20443.905000	7097.490000	48278.295000	25293.780000	14378.130000	-27330.705000	-12666.915000	-0.003401	-0.002998	-0.004179	-0.004484	-0.004768	-0.000580	-0.001152	-0.003489	-3.036740	3.128300	-2.273740	-0.813169	0.086181	0.546568	-1.000000	-1.000000	-1.000000	-1.000000	-1.000000	-1.000000	-1.000000	52.000000	0.000000	-1.000000	-1.000000	177185.000000	1775792208.867276
-12914.595000	-20443.905000	7097.490000	48278.295000	25293.780000	14378.130000	-27330.705000	-12666.915000	-0.002615	-0.003227	-0.003856	-0.002247	-0.003831	-0.008303	-0.001621	-0.002659	-3.036740	3.128300	-2.273740	-0.813169	0.086181	0.546568	-1.000000	-1.000000	-1.000000	-1.000000	-1.000000	-1.000000	-1.000000	52.000000	0.000000	-1.000000	-1.000000	177186.000000	1775792208.867284
-12914.595000	-20443.905000	7097.490000	48278.295000	25293.780000	14378.130000	-27330.705000	-12666.915000	-0.001496	-0.002486	-0.002634	-0.000403	-0.002270	-0.010175	-0.001443	-0.001478	-3.036740	3.128300	-2.273740	-0.813169	0.086181	0.546568	-1.000000	-1.000000	-1.000000	-1.000000	-1.000000	-1.000000	-1.000000	52.000000	0.000000	-1.000000	-1.000000	177187.000000	1775792208.867292
-12914.595000	-20443.905000	7097.490000	48278.295000	25293.780000	14378.130000	-27330.705000	-12666.915000	-0.000501	-0.001423	-0.001258	0.000731	-0.000789	-0.008365	-0.000963	-0.000429	-3.036740	3.128300	-2.273740	-0.813169	0.086181	0.546568	-1.000000	-1.000000	-1.000000	-1.000000	-1.000000	-1.000000	-1.000000	52.000000	0.000000	-1.000000	-1.000000	177188.000000	1775792208.867300
-12914.595000	-20443.905000	7097.490000	48278.295000	25293.780000	14378.130000	-27330.705000	-12666.915000	0.000158	-0.000476	-0.000171	0.001178	0.000253	-0.005065	-0.000453	0.000265	-3.036740	3.128300	-2.273740	-0.813169	0.086181	0.546568	-1.000000	-1.000000	-1.000000	-1.000000	-1.000000	-1.000000	-1.000000	52.000000	0.000000	-1.000000	-1.000000	177189.000000	1775792208.867307
-12914.595000	-20443.905000	7097.490000	48278.295000	25293.780000	14378.130000	-27330.705000	-12666.915000	0.000459	0.000152	0.000467	0.001139	0.000780	-0.001867	-0.000064	0.000582	-3.036740	3.128300	-2.273740	-0.813169	0.086181	0.546568	-1.000000	-1.000000	-1.000000	-1.000000	-1.000000	-1.000000	-1.000000	52.000000	0.000000	-1.000000	-1.000000	177190.000000	1775792208.867315
-12914.595000	-20443.905000	7097.490000	48278.295000	25293.780000	14378.130000	-27330.705000	-12666.915000	0.000488	0.000438	0.000691	0.000852	0.000889	0.000402	0.000154	0.000611	-3.036740	3.128300	-2.273740	-0.813169	0.086181	0.546568	-1.000000	-1.000000	-1.000000	-1.000000	-1.000000	-1.000000	-1.000000	52.000000	0.000000	-1.000000	-1.000000	177191.000000	1775792208.867323
-12914.595000	-20443.905000	7097.490000	48278.295000	25293.780000	14378.130000	-27330.705000	-12666.915000	0.000365	0.000466	0.000635	0.000513	0.000745	0.001552	0.000221	0.000480	-3.036740	3.128300	-2.273740	-0.813169	0.086181	0.546568	-1.000000	-1.000000	-1.000000	-1.000000	-1.000000	-1.000000	-1.000000	52.000000	0.000000	-1.000000	-1.000000	177192.000000	1775792208.867331
-12914.595000	-20443.905000	7097.490000	48278.295000	25293.780000	14378.130000	-27330.705000	-12666.915000	0.000195	0.000348	0.000445	0.000237	0.000505	0.001790	0.000190	0.000299	-3.036740	3.128300	-2.273740	-0.813169	0.086181	0.546568	-1.000000	-1.000000	-1.000000	-1.000000	-1.000000	-1.000000	-1.000000	52.000000	0.000000	-1.000000	-1.000000	177193.000000	1775792208.867339
-12914.595000	-20443.905000	7097.490000	48278.295000	25293.780000	14378.130000	-27330.705000	-12666.915000	0.000046	0.000185	0.000235	0.000070	0.000278	0.001479	0.000116	0.000142	-3.036740	3.128300	-2.273740	-0.813169	0.086181	0.546568	-1.000000	-1.000000	-1.000000	-1.000000	-1.000000	-1.000000	-1.000000	52.000000	0.000000	-1.000000	-1.000000	177194.000000	1775792208.867347
-12914.595000	-20443.905000	7097.490000	48278.295000	25293.780000	14378.130000	-27330.705000	-12666.915000	-0.000050	0.000044	0.000073	0.000006	0.000119	0.000961	0.000039	0.000039	-3.036740	3.128300	-2.273740	-0.813169	0.086181	0.546568	-1.000000	-1.000000	-1.000000	-1.000000	-1.000000	-1.000000	-1.000000	52.000000	0.000000	-1.000000	-1.000000	177195.000000	1775792208.867354
-12914.595000	-20443.905000	7097.490000	48278.295000	25293.780000	14378.130000	-27330.705000	-12666.915000	-0.000093	-0.000048	-0.000021	0.000012	0.000038	0.000476	-0.000018	-0.000007	-3.036740	3.128300	-2.273740	-0.813169	0.086181	0.546568	-1.000000	-1.000000	-1.000000	-1.000000	-1.000000	-1.000000	-1.000000	52.000000	0.000000	-1.000000	-1.000000	177196.000000	1775792208.867362
-12914.595000	-20443.905000	7097.490000	48278.295000	25293.780000	14378.130000	-27330.705000	-12666.915000	-0.000096	-0.000089	-0.000053	0.000053	0.000021	0.000140	-0.000050	-0.000011	-3.036740	3.128300	-2.273740	-0.813169	0.086181	0.546568	-1.000000	-1.000000	-1.000000	-1.000000	-1.000000	-1.000000	-1.000000	52.000000	0.000000	-1.000000	-1.000000	177197.000000	1775792208.867370
-12914.595000	-20443.905000	7097.490000	48278.295000	25293.780000	14378.130000	-27330.705000	-12666.915000	-0.000077	-0.000092	-0.000044	0.000101	0.000041	-0.000025	-0.000058	0.000008	-3.036740	3.128300	-2.273740	-0.813169	0.086181	0.546568	-1.000000	-1.000000	-1.000000	-1.000000	-1.000000	-1.000000	-1.000000	52.000000	0.000000	-1.000000	-1.000000	177198.000000	1775792208.867378
-12914.595000	-20443.905000	7097.490000	48278.295000	25293.780000	14378.130000	-27330.705000	-12666.915000	-0.000052	-0.000074	-0.000016	0.000138	0.000075	-0.000055	-0.000053	0.000034	-3.036740	3.128300	-2.273740	-0.813169	0.086181	0.546568	-1.000000	-1.000000	-1.000000	-1.000000	-1.000000	-1.000000	-1.000000	52.000000	0.000000	-1.000000	-1.000000	177199.000000	1775792208.867386
-12914.595000	-20443.905000	7097.490000	48278.295000	25293.780000	14378.130000	-27330.705000	-12666.915000	-0.000031	-0.000050	0.000014	0.000160	0.000107	-0.000008	-0.000042	0.000056	-3.036740	3.128300	-2.273740	-0.813169	0.086181	0.546568	-1.000000	-1.000000	-1.000000	-1.000000	-1.000000	-1.000000	-1.000000	52.000000	0.000000	-1.000000	-1.000000	177200.000000	1775792208.867394
-12914.595000	-20443.905000	7097.490000	48278.295000	25293.780000	14378.130000	-27330.705000	-12666.915000	-0.000017	-0.000029	0.000036	0.000168	0.000129	0.000068	-0.000031	0.000070	-3.036740	3.128300	-2.273740	-0.813169	0.086181	0.546568	-1.000000	-1.000000	-1.000000	-1.000000	-1.000000	-1.000000	-1.000000	52.000000	0.000000	-1.000000	-1.000000	177201.000000	1775792208.867402
-12914.595000	-20443.905000	7097.490000	48278.295000	25293.780000	14378.130000	-27330.705000	-12666.915000	-0.000011	-0.000016	0.000049	0.000165	0.000139	0.000136	-0.000022	0.000076	-3.036740	3.128300	-2.273740	-0.813169	0.086181	0.546568	-1.000000	-1.000000	-1.000000	-1.000000	-1.000000	-1.000000	-1.000000	52.000000	0.000000	-1.000000	-1.000000	177202.000000	1775792208.867410
-12914.595000	-20443.905000	7097.490000	48278.295000	25293.780000	14378.130000	-27330.705000	-12666.915000	-0.000010	-0.000010	0.000053	0.000158	0.000140	0.000182	-0.000018	0.000075	-3.036740	3.128300	-2.273740	-0.813169	0.086181	0.546568	-1.000000	-1.000000	-1.000000	-1.000000	-1.000000	-1.000000	-1.000000	52.000000	0.000000	-1.000000	-1.000000	177203.000000	1775792208.867426
-12914.595000	-20443.905000	7097.490000	48278.295000	25293.780000	14378.130000	-27330.705000	-12666.915000	-0.000013	-0.000010	0.000052	0.000150	0.000136	0.000203	-0.000016	0.000072	-3.036740	3.128300	-2.273740	-0.813169	0.086181	0.546568	-1.000000	-1.000000	-1.000000	-1.000000	-1.000000	-1.000000	-1.000000	52.000000	0.000000	-1.000000	-1.000000	177204.000000	1775792208.867434
-12914.595000	-20443.905000	7097.490000	48278.295000	25293.780000	14378.130000	-27330.705000	-12666.915000	-0.000016	-0.000012	0.000047	0.000143	0.000130	0.000205	-0.000017	0.000068	-3.036740	3.128300	-2.273740	-0.813169	0.086181	0.546568	-1.000000	-1.000000	-1.000000	-1.000000	-1.000000	-1.000000	-1.000000	52.000000	0.000000	-1.000000	-1.000000	177205.000000	1775792208.867442
-12914.595000	-20443.905000	7097.490000	48278.295000	25293.780000	14378.130000	-27330.705000	-12666.915000	-0.000019	-0.000015	0.000043	0.000139	0.000125	0.000196	-0.000018	0.000064	-3.036740	3.128300	-2.273740	-0.813169	0.086181	0.546568	-1.000000	-1.000000	-1.000000	-1.000000	-1.000000	-1.000000	-1.000000	52.000000	0.000000	-1.000000	-1.000000	177206.000000	1775792208.867452
-12914.595000	-20443.905000	7097.490000	48278.295000	25293.780000	14378.130000	-27330.705000	-12666.915000	-0.000021	-0.000018	0.000039	0.000137	0.000121	0.000184	-0.000020	0.000062	-3.036740	3.128300	-2.273740	-0.813169	0.086181	0.546568	-1.000000	-1.000000	-1.000000	-1.000000	-1.000000	-1.000000	-1.000000	52.000000	0.000000	-1.000000	-1.000000	177207.000000	1775792208.867460
-12914.595000	-20443.905000	7097.490000	48278.295000	25293.780000	14378.130000	-27330.705000	-12666.915000	-0.000021	-0.000020	0.000037	0.000136	0.000118	0.000173	-0.000021	0.000060	-3.036740	3.128300	-2.273740	-0.813169	0.086181	0.546568	-1.000000	-1.000000	-1.000000	-1.000000	-1.000000	-1.000000	-1.000000	52.000000	0.000000	-1.000000	-1.000000	177208.000000	1775792208.867468
-12914.595000	-20443.905000	7097.490000	48278.295000	25293.780000	14378.130000	-27330.705000	-12666.915000	-0.000021	-0.000020	0.000036	0.000135	0.000117	0.000165	-0.000021	0.000060	-3.036740	3.128300	-2.273740	-0.813169	0.086181	0.546568	-1.000000	-1.000000	-1.000000	-1.000000	-1.000000	-1.000000	-1.000000	52.000000	0.000000	-1.000000	-1.000000	177209.000000	1775792208.867476
-12914.595000	-20443.905000	7097.490000	48278.295000	25293.780000	14378.130000	-27330.705000	-12666.915000	-0.000021	-0.000020	0.000036	0.000135	0.000116	0.000160	-0.000021	0.000060	-3.036740	3.128300	-2.273740	-0.813169	0.086181	0.546568	-1.000000	-1.000000	-1.000000	-1.000000	-1.000000	-1.000000	-1.000000	52.000000	0.000000	-1.000000	-1.000000	177210.000000	1775792208.867483
-12914.595000	-20443.905000	7097.490000	48278.295000	25293.780000	14378.130000	-27330.705000	-12666.915000	-0.000020	-0.000020	0.000036	0.000135	0.000116	0.000159	-0.000021	0.000060	-3.036740	3.128300	-2.273740	-0.813169	0.086181	0.546568	-1.000000	-1.000000	-1.000000	-1.000000	-1.000000	-1.000000	-1.000000	52.000000	0.000000	-1.000000	-1.000000	177211.000000	1775792208.867491
-12914.595000	-20443.905000	7097.490000	48278.295000	25293.780000	14378.130000	-27330.705000	-12666.915000	-0.000019	-0.000019	0.000037	0.000134	0.000116	0.000159	-0.000021	0.000060	-3.036740	3.128300	-2.273740	-0.813169	0.086181	0.546568	-1.000000	-1.000000	-1.000000	-1.000000	-1.000000	-1.000000	-1.000000	52.000000	0.000000	-1.000000	-1.000000	177212.000000	1775792208.867499
-12914.595000	-20443.905000	7097.490000	48278.295000	25293.780000	14378.130000	-27330.705000	-12666.915000	-0.000019	-0.000018	0.000037	0.000133	0.000115	0.000159	-0.000020	0.000059	-3.036740	3.128300	-2.273740	-0.813169	0.086181	0.546568	-1.000000	-1.000000	-1.000000	-1.000000	-1.000000	-1.000000	-1.000000	52.000000	0.000000	-1.000000	-1.000000	177213.000000	1775792208.867507
-12914.595000	-20443.905000	7097.490000	48278.295000	25293.780000	14378.130000	-27330.705000	-12666.915000	-0.000019	-0.000018	0.000037	0.000132	0.000114	0.000159	-0.000020	0.000059	-3.036740	3.128300	-2.273740	-0.813169	0.086181	0.546568	-1.000000	-1.000000	-1.000000	-1.000000	-1.000000	-1.000000	-1.000000	52.000000	0.000000	-1.000000	-1.000000	177214.000000	1775792208.867515
-12914.595000	-20443.905000	7097.490000	48278.295000	25293.780000	14378.130000	-27330.705000	-12666.915000	-0.000019	-0.000018	0.000037	0.000131	0.000114	0.000158	-0.000020	0.000058	-3.036740	3.128300	-2.273740	-0.813169	0.086181	0.546568	-1.000000	-1.000000	-1.000000	-1.000000	-1.000000	-1.000000	-1.000000	52.000000	0.000000	-1.000000	-1.000000	177215.000000	1775792208.867523
-12914.595000	-20443.905000	7097.490000	48278.295000	25293.780000	14378.130000	-27330.705000	-12666.915000	-0.000018	-0.000018	0.000036	0.000130	0.000113	0.000157	-0.000019	0.000058	-3.036740	3.128300	-2.273740	-0.813169	0.086181	0.546568	-1.000000	-1.000000	-1.000000	-1.000000	-1.000000	-1.000000	-1.000000	52.000000	0.000000	-1.000000	-1.000000	177216.000000	1775792208.867531
-12914.595000	-20443.905000	7097.490000	48278.295000	25293.780000	14378.130000	-27330.705000	-12666.915000	-0.000018	-0.000018	0.000036	0.000128	0.000112	0.000156	-0.000019	0.000057	-3.036740	3.128300	-2.273740	-0.813169	0.086181	0.546568	-1.000000	-1.000000	-1.000000	-1.000000	-1.000000	-1.000000	-1.000000	52.000000	0.000000	-1.000000	-1.000000	177217.000000	1775792208.867539
-12914.595000	-20443.905000	7097.490000	48278.295000	25293.780000	14378.130000	-27330.705000	-12666.915000	-0.000018	-0.000017	0.000035	0.000127	0.000111	0.000155	-0.000019	0.000057	-3.036740	3.128300	-2.273740	-0.813169	0.086181	0.546568	-1.000000	-1.000000	-1.000000	-1.000000	-1.000000	-1.000000	-1.000000	52.000000	0.000000	-1.000000	-1.000000	177218.000000	1775792208.867547
-12914.595000	-20443.905000	7097.490000	48278.295000	25293.780000	14378.130000	-27330.705000	-12666.915000	-0.000018	-0.000017	0.000035	0.000126	0.000110	0.000153	-0.000019	0.000056	-3.036740	3.128300	-2.273740	-0.813169	0.086181	0.546568	-1.000000	-1.000000	-1.000000	-1.000000	-1.000000	-1.000000	-1.000000	52.000000	0.000000	-1.000000	-1.000000	177219.000000	1775792208.867555
-12914.595000	-20443.905000	7097.490000	48278.295000	25293.780000	14378.130000	-27330.705000	-12666.915000	-0.000018	-0.000017	0.000035	0.000125	0.000109	0.000152	-0.000019	0.000056	-3.036740	3.128300	-2.273740	-0.813169	0.086181	0.546568	-1.000000	-1.000000	-1.000000	-1.000000	-1.000000	-1.000000	-1.000000	52.000000	0.000000	-1.000000	-1.000000	177220.000000	1775792208.867563
-12914.595000	-20443.905000	7097.490000	48278.295000	25293.780000	14378.130000	-27330.705000	-12666.915000	-0.000018	-0.000017	0.000035	0.000124	0.000108	0.000151	-0.000019	0.000055	-3.036740	3.128300	-2.273740	-0.813169	0.086181	0.546568	-1.000000	-1.000000	-1.000000	-1.000000	-1.000000	-1.000000	-1.000000	52.000000	0.000000	-1.000000	-1.000000	177221.000000	1775792208.867571
-12914.595000	-20443.905000	7097.490000	48278.295000	25293.780000	14378.130000	-27330.705000	-12666.915000	-0.000018	-0.000017	0.000034	0.000123	0.000107	0.000149	-0.000019	0.000055	-3.036740	3.128300	-2.273740	-0.813169	0.086181	0.546568	-1.000000	-1.000000	-1.000000	-1.000000	-1.000000	-1.000000	-1.000000	52.000000	0.000000	-1.000000	-1.000000	177222.000000	1775792208.867579
-12914.595000	-20443.905000	7097.490000	48278.295000	25293.780000	14378.130000	-27330.705000	-12666.915000	-0.000018	-0.000017	0.000034	0.000122	0.000106	0.000148	-0.000018	0.000054	-3.036740	3.128300	-2.273740	-0.813169	0.086181	0.546568	-1.000000	-1.000000	-1.000000	-1.000000	-1.000000	-1.000000	-1.000000	52.000000	0.000000	-1.000000	-1.000000	177223.000000	1775792208.867587
-12914.595000	-20443.905000	7097.490000	48278.295000	25293.780000	14378.130000	-27330.705000	-12666.915000	-0.000017	-0.000017	0.000034	0.000121	0.000105	0.000147	-0.000018	0.000054	-3.036740	3.128300	-2.273740	-0.813169	0.086181	0.546568	-1.000000	-1.000000	-1.000000	-1.000000	-1.000000	-1.000000	-1.000000	52.000000	0.000000	-1.000000	-1.000000	177224.000000	1775792208.867595
-12914.595000	-20443.905000	7097.490000	48278.295000	25293.780000	14378.130000	-27330.705000	-12666.915000	-0.000017	-0.000016	0.000034	0.000120	0.000104	0.000146	-0.000018	0.000053	-3.036740	3.128300	-2.273740	-0.813169	0.086181	0.546568	-1.000000	-1.000000	-1.000000	-1.000000	-1.000000	-1.000000	-1.000000	52.000000	0.000000	-1.000000	-1.000000	177225.000000	1775792208.867602
-12914.595000	-20443.905000	7097.490000	48278.295000	25293.780000	14378.130000	-27330.705000	-12666.915000	-0.000017	-0.000016	0.000033	0.000119	0.000104	0.000145	-0.000018	0.000053	-3.036740	3.128300	-2.273740	-0.813169	0.086181	0.546568	-1.000000	-1.000000	-1.000000	-1.000000	-1.000000	-1.000000	-1.000000	52.000000	0.000000	-1.000000	-1.000000	177226.000000	1775792208.867610
-12914.595000	-20443.905000	7097.490000	48278.295000	25293.780000	14378.130000	-27330.705000	-12666.915000	-0.000017	-0.000016	0.000033	0.000118	0.000103	0.000144	-0.000018	0.000053	-3.036740	3.128300	-2.273740	-0.813169	0.086181	0.546568	-1.000000	-1.000000	-1.000000	-1.000000	-1.000000	-1.000000	-1.000000	52.000000	0.000000	-1.000000	-1.000000	177227.000000	1775792208.867618
-12914.595000	-20443.905000	7097.490000	48278.295000	25293.780000	14378.130000	-27330.705000	-12666.915000	-0.000017	-0.000016	0.000033	0.000117	0.000102	0.000142	-0.000018	0.000052	-3.036740	3.128300	-2.273740	-0.813169	0.086181	0.546568	-1.000000	-1.000000	-1.000000	-1.000000	-1.000000	-1.000000	-1.000000	52.000000	0.000000	-1.000000	-1.000000	177228.000000	1775792208.867626
-12914.595000	-20443.905000	7097.490000	48278.295000	25293.780000	14378.130000	-27330.705000	-12666.915000	-0.000017	-0.000016	0.000032	0.000116	0.000101	0.000141	-0.000017	0.000052	-3.036740	3.128300	-2.273740	-0.813169	0.086181	0.546568	-1.000000	-1.000000	-1.000000	-1.000000	-1.000000	-1.000000	-1.000000	52.000000	0.000000	-1.000000	-1.000000	177229.000000	1775792208.867634
-12914.595000	-20443.905000	7097.490000	48278.295000	25293.780000	14378.130000	-27330.705000	-12666.915000	-0.000016	-0.000016	0.000032	0.000115	0.000100	0.000140	-0.000017	0.000051	-3.036740	3.128300	-2.273740	-0.813169	0.086181	0.546568	-1.000000	-1.000000	-1.000000	-1.000000	-1.000000	-1.000000	-1.000000	52.000000	0.000000	-1.000000	-1.000000	177230.000000	1775792208.867642
-12914.595000	-20443.905000	7097.490000	48278.295000	25293.780000	14378.130000	-27330.705000	-12666.915000	-0.000016	-0.000016	0.000032	0.000114	0.000100	0.000139	-0.000017	0.000051	-3.036740	3.128300	-2.273740	-0.813169	0.086181	0.546568	-1.000000	-1.000000	-1.000000	-1.000000	-1.000000	-1.000000	-1.000000	52.000000	0.000000	-1.000000	-1.000000	177231.000000	1775792208.867650
-12914.595000	-20443.905000	7097.490000	48278.295000	25293.780000	14378.130000	-27330.705000	-12666.915000	-0.000016	-0.000015	0.000032	0.000113	0.000099	0.000138	-0.000017	0.000050	-3.036740	3.128300	-2.273740	-0.813169	0.086181	0.546568	-1.000000	-1.000000	-1.000000	-1.000000	-1.000000	-1.000000	-1.000000	52.000000	0.000000	-1.000000	-1.000000	177232.000000	1775792208.867658
-12914.595000	-20443.905000	7097.490000	48278.295000	25293.780000	14378.130000	-27330.705000	-12666.915000	-0.000016	-0.000015	0.000031	0.000112	0.000098	0.000137	-0.000017	0.000050	-3.036740	3.128300	-2.273740	-0.813169	0.086181	0.546568	-1.000000	-1.000000	-1.000000	-1.000000	-1.000000	-1.000000	-1.000000	52.000000	0.000000	-1.000000	-1.000000	177233.000000	1775792208.867666
-12914.595000	-20443.905000	7097.490000	48278.295000	25293.780000	14378.130000	-27330.705000	-12666.915000	-0.000016	-0.000015	0.000031	0.000111	0.000097	0.000136	-0.000017	0.000050	-3.036740	3.128300	-2.273740	-0.813169	0.086181	0.546568	-1.000000	-1.000000	-1.000000	-1.000000	-1.000000	-1.000000	-1.000000	52.000000	0.000000	-1.000000	-1.000000	177234.000000	1775792208.867673
-12914.595000	-20443.905000	7097.490000	48278.295000	25293.780000	14378.130000	-27330.705000	-12666.915000	-0.000016	-0.000015	0.000031	0.000110	0.000096	0.000134	-0.000017	0.000049	-3.036740	3.128300	-2.273740	-0.813169	0.086181	0.546568	-1.000000	-1.000000	-1.000000	-1.000000	-1.000000	-1.000000	-1.000000	52.000000	0.000000	-1.000000	-1.000000	177235.000000	1775792208.867681
-12914.595000	-20443.905000	7097.490000	48278.295000	25293.780000	14378.130000	-27330.705000	-12666.915000	-0.000016	-0.000015	0.000031	0.000109	0.000096	0.000133	-0.000016	0.000049	-3.036740	3.128300	-2.273740	-0.813169	0.086181	0.546568	-1.000000	-1.000000	-1.000000	-1.000000	-1.000000	-1.000000	-1.000000	52.000000	0.000000	-1.000000	-1.000000	177236.000000	1775792208.867689
-12914.595000	-20443.905000	7097.490000	48278.295000	25293.780000	14378.130000	-27330.705000	-12666.915000	-0.000015	-0.000015	0.000030	0.000109	0.000095	0.000132	-0.000016	0.000048	-3.036740	3.128300	-2.273740	-0.813169	0.086181	0.546568	-1.000000	-1.000000	-1.000000	-1.000000	-1.000000	-1.000000	-1.000000	52.000000	0.000000	-1.000000	-1.000000	177237.000000	1775792208.867697
-12914.595000	-20443.905000	7097.490000	48278.295000	25293.780000	14378.130000	-27330.705000	-12666.915000	-0.000015	-0.000015	0.000030	0.000108	0.000094	0.000131	-0.000016	0.000048	-3.036740	3.128300	-2.273740	-0.813169	0.086181	0.546568	-1.000000	-1.000000	-1.000000	-1.000000	-1.000000	-1.000000	-1.000000	52.000000	0.000000	-1.000000	-1.000000	177238.000000	1775792208.867705
-12914.595000	-20443.905000	7097.490000	48278.295000	25293.780000	14378.130000	-27330.705000	-12666.915000	-0.000015	-0.000015	0.000030	0.000107	0.000093	0.000130	-0.000016	0.000047	-3.036740	3.128300	-2.273740	-0.813169	0.086181	0.546568	-1.000000	-1.000000	-1.000000	-1.000000	-1.000000	-1.000000	-1.000000	52.000000	0.000000	-1.000000	-1.000000	177239.000000	1775792208.867712
-12914.595000	-20443.905000	7097.490000	48278.295000	25293.780000	14378.130000	-27330.705000	-12666.915000	-0.000015	-0.000014	0.000030	0.000106	0.000092	0.000129	-0.000016	0.000047	-3.036740	3.128300	-2.273740	-0.813169	0.086181	0.546568	-1.000000	-1.000000	-1.000000	-1.000000	-1.000000	-1.000000	-1.000000	52.000000	0.000000	-1.000000	-1.000000	177240.000000	1775792208.867720
-12914.595000	-20443.905000	7097.490000	48278.295000	25293.780000	14378.130000	-27330.705000	-12666.915000	-0.000015	-0.000014	0.000030	0.000105	0.000092	0.000128	-0.000016	0.000047	-3.036740	3.128300	-2.273740	-0.813169	0.086181	0.546568	-1.000000	-1.000000	-1.000000	-1.000000	-1.000000	-1.000000	-1.000000	52.000000	0.000000	-1.000000	-1.000000	177241.000000	1775792208.867728
-12914.595000	-20443.905000	7097.490000	48278.295000	25293.780000	14378.130000	-27330.705000	-12666.915000	-0.000015	-0.000014	0.000029	0.000104	0.000091	0.000127	-0.000016	0.000046	-3.036740	3.128300	-2.273740	-0.813169	0.086181	0.546568	-1.000000	-1.000000	-1.000000	-1.000000	-1.000000	-1.000000	-1.000000	52.000000	0.000000	-1.000000	-1.000000	177242.000000	1775792208.867736
-12914.595000	-20443.905000	7097.490000	48278.295000	25293.780000	14378.130000	-27330.705000	-12666.915000	-0.000015	-0.000014	0.000029	0.000103	0.000090	0.000126	-0.000015	0.000046	-3.036740	3.128300	-2.273740	-0.813169	0.086181	0.546568	-1.000000	-1.000000	-1.000000	-1.000000	-1.000000	-1.000000	-1.000000	52.000000	0.000000	-1.000000	-1.000000	177243.000000	1775792208.867744
-12914.595000	-20443.905000	7097.490000	48278.295000	25293.780000	14378.130000	-27330.705000	-12666.915000	-0.000015	-0.000014	0.000029	0.000102	0.000090	0.000125	-0.000015	0.000045	-3.036740	3.128300	-2.273740	-0.813169	0.086181	0.546568	-1.000000	-1.000000	-1.000000	-1.000000	-1.000000	-1.000000	-1.000000	52.000000	0.000000	-1.000000	-1.000000	177244.000000	1775792208.867752
-12914.595000	-20443.905000	7097.490000	48278.295000	25293.780000	14378.130000	-27330.705000	-12666.915000	-0.000014	-0.000014	0.000029	0.000101	0.000089	0.000124	-0.000015	0.000045	-3.036740	3.128300	-2.273740	-0.813169	0.086181	0.546568	-1.000000	-1.000000	-1.000000	-1.000000	-1.000000	-1.000000	-1.000000	52.000000	0.000000	-1.000000	-1.000000	177245.000000	1775792208.867760
-12914.595000	-20443.905000	7097.490000	48278.295000	25293.780000	14378.130000	-27330.705000	-12666.915000	-0.000014	-0.000014	0.000028	0.000101	0.000088	0.000123	-0.000015	0.000045	-3.036740	3.128300	-2.273740	-0.813169	0.086181	0.546568	-1.000000	-1.000000	-1.000000	-1.000000	-1.000000	-1.000000	-1.000000	52.000000	0.000000	-1.000000	-1.000000	177246.000000	1775792208.867768
-12914.595000	-20443.905000	7097.490000	48278.295000	25293.780000	14378.130000	-27330.705000	-12666.915000	-0.000014	-0.000014	0.000028	0.000100	0.000087	0.000122	-0.000015	0.000044	-3.036740	3.128300	-2.273740	-0.813169	0.086181	0.546568	-1.000000	-1.000000	-1.000000	-1.000000	-1.000000	-1.000000	-1.000000	52.000000	0.000000	-1.000000	-1.000000	177247.000000	1775792208.867776
-12914.595000	-20443.905000	7097.490000	48278.295000	25293.780000	14378.130000	-27330.705000	-12666.915000	-0.000014	-0.000013	0.000028	0.000099	0.000087	0.000121	-0.000015	0.000044	-3.036740	3.128300	-2.273740	-0.813169	0.086181	0.546568	-1.000000	-1.000000	-1.000000	-1.000000	-1.000000	-1.000000	-1.000000	52.000000	0.000000	-1.000000	-1.000000	177248.000000	1775792208.867784
-12914.595000	-20443.905000	7097.490000	48278.295000	25293.780000	14378.130000	-27330.705000	-12666.915000	-0.000014	-0.000013	0.000028	0.000098	0.000086	0.000120	-0.000015	0.000044	-3.036740	3.128300	-2.273740	-0.813169	0.086181	0.546568	-1.000000	-1.000000	-1.000000	-1.000000	-1.000000	-1.000000	-1.000000	52.000000	0.000000	-1.000000	-1.000000	177249.000000	1775792208.867792
-12914.595000	-20443.905000	7097.490000	48278.295000	25293.780000	14378.130000	-27330.705000	-12666.915000	-0.000014	-0.000013	0.000027	0.000097	0.000085	0.000119	-0.000015	0.000043	-3.036740	3.128300	-2.273740	-0.813169	0.086181	0.546568	-1.000000	-1.000000	-1.000000	-1.000000	-1.000000	-1.000000	-1.000000	52.000000	0.000000	-1.000000	-1.000000	177250.000000	1775792208.867800
-12914.595000	-20443.905000	7097.490000	48278.295000	25293.780000	14378.130000	-27330.705000	-12666.915000	-0.000014	-0.000013	0.000027	0.000096	0.000085	0.000118	-0.000014	0.000043	-3.036740	3.128300	-2.273740	-0.813169	0.086181	0.546568	-1.000000	-1.000000	-1.000000	-1.000000	-1.000000	-1.000000	-1.000000	52.000000	0.000000	-1.000000	-1.000000	177251.000000	1775792208.867807
-12914.595000	-20443.905000	7097.490000	48278.295000	25293.780000	14378.130000	-27330.705000	-12666.915000	-0.000014	-0.000013	0.000027	0.000096	0.000084	0.000117	-0.000014	0.000042	-3.036740	3.128300	-2.273740	-0.813169	0.086181	0.546568	-1.000000	-1.000000	-1.000000	-1.000000	-1.000000	-1.000000	-1.000000	52.000000	0.000000	-1.000000	-1.000000	177252.000000	1775792208.867815
-12914.595000	-20443.905000	7097.490000	48278.295000	25293.780000	14378.130000	-27330.705000	-12666.915000	-0.000013	-0.000013	0.000027	0.000095	0.000083	0.000116	-0.000014	0.000042	-3.036740	3.128300	-2.273740	-0.813169	0.086181	0.546568	-1.000000	-1.000000	-1.000000	-1.000000	-1.000000	-1.000000	-1.000000	52.000000	0.000000	-1.000000	-1.000000	177253.000000	1775792208.867823
-12914.595000	-20443.905000	7097.490000	48278.295000	25293.780000	14378.130000	-27330.705000	-12666.915000	-0.000013	-0.000013	0.000027	0.000094	0.000082	0.000115	-0.000014	0.000042	-3.036740	3.128300	-2.273740	-0.813169	0.086181	0.546568	-1.000000	-1.000000	-1.000000	-1.000000	-1.000000	-1.000000	-1.000000	52.000000	0.000000	-1.000000	-1.000000	177254.000000	1775792208.867831
-12914.595000	-20443.905000	7097.490000	48278.295000	25293.780000	14378.130000	-27330.705000	-12666.915000	-0.000013	-0.000013	0.000026	0.000093	0.000082	0.000114	-0.000014	0.000041	-3.036740	3.128300	-2.273740	-0.813169	0.086181	0.546568	-1.000000	-1.000000	-1.000000	-1.000000	-1.000000	-1.000000	-1.000000	52.000000	0.000000	-1.000000	-1.000000	177255.000000	1775792208.867838
-12914.595000	-20443.905000	7097.490000	48278.295000	25293.780000	14378.130000	-27330.705000	-12666.915000	-0.000013	-0.000013	0.000026	0.000092	0.000081	0.000113	-0.000014	0.000041	-3.036740	3.128300	-2.273740	-0.813169	0.086181	0.546568	-1.000000	-1.000000	-1.000000	-1.000000	-1.000000	-1.000000	-1.000000	52.000000	0.000000	-1.000000	-1.000000	177256.000000	1775792208.867846
-12914.595000	-20443.905000	7097.490000	48278.295000	25293.780000	14378.130000	-27330.705000	-12666.915000	-0.000013	-0.000012	0.000026	0.000092	0.000080	0.000112	-0.000014	0.000041	-3.036740	3.128300	-2.273740	-0.813169	0.086181	0.546568	-1.000000	-1.000000	-1.000000	-1.000000	-1.000000	-1.000000	-1.000000	52.000000	0.000000	-1.000000	-1.000000	177257.000000	1775792208.867854
-12914.595000	-20443.905000	7097.490000	48278.295000	25293.780000	14378.130000	-27330.705000	-12666.915000	-0.000013	-0.000012	0.000026	0.000091	0.000080	0.000111	-0.000014	0.000040	-3.036740	3.128300	-2.273740	-0.813169	0.086181	0.546568	-1.000000	-1.000000	-1.000000	-1.000000	-1.000000	-1.000000	-1.000000	52.000000	0.000000	-1.000000	-1.000000	177258.000000	1775792208.867862
-12914.595000	-20443.905000	7097.490000	48278.295000	25293.780000	14378.130000	-27330.705000	-12666.915000	-0.000013	-0.000012	0.000026	0.000090	0.000079	0.000110	-0.000014	0.000040	-3.036740	3.128300	-2.273740	-0.813169	0.086181	0.546568	-1.000000	-1.000000	-1.000000	-1.000000	-1.000000	-1.000000	-1.000000	52.000000	0.000000	-1.000000	-1.000000	177259.000000	1775792208.867870
-12914.595000	-20443.905000	7097.490000	48278.295000	25293.780000	14378.130000	-27330.705000	-12666.915000	-0.000013	-0.000012	0.000025	0.000089	0.000079	0.000109	-0.000013	0.000040	-3.036740	3.128300	-2.273740	-0.813169	0.086181	0.546568	-1.000000	-1.000000	-1.000000	-1.000000	-1.000000	-1.000000	-1.000000	52.000000	0.000000	-1.000000	-1.000000	177260.000000	1775792208.867878
-12914.595000	-20443.905000	7097.490000	48278.295000	25293.780000	14378.130000	-27330.705000	-12666.915000	-0.000012	-0.000012	0.000025	0.000089	0.000078	0.000109	-0.000013	0.000039	-3.036740	3.128300	-2.273740	-0.813169	0.086181	0.546568	-1.000000	-1.000000	-1.000000	-1.000000	-1.000000	-1.000000	-1.000000	52.000000	0.000000	-1.000000	-1.000000	177261.000000	1775792208.867886
-12914.595000	-20443.905000	7097.490000	48278.295000	25293.780000	14378.130000	-27330.705000	-12666.915000	-0.000012	-0.000012	0.000025	0.000088	0.000077	0.000108	-0.000013	0.000039	-3.036740	3.128300	-2.273740	-0.813169	0.086181	0.546568	-1.000000	-1.000000	-1.000000	-1.000000	-1.000000	-1.000000	-1.000000	52.000000	0.000000	-1.000000	-1.000000	177262.000000	1775792208.867894
-12914.595000	-20443.905000	7097.490000	48278.295000	25293.780000	14378.130000	-27330.705000	-12666.915000	-0.000012	-0.000012	0.000025	0.000087	0.000077	0.000107	-0.000013	0.000039	-3.036740	3.128300	-2.273740	-0.813169	0.086181	0.546568	-1.000000	-1.000000	-1.000000	-1.000000	-1.000000	-1.000000	-1.000000	52.000000	0.000000	-1.000000	-1.000000	177263.000000	1775792208.867902
-12914.595000	-20443.905000	7097.490000	48278.295000	25293.780000	14378.130000	-27330.705000	-12666.915000	-0.000012	-0.000012	0.000025	0.000086	0.000076	0.000106	-0.000013	0.000038	-3.036740	3.128300	-2.273740	-0.813169	0.086181	0.546568	-1.000000	-1.000000	-1.000000	-1.000000	-1.000000	-1.000000	-1.000000	52.000000	0.000000	-1.000000	-1.000000	177264.000000	1775792208.867910
-12914.595000	-20443.905000	7097.490000	48278.295000	25293.780000	14378.130000	-27330.705000	-12666.915000	-0.000012	-0.000012	0.000024	0.000086	0.000075	0.000105	-0.000013	0.000038	-3.036740	3.128300	-2.273740	-0.813169	0.086181	0.546568	-1.000000	-1.000000	-1.000000	-1.000000	-1.000000	-1.000000	-1.000000	52.000000	0.000000	-1.000000	-1.000000	177265.000000	1775792208.867918
-12897.540000	-20421.405000	7113.600000	48261.195000	25280.820000	14320.395000	-27328.545000	-12671.640000	0.300361	0.396259	0.283753	-0.301080	-0.228177	-1.016725	0.038029	-0.083179	4.455920	2.258480	-0.549360	-0.824095	0.075928	0.545165	-1.000000	-1.000000	-1.000000	-1.000000	-1.000000	-1.000000	-1.000000	52.000000	0.000000	-1.000000	-1.000000	177268.000000	1775792208.867947
-12912.570000	-20443.815000	7097.400000	48259.035000	25299.540000	14407.830000	-27327.690000	-12684.780000	1.109786	1.418637	1.013056	-1.416091	-0.714709	-3.113004	0.189126	-0.612184	4.455920	2.258480	-0.549360	-0.824095	0.075928	0.545165	-1.000000	-1.000000	-1.000000	-1.000000	-1.000000	-1.000000	-1.000000	52.000000	0.000000	-1.000000	-1.000000	177269.000000	1775792208.867959
-12918.465000	-20453.490000	7096.005000	48272.580000	25330.905000	14483.835000	-27321.165000	-12690.225000	1.288492	1.458384	1.129223	-2.545944	0.082681	-0.428566	0.513560	-1.876170	4.455920	2.258480	-0.549360	-0.824095	0.075928	0.545165	-1.000000	-1.000000	-1.000000	-1.000000	-1.000000	-1.000000	-1.000000	52.000000	0.000000	-1.000000	-1.000000	177270.000000	1775792208.867972
-12922.335000	-20457.990000	7093.440000	48273.210000	25334.280000	14468.580000	-27321.705000	-12692.880000	-0.422843	-1.094227	-0.349578	-1.648229	3.610032	11.029751	0.952715	-3.160554	4.455920	2.258480	-0.549360	-0.824095	0.075928	0.545165	-1.000000	-1.000000	-1.000000	-1.000000	-1.000000	-1.000000	-1.000000	52.000000	0.000000	-1.000000	-1.000000	177271.000000	1775792208.867983
-12922.380000	-20455.605000	7095.780000	48273.435000	25326.405000	14433.660000	-27328.815000	-12695.895000	-3.030874	-4.561931	-2.379527	1.506003	7.336735	21.089837	0.987677	-3.044712	4.455920	2.258480	-0.549360	-0.824095	0.075928	0.545165	-1.000000	-1.000000	-1.000000	-1.000000	-1.000000	-1.000000	-1.000000	52.000000	0.000000	-1.000000	-1.000000	177272.000000	1775792208.867996
-12914.145000	-20442.690000	7110.045000	48285.720000	25316.910000	14425.335000	-27330.525000	-12693.150000	-4.096225	-5.394083	-2.841954	4.755088	6.424113	15.656295	-0.067688	-0.906294	4.455920	2.258480	-0.549360	-0.824095	0.075928	0.545165	-1.000000	-1.000000	-1.000000	-1.000000	-1.000000	-1.000000	-1.000000	52.000000	0.000000	-1.000000	-1.000000	177273.000000	1775792208.868006
-12918.465000	-20445.930000	7109.235000	48287.610000	25323.075000	14420.835000	-27331.470000	-12697.605000	-2.336474	-2.065100	-0.734494	6.226183	-0.178521	-4.644092	-1.894923	2.410378	1.922760	1.358140	-0.350980	-0.820860	0.082153	0.545958	-1.000000	-1.000000	-1.000000	-1.000000	-1.000000	-1.000000	-1.000000	52.000000	0.000000	-1.000000	-1.000000	177274.000000	1775792208.868019
-12917.340000	-20446.875000	7108.380000	48285.810000	25329.420000	14425.560000	-27322.470000	-12691.665000	1.056030	3.182424	2.481847	5.244118	-7.977594	-25.450638	-2.979748	5.252020	1.922760	1.358140	-0.350980	-0.820860	0.082153	0.545958	-1.000000	-1.000000	-1.000000	-1.000000	-1.000000	-1.000000	-1.000000	52.000000	0.000000	-1.000000	-1.000000	177275.000000	1775792208.868029
-12924.225000	-20460.330000	7092.675000	48269.835000	25315.110000	14423.220000	-27315.810000	-12690.675000	3.605717	6.307123	3.831742	1.623114	-11.808999	-33.267542	-1.937860	6.411676	1.922760	1.358140	-0.350980	-0.820860	0.082153	0.545958	-1.000000	-1.000000	-1.000000	-1.000000	-1.000000	-1.000000	-1.000000	52.000000	0.000000	-1.000000	-1.000000	177276.000000	1775792208.868410
-12926.115000	-20465.145000	7086.960000	48263.670000	25304.895000	14399.460000	-27331.380000	-12695.715000	3.757415	5.038591	1.611877	-3.953234	-10.758861	-25.531686	0.651965	5.526003	1.922760	1.358140	-0.350980	-0.820860	0.082153	0.545958	-1.000000	-1.000000	-1.000000	-1.000000	-1.000000	-1.000000	-1.000000	52.000000	0.000000	-1.000000	-1.000000	177277.000000	1775792208.868427
-12895.605000	-20429.865000	7122.735000	48297.870000	25321.095000	14399.325000	-27343.440000	-12678.480000	2.413777	1.280522	-2.093388	-8.440011	-6.717004	-9.473912	2.051126	3.052006	1.922760	1.358140	-0.350980	-0.820860	0.082153	0.545958	-1.000000	-1.000000	-1.000000	-1.000000	-1.000000	-1.000000	-1.000000	52.000000	0.000000	-1.000000	-1.000000	177278.000000	1775792208.879540
-12887.505000	-20420.730000	7132.950000	48306.285000	25319.160000	14409.135000	-27327.555000	-12669.075000	2.254666	-0.293962	-2.592988	-7.542666	-0.888126	6.392111	0.808210	0.614969	1.922760	1.358140	-0.350980	-0.820860	0.082153	0.545958	-1.000000	-1.000000	-1.000000	-1.000000	-1.000000	-1.000000	-1.000000	52.000000	0.000000	-1.000000	-1.000000	177279.000000	1775792208.879563
-12899.970000	-20432.745000	7120.755000	48289.680000	25307.055000	14418.360000	-27323.595000	-12677.490000	3.635931	1.690534	1.187068	-1.356356	5.147063	17.820853	-0.817589	-0.659845	1.922760	1.358140	-0.350980	-0.820860	0.082153	0.545958	-1.000000	-1.000000	-1.000000	-1.000000	-1.000000	-1.000000	-1.000000	52.000000	0.000000	-1.000000	-1.000000	177280.000000	1775792208.879587
-12904.020000	-20434.005000	7121.115000	48290.535000	25319.385000	14417.955000	-27333.090000	-12686.445000	3.293301	3.236369	4.585230	4.326290	8.718504	23.356521	-0.463868	-1.958716	1.922760	1.358140	-0.350980	-0.820860	0.082153	0.545958	-1.000000	-1.000000	-1.000000	-1.000000	-1.000000	-1.000000	-1.000000	52.000000	0.000000	-1.000000	-1.000000	177281.000000	1775792208.879598
-12895.020000	-20427.390000	7122.915000	48295.170000	25337.610000	14399.190000	-27341.865000	-12678.030000	-0.565664	1.109360	3.611094	5.088184	9.243800	21.824819	0.787584	-4.429348	1.922760	1.358140	-0.350980	-0.820860	0.082153	0.545958	-1.000000	-1.000000	-1.000000	-1.000000	-1.000000	-1.000000	-1.000000	52.000000	0.000000	-1.000000	-1.000000	177282.000000	1775792208.881405
-12898.215000	-20432.250000	7117.110000	48293.145000	25335.270000	14369.760000	-27336.555000	-12678.615000	-5.418063	-3.260099	-0.818482	2.031836	8.327862	12.747019	0.886515	-6.624821	1.922760	1.358140	-0.350980	-0.820860	0.082153	0.545958	-1.000000	-1.000000	-1.000000	-1.000000	-1.000000	-1.000000	-1.000000	52.000000	0.000000	-1.000000	-1.000000	177283.000000	1775792208.881460
-12896.190000	-20424.645000	7129.305000	48304.755000	25343.145000	14375.520000	-27332.190000	-12677.715000	-7.912298	-6.611008	-5.182561	-1.322587	6.458956	-1.022440	0.134734	-6.464691	-3.799740	1.999060	0.793520	-0.821897	0.087646	0.544982	-1.000000	-1.000000	-1.000000	-1.000000	-1.000000	-1.000000	-1.000000	52.000000	0.000000	-1.000000	-1.000000	177284.000000	1775792208.884948
-12905.730000	-20435.220000	7118.640000	48294.765000	25334.820000	14401.845000	-27331.245000	-12684.330000	-7.186895	-7.141248	-6.678735	-2.693524	2.911131	-12.021910	0.080871	-3.973164	-3.799740	1.999060	0.793520	-0.821897	0.087646	0.544982	-1.000000	-1.000000	-1.000000	-1.000000	-1.000000	-1.000000	-1.000000	52.000000	0.000000	-1.000000	-1.000000	177285.000000	1775792208.884965
-12909.240000	-20441.655000	7110.270000	48287.295000	25333.470000	14455.170000	-27323.145000	-12685.095000	-4.587963	-5.401394	-5.277414	-2.426585	-2.251453	-12.389580	1.118591	-0.862453	-3.799740	1.999060	0.793520	-0.821897	0.087646	0.544982	-1.000000	-1.000000	-1.000000	-1.000000	-1.000000	-1.000000	-1.000000	52.000000	0.000000	-1.000000	-1.000000	177286.000000	1775792208.891526
-12916.530000	-20451.915000	7098.660000	48274.380000	25314.480000	14439.015000	-27322.695000	-12688.830000	-1.805376	-3.157319	-3.114489	-2.311312	-7.759173	-1.789636	2.412917	1.395209	-3.799740	1.999060	0.793520	-0.821897	0.087646	0.544982	-1.000000	-1.000000	-1.000000	-1.000000	-1.000000	-1.000000	-1.000000	52.000000	0.000000	-1.000000	-1.000000	177287.000000	1775792208.891548
-12918.015000	-20449.845000	7103.295000	48278.070000	25307.145000	14416.605000	-27332.595000	-12693.915000	0.403848	-1.307720	-1.507455	-2.885707	-11.858427	9.642333	2.625260	2.374401	-3.799740	1.999060	0.793520	-0.821897	0.087646	0.544982	-1.000000	-1.000000	-1.000000	-1.000000	-1.000000	-1.000000	-1.000000	52.000000	0.000000	-1.000000	-1.000000	177288.000000	1775792208.893548
-12907.350000	-20438.415000	7114.320000	48288.735000	25312.860000	14410.530000	-27337.950000	-12687.930000	2.382138	0.871120	0.419532	-2.527087	-12.591425	10.591788	0.674637	2.468621	-3.799740	1.999060	0.793520	-0.821897	0.087646	0.544982	-1.000000	-1.000000	-1.000000	-1.000000	-1.000000	-1.000000	-1.000000	52.000000	0.000000	-1.000000	-1.000000	177289.000000	1775792208.893566
-12909.060000	-20441.295000	7110.585000	48284.640000	25314.120000	14393.205000	-27337.005000	-12688.290000	4.713374	4.161848	3.686949	0.273696	-8.451917	0.151133	-2.790543	2.523980	-3.799740	1.999060	0.793520	-0.821897	0.087646	0.544982	-1.000000	-1.000000	-1.000000	-1.000000	-1.000000	-1.000000	-1.000000	52.000000	0.000000	-1.000000	-1.000000	177290.000000	1775792208.898038
-12904.695000	-20436.525000	7115.850000	48289.455000	25315.065000	14380.920000	-27333.090000	-12684.555000	6.837993	7.467231	7.114809	4.381159	-0.402780	-13.319592	-5.294774	2.981808	-3.799740	1.999060	0.793520	-0.821897	0.087646	0.544982	-1.000000	-1.000000	-1.000000	-1.000000	-1.000000	-1.000000	-1.000000	52.000000	0.000000	-1.000000	-1.000000	177291.000000	1775792208.898060
-12903.750000	-20435.175000	7116.120000	48288.150000	25320.420000	14396.175000	-27334.980000	-12685.230000	7.331311	8.682771	8.440186	7.093749	7.941668	-20.507462	-4.861092	3.375398	-3.799740	1.999060	0.793520	-0.821897	0.087646	0.544982	-1.000000	-1.000000	-1.000000	-1.000000	-1.000000	-1.000000	-1.000000	52.000000	0.000000	-1.000000	-1.000000	177292.000000	1775792208.907526
-12909.780000	-20439.540000	7112.835000	48284.865000	25315.740000	14396.220000	-27342.225000	-12693.420000	5.375740	6.806850	6.631360	6.728042	12.837306	-16.626146	-2.038244	2.793397	-3.799740	1.999060	0.793520	-0.821897	0.087646	0.544982	-1.000000	-1.000000	-1.000000	-1.000000	-1.000000	-1.000000	-1.000000	52.000000	0.000000	-1.000000	-1.000000	177293.000000	1775792208.907551
-12908.880000	-20438.685000	7115.355000	48289.635000	25326.450000	14396.445000	-27337.905000	-12692.925000	1.361080	2.443040	2.388346	3.564885	12.631113	-4.031958	1.000653	0.742892	-6.180300	1.571780	0.213640	-0.822264	0.087402	0.543822	-1.000000	-1.000000	-1.000000	-1.000000	-1.000000	-1.000000	-1.000000	52.000000	0.000000	-1.000000	-1.000000	177294.000000	1775792208.911011
-12908.520000	-20438.910000	7116.165000	48291.795000	25346.070000	14420.925000	-27333.090000	-12693.375000	-3.060926	-2.531959	-2.305690	-0.451146	8.749506	10.075277	2.969823	-1.957458	-6.180300	1.571780	0.213640	-0.822264	0.087402	0.543822	-1.000000	-1.000000	-1.000000	-1.000000	-1.000000	-1.000000	-1.000000	52.000000	0.000000	-1.000000	-1.000000	177295.000000	1775792208.911036
-12907.755000	-20438.370000	7116.210000	48289.095000	25339.320000	14416.245000	-27334.980000	-12692.880000	-5.815317	-5.933795	-5.383032	-3.292997	4.051267	19.333730	3.903405	-3.657367	-6.180300	1.571780	0.213640	-0.822264	0.087402	0.543822	-1.000000	-1.000000	-1.000000	-1.000000	-1.000000	-1.000000	-1.000000	52.000000	0.000000	-1.000000	-1.000000	177296.000000	1775792208.911061
-12911.445000	-20443.365000	7110.585000	48282.885000	25320.600000	14400.855000	-27340.875000	-12694.995000	-5.979430	-6.715170	-6.111000	-4.464843	-0.711447	20.139674	3.692866	-3.489027	-6.180300	1.571780	0.213640	-0.822264	0.087402	0.543822	-1.000000	-1.000000	-1.000000	-1.000000	-1.000000	-1.000000	-1.000000	52.000000	0.000000	-1.000000	-1.000000	177297.000000	1775792208.911072
-12909.780000	-20444.130000	7108.830000	48282.030000	25316.955000	14405.310000	-27335.565000	-12689.280000	-4.180894	-5.366200	-5.154140	-4.576692	-6.408566	12.130427	2.127981	-1.829551	-6.180300	1.571780	0.213640	-0.822264	0.087402	0.543822	-1.000000	-1.000000	-1.000000	-1.000000	-1.000000	-1.000000	-1.000000	52.000000	0.000000	-1.000000	-1.000000	177298.000000	1775792208.923311
-12908.295000	-20444.220000	7107.255000	48277.575000	25297.245000	14371.200000	-27337.185000	-12686.940000	-1.576030	-2.969387	-3.435948	-4.018078	-12.044360	-0.812690	-0.020221	0.468569	-6.180300	1.571780	0.213640	-0.822264	0.087402	0.543822	-1.000000	-1.000000	-1.000000	-1.000000	-1.000000	-1.000000	-1.000000	52.000000	0.000000	-1.000000	-1.000000	177299.000000	1775792208.923334
-12897.495000	-20428.740000	7124.220000	48292.470000	25313.175000	14333.535000	-27341.370000	-12682.575000	1.105579	-0.077033	-1.107358	-2.490367	-14.517555	-13.557716	-1.659063	2.531215	-6.180300	1.571780	0.213640	-0.822264	0.087402	0.543822	-1.000000	-1.000000	-1.000000	-1.000000	-1.000000	-1.000000	-1.000000	52.000000	0.000000	-1.000000	-1.000000	177300.000000	1775792208.923361
-12901.455000	-20433.690000	7118.820000	48287.475000	25309.035000	14333.265000	-27343.440000	-12688.470000	3.380549	3.057975	1.981636	0.309342	-11.186130	-21.956728	-2.506113	3.415244	-6.180300	1.571780	0.213640	-0.822264	0.087402	0.543822	-1.000000	-1.000000	-1.000000	-1.000000	-1.000000	-1.000000	-1.000000	52.000000	0.000000	-1.000000	-1.000000	177301.000000	1775792208.923373
-12918.150000	-20451.420000	7099.515000	48267.135000	25291.305000	14400.000000	-27343.890000	-12701.565000	4.035799	4.925533	4.353460	2.989534	-3.083847	-20.612507	-2.667004	2.210754	-6.180300	1.571780	0.213640	-0.822264	0.087402	0.543822	-1.000000	-1.000000	-1.000000	-1.000000	-1.000000	-1.000000	-1.000000	52.000000	0.000000	-1.000000	-1.000000	177302.000000	1775792208.923387
-12923.010000	-20454.255000	7098.480000	48270.060000	25296.300000	14448.690000	-27337.950000	-12704.670000	1.788757	3.485879	3.606839	3.138531	5.073247	-5.159221	-1.969960	-1.091141	-6.180300	1.571780	0.213640	-0.822264	0.087402	0.543822	-1.000000	-1.000000	-1.000000	-1.000000	-1.000000	-1.000000	-1.000000	52.000000	0.000000	-1.000000	-1.000000	177303.000000	1775792208.923398
-12923.190000	-20454.345000	7099.785000	48273.795000	25315.875000	14451.480000	-27334.080000	-12704.850000	-2.300944	-0.575694	0.142235	0.963677	10.050907	18.970099	-0.235015	-4.618903	-3.662400	0.793520	0.503580	-0.818113	0.081482	0.542052	-1.000000	-1.000000	-1.000000	-1.000000	-1.000000	-1.000000	-1.000000	52.000000	0.000000	-1.000000	-1.000000	177304.000000	1775792208.927966
-12915.810000	-20450.520000	7102.980000	48278.520000	25334.235000	14444.820000	-27329.760000	-12694.815000	-4.910862	-3.828629	-2.711481	-0.653921	12.510033	35.856329	2.060131	-5.564197	-3.662400	0.793520	0.503580	-0.818113	0.081482	0.542052	-1.000000	-1.000000	-1.000000	-1.000000	-1.000000	-1.000000	-1.000000	52.000000	0.000000	-1.000000	-1.000000	177305.000000	1775792208.927988
-12915.945000	-20449.350000	7105.545000	48282.525000	25335.360000	14427.630000	-27332.415000	-12696.390000	-3.711989	-3.701442	-2.521922	0.076819	13.349602	32.370028	3.670609	-2.734523	-3.662400	0.793520	0.503580	-0.818113	0.081482	0.542052	-1.000000	-1.000000	-1.000000	-1.000000	-1.000000	-1.000000	-1.000000	52.000000	0.000000	-1.000000	-1.000000	177306.000000	1775792208.931770
-12915.720000	-20442.915000	7099.155000	48252.825000	25290.405000	14416.695000	-27334.080000	-12698.820000	0.370756	-0.524110	0.096362	1.736747	10.411407	9.718730	3.378251	2.012525	-3.662400	0.793520	0.503580	-0.818113	0.081482	0.542052	-1.000000	-1.000000	-1.000000	-1.000000	-1.000000	-1.000000	-1.000000	52.000000	0.000000	-1.000000	-1.000000	177307.000000	1775792208.931794
-12913.515000	-20439.405000	7105.995000	48264.030000	25305.210000	14427.405000	-27325.980000	-12698.010000	4.354287	3.467232	2.745741	1.528372	1.461323	-18.241131	1.248433	5.390324	-3.662400	0.793520	0.503580	-0.818113	0.081482	0.542052	-1.000000	-1.000000	-1.000000	-1.000000	-1.000000	-1.000000	-1.000000	52.000000	0.000000	-1.000000	-1.000000	177308.000000	1775792208.933261
-12915.990000	-20444.580000	7107.345000	48277.485000	25326.270000	14430.195000	-27329.490000	-12700.350000	5.895703	5.803018	3.838702	-0.325975	-9.411652	-35.523671	-1.227279	5.612474	-3.662400	0.793520	0.503580	-0.818113	0.081482	0.542052	-1.000000	-1.000000	-1.000000	-1.000000	-1.000000	-1.000000	-1.000000	52.000000	0.000000	-1.000000	-1.000000	177309.000000	1775792208.933278
-12916.755000	-20448.675000	7102.755000	48276.720000	25325.505000	14415.795000	-27328.815000	-12697.335000	4.500620	4.904842	3.239400	-0.817105	-14.225289	-34.952026	-2.763895	3.269597	-3.662400	0.793520	0.503580	-0.818113	0.081482	0.542052	-1.000000	-1.000000	-1.000000	-1.000000	-1.000000	-1.000000	-1.000000	52.000000	0.000000	-1.000000	-1.000000	177310.000000	1775792208.938040
-12922.470000	-20457.270000	7093.035000	48268.620000	25307.370000	14372.460000	-27334.215000	-12699.765000	1.156365	0.993150	1.116640	0.678858	-10.953254	-21.775075	-3.254296	0.161484	-3.662400	0.793520	0.503580	-0.818113	0.081482	0.542052	-1.000000	-1.000000	-1.000000	-1.000000	-1.000000	-1.000000	-1.000000	52.000000	0.000000	-1.000000	-1.000000	177311.000000	1775792208.938056
-12931.065000	-20462.355000	7088.895000	48263.985000	25296.480000	14350.770000	-27345.780000	-12714.255000	-2.607679	-3.930848	-2.081643	1.671937	-4.923394	-7.018268	-3.291498	-2.440558	-3.662400	0.793520	0.503580	-0.818113	0.081482	0.542052	-1.000000	-1.000000	-1.000000	-1.000000	-1.000000	-1.000000	-1.000000	52.000000	0.000000	-1.000000	-1.000000	177312.000000	1775792208.940896
-12922.380000	-20452.905000	7098.390000	48272.985000	25306.920000	14377.680000	-27345.960000	-12709.620000	-5.215607	-7.056570	-4.722888	0.702063	-0.958918	3.391577	-3.328260	-4.250720	-3.662400	0.793520	0.503580	-0.818113	0.081482	0.542052	-1.000000	-1.000000	-1.000000	-1.000000	-1.000000	-1.000000	-1.000000	52.000000	0.000000	-1.000000	-1.000000	177313.000000	1775792208.940911
-12906.090000	-20436.705000	7115.625000	48289.770000	25332.165000	14455.710000	-27325.980000	-12691.800000	-4.909781	-5.984058	-4.404156	-0.630929	1.509033	12.863552	-2.504314	-4.374404	1.541260	1.113980	0.518840	-0.819212	0.075378	0.541808	-1.000000	-1.000000	-1.000000	-1.000000	-1.000000	-1.000000	-1.000000	52.000000	0.000000	-1.000000	-1.000000	177314.000000	1775792208.944113
-12916.530000	-20446.920000	7105.365000	48278.205000	25314.840000	14448.690000	-27320.130000	-12696.975000	-1.304229	-0.893295	-0.613988	-0.407741	4.741850	25.474417	0.702158	-1.705331	1.541260	1.113980	0.518840	-0.819212	0.075378	0.541808	-1.000000	-1.000000	-1.000000	-1.000000	-1.000000	-1.000000	-1.000000	52.000000	0.000000	-1.000000	-1.000000	177315.000000	1775792208.944134
-12925.305000	-20456.730000	7095.105000	48264.615000	25283.430000	14401.620000	-27329.310000	-12705.840000	2.728837	4.305937	3.432435	0.243856	6.848540	34.512457	5.317087	2.177543	1.541260	1.113980	0.518840	-0.819212	0.075378	0.541808	-1.000000	-1.000000	-1.000000	-1.000000	-1.000000	-1.000000	-1.000000	52.000000	0.000000	-1.000000	-1.000000	177316.000000	1775792208.949077
-12915.630000	-20449.845000	7100.775000	48269.070000	25271.235000	14375.655000	-27341.505000	-12701.745000	3.844338	5.602944	4.061442	-0.917747	3.924690	27.771775	7.449839	4.000342	1.541260	1.113980	0.518840	-0.819212	0.075378	0.541808	-1.000000	-1.000000	-1.000000	-1.000000	-1.000000	-1.000000	-1.000000	52.000000	0.000000	-1.000000	-1.000000	177317.000000	1775792208.949097
-12884.490000	-20419.920000	7130.520000	48298.770000	25292.970000	14392.665000	-27328.995000	-12675.510000	2.757290	3.696925	2.003264	-2.709090	-2.585493	5.018792	4.867797	3.307708	1.541260	1.113980	0.518840	-0.819212	0.075378	0.541808	-1.000000	-1.000000	-1.000000	-1.000000	-1.000000	-1.000000	-1.000000	52.000000	0.000000	-1.000000	-1.000000	177318.000000	1775792208.954995
-12897.045000	-20431.800000	7118.145000	48286.575000	25293.825000	14395.095000	-27340.740000	-12687.030000	2.414842	2.150723	0.749771	-1.975468	-6.097623	-18.909884	-0.230469	2.350596	1.541260	1.113980	0.518840	-0.819212	0.075378	0.541808	-1.000000	-1.000000	-1.000000	-1.000000	-1.000000	-1.000000	-1.000000	52.000000	0.000000	-1.000000	-1.000000	177319.000000	1775792208.955020
-12903.840000	-20435.445000	7116.435000	48285.405000	25316.550000	14417.235000	-27336.330000	-12690.630000	2.506880	1.553094	0.811150	0.871381	-2.723020	-29.006166	-4.301303	1.587173	1.541260	1.113980	0.518840	-0.819212	0.075378	0.541808	-1.000000	-1.000000	-1.000000	-1.000000	-1.000000	-1.000000	-1.000000	52.000000	0.000000	-1.000000	-1.000000	177320.000000	1775792208.963417
-12904.965000	-20437.110000	7116.030000	48289.860000	25340.445000	14431.095000	-27327.105000	-12689.820000	0.431383	-0.217444	-0.043834	2.547423	5.441053	-21.865753	-5.360353	-0.382112	1.541260	1.113980	0.518840	-0.819212	0.075378	0.541808	-1.000000	-1.000000	-1.000000	-1.000000	-1.000000	-1.000000	-1.000000	52.000000	0.000000	-1.000000	-1.000000	177321.000000	1775792208.963441
-12907.305000	-20442.735000	7109.415000	48287.295000	25355.070000	14427.900000	-27321.120000	-12692.520000	-3.724160	-3.526642	-2.463548	1.748681	13.313964	-5.189407	-3.056649	-3.337168	1.541260	1.113980	0.518840	-0.819212	0.075378	0.541808	-1.000000	-1.000000	-1.000000	-1.000000	-1.000000	-1.000000	-1.000000	52.000000	0.000000	-1.000000	-1.000000	177322.000000	1775792208.963467
-12906.045000	-20442.780000	7106.625000	48286.350000	25349.805000	14429.340000	-27320.130000	-12692.070000	-7.119943	-6.480651	-5.051722	-0.412682	15.669492	9.319091	1.065039	-5.463793	1.541260	1.113980	0.518840	-0.819212	0.075378	0.541808	-1.000000	-1.000000	-1.000000	-1.000000	-1.000000	-1.000000	-1.000000	52.000000	0.000000	-1.000000	-1.000000	177323.000000	1775792208.963478
-12902.310000	-20435.130000	7115.490000	48289.680000	25338.420000	14429.565000	-27315.315000	-12689.730000	-7.322958	-6.953341	-5.962920	-2.365342	9.473261	14.163628	4.247672	-5.392721	4.959500	0.503580	0.473060	-0.826963	0.075561	0.543639	-1.000000	-1.000000	-1.000000	-1.000000	-1.000000	-1.000000	-1.000000	52.000000	0.000000	-1.000000	-1.000000	177324.000000	1775792208.965616
-12898.395000	-20430.990000	7118.685000	48289.500000	25333.650000	14411.250000	-27325.800000	-12687.030000	-4.016523	-4.031261	-3.929025	-2.937328	-3.504237	9.301251	4.494813	-3.015984	4.959500	0.503580	0.473060	-0.826963	0.075561	0.543639	-1.000000	-1.000000	-1.000000	-1.000000	-1.000000	-1.000000	-1.000000	52.000000	0.000000	-1.000000	-1.000000	177325.000000	1775792208.965639
-12896.190000	-20427.480000	7124.985000	48295.710000	25337.205000	14407.335000	-27339.480000	-12687.930000	1.049145	1.063062	0.510534	-1.856946	-16.667477	-0.618687	1.367106	0.507539	4.959500	0.503580	0.473060	-0.826963	0.075561	0.543639	-1.000000	-1.000000	-1.000000	-1.000000	-1.000000	-1.000000	-1.000000	52.000000	0.000000	-1.000000	-1.000000	177326.000000	1775792208.968893
-12897.720000	-20429.640000	7124.085000	48295.710000	25337.115000	14416.200000	-27336.285000	-12689.370000	5.218096	5.519084	4.979555	0.212947	-22.799455	-9.323248	-3.678803	3.362834	4.959500	0.503580	0.473060	-0.826963	0.075561	0.543639	-1.000000	-1.000000	-1.000000	-1.000000	-1.000000	-1.000000	-1.000000	52.000000	0.000000	-1.000000	-1.000000	177327.000000	1775792208.968918
-12895.245000	-20430.900000	7119.045000	48288.645000	25325.955000	14401.935000	-27327.510000	-12684.420000	6.567196	6.898493	6.858412	1.942064	-19.382089	-11.928440	-7.163320	4.347314	4.959500	0.503580	0.473060	-0.826963	0.075561	0.543639	-1.000000	-1.000000	-1.000000	-1.000000	-1.000000	-1.000000	-1.000000	52.000000	0.000000	-1.000000	-1.000000	177328.000000	1775792208.972099
-12894.255000	-20428.335000	7121.835000	48290.535000	25326.405000	14392.620000	-27327.240000	-12683.880000	5.022553	4.846201	5.126223	2.094355	-9.650509	-8.379681	-6.123161	3.653056	4.959500	0.503580	0.473060	-0.826963	0.075561	0.543639	-1.000000	-1.000000	-1.000000	-1.000000	-1.000000	-1.000000	-1.000000	52.000000	0.000000	-1.000000	-1.000000	177329.000000	1775792208.972120
-12897.180000	-20428.470000	7124.040000	48294.180000	25333.335000	14398.290000	-27331.020000	-12689.280000	1.925296	1.112382	1.229521	0.880594	1.345251	-2.196590	-1.312585	2.054048	4.959500	0.503580	0.473060	-0.826963	0.075561	0.543639	-1.000000	-1.000000	-1.000000	-1.000000	-1.000000	-1.000000	-1.000000	52.000000	0.000000	-1.000000	-1.000000	177330.000000	1775792208.977112
-12898.440000	-20429.595000	7123.410000	48293.595000	25329.150000	14420.430000	-27331.020000	-12690.000000	-1.250840	-2.126788	-2.255988	-0.285303	10.034959	4.175119	3.645519	0.004637	4.959500	0.503580	0.473060	-0.826963	0.075561	0.543639	-1.000000	-1.000000	-1.000000	-1.000000	-1.000000	-1.000000	-1.000000	52.000000	0.000000	-1.000000	-1.000000	177331.000000	1775792208.977136
-12893.760000	-20426.355000	7125.075000	48294.045000	25326.720000	14421.330000	-27325.755000	-12683.700000	-3.351857	-3.665243	-3.788108	-0.561702	14.280817	9.973648	5.986806	-1.823445	4.959500	0.503580	0.473060	-0.826963	0.075561	0.543639	-1.000000	-1.000000	-1.000000	-1.000000	-1.000000	-1.000000	-1.000000	52.000000	0.000000	-1.000000	-1.000000	177332.000000	1775792208.980984
-12894.255000	-20426.670000	7125.345000	48293.100000	25323.165000	14384.295000	-27329.445000	-12685.905000	-3.615551	-3.346345	-3.366278	-0.226385	13.321821	12.711870	5.469239	-2.424736	4.959500	0.503580	0.473060	-0.826963	0.075561	0.543639	-1.000000	-1.000000	-1.000000	-1.000000	-1.000000	-1.000000	-1.000000	52.000000	0.000000	-1.000000	-1.000000	177333.000000	1775792208.981006
-12898.890000	-20431.035000	7120.215000	48285.630000	25311.105000	14368.500000	-27329.715000	-12690.990000	-2.329212	-1.895667	-1.933164	-0.012560	8.242578	8.616115	3.124298	-1.752394	4.165980	0.564620	-0.900340	-0.829466	0.078735	0.544920	-1.000000	-1.000000	-1.000000	-1.000000	-1.000000	-1.000000	-1.000000	52.000000	0.000000	-1.000000	-1.000000	177334.000000	1775792208.989367
-12899.835000	-20427.750000	7121.970000	48283.605000	25305.165000	14376.645000	-27336.420000	-12694.680000	-0.755760	-0.426634	-0.614520	-0.455930	1.361133	-1.243859	0.046925	-0.913889	4.165980	0.564620	-0.900340	-0.829466	0.078735	0.544920	-1.000000	-1.000000	-1.000000	-1.000000	-1.000000	-1.000000	-1.000000	52.000000	0.000000	-1.000000	-1.000000	177335.000000	1775792208.989392
-12886.965000	-20411.235000	7127.685000	48271.950000	25292.700000	14368.860000	-27335.340000	-12683.385000	0.428202	0.837713	0.263722	-1.463511	-4.708155	-9.786094	-2.717020	-0.447647	4.165980	0.564620	-0.900340	-0.829466	0.078735	0.544920	-1.000000	-1.000000	-1.000000	-1.000000	-1.000000	-1.000000	-1.000000	52.000000	0.000000	-1.000000	-1.000000	177336.000000	1775792208.997434
-12901.500000	-20429.235000	7117.245000	48274.200000	25302.510000	14368.500000	-27330.030000	-12695.580000	1.412133	2.147531	0.948153	-2.351427	-7.671457	-11.288883	-4.024556	0.123054	4.165980	0.564620	-0.900340	-0.829466	0.078735	0.544920	-1.000000	-1.000000	-1.000000	-1.000000	-1.000000	-1.000000	-1.000000	52.000000	0.000000	-1.000000	-1.000000	177337.000000	1775792208.997459
-12907.530000	-20442.825000	7108.155000	48276.450000	25321.410000	14388.615000	-27329.940000	-12696.750000	1.629124	2.218949	0.982250	-2.077286	-5.891333	-5.727074	-3.142156	0.676945	4.165980	0.564620	-0.900340	-0.829466	0.078735	0.544920	-1.000000	-1.000000	-1.000000	-1.000000	-1.000000	-1.000000	-1.000000	52.000000	0.000000	-1.000000	-1.000000	177338.000000	1775792208.997486
-12909.150000	-20445.255000	7106.220000	48275.955000	25339.320000	14457.195000	-27328.095000	-12696.300000	0.346547	-0.286688	-0.165359	-0.061312	0.567023	4.559812	-0.684198	0.618850	4.165980	0.564620	-0.900340	-0.829466	0.078735	0.544920	-1.000000	-1.000000	-1.000000	-1.000000	-1.000000	-1.000000	-1.000000	52.000000	0.000000	-1.000000	-1.000000	177339.000000	1775792208.997498
-12904.020000	-20436.030000	7116.345000	48285.720000	25343.640000	14458.005000	-27328.590000	-12695.040000	-1.356224	-3.531422	-1.385622	2.974070	8.461385	16.440960	1.709847	0.283863	4.165980	0.564620	-0.900340	-0.829466	0.078735	0.544920	-1.000000	-1.000000	-1.000000	-1.000000	-1.000000	-1.000000	-1.000000	52.000000	0.000000	-1.000000	-1.000000	177340.000000	1775792208.997512
-12903.255000	-20434.365000	7116.840000	48286.170000	25333.470000	14401.260000	-27329.130000	-12694.005000	-1.564617	-4.038560	-0.798043	5.575709	12.355655	22.161703	2.707346	0.398887	4.165980	0.564620	-0.900340	-0.829466	0.078735	0.544920	-1.000000	-1.000000	-1.000000	-1.000000	-1.000000	-1.000000	-1.000000	52.000000	0.000000	-1.000000	-1.000000	177341.000000	1775792208.997524
-12901.590000	-20433.960000	7117.245000	48284.325000	25320.780000	14389.470000	-27329.895000	-12691.440000	0.133769	-0.922594	1.652494	6.304634	8.480382	13.029185	2.029953	1.048379	4.165980	0.564620	-0.900340	-0.829466	0.078735	0.544920	-1.000000	-1.000000	-1.000000	-1.000000	-1.000000	-1.000000	-1.000000	52.000000	0.000000	-1.000000	-1.000000	177342.000000	1775792209.005098
-12906.405000	-20439.990000	7111.755000	48278.655000	25309.710000	14413.005000	-27331.515000	-12696.345000	2.296633	3.254035	3.866406	4.248622	-1.899565	-7.750043	0.339621	1.648670	4.165980	0.564620	-0.900340	-0.829466	0.078735	0.544920	-1.000000	-1.000000	-1.000000	-1.000000	-1.000000	-1.000000	-1.000000	52.000000	0.000000	-1.000000	-1.000000	177343.000000	1775792209.005118
-12906.090000	-20440.890000	7112.160000	48282.705000	25334.280000	14464.845000	-27326.250000	-12695.130000	3.146765	5.310108	3.884980	0.040478	-12.444439	-24.112036	-1.247001	1.458936	0.930860	1.861720	-0.793520	-0.825193	0.083252	0.546080	-1.000000	-1.000000	-1.000000	-1.000000	-1.000000	-1.000000	-1.000000	52.000000	0.000000	-1.000000	-1.000000	177344.000000	1775792209.005142
-12904.245000	-20435.355000	7118.010000	48289.725000	25338.735000	14452.695000	-27326.295000	-12695.670000	2.217928	4.345080	1.846018	-3.936977	-15.872269	-23.568665	-1.758280	0.396070	0.930860	1.861720	-0.793520	-0.825193	0.083252	0.546080	-1.000000	-1.000000	-1.000000	-1.000000	-1.000000	-1.000000	-1.000000	52.000000	0.000000	-1.000000	-1.000000	177345.000000	1775792209.005154
-12895.830000	-20425.095000	7128.720000	48298.905000	25335.855000	14436.180000	-27322.515000	-12688.065000	0.631137	2.076480	-0.280741	-5.208297	-10.339725	-10.051459	-1.034253	-0.709848	0.930860	1.861720	-0.793520	-0.825193	0.083252	0.546080	-1.000000	-1.000000	-1.000000	-1.000000	-1.000000	-1.000000	-1.000000	52.000000	0.000000	-1.000000	-1.000000	177346.000000	1775792209.014006
-12894.165000	-20422.575000	7129.980000	48298.275000	25334.280000	14430.735000	-27323.595000	-12687.795000	-0.218822	0.608461	-0.848691	-3.386133	-0.931979	2.814306	0.203611	-0.939056	0.930860	1.861720	-0.793520	-0.825193	0.083252	0.546080	-1.000000	-1.000000	-1.000000	-1.000000	-1.000000	-1.000000	-1.000000	52.000000	0.000000	-1.000000	-1.000000	177347.000000	1775792209.014029
-12900.465000	-20430.225000	7123.230000	48289.635000	25334.010000	14425.560000	-27327.150000	-12692.610000	-0.267277	0.092971	-0.366360	-0.653476	5.984975	6.874763	0.933221	-0.422582	0.930860	1.861720	-0.793520	-0.825193	0.083252	0.546080	-1.000000	-1.000000	-1.000000	-1.000000	-1.000000	-1.000000	-1.000000	52.000000	0.000000	-1.000000	-1.000000	177348.000000	1775792209.015471
-12898.260000	-20429.550000	7123.005000	48286.755000	25320.780000	14404.185000	-27331.245000	-12689.640000	-0.590785	-0.857906	-0.619939	0.305724	7.535401	3.478614	0.482522	-0.154750	0.930860	1.861720	-0.793520	-0.825193	0.083252	0.546080	-1.000000	-1.000000	-1.000000	-1.000000	-1.000000	-1.000000	-1.000000	52.000000	0.000000	-1.000000	-1.000000	177349.000000	1775792209.015493
-12888.945000	-20420.460000	7129.710000	48292.470000	25307.460000	14395.590000	-27329.355000	-12681.765000	-1.414041	-2.543245	-2.024403	-0.876071	4.253120	-2.248876	-0.845140	-0.375474	0.930860	1.861720	-0.793520	-0.825193	0.083252	0.546080	-1.000000	-1.000000	-1.000000	-1.000000	-1.000000	-1.000000	-1.000000	52.000000	0.000000	-1.000000	-1.000000	177350.000000	1775792209.016155
-12885.795000	-20416.995000	7132.635000	48294.135000	25297.830000	14404.455000	-27331.155000	-12680.685000	-1.649333	-3.478519	-3.077785	-2.136487	-1.304960	-5.451614	-1.889391	-0.328089	0.930860	1.861720	-0.793520	-0.825193	0.083252	0.546080	-1.000000	-1.000000	-1.000000	-1.000000	-1.000000	-1.000000	-1.000000	52.000000	0.000000	-1.000000	-1.000000	177351.000000	1775792209.016175
-12894.795000	-20426.715000	7122.285000	48284.505000	25294.275000	14396.400000	-27335.880000	-12689.370000	-0.973069	-2.863990	-2.763344	-1.906221	-5.628327	-3.329755	-1.854569	0.039759	0.930860	1.861720	-0.793520	-0.825193	0.083252	0.546080	-1.000000	-1.000000	-1.000000	-1.000000	-1.000000	-1.000000	-1.000000	52.000000	0.000000	-1.000000	-1.000000	177352.000000	1775792209.019983
-12896.235000	-20425.230000	7127.415000	48299.130000	25347.375000	14422.275000	-27330.075000	-12692.880000	-0.592079	-1.789242	-1.767341	-0.491403	-5.028660	3.335371	-0.879366	-0.291337	0.930860	1.861720	-0.793520	-0.825193	0.083252	0.546080	-1.000000	-1.000000	-1.000000	-1.000000	-1.000000	-1.000000	-1.000000	52.000000	0.000000	-1.000000	-1.000000	177353.000000	1775792209.020001
-12893.940000	-20424.330000	7127.865000	48300.435000	25376.580000	14444.910000	-27320.580000	-12689.415000	-1.185539	-1.217373	-0.791594	1.499450	2.784318	11.545041	0.816771	-1.546342	-3.097780	1.312360	-0.289940	-0.822386	0.087768	0.546385	-1.000000	-1.000000	-1.000000	-1.000000	-1.000000	-1.000000	-1.000000	52.000000	0.000000	-1.000000	-1.000000	177354.000000	1775792209.023966
-12887.820000	-20416.185000	7135.155000	48303.090000	25366.860000	14443.425000	-27320.715000	-12685.770000	-1.707452	-0.645453	0.393778	3.508140	14.235883	17.638691	2.979464	-2.352442	-3.097780	1.312360	-0.289940	-0.822386	0.087768	0.546385	-1.000000	-1.000000	-1.000000	-1.000000	-1.000000	-1.000000	-1.000000	52.000000	0.000000	-1.000000	-1.000000	177355.000000	1775792209.023986
-12884.085000	-20410.965000	7140.060000	48305.835000	25355.070000	14433.660000	-27322.740000	-12684.555000	-0.881536	0.755741	2.001651	4.425431	19.624375	17.319424	4.413129	-1.473568	-3.097780	1.312360	-0.289940	-0.822386	0.087768	0.546385	-1.000000	-1.000000	-1.000000	-1.000000	-1.000000	-1.000000	-1.000000	52.000000	0.000000	-1.000000	-1.000000	177356.000000	1775792209.027744
-12890.970000	-20419.515000	7130.340000	48296.205000	25343.910000	14425.695000	-27326.340000	-12689.280000	0.978410	2.548260	3.311070	3.346415	12.319858	8.513452	3.658832	0.564425	-3.097780	1.312360	-0.289940	-0.822386	0.087768	0.546385	-1.000000	-1.000000	-1.000000	-1.000000	-1.000000	-1.000000	-1.000000	52.000000	0.000000	-1.000000	-1.000000	177357.000000	1775792209.027757
-12898.485000	-20430.405000	7118.505000	48282.840000	25324.290000	14410.620000	-27328.815000	-12694.230000	2.058686	2.903677	2.753324	0.097308	-4.392500	-5.561639	0.670777	2.014340	-3.097780	1.312360	-0.289940	-0.822386	0.087768	0.546385	-1.000000	-1.000000	-1.000000	-1.000000	-1.000000	-1.000000	-1.000000	52.000000	0.000000	-1.000000	-1.000000	177358.000000	1775792209.032060
-12893.715000	-20425.770000	7122.960000	48286.530000	25327.755000	14417.730000	-27322.965000	-12691.035000	1.236529	0.853634	-0.135308	-4.225738	-20.649348	-17.957980	-2.813949	1.845443	-3.097780	1.312360	-0.289940	-0.822386	0.087768	0.546385	-1.000000	-1.000000	-1.000000	-1.000000	-1.000000	-1.000000	-1.000000	52.000000	0.000000	-1.000000	-1.000000	177359.000000	1775792209.032079
-12894.885000	-20428.020000	7121.025000	48284.595000	25333.200000	14425.425000	-27320.490000	-12692.070000	-0.427513	-1.954467	-3.268087	-6.970071	-27.078290	-22.144875	-4.528357	0.731360	-3.097780	1.312360	-0.289940	-0.822386	0.087768	0.546385	-1.000000	-1.000000	-1.000000	-1.000000	-1.000000	-1.000000	-1.000000	52.000000	0.000000	-1.000000	-1.000000	177360.000000	1775792209.036714
-12901.140000	-20435.310000	7113.870000	48277.755000	25326.945000	14417.910000	-27324.315000	-12698.865000	-1.335986	-3.264863	-4.247948	-6.166647	-20.556590	-16.298293	-3.655816	-0.221798	-3.097780	1.312360	-0.289940	-0.822386	0.087768	0.546385	-1.000000	-1.000000	-1.000000	-1.000000	-1.000000	-1.000000	-1.000000	52.000000	0.000000	-1.000000	-1.000000	177361.000000	1775792209.036732
-12896.910000	-20428.695000	7121.655000	48286.935000	25332.660000	14411.745000	-27322.830000	-12696.030000	-1.143719	-2.518319	-2.728111	-2.382583	-5.786060	-4.885713	-1.419836	-0.702325	-3.097780	1.312360	-0.289940	-0.822386	0.087768	0.546385	-1.000000	-1.000000	-1.000000	-1.000000	-1.000000	-1.000000	-1.000000	52.000000	0.000000	-1.000000	-1.000000	177362.000000	1775792209.051155
-12900.330000	-20430.945000	7120.755000	48285.405000	25323.030000	14387.355000	-27326.745000	-12699.810000	-0.226809	-0.322183	0.308052	2.474723	8.958055	4.909438	0.474061	-0.720432	-3.097780	1.312360	-0.289940	-0.822386	0.087768	0.546385	-1.000000	-1.000000	-1.000000	-1.000000	-1.000000	-1.000000	-1.000000	52.000000	0.000000	-1.000000	-1.000000	177363.000000	1775792209.051180
-12897.045000	-20428.200000	7123.275000	48285.945000	25322.670000	14391.405000	-27324.315000	-12695.850000	0.956589	2.280790	3.465243	6.344451	17.244818	8.683655	1.253620	-0.232126	-6.470240	1.266580	-0.549360	-0.820555	0.090637	0.544920	-1.000000	-1.000000	-1.000000	-1.000000	-1.000000	-1.000000	-1.000000	52.000000	0.000000	-1.000000	-1.000000	177364.000000	1775792209.051206
-12898.395000	-20429.055000	7121.880000	48281.670000	25322.805000	14405.580000	-27325.305000	-12697.380000	1.894127	4.028743	5.218441	7.477039	17.276834	7.751889	1.172040	0.622018	-6.470240	1.266580	-0.549360	-0.820555	0.090637	0.544920	-1.000000	-1.000000	-1.000000	-1.000000	-1.000000	-1.000000	-1.000000	52.000000	0.000000	-1.000000	-1.000000	177365.000000	1775792209.051218
-12897.765000	-20428.740000	7122.645000	48281.895000	25327.710000	14425.740000	-27325.215000	-12696.255000	2.190289	4.130340	4.751824	5.459984	11.683656	6.837387	0.842679	1.432268	-6.470240	1.266580	-0.549360	-0.820555	0.090637	0.544920	-1.000000	-1.000000	-1.000000	-1.000000	-1.000000	-1.000000	-1.000000	52.000000	0.000000	-1.000000	-1.000000	177366.000000	1775792209.051232
-12895.515000	-20426.265000	7123.455000	48285.405000	25326.585000	14421.060000	-27326.340000	-12695.040000	1.757705	2.713388	2.482798	1.682212	4.649697	8.202003	0.583190	1.742517	-6.470240	1.266580	-0.549360	-0.820555	0.090637	0.544920	-1.000000	-1.000000	-1.000000	-1.000000	-1.000000	-1.000000	-1.000000	52.000000	0.000000	-1.000000	-1.000000	177367.000000	1775792209.051242
-12896.775000	-20426.445000	7120.260000	48285.360000	25317.900000	14411.070000	-27326.295000	-12698.280000	0.865717	0.637467	-0.392633	-1.672675	-1.137986	9.088486	0.392938	1.352932	-6.470240	1.266580	-0.549360	-0.820555	0.090637	0.544920	-1.000000	-1.000000	-1.000000	-1.000000	-1.000000	-1.000000	-1.000000	52.000000	0.000000	-1.000000	-1.000000	177368.000000	1775792209.066648
-12891.150000	-20418.165000	7131.870000	48295.170000	25322.850000	14413.005000	-27321.390000	-12693.645000	-0.062569	-1.057056	-2.555422	-3.122835	-4.962211	5.812006	0.321033	0.412671	-6.470240	1.266580	-0.549360	-0.820555	0.090637	0.544920	-1.000000	-1.000000	-1.000000	-1.000000	-1.000000	-1.000000	-1.000000	52.000000	0.000000	-1.000000	-1.000000	177369.000000	1775792209.066671
-12897.900000	-20424.690000	7125.930000	48289.320000	25318.440000	14411.745000	-27320.400000	-12699.495000	-0.758482	-1.803844	-3.089685	-2.612366	-6.630858	-1.169694	0.542959	-0.647900	-6.470240	1.266580	-0.549360	-0.820555	0.090637	0.544920	-1.000000	-1.000000	-1.000000	-1.000000	-1.000000	-1.000000	-1.000000	52.000000	0.000000	-1.000000	-1.000000	177370.000000	1775792209.066694
-12915.045000	-20443.320000	7105.815000	48267.810000	25308.585000	14403.960000	-27327.240000	-12712.680000	-1.657883	-2.303054	-2.673602	-1.799334	-6.318119	-8.034298	0.798547	-1.737372	-6.470240	1.266580	-0.549360	-0.820555	0.090637	0.544920	-1.000000	-1.000000	-1.000000	-1.000000	-1.000000	-1.000000	-1.000000	52.000000	0.000000	-1.000000	-1.000000	177371.000000	1775792209.066705
-12920.310000	-20450.565000	7098.255000	48261.285000	25305.705000	14404.500000	-27336.960000	-12717.900000	-3.426204	-3.811407	-3.173935	-2.758213	-4.982123	-11.557128	0.199867	-3.145990	-6.470240	1.266580	-0.549360	-0.820555	0.090637	0.544920	-1.000000	-1.000000	-1.000000	-1.000000	-1.000000	-1.000000	-1.000000	52.000000	0.000000	-1.000000	-1.000000	177372.000000	1775792209.066717
-12897.765000	-20429.415000	7117.875000	48280.995000	25335.000000	14419.485000	-27331.515000	-12700.620000	-4.777522	-5.356720	-4.271300	-4.650042	-2.745616	-10.380427	-1.458556	-3.966303	-6.470240	1.266580	-0.549360	-0.820555	0.090637	0.544920	-1.000000	-1.000000	-1.000000	-1.000000	-1.000000	-1.000000	-1.000000	52.000000	0.000000	-1.000000	-1.000000	177373.000000	1775792209.066728
-12874.230000	-20405.025000	7141.635000	48301.560000	25350.075000	14425.020000	-27317.385000	-12677.895000	-2.540615	-3.494279	-2.655579	-3.604365	1.628647	-4.783306	-2.500671	-1.857973	-5.310480	2.166920	-0.045780	-0.818357	0.088135	0.542906	-1.000000	-1.000000	-1.000000	-1.000000	-1.000000	-1.000000	-1.000000	52.000000	0.000000	-1.000000	-1.000000	177374.000000	1775792209.066739
-12885.120000	-20413.800000	7134.210000	48291.120000	25322.220000	14402.340000	-27319.365000	-12687.615000	3.714744	2.795186	3.053270	1.843361	6.918665	2.227248	-1.115165	3.496609	-5.310480	2.166920	-0.045780	-0.818357	0.088135	0.542906	-1.000000	-1.000000	-1.000000	-1.000000	-1.000000	-1.000000	-1.000000	52.000000	0.000000	-1.000000	-1.000000	177375.000000	1775792209.066750
-12888.495000	-20414.745000	7134.120000	48289.185000	25307.010000	14387.085000	-27328.725000	-12695.625000	9.127412	8.985926	8.865220	7.555421	8.011431	5.661946	1.672921	7.987869	-5.310480	2.166920	-0.045780	-0.818357	0.088135	0.542906	-1.000000	-1.000000	-1.000000	-1.000000	-1.000000	-1.000000	-1.000000	52.000000	0.000000	-1.000000	-1.000000	177376.000000	1775792209.083393
-12897.090000	-20422.620000	7126.650000	48286.395000	25327.845000	14390.055000	-27338.130000	-12706.830000	8.525894	9.608627	9.565090	8.487348	2.666180	3.463426	2.766899	6.980309	-5.310480	2.166920	-0.045780	-0.818357	0.088135	0.542906	-1.000000	-1.000000	-1.000000	-1.000000	-1.000000	-1.000000	-1.000000	52.000000	0.000000	-1.000000	-1.000000	177377.000000	1775792209.083418
-12901.725000	-20429.820000	7120.440000	48284.235000	25338.645000	14395.905000	-27335.250000	-12707.370000	1.942157	3.883048	4.177236	4.098759	-4.022970	-0.829661	0.884859	0.607703	-5.310480	2.166920	-0.045780	-0.818357	0.088135	0.542906	-1.000000	-1.000000	-1.000000	-1.000000	-1.000000	-1.000000	-1.000000	52.000000	0.000000	-1.000000	-1.000000	177378.000000	1775792209.083470
-12901.590000	-20430.765000	7117.830000	48279.285000	25324.380000	14376.510000	-27334.665000	-12704.130000	-6.074471	-4.360691	-3.857459	-2.311699	-6.312236	-2.697374	-1.961478	-6.415093	-5.310480	2.166920	-0.045780	-0.818357	0.088135	0.542906	-1.000000	-1.000000	-1.000000	-1.000000	-1.000000	-1.000000	-1.000000	52.000000	0.000000	-1.000000	-1.000000	177379.000000	1775792209.083480
-12904.740000	-20432.655000	7114.500000	48270.015000	25269.570000	14304.960000	-27337.455000	-12709.170000	-10.577386	-10.085524	-9.802165	-7.193380	-5.444458	-2.860658	-3.111670	-9.336099	-5.310480	2.166920	-0.045780	-0.818357	0.088135	0.542906	-1.000000	-1.000000	-1.000000	-1.000000	-1.000000	-1.000000	-1.000000	52.000000	0.000000	-1.000000	-1.000000	177380.000000	1775792209.083487
-12908.790000	-20435.580000	7112.340000	48267.945000	25265.160000	14303.070000	-27340.740000	-12716.190000	-9.627640	-10.447912	-10.772378	-8.767672	-6.363221	-5.179561	-2.030136	-7.235093	-5.310480	2.166920	-0.045780	-0.818357	0.088135	0.542906	-1.000000	-1.000000	-1.000000	-1.000000	-1.000000	-1.000000	-1.000000	52.000000	0.000000	-1.000000	-1.000000	177381.000000	1775792209.083493
-12889.530000	-20421.135000	7125.795000	48281.985000	25294.905000	14418.135000	-27318.645000	-12697.470000	-4.398156	-5.860589	-6.756394	-6.615636	-8.319542	-6.194602	0.405058	-2.238586	-5.310480	2.166920	-0.045780	-0.818357	0.088135	0.542906	-1.000000	-1.000000	-1.000000	-1.000000	-1.000000	-1.000000	-1.000000	52.000000	0.000000	-1.000000	-1.000000	177382.000000	1775792209.083500
-12890.025000	-20424.645000	7120.935000	48275.505000	25310.970000	14491.395000	-27310.680000	-12691.080000	2.747827	1.221636	0.160908	-1.358180	-4.895431	4.684031	3.672160	3.600315	-5.310480	2.166920	-0.045780	-0.818357	0.088135	0.542906	-1.000000	-1.000000	-1.000000	-1.000000	-1.000000	-1.000000	-1.000000	52.000000	0.000000	-1.000000	-1.000000	177383.000000	1775792209.083506
-12885.840000	-20414.745000	7132.365000	48288.375000	25330.770000	14454.405000	-27317.970000	-12690.405000	8.765393	7.475654	6.691479	4.702195	5.998657	26.301251	6.528802	8.433245	-2.380560	2.701020	0.015260	-0.822630	0.081665	0.544005	-1.000000	-1.000000	-1.000000	-1.000000	-1.000000	-1.000000	-1.000000	52.000000	0.000000	-1.000000	-1.000000	177384.000000	1775792209.085642
-12895.020000	-20418.255000	7133.175000	48296.520000	25351.110000	14444.370000	-27316.800000	-12698.865000	10.567103	10.139337	10.032394	8.886010	18.440134	39.021327	6.423865	9.742113	-2.380560	2.701020	0.015260	-0.822630	0.081665	0.544005	-1.000000	-1.000000	-1.000000	-1.000000	-1.000000	-1.000000	-1.000000	52.000000	0.000000	-1.000000	-1.000000	177385.000000	1775792209.085657
-12900.240000	-20423.700000	7129.260000	48295.710000	25358.895000	14456.790000	-27334.485000	-12708.810000	7.046967	8.256752	9.154949	9.794509	24.469574	27.341019	2.142605	6.035696	-2.380560	2.701020	0.015260	-0.822630	0.081665	0.544005	-1.000000	-1.000000	-1.000000	-1.000000	-1.000000	-1.000000	-1.000000	52.000000	0.000000	-1.000000	-1.000000	177386.000000	1775792209.089973
-12908.430000	-20432.430000	7120.350000	48287.250000	25362.270000	14464.935000	-27334.305000	-12715.875000	0.053722	2.722668	4.503512	6.919101	19.923900	-2.024965	-4.572446	-1.232866	-2.380560	2.701020	0.015260	-0.822630	0.081665	0.544005	-1.000000	-1.000000	-1.000000	-1.000000	-1.000000	-1.000000	-1.000000	52.000000	0.000000	-1.000000	-1.000000	177387.000000	1775792209.089991
-12896.775000	-20419.380000	7131.240000	48293.280000	25354.755000	14448.510000	-27328.950000	-12703.590000	-6.442410	-3.681569	-1.854594	0.990391	6.248378	-30.239713	-9.849638	-7.904510	-2.380560	2.701020	0.015260	-0.822630	0.081665	0.544005	-1.000000	-1.000000	-1.000000	-1.000000	-1.000000	-1.000000	-1.000000	52.000000	0.000000	-1.000000	-1.000000	177388.000000	1775792209.108328
-12898.890000	-20430.495000	7118.460000	48279.915000	25337.340000	14421.555000	-27327.015000	-12699.990000	-8.676100	-7.454012	-6.720695	-5.444943	-10.975138	-44.410334	-10.139344	-9.673834	-2.380560	2.701020	0.015260	-0.822630	0.081665	0.544005	-1.000000	-1.000000	-1.000000	-1.000000	-1.000000	-1.000000	-1.000000	52.000000	0.000000	-1.000000	-1.000000	177389.000000	1775792209.108358
-12894.525000	-20431.530000	7116.975000	48280.770000	25337.205000	14407.155000	-27317.880000	-12691.665000	-5.893635	-7.299748	-8.281924	-9.671346	-24.877791	-42.710517	-5.106277	-5.554726	-2.380560	2.701020	0.015260	-0.822630	0.081665	0.544005	-1.000000	-1.000000	-1.000000	-1.000000	-1.000000	-1.000000	-1.000000	52.000000	0.000000	-1.000000	-1.000000	177390.000000	1775792209.108382
-12893.985000	-20425.590000	7123.275000	48282.435000	25323.345000	14392.620000	-27325.260000	-12695.715000	-0.609463	-4.463837	-6.760936	-10.169819	-29.940530	-29.349913	2.118385	1.281995	-2.380560	2.701020	0.015260	-0.822630	0.081665	0.544005	-1.000000	-1.000000	-1.000000	-1.000000	-1.000000	-1.000000	-1.000000	52.000000	0.000000	-1.000000	-1.000000	177391.000000	1775792209.108394
-12901.050000	-20432.880000	7116.930000	48275.730000	25318.890000	14403.600000	-27332.910000	-12704.940000	3.724463	-0.655825	-3.086908	-6.908961	-24.630794	-9.725852	7.123585	6.068735	-2.380560	2.701020	0.015260	-0.822630	0.081665	0.544005	-1.000000	-1.000000	-1.000000	-1.000000	-1.000000	-1.000000	-1.000000	52.000000	0.000000	-1.000000	-1.000000	177392.000000	1775792209.108408
