Channel1	Channel2	Channel3	Channel4	Channel5	Channel6	Channel7	Channel8	FilteredChannel1	FilteredChannel2	FilteredChannel3	FilteredChannel4	FilteredChannel5	FilteredChannel6	FilteredChannel7	FilteredChannel8	GyroX	GyroY	GyroZ	AccX	AccY	AccZ	PPG1	PPG2	rawPPG1	rawPPG2	rawPPG3	Hr	Hrv	Battery	Trigger	PhysicalTrigger	AutoTrigger	NumMeasurements	Timestamp
-15439.950000	-17444.070000	11805.210000	38383.920000	13209.660000	884.880000	-28129.545000	-38542.905000	5.392603	9.065998	10.255187	5.946486	-16.010692	-36.409687	-6.243926	2.617381	-2.044840	1.510740	0.640920	-0.926878	0.021912	0.360045	-1.000000	-1.000000	-1.000000	-1.000000	-1.000000	-1.000000	-1.000000	51.000000	0.000000	-1.000000	-1.000000	463788.000000	1775792781.914800
-15442.695000	-17441.370000	11809.035000	38390.310000	13220.280000	881.010000	-28125.450000	-38543.130000	-1.179248	1.333962	2.118285	0.167252	-11.026276	-11.624630	-4.443008	-1.102088	-2.044840	1.510740	0.640920	-0.926878	0.021912	0.360045	-1.000000	-1.000000	-1.000000	-1.000000	-1.000000	-1.000000	-1.000000	51.000000	0.000000	-1.000000	-1.000000	463789.000000	1775792781.914941
-15428.295000	-17441.955000	11807.415000	38389.815000	13212.405000	878.355000	-28123.830000	-38545.695000	-6.490591	-5.728799	-5.685393	-4.740037	-2.899354	11.728618	-1.067263	-3.579180	-2.044840	1.510740	0.640920	-0.926878	0.021912	0.360045	-1.000000	-1.000000	-1.000000	-1.000000	-1.000000	-1.000000	-1.000000	51.000000	0.000000	-1.000000	-1.000000	463790.000000	1775792781.919901
-15426.540000	-17436.195000	11815.785000	38399.220000	13219.920000	884.835000	-28125.720000	-38546.280000	-8.102521	-9.572287	-9.777764	-6.038319	6.138530	25.243500	2.784420	-4.570662	-2.044840	1.510740	0.640920	-0.926878	0.021912	0.360045	-1.000000	-1.000000	-1.000000	-1.000000	-1.000000	-1.000000	-1.000000	51.000000	0.000000	-1.000000	-1.000000	463791.000000	1775792781.919930
-15431.490000	-17434.665000	11818.800000	38398.860000	13204.215000	866.070000	-28136.340000	-38552.400000	-5.645556	-9.350567	-9.127096	-3.788542	12.518032	27.224256	5.217917	-4.281969	-2.044840	1.510740	0.640920	-0.926878	0.021912	0.360045	-1.000000	-1.000000	-1.000000	-1.000000	-1.000000	-1.000000	-1.000000	51.000000	0.000000	-1.000000	-1.000000	463792.000000	1775792781.927700
-15427.980000	-17432.280000	11819.205000	38394.810000	13184.010000	853.425000	-28134.810000	-38549.340000	-1.745978	-6.108277	-5.176099	-0.302690	13.241396	19.897725	4.881150	-3.130090	-2.044840	1.510740	0.640920	-0.926878	0.021912	0.360045	-1.000000	-1.000000	-1.000000	-1.000000	-1.000000	-1.000000	-1.000000	51.000000	0.000000	-1.000000	-1.000000	463793.000000	1775792781.927724
-15428.565000	-17435.655000	11815.110000	38393.910000	13187.745000	850.005000	-28126.530000	-38544.570000	0.985198	-2.049490	-0.837204	1.720845	8.099288	7.694802	2.634625	-1.281260	-0.366240	0.122080	1.953280	-0.924924	0.019775	0.360778	-1.000000	-1.000000	-1.000000	-1.000000	-1.000000	-1.000000	-1.000000	51.000000	0.000000	-1.000000	-1.000000	463794.000000	1775792781.927752
-15426.045000	-17436.195000	11811.870000	38392.245000	13202.865000	837.945000	-28121.580000	-38535.705000	1.861797	0.787390	1.447942	1.324620	1.233765	-3.640742	0.868952	1.294038	-0.366240	0.122080	1.953280	-0.924924	0.019775	0.360778	-1.000000	-1.000000	-1.000000	-1.000000	-1.000000	-1.000000	-1.000000	51.000000	0.000000	-1.000000	-1.000000	463795.000000	1775792781.927763
-15428.790000	-17435.340000	11816.145000	38398.545000	13223.160000	868.365000	-28120.995000	-38541.555000	1.415641	1.697018	1.316203	-0.301220	-1.727835	-9.243490	0.769183	3.901284	-0.366240	0.122080	1.953280	-0.924924	0.019775	0.360778	-1.000000	-1.000000	-1.000000	-1.000000	-1.000000	-1.000000	-1.000000	51.000000	0.000000	-1.000000	-1.000000	463796.000000	1775792781.937889
-15437.340000	-17440.830000	11811.420000	38395.575000	13227.885000	924.435000	-28120.140000	-38550.060000	0.227352	1.268002	0.192452	-1.366095	0.849916	-6.150613	1.338836	4.766517	-0.366240	0.122080	1.953280	-0.924924	0.019775	0.360778	-1.000000	-1.000000	-1.000000	-1.000000	-1.000000	-1.000000	-1.000000	51.000000	0.000000	-1.000000	-1.000000	463797.000000	1775792781.937910
-15433.605000	-17439.885000	11811.735000	38395.665000	13225.905000	907.380000	-28115.595000	-38546.145000	-1.250659	0.395749	-0.537780	-1.215540	5.102600	4.143665	1.164169	2.784179	-0.366240	0.122080	1.953280	-0.924924	0.019775	0.360778	-1.000000	-1.000000	-1.000000	-1.000000	-1.000000	-1.000000	-1.000000	51.000000	0.000000	-1.000000	-1.000000	463798.000000	1775792781.937933
-15424.110000	-17436.510000	11813.310000	38399.175000	13226.535000	892.530000	-28106.820000	-38533.950000	-1.939023	-0.111779	-0.429167	-0.369283	5.806682	12.748432	0.134685	-0.455592	-0.366240	0.122080	1.953280	-0.924924	0.019775	0.360778	-1.000000	-1.000000	-1.000000	-1.000000	-1.000000	-1.000000	-1.000000	51.000000	0.000000	-1.000000	-1.000000	463799.000000	1775792781.937942
-15423.345000	-17431.245000	11818.485000	38404.935000	13222.575000	874.440000	-28111.005000	-38533.545000	-0.740889	0.393932	0.497607	0.681200	1.326952	10.254779	-0.992981	-2.112864	-0.366240	0.122080	1.953280	-0.924924	0.019775	0.360778	-1.000000	-1.000000	-1.000000	-1.000000	-1.000000	-1.000000	-1.000000	51.000000	0.000000	-1.000000	-1.000000	463800.000000	1775792781.944540
-15415.740000	-17421.930000	11826.630000	38410.875000	13225.095000	864.900000	-28116.405000	-38528.460000	1.822142	1.941038	2.029063	1.791715	-5.656120	-3.036240	-2.092062	-1.380524	-0.366240	0.122080	1.953280	-0.924924	0.019775	0.360778	-1.000000	-1.000000	-1.000000	-1.000000	-1.000000	-1.000000	-1.000000	51.000000	0.000000	-1.000000	-1.000000	463801.000000	1775792781.944564
-15420.375000	-17429.355000	11816.055000	38394.855000	13198.905000	860.760000	-28109.655000	-38529.090000	3.868229	3.548731	3.347313	2.310399	-11.365629	-17.810689	-3.339119	0.214259	-0.366240	0.122080	1.953280	-0.924924	0.019775	0.360778	-1.000000	-1.000000	-1.000000	-1.000000	-1.000000	-1.000000	-1.000000	51.000000	0.000000	-1.000000	-1.000000	463802.000000	1775792781.944593
-15412.770000	-17420.220000	11825.325000	38403.495000	13202.055000	875.700000	-28107.765000	-38523.690000	3.886826	3.727960	3.203934	1.220136	-13.749529	-24.020475	-3.937871	0.996847	-0.366240	0.122080	1.953280	-0.924924	0.019775	0.360778	-1.000000	-1.000000	-1.000000	-1.000000	-1.000000	-1.000000	-1.000000	51.000000	0.000000	-1.000000	-1.000000	463803.000000	1775792781.944605
-15398.595000	-17401.545000	11845.800000	38424.510000	13222.530000	887.220000	-28108.440000	-38514.915000	2.204124	2.403696	1.841099	-0.623927	-11.567752	-17.533547	-3.013707	0.674502	2.090620	-0.015260	1.739640	-0.924680	0.019226	0.359923	-1.000000	-1.000000	-1.000000	-1.000000	-1.000000	-1.000000	-1.000000	51.000000	0.000000	-1.000000	-1.000000	463804.000000	1775792781.947707
-15394.905000	-17395.605000	11854.620000	38438.280000	13247.910000	893.385000	-28111.815000	-38513.700000	0.514814	1.175974	1.166374	-0.575654	-3.693757	-2.202016	-1.085982	0.013511	2.090620	-0.015260	1.739640	-0.924680	0.019226	0.359923	-1.000000	-1.000000	-1.000000	-1.000000	-1.000000	-1.000000	-1.000000	51.000000	0.000000	-1.000000	-1.000000	463805.000000	1775792781.947733
-15393.645000	-17399.250000	11848.500000	38430.720000	13238.910000	915.435000	-28108.530000	-38511.540000	-0.436151	0.543361	1.507755	1.720881	7.625782	13.438315	0.626222	-0.540220	2.090620	-0.015260	1.739640	-0.924680	0.019226	0.359923	-1.000000	-1.000000	-1.000000	-1.000000	-1.000000	-1.000000	-1.000000	51.000000	0.000000	-1.000000	-1.000000	463806.000000	1775792781.952255
-15397.830000	-17406.180000	11839.095000	38418.570000	13205.430000	914.715000	-28100.070000	-38510.820000	-1.474703	-0.954526	0.620846	2.913408	15.182031	22.089784	1.743485	-1.165957	2.090620	-0.015260	1.739640	-0.924680	0.019226	0.359923	-1.000000	-1.000000	-1.000000	-1.000000	-1.000000	-1.000000	-1.000000	51.000000	0.000000	-1.000000	-1.000000	463807.000000	1775792781.952280
-15408.315000	-17412.165000	11835.810000	38420.730000	13209.615000	901.710000	-28093.005000	-38517.930000	-3.456765	-4.205346	-2.965807	0.239808	12.791192	20.465416	2.766615	-2.051037	2.090620	-0.015260	1.739640	-0.924680	0.019226	0.359923	-1.000000	-1.000000	-1.000000	-1.000000	-1.000000	-1.000000	-1.000000	51.000000	0.000000	-1.000000	-1.000000	463808.000000	1775792781.954541
-15419.655000	-17418.960000	11828.070000	38414.700000	13228.380000	894.555000	-28090.845000	-38527.515000	-6.185394	-7.891794	-7.593520	-4.786131	3.043070	9.535134	3.766014	-3.269185	2.090620	-0.015260	1.739640	-0.924680	0.019226	0.359923	-1.000000	-1.000000	-1.000000	-1.000000	-1.000000	-1.000000	-1.000000	51.000000	0.000000	-1.000000	-1.000000	463809.000000	1775792781.954558
-15428.700000	-17433.495000	11812.545000	38399.310000	13238.370000	902.430000	-28091.115000	-38537.685000	-8.354066	-9.806125	-10.355161	-8.594068	-5.070816	-5.049336	3.842230	-4.621920	2.090620	-0.015260	1.739640	-0.924680	0.019226	0.359923	-1.000000	-1.000000	-1.000000	-1.000000	-1.000000	-1.000000	-1.000000	51.000000	0.000000	-1.000000	-1.000000	463810.000000	1775792781.957860
-15409.170000	-17417.610000	11829.645000	38419.785000	13286.205000	933.930000	-28105.245000	-38524.410000	-7.801909	-8.401117	-9.371972	-8.821505	-5.313970	-14.903632	1.939277	-4.962953	2.090620	-0.015260	1.739640	-0.924680	0.019226	0.359923	-1.000000	-1.000000	-1.000000	-1.000000	-1.000000	-1.000000	-1.000000	51.000000	0.000000	-1.000000	-1.000000	463811.000000	1775792781.957877
-15387.030000	-17393.220000	11855.070000	38448.495000	13307.760000	958.860000	-28099.800000	-38506.635000	-2.475538	-2.673087	-3.573421	-4.064423	1.887583	-14.198662	-1.826936	-2.306231	2.090620	-0.015260	1.739640	-0.924680	0.019226	0.359923	-1.000000	-1.000000	-1.000000	-1.000000	-1.000000	-1.000000	-1.000000	51.000000	0.000000	-1.000000	-1.000000	463812.000000	1775792781.963443
-15385.365000	-17392.410000	11854.125000	38440.395000	13271.895000	931.500000	-28095.255000	-38507.625000	6.736984	6.503121	6.046160	4.815302	9.723227	-5.116582	-5.279647	3.647971	2.090620	-0.015260	1.739640	-0.924680	0.019226	0.359923	-1.000000	-1.000000	-1.000000	-1.000000	-1.000000	-1.000000	-1.000000	51.000000	0.000000	-1.000000	-1.000000	463813.000000	1775792781.963467
-15391.845000	-17393.490000	11853.270000	38434.770000	13248.495000	913.905000	-28097.190000	-38513.565000	14.474324	14.453494	14.448111	12.393225	8.758398	2.940339	-5.859993	9.391282	1.251320	0.122080	1.831200	-0.924009	0.021057	0.359130	-1.000000	-1.000000	-1.000000	-1.000000	-1.000000	-1.000000	-1.000000	51.000000	0.000000	-1.000000	-1.000000	463814.000000	1775792781.965967
-15395.265000	-17395.380000	11851.830000	38434.905000	13250.745000	911.700000	-28097.820000	-38516.715000	14.990013	15.782873	15.967575	12.895645	-3.292114	2.913824	-3.417419	10.409886	1.251320	0.122080	1.831200	-0.924009	0.021057	0.359130	-1.000000	-1.000000	-1.000000	-1.000000	-1.000000	-1.000000	-1.000000	51.000000	0.000000	-1.000000	-1.000000	463815.000000	1775792781.965988
-15393.105000	-17391.915000	11856.420000	38443.410000	13277.970000	922.230000	-28092.645000	-38512.485000	7.739111	9.571116	9.765285	6.421441	-17.073458	-2.739736	0.149910	5.908241	1.251320	0.122080	1.831200	-0.924009	0.021057	0.359130	-1.000000	-1.000000	-1.000000	-1.000000	-1.000000	-1.000000	-1.000000	51.000000	0.000000	-1.000000	-1.000000	463816.000000	1775792781.970597
-15399.405000	-17395.290000	11854.755000	38441.520000	13281.705000	931.230000	-28095.390000	-38518.425000	-2.551817	-0.227903	0.014776	-1.947340	-20.839020	-6.410289	3.027446	-0.860615	1.251320	0.122080	1.831200	-0.924009	0.021057	0.359130	-1.000000	-1.000000	-1.000000	-1.000000	-1.000000	-1.000000	-1.000000	51.000000	0.000000	-1.000000	-1.000000	463817.000000	1775792781.970618
-15401.700000	-17402.895000	11846.475000	38434.185000	13274.325000	944.325000	-28093.410000	-38517.615000	-10.411084	-8.659770	-8.278110	-7.694598	-12.325769	-3.740298	4.214648	-6.107925	1.251320	0.122080	1.831200	-0.924009	0.021057	0.359130	-1.000000	-1.000000	-1.000000	-1.000000	-1.000000	-1.000000	-1.000000	51.000000	0.000000	-1.000000	-1.000000	463818.000000	1775792781.974643
-15401.610000	-17409.195000	11840.175000	38428.560000	13262.310000	925.200000	-28090.125000	-38511.945000	-12.917946	-12.913466	-12.495613	-9.661340	0.623735	3.033172	3.646863	-7.787899	1.251320	0.122080	1.831200	-0.924009	0.021057	0.359130	-1.000000	-1.000000	-1.000000	-1.000000	-1.000000	-1.000000	-1.000000	51.000000	0.000000	-1.000000	-1.000000	463819.000000	1775792781.974662
-15398.775000	-17407.800000	11841.795000	38429.325000	13258.530000	909.945000	-28091.880000	-38510.010000	-10.000659	-12.424589	-12.246193	-8.578513	9.126801	7.669682	2.081577	-5.725556	1.251320	0.122080	1.831200	-0.924009	0.021057	0.359130	-1.000000	-1.000000	-1.000000	-1.000000	-1.000000	-1.000000	-1.000000	51.000000	0.000000	-1.000000	-1.000000	463820.000000	1775792781.979283
-15392.790000	-17402.760000	11844.945000	38431.575000	13258.170000	914.535000	-28089.585000	-38506.725000	-3.598772	-7.812680	-8.082525	-5.208386	10.372286	6.288188	0.333616	-1.465394	1.251320	0.122080	1.831200	-0.924009	0.021057	0.359130	-1.000000	-1.000000	-1.000000	-1.000000	-1.000000	-1.000000	-1.000000	51.000000	0.000000	-1.000000	-1.000000	463821.000000	1775792781.979307
-15390.180000	-17399.565000	11841.930000	38425.050000	13246.110000	933.075000	-28083.105000	-38505.600000	3.379563	-0.699583	-1.539502	-0.552391	6.956869	1.547329	-0.953202	2.566172	1.251320	0.122080	1.831200	-0.924009	0.021057	0.359130	-1.000000	-1.000000	-1.000000	-1.000000	-1.000000	-1.000000	-1.000000	51.000000	0.000000	-1.000000	-1.000000	463822.000000	1775792781.982680
-15390.180000	-17394.300000	11850.930000	38429.820000	13243.230000	933.795000	-28087.695000	-38511.720000	8.104824	6.280311	4.876855	3.710831	2.499836	-1.087066	-1.378092	4.404792	1.251320	0.122080	1.831200	-0.924009	0.021057	0.359130	-1.000000	-1.000000	-1.000000	-1.000000	-1.000000	-1.000000	-1.000000	51.000000	0.000000	-1.000000	-1.000000	463823.000000	1775792781.982780
-15373.530000	-17382.105000	11865.690000	38446.470000	13259.115000	904.905000	-28086.030000	-38501.730000	9.187002	10.662246	9.263216	6.539816	-0.267571	-0.461947	-1.274850	3.580131	-1.922760	1.266580	1.953280	-0.927793	0.021728	0.359618	-1.000000	-1.000000	-1.000000	-1.000000	-1.000000	-1.000000	-1.000000	51.000000	0.000000	-1.000000	-1.000000	463824.000000	1775792781.985951
-15384.330000	-17385.705000	11863.215000	38445.795000	13276.260000	889.830000	-28091.025000	-38502.630000	7.161850	11.272072	10.928843	8.047236	0.552416	-0.370512	-1.303106	1.417354	-1.922760	1.266580	1.953280	-0.927793	0.021728	0.359618	-1.000000	-1.000000	-1.000000	-1.000000	-1.000000	-1.000000	-1.000000	51.000000	0.000000	-1.000000	-1.000000	463825.000000	1775792781.985969
-15396.480000	-17401.545000	11847.150000	38431.035000	13271.445000	905.760000	-28098.405000	-38512.755000	2.816879	7.738756	9.006403	7.575842	4.357112	-2.752060	-1.763158	-0.620813	-1.922760	1.266580	1.953280	-0.927793	0.021728	0.359618	-1.000000	-1.000000	-1.000000	-1.000000	-1.000000	-1.000000	-1.000000	51.000000	0.000000	-1.000000	-1.000000	463826.000000	1775792781.989869
-15400.440000	-17412.120000	11838.195000	38423.295000	13224.195000	873.945000	-28101.240000	-38518.065000	-3.119426	0.526491	2.879329	3.703995	6.468337	-4.952908	-2.491636	-2.407648	-1.922760	1.266580	1.953280	-0.927793	0.021728	0.359618	-1.000000	-1.000000	-1.000000	-1.000000	-1.000000	-1.000000	-1.000000	51.000000	0.000000	-1.000000	-1.000000	463827.000000	1775792781.989885
-15405.030000	-17415.360000	11834.235000	38418.435000	13175.820000	855.810000	-28106.685000	-38522.430000	-8.402624	-7.656885	-5.370702	-2.792939	1.251466	-5.131531	-2.838904	-3.970343	-1.922760	1.266580	1.953280	-0.927793	0.021728	0.359618	-1.000000	-1.000000	-1.000000	-1.000000	-1.000000	-1.000000	-1.000000	51.000000	0.000000	-1.000000	-1.000000	463828.000000	1775792781.996882
-15390.810000	-17398.305000	11847.780000	38433.240000	13213.530000	888.120000	-28092.600000	-38502.090000	-9.917247	-12.161820	-11.024955	-8.088003	-9.876263	-3.411100	-1.859101	-4.086695	-1.922760	1.266580	1.953280	-0.927793	0.021728	0.359618	-1.000000	-1.000000	-1.000000	-1.000000	-1.000000	-1.000000	-1.000000	51.000000	0.000000	-1.000000	-1.000000	463829.000000	1775792781.996904
-15395.355000	-17393.445000	11852.280000	38442.735000	13258.845000	908.505000	-28069.650000	-38494.935000	-6.294092	-9.672435	-10.266805	-8.242817	-15.721464	1.662254	1.390832	-1.214731	-1.922760	1.266580	1.953280	-0.927793	0.021728	0.359618	-1.000000	-1.000000	-1.000000	-1.000000	-1.000000	-1.000000	-1.000000	51.000000	0.000000	-1.000000	-1.000000	463830.000000	1775792781.998705
-15392.925000	-17396.055000	11848.635000	38437.245000	13274.460000	911.790000	-28074.870000	-38509.335000	0.391314	-1.695985	-3.795045	-3.123857	-7.132039	10.061166	6.368694	3.575343	-1.922760	1.266580	1.953280	-0.927793	0.021728	0.359618	-1.000000	-1.000000	-1.000000	-1.000000	-1.000000	-1.000000	-1.000000	51.000000	0.000000	-1.000000	-1.000000	463831.000000	1775792781.998722
-15392.565000	-17397.315000	11849.130000	38435.895000	13283.550000	919.980000	-28081.665000	-38512.890000	6.139970	6.218075	3.633627	3.048993	10.816030	16.768615	9.573906	6.272649	-1.922760	1.266580	1.953280	-0.927793	0.021728	0.359618	-1.000000	-1.000000	-1.000000	-1.000000	-1.000000	-1.000000	-1.000000	51.000000	0.000000	-1.000000	-1.000000	463832.000000	1775792782.002454
-15391.080000	-17396.055000	11849.175000	38432.340000	13279.545000	955.530000	-28084.815000	-38509.380000	8.304365	9.413482	7.591227	5.842589	23.908102	16.966516	7.430410	4.532806	-1.922760	1.266580	1.953280	-0.927793	0.021728	0.359618	-1.000000	-1.000000	-1.000000	-1.000000	-1.000000	-1.000000	-1.000000	51.000000	0.000000	-1.000000	-1.000000	463833.000000	1775792782.002468
-15385.545000	-17391.555000	11852.505000	38433.105000	13272.300000	967.995000	-28078.605000	-38503.305000	6.864098	7.423278	7.062249	4.308705	22.398465	11.184311	0.714535	0.434892	-3.143560	0.839300	1.632820	-0.930479	0.020874	0.361693	-1.000000	-1.000000	-1.000000	-1.000000	-1.000000	-1.000000	-1.000000	51.000000	0.000000	-1.000000	-1.000000	463834.000000	1775792782.006636
-15387.345000	-17393.580000	11851.920000	38433.150000	13255.830000	943.110000	-28076.040000	-38503.800000	3.463639	2.830212	3.775295	0.619225	7.298174	2.046729	-6.021363	-2.510904	-3.143560	0.839300	1.632820	-0.930479	0.020874	0.361693	-1.000000	-1.000000	-1.000000	-1.000000	-1.000000	-1.000000	-1.000000	51.000000	0.000000	-1.000000	-1.000000	463835.000000	1775792782.006662
-15389.100000	-17394.840000	11854.935000	38440.485000	13255.020000	922.860000	-28076.445000	-38504.835000	-0.235745	-1.632964	0.071710	-2.308420	-12.324322	-9.568782	-8.914601	-2.986665	-3.143560	0.839300	1.632820	-0.930479	0.020874	0.361693	-1.000000	-1.000000	-1.000000	-1.000000	-1.000000	-1.000000	-1.000000	51.000000	0.000000	-1.000000	-1.000000	463836.000000	1775792782.013711
-15388.155000	-17389.395000	11866.455000	38458.530000	13270.815000	926.685000	-28084.725000	-38508.120000	-3.235237	-4.391230	-2.263587	-2.496954	-25.436636	-21.385183	-7.661378	-2.031334	-3.143560	0.839300	1.632820	-0.930479	0.020874	0.361693	-1.000000	-1.000000	-1.000000	-1.000000	-1.000000	-1.000000	-1.000000	51.000000	0.000000	-1.000000	-1.000000	463837.000000	1775792782.013734
-15389.595000	-17390.070000	11863.305000	38455.155000	13281.660000	939.285000	-28084.545000	-38506.365000	-4.855817	-4.830928	-2.505530	0.047102	-25.191167	-27.203967	-4.477735	-1.056844	-3.143560	0.839300	1.632820	-0.930479	0.020874	0.361693	-1.000000	-1.000000	-1.000000	-1.000000	-1.000000	-1.000000	-1.000000	51.000000	0.000000	-1.000000	-1.000000	463838.000000	1775792782.015194
-15390.135000	-17400.915000	11846.970000	38437.110000	13285.530000	929.835000	-28071.315000	-38498.265000	-4.810374	-3.583880	-1.843628	2.531861	-13.039826	-22.242629	-1.076933	-0.356675	-3.143560	0.839300	1.632820	-0.930479	0.020874	0.361693	-1.000000	-1.000000	-1.000000	-1.000000	-1.000000	-1.000000	-1.000000	51.000000	0.000000	-1.000000	-1.000000	463839.000000	1775792782.015208
-15398.325000	-17410.320000	11836.440000	38426.040000	13259.610000	933.435000	-28073.700000	-38505.015000	-3.555092	-2.378447	-2.499391	1.440100	2.291398	-8.848361	2.280050	0.443870	-3.143560	0.839300	1.632820	-0.930479	0.020874	0.361693	-1.000000	-1.000000	-1.000000	-1.000000	-1.000000	-1.000000	-1.000000	51.000000	0.000000	-1.000000	-1.000000	463840.000000	1775792782.021987
-15396.480000	-17402.805000	11847.240000	38436.075000	13260.960000	938.745000	-28080.135000	-38508.840000	-1.950605	-2.026268	-4.489731	-3.009623	11.403300	5.952635	4.853455	0.973088	-3.143560	0.839300	1.632820	-0.930479	0.020874	0.361693	-1.000000	-1.000000	-1.000000	-1.000000	-1.000000	-1.000000	-1.000000	51.000000	0.000000	-1.000000	-1.000000	463841.000000	1775792782.022008
-15386.580000	-17393.490000	11856.285000	38443.680000	13267.755000	939.330000	-28082.565000	-38503.935000	-0.204089	-1.180413	-4.835505	-6.348484	11.600855	16.231711	5.089424	0.617313	-3.143560	0.839300	1.632820	-0.930479	0.020874	0.361693	-1.000000	-1.000000	-1.000000	-1.000000	-1.000000	-1.000000	-1.000000	51.000000	0.000000	-1.000000	-1.000000	463842.000000	1775792782.023439
-15384.465000	-17393.310000	11853.090000	38435.895000	13262.310000	944.955000	-28076.085000	-38500.605000	2.092972	1.486901	-1.518273	-5.118129	7.082419	19.421698	2.934928	-0.047078	-3.143560	0.839300	1.632820	-0.930479	0.020874	0.361693	-1.000000	-1.000000	-1.000000	-1.000000	-1.000000	-1.000000	-1.000000	51.000000	0.000000	-1.000000	-1.000000	463843.000000	1775792782.023455
-15393.420000	-17399.745000	11846.610000	38428.335000	13242.960000	897.570000	-28077.165000	-38504.385000	4.269402	4.703624	3.402225	-0.776280	2.285449	15.259656	0.310904	-0.117738	-2.807840	0.503580	1.175020	-0.928525	0.018066	0.363402	-1.000000	-1.000000	-1.000000	-1.000000	-1.000000	-1.000000	-1.000000	51.000000	0.000000	-1.000000	-1.000000	463844.000000	1775792782.026823
-15388.695000	-17391.690000	11855.745000	38439.090000	13249.170000	873.360000	-28078.740000	-38503.125000	4.624946	5.943335	6.327960	3.069278	-1.325410	4.576251	-1.168642	0.235834	-2.807840	0.503580	1.175020	-0.928525	0.018066	0.363402	-1.000000	-1.000000	-1.000000	-1.000000	-1.000000	-1.000000	-1.000000	51.000000	0.000000	-1.000000	-1.000000	463845.000000	1775792782.026841
-15384.105000	-17390.745000	11857.950000	38444.805000	13266.315000	904.005000	-28078.920000	-38504.205000	2.877209	4.549815	6.142995	5.041540	-2.642366	-7.958668	-1.462513	0.378086	-2.807840	0.503580	1.175020	-0.928525	0.018066	0.363402	-1.000000	-1.000000	-1.000000	-1.000000	-1.000000	-1.000000	-1.000000	51.000000	0.000000	-1.000000	-1.000000	463846.000000	1775792782.031421
-15391.440000	-17398.305000	11850.345000	38438.010000	13268.925000	939.420000	-28081.485000	-38510.280000	0.424384	1.656256	3.895522	5.515483	-0.432307	-12.996527	-1.229205	0.039734	-2.807840	0.503580	1.175020	-0.928525	0.018066	0.363402	-1.000000	-1.000000	-1.000000	-1.000000	-1.000000	-1.000000	-1.000000	51.000000	0.000000	-1.000000	-1.000000	463847.000000	1775792782.031445
-15397.515000	-17398.755000	11851.470000	38439.315000	13276.575000	969.930000	-28077.120000	-38510.370000	-1.807307	-1.645578	0.624701	4.372980	3.951377	-4.990278	-0.855345	-0.715093	-2.807840	0.503580	1.175020	-0.928525	0.018066	0.363402	-1.000000	-1.000000	-1.000000	-1.000000	-1.000000	-1.000000	-1.000000	51.000000	0.000000	-1.000000	-1.000000	463848.000000	1775792782.034667
-15395.850000	-17398.395000	11849.895000	38437.245000	13280.175000	981.360000	-28071.900000	-38508.885000	-3.559541	-4.302507	-2.608991	1.639423	7.059860	10.557094	-0.199294	-1.351513	-2.807840	0.503580	1.175020	-0.928525	0.018066	0.363402	-1.000000	-1.000000	-1.000000	-1.000000	-1.000000	-1.000000	-1.000000	51.000000	0.000000	-1.000000	-1.000000	463849.000000	1775792782.034686
-15402.555000	-17403.795000	11844.810000	38432.835000	13280.625000	962.460000	-28070.460000	-38514.915000	-4.238146	-5.239273	-4.592256	-1.621094	6.505417	21.144953	0.892798	-1.239248	-2.807840	0.503580	1.175020	-0.928525	0.018066	0.363402	-1.000000	-1.000000	-1.000000	-1.000000	-1.000000	-1.000000	-1.000000	51.000000	0.000000	-1.000000	-1.000000	463850.000000	1775792782.038772
-15409.395000	-17411.130000	11840.535000	38431.440000	13278.375000	943.290000	-28080.000000	-38525.265000	-3.558462	-4.416334	-4.888707	-4.110846	2.321180	17.347818	1.706992	-0.675312	-2.807840	0.503580	1.175020	-0.928525	0.018066	0.363402	-1.000000	-1.000000	-1.000000	-1.000000	-1.000000	-1.000000	-1.000000	51.000000	0.000000	-1.000000	-1.000000	463851.000000	1775792782.038790
-15392.205000	-17398.665000	11851.515000	38439.630000	13272.120000	931.275000	-28084.815000	-38514.465000	-1.699267	-2.475646	-3.608007	-4.783911	-3.608282	0.239518	1.027858	-0.265386	-2.807840	0.503580	1.175020	-0.928525	0.018066	0.363402	-1.000000	-1.000000	-1.000000	-1.000000	-1.000000	-1.000000	-1.000000	51.000000	0.000000	-1.000000	-1.000000	463852.000000	1775792782.044488
-15360.795000	-17373.960000	11873.565000	38461.410000	13276.935000	944.055000	-28070.730000	-38484.225000	1.955223	0.813999	-0.435682	-2.749676	-8.582947	-19.197184	-0.890945	0.978505	-2.807840	0.503580	1.175020	-0.928525	0.018066	0.363402	-1.000000	-1.000000	-1.000000	-1.000000	-1.000000	-1.000000	-1.000000	51.000000	0.000000	-1.000000	-1.000000	463853.000000	1775792782.044511
-15383.655000	-17387.955000	11861.505000	38449.080000	13265.820000	955.035000	-28065.015000	-38495.430000	7.008349	5.287311	4.131864	1.494759	-10.387544	-28.345928	-1.845520	4.146559	2.411080	0.717220	0.717220	-0.924375	0.014343	0.363158	-1.000000	-1.000000	-1.000000	-1.000000	-1.000000	-1.000000	-1.000000	51.000000	0.000000	-1.000000	-1.000000	463854.000000	1775792782.046854
-15388.605000	-17388.540000	11861.595000	38449.890000	13273.380000	951.255000	-28065.690000	-38502.180000	9.413401	8.040401	7.119571	4.883612	-8.514661	-22.448435	-0.545264	6.823137	2.411080	0.717220	0.717220	-0.924375	0.014343	0.363158	-1.000000	-1.000000	-1.000000	-1.000000	-1.000000	-1.000000	-1.000000	51.000000	0.000000	-1.000000	-1.000000	463855.000000	1775792782.046872
-15376.320000	-17379.090000	11869.740000	38458.755000	13272.435000	953.955000	-28072.935000	-38496.105000	5.923009	6.366213	5.935312	4.691559	-3.948149	-7.113769	1.420918	5.411309	2.411080	0.717220	0.717220	-0.924375	0.014343	0.363158	-1.000000	-1.000000	-1.000000	-1.000000	-1.000000	-1.000000	-1.000000	51.000000	0.000000	-1.000000	-1.000000	463856.000000	1775792782.056345
-15377.670000	-17382.015000	11864.430000	38448.135000	13254.885000	952.290000	-28074.420000	-38498.175000	-0.921678	1.510911	1.608690	1.522262	1.229491	7.890328	1.664128	0.290166	2.411080	0.717220	0.717220	-0.924375	0.014343	0.363158	-1.000000	-1.000000	-1.000000	-1.000000	-1.000000	-1.000000	-1.000000	51.000000	0.000000	-1.000000	-1.000000	463857.000000	1775792782.056366
-15380.595000	-17385.210000	11860.605000	38444.895000	13258.395000	928.755000	-28078.785000	-38502.855000	-6.402713	-3.456975	-3.154314	-2.533240	4.435823	15.460375	-0.225482	-5.136677	2.411080	0.717220	0.717220	-0.924375	0.014343	0.363158	-1.000000	-1.000000	-1.000000	-1.000000	-1.000000	-1.000000	-1.000000	51.000000	0.000000	-1.000000	-1.000000	463858.000000	1775792782.056390
-15386.445000	-17384.715000	11864.970000	38455.830000	13286.475000	923.085000	-28077.075000	-38508.165000	-8.510694	-6.618929	-6.363868	-5.526832	5.455310	13.602178	-2.601618	-8.287998	2.411080	0.717220	0.717220	-0.924375	0.014343	0.363158	-1.000000	-1.000000	-1.000000	-1.000000	-1.000000	-1.000000	-1.000000	51.000000	0.000000	-1.000000	-1.000000	463859.000000	1775792782.056400
-15389.730000	-17390.700000	11859.075000	38449.260000	13286.700000	942.930000	-28071.045000	-38507.310000	-7.750597	-7.317318	-6.917642	-5.761060	6.561185	6.145549	-3.420438	-8.353601	2.411080	0.717220	0.717220	-0.924375	0.014343	0.363158	-1.000000	-1.000000	-1.000000	-1.000000	-1.000000	-1.000000	-1.000000	51.000000	0.000000	-1.000000	-1.000000	463860.000000	1775792782.061729
-15383.070000	-17394.120000	11853.720000	38442.195000	13276.980000	941.445000	-28070.370000	-38501.910000	-5.082715	-5.878922	-5.084094	-3.452216	7.815457	0.051955	-1.812996	-5.497049	2.411080	0.717220	0.717220	-0.924375	0.014343	0.363158	-1.000000	-1.000000	-1.000000	-1.000000	-1.000000	-1.000000	-1.000000	51.000000	0.000000	-1.000000	-1.000000	463861.000000	1775792782.061749
-15375.825000	-17384.220000	11864.430000	38451.780000	13286.475000	933.705000	-28075.320000	-38495.250000	-1.005461	-3.022347	-2.061809	-0.501596	6.571268	-1.259024	1.072540	-0.554096	2.411080	0.717220	0.717220	-0.924375	0.014343	0.363158	-1.000000	-1.000000	-1.000000	-1.000000	-1.000000	-1.000000	-1.000000	51.000000	0.000000	-1.000000	-1.000000	463862.000000	1775792782.064180
-15375.690000	-17384.490000	11863.845000	38451.690000	13293.045000	929.655000	-28075.860000	-38495.520000	3.638581	0.763332	1.385991	2.017471	2.323336	-0.009698	3.016898	4.686010	2.411080	0.717220	0.717220	-0.924375	0.014343	0.363158	-1.000000	-1.000000	-1.000000	-1.000000	-1.000000	-1.000000	-1.000000	51.000000	0.000000	-1.000000	-1.000000	463863.000000	1775792782.064196
-15376.320000	-17386.470000	11861.910000	38450.295000	13272.435000	914.355000	-28072.035000	-38496.330000	6.948560	4.424354	4.433011	3.832610	-2.813349	0.327923	2.965599	7.826236	6.577060	1.770160	0.198380	-0.918088	0.015625	0.363463	-1.000000	-1.000000	-1.000000	-1.000000	-1.000000	-1.000000	-1.000000	51.000000	0.000000	-1.000000	-1.000000	463864.000000	1775792782.068219
-15376.275000	-17379.540000	11867.985000	38454.705000	13265.235000	908.280000	-28060.245000	-38485.080000	7.206044	6.358473	5.822693	4.424500	-7.442839	-1.458365	1.911735	7.574701	6.577060	1.770160	0.198380	-0.918088	0.015625	0.363463	-1.000000	-1.000000	-1.000000	-1.000000	-1.000000	-1.000000	-1.000000	51.000000	0.000000	-1.000000	-1.000000	463865.000000	1775792782.068245
-15378.210000	-17373.825000	11871.945000	38455.245000	13257.630000	901.575000	-28063.080000	-38484.090000	4.443767	6.076884	5.229090	3.661269	-10.704251	-4.042957	1.303412	4.851756	6.577060	1.770160	0.198380	-0.918088	0.015625	0.363463	-1.000000	-1.000000	-1.000000	-1.000000	-1.000000	-1.000000	-1.000000	51.000000	0.000000	-1.000000	-1.000000	463866.000000	1775792782.070502
-15367.860000	-17367.930000	11876.355000	38455.560000	13261.320000	927.090000	-28091.565000	-38496.555000	0.484762	4.418460	3.466137	2.029279	-10.878148	-4.603703	0.593865	1.136890	6.577060	1.770160	0.198380	-0.918088	0.015625	0.363463	-1.000000	-1.000000	-1.000000	-1.000000	-1.000000	-1.000000	-1.000000	51.000000	0.000000	-1.000000	-1.000000	463867.000000	1775792782.070523
-15368.310000	-17377.470000	11865.735000	38444.265000	13273.020000	953.550000	-28084.185000	-38499.930000	-2.348445	2.044325	1.151755	-0.109105	-6.581395	-0.621332	-1.884712	-3.000427	6.577060	1.770160	0.198380	-0.918088	0.015625	0.363463	-1.000000	-1.000000	-1.000000	-1.000000	-1.000000	-1.000000	-1.000000	51.000000	0.000000	-1.000000	-1.000000	463868.000000	1775792782.073834
-15382.080000	-17391.375000	11853.360000	38437.740000	13266.405000	931.365000	-28075.320000	-38501.325000	-3.339525	-1.311284	-1.906224	-2.661020	1.170312	6.616853	-4.910208	-6.642324	6.577060	1.770160	0.198380	-0.918088	0.015625	0.363463	-1.000000	-1.000000	-1.000000	-1.000000	-1.000000	-1.000000	-1.000000	51.000000	0.000000	-1.000000	-1.000000	463869.000000	1775792782.073852
-15386.445000	-17397.765000	11849.985000	38441.745000	13271.670000	943.335000	-28065.780000	-38500.335000	-3.756862	-5.590311	-5.506938	-4.864343	8.617837	11.214120	-4.873971	-7.960048	6.577060	1.770160	0.198380	-0.918088	0.015625	0.363463	-1.000000	-1.000000	-1.000000	-1.000000	-1.000000	-1.000000	-1.000000	51.000000	0.000000	-1.000000	-1.000000	463870.000000	1775792782.079920
-15390.945000	-17400.330000	11847.330000	38439.450000	13260.330000	947.880000	-28069.605000	-38505.330000	-4.400106	-8.960182	-7.897641	-5.138208	11.837834	9.088067	-0.871624	-6.026049	6.577060	1.770160	0.198380	-0.918088	0.015625	0.363463	-1.000000	-1.000000	-1.000000	-1.000000	-1.000000	-1.000000	-1.000000	51.000000	0.000000	-1.000000	-1.000000	463871.000000	1775792782.079956
-15386.940000	-17395.785000	11851.290000	38440.215000	13272.615000	946.890000	-28071.630000	-38503.125000	-4.297243	-8.832569	-7.021070	-2.841102	9.754379	2.139437	3.904752	-1.900452	6.577060	1.770160	0.198380	-0.918088	0.015625	0.363463	-1.000000	-1.000000	-1.000000	-1.000000	-1.000000	-1.000000	-1.000000	51.000000	0.000000	-1.000000	-1.000000	463872.000000	1775792782.083098
-15380.415000	-17385.975000	11862.630000	38450.610000	13277.205000	937.935000	-28071.270000	-38499.030000	-2.136167	-4.201531	-2.434411	1.004894	4.721354	-5.502918	5.832317	2.521025	6.577060	1.770160	0.198380	-0.918088	0.015625	0.363463	-1.000000	-1.000000	-1.000000	-1.000000	-1.000000	-1.000000	-1.000000	51.000000	0.000000	-1.000000	-1.000000	463873.000000	1775792782.083119
-15379.695000	-17381.205000	11867.400000	38450.970000	13265.730000	910.395000	-28078.020000	-38501.640000	1.934815	3.248962	4.194450	4.794487	-0.137288	-11.413612	4.033484	5.727931	4.150720	2.792580	1.052940	-0.921262	0.023926	0.363769	-1.000000	-1.000000	-1.000000	-1.000000	-1.000000	-1.000000	-1.000000	51.000000	0.000000	-1.000000	-1.000000	463874.000000	1775792782.086692
-15374.745000	-17372.970000	11871.405000	38456.100000	13279.905000	907.470000	-28079.865000	-38496.735000	5.972350	9.941686	9.699183	6.936224	-3.493405	-14.728971	0.091741	6.783785	4.150720	2.792580	1.052940	-0.921262	0.023926	0.363769	-1.000000	-1.000000	-1.000000	-1.000000	-1.000000	-1.000000	-1.000000	51.000000	0.000000	-1.000000	-1.000000	463875.000000	1775792782.086710
-15361.245000	-17368.155000	11875.725000	38460.645000	13291.110000	908.100000	-28080.675000	-38487.600000	7.991813	12.653656	11.211351	6.460280	-4.696928	-14.098987	-3.570465	5.782200	4.150720	2.792580	1.052940	-0.921262	0.023926	0.363769	-1.000000	-1.000000	-1.000000	-1.000000	-1.000000	-1.000000	-1.000000	51.000000	0.000000	-1.000000	-1.000000	463876.000000	1775792782.089877
-15366.240000	-17381.565000	11861.550000	38444.625000	13250.970000	917.370000	-28073.250000	-38486.790000	7.365608	10.064614	7.817733	3.400336	-4.085585	-8.044478	-4.873998	3.758895	4.150720	2.792580	1.052940	-0.921262	0.023926	0.363769	-1.000000	-1.000000	-1.000000	-1.000000	-1.000000	-1.000000	-1.000000	51.000000	0.000000	-1.000000	-1.000000	463877.000000	1775792782.089893
-15370.200000	-17374.500000	11870.820000	38454.165000	13245.885000	910.080000	-28067.220000	-38491.290000	4.116357	3.095627	0.927805	-1.375692	-4.358401	2.083085	-3.043976	1.318464	4.150720	2.792580	1.052940	-0.921262	0.023926	0.363769	-1.000000	-1.000000	-1.000000	-1.000000	-1.000000	-1.000000	-1.000000	51.000000	0.000000	-1.000000	-1.000000	463878.000000	1775792782.095765
-15372.090000	-17378.820000	11867.805000	38455.470000	13270.860000	919.485000	-28069.920000	-38492.775000	-1.137501	-4.958365	-6.011663	-5.653457	-6.022708	11.740827	0.713058	-1.622158	4.150720	2.792580	1.052940	-0.921262	0.023926	0.363769	-1.000000	-1.000000	-1.000000	-1.000000	-1.000000	-1.000000	-1.000000	51.000000	0.000000	-1.000000	-1.000000	463879.000000	1775792782.095784
-15388.155000	-17392.995000	11855.070000	38448.090000	13291.740000	976.860000	-28062.315000	-38499.390000	-6.634594	-10.474709	-9.836840	-7.152806	-4.800245	17.663744	3.896707	-4.690750	4.150720	2.792580	1.052940	-0.921262	0.023926	0.363769	-1.000000	-1.000000	-1.000000	-1.000000	-1.000000	-1.000000	-1.000000	51.000000	0.000000	-1.000000	-1.000000	463880.000000	1775792782.109334
-15390.450000	-17396.280000	11851.965000	38446.155000	13299.120000	994.455000	-28059.795000	-38506.095000	-10.349243	-12.091337	-10.042899	-5.888887	1.823179	20.340088	4.830856	-6.895592	4.150720	2.792580	1.052940	-0.921262	0.023926	0.363769	-1.000000	-1.000000	-1.000000	-1.000000	-1.000000	-1.000000	-1.000000	51.000000	0.000000	-1.000000	-1.000000	463881.000000	1775792782.109355
-15378.165000	-17388.630000	11858.445000	38449.530000	13293.045000	987.345000	-28057.815000	-38498.310000	-10.439412	-9.883226	-7.441155	-3.266268	9.739431	19.290821	3.558041	-7.140348	4.150720	2.792580	1.052940	-0.921262	0.023926	0.363769	-1.000000	-1.000000	-1.000000	-1.000000	-1.000000	-1.000000	-1.000000	51.000000	0.000000	-1.000000	-1.000000	463882.000000	1775792782.109380
-15371.415000	-17383.725000	11864.385000	38457.225000	13290.300000	952.020000	-28065.645000	-38495.025000	-5.753193	-4.192435	-2.524571	-0.086797	12.387392	10.669284	0.824664	-4.586892	4.150720	2.792580	1.052940	-0.921262	0.023926	0.363769	-1.000000	-1.000000	-1.000000	-1.000000	-1.000000	-1.000000	-1.000000	51.000000	0.000000	-1.000000	-1.000000	463883.000000	1775792782.109390
-15365.880000	-17378.145000	11869.650000	38464.515000	13306.230000	955.305000	-28075.995000	-38494.215000	2.229390	3.337358	3.596007	3.305407	7.744444	-6.259848	-2.712310	0.220058	-0.076300	0.473060	2.273740	-0.927427	0.030517	0.363952	-1.000000	-1.000000	-1.000000	-1.000000	-1.000000	-1.000000	-1.000000	51.000000	0.000000	-1.000000	-1.000000	463884.000000	1775792782.109401
-15370.065000	-17380.620000	11864.340000	38455.920000	13290.345000	961.605000	-28076.400000	-38494.620000	9.295990	9.508001	8.451810	5.849715	-0.513354	-23.813876	-6.061603	4.920797	-0.076300	0.473060	2.273740	-0.927427	0.030517	0.363952	-1.000000	-1.000000	-1.000000	-1.000000	-1.000000	-1.000000	-1.000000	51.000000	0.000000	-1.000000	-1.000000	463885.000000	1775792782.109410
-15384.780000	-17378.955000	11869.785000	38463.525000	13294.800000	969.300000	-28062.900000	-38495.520000	11.234512	11.425329	9.630016	5.989073	-7.777457	-31.236892	-7.225926	7.067162	-0.076300	0.473060	2.273740	-0.927427	0.030517	0.363952	-1.000000	-1.000000	-1.000000	-1.000000	-1.000000	-1.000000	-1.000000	51.000000	0.000000	-1.000000	-1.000000	463886.000000	1775792782.121833
-15378.930000	-17378.955000	11867.310000	38457.495000	13288.770000	961.020000	-28063.755000	-38494.305000	7.007274	8.552242	6.833404	3.467905	-11.448734	-24.638262	-4.539843	5.957205	-0.076300	0.473060	2.273740	-0.927427	0.030517	0.363952	-1.000000	-1.000000	-1.000000	-1.000000	-1.000000	-1.000000	-1.000000	51.000000	0.000000	-1.000000	-1.000000	463887.000000	1775792782.121856
-15374.295000	-17377.740000	11866.005000	38450.835000	13276.710000	948.060000	-28068.750000	-38492.865000	0.011649	2.899867	1.864738	-0.454388	-10.969806	-9.659785	0.732409	2.794558	-0.076300	0.473060	2.273740	-0.927427	0.030517	0.363952	-1.000000	-1.000000	-1.000000	-1.000000	-1.000000	-1.000000	-1.000000	51.000000	0.000000	-1.000000	-1.000000	463888.000000	1775792782.121878
-15383.250000	-17384.265000	11860.830000	38446.560000	13275.495000	942.750000	-28080.990000	-38503.170000	-5.046904	-2.745234	-3.049640	-4.253337	-7.570596	4.561817	4.805227	-0.693418	-0.076300	0.473060	2.273740	-0.927427	0.030517	0.363952	-1.000000	-1.000000	-1.000000	-1.000000	-1.000000	-1.000000	-1.000000	51.000000	0.000000	-1.000000	-1.000000	463889.000000	1775792782.121889
-15393.915000	-17396.730000	11849.670000	38440.170000	13280.310000	960.660000	-28079.955000	-38511.180000	-6.573706	-6.713098	-6.455211	-6.539352	-2.694647	12.882421	5.059511	-3.630241	-0.076300	0.473060	2.273740	-0.927427	0.030517	0.363952	-1.000000	-1.000000	-1.000000	-1.000000	-1.000000	-1.000000	-1.000000	51.000000	0.000000	-1.000000	-1.000000	463890.000000	1775792782.121901
-15398.505000	-17406.090000	11839.905000	38433.330000	13279.230000	947.970000	-28070.820000	-38511.090000	-5.882071	-8.700052	-7.926896	-6.484503	2.795312	15.586994	2.587444	-5.550516	-0.076300	0.473060	2.273740	-0.927427	0.030517	0.363952	-1.000000	-1.000000	-1.000000	-1.000000	-1.000000	-1.000000	-1.000000	51.000000	0.000000	-1.000000	-1.000000	463891.000000	1775792782.121910
-15381.990000	-17388.855000	11858.085000	38454.120000	13301.595000	941.175000	-28061.280000	-38496.690000	-3.834389	-8.229890	-7.051553	-3.862525	7.942349	14.098497	0.700596	-5.279848	-0.076300	0.473060	2.273740	-0.927427	0.030517	0.363952	-1.000000	-1.000000	-1.000000	-1.000000	-1.000000	-1.000000	-1.000000	51.000000	0.000000	-1.000000	-1.000000	463892.000000	1775792782.137981
-15361.920000	-17370.000000	11875.185000	38467.755000	13282.470000	952.785000	-28058.535000	-38480.670000	0.281792	-3.964665	-2.732238	1.411763	11.298625	9.440257	1.198813	-1.638681	-0.076300	0.473060	2.273740	-0.927427	0.030517	0.363952	-1.000000	-1.000000	-1.000000	-1.000000	-1.000000	-1.000000	-1.000000	51.000000	0.000000	-1.000000	-1.000000	463893.000000	1775792782.138004
-15356.790000	-17362.350000	11884.860000	38476.530000	13295.295000	963.900000	-28058.400000	-38478.780000	6.236215	3.807673	4.649020	8.000920	11.001546	4.140393	2.792193	4.341645	-3.586100	0.961380	2.136400	-0.927488	0.029236	0.362243	-1.000000	-1.000000	-1.000000	-1.000000	-1.000000	-1.000000	-1.000000	51.000000	0.000000	-1.000000	-1.000000	463894.000000	1775792782.138029
-15363.315000	-17366.175000	11881.170000	38471.760000	13300.380000	946.395000	-28065.645000	-38486.835000	10.711040	11.049785	11.282073	12.227788	6.857268	0.495278	2.921106	8.775099	-3.586100	0.961380	2.136400	-0.927488	0.029236	0.362243	-1.000000	-1.000000	-1.000000	-1.000000	-1.000000	-1.000000	-1.000000	51.000000	0.000000	-1.000000	-1.000000	463895.000000	1775792782.138040
-15360.525000	-17363.430000	11882.610000	38472.030000	13291.020000	906.795000	-28072.845000	-38486.790000	9.824565	12.773926	12.486186	10.672035	1.078129	-2.764331	0.289889	7.987522	-3.586100	0.961380	2.136400	-0.927488	0.029236	0.362243	-1.000000	-1.000000	-1.000000	-1.000000	-1.000000	-1.000000	-1.000000	51.000000	0.000000	-1.000000	-1.000000	463896.000000	1775792782.138070
-15362.010000	-17367.345000	11876.310000	38462.310000	13256.505000	863.370000	-28077.750000	-38488.005000	3.445870	7.691076	7.007221	3.405856	-4.896791	-8.581867	-4.055609	2.248326	-3.586100	0.961380	2.136400	-0.927488	0.029236	0.362243	-1.000000	-1.000000	-1.000000	-1.000000	-1.000000	-1.000000	-1.000000	51.000000	0.000000	-1.000000	-1.000000	463897.000000	1775792782.138082
-15360.480000	-17369.685000	11872.755000	38458.440000	13249.620000	865.890000	-28075.545000	-38486.655000	-4.651820	-1.099954	-2.148836	-6.009426	-10.878647	-15.823964	-7.410571	-4.592805	-3.586100	0.961380	2.136400	-0.927488	0.029236	0.362243	-1.000000	-1.000000	-1.000000	-1.000000	-1.000000	-1.000000	-1.000000	51.000000	0.000000	-1.000000	-1.000000	463898.000000	1775792782.138095
-15370.425000	-17380.170000	11863.035000	38451.555000	13255.380000	916.830000	-28076.805000	-38493.630000	-10.360658	-9.108020	-10.353947	-13.034277	-14.572018	-17.075185	-7.397927	-8.731667	-3.586100	0.961380	2.136400	-0.927488	0.029236	0.362243	-1.000000	-1.000000	-1.000000	-1.000000	-1.000000	-1.000000	-1.000000	51.000000	0.000000	-1.000000	-1.000000	463899.000000	1775792782.138105
-15378.030000	-17385.030000	11858.085000	38449.170000	13273.020000	993.960000	-28073.160000	-38499.930000	-11.987672	-13.222286	-14.199026	-14.667829	-11.908985	-4.608465	-3.792270	-8.995674	-3.586100	0.961380	2.136400	-0.927488	0.029236	0.362243	-1.000000	-1.000000	-1.000000	-1.000000	-1.000000	-1.000000	-1.000000	51.000000	0.000000	-1.000000	-1.000000	463900.000000	1775792782.153546
-15377.715000	-17382.915000	11863.530000	38457.270000	13297.995000	1008.810000	-28065.600000	-38499.165000	-9.958163	-12.345622	-12.492566	-10.492247	-1.696511	19.245549	1.614406	-6.376570	-3.586100	0.961380	2.136400	-0.927488	0.029236	0.362243	-1.000000	-1.000000	-1.000000	-1.000000	-1.000000	-1.000000	-1.000000	51.000000	0.000000	-1.000000	-1.000000	463901.000000	1775792782.153569
-15377.355000	-17380.305000	11869.380000	38466.315000	13300.695000	979.605000	-28067.850000	-38500.155000	-5.243759	-6.985014	-5.957572	-2.220967	11.727642	38.687646	6.353300	-2.256914	-3.586100	0.961380	2.136400	-0.927488	0.029236	0.362243	-1.000000	-1.000000	-1.000000	-1.000000	-1.000000	-1.000000	-1.000000	51.000000	0.000000	-1.000000	-1.000000	463902.000000	1775792782.153593
-15378.030000	-17380.395000	11868.705000	38461.005000	13286.115000	962.730000	-28074.330000	-38505.015000	0.833525	0.737028	2.790244	6.732353	20.318760	36.531058	8.134956	2.038691	-3.586100	0.961380	2.136400	-0.927488	0.029236	0.362243	-1.000000	-1.000000	-1.000000	-1.000000	-1.000000	-1.000000	-1.000000	51.000000	0.000000	-1.000000	-1.000000	463903.000000	1775792782.153605
-15382.080000	-17381.790000	11866.275000	38456.505000	13290.030000	957.780000	-28076.490000	-38508.705000	6.216731	7.536246	9.782006	12.096196	18.128822	11.297196	5.942185	5.036604	-3.937080	1.129240	0.061040	-0.927000	0.026550	0.360534	-1.000000	-1.000000	-1.000000	-1.000000	-1.000000	-1.000000	-1.000000	51.000000	0.000000	-1.000000	-1.000000	463904.000000	1775792782.153618
-15377.985000	-17383.860000	11863.305000	38452.995000	13288.185000	953.595000	-28072.260000	-38502.990000	9.013795	10.652554	11.905796	11.384433	6.705121	-21.182107	1.237781	5.971554	-3.937080	1.129240	0.061040	-0.927000	0.026550	0.360534	-1.000000	-1.000000	-1.000000	-1.000000	-1.000000	-1.000000	-1.000000	51.000000	0.000000	-1.000000	-1.000000	463905.000000	1775792782.153628
-15370.605000	-17384.940000	11861.955000	38454.255000	13284.675000	942.795000	-28060.515000	-38490.120000	8.911048	9.384454	8.908619	5.899303	-6.683499	-42.216219	-2.726110	5.626730	-3.937080	1.129240	0.061040	-0.927000	0.026550	0.360534	-1.000000	-1.000000	-1.000000	-1.000000	-1.000000	-1.000000	-1.000000	51.000000	0.000000	-1.000000	-1.000000	463906.000000	1775792782.153641
-15376.140000	-17388.855000	11855.925000	38448.630000	13271.310000	920.430000	-28059.075000	-38485.215000	6.855868	5.111640	3.088246	-0.651862	-15.556813	-43.561327	-3.551445	5.291111	-3.937080	1.129240	0.061040	-0.927000	0.026550	0.360534	-1.000000	-1.000000	-1.000000	-1.000000	-1.000000	-1.000000	-1.000000	51.000000	0.000000	-1.000000	-1.000000	463907.000000	1775792782.153651
-15382.080000	-17381.295000	11863.260000	38453.040000	13269.285000	910.485000	-28063.215000	-38488.545000	3.469395	0.269290	-2.426621	-5.045366	-17.585921	-29.113550	-1.829077	4.816210	-3.937080	1.129240	0.061040	-0.927000	0.026550	0.360534	-1.000000	-1.000000	-1.000000	-1.000000	-1.000000	-1.000000	-1.000000	51.000000	0.000000	-1.000000	-1.000000	463908.000000	1775792782.168786
-15373.845000	-17381.655000	11864.385000	38458.395000	13278.195000	929.610000	-28068.705000	-38496.915000	-0.674399	-2.868268	-5.143364	-5.833588	-13.339747	-7.674771	-0.246360	2.680845	-3.937080	1.129240	0.061040	-0.927000	0.026550	0.360534	-1.000000	-1.000000	-1.000000	-1.000000	-1.000000	-1.000000	-1.000000	51.000000	0.000000	-1.000000	-1.000000	463909.000000	1775792782.168807
-15364.800000	-17379.360000	11867.850000	38465.685000	13291.560000	964.665000	-28073.250000	-38498.445000	-3.797437	-3.480645	-4.418707	-3.306449	-4.510812	13.954916	-0.635164	-1.699791	-3.937080	1.129240	0.061040	-0.927000	0.026550	0.360534	-1.000000	-1.000000	-1.000000	-1.000000	-1.000000	-1.000000	-1.000000	51.000000	0.000000	-1.000000	-1.000000	463910.000000	1775792782.168829
-15368.265000	-17379.900000	11866.680000	38461.725000	13289.130000	969.795000	-28070.415000	-38495.430000	-4.324834	-2.454973	-1.723219	0.605393	5.782244	31.028501	-2.373529	-6.445295	-3.937080	1.129240	0.061040	-0.927000	0.026550	0.360534	-1.000000	-1.000000	-1.000000	-1.000000	-1.000000	-1.000000	-1.000000	51.000000	0.000000	-1.000000	-1.000000	463911.000000	1775792782.168837
-15361.110000	-17375.175000	11868.345000	38458.080000	13282.920000	951.075000	-28072.935000	-38489.895000	-2.843542	-1.126978	0.743116	3.137889	12.877991	37.806576	-3.441621	-8.540516	-3.937080	1.129240	0.061040	-0.927000	0.026550	0.360534	-1.000000	-1.000000	-1.000000	-1.000000	-1.000000	-1.000000	-1.000000	51.000000	0.000000	-1.000000	-1.000000	463912.000000	1775792782.168848
-15354.405000	-17366.670000	11877.120000	38465.730000	13288.635000	937.935000	-28074.465000	-38485.170000	-0.934014	-0.071145	1.819109	2.824645	13.431369	29.827145	-2.646437	-6.530838	-3.937080	1.129240	0.061040	-0.927000	0.026550	0.360534	-1.000000	-1.000000	-1.000000	-1.000000	-1.000000	-1.000000	-1.000000	51.000000	0.000000	-1.000000	-1.000000	463913.000000	1775792782.168857
-15366.375000	-17369.910000	11875.770000	38464.470000	13287.465000	920.970000	-28070.955000	-38490.930000	0.238445	0.697526	1.748342	0.707387	8.303469	9.713422	-0.412758	-1.847827	-1.907500	1.968540	-0.579880	-0.924131	0.020691	0.358947	-1.000000	-1.000000	-1.000000	-1.000000	-1.000000	-1.000000	-1.000000	51.000000	0.000000	-1.000000	-1.000000	463914.000000	1775792782.168868
-15360.345000	-17366.580000	11878.560000	38464.875000	13266.675000	909.405000	-28063.440000	-38486.385000	-0.113259	0.858333	1.028779	-1.331798	0.859231	-12.840129	2.285252	2.449040	-1.907500	1.968540	-0.579880	-0.924131	0.020691	0.358947	-1.000000	-1.000000	-1.000000	-1.000000	-1.000000	-1.000000	-1.000000	51.000000	0.000000	-1.000000	-1.000000	463915.000000	1775792782.168878
-15365.925000	-17371.260000	11873.520000	38459.430000	13247.460000	934.830000	-28061.865000	-38490.885000	-1.657328	0.038914	-0.222518	-2.486806	-6.430946	-26.821109	4.591585	4.258036	-1.907500	1.968540	-0.579880	-0.924131	0.020691	0.358947	-1.000000	-1.000000	-1.000000	-1.000000	-1.000000	-1.000000	-1.000000	51.000000	0.000000	-1.000000	-1.000000	463916.000000	1775792782.184881
-15374.610000	-17376.165000	11871.855000	38464.830000	13284.810000	971.370000	-28069.470000	-38501.190000	-3.168881	-1.584139	-1.862138	-2.782002	-11.038782	-25.280340	5.378098	3.297612	-1.907500	1.968540	-0.579880	-0.924131	0.020691	0.358947	-1.000000	-1.000000	-1.000000	-1.000000	-1.000000	-1.000000	-1.000000	51.000000	0.000000	-1.000000	-1.000000	463917.000000	1775792782.184904
-15378.030000	-17377.695000	11874.645000	38471.715000	13320.135000	969.615000	-28069.965000	-38503.395000	-3.891828	-3.307026	-3.258774	-2.044944	-8.718698	-9.853606	3.666327	0.442671	-1.907500	1.968540	-0.579880	-0.924131	0.020691	0.358947	-1.000000	-1.000000	-1.000000	-1.000000	-1.000000	-1.000000	-1.000000	51.000000	0.000000	-1.000000	-1.000000	463918.000000	1775792782.184928
-15374.520000	-17377.785000	11873.250000	38468.295000	13303.035000	980.055000	-28066.815000	-38501.010000	-3.330083	-4.050833	-3.468194	-0.233926	1.108365	8.780027	0.126318	-2.395545	-1.907500	1.968540	-0.579880	-0.924131	0.020691	0.358947	-1.000000	-1.000000	-1.000000	-1.000000	-1.000000	-1.000000	-1.000000	51.000000	0.000000	-1.000000	-1.000000	463919.000000	1775792782.184939
-15369.615000	-17373.780000	11877.480000	38471.760000	13292.190000	963.855000	-28070.280000	-38496.690000	-0.958591	-2.952084	-2.129765	1.677382	10.755963	18.685421	-3.093220	-3.060396	-1.907500	1.968540	-0.579880	-0.924131	0.020691	0.358947	-1.000000	-1.000000	-1.000000	-1.000000	-1.000000	-1.000000	-1.000000	51.000000	0.000000	-1.000000	-1.000000	463920.000000	1775792782.184950
-15353.595000	-17371.665000	11878.245000	38473.965000	13292.550000	951.840000	-28065.060000	-38480.445000	3.050860	-0.135835	0.181095	2.543105	11.777503	15.025554	-4.348368	-0.703297	-1.907500	1.968540	-0.579880	-0.924131	0.020691	0.358947	-1.000000	-1.000000	-1.000000	-1.000000	-1.000000	-1.000000	-1.000000	51.000000	0.000000	-1.000000	-1.000000	463921.000000	1775792782.184960
-15348.015000	-17374.005000	11873.970000	38466.045000	13285.530000	939.735000	-28065.555000	-38474.190000	7.409482	3.076442	2.285804	2.022134	4.064292	1.652073	-3.419222	3.639804	-1.907500	1.968540	-0.579880	-0.924131	0.020691	0.358947	-1.000000	-1.000000	-1.000000	-1.000000	-1.000000	-1.000000	-1.000000	51.000000	0.000000	-1.000000	-1.000000	463922.000000	1775792782.184971
-15359.940000	-17379.945000	11866.590000	38454.930000	13277.610000	945.135000	-28068.030000	-38485.665000	9.603032	4.795564	2.882335	0.113608	-6.092031	-12.337253	-1.270808	7.089005	-1.907500	1.968540	-0.579880	-0.924131	0.020691	0.358947	-1.000000	-1.000000	-1.000000	-1.000000	-1.000000	-1.000000	-1.000000	51.000000	0.000000	-1.000000	-1.000000	463923.000000	1775792782.184981
-15376.995000	-17374.005000	11870.145000	38461.635000	13288.095000	953.595000	-28063.170000	-38496.690000	6.915846	4.094331	1.638188	-2.523353	-12.368182	-18.346611	0.699470	6.274072	0.824040	2.655240	-0.076300	-0.924985	0.018433	0.359557	-1.000000	-1.000000	-1.000000	-1.000000	-1.000000	-1.000000	-1.000000	51.000000	0.000000	-1.000000	-1.000000	463924.000000	1775792782.193511
-15377.310000	-17377.605000	11865.195000	38457.180000	13280.400000	939.690000	-28064.925000	-38497.635000	-0.542453	1.888595	-0.257722	-4.051728	-11.749295	-13.830341	1.749451	0.664907	0.824040	2.655240	-0.076300	-0.924985	0.018433	0.359557	-1.000000	-1.000000	-1.000000	-1.000000	-1.000000	-1.000000	-1.000000	51.000000	0.000000	-1.000000	-1.000000	463925.000000	1775792782.193535
-15366.510000	-17367.300000	11880.045000	38468.880000	13281.345000	928.980000	-28065.375000	-38490.345000	-8.242627	-0.106773	-1.114450	-2.960705	-5.639575	-3.610724	1.829382	-5.980111	0.824040	2.655240	-0.076300	-0.924985	0.018433	0.359557	-1.000000	-1.000000	-1.000000	-1.000000	-1.000000	-1.000000	-1.000000	51.000000	0.000000	-1.000000	-1.000000	463926.000000	1775792782.193557
-15363.990000	-17371.620000	11875.860000	38463.480000	13254.435000	918.225000	-28072.440000	-38489.310000	-10.722762	-0.860647	-0.108738	0.359725	1.344315	5.085381	0.999005	-8.874227	0.824040	2.655240	-0.076300	-0.924985	0.018433	0.359557	-1.000000	-1.000000	-1.000000	-1.000000	-1.000000	-1.000000	-1.000000	51.000000	0.000000	-1.000000	-1.000000	463927.000000	1775792782.193568
-15365.565000	-17371.890000	11875.815000	38467.935000	13286.340000	948.960000	-28073.070000	-38493.765000	-6.811988	-0.696750	1.798596	3.835442	5.496494	9.206358	-0.490688	-6.631257	0.824040	2.655240	-0.076300	-0.924985	0.018433	0.359557	-1.000000	-1.000000	-1.000000	-1.000000	-1.000000	-1.000000	-1.000000	51.000000	0.000000	-1.000000	-1.000000	463928.000000	1775792782.196106
-15371.730000	-17370.540000	11879.640000	38477.655000	13321.755000	969.345000	-28070.190000	-38498.130000	-0.238821	-0.606547	2.745801	5.555693	7.865687	11.066809	-1.788057	-1.842967	0.824040	2.655240	-0.076300	-0.924985	0.018433	0.359557	-1.000000	-1.000000	-1.000000	-1.000000	-1.000000	-1.000000	-1.000000	51.000000	0.000000	-1.000000	-1.000000	463929.000000	1775792782.196136
-15376.365000	-17380.935000	11866.725000	38463.435000	13313.970000	964.935000	-28070.595000	-38501.820000	4.341635	-1.094392	1.822719	4.962366	10.987005	12.808622	-1.843617	2.051484	0.824040	2.655240	-0.076300	-0.924985	0.018433	0.359557	-1.000000	-1.000000	-1.000000	-1.000000	-1.000000	-1.000000	-1.000000	51.000000	0.000000	-1.000000	-1.000000	463930.000000	1775792782.198703
-15372.720000	-17381.970000	11863.755000	38453.220000	13296.510000	966.420000	-28066.995000	-38496.060000	5.068802	-2.105799	-0.743756	1.926515	12.326081	12.311633	-0.485317	3.630716	0.824040	2.655240	-0.076300	-0.924985	0.018433	0.359557	-1.000000	-1.000000	-1.000000	-1.000000	-1.000000	-1.000000	-1.000000	51.000000	0.000000	-1.000000	-1.000000	463931.000000	1775792782.198724
-15366.555000	-17372.745000	11874.780000	38467.080000	13308.030000	956.565000	-28066.050000	-38491.920000	3.426222	-2.809144	-3.484216	-2.599906	7.456482	6.755020	1.437878	3.730132	0.824040	2.655240	-0.076300	-0.924985	0.018433	0.359557	-1.000000	-1.000000	-1.000000	-1.000000	-1.000000	-1.000000	-1.000000	51.000000	0.000000	-1.000000	-1.000000	463932.000000	1775792782.202617
-15358.815000	-17365.365000	11882.070000	38474.865000	13304.385000	930.825000	-28064.205000	-38485.080000	1.971720	-1.752826	-3.950569	-5.446830	-2.257782	-3.301813	2.816652	3.679133	0.824040	2.655240	-0.076300	-0.924985	0.018433	0.359557	-1.000000	-1.000000	-1.000000	-1.000000	-1.000000	-1.000000	-1.000000	51.000000	0.000000	-1.000000	-1.000000	463933.000000	1775792782.202635
-15355.890000	-17362.170000	11886.255000	38476.935000	13283.460000	895.860000	-28065.825000	-38480.535000	1.827417	1.270758	-1.236195	-4.243000	-11.375411	-14.691064	2.898936	3.812571	1.754900	1.815940	1.052940	-0.927061	0.020386	0.361815	-1.000000	-1.000000	-1.000000	-1.000000	-1.000000	-1.000000	-1.000000	51.000000	0.000000	-1.000000	-1.000000	463934.000000	1775792782.206602
-15356.115000	-17362.845000	11883.510000	38469.195000	13269.825000	902.835000	-28069.695000	-38482.020000	2.131546	4.335477	2.591189	-0.521126	-16.471253	-22.751282	1.541747	3.439231	1.754900	1.815940	1.052940	-0.927061	0.020386	0.361815	-1.000000	-1.000000	-1.000000	-1.000000	-1.000000	-1.000000	-1.000000	51.000000	0.000000	-1.000000	-1.000000	463935.000000	1775792782.206622
-15356.115000	-17365.275000	11877.705000	38462.445000	13274.685000	940.140000	-28065.105000	-38482.830000	1.421361	5.068195	4.379741	2.037397	-16.460646	-21.504870	-0.628877	1.704251	1.754900	1.815940	1.052940	-0.927061	0.020386	0.361815	-1.000000	-1.000000	-1.000000	-1.000000	-1.000000	-1.000000	-1.000000	51.000000	0.000000	-1.000000	-1.000000	463936.000000	1775792782.209642
-15363.900000	-17373.015000	11869.920000	38460.645000	13293.135000	967.230000	-28063.080000	-38489.130000	-0.832222	2.650352	2.600689	1.486360	-10.520348	-7.728724	-2.295317	-1.417305	1.754900	1.815940	1.052940	-0.927061	0.020386	0.361815	-1.000000	-1.000000	-1.000000	-1.000000	-1.000000	-1.000000	-1.000000	51.000000	0.000000	-1.000000	-1.000000	463937.000000	1775792782.209659
-15369.345000	-17376.390000	11869.920000	38463.885000	13302.135000	962.100000	-28062.990000	-38494.755000	-3.956005	-1.720050	-1.522855	-0.863525	0.626852	12.899664	-2.476875	-4.909274	1.754900	1.815940	1.052940	-0.927061	0.020386	0.361815	-1.000000	-1.000000	-1.000000	-1.000000	-1.000000	-1.000000	-1.000000	51.000000	0.000000	-1.000000	-1.000000	463938.000000	1775792782.214733
-15372.405000	-17376.705000	11871.270000	38467.485000	13303.035000	971.055000	-28069.965000	-38500.830000	-6.494804	-5.578457	-4.978355	-2.270885	12.577349	27.841237	-1.583162	-7.323276	1.754900	1.815940	1.052940	-0.927061	0.020386	0.361815	-1.000000	-1.000000	-1.000000	-1.000000	-1.000000	-1.000000	-1.000000	51.000000	0.000000	-1.000000	-1.000000	463939.000000	1775792782.214756
-15381.405000	-17383.635000	11864.430000	38459.160000	13299.795000	992.295000	-28070.820000	-38508.885000	-7.021036	-6.786539	-5.475829	-1.498065	19.069506	28.663807	-0.829068	-7.581576	1.754900	1.815940	1.052940	-0.927061	0.020386	0.361815	-1.000000	-1.000000	-1.000000	-1.000000	-1.000000	-1.000000	-1.000000	51.000000	0.000000	-1.000000	-1.000000	463940.000000	1775792782.218524
-15390.585000	-17393.805000	11856.105000	38451.510000	13272.570000	975.645000	-28062.405000	-38513.205000	-5.292076	-5.178846	-3.341689	0.170470	16.263299	16.863492	-0.549293	-5.542329	1.754900	1.815940	1.052940	-0.927061	0.020386	0.361815	-1.000000	-1.000000	-1.000000	-1.000000	-1.000000	-1.000000	-1.000000	51.000000	0.000000	-1.000000	-1.000000	463941.000000	1775792782.218540
-15399.630000	-17407.800000	11841.840000	38435.535000	13254.165000	955.170000	-28063.845000	-38521.665000	-2.318988	-2.443861	-0.751227	0.654097	5.070301	-1.089594	0.037864	-1.977748	1.754900	1.815940	1.052940	-0.927061	0.020386	0.361815	-1.000000	-1.000000	-1.000000	-1.000000	-1.000000	-1.000000	-1.000000	51.000000	0.000000	-1.000000	-1.000000	463942.000000	1775792782.221911
-15368.490000	-17386.650000	11862.225000	38454.210000	13282.110000	964.980000	-28067.805000	-38499.570000	1.387921	0.228781	1.049997	-0.246132	-8.205205	-18.137586	1.082510	2.299698	1.754900	1.815940	1.052940	-0.927061	0.020386	0.361815	-1.000000	-1.000000	-1.000000	-1.000000	-1.000000	-1.000000	-1.000000	51.000000	0.000000	-1.000000	-1.000000	463943.000000	1775792782.221925
-15346.710000	-17370.990000	11879.010000	38473.155000	13302.855000	970.605000	-28075.185000	-38483.550000	6.726629	3.746444	3.313045	-0.006401	-14.377273	-27.041947	1.500339	7.228764	-0.152600	0.946120	2.868880	-0.927244	0.024658	0.361449	-1.000000	-1.000000	-1.000000	-1.000000	-1.000000	-1.000000	-1.000000	51.000000	0.000000	-1.000000	-1.000000	463944.000000	1775792782.226752
-15357.285000	-17374.095000	11874.195000	38466.810000	13295.520000	964.800000	-28075.410000	-38487.780000	12.777442	8.436770	6.924454	3.131127	-9.454467	-24.029396	0.572309	11.846924	-0.152600	0.946120	2.868880	-0.927244	0.024658	0.361449	-1.000000	-1.000000	-1.000000	-1.000000	-1.000000	-1.000000	-1.000000	51.000000	0.000000	-1.000000	-1.000000	463945.000000	1775792782.226769
-15378.165000	-17373.735000	11875.545000	38468.520000	13295.970000	969.570000	-28070.190000	-38494.215000	14.488421	11.394406	9.404895	6.678908	0.917864	-12.193345	-0.819311	12.871356	-0.152600	0.946120	2.868880	-0.927244	0.024658	0.361449	-1.000000	-1.000000	-1.000000	-1.000000	-1.000000	-1.000000	-1.000000	51.000000	0.000000	-1.000000	-1.000000	463946.000000	1775792782.230815
-15379.470000	-17372.340000	11878.155000	38470.410000	13297.680000	968.355000	-28069.290000	-38500.695000	7.911475	9.496013	7.768975	6.866891	8.085406	1.585012	-1.096183	7.815031	-0.152600	0.946120	2.868880	-0.927244	0.024658	0.361449	-1.000000	-1.000000	-1.000000	-1.000000	-1.000000	-1.000000	-1.000000	51.000000	0.000000	-1.000000	-1.000000	463947.000000	1775792782.230836
-15372.315000	-17373.150000	11876.085000	38465.460000	13283.505000	955.350000	-28075.230000	-38503.035000	-3.722532	3.176864	2.300976	3.024256	8.111029	11.277455	0.006241	-1.520108	-0.152600	0.946120	2.868880	-0.927244	0.024658	0.361449	-1.000000	-1.000000	-1.000000	-1.000000	-1.000000	-1.000000	-1.000000	51.000000	0.000000	-1.000000	-1.000000	463948.000000	1775792782.233807
-15366.645000	-17369.550000	11879.415000	38467.305000	13283.955000	956.250000	-28077.930000	-38501.865000	-12.563636	-4.220575	-4.125497	-2.630892	2.438245	13.936502	1.128289	-10.122550	-0.152600	0.946120	2.868880	-0.927244	0.024658	0.361449	-1.000000	-1.000000	-1.000000	-1.000000	-1.000000	-1.000000	-1.000000	51.000000	0.000000	-1.000000	-1.000000	463949.000000	1775792782.233826
-15364.440000	-17368.695000	11880.270000	38468.160000	13288.095000	966.645000	-28077.120000	-38499.975000	-13.638177	-9.178765	-8.464716	-7.086214	-4.409968	10.897590	1.161571	-13.566350	-0.152600	0.946120	2.868880	-0.927244	0.024658	0.361449	-1.000000	-1.000000	-1.000000	-1.000000	-1.000000	-1.000000	-1.000000	51.000000	0.000000	-1.000000	-1.000000	463950.000000	1775792782.238684
-15362.820000	-17366.985000	11881.080000	38469.600000	13290.480000	964.710000	-28074.690000	-38494.395000	-8.094940	-10.028041	-9.175031	-8.260310	-7.788953	6.214579	0.477981	-10.725435	-0.152600	0.946120	2.868880	-0.927244	0.024658	0.361449	-1.000000	-1.000000	-1.000000	-1.000000	-1.000000	-1.000000	-1.000000	51.000000	0.000000	-1.000000	-1.000000	463951.000000	1775792782.238702
-15361.695000	-17364.465000	11885.130000	38474.910000	13293.810000	952.290000	-28075.995000	-38493.855000	-0.587421	-7.354219	-6.674621	-6.001658	-6.121226	2.410505	0.033976	-3.851176	-0.152600	0.946120	2.868880	-0.927244	0.024658	0.361449	-1.000000	-1.000000	-1.000000	-1.000000	-1.000000	-1.000000	-1.000000	51.000000	0.000000	-1.000000	-1.000000	463952.000000	1775792782.241781
-15364.665000	-17373.870000	11873.520000	38465.280000	13286.610000	938.160000	-28072.845000	-38491.020000	4.652696	-3.206331	-2.777824	-1.956252	-1.492591	-0.954053	0.156821	3.218470	-0.152600	0.946120	2.868880	-0.927244	0.024658	0.361449	-1.000000	-1.000000	-1.000000	-1.000000	-1.000000	-1.000000	-1.000000	51.000000	0.000000	-1.000000	-1.000000	463953.000000	1775792782.241795
-15365.520000	-17375.040000	11873.520000	38467.125000	13290.660000	940.140000	-28073.970000	-38492.145000	5.848929	0.104347	0.310238	1.454453	2.653977	-4.401878	0.532724	7.320154	-3.494540	0.350980	3.235120	-0.926511	0.026794	0.359252	-1.000000	-1.000000	-1.000000	-1.000000	-1.000000	-1.000000	-1.000000	51.000000	0.000000	-1.000000	-1.000000	463954.000000	1775792782.254875
-15357.555000	-17363.070000	11886.975000	38480.805000	13301.100000	948.060000	-28072.890000	-38488.095000	3.933864	1.786780	1.861467	3.118624	4.543654	-6.267935	0.700330	7.441284	-3.494540	0.350980	3.235120	-0.926511	0.026794	0.359252	-1.000000	-1.000000	-1.000000	-1.000000	-1.000000	-1.000000	-1.000000	51.000000	0.000000	-1.000000	-1.000000	463955.000000	1775792782.254898
-15356.880000	-17357.715000	11892.015000	38481.480000	13296.735000	933.795000	-28077.885000	-38490.255000	1.343581	2.989756	3.111167	3.877577	4.599922	-4.827736	0.320787	4.646193	-3.494540	0.350980	3.235120	-0.926511	0.026794	0.359252	-1.000000	-1.000000	-1.000000	-1.000000	-1.000000	-1.000000	-1.000000	51.000000	0.000000	-1.000000	-1.000000	463956.000000	1775792782.254923
-15369.795000	-17371.170000	11878.245000	38462.760000	13277.340000	899.730000	-28089.720000	-38502.945000	-0.465943	4.220880	4.460945	3.921128	3.049382	-1.835049	-0.833929	0.601407	-3.494540	0.350980	3.235120	-0.926511	0.026794	0.359252	-1.000000	-1.000000	-1.000000	-1.000000	-1.000000	-1.000000	-1.000000	51.000000	0.000000	-1.000000	-1.000000	463957.000000	1775792782.254933
-15371.235000	-17384.895000	11860.020000	38442.825000	13258.935000	882.405000	-28086.615000	-38500.740000	-1.892309	3.823711	3.943365	1.650630	-0.783782	-1.052349	-2.536450	-3.378563	-3.494540	0.350980	3.235120	-0.926511	0.026794	0.359252	-1.000000	-1.000000	-1.000000	-1.000000	-1.000000	-1.000000	-1.000000	51.000000	0.000000	-1.000000	-1.000000	463958.000000	1775792782.262819
-15357.555000	-17366.625000	11879.640000	38462.985000	13248.360000	866.745000	-28086.975000	-38489.985000	-2.912845	1.038057	0.650141	-2.790048	-6.118882	-3.121735	-3.528485	-5.584796	-3.494540	0.350980	3.235120	-0.926511	0.026794	0.359252	-1.000000	-1.000000	-1.000000	-1.000000	-1.000000	-1.000000	-1.000000	51.000000	0.000000	-1.000000	-1.000000	463959.000000	1775792782.262841
-15339.465000	-17344.440000	11904.930000	38491.065000	13256.370000	892.755000	-28072.665000	-38470.095000	-1.885368	-1.213208	-2.078715	-5.042851	-9.537910	-4.165604	-2.305661	-4.077597	-3.494540	0.350980	3.235120	-0.926511	0.026794	0.359252	-1.000000	-1.000000	-1.000000	-1.000000	-1.000000	-1.000000	-1.000000	51.000000	0.000000	-1.000000	-1.000000	463960.000000	1775792782.262867
-15353.505000	-17359.200000	11892.600000	38479.950000	13275.810000	861.480000	-28080.855000	-38485.575000	1.540790	-0.121470	-0.760212	-1.574354	-7.208332	-0.531810	1.063086	0.670126	-3.494540	0.350980	3.235120	-0.926511	0.026794	0.359252	-1.000000	-1.000000	-1.000000	-1.000000	-1.000000	-1.000000	-1.000000	51.000000	0.000000	-1.000000	-1.000000	463961.000000	1775792782.262878
-15368.940000	-17368.650000	11886.480000	38476.395000	13292.010000	889.785000	-28080.270000	-38498.940000	4.096776	2.169414	2.550502	4.490246	1.461204	6.451831	4.311779	4.489078	-3.494540	0.350980	3.235120	-0.926511	0.026794	0.359252	-1.000000	-1.000000	-1.000000	-1.000000	-1.000000	-1.000000	-1.000000	51.000000	0.000000	-1.000000	-1.000000	463962.000000	1775792782.262895
-15374.970000	-17387.955000	11863.080000	38454.345000	13292.685000	977.580000	-28070.775000	-38497.770000	2.364185	1.397603	2.839251	6.721131	12.044709	14.301838	5.211829	3.626764	-3.494540	0.350980	3.235120	-0.926511	0.026794	0.359252	-1.000000	-1.000000	-1.000000	-1.000000	-1.000000	-1.000000	-1.000000	51.000000	0.000000	-1.000000	-1.000000	463963.000000	1775792782.262906
-15373.125000	-17385.750000	11860.560000	38457.495000	13318.605000	1042.110000	-28067.805000	-38498.445000	-2.528968	-2.990399	-1.524976	2.702924	18.122519	23.543117	3.910553	-0.711391	-3.448760	0.549360	2.716280	-0.927732	0.026062	0.359557	-1.000000	-1.000000	-1.000000	-1.000000	-1.000000	-1.000000	-1.000000	51.000000	0.000000	-1.000000	-1.000000	463964.000000	1775792782.275079
-15369.435000	-17377.515000	11872.080000	38469.645000	13332.555000	1059.345000	-28059.345000	-38494.080000	-6.064231	-7.016787	-6.869076	-3.735300	16.746243	31.337325	1.894319	-4.232840	-3.448760	0.549360	2.716280	-0.927732	0.026062	0.359557	-1.000000	-1.000000	-1.000000	-1.000000	-1.000000	-1.000000	-1.000000	51.000000	0.000000	-1.000000	-1.000000	463965.000000	1775792782.275100
-15364.035000	-17375.085000	11875.365000	38471.220000	13329.765000	1031.265000	-28058.940000	-38489.535000	-5.089530	-6.418537	-7.850083	-6.708332	9.269627	27.893847	0.103487	-4.137500	-3.448760	0.549360	2.716280	-0.927732	0.026062	0.359557	-1.000000	-1.000000	-1.000000	-1.000000	-1.000000	-1.000000	-1.000000	51.000000	0.000000	-1.000000	-1.000000	463966.000000	1775792782.275162
-15368.355000	-17376.750000	11874.960000	38469.555000	13316.985000	1002.060000	-28067.175000	-38493.630000	-0.387148	-1.139309	-3.078257	-4.336256	-1.809435	6.104569	-1.577617	-0.930268	-3.448760	0.549360	2.716280	-0.927732	0.026062	0.359557	-1.000000	-1.000000	-1.000000	-1.000000	-1.000000	-1.000000	-1.000000	51.000000	0.000000	-1.000000	-1.000000	463967.000000	1775792782.275172
-15371.370000	-17378.910000	11873.790000	38468.205000	13302.675000	978.840000	-28072.440000	-38495.745000	4.458487	4.928727	3.791785	0.392254	-13.738340	-27.890151	-3.740159	2.602281	-3.448760	0.549360	2.716280	-0.927732	0.026062	0.359557	-1.000000	-1.000000	-1.000000	-1.000000	-1.000000	-1.000000	-1.000000	51.000000	0.000000	-1.000000	-1.000000	463968.000000	1775792782.275186
-15363.900000	-17370.540000	11880.585000	38473.920000	13305.060000	975.465000	-28072.035000	-38491.380000	6.454209	8.077961	8.268598	3.805159	-22.503495	-56.599862	-6.001695	4.088906	-3.448760	0.549360	2.716280	-0.927732	0.026062	0.359557	-1.000000	-1.000000	-1.000000	-1.000000	-1.000000	-1.000000	-1.000000	51.000000	0.000000	-1.000000	-1.000000	463969.000000	1775792782.275195
-15367.455000	-17375.040000	11872.125000	38463.075000	13298.130000	971.775000	-28071.765000	-38493.765000	5.365168	7.441008	8.441822	4.376503	-23.926156	-63.692582	-6.739302	3.334228	-3.448760	0.549360	2.716280	-0.927732	0.026062	0.359557	-1.000000	-1.000000	-1.000000	-1.000000	-1.000000	-1.000000	-1.000000	51.000000	0.000000	-1.000000	-1.000000	463970.000000	1775792782.280950
-15370.605000	-17377.875000	11868.840000	38458.620000	13296.735000	973.125000	-28069.830000	-38495.565000	2.510186	4.074106	4.827659	2.284897	-16.919178	-45.250699	-4.782492	1.401154	-3.448760	0.549360	2.716280	-0.927732	0.026062	0.359557	-1.000000	-1.000000	-1.000000	-1.000000	-1.000000	-1.000000	-1.000000	51.000000	0.000000	-1.000000	-1.000000	463971.000000	1775792782.280972
-15373.980000	-17377.470000	11872.485000	38464.650000	13299.165000	963.585000	-28077.570000	-38502.630000	-0.874641	-0.421860	-0.503176	-1.031617	-4.615494	-11.233057	-0.867491	-0.809039	-3.448760	0.549360	2.716280	-0.927732	0.026062	0.359557	-1.000000	-1.000000	-1.000000	-1.000000	-1.000000	-1.000000	-1.000000	51.000000	0.000000	-1.000000	-1.000000	463972.000000	1775792782.281432
-15373.440000	-17375.040000	11876.895000	38468.205000	13300.560000	959.580000	-28079.325000	-38503.440000	-3.624076	-4.104728	-4.571183	-3.113994	7.969552	22.056911	2.821130	-2.686847	-3.448760	0.549360	2.716280	-0.927732	0.026062	0.359557	-1.000000	-1.000000	-1.000000	-1.000000	-1.000000	-1.000000	-1.000000	51.000000	0.000000	-1.000000	-1.000000	463973.000000	1775792782.281451
-15368.985000	-17373.600000	11876.175000	38467.395000	13297.905000	957.420000	-28071.810000	-38496.735000	-4.580683	-5.425591	-5.420908	-2.524364	16.425271	41.826593	4.754896	-3.407608	-2.029580	-0.640920	2.395820	-0.930173	0.021728	0.361205	-1.000000	-1.000000	-1.000000	-1.000000	-1.000000	-1.000000	-1.000000	51.000000	0.000000	-1.000000	-1.000000	463974.000000	1775792782.289000
-15364.215000	-17373.060000	11876.490000	38467.260000	13296.555000	948.105000	-28070.055000	-38491.290000	-3.217958	-4.264292	-3.563083	-0.243355	18.368260	44.081038	5.204666	-2.134714	-2.029580	-0.640920	2.395820	-0.930173	0.021728	0.361205	-1.000000	-1.000000	-1.000000	-1.000000	-1.000000	-1.000000	-1.000000	51.000000	0.000000	-1.000000	-1.000000	463975.000000	1775792782.289018
-15366.375000	-17372.790000	11875.905000	38463.480000	13288.185000	947.655000	-28067.355000	-38489.670000	-0.336383	-1.824244	-0.963886	1.651898	14.104138	32.588873	4.910997	0.788782	-2.029580	-0.640920	2.395820	-0.930173	0.021728	0.361205	-1.000000	-1.000000	-1.000000	-1.000000	-1.000000	-1.000000	-1.000000	51.000000	0.000000	-1.000000	-1.000000	463976.000000	1775792782.292156
-15370.380000	-17375.985000	11871.135000	38457.495000	13276.035000	936.765000	-28078.920000	-38498.940000	2.108061	0.347791	0.706948	1.803047	5.988608	14.918425	3.703500	3.363347	-2.029580	-0.640920	2.395820	-0.930173	0.021728	0.361205	-1.000000	-1.000000	-1.000000	-1.000000	-1.000000	-1.000000	-1.000000	51.000000	0.000000	-1.000000	-1.000000	463977.000000	1775792782.292172
-15378.390000	-17388.405000	11858.895000	38447.460000	13262.850000	933.840000	-28079.280000	-38505.330000	2.394288	1.065106	0.657419	0.136894	-2.865741	-1.598260	1.061091	3.370613	-2.029580	-0.640920	2.395820	-0.930173	0.021728	0.361205	-1.000000	-1.000000	-1.000000	-1.000000	-1.000000	-1.000000	-1.000000	51.000000	0.000000	-1.000000	-1.000000	463978.000000	1775792782.308164
-15371.820000	-17382.195000	11868.255000	38459.880000	13286.025000	942.345000	-28085.580000	-38501.730000	0.600322	0.155802	-0.701889	-2.028325	-8.897062	-12.067365	-2.436724	0.678398	-2.029580	-0.640920	2.395820	-0.930173	0.021728	0.361205	-1.000000	-1.000000	-1.000000	-1.000000	-1.000000	-1.000000	-1.000000	51.000000	0.000000	-1.000000	-1.000000	463979.000000	1775792782.308187
-15343.155000	-17356.680000	11892.510000	38484.270000	13319.100000	970.830000	-28077.390000	-38478.825000	-0.840818	-0.534075	-1.148856	-2.092156	-8.352728	-14.104596	-4.934786	-1.961145	-2.029580	-0.640920	2.395820	-0.930173	0.021728	0.361205	-1.000000	-1.000000	-1.000000	-1.000000	-1.000000	-1.000000	-1.000000	51.000000	0.000000	-1.000000	-1.000000	463980.000000	1775792782.308215
-15348.240000	-17365.950000	11881.170000	38472.345000	13309.380000	972.180000	-28077.435000	-38484.990000	0.508723	1.130476	1.164243	1.206089	-0.922604	-8.545270	-4.758436	-1.667590	-2.029580	-0.640920	2.395820	-0.930173	0.021728	0.361205	-1.000000	-1.000000	-1.000000	-1.000000	-1.000000	-1.000000	-1.000000	51.000000	0.000000	-1.000000	-1.000000	463981.000000	1775792782.308224
-15364.305000	-17372.340000	11875.905000	38467.845000	13301.820000	965.970000	-28081.260000	-38495.430000	3.096141	3.800149	4.240507	4.917905	7.228314	-0.550155	-2.102630	0.663223	-2.029580	-0.640920	2.395820	-0.930173	0.021728	0.361205	-1.000000	-1.000000	-1.000000	-1.000000	-1.000000	-1.000000	-1.000000	51.000000	0.000000	-1.000000	-1.000000	463982.000000	1775792782.308235
-15369.345000	-17368.155000	11882.970000	38475.045000	13307.400000	964.845000	-28077.390000	-38495.520000	2.740036	4.108296	4.556669	5.108025	8.949020	3.443631	1.057090	1.562781	-2.029580	-0.640920	2.395820	-0.930173	0.021728	0.361205	-1.000000	-1.000000	-1.000000	-1.000000	-1.000000	-1.000000	-1.000000	51.000000	0.000000	-1.000000	-1.000000	463983.000000	1775792782.308244
-15361.920000	-17365.005000	11887.335000	38479.905000	13312.035000	965.745000	-28078.245000	-38492.100000	-1.318765	1.521903	1.944991	1.872802	3.661253	1.292101	2.984408	-0.082576	0.701960	0.137340	1.205540	-0.927549	0.020447	0.361632	-1.000000	-1.000000	-1.000000	-1.000000	-1.000000	-1.000000	-1.000000	51.000000	0.000000	-1.000000	-1.000000	463984.000000	1775792782.308255
-15356.655000	-17366.580000	11886.255000	38478.510000	13306.635000	962.955000	-28079.190000	-38491.290000	-5.259196	-1.679949	-1.140042	-1.852789	-3.818298	-4.006725	3.199989	-2.208167	0.701960	0.137340	1.205540	-0.927549	0.020447	0.361632	-1.000000	-1.000000	-1.000000	-1.000000	-1.000000	-1.000000	-1.000000	51.000000	0.000000	-1.000000	-1.000000	463985.000000	1775792782.308265
-15357.105000	-17367.120000	11885.310000	38476.980000	13300.875000	962.055000	-28077.570000	-38490.345000	-5.579548	-3.611286	-3.061828	-4.122616	-9.145829	-8.171914	2.058448	-2.768910	0.701960	0.137340	1.205540	-0.927549	0.020447	0.361632	-1.000000	-1.000000	-1.000000	-1.000000	-1.000000	-1.000000	-1.000000	51.000000	0.000000	-1.000000	-1.000000	463986.000000	1775792782.311204
-15371.100000	-17368.065000	11882.880000	38473.380000	13296.555000	953.370000	-28080.900000	-38492.055000	-2.786810	-3.886097	-3.722231	-4.797839	-10.777746	-8.911905	0.345679	-1.619475	0.701960	0.137340	1.205540	-0.927549	0.020447	0.361632	-1.000000	-1.000000	-1.000000	-1.000000	-1.000000	-1.000000	-1.000000	51.000000	0.000000	-1.000000	-1.000000	463987.000000	1775792782.311225
-15378.210000	-17370.180000	11879.235000	38468.700000	13294.440000	944.145000	-28087.965000	-38500.335000	-0.070734	-2.964079	-3.567010	-4.436890	-8.944477	-6.628244	-1.318126	-0.053917	0.701960	0.137340	1.205540	-0.927549	0.020447	0.361632	-1.000000	-1.000000	-1.000000	-1.000000	-1.000000	-1.000000	-1.000000	51.000000	0.000000	-1.000000	-1.000000	463988.000000	1775792782.315659
-15362.415000	-17369.100000	11878.830000	38466.045000	13293.135000	939.420000	-28092.735000	-38502.315000	0.925965	-1.492317	-2.903403	-3.480784	-4.649155	-3.059229	-2.729802	0.572378	0.701960	0.137340	1.205540	-0.927549	0.020447	0.361632	-1.000000	-1.000000	-1.000000	-1.000000	-1.000000	-1.000000	-1.000000	51.000000	0.000000	-1.000000	-1.000000	463989.000000	1775792782.315675
-15359.490000	-17366.670000	11881.620000	38466.315000	13287.960000	941.760000	-28093.230000	-38500.515000	1.662419	0.109561	-1.677150	-1.993059	0.533171	0.622305	-3.516594	0.197656	0.701960	0.137340	1.205540	-0.927549	0.020447	0.361632	-1.000000	-1.000000	-1.000000	-1.000000	-1.000000	-1.000000	-1.000000	51.000000	0.000000	-1.000000	-1.000000	463990.000000	1775792782.322106
-15362.280000	-17365.095000	11884.590000	38466.180000	13281.885000	945.405000	-28090.485000	-38500.110000	3.355904	1.636113	0.251445	0.090066	4.704804	4.225374	-2.945079	-0.054400	0.701960	0.137340	1.205540	-0.927549	0.020447	0.361632	-1.000000	-1.000000	-1.000000	-1.000000	-1.000000	-1.000000	-1.000000	51.000000	0.000000	-1.000000	-1.000000	463991.000000	1775792782.322128
-15361.380000	-17364.870000	11883.105000	38465.280000	13280.220000	951.435000	-28086.840000	-38497.320000	4.729153	2.742933	2.453673	2.415560	6.548208	7.527235	-0.690396	0.620138	0.701960	0.137340	1.205540	-0.927549	0.020447	0.361632	-1.000000	-1.000000	-1.000000	-1.000000	-1.000000	-1.000000	-1.000000	51.000000	0.000000	-1.000000	-1.000000	463992.000000	1775792782.323610
-15353.595000	-17362.665000	11884.545000	38470.050000	13285.395000	928.755000	-28081.620000	-38488.545000	4.319225	2.998495	3.892345	4.249215	6.266936	9.169195	2.520132	2.060117	0.701960	0.137340	1.205540	-0.927549	0.020447	0.361632	-1.000000	-1.000000	-1.000000	-1.000000	-1.000000	-1.000000	-1.000000	51.000000	0.000000	-1.000000	-1.000000	463993.000000	1775792782.323626
-15353.460000	-17368.020000	11882.115000	38473.290000	13296.285000	893.475000	-28080.315000	-38488.365000	2.430304	2.209643	3.782782	5.098697	5.327726	6.636156	5.176443	3.534263	-1.526000	1.342880	1.266580	-0.924863	0.024963	0.362914	-1.000000	-1.000000	-1.000000	-1.000000	-1.000000	-1.000000	-1.000000	51.000000	0.000000	-1.000000	-1.000000	463994.000000	1775792782.327481
-15358.815000	-17373.105000	11880.450000	38474.100000	13291.110000	890.685000	-28085.760000	-38495.655000	-0.017287	0.440128	2.188898	4.818604	4.739631	-0.667224	5.722518	3.825198	-1.526000	1.342880	1.266580	-0.924863	0.024963	0.362914	-1.000000	-1.000000	-1.000000	-1.000000	-1.000000	-1.000000	-1.000000	51.000000	0.000000	-1.000000	-1.000000	463995.000000	1775792782.327500
-15362.505000	-17372.565000	11881.035000	38473.695000	13275.855000	926.505000	-28089.045000	-38498.670000	-2.614485	-1.767029	-0.075160	3.328110	3.530861	-7.637890	3.442275	1.879563	-1.526000	1.342880	1.266580	-0.924863	0.024963	0.362914	-1.000000	-1.000000	-1.000000	-1.000000	-1.000000	-1.000000	-1.000000	51.000000	0.000000	-1.000000	-1.000000	463996.000000	1775792782.330646
-15378.075000	-17379.630000	11874.240000	38468.385000	13288.635000	969.705000	-28091.340000	-38506.500000	-5.093268	-3.336992	-1.987317	0.733541	0.449631	-6.424453	-0.731113	-1.838845	-1.526000	1.342880	1.266580	-0.924863	0.024963	0.362914	-1.000000	-1.000000	-1.000000	-1.000000	-1.000000	-1.000000	-1.000000	51.000000	0.000000	-1.000000	-1.000000	463997.000000	1775792782.330664
-15377.220000	-17380.350000	11872.575000	38467.035000	13305.960000	1000.845000	-28083.285000	-38502.990000	-6.815039	-3.514738	-3.004168	-2.370449	-2.850331	4.861334	-4.408249	-5.293717	-1.526000	1.342880	1.266580	-0.924863	0.024963	0.362914	-1.000000	-1.000000	-1.000000	-1.000000	-1.000000	-1.000000	-1.000000	51.000000	0.000000	-1.000000	-1.000000	463998.000000	1775792782.345250
-15369.165000	-17381.565000	11867.535000	38459.205000	13297.050000	994.455000	-28080.900000	-38502.315000	-6.416384	-2.298746	-3.071137	-4.951103	-3.607971	18.164876	-5.321048	-6.268044	-1.526000	1.342880	1.266580	-0.924863	0.024963	0.362914	-1.000000	-1.000000	-1.000000	-1.000000	-1.000000	-1.000000	-1.000000	51.000000	0.000000	-1.000000	-1.000000	463999.000000	1775792782.345274
-15366.825000	-17373.285000	11877.435000	38468.430000	13305.510000	1010.475000	-28081.350000	-38507.220000	-2.774951	-0.007087	-2.082879	-5.867249	-2.115647	22.075280	-3.235771	-4.137252	-1.526000	1.342880	1.266580	-0.924863	0.024963	0.362914	-1.000000	-1.000000	-1.000000	-1.000000	-1.000000	-1.000000	-1.000000	51.000000	0.000000	-1.000000	-1.000000	464000.000000	1775792782.345298
-15363.990000	-17365.095000	11886.480000	38475.945000	13300.200000	995.940000	-28085.985000	-38512.215000	2.966381	2.940892	0.261280	-4.180013	-0.723485	12.163240	-0.169540	-0.534408	-1.526000	1.342880	1.266580	-0.924863	0.024963	0.362914	-1.000000	-1.000000	-1.000000	-1.000000	-1.000000	-1.000000	-1.000000	51.000000	0.000000	-1.000000	-1.000000	464001.000000	1775792782.345308
-15357.645000	-17361.045000	11887.470000	38470.770000	13285.665000	949.410000	-28088.415000	-38511.405000	7.834820	5.672629	3.522276	-0.267262	-1.044050	-7.178353	1.562934	2.321360	-1.526000	1.342880	1.266580	-0.924863	0.024963	0.362914	-1.000000	-1.000000	-1.000000	-1.000000	-1.000000	-1.000000	-1.000000	51.000000	0.000000	-1.000000	-1.000000	464002.000000	1775792782.362882
-15365.070000	-17367.570000	11881.035000	38464.920000	13279.230000	915.300000	-28094.805000	-38520.990000	9.346301	6.589668	5.703901	3.383339	-3.317817	-27.941196	1.184726	3.404748	-1.526000	1.342880	1.266580	-0.924863	0.024963	0.362914	-1.000000	-1.000000	-1.000000	-1.000000	-1.000000	-1.000000	-1.000000	51.000000	0.000000	-1.000000	-1.000000	464003.000000	1775792782.362905
-15367.905000	-17372.565000	11877.660000	38465.775000	13291.470000	914.445000	-28094.400000	-38525.040000	6.686982	4.296656	4.715660	4.295744	-5.699068	-40.934899	-0.413314	2.773352	-5.035800	1.205540	2.044840	-0.925840	0.029236	0.364196	-1.000000	-1.000000	-1.000000	-1.000000	-1.000000	-1.000000	-1.000000	51.000000	0.000000	-1.000000	-1.000000	464004.000000	1775792782.362931
-15368.985000	-17369.955000	11883.510000	38477.520000	13317.255000	937.170000	-28096.335000	-38530.080000	1.135354	-0.606777	0.862939	2.751721	-4.715720	-37.712288	-1.643038	1.123533	-5.035800	1.205540	2.044840	-0.925840	0.029236	0.364196	-1.000000	-1.000000	-1.000000	-1.000000	-1.000000	-1.000000	-1.000000	51.000000	0.000000	-1.000000	-1.000000	464005.000000	1775792782.362942
-15366.735000	-17364.870000	11891.160000	38486.880000	13316.310000	970.470000	-28090.935000	-38531.160000	-4.319117	-5.248338	-3.012098	1.204641	1.012783	-16.270560	-1.355369	-0.381394	-5.035800	1.205540	2.044840	-0.925840	0.029236	0.364196	-1.000000	-1.000000	-1.000000	-1.000000	-1.000000	-1.000000	-1.000000	51.000000	0.000000	-1.000000	-1.000000	464006.000000	1775792782.362955
-15362.055000	-17363.790000	11890.935000	38481.210000	13296.870000	963.270000	-28084.905000	-38525.580000	-6.858358	-6.826474	-4.313565	1.046992	7.549951	14.565637	0.572397	-0.656072	-5.035800	1.205540	2.044840	-0.925840	0.029236	0.364196	-1.000000	-1.000000	-1.000000	-1.000000	-1.000000	-1.000000	-1.000000	51.000000	0.000000	-1.000000	-1.000000	464007.000000	1775792782.362965
-15367.365000	-17383.410000	11862.945000	38451.960000	13285.530000	950.580000	-28074.735000	-38520.135000	-5.774306	-5.347098	-3.561344	0.601544	8.728394	38.472960	3.350774	0.718355	-5.035800	1.205540	2.044840	-0.925840	0.029236	0.364196	-1.000000	-1.000000	-1.000000	-1.000000	-1.000000	-1.000000	-1.000000	51.000000	0.000000	-1.000000	-1.000000	464008.000000	1775792782.362978
-15370.605000	-17390.790000	11852.460000	38447.595000	13296.240000	927.585000	-28075.320000	-38523.870000	-2.768886	-3.352213	-3.574423	-2.508681	3.295433	42.549089	5.538712	2.904108	-5.035800	1.205540	2.044840	-0.925840	0.029236	0.364196	-1.000000	-1.000000	-1.000000	-1.000000	-1.000000	-1.000000	-1.000000	51.000000	0.000000	-1.000000	-1.000000	464009.000000	1775792782.362988
-15372.225000	-17383.275000	11867.535000	38460.600000	13291.740000	920.700000	-28089.315000	-38535.030000	-0.153109	-2.308958	-4.844116	-6.797363	-3.707191	26.552255	5.269341	3.833666	-5.035800	1.205540	2.044840	-0.925840	0.029236	0.364196	-1.000000	-1.000000	-1.000000	-1.000000	-1.000000	-1.000000	-1.000000	51.000000	0.000000	-1.000000	-1.000000	464010.000000	1775792782.366899
-15368.670000	-17379.090000	11871.495000	38461.140000	13288.095000	925.785000	-28086.480000	-38534.265000	1.183885	-0.865563	-4.157011	-7.622352	-7.102651	2.076632	1.597595	2.022954	-5.035800	1.205540	2.044840	-0.925840	0.029236	0.364196	-1.000000	-1.000000	-1.000000	-1.000000	-1.000000	-1.000000	-1.000000	51.000000	0.000000	-1.000000	-1.000000	464011.000000	1775792782.366915
-15363.765000	-17375.940000	11873.295000	38463.210000	13306.590000	950.175000	-28097.280000	-38533.275000	1.849784	2.276869	0.406236	-3.140719	-5.632630	-16.174490	-3.844000	-1.463949	-5.035800	1.205540	2.044840	-0.925840	0.029236	0.364196	-1.000000	-1.000000	-1.000000	-1.000000	-1.000000	-1.000000	-1.000000	51.000000	0.000000	-1.000000	-1.000000	464012.000000	1775792782.367011
-15359.715000	-17380.800000	11865.105000	38454.210000	13310.550000	974.070000	-28095.345000	-38527.470000	2.598642	5.861560	6.212042	3.467635	-0.622149	-19.647334	-7.911913	-3.896387	-5.035800	1.205540	2.044840	-0.925840	0.029236	0.364196	-1.000000	-1.000000	-1.000000	-1.000000	-1.000000	-1.000000	-1.000000	51.000000	0.000000	-1.000000	-1.000000	464013.000000	1775792782.367022
-15359.355000	-17374.455000	11872.620000	38460.915000	13295.880000	935.505000	-28088.865000	-38527.965000	3.288471	7.469851	9.175678	7.739900	4.783814	-11.049848	-8.241570	-3.625358	-6.058220	2.456860	1.938020	-0.927183	0.029053	0.365233	-1.000000	-1.000000	-1.000000	-1.000000	-1.000000	-1.000000	-1.000000	51.000000	0.000000	-1.000000	-1.000000	464014.000000	1775792782.367038
-15356.655000	-17367.840000	11884.635000	38478.330000	13308.345000	953.145000	-28088.145000	-38530.575000	3.138808	6.288220	8.151536	8.245535	6.832304	-0.982190	-4.453683	-1.418978	-6.058220	2.456860	1.938020	-0.927183	0.029053	0.365233	-1.000000	-1.000000	-1.000000	-1.000000	-1.000000	-1.000000	-1.000000	51.000000	0.000000	-1.000000	-1.000000	464015.000000	1775792782.367048
-15363.045000	-17372.520000	11881.530000	38477.745000	13314.285000	981.630000	-28085.625000	-38533.365000	1.649693	3.350565	4.939003	6.606413	4.897402	3.671059	1.397091	0.628877	-6.058220	2.456860	1.938020	-0.927183	0.029053	0.365233	-1.000000	-1.000000	-1.000000	-1.000000	-1.000000	-1.000000	-1.000000	51.000000	0.000000	-1.000000	-1.000000	464016.000000	1775792782.371483
-15381.900000	-17380.530000	11869.830000	38462.850000	13309.920000	995.445000	-28084.905000	-38542.050000	-1.261336	-0.370827	0.941408	3.799381	1.410786	4.607981	6.111905	1.015928	-6.058220	2.456860	1.938020	-0.927183	0.029053	0.365233	-1.000000	-1.000000	-1.000000	-1.000000	-1.000000	-1.000000	-1.000000	51.000000	0.000000	-1.000000	-1.000000	464017.000000	1775792782.371500
-15369.030000	-17368.515000	11869.335000	38450.385000	13295.925000	964.305000	-28080.090000	-38526.660000	-4.794630	-4.038144	-3.591254	-0.909200	-2.005613	4.153651	7.655520	0.043410	-6.058220	2.456860	1.938020	-0.927183	0.029053	0.365233	-1.000000	-1.000000	-1.000000	-1.000000	-1.000000	-1.000000	-1.000000	51.000000	0.000000	-1.000000	-1.000000	464018.000000	1775792782.378364
-15367.410000	-17367.390000	11880.810000	38469.915000	13303.035000	947.520000	-28090.755000	-38538.990000	-6.472432	-5.953499	-7.277294	-6.537796	-5.013280	0.464344	5.864297	-0.687431	-6.058220	2.456860	1.938020	-0.927183	0.029053	0.365233	-1.000000	-1.000000	-1.000000	-1.000000	-1.000000	-1.000000	-1.000000	51.000000	0.000000	-1.000000	-1.000000	464019.000000	1775792782.378388
-15380.730000	-17378.775000	11873.205000	38466.945000	13305.735000	972.360000	-28094.895000	-38553.030000	-4.624726	-5.270887	-7.890773	-9.326025	-6.422374	-6.474027	1.661000	-0.781769	-6.058220	2.456860	1.938020	-0.927183	0.029053	0.365233	-1.000000	-1.000000	-1.000000	-1.000000	-1.000000	-1.000000	-1.000000	51.000000	0.000000	-1.000000	-1.000000	464020.000000	1775792782.387228
-15388.695000	-17390.880000	11861.595000	38456.460000	13307.715000	988.335000	-28092.195000	-38558.655000	-1.062647	-3.614561	-5.521988	-7.358581	-4.894150	-10.857610	-3.108431	-1.408968	-6.058220	2.456860	1.938020	-0.927183	0.029053	0.365233	-1.000000	-1.000000	-1.000000	-1.000000	-1.000000	-1.000000	-1.000000	51.000000	0.000000	-1.000000	-1.000000	464021.000000	1775792782.387251
-15381.765000	-17389.440000	11860.695000	38452.995000	13305.510000	980.100000	-28095.525000	-38555.505000	1.593328	-2.763023	-2.557492	-3.055119	-1.134511	-7.968379	-5.995162	-2.452997	-6.058220	2.456860	1.938020	-0.927183	0.029053	0.365233	-1.000000	-1.000000	-1.000000	-1.000000	-1.000000	-1.000000	-1.000000	51.000000	0.000000	-1.000000	-1.000000	464022.000000	1775792782.387275
-15349.995000	-17356.275000	11893.455000	38484.180000	13310.145000	982.035000	-28095.120000	-38533.635000	3.637623	-1.616711	0.182089	1.050750	2.608980	-0.493245	-5.722233	-1.759351	-6.058220	2.456860	1.938020	-0.927183	0.029053	0.365233	-1.000000	-1.000000	-1.000000	-1.000000	-1.000000	-1.000000	-1.000000	51.000000	0.000000	-1.000000	-1.000000	464023.000000	1775792782.387285
-15355.170000	-17361.765000	11889.225000	38480.445000	13308.660000	970.020000	-28094.940000	-38533.815000	6.625178	2.092539	3.933232	4.958275	4.619048	5.375026	-2.993380	2.049768	-4.120200	2.563680	2.182180	-0.930418	0.024353	0.366637	-1.000000	-1.000000	-1.000000	-1.000000	-1.000000	-1.000000	-1.000000	51.000000	0.000000	-1.000000	-1.000000	464024.000000	1775792782.387298
-15364.890000	-17369.730000	11882.430000	38474.730000	13310.910000	968.220000	-28094.625000	-38540.115000	8.939135	6.889249	7.684922	7.877712	4.490025	6.211193	0.513893	6.748275	-4.120200	2.563680	2.182180	-0.930418	0.024353	0.366637	-1.000000	-1.000000	-1.000000	-1.000000	-1.000000	-1.000000	-1.000000	51.000000	0.000000	-1.000000	-1.000000	464025.000000	1775792782.387309
-15357.645000	-17360.595000	11892.735000	38485.845000	13316.355000	966.285000	-28095.075000	-38536.605000	7.121071	8.457519	8.158892	7.506014	2.892000	3.022536	3.205746	8.218106	-4.120200	2.563680	2.182180	-0.930418	0.024353	0.366637	-1.000000	-1.000000	-1.000000	-1.000000	-1.000000	-1.000000	-1.000000	51.000000	0.000000	-1.000000	-1.000000	464026.000000	1775792782.394006
-15353.775000	-17371.215000	11880.180000	38473.605000	13304.835000	958.455000	-28094.355000	-38536.155000	1.318049	5.286802	4.428017	3.556440	0.789068	-0.874379	4.190808	5.096435	-4.120200	2.563680	2.182180	-0.930418	0.024353	0.366637	-1.000000	-1.000000	-1.000000	-1.000000	-1.000000	-1.000000	-1.000000	51.000000	0.000000	-1.000000	-1.000000	464027.000000	1775792782.394029
-15354.540000	-17375.040000	11880.810000	38478.510000	13306.410000	952.380000	-28094.085000	-38540.880000	-4.794237	-0.588221	-1.477363	-1.919891	-1.411636	-3.047204	3.512995	-0.446294	-4.120200	2.563680	2.182180	-0.930418	0.024353	0.366637	-1.000000	-1.000000	-1.000000	-1.000000	-1.000000	-1.000000	-1.000000	51.000000	0.000000	-1.000000	-1.000000	464028.000000	1775792782.395419
-15361.695000	-17372.115000	11882.970000	38475.765000	13290.795000	941.130000	-28105.560000	-38544.930000	-8.366798	-6.058910	-6.597268	-6.357299	-3.515501	-3.130177	1.658095	-5.534679	-4.120200	2.563680	2.182180	-0.930418	0.024353	0.366637	-1.000000	-1.000000	-1.000000	-1.000000	-1.000000	-1.000000	-1.000000	51.000000	0.000000	-1.000000	-1.000000	464029.000000	1775792782.395438
-15361.965000	-17370.855000	11877.705000	38460.240000	13272.570000	947.025000	-28107.090000	-38542.545000	-8.960390	-8.311779	-8.476143	-8.125263	-5.317156	-1.714044	-0.907763	-8.209220	-4.120200	2.563680	2.182180	-0.930418	0.024353	0.366637	-1.000000	-1.000000	-1.000000	-1.000000	-1.000000	-1.000000	-1.000000	51.000000	0.000000	-1.000000	-1.000000	464030.000000	1775792782.397940
-15354.405000	-17368.920000	11878.155000	38455.920000	13262.085000	939.060000	-28107.495000	-38541.735000	-7.030829	-6.386966	-6.730442	-7.509612	-6.597389	0.699595	-3.215834	-7.571100	-4.120200	2.563680	2.182180	-0.930418	0.024353	0.366637	-1.000000	-1.000000	-1.000000	-1.000000	-1.000000	-1.000000	-1.000000	51.000000	0.000000	-1.000000	-1.000000	464031.000000	1775792782.397958
-15350.535000	-17353.665000	11894.445000	38475.810000	13290.075000	940.365000	-28093.095000	-38530.620000	-2.999013	-1.562251	-2.561486	-4.962288	-5.773952	3.344862	-3.621710	-3.926295	-4.120200	2.563680	2.182180	-0.930418	0.024353	0.366637	-1.000000	-1.000000	-1.000000	-1.000000	-1.000000	-1.000000	-1.000000	51.000000	0.000000	-1.000000	-1.000000	464032.000000	1775792782.401602
-15349.050000	-17355.285000	11893.770000	38479.455000	13300.335000	938.520000	-28086.750000	-38528.190000	1.941753	3.859967	2.618042	0.003435	-0.472250	5.102284	-1.136604	1.245520	-4.120200	2.563680	2.182180	-0.930418	0.024353	0.366637	-1.000000	-1.000000	-1.000000	-1.000000	-1.000000	-1.000000	-1.000000	51.000000	0.000000	-1.000000	-1.000000	464033.000000	1775792782.401615
-15356.700000	-17367.615000	11883.870000	38476.125000	13319.370000	965.655000	-28091.430000	-38538.315000	5.531580	7.019307	6.567550	6.168988	8.546708	5.795669	2.880310	5.411812	-1.602300	3.891300	0.427280	-0.924436	0.021057	0.367003	-1.000000	-1.000000	-1.000000	-1.000000	-1.000000	-1.000000	-1.000000	51.000000	0.000000	-1.000000	-1.000000	464034.000000	1775792782.409707
-15368.040000	-17376.255000	11879.955000	38481.435000	13347.765000	1005.345000	-28087.650000	-38543.940000	5.730179	5.591616	6.719842	10.036353	16.727295	6.953010	5.313698	5.998774	-1.602300	3.891300	0.427280	-0.924436	0.021057	0.367003	-1.000000	-1.000000	-1.000000	-1.000000	-1.000000	-1.000000	-1.000000	51.000000	0.000000	-1.000000	-1.000000	464035.000000	1775792782.409732
-15365.610000	-17372.700000	11881.305000	38477.520000	13326.795000	990.990000	-28086.030000	-38538.585000	2.565352	0.385419	3.021187	9.314054	19.030512	9.019494	4.395478	2.864274	-1.602300	3.891300	0.427280	-0.924436	0.021057	0.367003	-1.000000	-1.000000	-1.000000	-1.000000	-1.000000	-1.000000	-1.000000	51.000000	0.000000	-1.000000	-1.000000	464036.000000	1775792782.418121
-15368.130000	-17375.805000	11876.670000	38470.005000	13318.605000	975.870000	-28089.675000	-38541.690000	-1.400693	-4.696996	-1.688937	4.563767	12.222196	8.152515	1.015139	-1.207008	-1.602300	3.891300	0.427280	-0.924436	0.021057	0.367003	-1.000000	-1.000000	-1.000000	-1.000000	-1.000000	-1.000000	-1.000000	51.000000	0.000000	-1.000000	-1.000000	464037.000000	1775792782.418145
-15366.240000	-17373.870000	11879.460000	38474.235000	13324.005000	965.700000	-28095.705000	-38543.805000	-3.281324	-6.279961	-4.488924	-1.789535	-2.025970	0.439958	-2.954785	-3.472706	-1.602300	3.891300	0.427280	-0.924436	0.021057	0.367003	-1.000000	-1.000000	-1.000000	-1.000000	-1.000000	-1.000000	-1.000000	51.000000	0.000000	-1.000000	-1.000000	464038.000000	1775792782.418169
-15356.115000	-17366.940000	11884.545000	38476.755000	13319.415000	959.715000	-28096.830000	-38536.875000	-2.050422	-3.864264	-4.188347	-6.514678	-16.229328	-11.597446	-5.939865	-3.215767	-1.602300	3.891300	0.427280	-0.924436	0.021057	0.367003	-1.000000	-1.000000	-1.000000	-1.000000	-1.000000	-1.000000	-1.000000	51.000000	0.000000	-1.000000	-1.000000	464039.000000	1775792782.418181
-15356.655000	-17373.015000	11878.290000	38471.220000	13318.020000	967.410000	-28094.940000	-38535.255000	1.330099	0.667765	-1.490670	-7.517440	-22.974974	-20.454300	-6.709802	-1.043669	-1.602300	3.891300	0.427280	-0.924436	0.021057	0.367003	-1.000000	-1.000000	-1.000000	-1.000000	-1.000000	-1.000000	-1.000000	51.000000	0.000000	-1.000000	-1.000000	464040.000000	1775792782.428679
-15353.640000	-17370.045000	11880.990000	38475.045000	13313.520000	965.295000	-28098.900000	-38537.640000	4.565891	4.432103	1.517356	-5.297644	-20.257264	-20.263041	-4.833593	1.662329	-1.602300	3.891300	0.427280	-0.924436	0.021057	0.367003	-1.000000	-1.000000	-1.000000	-1.000000	-1.000000	-1.000000	-1.000000	51.000000	0.000000	-1.000000	-1.000000	464041.000000	1775792782.428701
-15354.720000	-17361.180000	11890.395000	38481.660000	13303.620000	945.270000	-28102.005000	-38537.415000	5.461927	5.666086	3.240470	-1.605596	-11.184840	-11.631865	-1.350894	3.175580	-1.602300	3.891300	0.427280	-0.924436	0.021057	0.367003	-1.000000	-1.000000	-1.000000	-1.000000	-1.000000	-1.000000	-1.000000	51.000000	0.000000	-1.000000	-1.000000	464042.000000	1775792782.428726
-15362.190000	-17357.985000	11896.020000	38488.905000	13303.485000	925.020000	-28095.030000	-38538.360000	3.346188	4.806231	3.771123	2.207839	-0.800009	-0.862282	2.069020	2.698909	-1.602300	3.891300	0.427280	-0.924436	0.021057	0.367003	-1.000000	-1.000000	-1.000000	-1.000000	-1.000000	-1.000000	-1.000000	51.000000	0.000000	-1.000000	-1.000000	464043.000000	1775792782.428735
-15363.630000	-17363.520000	11889.720000	38483.550000	13309.380000	927.360000	-28099.395000	-38543.670000	-0.805951	2.832433	3.449609	4.912966	7.321378	6.259308	4.432725	0.767043	-0.274680	5.020540	-0.320460	-0.917356	0.021973	0.365294	-1.000000	-1.000000	-1.000000	-1.000000	-1.000000	-1.000000	-1.000000	51.000000	0.000000	-1.000000	-1.000000	464044.000000	1775792782.428745
-15357.285000	-17358.390000	11892.645000	38484.000000	13320.630000	960.660000	-28097.955000	-38539.485000	-4.714296	0.127879	1.875127	5.172707	12.272088	9.702484	5.262354	-1.434441	-0.274680	5.020540	-0.320460	-0.917356	0.021973	0.365294	-1.000000	-1.000000	-1.000000	-1.000000	-1.000000	-1.000000	-1.000000	51.000000	0.000000	-1.000000	-1.000000	464045.000000	1775792782.428753
-15357.195000	-17358.435000	11894.805000	38487.105000	13332.780000	1010.205000	-28094.940000	-38539.215000	-5.986031	-2.608741	-0.763324	2.839420	14.459166	13.682687	4.467759	-2.615097	-0.274680	5.020540	-0.320460	-0.917356	0.021973	0.365294	-1.000000	-1.000000	-1.000000	-1.000000	-1.000000	-1.000000	-1.000000	51.000000	0.000000	-1.000000	-1.000000	464046.000000	1775792782.429929
-15357.015000	-17361.000000	11891.565000	38482.515000	13325.220000	983.655000	-28097.820000	-38538.630000	-4.133650	-4.340381	-3.201465	-0.554616	13.778822	19.160834	2.622974	-2.151386	-0.274680	5.020540	-0.320460	-0.917356	0.021973	0.365294	-1.000000	-1.000000	-1.000000	-1.000000	-1.000000	-1.000000	-1.000000	51.000000	0.000000	-1.000000	-1.000000	464047.000000	1775792782.429948
-15349.815000	-17351.640000	11900.250000	38489.625000	13321.395000	930.060000	-28103.085000	-38534.085000	-0.700418	-4.511461	-4.275466	-3.161347	9.349366	19.056391	0.343109	-0.534608	-0.274680	5.020540	-0.320460	-0.917356	0.021973	0.365294	-1.000000	-1.000000	-1.000000	-1.000000	-1.000000	-1.000000	-1.000000	51.000000	0.000000	-1.000000	-1.000000	464048.000000	1775792782.434556
-15342.795000	-17349.525000	11900.385000	38490.840000	13309.110000	904.410000	-28103.940000	-38526.480000	2.581933	-3.014513	-3.517396	-3.827588	1.362846	6.143815	-1.973023	1.377613	-0.274680	5.020540	-0.320460	-0.917356	0.021973	0.365294	-1.000000	-1.000000	-1.000000	-1.000000	-1.000000	-1.000000	-1.000000	51.000000	0.000000	-1.000000	-1.000000	464049.000000	1775792782.434574
-15343.515000	-17353.485000	11894.130000	38480.805000	13271.580000	899.190000	-28108.620000	-38526.300000	4.589343	-0.551351	-1.563721	-2.735144	-8.161273	-14.929459	-3.683692	2.872543	-0.274680	5.020540	-0.320460	-0.917356	0.021973	0.365294	-1.000000	-1.000000	-1.000000	-1.000000	-1.000000	-1.000000	-1.000000	51.000000	0.000000	-1.000000	-1.000000	464050.000000	1775792782.448792
-15339.735000	-17349.570000	11895.795000	38478.105000	13255.920000	921.195000	-28101.600000	-38520.990000	4.558291	1.360469	0.067674	-1.415190	-16.489071	-29.540583	-3.986830	3.252099	-0.274680	5.020540	-0.320460	-0.917356	0.021973	0.365294	-1.000000	-1.000000	-1.000000	-1.000000	-1.000000	-1.000000	-1.000000	51.000000	0.000000	-1.000000	-1.000000	464051.000000	1775792782.448813
-15345.045000	-17355.555000	11890.980000	38473.020000	13252.680000	948.510000	-28093.365000	-38522.655000	2.418829	1.765786	0.533319	-0.984243	-20.060907	-26.350750	-2.316360	2.170542	-0.274680	5.020540	-0.320460	-0.917356	0.021973	0.365294	-1.000000	-1.000000	-1.000000	-1.000000	-1.000000	-1.000000	-1.000000	51.000000	0.000000	-1.000000	-1.000000	464052.000000	1775792782.448836
-15359.130000	-17365.590000	11886.570000	38478.195000	13304.835000	973.035000	-28095.885000	-38534.805000	-1.208203	0.661955	0.115101	-0.944761	-14.646063	-6.569614	0.875129	-0.257212	-0.274680	5.020540	-0.320460	-0.917356	0.021973	0.365294	-1.000000	-1.000000	-1.000000	-1.000000	-1.000000	-1.000000	-1.000000	51.000000	0.000000	-1.000000	-1.000000	464053.000000	1775792782.448845
-15381.855000	-17386.110000	11868.795000	38467.710000	13332.330000	999.045000	-28103.085000	-38555.190000	-5.592116	-1.703849	-0.816435	-0.314387	1.128303	17.816010	3.519633	-3.863142	0.259420	4.455920	-0.061040	-0.910642	0.024231	0.365172	-1.000000	-1.000000	-1.000000	-1.000000	-1.000000	-1.000000	-1.000000	51.000000	0.000000	-1.000000	-1.000000	464054.000000	1775792782.448857
-15388.560000	-17394.975000	11858.895000	38457.945000	13298.895000	1003.680000	-28103.085000	-38560.815000	-9.474306	-4.615491	-2.167841	0.682036	20.243140	32.997213	3.532789	-7.787303	0.259420	4.455920	-0.061040	-0.910642	0.024231	0.365172	-1.000000	-1.000000	-1.000000	-1.000000	-1.000000	-1.000000	-1.000000	51.000000	0.000000	-1.000000	-1.000000	464055.000000	1775792782.448866
-15372.270000	-17380.530000	11871.090000	38465.955000	13279.995000	1000.845000	-28103.805000	-38547.990000	-10.122945	-5.911134	-2.970750	1.244192	29.074831	31.267979	1.103692	-9.384425	0.259420	4.455920	-0.061040	-0.910642	0.024231	0.365172	-1.000000	-1.000000	-1.000000	-1.000000	-1.000000	-1.000000	-1.000000	51.000000	0.000000	-1.000000	-1.000000	464056.000000	1775792782.460494
-15342.930000	-17348.850000	11902.320000	38495.745000	13342.320000	1013.715000	-28100.520000	-38526.885000	-4.543154	-2.494675	-0.753327	2.260401	21.532176	14.492849	-1.628636	-5.552910	0.259420	4.455920	-0.061040	-0.910642	0.024231	0.365172	-1.000000	-1.000000	-1.000000	-1.000000	-1.000000	-1.000000	-1.000000	51.000000	0.000000	-1.000000	-1.000000	464057.000000	1775792782.460516
-15344.460000	-17348.715000	11902.860000	38491.965000	13326.525000	992.115000	-28101.330000	-38527.470000	6.474835	5.977799	5.498535	5.100370	6.050387	-7.952753	-2.767835	3.407447	0.259420	4.455920	-0.061040	-0.910642	0.024231	0.365172	-1.000000	-1.000000	-1.000000	-1.000000	-1.000000	-1.000000	-1.000000	51.000000	0.000000	-1.000000	-1.000000	464058.000000	1775792782.460543
-15352.920000	-17357.220000	11893.995000	38478.645000	13306.545000	973.395000	-28100.070000	-38533.680000	16.350963	14.189212	11.832141	7.725005	-7.260847	-26.255349	-2.023303	12.153368	0.259420	4.455920	-0.061040	-0.910642	0.024231	0.365172	-1.000000	-1.000000	-1.000000	-1.000000	-1.000000	-1.000000	-1.000000	51.000000	0.000000	-1.000000	-1.000000	464059.000000	1775792782.460553
-15352.155000	-17359.425000	11893.905000	38484.630000	13316.760000	966.240000	-28089.630000	-38528.595000	17.845500	15.231504	12.306905	6.252190	-15.831119	-34.731831	-0.189157	14.657189	0.259420	4.455920	-0.061040	-0.910642	0.024231	0.365172	-1.000000	-1.000000	-1.000000	-1.000000	-1.000000	-1.000000	-1.000000	51.000000	0.000000	-1.000000	-1.000000	464060.000000	1775792782.460566
-15353.370000	-17361.360000	11889.630000	38487.735000	13324.995000	964.080000	-28089.000000	-38530.215000	10.039184	7.685329	5.546327	0.632446	-19.051966	-31.367239	1.874449	9.791168	0.259420	4.455920	-0.061040	-0.910642	0.024231	0.365172	-1.000000	-1.000000	-1.000000	-1.000000	-1.000000	-1.000000	-1.000000	51.000000	0.000000	-1.000000	-1.000000	464061.000000	1775792782.460575
-15352.965000	-17358.795000	11893.950000	38493.270000	13340.520000	956.385000	-28117.710000	-38537.955000	-1.672854	-3.481775	-4.185491	-5.179980	-15.544574	-17.861095	2.658299	1.082985	0.259420	4.455920	-0.061040	-0.910642	0.024231	0.365172	-1.000000	-1.000000	-1.000000	-1.000000	-1.000000	-1.000000	-1.000000	51.000000	0.000000	-1.000000	-1.000000	464062.000000	1775792782.462816
-15359.580000	-17365.320000	11890.080000	38488.995000	13341.555000	972.585000	-28119.420000	-38542.095000	-10.949766	-11.918625	-11.278213	-7.877331	-6.609853	0.452313	0.367706	-7.129025	0.259420	4.455920	-0.061040	-0.910642	0.024231	0.365172	-1.000000	-1.000000	-1.000000	-1.000000	-1.000000	-1.000000	-1.000000	51.000000	0.000000	-1.000000	-1.000000	464063.000000	1775792782.462838
-15371.190000	-17375.490000	11880.900000	38483.370000	13337.100000	990.585000	-28110.150000	-38548.440000	-14.667137	-14.531077	-12.961873	-7.300334	2.968903	17.503111	-3.756181	-11.833471	-0.198380	3.692920	1.953280	-0.908567	0.027832	0.364623	-1.000000	-1.000000	-1.000000	-1.000000	-1.000000	-1.000000	-1.000000	51.000000	0.000000	-1.000000	-1.000000	464064.000000	1775792782.479187
-15362.910000	-17375.040000	11880.900000	38483.505000	13330.665000	985.860000	-28103.715000	-38541.465000	-13.008730	-11.996598	-10.088678	-5.148878	8.089591	28.379398	-5.433269	-11.687380	-0.198380	3.692920	1.953280	-0.908567	0.027832	0.364623	-1.000000	-1.000000	-1.000000	-1.000000	-1.000000	-1.000000	-1.000000	51.000000	0.000000	-1.000000	-1.000000	464065.000000	1775792782.479210
-15349.140000	-17370.090000	11882.745000	38479.410000	13319.505000	979.245000	-28102.500000	-38532.465000	-7.115826	-6.258176	-4.814240	-2.726345	6.938380	29.308127	-2.459259	-6.888542	-0.198380	3.692920	1.953280	-0.908567	0.027832	0.364623	-1.000000	-1.000000	-1.000000	-1.000000	-1.000000	-1.000000	-1.000000	51.000000	0.000000	-1.000000	-1.000000	464066.000000	1775792782.479269
-15357.915000	-17365.275000	11885.805000	38479.455000	13318.065000	968.670000	-28110.510000	-38531.880000	1.128928	0.891009	1.095159	-0.446769	1.733220	19.592185	2.720175	0.618941	-0.198380	3.692920	1.953280	-0.908567	0.027832	0.364623	-1.000000	-1.000000	-1.000000	-1.000000	-1.000000	-1.000000	-1.000000	51.000000	0.000000	-1.000000	-1.000000	464067.000000	1775792782.479282
-15373.845000	-17363.880000	11885.535000	38473.380000	13316.130000	983.205000	-28108.710000	-38538.765000	7.714314	7.344785	6.058523	1.480023	-3.257835	3.906855	5.954901	7.129710	-0.198380	3.692920	1.953280	-0.908567	0.027832	0.364623	-1.000000	-1.000000	-1.000000	-1.000000	-1.000000	-1.000000	-1.000000	51.000000	0.000000	-1.000000	-1.000000	464068.000000	1775792782.479301
-15355.935000	-17358.030000	11891.925000	38480.535000	13330.035000	1007.640000	-28102.995000	-38539.170000	9.212436	10.905447	8.702333	2.883250	-4.464357	-9.314714	5.555054	9.232665	-0.198380	3.692920	1.953280	-0.908567	0.027832	0.364623	-1.000000	-1.000000	-1.000000	-1.000000	-1.000000	-1.000000	-1.000000	51.000000	0.000000	-1.000000	-1.000000	464069.000000	1775792782.479311
-15348.825000	-17357.490000	11893.320000	38485.260000	13330.530000	987.795000	-28101.780000	-38536.695000	6.812753	10.525530	8.557464	3.963017	-1.082612	-14.191345	2.985468	6.600121	-0.198380	3.692920	1.953280	-0.908567	0.027832	0.364623	-1.000000	-1.000000	-1.000000	-1.000000	-1.000000	-1.000000	-1.000000	51.000000	0.000000	-1.000000	-1.000000	464070.000000	1775792782.479323
-15352.515000	-17358.795000	11894.805000	38489.670000	13314.555000	954.315000	-28106.280000	-38536.155000	3.927438	6.733251	6.105575	4.916869	4.061165	-12.822627	0.207315	1.892533	-0.198380	3.692920	1.953280	-0.908567	0.027832	0.364623	-1.000000	-1.000000	-1.000000	-1.000000	-1.000000	-1.000000	-1.000000	51.000000	0.000000	-1.000000	-1.000000	464071.000000	1775792782.479332
-15360.435000	-17368.290000	11884.365000	38478.645000	13315.680000	956.340000	-28114.470000	-38544.570000	1.506289	0.971541	2.111472	5.008739	6.569263	-11.104611	-2.166469	-2.109977	-0.198380	3.692920	1.953280	-0.908567	0.027832	0.364623	-1.000000	-1.000000	-1.000000	-1.000000	-1.000000	-1.000000	-1.000000	51.000000	0.000000	-1.000000	-1.000000	464072.000000	1775792782.491881
-15362.415000	-17365.320000	11887.020000	38478.645000	13313.925000	961.830000	-28113.165000	-38542.455000	-1.321803	-4.827716	-2.481279	3.070617	4.867751	-10.106949	-4.096752	-4.310362	-0.198380	3.692920	1.953280	-0.908567	0.027832	0.364623	-1.000000	-1.000000	-1.000000	-1.000000	-1.000000	-1.000000	-1.000000	51.000000	0.000000	-1.000000	-1.000000	464073.000000	1775792782.491903
-15358.050000	-17360.145000	11890.890000	38480.805000	13307.400000	956.475000	-28111.050000	-38535.975000	-4.207645	-8.293440	-5.975626	-0.536438	1.027322	-6.642877	-4.861398	-4.459108	-0.122080	3.677660	1.098720	-0.917783	0.030579	0.363219	-1.000000	-1.000000	-1.000000	-1.000000	-1.000000	-1.000000	-1.000000	51.000000	0.000000	-1.000000	-1.000000	464074.000000	1775792782.491927
-15353.685000	-17355.195000	11896.920000	38486.880000	13302.405000	941.940000	-28110.870000	-38535.750000	-5.390481	-7.718368	-6.524240	-3.579032	-2.381608	-0.156505	-3.628643	-2.553507	-0.122080	3.677660	1.098720	-0.917783	0.030579	0.363219	-1.000000	-1.000000	-1.000000	-1.000000	-1.000000	-1.000000	-1.000000	51.000000	0.000000	-1.000000	-1.000000	464075.000000	1775792782.491937
-15343.020000	-17343.360000	11910.735000	38499.390000	13306.095000	909.855000	-28106.505000	-38530.890000	-3.723078	-3.508048	-3.705622	-3.964014	-3.924700	5.555134	-0.744570	0.455001	-0.122080	3.677660	1.098720	-0.917783	0.030579	0.363219	-1.000000	-1.000000	-1.000000	-1.000000	-1.000000	-1.000000	-1.000000	51.000000	0.000000	-1.000000	-1.000000	464076.000000	1775792782.491949
-15337.845000	-17347.635000	11904.795000	38494.305000	13299.030000	883.980000	-28107.090000	-38524.140000	0.085165	1.894672	0.836780	-1.685460	-3.208833	6.459403	2.385353	3.042097	-0.122080	3.677660	1.098720	-0.917783	0.030579	0.363219	-1.000000	-1.000000	-1.000000	-1.000000	-1.000000	-1.000000	-1.000000	51.000000	0.000000	-1.000000	-1.000000	464077.000000	1775792782.491958
-15340.095000	-17352.900000	11899.170000	38492.370000	13314.150000	916.875000	-28110.690000	-38524.185000	3.734481	5.217224	3.974442	0.941497	-0.786786	3.460888	4.174197	4.172088	-0.122080	3.677660	1.098720	-0.917783	0.030579	0.363219	-1.000000	-1.000000	-1.000000	-1.000000	-1.000000	-1.000000	-1.000000	51.000000	0.000000	-1.000000	-1.000000	464078.000000	1775792782.504682
-15361.200000	-17364.690000	11888.955000	38486.070000	13331.655000	1007.055000	-28105.155000	-38534.085000	4.403173	4.305616	3.270548	1.411812	2.686312	3.938944	3.827585	3.227680	-0.122080	3.677660	1.098720	-0.917783	0.030579	0.363219	-1.000000	-1.000000	-1.000000	-1.000000	-1.000000	-1.000000	-1.000000	51.000000	0.000000	-1.000000	-1.000000	464079.000000	1775792782.504705
-15359.355000	-17366.400000	11886.435000	38481.750000	13327.290000	1022.850000	-28105.470000	-38537.055000	0.918284	-0.096715	-0.727729	-0.619867	6.237041	13.668911	2.013718	0.113328	-0.122080	3.677660	1.098720	-0.917783	0.030579	0.363219	-1.000000	-1.000000	-1.000000	-1.000000	-1.000000	-1.000000	-1.000000	51.000000	0.000000	-1.000000	-1.000000	464080.000000	1775792782.504785
-15351.705000	-17355.825000	11893.320000	38481.885000	13326.435000	1014.345000	-28108.575000	-38532.150000	-4.128684	-4.496386	-4.737901	-3.360305	7.467475	25.885044	-0.034315	-3.699244	-0.122080	3.677660	1.098720	-0.917783	0.030579	0.363219	-1.000000	-1.000000	-1.000000	-1.000000	-1.000000	-1.000000	-1.000000	51.000000	0.000000	-1.000000	-1.000000	464081.000000	1775792782.504798
-15354.270000	-17355.240000	11893.680000	38483.010000	13329.180000	1008.765000	-28096.650000	-38527.920000	-6.358711	-5.285110	-5.435746	-4.501576	4.564046	26.221354	-1.464420	-5.566445	-0.122080	3.677660	1.098720	-0.917783	0.030579	0.363219	-1.000000	-1.000000	-1.000000	-1.000000	-1.000000	-1.000000	-1.000000	51.000000	0.000000	-1.000000	-1.000000	464082.000000	1775792782.504816
-15346.755000	-17349.795000	11898.810000	38490.480000	13336.695000	1000.035000	-28090.980000	-38519.100000	-4.124712	-1.947808	-2.247565	-2.857034	-1.008733	9.214439	-1.554144	-3.975772	-0.122080	3.677660	1.098720	-0.917783	0.030579	0.363219	-1.000000	-1.000000	-1.000000	-1.000000	-1.000000	-1.000000	-1.000000	51.000000	0.000000	-1.000000	-1.000000	464083.000000	1775792782.504826
-15347.880000	-17354.610000	11897.190000	38492.685000	13328.145000	983.205000	-28100.250000	-38526.255000	0.657325	2.752454	2.514318	0.930426	-5.992460	-16.594138	-0.484742	-0.060184	-1.281840	2.792580	0.091560	-0.927610	0.034119	0.360900	-1.000000	-1.000000	-1.000000	-1.000000	-1.000000	-1.000000	-1.000000	51.000000	0.000000	-1.000000	-1.000000	464084.000000	1775792782.506619
-15354.495000	-17359.560000	11891.385000	38485.080000	13319.325000	983.835000	-28102.275000	-38532.465000	4.710183	5.385793	5.708590	4.609724	-8.639494	-37.192637	0.075523	3.130417	-1.281840	2.792580	0.091560	-0.927610	0.034119	0.360900	-1.000000	-1.000000	-1.000000	-1.000000	-1.000000	-1.000000	-1.000000	51.000000	0.000000	-1.000000	-1.000000	464085.000000	1775792782.506634
-15363.720000	-17369.280000	11881.035000	38473.470000	13310.235000	968.895000	-28098.990000	-38539.710000	5.436120	4.261808	5.326578	5.500301	-9.164968	-42.695025	-0.871180	3.197686	-1.281840	2.792580	0.091560	-0.927610	0.034119	0.360900	-1.000000	-1.000000	-1.000000	-1.000000	-1.000000	-1.000000	-1.000000	51.000000	0.000000	-1.000000	-1.000000	464086.000000	1775792782.511498
-15373.755000	-17379.270000	11872.080000	38465.145000	13297.410000	937.620000	-28103.715000	-38548.845000	2.471519	0.206031	1.592392	2.621382	-8.124293	-32.606359	-2.305186	0.384325	-1.281840	2.792580	0.091560	-0.927610	0.034119	0.360900	-1.000000	-1.000000	-1.000000	-1.000000	-1.000000	-1.000000	-1.000000	51.000000	0.000000	-1.000000	-1.000000	464087.000000	1775792782.511530
-15363.360000	-17367.930000	11883.645000	38477.610000	13306.995000	944.910000	-28111.185000	-38542.185000	-1.841213	-3.966526	-2.879990	-1.852954	-5.458038	-14.020069	-3.007099	-2.856912	-1.281840	2.792580	0.091560	-0.927610	0.034119	0.360900	-1.000000	-1.000000	-1.000000	-1.000000	-1.000000	-1.000000	-1.000000	51.000000	0.000000	-1.000000	-1.000000	464088.000000	1775792782.515551
-15346.665000	-17347.815000	11905.335000	38499.705000	13333.410000	1000.980000	-28114.560000	-38530.530000	-3.690918	-4.695747	-4.247786	-3.704688	-0.246794	6.522468	-2.843280	-3.530522	-1.281840	2.792580	0.091560	-0.927610	0.034119	0.360900	-1.000000	-1.000000	-1.000000	-1.000000	-1.000000	-1.000000	-1.000000	51.000000	0.000000	-1.000000	-1.000000	464089.000000	1775792782.515571
-15349.545000	-17346.915000	11907.225000	38498.895000	13308.705000	976.770000	-28115.505000	-38533.995000	-1.144460	-0.578469	-0.714088	-0.708235	7.062846	25.340315	-1.956832	-0.528802	-1.281840	2.792580	0.091560	-0.927610	0.034119	0.360900	-1.000000	-1.000000	-1.000000	-1.000000	-1.000000	-1.000000	-1.000000	51.000000	0.000000	-1.000000	-1.000000	464090.000000	1775792782.527599
-15345.855000	-17349.390000	11904.030000	38495.655000	13279.185000	946.395000	-28115.505000	-38531.790000	3.444093	5.258862	4.784886	4.317716	11.733666	35.749956	-0.275206	3.889253	-1.281840	2.792580	0.091560	-0.927610	0.034119	0.360900	-1.000000	-1.000000	-1.000000	-1.000000	-1.000000	-1.000000	-1.000000	51.000000	0.000000	-1.000000	-1.000000	464091.000000	1775792782.527630
-15363.675000	-17363.745000	11888.460000	38477.745000	13245.840000	929.385000	-28125.405000	-38545.020000	5.677310	7.585857	6.909120	6.072773	8.463319	30.651205	1.792800	6.089874	-1.281840	2.792580	0.091560	-0.927610	0.034119	0.360900	-1.000000	-1.000000	-1.000000	-1.000000	-1.000000	-1.000000	-1.000000	51.000000	0.000000	-1.000000	-1.000000	464092.000000	1775792782.527658
-15365.790000	-17368.470000	11882.790000	38471.580000	13269.285000	939.960000	-28125.720000	-38547.720000	3.198499	4.000517	3.087656	2.105708	-1.010027	12.756385	3.176639	4.237107	-1.281840	2.792580	0.091560	-0.927610	0.034119	0.360900	-1.000000	-1.000000	-1.000000	-1.000000	-1.000000	-1.000000	-1.000000	51.000000	0.000000	-1.000000	-1.000000	464093.000000	1775792782.527669
-15362.280000	-17371.530000	11880.135000	38475.945000	13319.595000	950.670000	-28120.095000	-38542.815000	-2.236832	-3.034877	-4.147202	-4.808084	-7.138782	-5.779763	3.440176	-0.224125	-2.807840	3.036740	-0.900340	-0.930112	0.032715	0.359191	-1.000000	-1.000000	-1.000000	-1.000000	-1.000000	-1.000000	-1.000000	51.000000	0.000000	-1.000000	-1.000000	464094.000000	1775792782.527680
-15340.230000	-17346.510000	11904.030000	38496.105000	13340.295000	975.870000	-28103.760000	-38523.600000	-5.941691	-8.112217	-9.150277	-8.867740	-2.007971	-14.093286	3.561238	-3.480860	-2.807840	3.036740	-0.900340	-0.930112	0.032715	0.359191	-1.000000	-1.000000	-1.000000	-1.000000	-1.000000	-1.000000	-1.000000	51.000000	0.000000	-1.000000	-1.000000	464095.000000	1775792782.527690
-15345.585000	-17349.255000	11903.130000	38494.890000	13332.015000	991.170000	-28093.410000	-38522.070000	-4.673574	-7.189852	-7.763661	-6.455804	10.623327	-10.135446	4.592985	-2.760472	-2.807840	3.036740	-0.900340	-0.930112	0.032715	0.359191	-1.000000	-1.000000	-1.000000	-1.000000	-1.000000	-1.000000	-1.000000	51.000000	0.000000	-1.000000	-1.000000	464096.000000	1775792782.530004
-15350.220000	-17356.140000	11894.130000	38484.090000	13325.580000	981.450000	-28101.375000	-38528.145000	-0.167600	-1.554080	-1.411088	0.116530	18.386358	-0.375913	5.658710	0.620078	-2.807840	3.036740	-0.900340	-0.930112	0.032715	0.359191	-1.000000	-1.000000	-1.000000	-1.000000	-1.000000	-1.000000	-1.000000	51.000000	0.000000	-1.000000	-1.000000	464097.000000	1775792782.530028
-15349.815000	-17354.340000	11897.865000	38490.435000	13350.285000	977.625000	-28104.390000	-38529.270000	3.097508	3.626069	4.418764	5.234691	13.822075	5.862998	4.267411	2.737417	-2.807840	3.036740	-0.900340	-0.930112	0.032715	0.359191	-1.000000	-1.000000	-1.000000	-1.000000	-1.000000	-1.000000	-1.000000	51.000000	0.000000	-1.000000	-1.000000	464098.000000	1775792782.534615
-15352.290000	-17359.515000	11893.275000	38487.285000	13337.415000	966.465000	-28106.730000	-38532.330000	2.901589	4.898900	6.044309	5.946030	0.693202	3.710327	-0.526108	1.482723	-2.807840	3.036740	-0.900340	-0.930112	0.032715	0.359191	-1.000000	-1.000000	-1.000000	-1.000000	-1.000000	-1.000000	-1.000000	51.000000	0.000000	-1.000000	-1.000000	464099.000000	1775792782.534636
-15352.470000	-17362.170000	11887.560000	38479.545000	13303.440000	967.680000	-28103.760000	-38529.360000	0.379525	2.624657	3.746925	3.188673	-13.314729	-4.337428	-6.374795	-1.814081	-2.807840	3.036740	-0.900340	-0.930112	0.032715	0.359191	-1.000000	-1.000000	-1.000000	-1.000000	-1.000000	-1.000000	-1.000000	51.000000	0.000000	-1.000000	-1.000000	464100.000000	1775792782.541421
-15359.985000	-17366.310000	11882.475000	38474.055000	13289.445000	982.800000	-28103.805000	-38532.690000	-2.289580	-0.913659	-0.282091	-0.891008	-23.583875	-11.483597	-9.748104	-4.443614	-2.807840	3.036740	-0.900340	-0.930112	0.032715	0.359191	-1.000000	-1.000000	-1.000000	-1.000000	-1.000000	-1.000000	-1.000000	51.000000	0.000000	-1.000000	-1.000000	464101.000000	1775792782.541445
