Channel1	Channel2	Channel3	Channel4	Channel5	Channel6	Channel7	Channel8	FilteredChannel1	FilteredChannel2	FilteredChannel3	FilteredChannel4	FilteredChannel5	FilteredChannel6	FilteredChannel7	FilteredChannel8	GyroX	GyroY	GyroZ	AccX	AccY	AccZ	PPG1	PPG2	rawPPG1	rawPPG2	rawPPG3	Hr	Hrv	Battery	Trigger	PhysicalTrigger	AutoTrigger	NumMeasurements	Timestamp
-13960.170000	-15381.045000	13625.955000	39781.710000	14723.865000	518.175000	-26352.180000	-39312.900000	1.018517	1.776668	2.730733	2.889713	1.827961	-5.151305	-2.120646	0.623540	-10.025820	-1.373400	-0.045780	-0.972471	0.018921	0.249694	-1.000000	-1.000000	-1.000000	-1.000000	-1.000000	-1.000000	-1.000000	51.000000	0.000000	-1.000000	-1.000000	503832.000000	1775792862.039795
-13960.530000	-15383.880000	13621.545000	39775.005000	14718.555000	518.085000	-26351.640000	-39312.315000	0.055729	-0.620835	-0.160794	0.110810	0.804685	-16.633676	-3.209301	0.113978	-10.025820	-1.373400	-0.045780	-0.972471	0.018921	0.249694	-1.000000	-1.000000	-1.000000	-1.000000	-1.000000	-1.000000	-1.000000	51.000000	0.000000	-1.000000	-1.000000	503833.000000	1775792862.039819
-13955.760000	-15376.230000	13628.475000	39778.515000	14708.115000	500.130000	-26350.965000	-39308.580000	-0.456388	-2.839740	-3.063461	-3.029486	-1.526396	-21.502986	-2.455367	0.255057	-5.676720	-0.030520	-0.381500	-0.963315	0.009277	0.251830	-1.000000	-1.000000	-1.000000	-1.000000	-1.000000	-1.000000	-1.000000	51.000000	0.000000	-1.000000	-1.000000	503834.000000	1775792862.040068
-13962.510000	-15375.960000	13630.455000	39780.720000	14702.985000	505.035000	-26357.130000	-39318.615000	-0.156188	-3.098899	-3.931246	-4.523207	-4.569012	-16.306182	-0.570484	0.874019	-5.676720	-0.030520	-0.381500	-0.963315	0.009277	0.251830	-1.000000	-1.000000	-1.000000	-1.000000	-1.000000	-1.000000	-1.000000	51.000000	0.000000	-1.000000	-1.000000	503835.000000	1775792862.040081
-13965.345000	-15380.730000	13626.360000	39779.010000	14703.345000	510.795000	-26356.995000	-39320.145000	0.290219	-1.326945	-2.361000	-3.459657	-6.788537	-4.057637	0.993353	0.957691	-5.676720	-0.030520	-0.381500	-0.963315	0.009277	0.251830	-1.000000	-1.000000	-1.000000	-1.000000	-1.000000	-1.000000	-1.000000	51.000000	0.000000	-1.000000	-1.000000	503836.000000	1775792862.040094
-13961.205000	-15379.065000	13627.710000	39779.280000	14703.615000	528.030000	-26355.150000	-39318.480000	0.235372	0.818550	0.113299	-0.756874	-6.321472	9.968221	1.547888	0.123582	-5.676720	-0.030520	-0.381500	-0.963315	0.009277	0.251830	-1.000000	-1.000000	-1.000000	-1.000000	-1.000000	-1.000000	-1.000000	51.000000	0.000000	-1.000000	-1.000000	503837.000000	1775792862.040104
-13956.435000	-15373.530000	13633.875000	39784.635000	14702.895000	490.995000	-26353.980000	-39314.070000	0.138251	2.045096	1.921172	1.929445	-2.789856	19.883086	1.541254	-0.625867	-5.676720	-0.030520	-0.381500	-0.963315	0.009277	0.251830	-1.000000	-1.000000	-1.000000	-1.000000	-1.000000	-1.000000	-1.000000	51.000000	0.000000	-1.000000	-1.000000	503838.000000	1775792862.040115
-13950.675000	-15367.950000	13640.670000	39793.005000	14712.435000	475.380000	-26348.670000	-39306.465000	0.788118	2.495007	2.853949	3.746392	2.300726	20.252375	1.617899	-0.133672	-5.676720	-0.030520	-0.381500	-0.963315	0.009277	0.251830	-1.000000	-1.000000	-1.000000	-1.000000	-1.000000	-1.000000	-1.000000	51.000000	0.000000	-1.000000	-1.000000	503839.000000	1775792862.040124
-13948.290000	-15366.915000	13639.905000	39791.295000	14729.040000	532.980000	-26337.915000	-39301.695000	2.028296	2.630975	3.195398	4.518765	7.116718	11.807319	2.087749	1.600192	-5.676720	-0.030520	-0.381500	-0.963315	0.009277	0.251830	-1.000000	-1.000000	-1.000000	-1.000000	-1.000000	-1.000000	-1.000000	51.000000	0.000000	-1.000000	-1.000000	503840.000000	1775792862.114924
-13951.845000	-15372.270000	13628.880000	39776.085000	14727.285000	585.270000	-26344.170000	-39302.325000	2.715656	2.153875	2.469848	3.601867	10.207337	4.007944	2.673632	3.287840	-5.676720	-0.030520	-0.381500	-0.963315	0.009277	0.251830	-1.000000	-1.000000	-1.000000	-1.000000	-1.000000	-1.000000	-1.000000	51.000000	0.000000	-1.000000	-1.000000	503841.000000	1775792862.114951
-13951.395000	-15370.650000	13633.245000	39782.610000	14728.455000	582.480000	-26358.660000	-39306.780000	1.783360	0.541876	0.140154	0.506800	9.953639	4.096897	2.019118	3.238663	-5.676720	-0.030520	-0.381500	-0.963315	0.009277	0.251830	-1.000000	-1.000000	-1.000000	-1.000000	-1.000000	-1.000000	-1.000000	51.000000	0.000000	-1.000000	-1.000000	503842.000000	1775792862.114982
-13962.960000	-15376.320000	13634.010000	39789.630000	14725.710000	537.030000	-26359.380000	-39321.630000	-0.754789	-1.819952	-2.715539	-3.073956	5.575599	6.552179	-0.967183	0.593516	-5.676720	-0.030520	-0.381500	-0.963315	0.009277	0.251830	-1.000000	-1.000000	-1.000000	-1.000000	-1.000000	-1.000000	-1.000000	51.000000	0.000000	-1.000000	-1.000000	503843.000000	1775792862.114993
-13968.540000	-15382.260000	13625.460000	39779.505000	14723.325000	546.345000	-26355.240000	-39324.465000	-3.920779	-3.890770	-4.259182	-4.552779	-1.391300	1.161749	-4.753671	-3.835198	4.394880	-0.213640	-1.312360	-0.952512	0.002380	0.255370	-1.000000	-1.000000	-1.000000	-1.000000	-1.000000	-1.000000	-1.000000	51.000000	0.000000	-1.000000	-1.000000	503844.000000	1775792862.115007
-13960.530000	-15376.275000	13628.610000	39778.605000	14714.685000	547.560000	-26354.790000	-39317.940000	-6.013622	-4.695089	-3.952017	-3.669372	-7.964610	-11.908464	-6.223677	-7.353092	4.394880	-0.213640	-1.312360	-0.952512	0.002380	0.255370	-1.000000	-1.000000	-1.000000	-1.000000	-1.000000	-1.000000	-1.000000	51.000000	0.000000	-1.000000	-1.000000	503845.000000	1775792862.115019
-13949.820000	-15367.005000	13637.655000	39786.705000	14719.860000	543.240000	-26350.605000	-39305.790000	-5.005570	-3.318212	-2.089495	-1.744520	-11.483003	-22.805196	-4.061684	-6.855214	4.394880	-0.213640	-1.312360	-0.952512	0.002380	0.255370	-1.000000	-1.000000	-1.000000	-1.000000	-1.000000	-1.000000	-1.000000	51.000000	0.000000	-1.000000	-1.000000	503846.000000	1775792862.115032
-13944.825000	-15364.125000	13639.050000	39787.560000	14723.370000	542.205000	-26346.915000	-39298.995000	-0.471149	0.296717	0.972020	0.565252	-10.451609	-24.013528	0.333877	-1.692024	4.394880	-0.213640	-1.312360	-0.952512	0.002380	0.255370	-1.000000	-1.000000	-1.000000	-1.000000	-1.000000	-1.000000	-1.000000	51.000000	0.000000	-1.000000	-1.000000	503847.000000	1775792862.115042
-13949.730000	-15367.005000	13637.610000	39785.220000	14726.295000	536.895000	-26350.650000	-39305.925000	4.996539	4.270536	3.972488	2.695525	-5.270853	-15.715272	4.346264	5.018915	4.394880	-0.213640	-1.312360	-0.952512	0.002380	0.255370	-1.000000	-1.000000	-1.000000	-1.000000	-1.000000	-1.000000	-1.000000	51.000000	0.000000	-1.000000	-1.000000	503848.000000	1775792862.115055
-13963.635000	-15380.955000	13622.850000	39771.675000	14717.385000	537.570000	-26354.340000	-39319.830000	7.374598	5.698791	4.816497	3.319667	1.327252	-3.022548	5.715130	8.396139	4.394880	-0.213640	-1.312360	-0.952512	0.002380	0.255370	-1.000000	-1.000000	-1.000000	-1.000000	-1.000000	-1.000000	-1.000000	51.000000	0.000000	-1.000000	-1.000000	503849.000000	1775792862.115065
-13971.330000	-15387.480000	13617.720000	39767.895000	14700.195000	538.200000	-26353.665000	-39329.325000	4.585283	3.096651	2.352627	1.528117	5.508149	8.389129	3.905766	5.776916	4.394880	-0.213640	-1.312360	-0.952512	0.002380	0.255370	-1.000000	-1.000000	-1.000000	-1.000000	-1.000000	-1.000000	-1.000000	51.000000	0.000000	-1.000000	-1.000000	503850.000000	1775792862.115077
-13966.965000	-15381.585000	13625.955000	39777.750000	14699.835000	529.560000	-26352.765000	-39328.290000	-1.345847	-1.773645	-1.833455	-1.408217	5.190251	14.861395	0.506062	-0.793063	4.394880	-0.213640	-1.312360	-0.952512	0.002380	0.255370	-1.000000	-1.000000	-1.000000	-1.000000	-1.000000	-1.000000	-1.000000	51.000000	0.000000	-1.000000	-1.000000	503851.000000	1775792862.115087
-13964.985000	-15382.935000	13624.965000	39778.830000	14699.835000	522.360000	-26350.065000	-39322.395000	-5.804074	-5.073095	-4.303572	-2.681380	2.057747	15.127836	-2.173198	-6.180484	4.394880	-0.213640	-1.312360	-0.952512	0.002380	0.255370	-1.000000	-1.000000	-1.000000	-1.000000	-1.000000	-1.000000	-1.000000	51.000000	0.000000	-1.000000	-1.000000	503852.000000	1775792862.115099
-13962.510000	-15382.980000	13622.040000	39772.350000	14703.615000	524.835000	-26343.450000	-39311.190000	-5.725195	-4.562045	-3.353198	-1.238524	-0.249161	10.453602	-2.754697	-6.390299	4.394880	-0.213640	-1.312360	-0.952512	0.002380	0.255370	-1.000000	-1.000000	-1.000000	-1.000000	-1.000000	-1.000000	-1.000000	51.000000	0.000000	-1.000000	-1.000000	503853.000000	1775792862.115109
-13960.620000	-15376.455000	13630.905000	39779.460000	14714.280000	522.855000	-26361.180000	-39318.570000	-1.815516	-1.124146	-0.248172	1.228971	0.394686	4.171377	-1.697564	-1.697185	8.423520	0.198380	-1.739640	-0.950864	0.004883	0.259765	-1.000000	-1.000000	-1.000000	-1.000000	-1.000000	-1.000000	-1.000000	51.000000	0.000000	-1.000000	-1.000000	503854.000000	1775792862.115121
-13958.100000	-15371.910000	13635.090000	39783.780000	14707.530000	528.345000	-26356.590000	-39317.355000	2.921487	3.006370	3.026135	2.961552	3.205285	-0.491203	-0.829919	3.845282	8.423520	0.198380	-1.739640	-0.950864	0.004883	0.259765	-1.000000	-1.000000	-1.000000	-1.000000	-1.000000	-1.000000	-1.000000	51.000000	0.000000	-1.000000	-1.000000	503855.000000	1775792862.115131
-13959.090000	-15378.255000	13626.630000	39775.545000	14702.895000	531.630000	-26350.515000	-39313.980000	5.707979	5.677318	4.897056	3.339770	5.261308	-2.183692	-0.834243	6.366658	8.423520	0.198380	-1.739640	-0.950864	0.004883	0.259765	-1.000000	-1.000000	-1.000000	-1.000000	-1.000000	-1.000000	-1.000000	51.000000	0.000000	-1.000000	-1.000000	503856.000000	1775792862.115143
-13960.080000	-15381.540000	13622.580000	39773.160000	14710.095000	526.275000	-26352.045000	-39315.240000	5.366189	5.313072	4.067559	2.003394	4.335908	-1.655177	-0.558804	5.172109	8.423520	0.198380	-1.739640	-0.950864	0.004883	0.259765	-1.000000	-1.000000	-1.000000	-1.000000	-1.000000	-1.000000	-1.000000	51.000000	0.000000	-1.000000	-1.000000	503857.000000	1775792862.115153
-13952.970000	-15370.695000	13632.705000	39781.440000	14711.220000	519.345000	-26352.090000	-39311.055000	2.635423	2.222129	0.884640	-0.535136	1.212550	-0.977862	0.522334	1.912561	8.423520	0.198380	-1.739640	-0.950864	0.004883	0.259765	-1.000000	-1.000000	-1.000000	-1.000000	-1.000000	-1.000000	-1.000000	51.000000	0.000000	-1.000000	-1.000000	503858.000000	1775792862.115165
-13943.520000	-15354.945000	13651.245000	39800.520000	14732.145000	530.955000	-26350.470000	-39305.565000	-0.340697	-0.903730	-1.877322	-2.121863	-1.482041	-1.413494	1.599061	-1.249133	8.423520	0.198380	-1.739640	-0.950864	0.004883	0.259765	-1.000000	-1.000000	-1.000000	-1.000000	-1.000000	-1.000000	-1.000000	51.000000	0.000000	-1.000000	-1.000000	503859.000000	1775792862.115174
-13937.985000	-15345.315000	13662.585000	39812.445000	14746.590000	549.855000	-26348.985000	-39303.045000	-1.680418	-1.460045	-1.556261	-0.836307	-1.661890	-1.735838	1.962820	-2.810414	8.423520	0.198380	-1.739640	-0.950864	0.004883	0.259765	-1.000000	-1.000000	-1.000000	-1.000000	-1.000000	-1.000000	-1.000000	51.000000	0.000000	-1.000000	-1.000000	503860.000000	1775792862.115187
-13942.575000	-15353.100000	13655.295000	39804.885000	14739.750000	556.785000	-26348.310000	-39305.610000	-1.463165	0.058808	1.091159	2.239990	0.244662	-0.125477	1.571350	-2.761925	8.423520	0.198380	-1.739640	-0.950864	0.004883	0.259765	-1.000000	-1.000000	-1.000000	-1.000000	-1.000000	-1.000000	-1.000000	51.000000	0.000000	-1.000000	-1.000000	503861.000000	1775792862.115196
-13949.910000	-15368.085000	13637.070000	39787.920000	14727.150000	548.910000	-26346.510000	-39308.445000	-1.446475	0.416348	2.155821	3.236207	0.989384	2.456733	0.730133	-2.255563	8.423520	0.198380	-1.739640	-0.950864	0.004883	0.259765	-1.000000	-1.000000	-1.000000	-1.000000	-1.000000	-1.000000	-1.000000	51.000000	0.000000	-1.000000	-1.000000	503862.000000	1775792862.115208
-13951.935000	-15367.770000	13637.250000	39785.760000	14718.870000	531.810000	-26349.750000	-39313.485000	-2.842449	-2.473862	-1.033224	-0.355611	-2.051209	2.589626	-0.246488	-2.268592	8.423520	0.198380	-1.739640	-0.950864	0.004883	0.259765	-1.000000	-1.000000	-1.000000	-1.000000	-1.000000	-1.000000	-1.000000	51.000000	0.000000	-1.000000	-1.000000	503863.000000	1775792862.115218
-13954.140000	-15369.165000	13636.305000	39787.110000	14725.530000	514.305000	-26353.665000	-39316.275000	-4.788913	-6.699407	-6.386464	-6.265861	-7.266747	-1.742021	-1.261684	-2.767990	2.792580	0.625660	-0.824040	-0.957273	0.014038	0.260314	-1.000000	-1.000000	-1.000000	-1.000000	-1.000000	-1.000000	-1.000000	51.000000	0.000000	-1.000000	-1.000000	503864.000000	1775792862.115230
-13947.570000	-15364.890000	13641.210000	39795.030000	14732.685000	501.255000	-26348.445000	-39308.040000	-5.255927	-8.391073	-9.193737	-9.475715	-9.994784	-8.554958	-2.113224	-2.772511	2.792580	0.625660	-0.824040	-0.957273	0.014038	0.260314	-1.000000	-1.000000	-1.000000	-1.000000	-1.000000	-1.000000	-1.000000	51.000000	0.000000	-1.000000	-1.000000	503865.000000	1775792862.115239
-13939.605000	-15361.290000	13643.730000	39799.215000	14724.180000	505.305000	-26339.220000	-39294.810000	-2.919955	-5.633106	-6.870748	-7.082477	-7.446928	-12.989637	-1.998368	-0.990687	2.792580	0.625660	-0.824040	-0.957273	0.014038	0.260314	-1.000000	-1.000000	-1.000000	-1.000000	-1.000000	-1.000000	-1.000000	51.000000	0.000000	-1.000000	-1.000000	503866.000000	1775792862.115251
-13948.245000	-15370.740000	13633.020000	39785.805000	14717.520000	525.645000	-26340.705000	-39301.830000	1.409852	0.023307	-0.982008	-0.828199	-1.587410	-10.578824	-0.395995	2.519066	2.792580	0.625660	-0.824040	-0.957273	0.014038	0.260314	-1.000000	-1.000000	-1.000000	-1.000000	-1.000000	-1.000000	-1.000000	51.000000	0.000000	-1.000000	-1.000000	503867.000000	1775792862.115261
-13956.570000	-15377.670000	13626.720000	39780.360000	14727.780000	547.110000	-26347.230000	-39311.955000	4.799390	4.870446	4.368335	4.592129	3.740784	-0.520441	1.544939	5.214848	2.792580	0.625660	-0.824040	-0.957273	0.014038	0.260314	-1.000000	-1.000000	-1.000000	-1.000000	-1.000000	-1.000000	-1.000000	51.000000	0.000000	-1.000000	-1.000000	503868.000000	1775792862.115273
-13957.065000	-15374.970000	13629.420000	39782.250000	14724.090000	544.635000	-26346.870000	-39314.205000	4.857448	6.312388	6.313009	6.076925	6.743333	12.532770	1.956865	4.427380	2.792580	0.625660	-0.824040	-0.957273	0.014038	0.260314	-1.000000	-1.000000	-1.000000	-1.000000	-1.000000	-1.000000	-1.000000	51.000000	0.000000	-1.000000	-1.000000	503869.000000	1775792862.115282
-13952.385000	-15367.410000	13638.060000	39791.520000	14723.280000	525.195000	-26346.420000	-39311.955000	2.340357	5.054624	5.490929	4.634218	7.362238	20.256343	0.573207	0.714863	2.792580	0.625660	-0.824040	-0.957273	0.014038	0.260314	-1.000000	-1.000000	-1.000000	-1.000000	-1.000000	-1.000000	-1.000000	51.000000	0.000000	-1.000000	-1.000000	503870.000000	1775792862.115294
-13948.425000	-15361.605000	13643.460000	39793.905000	14717.970000	508.095000	-26345.520000	-39309.840000	0.032073	3.545567	4.297865	3.100382	5.760720	16.616426	-1.148660	-2.752440	2.792580	0.625660	-0.824040	-0.957273	0.014038	0.260314	-1.000000	-1.000000	-1.000000	-1.000000	-1.000000	-1.000000	-1.000000	51.000000	0.000000	-1.000000	-1.000000	503871.000000	1775792862.115304
-13944.780000	-15353.415000	13651.920000	39801.870000	14731.965000	528.885000	-26353.620000	-39310.920000	-0.292214	3.126311	3.963881	2.807473	2.839151	3.848045	-1.976650	-3.595779	2.792580	0.625660	-0.824040	-0.957273	0.014038	0.260314	-1.000000	-1.000000	-1.000000	-1.000000	-1.000000	-1.000000	-1.000000	51.000000	0.000000	-1.000000	-1.000000	503872.000000	1775792862.115316
-13944.015000	-15358.230000	13648.185000	39802.680000	14745.780000	594.270000	-26342.595000	-39304.620000	0.899176	3.126890	3.775712	3.048165	0.661177	-7.608844	-1.719422	-1.868926	2.792580	0.625660	-0.824040	-0.957273	0.014038	0.260314	-1.000000	-1.000000	-1.000000	-1.000000	-1.000000	-1.000000	-1.000000	51.000000	0.000000	-1.000000	-1.000000	503873.000000	1775792862.115326
-13933.440000	-15352.740000	13652.505000	39807.225000	14744.970000	596.790000	-26329.275000	-39291.795000	2.121894	2.057925	2.341772	2.526312	0.538635	-8.359977	-0.193135	1.133461	-5.066320	1.037680	1.083460	-0.962278	0.019531	0.259582	-1.000000	-1.000000	-1.000000	-1.000000	-1.000000	-1.000000	-1.000000	51.000000	0.000000	-1.000000	-1.000000	503874.000000	1775792862.115338
-13932.990000	-15350.130000	13654.350000	39807.585000	14744.655000	582.795000	-26320.815000	-39290.220000	2.454322	-0.430662	-0.592017	0.680977	1.160606	-0.810862	2.686328	4.058436	-5.066320	1.037680	1.083460	-0.962278	0.019531	0.259582	-1.000000	-1.000000	-1.000000	-1.000000	-1.000000	-1.000000	-1.000000	51.000000	0.000000	-1.000000	-1.000000	503875.000000	1775792862.115347
-13954.365000	-15370.470000	13635.045000	39789.810000	14730.165000	570.105000	-26316.090000	-39304.395000	1.214745	-3.539899	-4.125190	-2.308072	0.066321	3.919720	5.546346	5.086627	-5.066320	1.037680	1.083460	-0.962278	0.019531	0.259582	-1.000000	-1.000000	-1.000000	-1.000000	-1.000000	-1.000000	-1.000000	51.000000	0.000000	-1.000000	-1.000000	503876.000000	1775792862.115360
-13964.040000	-15380.100000	13626.630000	39782.565000	14723.685000	554.490000	-26337.330000	-39318.030000	-2.340374	-6.787264	-7.543099	-6.023821	-3.576064	-0.645613	5.728269	2.408774	-5.066320	1.037680	1.083460	-0.962278	0.019531	0.259582	-1.000000	-1.000000	-1.000000	-1.000000	-1.000000	-1.000000	-1.000000	51.000000	0.000000	-1.000000	-1.000000	503877.000000	1775792862.115371
-13948.605000	-15365.745000	13638.060000	39790.935000	14724.450000	535.185000	-26360.280000	-39310.515000	-6.717466	-8.977446	-9.546380	-8.879903	-7.823985	-11.155083	1.139983	-3.167520	-5.066320	1.037680	1.083460	-0.962278	0.019531	0.259582	-1.000000	-1.000000	-1.000000	-1.000000	-1.000000	-1.000000	-1.000000	51.000000	0.000000	-1.000000	-1.000000	503878.000000	1775792862.130710
-13922.055000	-15339.510000	13661.820000	39812.940000	14749.920000	551.610000	-26342.370000	-39283.110000	-7.500511	-7.108393	-7.436910	-7.857504	-8.879126	-19.224923	-6.615802	-7.120912	-5.066320	1.037680	1.083460	-0.962278	0.019531	0.259582	-1.000000	-1.000000	-1.000000	-1.000000	-1.000000	-1.000000	-1.000000	51.000000	0.000000	-1.000000	-1.000000	503879.000000	1775792862.130733
-13930.200000	-15347.340000	13654.800000	39807.585000	14738.940000	536.085000	-26342.550000	-39291.615000	-2.295753	-0.063489	-0.394560	-1.790485	-4.552592	-18.136543	-11.656520	-5.435056	-5.066320	1.037680	1.083460	-0.962278	0.019531	0.259582	-1.000000	-1.000000	-1.000000	-1.000000	-1.000000	-1.000000	-1.000000	51.000000	0.000000	-1.000000	-1.000000	503880.000000	1775792862.130761
-13927.050000	-15344.145000	13657.185000	39807.585000	14726.520000	507.285000	-26344.215000	-39288.780000	5.169104	7.976855	7.582889	5.807447	2.270448	-8.476923	-9.667867	0.278906	-5.066320	1.037680	1.083460	-0.962278	0.019531	0.259582	-1.000000	-1.000000	-1.000000	-1.000000	-1.000000	-1.000000	-1.000000	51.000000	0.000000	-1.000000	-1.000000	503881.000000	1775792862.130772
-13926.690000	-15344.595000	13655.340000	39805.020000	14722.335000	498.015000	-26345.655000	-39289.320000	8.981684	11.317835	11.100948	9.697723	6.136736	2.837943	-2.465830	4.864126	-5.066320	1.037680	1.083460	-0.962278	0.019531	0.259582	-1.000000	-1.000000	-1.000000	-1.000000	-1.000000	-1.000000	-1.000000	51.000000	0.000000	-1.000000	-1.000000	503882.000000	1775792862.130839
-13927.590000	-15341.580000	13660.425000	39812.040000	14725.530000	510.795000	-26344.215000	-39292.470000	7.023534	8.383517	8.589694	8.036462	5.176577	10.601514	4.969147	5.303351	-5.066320	1.037680	1.083460	-0.962278	0.019531	0.259582	-1.000000	-1.000000	-1.000000	-1.000000	-1.000000	-1.000000	-1.000000	51.000000	0.000000	-1.000000	-1.000000	503883.000000	1775792862.130850
-13943.205000	-15352.110000	13655.025000	39813.840000	14743.485000	565.110000	-26346.915000	-39307.590000	1.133752	1.717084	2.546940	3.139666	2.362611	15.840134	8.999424	1.931277	-6.348160	3.052000	1.663340	-0.965452	0.013916	0.259521	-1.000000	-1.000000	-1.000000	-1.000000	-1.000000	-1.000000	-1.000000	51.000000	0.000000	-1.000000	-1.000000	503884.000000	1775792862.130864
-13953.735000	-15367.095000	13637.475000	39792.870000	14734.395000	582.120000	-26344.980000	-39315.420000	-5.702909	-5.377523	-3.833662	-1.985075	1.179819	21.477028	8.741651	-3.237356	-6.348160	3.052000	1.663340	-0.965452	0.013916	0.259521	-1.000000	-1.000000	-1.000000	-1.000000	-1.000000	-1.000000	-1.000000	51.000000	0.000000	-1.000000	-1.000000	503885.000000	1775792862.130875
-13946.220000	-15363.495000	13638.240000	39788.595000	14730.165000	559.845000	-26341.920000	-39308.670000	-10.336056	-10.331762	-8.567094	-6.163875	1.599823	24.969796	5.560423	-7.223426	-6.348160	3.052000	1.663340	-0.965452	0.013916	0.259521	-1.000000	-1.000000	-1.000000	-1.000000	-1.000000	-1.000000	-1.000000	51.000000	0.000000	-1.000000	-1.000000	503886.000000	1775792862.139041
-13942.170000	-15357.105000	13646.970000	39798.180000	14734.395000	549.180000	-26342.055000	-39305.295000	-9.910228	-10.863456	-9.888872	-8.427797	1.421199	19.267016	1.681050	-7.087526	-6.348160	3.052000	1.663340	-0.965452	0.013916	0.259521	-1.000000	-1.000000	-1.000000	-1.000000	-1.000000	-1.000000	-1.000000	51.000000	0.000000	-1.000000	-1.000000	503887.000000	1775792862.139067
-13938.705000	-15354.945000	13648.815000	39800.655000	14736.915000	561.330000	-26340.840000	-39301.155000	-4.088282	-6.120618	-6.512162	-6.957006	0.082820	3.045340	-1.329676	-2.348008	-6.348160	3.052000	1.663340	-0.965452	0.013916	0.259521	-1.000000	-1.000000	-1.000000	-1.000000	-1.000000	-1.000000	-1.000000	51.000000	0.000000	-1.000000	-1.000000	503888.000000	1775792862.139094
-13940.460000	-15360.300000	13643.550000	39798.045000	14740.020000	568.260000	-26336.610000	-39301.335000	3.852411	1.458620	0.037169	-1.809449	-1.217913	-15.182114	-2.918360	4.179900	-6.348160	3.052000	1.663340	-0.965452	0.013916	0.259521	-1.000000	-1.000000	-1.000000	-1.000000	-1.000000	-1.000000	-1.000000	51.000000	0.000000	-1.000000	-1.000000	503889.000000	1775792862.139105
-13941.630000	-15359.490000	13643.280000	39796.605000	14740.245000	562.860000	-26336.655000	-39304.620000	9.396583	7.520468	5.832614	3.960439	-1.625447	-25.439961	-3.125776	8.559782	-6.348160	3.052000	1.663340	-0.965452	0.013916	0.259521	-1.000000	-1.000000	-1.000000	-1.000000	-1.000000	-1.000000	-1.000000	51.000000	0.000000	-1.000000	-1.000000	503890.000000	1775792862.142809
-13944.690000	-15360.435000	13640.985000	39792.915000	14740.110000	542.025000	-26342.955000	-39306.330000	9.984149	9.304378	7.941335	7.042535	-1.337723	-25.028809	-2.592539	8.492379	-6.348160	3.052000	1.663340	-0.965452	0.013916	0.259521	-1.000000	-1.000000	-1.000000	-1.000000	-1.000000	-1.000000	-1.000000	51.000000	0.000000	-1.000000	-1.000000	503891.000000	1775792862.142833
-13949.955000	-15361.740000	13640.535000	39791.970000	14740.470000	542.655000	-26344.395000	-39310.470000	6.115886	7.072563	6.278404	6.372869	-0.983992	-17.845435	-2.262373	4.512804	-6.348160	3.052000	1.663340	-0.965452	0.013916	0.259521	-1.000000	-1.000000	-1.000000	-1.000000	-1.000000	-1.000000	-1.000000	51.000000	0.000000	-1.000000	-1.000000	503892.000000	1775792862.148519
-13955.625000	-15367.905000	13636.485000	39789.360000	14732.685000	551.745000	-26342.730000	-39315.285000	0.267148	2.762207	2.636410	3.192611	-1.015200	-8.132064	-2.302237	-0.922178	-6.348160	3.052000	1.663340	-0.965452	0.013916	0.259521	-1.000000	-1.000000	-1.000000	-1.000000	-1.000000	-1.000000	-1.000000	51.000000	0.000000	-1.000000	-1.000000	503893.000000	1775792862.148544
-13945.905000	-15361.605000	13642.695000	39794.805000	14716.620000	567.180000	-26345.115000	-39310.155000	-4.522890	-1.462163	-0.843028	-0.245733	-1.811929	2.331374	-1.993282	-5.076400	-0.808780	3.128300	-0.671440	-0.965085	0.004211	0.260314	-1.000000	-1.000000	-1.000000	-1.000000	-1.000000	-1.000000	-1.000000	51.000000	0.000000	-1.000000	-1.000000	503894.000000	1775792862.149013
-13942.125000	-15356.925000	13645.485000	39794.580000	14713.830000	564.525000	-26343.405000	-39306.420000	-5.809280	-3.702712	-2.526131	-2.101382	-3.348010	11.882394	-0.884661	-6.030949	-0.808780	3.128300	-0.671440	-0.965085	0.004211	0.260314	-1.000000	-1.000000	-1.000000	-1.000000	-1.000000	-1.000000	-1.000000	51.000000	0.000000	-1.000000	-1.000000	503895.000000	1775792862.149028
-13935.465000	-15346.935000	13656.375000	39808.260000	14736.420000	545.355000	-26338.905000	-39299.805000	-3.267398	-3.052951	-1.879788	-1.767655	-3.883093	16.959909	0.806316	-3.576136	-0.808780	3.128300	-0.671440	-0.965085	0.004211	0.260314	-1.000000	-1.000000	-1.000000	-1.000000	-1.000000	-1.000000	-1.000000	51.000000	0.000000	-1.000000	-1.000000	503896.000000	1775792862.153938
-13934.745000	-15349.590000	13654.710000	39809.205000	14741.415000	534.825000	-26336.970000	-39294.810000	0.930699	-0.445927	0.209165	0.149877	-0.948256	14.371114	2.578845	0.623649	-0.808780	3.128300	-0.671440	-0.965085	0.004211	0.260314	-1.000000	-1.000000	-1.000000	-1.000000	-1.000000	-1.000000	-1.000000	51.000000	0.000000	-1.000000	-1.000000	503897.000000	1775792862.153962
-13940.595000	-15359.580000	13642.695000	39797.055000	14725.755000	526.860000	-26340.165000	-39298.590000	3.721548	1.596598	1.620761	1.822484	4.526036	5.346759	3.646227	4.009384	-0.808780	3.128300	-0.671440	-0.965085	0.004211	0.260314	-1.000000	-1.000000	-1.000000	-1.000000	-1.000000	-1.000000	-1.000000	51.000000	0.000000	-1.000000	-1.000000	503898.000000	1775792862.163208
-13940.190000	-15354.585000	13648.320000	39799.845000	14719.230000	513.630000	-26342.190000	-39302.775000	3.274298	1.072488	0.614430	1.208849	7.792624	-4.713957	3.170816	4.481952	-0.808780	3.128300	-0.671440	-0.965085	0.004211	0.260314	-1.000000	-1.000000	-1.000000	-1.000000	-1.000000	-1.000000	-1.000000	51.000000	0.000000	-1.000000	-1.000000	503899.000000	1775792862.163234
-13943.115000	-15356.790000	13645.125000	39793.230000	14706.585000	505.620000	-26346.195000	-39306.105000	0.226452	-1.343903	-2.058284	-1.609608	5.654456	-10.678805	1.096366	1.743115	-0.808780	3.128300	-0.671440	-0.965085	0.004211	0.260314	-1.000000	-1.000000	-1.000000	-1.000000	-1.000000	-1.000000	-1.000000	51.000000	0.000000	-1.000000	-1.000000	503900.000000	1775792862.163260
-13943.790000	-15360.885000	13640.445000	39792.015000	14724.720000	533.790000	-26345.295000	-39304.620000	-3.130716	-3.437058	-4.157776	-4.502103	0.097193	-9.985443	-1.528133	-2.314077	-0.808780	3.128300	-0.671440	-0.965085	0.004211	0.260314	-1.000000	-1.000000	-1.000000	-1.000000	-1.000000	-1.000000	-1.000000	51.000000	0.000000	-1.000000	-1.000000	503901.000000	1775792862.163270
-13938.345000	-15357.600000	13643.145000	39795.075000	14739.525000	569.835000	-26339.400000	-39298.410000	-4.679108	-3.863641	-4.397801	-5.426021	-3.636478	-2.081966	-3.100219	-4.888298	-0.808780	3.128300	-0.671440	-0.965085	0.004211	0.260314	-1.000000	-1.000000	-1.000000	-1.000000	-1.000000	-1.000000	-1.000000	51.000000	0.000000	-1.000000	-1.000000	503902.000000	1775792862.164948
-13926.420000	-15343.200000	13657.230000	39806.190000	14743.620000	574.695000	-26332.785000	-39288.420000	-3.376874	-2.225115	-2.470894	-3.439317	-2.314584	10.122620	-2.473377	-4.170225	-0.808780	3.128300	-0.671440	-0.965085	0.004211	0.260314	-1.000000	-1.000000	-1.000000	-1.000000	-1.000000	-1.000000	-1.000000	51.000000	0.000000	-1.000000	-1.000000	503903.000000	1775792862.164966
-13928.940000	-15342.525000	13661.100000	39815.235000	14748.480000	562.410000	-26333.145000	-39293.280000	0.182889	1.188154	1.321827	0.993243	2.077902	18.887794	-0.022018	-0.727258	7.462140	4.501700	-0.915600	-0.962400	-0.000916	0.261962	-1.000000	-1.000000	-1.000000	-1.000000	-1.000000	-1.000000	-1.000000	51.000000	0.000000	-1.000000	-1.000000	503904.000000	1775792862.216234
-13930.650000	-15341.040000	13662.630000	39816.000000	14734.935000	530.055000	-26334.090000	-39294.135000	3.574217	4.621903	5.259336	5.754955	4.808118	16.333826	2.355644	2.699750	7.462140	4.501700	-0.915600	-0.962400	-0.000916	0.261962	-1.000000	-1.000000	-1.000000	-1.000000	-1.000000	-1.000000	-1.000000	51.000000	0.000000	-1.000000	-1.000000	503905.000000	1775792862.216261
-13925.565000	-15334.020000	13668.030000	39816.810000	14722.245000	491.670000	-26336.880000	-39290.670000	4.445540	5.847462	6.903047	7.960771	2.683130	1.367111	2.810307	3.706900	7.462140	4.501700	-0.915600	-0.962400	-0.000916	0.261962	-1.000000	-1.000000	-1.000000	-1.000000	-1.000000	-1.000000	-1.000000	51.000000	0.000000	-1.000000	-1.000000	503906.000000	1775792862.216289
-13928.715000	-15342.030000	13660.335000	39811.455000	14718.510000	480.195000	-26339.670000	-39292.380000	2.670074	4.147082	5.132518	6.004869	-3.511009	-18.375484	1.051106	2.285952	7.462140	4.501700	-0.915600	-0.962400	-0.000916	0.261962	-1.000000	-1.000000	-1.000000	-1.000000	-1.000000	-1.000000	-1.000000	51.000000	0.000000	-1.000000	-1.000000	503907.000000	1775792862.216301
-13928.985000	-15344.325000	13659.345000	39815.550000	14740.740000	534.960000	-26334.765000	-39290.445000	-0.266976	0.296015	0.692888	0.893957	-9.008239	-29.806416	-1.553954	-0.033844	7.462140	4.501700	-0.915600	-0.962400	-0.000916	0.261962	-1.000000	-1.000000	-1.000000	-1.000000	-1.000000	-1.000000	-1.000000	51.000000	0.000000	-1.000000	-1.000000	503908.000000	1775792862.216315
-13932.765000	-15353.505000	13649.895000	39812.310000	14765.895000	611.730000	-26325.045000	-39288.870000	-2.866552	-4.174808	-4.452190	-4.452454	-8.373930	-21.767583	-2.908729	-1.782623	7.462140	4.501700	-0.915600	-0.962400	-0.000916	0.261962	-1.000000	-1.000000	-1.000000	-1.000000	-1.000000	-1.000000	-1.000000	51.000000	0.000000	-1.000000	-1.000000	503909.000000	1775792862.216326
-13932.990000	-15348.555000	13655.160000	39815.415000	14770.080000	613.935000	-26325.000000	-39293.505000	-4.173607	-7.251974	-7.919166	-7.329117	-0.769706	4.220547	-1.867062	-2.318075	7.462140	4.501700	-0.915600	-0.962400	-0.000916	0.261962	-1.000000	-1.000000	-1.000000	-1.000000	-1.000000	-1.000000	-1.000000	51.000000	0.000000	-1.000000	-1.000000	503910.000000	1775792862.216358
-13932.315000	-15346.305000	13655.745000	39811.860000	14758.920000	588.510000	-26328.240000	-39294.495000	-3.802389	-7.141188	-7.891223	-6.864586	8.052617	30.183174	0.459085	-1.988728	7.462140	4.501700	-0.915600	-0.962400	-0.000916	0.261962	-1.000000	-1.000000	-1.000000	-1.000000	-1.000000	-1.000000	-1.000000	51.000000	0.000000	-1.000000	-1.000000	503911.000000	1775792862.216368
-13937.130000	-15355.170000	13647.465000	39804.795000	14749.605000	571.860000	-26330.760000	-39296.880000	-2.043533	-3.768622	-4.450750	-4.156789	10.668409	35.840005	1.783316	-1.411684	7.462140	4.501700	-0.915600	-0.962400	-0.000916	0.261962	-1.000000	-1.000000	-1.000000	-1.000000	-1.000000	-1.000000	-1.000000	51.000000	0.000000	-1.000000	-1.000000	503912.000000	1775792862.216382
-13942.260000	-15364.800000	13636.485000	39796.335000	14736.105000	557.325000	-26330.670000	-39298.545000	0.052047	0.510321	-0.043035	-1.269995	4.834248	17.273048	1.077580	-0.804289	7.462140	4.501700	-0.915600	-0.962400	-0.000916	0.261962	-1.000000	-1.000000	-1.000000	-1.000000	-1.000000	-1.000000	-1.000000	51.000000	0.000000	-1.000000	-1.000000	503913.000000	1775792862.216393
-13947.480000	-15366.870000	13634.460000	39790.620000	14724.315000	543.870000	-26335.710000	-39306.915000	1.334480	3.043704	2.678971	0.388684	-5.300407	-11.769558	-0.796841	-0.253071	10.727780	1.220800	0.152600	-0.961179	0.002502	0.261718	-1.000000	-1.000000	-1.000000	-1.000000	-1.000000	-1.000000	-1.000000	51.000000	0.000000	-1.000000	-1.000000	503914.000000	1775792862.216405
-13949.865000	-15369.705000	13631.310000	39783.780000	14718.870000	546.480000	-26336.430000	-39309.255000	1.509742	3.377383	3.264363	0.882187	-13.218230	-33.128913	-2.401434	0.032179	10.727780	1.220800	0.152600	-0.961179	0.002502	0.261718	-1.000000	-1.000000	-1.000000	-1.000000	-1.000000	-1.000000	-1.000000	51.000000	0.000000	-1.000000	-1.000000	503915.000000	1775792862.216416
-13939.875000	-15357.690000	13644.585000	39798.090000	14733.720000	557.910000	-26330.715000	-39302.415000	1.402172	3.023153	3.229303	1.404081	-14.041612	-35.995498	-2.652970	0.291737	10.727780	1.220800	0.152600	-0.961179	0.002502	0.261718	-1.000000	-1.000000	-1.000000	-1.000000	-1.000000	-1.000000	-1.000000	51.000000	0.000000	-1.000000	-1.000000	503916.000000	1775792862.216429
-13935.870000	-15347.250000	13657.995000	39813.480000	14748.885000	563.400000	-26336.070000	-39303.495000	2.180371	3.687171	4.305795	3.489373	-6.591059	-21.057099	-1.238801	1.228349	10.727780	1.220800	0.152600	-0.961179	0.002502	0.261718	-1.000000	-1.000000	-1.000000	-1.000000	-1.000000	-1.000000	-1.000000	51.000000	0.000000	-1.000000	-1.000000	503917.000000	1775792862.216438
-13933.440000	-15341.760000	13662.540000	39817.035000	14747.310000	562.635000	-26338.770000	-39302.820000	3.824795	5.524231	6.579424	7.171854	5.535542	1.749262	0.858991	2.740628	10.727780	1.220800	0.152600	-0.961179	0.002502	0.261718	-1.000000	-1.000000	-1.000000	-1.000000	-1.000000	-1.000000	-1.000000	51.000000	0.000000	-1.000000	-1.000000	503918.000000	1775792862.216450
-13936.725000	-15347.655000	13655.295000	39809.430000	14737.455000	565.200000	-26334.495000	-39303.675000	4.757632	6.555987	7.735189	9.664200	15.134191	20.147505	2.251114	3.694670	10.727780	1.220800	0.152600	-0.961179	0.002502	0.261718	-1.000000	-1.000000	-1.000000	-1.000000	-1.000000	-1.000000	-1.000000	51.000000	0.000000	-1.000000	-1.000000	503919.000000	1775792862.216460
-13936.050000	-15353.640000	13646.880000	39799.080000	14727.330000	551.835000	-26328.060000	-39298.410000	3.500024	4.407163	5.039914	7.542024	16.235129	26.549205	2.731822	3.308966	10.727780	1.220800	0.152600	-0.961179	0.002502	0.261718	-1.000000	-1.000000	-1.000000	-1.000000	-1.000000	-1.000000	-1.000000	51.000000	0.000000	-1.000000	-1.000000	503920.000000	1775792862.216472
-13927.905000	-15345.090000	13656.105000	39807.675000	14731.650000	532.035000	-26335.755000	-39292.560000	0.437545	-0.836987	-1.277679	0.756482	8.877887	20.294846	2.731943	1.987099	10.727780	1.220800	0.152600	-0.961179	0.002502	0.261718	-1.000000	-1.000000	-1.000000	-1.000000	-1.000000	-1.000000	-1.000000	51.000000	0.000000	-1.000000	-1.000000	503921.000000	1775792862.216482
-13924.350000	-15341.445000	13660.020000	39814.200000	14743.800000	534.780000	-26339.175000	-39289.365000	-2.430428	-6.035586	-7.393306	-6.460001	-1.069123	6.451090	1.939456	0.647802	10.727780	1.220800	0.152600	-0.961179	0.002502	0.261718	-1.000000	-1.000000	-1.000000	-1.000000	-1.000000	-1.000000	-1.000000	51.000000	0.000000	-1.000000	-1.000000	503922.000000	1775792862.216495
-13939.020000	-15357.330000	13642.560000	39798.630000	14738.085000	547.335000	-26338.950000	-39301.020000	-3.880617	-8.339328	-9.866827	-9.859843	-7.250131	-6.481943	0.061286	-0.586823	10.727780	1.220800	0.152600	-0.961179	0.002502	0.261718	-1.000000	-1.000000	-1.000000	-1.000000	-1.000000	-1.000000	-1.000000	51.000000	0.000000	-1.000000	-1.000000	503923.000000	1775792862.216505
-13951.890000	-15369.570000	13630.005000	39785.580000	14727.915000	540.360000	-26345.880000	-39314.430000	-4.797608	-8.095108	-9.082559	-9.362165	-8.102311	-11.685911	-2.096063	-2.604340	7.721560	-0.305200	2.395820	-0.954465	0.012756	0.258117	-1.000000	-1.000000	-1.000000	-1.000000	-1.000000	-1.000000	-1.000000	51.000000	0.000000	-1.000000	-1.000000	503924.000000	1775792862.216518
-13947.120000	-15360.435000	13641.705000	39799.485000	14736.375000	547.515000	-26342.730000	-39309.570000	-5.921973	-6.708792	-6.835503	-6.982188	-6.054407	-8.765330	-3.359498	-5.428234	7.721560	-0.305200	2.395820	-0.954465	0.012756	0.258117	-1.000000	-1.000000	-1.000000	-1.000000	-1.000000	-1.000000	-1.000000	51.000000	0.000000	-1.000000	-1.000000	503925.000000	1775792862.216528
-13938.525000	-15353.145000	13649.265000	39807.495000	14735.295000	549.000000	-26336.250000	-39301.155000	-5.682030	-3.744214	-2.980057	-2.996521	-3.189155	-2.133987	-2.895263	-6.803052	7.721560	-0.305200	2.395820	-0.954465	0.012756	0.258117	-1.000000	-1.000000	-1.000000	-1.000000	-1.000000	-1.000000	-1.000000	51.000000	0.000000	-1.000000	-1.000000	503926.000000	1775792862.216541
-13936.905000	-15355.890000	13644.180000	39802.815000	14733.045000	553.635000	-26332.605000	-39297.780000	-2.305215	1.287836	2.653500	2.555135	-0.325052	3.633710	-0.554421	-4.446916	7.721560	-0.305200	2.395820	-0.954465	0.012756	0.258117	-1.000000	-1.000000	-1.000000	-1.000000	-1.000000	-1.000000	-1.000000	51.000000	0.000000	-1.000000	-1.000000	503927.000000	1775792862.216551
-13936.455000	-15351.615000	13648.455000	39805.605000	14737.950000	546.390000	-26338.905000	-39301.965000	3.096111	6.484701	7.782003	7.350333	1.816205	5.901771	2.379443	0.726264	7.721560	-0.305200	2.395820	-0.954465	0.012756	0.258117	-1.000000	-1.000000	-1.000000	-1.000000	-1.000000	-1.000000	-1.000000	51.000000	0.000000	-1.000000	-1.000000	503928.000000	1775792862.226909
-13935.330000	-15349.455000	13649.085000	39801.960000	14733.540000	541.215000	-26337.780000	-39303.225000	7.314460	9.177162	9.733205	8.734008	2.797426	4.086946	3.780296	5.210452	7.721560	-0.305200	2.395820	-0.954465	0.012756	0.258117	-1.000000	-1.000000	-1.000000	-1.000000	-1.000000	-1.000000	-1.000000	51.000000	0.000000	-1.000000	-1.000000	503929.000000	1775792862.226933
-13944.105000	-15357.510000	13639.815000	39791.430000	14722.920000	522.045000	-26336.880000	-39309.570000	7.917113	8.186420	7.772903	6.098567	2.388860	-0.691767	2.793053	6.261778	7.721560	-0.305200	2.395820	-0.954465	0.012756	0.258117	-1.000000	-1.000000	-1.000000	-1.000000	-1.000000	-1.000000	-1.000000	51.000000	0.000000	-1.000000	-1.000000	503930.000000	1775792862.226956
-13946.895000	-15362.865000	13635.900000	39789.810000	14716.665000	509.085000	-26333.505000	-39310.875000	4.668695	3.926374	2.853076	0.857607	0.458234	-6.287542	0.560544	3.825741	7.721560	-0.305200	2.395820	-0.954465	0.012756	0.258117	-1.000000	-1.000000	-1.000000	-1.000000	-1.000000	-1.000000	-1.000000	51.000000	0.000000	-1.000000	-1.000000	503931.000000	1775792862.226966
-13953.420000	-15364.665000	13635.225000	39789.360000	14712.030000	515.835000	-26333.595000	-39313.935000	-0.567638	-1.769139	-2.807821	-4.195690	-2.147647	-9.815256	-1.257948	-0.047215	7.721560	-0.305200	2.395820	-0.954465	0.012756	0.258117	-1.000000	-1.000000	-1.000000	-1.000000	-1.000000	-1.000000	-1.000000	51.000000	0.000000	-1.000000	-1.000000	503932.000000	1775792862.226978
-13956.525000	-15370.110000	13630.815000	39785.085000	14702.670000	515.790000	-26351.145000	-39320.505000	-5.022369	-6.217041	-6.530525	-6.436718	-3.819052	-8.486201	-2.252842	-3.055140	7.721560	-0.305200	2.395820	-0.954465	0.012756	0.258117	-1.000000	-1.000000	-1.000000	-1.000000	-1.000000	-1.000000	-1.000000	51.000000	0.000000	-1.000000	-1.000000	503933.000000	1775792862.226988
-13968.225000	-15384.240000	13616.640000	39771.855000	14693.445000	534.330000	-26352.180000	-39333.510000	-6.843961	-7.777760	-7.150818	-5.486157	-3.703147	-1.874878	-3.207259	-4.293034	0.625660	0.015260	5.859840	-0.951169	0.019348	0.255920	-1.000000	-1.000000	-1.000000	-1.000000	-1.000000	-1.000000	-1.000000	51.000000	0.000000	-1.000000	-1.000000	503934.000000	1775792862.230237
-13973.670000	-15381.990000	13618.440000	39770.100000	14679.900000	486.045000	-26355.735000	-39342.690000	-5.970805	-6.632691	-5.471918	-3.014129	-2.268565	6.250898	-4.108294	-4.243028	0.625660	0.015260	5.859840	-0.951169	0.019348	0.255920	-1.000000	-1.000000	-1.000000	-1.000000	-1.000000	-1.000000	-1.000000	51.000000	0.000000	-1.000000	-1.000000	503935.000000	1775792862.230267
-13962.015000	-15364.755000	13629.420000	39773.115000	14688.360000	443.970000	-26362.845000	-39327.840000	-3.074056	-3.153449	-2.288749	-0.369137	-0.203128	8.964876	-3.835036	-3.051392	0.625660	0.015260	5.859840	-0.951169	0.019348	0.255920	-1.000000	-1.000000	-1.000000	-1.000000	-1.000000	-1.000000	-1.000000	51.000000	0.000000	-1.000000	-1.000000	503936.000000	1775792862.241388
-13952.070000	-15359.400000	13635.045000	39782.070000	14723.730000	493.065000	-26357.220000	-39312.045000	1.551468	2.490680	2.246616	2.464182	3.188926	3.923036	-1.833683	0.327639	0.625660	0.015260	5.859840	-0.951169	0.019348	0.255920	-1.000000	-1.000000	-1.000000	-1.000000	-1.000000	-1.000000	-1.000000	51.000000	0.000000	-1.000000	-1.000000	503937.000000	1775792862.241414
-13946.535000	-15371.640000	13630.455000	39796.650000	14756.310000	589.140000	-26338.095000	-39304.035000	6.925129	8.105274	6.783401	5.706631	9.211470	0.215568	1.805686	5.939482	0.625660	0.015260	5.859840	-0.951169	0.019348	0.255920	-1.000000	-1.000000	-1.000000	-1.000000	-1.000000	-1.000000	-1.000000	51.000000	0.000000	-1.000000	-1.000000	503938.000000	1775792862.241440
-13969.890000	-15392.970000	13607.865000	39772.530000	14711.220000	574.470000	-26349.075000	-39326.580000	10.050530	9.464213	8.248761	8.058321	15.141474	7.292385	6.227057	10.430438	0.625660	0.015260	5.859840	-0.951169	0.019348	0.255920	-1.000000	-1.000000	-1.000000	-1.000000	-1.000000	-1.000000	-1.000000	51.000000	0.000000	-1.000000	-1.000000	503939.000000	1775792862.241451
-13978.890000	-15399.945000	13600.260000	39761.460000	14684.490000	530.640000	-26355.555000	-39337.605000	7.653239	4.502946	4.535755	6.619399	13.328381	18.086923	8.677208	9.117957	0.625660	0.015260	5.859840	-0.951169	0.019348	0.255920	-1.000000	-1.000000	-1.000000	-1.000000	-1.000000	-1.000000	-1.000000	51.000000	0.000000	-1.000000	-1.000000	503940.000000	1775792862.243509
-13974.165000	-15396.255000	13603.095000	39760.605000	14692.545000	530.865000	-26353.215000	-39335.445000	0.357622	-3.495492	-2.322705	0.588260	0.767177	16.688743	6.707492	1.515609	0.625660	0.015260	5.859840	-0.951169	0.019348	0.255920	-1.000000	-1.000000	-1.000000	-1.000000	-1.000000	-1.000000	-1.000000	51.000000	0.000000	-1.000000	-1.000000	503941.000000	1775792862.243534
-13961.655000	-15379.740000	13621.185000	39781.800000	14714.460000	563.760000	-26341.380000	-39326.040000	-6.482480	-8.229689	-6.913028	-5.888801	-13.995419	0.734912	1.686937	-6.975041	0.625660	0.015260	5.859840	-0.951169	0.019348	0.255920	-1.000000	-1.000000	-1.000000	-1.000000	-1.000000	-1.000000	-1.000000	51.000000	0.000000	-1.000000	-1.000000	503942.000000	1775792862.246183
-13964.355000	-15377.850000	13624.110000	39784.230000	14713.380000	563.445000	-26342.955000	-39330.045000	-7.960734	-6.061380	-5.401365	-7.451219	-19.530450	-16.573168	-2.633196	-10.396545	0.625660	0.015260	5.859840	-0.951169	0.019348	0.255920	-1.000000	-1.000000	-1.000000	-1.000000	-1.000000	-1.000000	-1.000000	51.000000	0.000000	-1.000000	-1.000000	503943.000000	1775792862.246204
-13958.730000	-15371.370000	13629.285000	39789.810000	14729.445000	560.295000	-26339.670000	-39324.420000	-4.212253	0.868985	0.721898	-3.343160	-13.159573	-23.706693	-4.248196	-7.611243	-2.914660	-1.037680	7.233240	-0.962400	0.013855	0.256957	-1.000000	-1.000000	-1.000000	-1.000000	-1.000000	-1.000000	-1.000000	51.000000	0.000000	-1.000000	-1.000000	503944.000000	1775792862.257642
-13952.655000	-15365.340000	13634.190000	39793.185000	14735.160000	560.115000	-26340.795000	-39319.515000	1.118048	7.245345	6.496274	2.435006	-0.865497	-20.021860	-3.814953	-1.620731	-2.914660	-1.037680	7.233240	-0.962400	0.013855	0.256957	-1.000000	-1.000000	-1.000000	-1.000000	-1.000000	-1.000000	-1.000000	51.000000	0.000000	-1.000000	-1.000000	503945.000000	1775792862.257666
-13948.245000	-15360.930000	13638.735000	39796.920000	14736.195000	566.280000	-26338.095000	-39315.015000	4.786766	9.272018	8.180070	5.651274	9.424693	-10.795519	-2.747612	3.960289	-2.914660	-1.037680	7.233240	-0.962400	0.013855	0.256957	-1.000000	-1.000000	-1.000000	-1.000000	-1.000000	-1.000000	-1.000000	51.000000	0.000000	-1.000000	-1.000000	503946.000000	1775792862.257691
-13955.670000	-15372.540000	13623.075000	39778.920000	14713.605000	539.280000	-26341.920000	-39318.930000	5.257387	6.235306	5.058848	4.501759	12.231176	-1.513331	-1.912862	6.659671	-2.914660	-1.037680	7.233240	-0.962400	0.013855	0.256957	-1.000000	-1.000000	-1.000000	-1.000000	-1.000000	-1.000000	-1.000000	51.000000	0.000000	-1.000000	-1.000000	503947.000000	1775792862.257703
-13956.345000	-15373.035000	13624.605000	39782.160000	14714.730000	517.455000	-26340.570000	-39319.155000	2.456613	-0.341655	-1.367123	-0.363623	6.668118	3.527648	-1.529607	5.582120	-2.914660	-1.037680	7.233240	-0.962400	0.013855	0.256957	-1.000000	-1.000000	-1.000000	-1.000000	-1.000000	-1.000000	-1.000000	51.000000	0.000000	-1.000000	-1.000000	503948.000000	1775792862.273062
-13956.345000	-15370.965000	13627.305000	39784.455000	14717.925000	523.035000	-26336.115000	-39314.880000	-2.012539	-7.199554	-7.757263	-5.847635	-2.699873	3.395842	-1.234878	1.832615	-2.914660	-1.037680	7.233240	-0.962400	0.013855	0.256957	-1.000000	-1.000000	-1.000000	-1.000000	-1.000000	-1.000000	-1.000000	51.000000	0.000000	-1.000000	-1.000000	503949.000000	1775792862.273088
-13958.190000	-15373.710000	13623.255000	39776.535000	14695.245000	515.970000	-26335.755000	-39315.690000	-5.538832	-10.747268	-10.494217	-8.312326	-9.513534	1.738086	-0.452087	-2.106512	-2.914660	-1.037680	7.233240	-0.962400	0.013855	0.256957	-1.000000	-1.000000	-1.000000	-1.000000	-1.000000	-1.000000	-1.000000	51.000000	0.000000	-1.000000	-1.000000	503950.000000	1775792862.273114
-13935.645000	-15350.895000	13646.430000	39799.305000	14713.605000	519.255000	-26341.515000	-39303.045000	-5.973110	-9.184683	-8.130362	-6.358048	-10.661618	2.536647	0.660825	-4.080270	-2.914660	-1.037680	7.233240	-0.962400	0.013855	0.256957	-1.000000	-1.000000	-1.000000	-1.000000	-1.000000	-1.000000	-1.000000	51.000000	0.000000	-1.000000	-1.000000	503951.000000	1775792862.273126
-13935.015000	-15350.580000	13647.600000	39801.555000	14715.630000	512.640000	-26337.465000	-39305.430000	-2.677857	-3.191181	-1.753390	-0.842537	-6.249510	6.011961	1.285857	-3.425334	-2.914660	-1.037680	7.233240	-0.962400	0.013855	0.256957	-1.000000	-1.000000	-1.000000	-1.000000	-1.000000	-1.000000	-1.000000	51.000000	0.000000	-1.000000	-1.000000	503952.000000	1775792862.273140
-13952.430000	-15365.340000	13635.675000	39793.725000	14724.540000	534.555000	-26344.845000	-39322.350000	2.014551	3.681512	5.064374	5.325023	1.641452	9.858418	1.077913	-1.614536	-2.914660	-1.037680	7.233240	-0.962400	0.013855	0.256957	-1.000000	-1.000000	-1.000000	-1.000000	-1.000000	-1.000000	-1.000000	51.000000	0.000000	-1.000000	-1.000000	503953.000000	1775792862.273150
-13952.070000	-15364.440000	13636.395000	39794.805000	14737.410000	564.885000	-26346.150000	-39322.080000	3.943802	6.738452	7.841673	8.134578	9.261941	12.640705	0.288313	-1.089949	0.396760	-1.648080	5.859840	-0.972104	0.003906	0.256957	-1.000000	-1.000000	-1.000000	-1.000000	-1.000000	-1.000000	-1.000000	51.000000	0.000000	-1.000000	-1.000000	503954.000000	1775792862.273163
-13944.870000	-15355.620000	13645.935000	39802.995000	14743.890000	557.595000	-26344.935000	-39316.320000	1.980670	4.853981	5.531221	6.224229	13.252813	13.715698	-0.548662	-2.029782	0.396760	-1.648080	5.859840	-0.972104	0.003906	0.256957	-1.000000	-1.000000	-1.000000	-1.000000	-1.000000	-1.000000	-1.000000	51.000000	0.000000	-1.000000	-1.000000	503955.000000	1775792862.273173
-13938.705000	-15348.780000	13652.190000	39805.650000	14729.130000	525.375000	-26344.575000	-39310.740000	-0.829347	1.316836	1.372156	2.011442	11.807299	10.349213	-0.701190	-2.114716	0.396760	-1.648080	5.859840	-0.972104	0.003906	0.256957	-1.000000	-1.000000	-1.000000	-1.000000	-1.000000	-1.000000	-1.000000	51.000000	0.000000	-1.000000	-1.000000	503956.000000	1775792862.287899
-13931.505000	-15344.055000	13657.140000	39811.050000	14720.535000	488.070000	-26342.595000	-39303.270000	-1.433546	-0.514806	-1.202105	-1.456533	4.757143	-0.485867	0.122511	0.152768	0.396760	-1.648080	5.859840	-0.972104	0.003906	0.256957	-1.000000	-1.000000	-1.000000	-1.000000	-1.000000	-1.000000	-1.000000	51.000000	0.000000	-1.000000	-1.000000	503957.000000	1775792862.287924
-13930.875000	-15345.360000	13656.510000	39812.310000	14721.885000	475.335000	-26340.930000	-39300.030000	0.296097	-0.249967	-1.534752	-2.935357	-5.153753	-16.179602	1.440213	3.740706	0.396760	-1.648080	5.859840	-0.972104	0.003906	0.256957	-1.000000	-1.000000	-1.000000	-1.000000	-1.000000	-1.000000	-1.000000	51.000000	0.000000	-1.000000	-1.000000	503958.000000	1775792862.350500
-13943.880000	-15359.715000	13643.685000	39803.985000	14718.555000	503.955000	-26339.895000	-39308.130000	2.041506	0.147330	-1.281824	-3.043322	-12.741723	-27.152351	2.443441	6.070846	0.396760	-1.648080	5.859840	-0.972104	0.003906	0.256957	-1.000000	-1.000000	-1.000000	-1.000000	-1.000000	-1.000000	-1.000000	51.000000	0.000000	-1.000000	-1.000000	503959.000000	1775792862.350535
-13954.590000	-15372.090000	13626.945000	39785.175000	14716.530000	583.155000	-26339.445000	-39314.430000	1.270559	-1.354505	-2.456504	-3.409647	-14.201757	-22.792205	2.513638	4.965477	0.396760	-1.648080	5.859840	-0.972104	0.003906	0.256957	-1.000000	-1.000000	-1.000000	-1.000000	-1.000000	-1.000000	-1.000000	51.000000	0.000000	-1.000000	-1.000000	503960.000000	1775792862.350563
-13959.270000	-15375.915000	13621.635000	39777.660000	14716.575000	596.655000	-26337.285000	-39320.145000	-2.166959	-4.546902	-5.258182	-5.007192	-9.669637	-1.391062	1.575890	0.558830	0.396760	-1.648080	5.859840	-0.972104	0.003906	0.256957	-1.000000	-1.000000	-1.000000	-1.000000	-1.000000	-1.000000	-1.000000	51.000000	0.000000	-1.000000	-1.000000	503961.000000	1775792862.350575
-13951.890000	-15368.670000	13627.710000	39783.240000	14721.255000	567.675000	-26336.430000	-39314.475000	-5.418860	-6.613179	-7.185252	-6.419050	-2.033390	23.651240	0.125933	-4.391011	0.396760	-1.648080	5.859840	-0.972104	0.003906	0.256957	-1.000000	-1.000000	-1.000000	-1.000000	-1.000000	-1.000000	-1.000000	51.000000	0.000000	-1.000000	-1.000000	503962.000000	1775792862.350648
-13951.485000	-15369.615000	13624.155000	39780.270000	14719.320000	558.360000	-26332.470000	-39309.570000	-5.234400	-4.810410	-5.342868	-4.962320	5.260468	33.088000	-1.127288	-6.467291	0.396760	-1.648080	5.859840	-0.972104	0.003906	0.256957	-1.000000	-1.000000	-1.000000	-1.000000	-1.000000	-1.000000	-1.000000	51.000000	0.000000	-1.000000	-1.000000	503963.000000	1775792862.350663
-13948.245000	-15365.340000	13632.345000	39791.160000	14723.055000	557.100000	-26332.695000	-39310.965000	-1.192332	0.537321	0.296349	0.079210	9.555119	20.352522	-1.712234	-4.410571	6.332900	0.656180	5.127360	-0.973752	-0.000061	0.257079	-1.000000	-1.000000	-1.000000	-1.000000	-1.000000	-1.000000	-1.000000	51.000000	0.000000	-1.000000	-1.000000	503964.000000	1775792862.350682
-13946.670000	-15361.920000	13638.060000	39799.305000	14736.870000	565.785000	-26337.420000	-39312.045000	4.113408	6.408875	6.989082	6.704312	10.100880	-3.587519	-1.772384	-0.128409	6.332900	0.656180	5.127360	-0.973752	-0.000061	0.257079	-1.000000	-1.000000	-1.000000	-1.000000	-1.000000	-1.000000	-1.000000	51.000000	0.000000	-1.000000	-1.000000	503965.000000	1775792862.350693
-13951.935000	-15367.590000	13631.850000	39793.185000	14733.585000	560.340000	-26340.390000	-39317.715000	7.442948	9.608579	11.370394	11.639725	7.971435	-22.514584	-1.891012	3.232832	6.332900	0.656180	5.127360	-0.973752	-0.000061	0.257079	-1.000000	-1.000000	-1.000000	-1.000000	-1.000000	-1.000000	-1.000000	51.000000	0.000000	-1.000000	-1.000000	503966.000000	1775792862.350708
-13954.545000	-15370.245000	13627.935000	39786.885000	14721.525000	546.615000	-26344.170000	-39320.820000	6.975022	8.478836	10.985653	11.804490	4.041346	-27.906739	-2.278905	3.821805	6.332900	0.656180	5.127360	-0.973752	-0.000061	0.257079	-1.000000	-1.000000	-1.000000	-1.000000	-1.000000	-1.000000	-1.000000	51.000000	0.000000	-1.000000	-1.000000	503967.000000	1775792862.350718
-13942.980000	-15356.115000	13642.560000	39802.545000	14730.795000	543.420000	-26343.765000	-39311.595000	3.480677	4.011261	6.135956	6.837282	-1.208485	-21.424851	-2.433121	2.203329	6.332900	0.656180	5.127360	-0.973752	-0.000061	0.257079	-1.000000	-1.000000	-1.000000	-1.000000	-1.000000	-1.000000	-1.000000	51.000000	0.000000	-1.000000	-1.000000	503968.000000	1775792862.350731
-13931.190000	-15345.855000	13654.080000	39814.830000	14741.910000	552.060000	-26336.970000	-39299.265000	-0.069709	-0.467272	0.340177	0.318349	-5.658055	-9.045963	-1.557074	0.731069	6.332900	0.656180	5.127360	-0.973752	-0.000061	0.257079	-1.000000	-1.000000	-1.000000	-1.000000	-1.000000	-1.000000	-1.000000	51.000000	0.000000	-1.000000	-1.000000	503969.000000	1775792862.350742
-13933.845000	-15346.485000	13653.405000	39812.535000	14738.040000	548.505000	-26337.915000	-39302.820000	-1.414591	-2.436549	-3.056479	-3.809987	-6.775677	3.932075	0.619257	0.996368	6.332900	0.656180	5.127360	-0.973752	-0.000061	0.257079	-1.000000	-1.000000	-1.000000	-1.000000	-1.000000	-1.000000	-1.000000	51.000000	0.000000	-1.000000	-1.000000	503970.000000	1775792862.350756
-13934.430000	-15346.755000	13654.170000	39812.580000	14734.395000	541.260000	-26337.735000	-39303.225000	-1.244451	-2.501166	-3.981810	-5.089773	-4.888376	13.331116	3.116321	1.930088	6.332900	0.656180	5.127360	-0.973752	-0.000061	0.257079	-1.000000	-1.000000	-1.000000	-1.000000	-1.000000	-1.000000	-1.000000	51.000000	0.000000	-1.000000	-1.000000	503971.000000	1775792862.350766
-13934.520000	-15348.555000	13653.045000	39810.060000	14729.445000	528.480000	-26335.260000	-39302.640000	-1.516297	-2.671405	-4.262063	-5.343306	-2.538273	16.196362	4.408045	1.534698	6.332900	0.656180	5.127360	-0.973752	-0.000061	0.257079	-1.000000	-1.000000	-1.000000	-1.000000	-1.000000	-1.000000	-1.000000	51.000000	0.000000	-1.000000	-1.000000	503972.000000	1775792862.350779
-13941.225000	-15350.940000	13650.570000	39805.695000	14726.205000	522.810000	-26341.695000	-39312.360000	-2.891482	-3.754118	-4.906717	-5.713926	-1.412593	12.401856	3.759331	-0.667431	6.332900	0.656180	5.127360	-0.973752	-0.000061	0.257079	-1.000000	-1.000000	-1.000000	-1.000000	-1.000000	-1.000000	-1.000000	51.000000	0.000000	-1.000000	-1.000000	503973.000000	1775792862.350790
-13935.420000	-15339.150000	13662.990000	39816.180000	14739.165000	540.405000	-26345.430000	-39311.190000	-4.483928	-4.773830	-5.317235	-5.758827	-1.024307	5.479872	1.398762	-3.624892	10.422580	0.839300	5.493600	-0.965085	0.003052	0.258422	-1.000000	-1.000000	-1.000000	-1.000000	-1.000000	-1.000000	-1.000000	51.000000	0.000000	-1.000000	-1.000000	503974.000000	1775792862.350802
-13928.490000	-15339.645000	13662.720000	39819.555000	14756.040000	585.495000	-26334.495000	-39298.140000	-4.667053	-4.140453	-4.200862	-4.200408	0.483041	1.210733	-1.436842	-5.333695	10.422580	0.839300	5.493600	-0.965085	0.003052	0.258422	-1.000000	-1.000000	-1.000000	-1.000000	-1.000000	-1.000000	-1.000000	51.000000	0.000000	-1.000000	-1.000000	503975.000000	1775792862.350813
-13919.490000	-15346.755000	13651.830000	39814.515000	14757.930000	604.485000	-26316.090000	-39278.205000	-2.358178	-1.805177	-1.680494	-0.903425	3.838905	3.234375	-2.490698	-3.658793	10.422580	0.839300	5.493600	-0.965085	0.003052	0.258422	-1.000000	-1.000000	-1.000000	-1.000000	-1.000000	-1.000000	-1.000000	51.000000	0.000000	-1.000000	-1.000000	503976.000000	1775792862.350825
-13924.440000	-15345.540000	13654.215000	39816.495000	14747.130000	575.910000	-26324.415000	-39287.295000	1.507936	0.467132	0.413806	2.346583	6.697459	7.993563	-0.690405	1.162637	10.422580	0.839300	5.493600	-0.965085	0.003052	0.258422	-1.000000	-1.000000	-1.000000	-1.000000	-1.000000	-1.000000	-1.000000	51.000000	0.000000	-1.000000	-1.000000	503977.000000	1775792862.350835
-13935.150000	-15348.780000	13652.235000	39813.120000	14737.770000	558.900000	-26337.285000	-39303.810000	4.128930	1.408538	1.087990	3.803330	5.616934	6.938965	1.572321	5.130685	10.422580	0.839300	5.493600	-0.965085	0.003052	0.258422	-1.000000	-1.000000	-1.000000	-1.000000	-1.000000	-1.000000	-1.000000	51.000000	0.000000	-1.000000	-1.000000	503978.000000	1775792862.350847
-13935.780000	-15347.115000	13654.800000	39816.180000	14738.625000	567.360000	-26335.215000	-39304.170000	3.359846	1.308610	1.095208	3.315404	0.243516	-3.086351	1.048050	4.223302	10.422580	0.839300	5.493600	-0.965085	0.003052	0.258422	-1.000000	-1.000000	-1.000000	-1.000000	-1.000000	-1.000000	-1.000000	51.000000	0.000000	-1.000000	-1.000000	503979.000000	1775792862.350858
-13929.120000	-15344.910000	13654.260000	39813.660000	14740.335000	571.185000	-26325.900000	-39294.180000	0.234738	1.103773	1.384744	1.871434	-5.754720	-15.184205	-1.825385	-0.535821	10.422580	0.839300	5.493600	-0.965085	0.003052	0.258422	-1.000000	-1.000000	-1.000000	-1.000000	-1.000000	-1.000000	-1.000000	51.000000	0.000000	-1.000000	-1.000000	503980.000000	1775792862.350871
-13920.660000	-15340.095000	13656.780000	39816.585000	14744.655000	572.625000	-26318.835000	-39284.280000	-1.979895	1.476245	2.101684	0.545588	-8.154075	-20.275898	-3.615577	-4.186837	10.422580	0.839300	5.493600	-0.965085	0.003052	0.258422	-1.000000	-1.000000	-1.000000	-1.000000	-1.000000	-1.000000	-1.000000	51.000000	0.000000	-1.000000	-1.000000	503981.000000	1775792862.350881
-13917.735000	-15336.000000	13661.640000	39823.155000	14751.810000	573.795000	-26312.895000	-39280.995000	-1.278350	2.411570	2.852921	0.024193	-5.609500	-15.677745	-2.288107	-3.503497	10.422580	0.839300	5.493600	-0.965085	0.003052	0.258422	-1.000000	-1.000000	-1.000000	-1.000000	-1.000000	-1.000000	-1.000000	51.000000	0.000000	-1.000000	-1.000000	503982.000000	1775792862.350893
-13920.660000	-15336.225000	13662.225000	39823.965000	14755.230000	566.280000	-26325.270000	-39287.250000	1.240323	3.187295	3.206598	0.480454	-0.003039	-5.417945	0.714086	0.106158	10.422580	0.839300	5.493600	-0.965085	0.003052	0.258422	-1.000000	-1.000000	-1.000000	-1.000000	-1.000000	-1.000000	-1.000000	51.000000	0.000000	-1.000000	-1.000000	503983.000000	1775792862.350904
-13927.725000	-15345.180000	13652.055000	39812.490000	14744.925000	553.590000	-26335.845000	-39293.235000	2.781415	2.708410	2.570400	1.054744	5.035662	4.119697	2.098749	2.774836	10.361540	2.929920	5.539380	-0.954771	0.011963	0.258972	-1.000000	-1.000000	-1.000000	-1.000000	-1.000000	-1.000000	-1.000000	51.000000	0.000000	-1.000000	-1.000000	503984.000000	1775792862.350916
-13925.745000	-15345.315000	13651.470000	39814.200000	14750.910000	565.470000	-26327.970000	-39289.455000	1.734742	0.421021	0.450981	0.414557	6.477710	8.888858	0.442876	2.320732	10.361540	2.929920	5.539380	-0.954771	0.011963	0.258972	-1.000000	-1.000000	-1.000000	-1.000000	-1.000000	-1.000000	-1.000000	51.000000	0.000000	-1.000000	-1.000000	503985.000000	1775792862.350926
-13925.925000	-15342.210000	13655.340000	39819.060000	14759.550000	567.495000	-26328.285000	-39291.705000	-0.883015	-2.580120	-2.316032	-1.237808	4.400715	9.401762	-2.079346	-0.102877	10.361540	2.929920	5.539380	-0.954771	0.011963	0.258972	-1.000000	-1.000000	-1.000000	-1.000000	-1.000000	-1.000000	-1.000000	51.000000	0.000000	-1.000000	-1.000000	503986.000000	1775792862.350939
-13934.655000	-15348.330000	13649.310000	39810.105000	14747.985000	556.470000	-26335.665000	-39301.515000	-3.005027	-4.314326	-3.905224	-2.343907	1.178261	7.961252	-2.801273	-2.284740	10.361540	2.929920	5.539380	-0.954771	0.011963	0.258972	-1.000000	-1.000000	-1.000000	-1.000000	-1.000000	-1.000000	-1.000000	51.000000	0.000000	-1.000000	-1.000000	503987.000000	1775792862.350949
-13933.800000	-15347.655000	13650.660000	39811.005000	14749.200000	557.055000	-26334.540000	-39300.795000	-3.643268	-3.971642	-3.521791	-2.252755	-1.660045	5.394871	-1.564371	-3.232470	10.361540	2.929920	5.539380	-0.954771	0.011963	0.258972	-1.000000	-1.000000	-1.000000	-1.000000	-1.000000	-1.000000	-1.000000	51.000000	0.000000	-1.000000	-1.000000	503988.000000	1775792862.350962
-13932.585000	-15344.595000	13655.205000	39819.060000	14755.725000	563.715000	-26329.410000	-39297.465000	-2.746525	-2.082020	-1.671808	-1.218006	-3.509400	2.189520	0.502100	-2.672957	10.361540	2.929920	5.539380	-0.954771	0.011963	0.258972	-1.000000	-1.000000	-1.000000	-1.000000	-1.000000	-1.000000	-1.000000	51.000000	0.000000	-1.000000	-1.000000	503989.000000	1775792862.350973
-13932.315000	-15344.775000	13654.800000	39820.185000	14749.335000	568.710000	-26326.035000	-39296.520000	-0.574728	0.493810	0.810567	0.650913	-3.685155	-0.175131	2.684178	-0.527146	10.361540	2.929920	5.539380	-0.954771	0.011963	0.258972	-1.000000	-1.000000	-1.000000	-1.000000	-1.000000	-1.000000	-1.000000	51.000000	0.000000	-1.000000	-1.000000	503990.000000	1775792862.350986
-13936.725000	-15347.655000	13653.585000	39818.835000	14749.920000	557.775000	-26333.730000	-39301.920000	1.935783	2.677741	2.835921	2.684072	-2.418962	-1.005769	4.188931	2.268783	10.361540	2.929920	5.539380	-0.954771	0.011963	0.258972	-1.000000	-1.000000	-1.000000	-1.000000	-1.000000	-1.000000	-1.000000	51.000000	0.000000	-1.000000	-1.000000	503991.000000	1775792862.350996
-13944.735000	-15356.340000	13643.100000	39806.955000	14734.755000	547.110000	-26333.550000	-39306.465000	3.308545	3.289177	3.194270	3.320044	-1.037714	-1.591518	3.911599	3.913466	10.361540	2.929920	5.539380	-0.954771	0.011963	0.258972	-1.000000	-1.000000	-1.000000	-1.000000	-1.000000	-1.000000	-1.000000	51.000000	0.000000	-1.000000	-1.000000	503992.000000	1775792862.351009
-13944.420000	-15357.375000	13638.195000	39798.450000	14720.760000	526.725000	-26342.550000	-39310.245000	2.741970	1.929190	1.400922	1.446938	-0.871788	-3.491862	1.613007	3.342587	10.361540	2.929920	5.539380	-0.954771	0.011963	0.258972	-1.000000	-1.000000	-1.000000	-1.000000	-1.000000	-1.000000	-1.000000	51.000000	0.000000	-1.000000	-1.000000	503993.000000	1775792862.351019
-13921.965000	-15332.535000	13664.205000	39825.765000	14750.955000	538.470000	-26333.370000	-39294.090000	1.435601	0.114548	-1.022706	-1.582844	-1.423232	-6.074993	-1.412869	1.503536	4.242280	2.807840	7.630000	-0.953794	0.025818	0.260497	-1.000000	-1.000000	-1.000000	-1.000000	-1.000000	-1.000000	-1.000000	51.000000	0.000000	-1.000000	-1.000000	503994.000000	1775792862.357561
-13923.585000	-15333.840000	13664.160000	39826.395000	14755.995000	536.760000	-26341.695000	-39295.440000	1.551722	0.277147	-1.214558	-2.368706	0.076933	-6.446960	-3.263150	0.499654	4.242280	2.807840	7.630000	-0.953794	0.025818	0.260497	-1.000000	-1.000000	-1.000000	-1.000000	-1.000000	-1.000000	-1.000000	51.000000	0.000000	-1.000000	-1.000000	503995.000000	1775792862.357586
-13935.915000	-15345.045000	13655.385000	39819.105000	14746.320000	542.475000	-26347.275000	-39306.960000	2.759387	2.118697	1.073428	0.015573	4.272634	-2.768399	-3.277701	0.728721	4.242280	2.807840	7.630000	-0.953794	0.025818	0.260497	-1.000000	-1.000000	-1.000000	-1.000000	-1.000000	-1.000000	-1.000000	51.000000	0.000000	-1.000000	-1.000000	503996.000000	1775792862.357613
-13947.480000	-15357.690000	13643.100000	39807.630000	14727.645000	539.235000	-26344.080000	-39316.410000	2.103563	2.306780	2.461322	2.267821	7.106177	3.237694	-2.233650	0.258127	4.242280	2.807840	7.630000	-0.953794	0.025818	0.260497	-1.000000	-1.000000	-1.000000	-1.000000	-1.000000	-1.000000	-1.000000	51.000000	0.000000	-1.000000	-1.000000	503997.000000	1775792862.357624
-13933.305000	-15349.095000	13645.530000	39806.235000	14727.015000	547.740000	-26332.740000	-39298.815000	-1.360249	-0.713957	0.564081	1.378718	4.848286	8.055587	-0.510239	-1.651840	4.242280	2.807840	7.630000	-0.953794	0.025818	0.260497	-1.000000	-1.000000	-1.000000	-1.000000	-1.000000	-1.000000	-1.000000	51.000000	0.000000	-1.000000	-1.000000	503998.000000	1775792862.360372
-13919.670000	-15340.320000	13649.670000	39809.160000	14740.830000	579.330000	-26308.890000	-39279.015000	-4.400440	-4.180541	-2.889867	-1.737206	-0.735977	9.974985	2.416600	-2.495347	4.242280	2.807840	7.630000	-0.953794	0.025818	0.260497	-1.000000	-1.000000	-1.000000	-1.000000	-1.000000	-1.000000	-1.000000	51.000000	0.000000	-1.000000	-1.000000	503999.000000	1775792862.360395
-13930.920000	-15351.165000	13645.170000	39808.980000	14741.460000	567.180000	-26315.955000	-39292.515000	-3.931160	-4.759163	-4.584332	-3.895733	-4.489926	9.488637	6.082341	-0.336201	4.242280	2.807840	7.630000	-0.953794	0.025818	0.260497	-1.000000	-1.000000	-1.000000	-1.000000	-1.000000	-1.000000	-1.000000	51.000000	0.000000	-1.000000	-1.000000	504000.000000	1775792862.362252
-13926.690000	-15346.080000	13647.600000	39808.710000	14735.025000	538.245000	-26333.460000	-39290.445000	-1.104727	-2.561163	-3.373352	-3.278411	-4.005957	5.819502	7.422168	2.523002	4.242280	2.807840	7.630000	-0.953794	0.025818	0.260497	-1.000000	-1.000000	-1.000000	-1.000000	-1.000000	-1.000000	-1.000000	51.000000	0.000000	-1.000000	-1.000000	504001.000000	1775792862.362272
-13921.155000	-15337.350000	13652.370000	39809.745000	14730.975000	549.585000	-26334.630000	-39285.720000	1.205625	0.427151	-0.392604	-0.619417	-1.399108	-2.141428	3.501106	2.851200	4.242280	2.807840	7.630000	-0.953794	0.025818	0.260497	-1.000000	-1.000000	-1.000000	-1.000000	-1.000000	-1.000000	-1.000000	51.000000	0.000000	-1.000000	-1.000000	504002.000000	1775792862.370950
-13924.350000	-15338.385000	13657.230000	39817.710000	14724.945000	544.455000	-26331.885000	-39293.730000	1.922801	2.978553	2.796762	2.357324	0.312314	-10.979356	-3.916009	0.517913	4.242280	2.807840	7.630000	-0.953794	0.025818	0.260497	-1.000000	-1.000000	-1.000000	-1.000000	-1.000000	-1.000000	-1.000000	51.000000	0.000000	-1.000000	-1.000000	504003.000000	1775792862.370974
-13914.810000	-15330.330000	13665.735000	39825.855000	14729.400000	533.070000	-26330.130000	-39284.505000	1.423957	4.344396	5.026580	4.540126	0.294048	-15.212228	-9.508704	-2.546904	-2.121140	2.166920	9.476460	-0.955808	0.034973	0.261657	-1.000000	-1.000000	-1.000000	-1.000000	-1.000000	-1.000000	-1.000000	51.000000	0.000000	-1.000000	-1.000000	504004.000000	1775792862.371002
-13918.140000	-15333.750000	13663.080000	39824.910000	14742.360000	529.110000	-26329.815000	-39286.935000	0.481991	4.001969	5.517130	5.373716	-0.003336	-13.189234	-9.748417	-4.319109	-2.121140	2.166920	9.476460	-0.955808	0.034973	0.261657	-1.000000	-1.000000	-1.000000	-1.000000	-1.000000	-1.000000	-1.000000	51.000000	0.000000	-1.000000	-1.000000	504005.000000	1775792862.371014
-13931.955000	-15347.835000	13649.805000	39814.470000	14749.470000	565.335000	-26330.625000	-39299.040000	-0.667518	1.739600	3.579172	4.081460	1.162258	-6.235568	-5.332946	-4.130510	-2.121140	2.166920	9.476460	-0.955808	0.034973	0.261657	-1.000000	-1.000000	-1.000000	-1.000000	-1.000000	-1.000000	-1.000000	51.000000	0.000000	-1.000000	-1.000000	504006.000000	1775792862.374896
-13941.765000	-15358.590000	13638.465000	39800.880000	14732.910000	556.920000	-26334.045000	-39307.590000	-2.576672	-2.316764	-0.973766	0.105487	3.167980	3.722382	0.449967	-3.201342	-2.121140	2.166920	9.476460	-0.955808	0.034973	0.261657	-1.000000	-1.000000	-1.000000	-1.000000	-1.000000	-1.000000	-1.000000	51.000000	0.000000	-1.000000	-1.000000	504007.000000	1775792862.374918
-13938.660000	-15357.510000	13638.060000	39797.505000	14713.875000	542.655000	-26329.455000	-39302.505000	-4.788403	-6.610065	-6.439307	-5.388292	2.937222	12.267475	4.579490	-2.477872	-2.121140	2.166920	9.476460	-0.955808	0.034973	0.261657	-1.000000	-1.000000	-1.000000	-1.000000	-1.000000	-1.000000	-1.000000	51.000000	0.000000	-1.000000	-1.000000	504008.000000	1775792862.381216
-13938.210000	-15358.860000	13638.735000	39802.185000	14731.560000	564.795000	-26326.395000	-39299.355000	-5.212262	-8.267313	-9.429619	-9.190066	-0.774611	14.358608	6.070702	-1.124620	-2.121140	2.166920	9.476460	-0.955808	0.034973	0.261657	-1.000000	-1.000000	-1.000000	-1.000000	-1.000000	-1.000000	-1.000000	51.000000	0.000000	-1.000000	-1.000000	504009.000000	1775792862.381239
-13942.395000	-15360.075000	13639.635000	39807.270000	14745.870000	585.765000	-26330.805000	-39306.735000	-2.605591	-5.702149	-7.637965	-8.275953	-4.341563	10.476152	5.441180	1.518315	-2.121140	2.166920	9.476460	-0.955808	0.034973	0.261657	-1.000000	-1.000000	-1.000000	-1.000000	-1.000000	-1.000000	-1.000000	51.000000	0.000000	-1.000000	-1.000000	504010.000000	1775792862.388680
-13943.655000	-15359.175000	13639.635000	39805.740000	14747.220000	592.605000	-26332.695000	-39308.940000	1.682645	-0.220806	-1.961737	-2.727158	-3.615941	5.284608	3.313708	4.164608	-2.121140	2.166920	9.476460	-0.955808	0.034973	0.261657	-1.000000	-1.000000	-1.000000	-1.000000	-1.000000	-1.000000	-1.000000	51.000000	0.000000	-1.000000	-1.000000	504011.000000	1775792862.388703
-13945.095000	-15360.480000	13637.880000	39802.545000	14741.145000	571.590000	-26335.845000	-39310.470000	5.189443	5.262147	4.348499	4.003834	0.475779	0.774188	0.347837	5.100680	-2.121140	2.166920	9.476460	-0.955808	0.034973	0.261657	-1.000000	-1.000000	-1.000000	-1.000000	-1.000000	-1.000000	-1.000000	51.000000	0.000000	-1.000000	-1.000000	504012.000000	1775792862.388727
-13939.695000	-15353.865000	13645.350000	39810.780000	14745.735000	563.580000	-26334.495000	-39305.790000	6.536358	8.387780	8.273737	8.141943	3.670822	-4.611442	-2.330391	4.201072	-2.121140	2.166920	9.476460	-0.955808	0.034973	0.261657	-1.000000	-1.000000	-1.000000	-1.000000	-1.000000	-1.000000	-1.000000	51.000000	0.000000	-1.000000	-1.000000	504013.000000	1775792862.388737
-13933.260000	-15349.455000	13646.475000	39810.375000	14745.510000	571.680000	-26325.765000	-39296.655000	6.008212	8.543660	8.820548	8.452100	3.600927	-10.764019	-3.399700	2.772410	-4.898460	1.861720	8.042020	-0.961362	0.035217	0.261413	-1.000000	-1.000000	-1.000000	-1.000000	-1.000000	-1.000000	-1.000000	51.000000	0.000000	-1.000000	-1.000000	504014.000000	1775792862.390105
-13933.845000	-15350.715000	13643.460000	39804.165000	14739.705000	565.920000	-26325.630000	-39296.655000	4.504576	6.376583	6.549285	5.743536	0.996113	-14.115531	-2.234109	1.962484	-4.898460	1.861720	8.042020	-0.961362	0.035217	0.261413	-1.000000	-1.000000	-1.000000	-1.000000	-1.000000	-1.000000	-1.000000	51.000000	0.000000	-1.000000	-1.000000	504015.000000	1775792862.390120
-13942.215000	-15354.630000	13641.030000	39801.285000	14727.510000	564.660000	-26331.525000	-39307.905000	2.202901	2.637729	2.428968	1.266352	-2.516648	-12.040974	0.086875	1.299185	-4.898460	1.861720	8.042020	-0.961362	0.035217	0.261413	-1.000000	-1.000000	-1.000000	-1.000000	-1.000000	-1.000000	-1.000000	51.000000	0.000000	-1.000000	-1.000000	504016.000000	1775792862.393298
-13950.540000	-15357.555000	13640.985000	39804.120000	14724.135000	553.860000	-26343.540000	-39318.390000	-1.242155	-1.871682	-2.170375	-3.262307	-5.563430	-5.859620	1.266434	-0.737590	-4.898460	1.861720	8.042020	-0.961362	0.035217	0.261413	-1.000000	-1.000000	-1.000000	-1.000000	-1.000000	-1.000000	-1.000000	51.000000	0.000000	-1.000000	-1.000000	504017.000000	1775792862.393313
-13946.085000	-15356.430000	13642.920000	39806.505000	14721.795000	549.135000	-26343.360000	-39313.350000	-5.096585	-5.764250	-5.475040	-5.768240	-6.711735	0.917139	0.097486	-4.139846	-4.898460	1.861720	8.042020	-0.961362	0.035217	0.261413	-1.000000	-1.000000	-1.000000	-1.000000	-1.000000	-1.000000	-1.000000	51.000000	0.000000	-1.000000	-1.000000	504018.000000	1775792862.398063
-13936.635000	-15351.525000	13647.420000	39812.670000	14727.330000	555.345000	-26334.945000	-39303.315000	-7.024522	-7.363321	-6.160528	-5.155198	-4.843767	5.742038	-1.926202	-6.309309	-4.898460	1.861720	8.042020	-0.961362	0.035217	0.261413	-1.000000	-1.000000	-1.000000	-1.000000	-1.000000	-1.000000	-1.000000	51.000000	0.000000	-1.000000	-1.000000	504019.000000	1775792862.398097
-13932.540000	-15344.010000	13655.970000	39821.400000	14739.030000	554.715000	-26333.820000	-39298.815000	-5.191881	-5.775995	-4.093266	-2.010600	-0.062626	8.304199	-2.176153	-4.735394	-4.898460	1.861720	8.042020	-0.961362	0.035217	0.261413	-1.000000	-1.000000	-1.000000	-1.000000	-1.000000	-1.000000	-1.000000	51.000000	0.000000	-1.000000	-1.000000	504020.000000	1775792862.472493
-13938.300000	-15343.965000	13655.655000	39817.890000	14735.745000	550.080000	-26339.040000	-39304.350000	-0.723281	-1.818670	-0.477270	1.770586	5.807139	8.977101	-0.130182	-0.226579	-4.898460	1.861720	8.042020	-0.961362	0.035217	0.261413	-1.000000	-1.000000	-1.000000	-1.000000	-1.000000	-1.000000	-1.000000	51.000000	0.000000	-1.000000	-1.000000	504021.000000	1775792862.472517
-13941.585000	-15347.205000	13650.885000	39812.625000	14737.185000	555.660000	-26335.845000	-39306.600000	2.999090	2.111893	2.471074	3.745195	9.626825	7.729483	2.267712	3.697470	-4.898460	1.861720	8.042020	-0.961362	0.035217	0.261413	-1.000000	-1.000000	-1.000000	-1.000000	-1.000000	-1.000000	-1.000000	51.000000	0.000000	-1.000000	-1.000000	504022.000000	1775792862.472609
-13938.030000	-15355.440000	13639.095000	39802.770000	14733.585000	566.190000	-26324.280000	-39297.645000	3.707581	3.565712	2.698008	2.405838	9.056314	5.203127	3.467130	4.599901	-4.898460	1.861720	8.042020	-0.961362	0.035217	0.261413	-1.000000	-1.000000	-1.000000	-1.000000	-1.000000	-1.000000	-1.000000	51.000000	0.000000	-1.000000	-1.000000	504023.000000	1775792862.472628
-13938.975000	-15358.365000	13637.655000	39801.330000	14736.195000	558.630000	-26327.160000	-39299.805000	2.028874	1.895436	0.014300	-1.418732	4.523313	2.561405	3.544487	3.063660	-2.853620	1.159760	6.546540	-0.963315	0.028381	0.261718	-1.000000	-1.000000	-1.000000	-1.000000	-1.000000	-1.000000	-1.000000	51.000000	0.000000	-1.000000	-1.000000	504024.000000	1775792862.472650
-13943.295000	-15362.325000	13634.100000	39798.855000	14741.280000	539.145000	-26331.390000	-39303.765000	-0.172116	-1.287511	-3.419697	-4.979324	-1.180504	-0.390475	2.584931	0.726495	-2.853620	1.159760	6.546540	-0.963315	0.028381	0.261718	-1.000000	-1.000000	-1.000000	-1.000000	-1.000000	-1.000000	-1.000000	51.000000	0.000000	-1.000000	-1.000000	504025.000000	1775792862.472660
-13936.230000	-15355.890000	13640.625000	39807.270000	14754.510000	540.045000	-26326.215000	-39298.500000	-1.610525	-3.397719	-4.758790	-5.606029	-4.829080	-4.424405	0.407766	-1.427099	-2.853620	1.159760	6.546540	-0.963315	0.028381	0.261718	-1.000000	-1.000000	-1.000000	-1.000000	-1.000000	-1.000000	-1.000000	51.000000	0.000000	-1.000000	-1.000000	504026.000000	1775792862.472673
-13934.340000	-15351.165000	13646.610000	39812.805000	14744.160000	560.385000	-26329.095000	-39298.095000	-1.622897	-2.670224	-2.629250	-2.496165	-5.104767	-7.728935	-2.172134	-2.624995	-2.853620	1.159760	6.546540	-0.963315	0.028381	0.261718	-1.000000	-1.000000	-1.000000	-1.000000	-1.000000	-1.000000	-1.000000	51.000000	0.000000	-1.000000	-1.000000	504027.000000	1775792862.472682
-13919.580000	-15336.045000	13663.305000	39831.030000	14740.155000	571.455000	-26321.040000	-39282.120000	-0.088182	0.816659	2.187396	2.988770	-3.662206	-6.739575	-3.733111	-2.168906	-2.853620	1.159760	6.546540	-0.963315	0.028381	0.261718	-1.000000	-1.000000	-1.000000	-1.000000	-1.000000	-1.000000	-1.000000	51.000000	0.000000	-1.000000	-1.000000	504028.000000	1775792862.472694
-13923.180000	-15340.770000	13655.655000	39823.335000	14740.200000	566.280000	-26319.330000	-39284.955000	2.206859	5.098192	7.133685	8.011533	-2.818499	-1.218340	-3.445641	-0.150656	-2.853620	1.159760	6.546540	-0.963315	0.028381	0.261718	-1.000000	-1.000000	-1.000000	-1.000000	-1.000000	-1.000000	-1.000000	51.000000	0.000000	-1.000000	-1.000000	504029.000000	1775792862.472704
-13928.535000	-15345.945000	13650.570000	39818.385000	14739.390000	566.505000	-26319.015000	-39289.320000	3.424538	7.090449	8.797842	9.256560	-2.811131	4.457519	-1.673411	1.862241	-2.853620	1.159760	6.546540	-0.963315	0.028381	0.261718	-1.000000	-1.000000	-1.000000	-1.000000	-1.000000	-1.000000	-1.000000	51.000000	0.000000	-1.000000	-1.000000	504030.000000	1775792862.472715
-13936.950000	-15352.335000	13644.405000	39808.440000	14726.610000	554.445000	-26329.365000	-39299.940000	1.865400	4.745665	5.348575	5.109127	-2.685769	5.855150	0.045993	1.704244	-2.853620	1.159760	6.546540	-0.963315	0.028381	0.261718	-1.000000	-1.000000	-1.000000	-1.000000	-1.000000	-1.000000	-1.000000	51.000000	0.000000	-1.000000	-1.000000	504031.000000	1775792862.472725
-13941.990000	-15356.025000	13641.255000	39803.085000	14719.095000	540.360000	-26328.825000	-39304.035000	-2.098089	-0.877913	-1.430195	-2.482283	-2.250922	2.095147	0.274587	-1.087778	-2.853620	1.159760	6.546540	-0.963315	0.028381	0.261718	-1.000000	-1.000000	-1.000000	-1.000000	-1.000000	-1.000000	-1.000000	51.000000	0.000000	-1.000000	-1.000000	504032.000000	1775792862.472736
-13937.895000	-15351.795000	13646.025000	39811.860000	14734.980000	541.620000	-26321.310000	-39300.165000	-5.863969	-6.252729	-7.376482	-8.993375	-1.320714	-4.130328	-0.599969	-4.401035	-2.853620	1.159760	6.546540	-0.963315	0.028381	0.261718	-1.000000	-1.000000	-1.000000	-1.000000	-1.000000	-1.000000	-1.000000	51.000000	0.000000	-1.000000	-1.000000	504033.000000	1775792862.472745
-13942.620000	-15355.125000	13644.225000	39812.985000	14742.450000	539.010000	-26320.320000	-39303.495000	-6.686166	-8.129869	-9.095432	-10.392678	1.236032	-8.358733	-0.794990	-5.383610	1.251320	3.372460	4.623780	-0.962339	0.022827	0.260436	-1.000000	-1.000000	-1.000000	-1.000000	-1.000000	-1.000000	-1.000000	51.000000	0.000000	-1.000000	-1.000000	504034.000000	1775792862.472756
-13934.745000	-15352.785000	13643.100000	39807.810000	14739.840000	543.510000	-26323.470000	-39294.405000	-3.901234	-5.861367	-6.271040	-6.292918	5.315086	-7.536757	0.366665	-2.993263	1.251320	3.372460	4.623780	-0.962339	0.022827	0.260436	-1.000000	-1.000000	-1.000000	-1.000000	-1.000000	-1.000000	-1.000000	51.000000	0.000000	-1.000000	-1.000000	504035.000000	1775792862.472765
-13924.080000	-15344.280000	13650.930000	39816.270000	14753.250000	569.430000	-26320.905000	-39283.740000	1.140071	-1.132559	-1.164425	0.092174	8.469023	-1.726762	1.766171	1.691869	1.251320	3.372460	4.623780	-0.962339	0.022827	0.260436	-1.000000	-1.000000	-1.000000	-1.000000	-1.000000	-1.000000	-1.000000	51.000000	0.000000	-1.000000	-1.000000	504036.000000	1775792862.472776
-13933.845000	-15355.395000	13638.915000	39804.795000	14741.595000	577.080000	-26322.255000	-39292.740000	6.059130	3.568439	3.453843	5.101494	8.382070	6.650951	2.255429	6.312904	1.251320	3.372460	4.623780	-0.962339	0.022827	0.260436	-1.000000	-1.000000	-1.000000	-1.000000	-1.000000	-1.000000	-1.000000	51.000000	0.000000	-1.000000	-1.000000	504037.000000	1775792862.472785
-13934.295000	-15352.875000	13642.335000	39808.395000	14740.110000	557.505000	-26322.840000	-39294.855000	8.027972	5.853670	5.484143	6.685723	4.495514	12.943125	1.657330	7.933700	1.251320	3.372460	4.623780	-0.962339	0.022827	0.260436	-1.000000	-1.000000	-1.000000	-1.000000	-1.000000	-1.000000	-1.000000	51.000000	0.000000	-1.000000	-1.000000	504038.000000	1775792862.472796
-13933.395000	-15349.365000	13647.240000	39814.335000	14737.545000	527.130000	-26325.000000	-39295.890000	5.848485	4.993863	4.673698	5.144215	-1.749783	11.679773	0.394511	5.273833	1.251320	3.372460	4.623780	-0.962339	0.022827	0.260436	-1.000000	-1.000000	-1.000000	-1.000000	-1.000000	-1.000000	-1.000000	51.000000	0.000000	-1.000000	-1.000000	504039.000000	1775792862.472805
-13941.135000	-15355.755000	13640.490000	39805.605000	14714.685000	485.595000	-26334.990000	-39305.250000	1.156764	2.377493	2.555584	2.416629	-7.666104	1.172405	-1.078999	0.023320	1.251320	3.372460	4.623780	-0.962339	0.022827	0.260436	-1.000000	-1.000000	-1.000000	-1.000000	-1.000000	-1.000000	-1.000000	51.000000	0.000000	-1.000000	-1.000000	504040.000000	1775792862.472816
-13949.865000	-15364.305000	13633.380000	39797.820000	14701.365000	472.185000	-26339.580000	-39315.870000	-3.572763	-0.545214	0.268401	-0.292039	-11.411857	-13.499787	-2.509949	-5.095269	1.251320	3.372460	4.623780	-0.962339	0.022827	0.260436	-1.000000	-1.000000	-1.000000	-1.000000	-1.000000	-1.000000	-1.000000	51.000000	0.000000	-1.000000	-1.000000	504041.000000	1775792862.472826
-13950.630000	-15365.430000	13632.435000	39797.010000	14709.960000	517.005000	-26336.655000	-39317.220000	-6.605226	-3.082607	-1.916271	-2.749903	-11.815871	-21.989298	-3.309870	-8.060636	1.251320	3.372460	4.623780	-0.962339	0.022827	0.260436	-1.000000	-1.000000	-1.000000	-1.000000	-1.000000	-1.000000	-1.000000	51.000000	0.000000	-1.000000	-1.000000	504042.000000	1775792862.472837
-13942.800000	-15357.015000	13639.995000	39803.805000	14718.870000	554.805000	-26331.975000	-39309.570000	-6.666601	-4.206876	-3.188336	-4.062937	-7.397183	-15.167180	-2.420051	-7.484617	1.251320	3.372460	4.623780	-0.962339	0.022827	0.260436	-1.000000	-1.000000	-1.000000	-1.000000	-1.000000	-1.000000	-1.000000	51.000000	0.000000	-1.000000	-1.000000	504043.000000	1775792862.472846
-13936.320000	-15348.960000	13648.185000	39811.545000	14728.770000	582.345000	-26326.125000	-39303.315000	-3.256420	-2.722629	-2.323617	-2.954736	1.528562	5.749646	0.481733	-3.028409	3.876040	3.235120	3.677660	-0.960203	0.022522	0.259033	-1.000000	-1.000000	-1.000000	-1.000000	-1.000000	-1.000000	-1.000000	51.000000	0.000000	-1.000000	-1.000000	504044.000000	1775792862.472858
-13940.055000	-15355.170000	13641.885000	39807.360000	14734.800000	589.185000	-26320.455000	-39303.450000	2.112661	0.866946	0.462201	0.292278	11.235376	27.732503	4.179131	3.455406	3.876040	3.235120	3.677660	-0.960203	0.022522	0.259033	-1.000000	-1.000000	-1.000000	-1.000000	-1.000000	-1.000000	-1.000000	51.000000	0.000000	-1.000000	-1.000000	504045.000000	1775792862.472866
-13947.795000	-15364.710000	13632.120000	39801.510000	14740.110000	584.325000	-26318.880000	-39310.245000	6.093322	3.766653	2.770780	3.254300	16.796618	35.876664	6.636079	8.308049	3.876040	3.235120	3.677660	-0.960203	0.022522	0.259033	-1.000000	-1.000000	-1.000000	-1.000000	-1.000000	-1.000000	-1.000000	51.000000	0.000000	-1.000000	-1.000000	504046.000000	1775792862.472878
-13950.765000	-15367.770000	13628.520000	39797.775000	14740.425000	584.685000	-26325.630000	-39315.015000	6.090185	3.448026	2.296225	3.525401	15.449125	24.651395	6.179889	8.583432	3.876040	3.235120	3.677660	-0.960203	0.022522	0.259033	-1.000000	-1.000000	-1.000000	-1.000000	-1.000000	-1.000000	-1.000000	51.000000	0.000000	-1.000000	-1.000000	504047.000000	1775792862.472886
-13955.670000	-15371.100000	13626.045000	39795.705000	14738.760000	562.275000	-26342.190000	-39323.475000	2.521220	0.345246	-0.546873	1.091485	7.982274	0.569432	2.248050	4.292459	3.876040	3.235120	3.677660	-0.960203	0.022522	0.259033	-1.000000	-1.000000	-1.000000	-1.000000	-1.000000	-1.000000	-1.000000	51.000000	0.000000	-1.000000	-1.000000	504048.000000	1775792862.472898
-13959.720000	-15373.440000	13625.775000	39796.110000	14731.920000	554.130000	-26341.650000	-39329.280000	-1.947952	-2.903705	-3.227200	-1.941565	-2.207023	-23.931799	-3.863454	-1.880839	3.876040	3.235120	3.677660	-0.960203	0.022522	0.259033	-1.000000	-1.000000	-1.000000	-1.000000	-1.000000	-1.000000	-1.000000	51.000000	0.000000	-1.000000	-1.000000	504049.000000	1775792862.472907
-13958.415000	-15373.755000	13625.910000	39796.020000	14721.435000	549.810000	-26339.760000	-39326.490000	-4.675766	-4.070821	-3.668460	-3.403617	-11.169915	-37.864617	-8.747577	-6.475794	3.876040	3.235120	3.677660	-0.960203	0.022522	0.259033	-1.000000	-1.000000	-1.000000	-1.000000	-1.000000	-1.000000	-1.000000	51.000000	0.000000	-1.000000	-1.000000	504050.000000	1775792862.472918
-13955.175000	-15370.605000	13627.620000	39795.480000	14714.640000	548.325000	-26335.980000	-39321.810000	-4.359654	-2.624680	-1.670677	-2.621364	-16.039744	-36.094610	-9.066914	-7.026808	3.876040	3.235120	3.677660	-0.960203	0.022522	0.259033	-1.000000	-1.000000	-1.000000	-1.000000	-1.000000	-1.000000	-1.000000	51.000000	0.000000	-1.000000	-1.000000	504051.000000	1775792862.472927
-13958.415000	-15370.920000	13626.900000	39793.635000	14713.920000	554.625000	-26331.480000	-39321.855000	-1.505775	0.459375	1.406062	-0.510261	-15.499724	-20.893913	-4.482952	-3.475930	3.876040	3.235120	3.677660	-0.960203	0.022522	0.259033	-1.000000	-1.000000	-1.000000	-1.000000	-1.000000	-1.000000	-1.000000	51.000000	0.000000	-1.000000	-1.000000	504052.000000	1775792862.472938
-13954.995000	-15367.365000	13629.825000	39794.085000	14711.670000	543.195000	-26332.785000	-39319.020000	1.933284	3.453909	3.806878	1.470640	-9.901667	-0.143224	2.162561	1.722980	3.876040	3.235120	3.677660	-0.960203	0.022522	0.259033	-1.000000	-1.000000	-1.000000	-1.000000	-1.000000	-1.000000	-1.000000	51.000000	0.000000	-1.000000	-1.000000	504053.000000	1775792862.472947
-13926.105000	-15339.780000	13655.205000	39816.630000	14743.710000	556.020000	-26333.145000	-39298.365000	4.588865	5.391556	4.934206	2.820576	-0.880494	17.119323	7.058783	5.865017	4.928980	1.495480	3.357200	-0.957883	0.025940	0.259033	-1.000000	-1.000000	-1.000000	-1.000000	-1.000000	-1.000000	-1.000000	51.000000	0.000000	-1.000000	-1.000000	504054.000000	1775792862.473091
-13916.610000	-15327.495000	13665.870000	39828.060000	14763.555000	557.325000	-26329.095000	-39287.295000	6.709437	6.726473	5.638017	4.304131	9.528607	25.507259	8.017354	8.024907	4.928980	1.495480	3.357200	-0.957883	0.025940	0.259033	-1.000000	-1.000000	-1.000000	-1.000000	-1.000000	-1.000000	-1.000000	51.000000	0.000000	-1.000000	-1.000000	504055.000000	1775792862.473105
-13933.125000	-15340.770000	13656.330000	39822.165000	14751.495000	562.860000	-26329.185000	-39303.315000	7.520205	6.979918	5.760443	5.706478	17.747849	24.648292	5.537890	7.688325	4.928980	1.495480	3.357200	-0.957883	0.025940	0.259033	-1.000000	-1.000000	-1.000000	-1.000000	-1.000000	-1.000000	-1.000000	51.000000	0.000000	-1.000000	-1.000000	504056.000000	1775792862.473122
-13945.140000	-15356.115000	13641.165000	39804.660000	14720.580000	567.900000	-26330.940000	-39314.970000	4.258403	3.607976	3.003963	4.537485	18.094891	17.209632	1.547442	3.438631	4.928980	1.495480	3.357200	-0.957883	0.025940	0.259033	-1.000000	-1.000000	-1.000000	-1.000000	-1.000000	-1.000000	-1.000000	51.000000	0.000000	-1.000000	-1.000000	504057.000000	1775792862.473128
-13937.400000	-15355.305000	13640.175000	39801.960000	14707.260000	572.445000	-26324.865000	-39304.305000	-3.328589	-4.061130	-3.560372	-0.851608	7.779202	7.027641	-2.084506	-4.093436	4.928980	1.495480	3.357200	-0.957883	0.025940	0.259033	-1.000000	-1.000000	-1.000000	-1.000000	-1.000000	-1.000000	-1.000000	51.000000	0.000000	-1.000000	-1.000000	504058.000000	1775792862.479708
-13918.230000	-15340.095000	13654.845000	39819.915000	14723.910000	560.295000	-26310.330000	-39281.490000	-10.301315	-11.696876	-10.393776	-7.613328	-7.641808	-2.611352	-3.764865	-10.052859	4.928980	1.495480	3.357200	-0.957883	0.025940	0.259033	-1.000000	-1.000000	-1.000000	-1.000000	-1.000000	-1.000000	-1.000000	51.000000	0.000000	-1.000000	-1.000000	504059.000000	1775792862.479733
-13910.940000	-15330.915000	13666.365000	39833.550000	14743.800000	533.475000	-26313.390000	-39275.505000	-11.109121	-13.424010	-12.097847	-10.144076	-17.248566	-10.443897	-2.857360	-9.614205	4.928980	1.495480	3.357200	-0.957883	0.025940	0.259033	-1.000000	-1.000000	-1.000000	-1.000000	-1.000000	-1.000000	-1.000000	51.000000	0.000000	-1.000000	-1.000000	504060.000000	1775792862.492175
-13910.130000	-15324.210000	13675.320000	39843.855000	14759.460000	543.555000	-26319.465000	-39276.945000	-5.542146	-7.768213	-6.890975	-5.942556	-14.427981	-15.895325	-0.910314	-3.575618	4.928980	1.495480	3.357200	-0.957883	0.025940	0.259033	-1.000000	-1.000000	-1.000000	-1.000000	-1.000000	-1.000000	-1.000000	51.000000	0.000000	-1.000000	-1.000000	504061.000000	1775792862.492199
-13923.405000	-15333.660000	13667.580000	39836.070000	14765.985000	574.515000	-26320.365000	-39291.165000	1.305394	0.985572	1.483091	1.603340	-2.397593	-16.200352	-0.340700	2.403924	4.928980	1.495480	3.357200	-0.957883	0.025940	0.259033	-1.000000	-1.000000	-1.000000	-1.000000	-1.000000	-1.000000	-1.000000	51.000000	0.000000	-1.000000	-1.000000	504062.000000	1775792862.492225
-13927.005000	-15338.835000	13662.360000	39829.905000	14757.525000	571.725000	-26320.590000	-39294.315000	4.202197	6.754767	7.069841	6.447982	9.405250	-8.846303	-1.599199	3.588623	4.928980	1.495480	3.357200	-0.957883	0.025940	0.259033	-1.000000	-1.000000	-1.000000	-1.000000	-1.000000	-1.000000	-1.000000	51.000000	0.000000	-1.000000	-1.000000	504063.000000	1775792862.492236
-13927.770000	-15349.185000	13647.960000	39817.755000	14744.430000	564.165000	-26314.335000	-39288.690000	2.275583	6.514217	6.510384	5.177164	12.880239	2.624743	-2.948416	0.366057	2.975700	0.900340	4.425400	-0.953184	0.032959	0.258300	-1.000000	-1.000000	-1.000000	-1.000000	-1.000000	-1.000000	-1.000000	51.000000	0.000000	-1.000000	-1.000000	504064.000000	1775792862.492248
-13929.120000	-15351.840000	13644.810000	39816.990000	14742.720000	554.130000	-26310.375000	-39288.915000	-1.292107	1.875588	1.104270	-0.619486	6.672245	10.403507	-2.559554	-3.081774	2.975700	0.900340	4.425400	-0.953184	0.032959	0.258300	-1.000000	-1.000000	-1.000000	-1.000000	-1.000000	-1.000000	-1.000000	51.000000	0.000000	-1.000000	-1.000000	504065.000000	1775792862.492258
-13925.745000	-15348.645000	13647.330000	39818.925000	14748.570000	565.335000	-26307.360000	-39284.460000	-2.997402	-2.927160	-4.643376	-6.149228	-3.595069	10.394058	-0.244503	-3.460492	2.975700	0.900340	4.425400	-0.953184	0.032959	0.258300	-1.000000	-1.000000	-1.000000	-1.000000	-1.000000	-1.000000	-1.000000	51.000000	0.000000	-1.000000	-1.000000	504066.000000	1775792862.494166
-13931.280000	-15352.920000	13643.370000	39810.870000	14745.375000	576.720000	-26313.030000	-39290.220000	-1.748888	-4.402448	-6.529801	-7.485475	-10.477225	5.412945	2.385698	-0.875711	2.975700	0.900340	4.425400	-0.953184	0.032959	0.258300	-1.000000	-1.000000	-1.000000	-1.000000	-1.000000	-1.000000	-1.000000	51.000000	0.000000	-1.000000	-1.000000	504067.000000	1775792862.494193
-13922.145000	-15340.995000	13656.780000	39823.740000	14750.010000	562.185000	-26306.685000	-39283.515000	1.230599	-1.956788	-3.515274	-4.179290	-10.493639	0.443340	3.470361	2.415202	2.975700	0.900340	4.425400	-0.953184	0.032959	0.258300	-1.000000	-1.000000	-1.000000	-1.000000	-1.000000	-1.000000	-1.000000	51.000000	0.000000	-1.000000	-1.000000	504068.000000	1775792862.499596
-13914.540000	-15331.005000	13667.265000	39834.810000	14759.010000	557.505000	-26304.390000	-39279.420000	4.293789	2.794949	2.598838	1.889396	-4.995216	-2.769881	2.727957	4.563984	2.975700	0.900340	4.425400	-0.953184	0.032959	0.258300	-1.000000	-1.000000	-1.000000	-1.000000	-1.000000	-1.000000	-1.000000	51.000000	0.000000	-1.000000	-1.000000	504069.000000	1775792862.499626
-13921.695000	-15336.270000	13662.720000	39829.185000	14754.015000	556.380000	-26312.040000	-39288.420000	6.176861	7.251103	8.534276	7.917987	2.284272	-4.814387	1.081193	4.902891	2.975700	0.900340	4.425400	-0.953184	0.032959	0.258300	-1.000000	-1.000000	-1.000000	-1.000000	-1.000000	-1.000000	-1.000000	51.000000	0.000000	-1.000000	-1.000000	504070.000000	1775792862.501765
-13930.155000	-15341.580000	13657.725000	39825.360000	14760.630000	586.665000	-26309.340000	-39292.425000	5.469371	8.416370	10.571704	10.493511	7.435772	-4.966953	-0.786967	3.140408	2.975700	0.900340	4.425400	-0.953184	0.032959	0.258300	-1.000000	-1.000000	-1.000000	-1.000000	-1.000000	-1.000000	-1.000000	51.000000	0.000000	-1.000000	-1.000000	504071.000000	1775792862.501787
-13935.420000	-15347.475000	13650.705000	39819.060000	14752.485000	577.620000	-26304.300000	-39294.720000	1.672900	4.895688	6.957666	7.724415	8.301335	-1.893671	-2.163354	-0.204294	2.975700	0.900340	4.425400	-0.953184	0.032959	0.258300	-1.000000	-1.000000	-1.000000	-1.000000	-1.000000	-1.000000	-1.000000	51.000000	0.000000	-1.000000	-1.000000	504072.000000	1775792862.505680
-13946.940000	-15356.925000	13642.335000	39809.160000	14731.830000	534.285000	-26311.455000	-39308.670000	-3.547055	-1.615250	-0.470290	1.044200	4.848570	1.939870	-2.289458	-3.553352	2.975700	0.900340	4.425400	-0.953184	0.032959	0.258300	-1.000000	-1.000000	-1.000000	-1.000000	-1.000000	-1.000000	-1.000000	51.000000	0.000000	-1.000000	-1.000000	504073.000000	1775792862.505697
-13944.195000	-15358.365000	13639.500000	39805.470000	14726.880000	524.340000	-26315.775000	-39307.590000	-7.363477	-7.602868	-7.676642	-5.974800	-1.422166	1.343759	-1.548386	-5.464193	-0.671440	-0.778260	4.669560	-0.953977	0.039307	0.257995	-1.000000	-1.000000	-1.000000	-1.000000	-1.000000	-1.000000	-1.000000	51.000000	0.000000	-1.000000	-1.000000	504074.000000	1775792862.512637
-13939.020000	-15357.465000	13641.120000	39811.410000	14737.770000	544.635000	-26318.205000	-39299.805000	-7.429317	-9.909613	-10.945848	-9.690298	-6.956042	-3.496944	-0.956034	-4.883639	-0.671440	-0.778260	4.669560	-0.953977	0.039307	0.257995	-1.000000	-1.000000	-1.000000	-1.000000	-1.000000	-1.000000	-1.000000	51.000000	0.000000	-1.000000	-1.000000	504075.000000	1775792862.512662
-13932.315000	-15351.120000	13648.275000	39819.825000	14742.000000	566.460000	-26317.890000	-39294.765000	-3.232673	-7.310463	-8.712206	-8.044290	-7.620789	-5.631671	-0.669674	-1.343690	-0.671440	-0.778260	4.669560	-0.953977	0.039307	0.257995	-1.000000	-1.000000	-1.000000	-1.000000	-1.000000	-1.000000	-1.000000	51.000000	0.000000	-1.000000	-1.000000	504076.000000	1775792862.522332
-13934.430000	-15349.770000	13648.860000	39817.260000	14730.030000	551.790000	-26316.495000	-39298.815000	3.057300	-1.189537	-2.320387	-2.042829	-2.974037	-0.788946	-0.081199	3.669264	-0.671440	-0.778260	4.669560	-0.953977	0.039307	0.257995	-1.000000	-1.000000	-1.000000	-1.000000	-1.000000	-1.000000	-1.000000	51.000000	0.000000	-1.000000	-1.000000	504077.000000	1775792862.522356
-13932.000000	-15346.575000	13650.480000	39815.145000	14727.690000	555.435000	-26314.560000	-39296.025000	7.771615	5.215149	4.669860	4.436272	2.915837	6.913961	1.151857	7.108568	-0.671440	-0.778260	4.669560	-0.953977	0.039307	0.257995	-1.000000	-1.000000	-1.000000	-1.000000	-1.000000	-1.000000	-1.000000	51.000000	0.000000	-1.000000	-1.000000	504078.000000	1775792862.522380
-13927.320000	-15341.220000	13656.870000	39823.335000	14741.370000	577.305000	-26309.700000	-39290.130000	8.549318	8.870190	8.809714	7.707105	6.236263	11.218724	2.688960	7.141489	-0.671440	-0.778260	4.669560	-0.953977	0.039307	0.257995	-1.000000	-1.000000	-1.000000	-1.000000	-1.000000	-1.000000	-1.000000	51.000000	0.000000	-1.000000	-1.000000	504079.000000	1775792862.522390
-13908.870000	-15326.055000	13669.920000	39836.655000	14753.295000	586.215000	-26306.415000	-39272.040000	6.066106	8.894513	9.071821	7.275869	6.924966	10.690962	3.839838	4.753740	-0.671440	-0.778260	4.669560	-0.953977	0.039307	0.257995	-1.000000	-1.000000	-1.000000	-1.000000	-1.000000	-1.000000	-1.000000	51.000000	0.000000	-1.000000	-1.000000	504080.000000	1775792862.522403
-13893.570000	-15309.045000	13687.335000	39854.835000	14764.140000	579.420000	-26300.025000	-39256.470000	2.986230	6.682439	6.910042	5.280633	6.637521	6.851232	4.040177	2.402642	-0.671440	-0.778260	4.669560	-0.953977	0.039307	0.257995	-1.000000	-1.000000	-1.000000	-1.000000	-1.000000	-1.000000	-1.000000	51.000000	0.000000	-1.000000	-1.000000	504081.000000	1775792862.522412
-13895.955000	-15307.875000	13692.420000	39863.340000	14761.935000	543.780000	-26302.725000	-39261.060000	0.934897	3.874481	4.156296	3.594560	5.629252	0.065654	3.025034	1.134623	-0.671440	-0.778260	4.669560	-0.953977	0.039307	0.257995	-1.000000	-1.000000	-1.000000	-1.000000	-1.000000	-1.000000	-1.000000	51.000000	0.000000	-1.000000	-1.000000	504082.000000	1775792862.592288
-13906.890000	-15323.895000	13675.275000	39847.545000	14746.185000	512.640000	-26303.805000	-39268.980000	-1.219236	0.250100	0.810604	1.698599	2.526703	-9.756695	0.770092	-0.619861	-0.671440	-0.778260	4.669560	-0.953977	0.039307	0.257995	-1.000000	-1.000000	-1.000000	-1.000000	-1.000000	-1.000000	-1.000000	51.000000	0.000000	-1.000000	-1.000000	504083.000000	1775792862.592313
-13915.080000	-15334.830000	13657.230000	39819.780000	14735.880000	523.935000	-26301.735000	-39274.065000	-5.188851	-5.313865	-4.539879	-2.737789	-3.497388	-19.256618	-2.180483	-4.480655	-2.807840	-1.464960	4.379620	-0.958372	0.042786	0.256530	-1.000000	-1.000000	-1.000000	-1.000000	-1.000000	-1.000000	-1.000000	51.000000	0.000000	-1.000000	-1.000000	504084.000000	1775792862.592339
-13916.835000	-15333.525000	13658.715000	39820.770000	14758.425000	572.040000	-26299.890000	-39277.170000	-10.056920	-11.602951	-11.306101	-10.032850	-9.976620	-20.655747	-4.506733	-9.246724	-2.807840	-1.464960	4.379620	-0.958372	0.042786	0.256530	-1.000000	-1.000000	-1.000000	-1.000000	-1.000000	-1.000000	-1.000000	51.000000	0.000000	-1.000000	-1.000000	504085.000000	1775792862.592349
-13926.105000	-15336.045000	13664.610000	39836.160000	14781.735000	607.320000	-26308.170000	-39291.660000	-12.701503	-14.758643	-15.324942	-15.578059	-11.621756	-8.361960	-5.196543	-12.016897	-2.807840	-1.464960	4.379620	-0.958372	0.042786	0.256530	-1.000000	-1.000000	-1.000000	-1.000000	-1.000000	-1.000000	-1.000000	51.000000	0.000000	-1.000000	-1.000000	504086.000000	1775792862.592421
-13954.365000	-15359.400000	13643.820000	39816.180000	14758.695000	601.155000	-26320.950000	-39320.100000	-11.439146	-12.462841	-13.057193	-14.077637	-6.347993	12.457442	-4.696858	-11.533854	-2.807840	-1.464960	4.379620	-0.958372	0.042786	0.256530	-1.000000	-1.000000	-1.000000	-1.000000	-1.000000	-1.000000	-1.000000	51.000000	0.000000	-1.000000	-1.000000	504087.000000	1775792862.592434
-13983.480000	-15388.065000	13612.320000	39780.630000	14715.855000	555.570000	-26333.505000	-39349.980000	-7.882980	-6.896438	-6.409960	-6.748136	0.249626	26.852948	-4.196774	-9.118698	-2.807840	-1.464960	4.379620	-0.958372	0.042786	0.256530	-1.000000	-1.000000	-1.000000	-1.000000	-1.000000	-1.000000	-1.000000	51.000000	0.000000	-1.000000	-1.000000	504088.000000	1775792862.592452
-13969.395000	-15379.920000	13616.685000	39781.935000	14706.360000	531.045000	-26337.600000	-39337.920000	-3.790624	-1.501689	-0.132005	0.420629	0.959973	22.661288	-3.893157	-5.691780	-2.807840	-1.464960	4.379620	-0.958372	0.042786	0.256530	-1.000000	-1.000000	-1.000000	-1.000000	-1.000000	-1.000000	-1.000000	51.000000	0.000000	-1.000000	-1.000000	504089.000000	1775792862.592462
-13935.825000	-15355.890000	13638.735000	39806.955000	14742.225000	572.715000	-26310.465000	-39300.030000	2.477452	3.870807	4.717537	5.206846	-2.981578	3.312579	-2.133460	0.913820	-2.807840	-1.464960	4.379620	-0.958372	0.042786	0.256530	-1.000000	-1.000000	-1.000000	-1.000000	-1.000000	-1.000000	-1.000000	51.000000	0.000000	-1.000000	-1.000000	504090.000000	1775792862.592475
-13949.685000	-15373.170000	13621.590000	39795.345000	14742.945000	573.750000	-26309.430000	-39307.455000	12.245175	10.674573	9.901110	9.785711	-3.486588	-14.747668	2.845876	12.089732	-2.807840	-1.464960	4.379620	-0.958372	0.042786	0.256530	-1.000000	-1.000000	-1.000000	-1.000000	-1.000000	-1.000000	-1.000000	51.000000	0.000000	-1.000000	-1.000000	504091.000000	1775792862.592484
-13950.180000	-15370.155000	13625.145000	39797.955000	14736.510000	564.570000	-26313.615000	-39310.830000	20.871175	16.360011	14.232994	13.998875	2.649868	-19.434593	9.278615	22.682456	-2.807840	-1.464960	4.379620	-0.958372	0.042786	0.256530	-1.000000	-1.000000	-1.000000	-1.000000	-1.000000	-1.000000	-1.000000	51.000000	0.000000	-1.000000	-1.000000	504092.000000	1775792862.592496
-13947.570000	-15363.450000	13632.210000	39802.545000	14735.430000	555.975000	-26317.530000	-39311.865000	21.754393	16.873336	14.700528	14.868969	10.051401	-12.705709	12.321482	24.758186	-2.807840	-1.464960	4.379620	-0.958372	0.042786	0.256530	-1.000000	-1.000000	-1.000000	-1.000000	-1.000000	-1.000000	-1.000000	51.000000	0.000000	-1.000000	-1.000000	504093.000000	1775792862.592506
-13940.100000	-15353.415000	13643.055000	39813.030000	14740.470000	549.495000	-26314.650000	-39306.285000	14.025557	12.054831	11.105791	11.395823	12.635606	-3.221190	9.332974	16.310103	-2.548420	-0.991900	3.235120	-0.961423	0.040344	0.257018	-1.000000	-1.000000	-1.000000	-1.000000	-1.000000	-1.000000	-1.000000	51.000000	0.000000	-1.000000	-1.000000	504094.000000	1775792862.592518
-13946.040000	-15358.545000	13638.690000	39810.015000	14735.655000	544.095000	-26316.900000	-39312.405000	2.306767	4.736152	5.459612	5.280615	9.326334	3.057553	2.333349	2.357862	-2.548420	-0.991900	3.235120	-0.961423	0.040344	0.257018	-1.000000	-1.000000	-1.000000	-1.000000	-1.000000	-1.000000	-1.000000	51.000000	0.000000	-1.000000	-1.000000	504095.000000	1775792862.592528
-13951.035000	-15364.080000	13632.075000	39803.355000	14728.230000	545.895000	-26316.765000	-39315.915000	-8.338502	-2.756544	-0.838604	-1.577823	2.552713	5.154404	-4.600497	-10.423461	-2.548420	-0.991900	3.235120	-0.961423	0.040344	0.257018	-1.000000	-1.000000	-1.000000	-1.000000	-1.000000	-1.000000	-1.000000	51.000000	0.000000	-1.000000	-1.000000	504096.000000	1775792862.592540
-13964.040000	-15374.565000	13620.960000	39789.630000	14713.020000	542.655000	-26324.595000	-39329.460000	-15.111468	-9.240803	-7.162855	-8.082951	-4.768279	4.955804	-8.610769	-17.885903	-2.548420	-0.991900	3.235120	-0.961423	0.040344	0.257018	-1.000000	-1.000000	-1.000000	-1.000000	-1.000000	-1.000000	-1.000000	51.000000	0.000000	-1.000000	-1.000000	504097.000000	1775792862.592549
-13964.310000	-15374.430000	13621.005000	39787.830000	14708.205000	531.045000	-26326.575000	-39330.540000	-17.111288	-13.470386	-12.207793	-13.001784	-10.249211	4.106328	-9.128973	-19.023309	-2.548420	-0.991900	3.235120	-0.961423	0.040344	0.257018	-1.000000	-1.000000	-1.000000	-1.000000	-1.000000	-1.000000	-1.000000	51.000000	0.000000	-1.000000	-1.000000	504098.000000	1775792862.592561
-13956.165000	-15367.455000	13628.205000	39795.255000	14712.885000	532.080000	-26319.915000	-39322.530000	-14.130983	-13.736357	-13.672192	-14.260039	-11.806967	2.892396	-6.818933	-14.507613	-2.548420	-0.991900	3.235120	-0.961423	0.040344	0.257018	-1.000000	-1.000000	-1.000000	-1.000000	-1.000000	-1.000000	-1.000000	51.000000	0.000000	-1.000000	-1.000000	504099.000000	1775792862.592571
-13947.705000	-15359.220000	13637.340000	39806.010000	14725.350000	536.670000	-26321.490000	-39315.150000	-6.680170	-9.120270	-9.948615	-10.184037	-8.128077	1.660485	-2.587252	-5.799831	-2.548420	-0.991900	3.235120	-0.961423	0.040344	0.257018	-1.000000	-1.000000	-1.000000	-1.000000	-1.000000	-1.000000	-1.000000	51.000000	0.000000	-1.000000	-1.000000	504100.000000	1775792862.592583
-13938.390000	-15353.685000	13642.515000	39812.130000	14729.985000	529.830000	-26321.490000	-39303.765000	2.940480	-1.118697	-2.186715	-1.762087	-0.238646	1.143080	2.030104	4.371541	-2.548420	-0.991900	3.235120	-0.961423	0.040344	0.257018	-1.000000	-1.000000	-1.000000	-1.000000	-1.000000	-1.000000	-1.000000	51.000000	0.000000	-1.000000	-1.000000	504101.000000	1775792862.592593
-13943.880000	-15356.430000	13639.455000	39809.385000	14723.820000	528.975000	-26319.195000	-39310.065000	10.738115	6.496162	5.710398	6.935376	7.843866	1.124963	5.153121	12.123059	-2.548420	-0.991900	3.235120	-0.961423	0.040344	0.257018	-1.000000	-1.000000	-1.000000	-1.000000	-1.000000	-1.000000	-1.000000	51.000000	0.000000	-1.000000	-1.000000	504102.000000	1775792862.592605
-13955.715000	-15367.365000	13627.620000	39797.280000	14715.045000	546.705000	-26326.080000	-39322.575000	12.851679	9.783301	9.414854	11.107734	11.284566	1.128385	5.741684	13.841083	-2.548420	-0.991900	3.235120	-0.961423	0.040344	0.257018	-1.000000	-1.000000	-1.000000	-1.000000	-1.000000	-1.000000	-1.000000	51.000000	0.000000	-1.000000	-1.000000	504103.000000	1775792862.592615
-13958.505000	-15374.385000	13619.070000	39788.145000	14707.080000	550.305000	-26324.055000	-39322.890000	8.225877	7.190099	7.059364	8.525640	8.109212	1.607415	3.946658	8.660353	-0.183120	0.412020	1.342880	-0.962217	0.034363	0.257140	-1.000000	-1.000000	-1.000000	-1.000000	-1.000000	-1.000000	-1.000000	51.000000	0.000000	-1.000000	-1.000000	504104.000000	1775792862.592627
-13965.615000	-15383.205000	13610.835000	39779.820000	14695.335000	536.310000	-26326.890000	-39329.685000	-0.078990	0.724470	0.598545	1.206790	0.584874	2.180331	0.969997	-0.099024	-0.183120	0.412020	1.342880	-0.962217	0.034363	0.257140	-1.000000	-1.000000	-1.000000	-1.000000	-1.000000	-1.000000	-1.000000	51.000000	0.000000	-1.000000	-1.000000	504105.000000	1775792862.592637
-13963.725000	-15381.180000	13612.275000	39781.890000	14695.200000	524.610000	-26328.285000	-39328.740000	-7.060293	-5.400586	-5.558628	-5.983946	-6.729608	0.757409	-1.614934	-7.299568	-0.183120	0.412020	1.342880	-0.962217	0.034363	0.257140	-1.000000	-1.000000	-1.000000	-1.000000	-1.000000	-1.000000	-1.000000	51.000000	0.000000	-1.000000	-1.000000	504106.000000	1775792862.592649
-13964.130000	-15379.785000	13615.290000	39788.640000	14707.305000	526.635000	-26328.645000	-39328.965000	-9.213116	-7.510717	-7.518514	-8.562374	-9.587971	-3.283825	-2.852577	-9.590274	-0.183120	0.412020	1.342880	-0.962217	0.034363	0.257140	-1.000000	-1.000000	-1.000000	-1.000000	-1.000000	-1.000000	-1.000000	51.000000	0.000000	-1.000000	-1.000000	504107.000000	1775792862.592659
-13957.290000	-15371.820000	13623.615000	39798.045000	14724.180000	545.580000	-26318.880000	-39321.090000	-6.154627	-4.589153	-4.227084	-5.119712	-6.037698	-6.844406	-2.429948	-6.693608	-0.183120	0.412020	1.342880	-0.962217	0.034363	0.257140	-1.000000	-1.000000	-1.000000	-1.000000	-1.000000	-1.000000	-1.000000	51.000000	0.000000	-1.000000	-1.000000	504108.000000	1775792862.592671
-13954.815000	-15369.480000	13625.325000	39796.920000	14727.645000	545.355000	-26319.960000	-39319.605000	-0.144473	1.387221	2.137275	1.878263	2.021305	-6.155935	-0.537676	-0.768733	-0.183120	0.412020	1.342880	-0.962217	0.034363	0.257140	-1.000000	-1.000000	-1.000000	-1.000000	-1.000000	-1.000000	-1.000000	51.000000	0.000000	-1.000000	-1.000000	504109.000000	1775792862.592680
-13945.995000	-15358.410000	13637.565000	39809.160000	14729.490000	547.335000	-26318.295000	-39313.800000	5.587882	7.007757	7.868926	7.976211	9.389553	-1.421278	1.700698	4.960986	-0.183120	0.412020	1.342880	-0.962217	0.034363	0.257140	-1.000000	-1.000000	-1.000000	-1.000000	-1.000000	-1.000000	-1.000000	51.000000	0.000000	-1.000000	-1.000000	504110.000000	1775792862.592692
-13947.435000	-15360.660000	13634.910000	39805.470000	14717.700000	536.310000	-26321.670000	-39314.970000	8.494230	9.506055	10.110321	9.954194	11.056487	3.333922	2.696894	7.823803	-0.183120	0.412020	1.342880	-0.962217	0.034363	0.257140	-1.000000	-1.000000	-1.000000	-1.000000	-1.000000	-1.000000	-1.000000	51.000000	0.000000	-1.000000	-1.000000	504111.000000	1775792862.592702
-13943.295000	-15357.195000	13638.285000	39807.180000	14725.305000	549.720000	-26313.255000	-39308.850000	7.565950	7.822723	7.943732	7.210294	5.963863	4.766306	1.900870	6.936144	-0.183120	0.412020	1.342880	-0.962217	0.034363	0.257140	-1.000000	-1.000000	-1.000000	-1.000000	-1.000000	-1.000000	-1.000000	51.000000	0.000000	-1.000000	-1.000000	504112.000000	1775792862.592713
-13940.640000	-15353.685000	13642.245000	39812.355000	14736.465000	555.525000	-26310.240000	-39306.960000	3.624155	2.928386	2.549961	1.452674	-2.016168	3.295271	0.330451	3.406034	-0.183120	0.412020	1.342880	-0.962217	0.034363	0.257140	-1.000000	-1.000000	-1.000000	-1.000000	-1.000000	-1.000000	-1.000000	51.000000	0.000000	-1.000000	-1.000000	504113.000000	1775792862.592723
-13937.310000	-15349.320000	13647.780000	39820.050000	14741.505000	549.405000	-26310.420000	-39304.755000	-1.171794	-2.613516	-3.283163	-4.127690	-7.393045	1.201831	-0.782837	-0.717834	0.869820	0.915600	-0.579880	-0.961118	0.033203	0.258239	-1.000000	-1.000000	-1.000000	-1.000000	-1.000000	-1.000000	-1.000000	51.000000	0.000000	-1.000000	-1.000000	504114.000000	1775792862.592736
-13931.415000	-15345.180000	13651.110000	39825.135000	14750.370000	553.995000	-26304.840000	-39297.330000	-4.653447	-6.288987	-6.925785	-6.835687	-7.705827	-0.536132	-1.196197	-3.708980	0.869820	0.915600	-0.579880	-0.961118	0.033203	0.258239	-1.000000	-1.000000	-1.000000	-1.000000	-1.000000	-1.000000	-1.000000	51.000000	0.000000	-1.000000	-1.000000	504115.000000	1775792862.592746
-13929.435000	-15343.740000	13651.380000	39823.785000	14747.445000	552.105000	-26306.460000	-39296.070000	-5.733888	-7.086809	-7.514152	-6.295937	-4.513430	-1.914312	-1.228049	-4.701738	0.869820	0.915600	-0.579880	-0.961118	0.033203	0.258239	-1.000000	-1.000000	-1.000000	-1.000000	-1.000000	-1.000000	-1.000000	51.000000	0.000000	-1.000000	-1.000000	504116.000000	1775792862.594248
-13926.060000	-15338.340000	13654.530000	39820.185000	14748.660000	559.350000	-26308.755000	-39294.225000	-4.710277	-5.552704	-5.879845	-4.241583	-1.071565	-2.604601	-1.279417	-3.959413	0.869820	0.915600	-0.579880	-0.961118	0.033203	0.258239	-1.000000	-1.000000	-1.000000	-1.000000	-1.000000	-1.000000	-1.000000	51.000000	0.000000	-1.000000	-1.000000	504117.000000	1775792862.594271
-13930.830000	-15339.825000	13652.775000	39818.655000	14744.430000	569.430000	-26304.795000	-39298.545000	-2.840216	-2.969998	-3.406186	-2.604853	0.337445	-2.046633	-1.561751	-2.633184	0.869820	0.915600	-0.579880	-0.961118	0.033203	0.258239	-1.000000	-1.000000	-1.000000	-1.000000	-1.000000	-1.000000	-1.000000	51.000000	0.000000	-1.000000	-1.000000	504118.000000	1775792862.598118
-13938.705000	-15347.655000	13647.870000	39818.295000	14734.845000	562.995000	-26304.840000	-39306.465000	-1.568190	-0.804368	-1.283622	-1.891981	-0.541710	-0.336009	-1.691346	-1.912253	0.869820	0.915600	-0.579880	-0.961118	0.033203	0.258239	-1.000000	-1.000000	-1.000000	-1.000000	-1.000000	-1.000000	-1.000000	51.000000	0.000000	-1.000000	-1.000000	504119.000000	1775792862.598141
-13929.120000	-15340.770000	13653.630000	39824.730000	14740.155000	561.375000	-26302.455000	-39295.935000	-1.351926	0.043511	-0.055402	-1.248104	-2.401322	1.081959	-1.187336	-1.943418	0.869820	0.915600	-0.579880	-0.961118	0.033203	0.258239	-1.000000	-1.000000	-1.000000	-1.000000	-1.000000	-1.000000	-1.000000	51.000000	0.000000	-1.000000	-1.000000	504120.000000	1775792862.604044
-13916.025000	-15329.790000	13663.935000	39834.495000	14748.030000	573.255000	-26293.590000	-39280.455000	-0.832528	0.333972	0.907181	0.417532	-3.013342	1.053145	0.009003	-1.228691	0.869820	0.915600	-0.579880	-0.961118	0.033203	0.258239	-1.000000	-1.000000	-1.000000	-1.000000	-1.000000	-1.000000	-1.000000	51.000000	0.000000	-1.000000	-1.000000	504121.000000	1775792862.604066
-13905.945000	-15322.365000	13670.820000	39840.435000	14755.770000	585.810000	-26293.680000	-39271.905000	1.544323	1.586085	2.587887	3.221773	-0.790251	0.555413	1.593632	1.639948	0.869820	0.915600	-0.579880	-0.961118	0.033203	0.258239	-1.000000	-1.000000	-1.000000	-1.000000	-1.000000	-1.000000	-1.000000	51.000000	0.000000	-1.000000	-1.000000	504122.000000	1775792862.605400
-13904.280000	-15318.405000	13675.275000	39843.945000	14759.730000	584.865000	-26295.705000	-39273.840000	5.007130	3.772210	4.676897	5.813765	3.435239	0.951641	2.682576	5.405541	0.869820	0.915600	-0.579880	-0.961118	0.033203	0.258239	-1.000000	-1.000000	-1.000000	-1.000000	-1.000000	-1.000000	-1.000000	51.000000	0.000000	-1.000000	-1.000000	504123.000000	1775792862.605417
-13904.730000	-15317.865000	13674.960000	39842.730000	14749.065000	555.120000	-26296.065000	-39274.650000	6.799236	5.126731	5.578066	6.302311	6.700091	1.084906	2.271887	6.876342	0.534100	1.403920	-0.732480	-0.957151	0.033935	0.259887	-1.000000	-1.000000	-1.000000	-1.000000	-1.000000	-1.000000	-1.000000	51.000000	0.000000	-1.000000	-1.000000	504124.000000	1775792862.609195
-13905.135000	-15320.700000	13672.035000	39839.220000	14735.745000	532.395000	-26292.915000	-39272.040000	4.985925	4.038001	3.983431	3.804338	6.048315	-1.800986	0.499661	4.399166	0.534100	1.403920	-0.732480	-0.957151	0.033935	0.259887	-1.000000	-1.000000	-1.000000	-1.000000	-1.000000	-1.000000	-1.000000	51.000000	0.000000	-1.000000	-1.000000	504125.000000	1775792862.609217
-13912.470000	-15327.540000	13667.670000	39840.885000	14755.230000	547.425000	-26292.465000	-39279.510000	0.179706	0.459282	0.102807	-0.712603	1.589124	-7.153559	-1.343456	-0.635579	0.534100	1.403920	-0.732480	-0.957151	0.033935	0.259887	-1.000000	-1.000000	-1.000000	-1.000000	-1.000000	-1.000000	-1.000000	51.000000	0.000000	-1.000000	-1.000000	504126.000000	1775792862.616339
-13913.280000	-15325.020000	13670.325000	39842.190000	14755.590000	554.535000	-26298.270000	-39284.505000	-5.192564	-3.961539	-4.246969	-4.862244	-2.794169	-9.587487	-2.268863	-5.593721	0.534100	1.403920	-0.732480	-0.957151	0.033935	0.259887	-1.000000	-1.000000	-1.000000	-1.000000	-1.000000	-1.000000	-1.000000	51.000000	0.000000	-1.000000	-1.000000	504127.000000	1775792862.616364
-13920.705000	-15334.830000	13657.410000	39824.820000	14738.310000	553.860000	-26299.260000	-39289.005000	-8.544827	-6.898952	-6.909663	-6.818406	-4.106882	-5.126998	-2.360843	-8.421606	0.534100	1.403920	-0.732480	-0.957151	0.033935	0.259887	-1.000000	-1.000000	-1.000000	-1.000000	-1.000000	-1.000000	-1.000000	51.000000	0.000000	-1.000000	-1.000000	504128.000000	1775792862.623125
-13932.495000	-15349.770000	13643.235000	39812.940000	14723.505000	532.845000	-26303.040000	-39296.340000	-8.688169	-7.294733	-7.260671	-6.871367	-3.695491	3.325778	-2.027877	-8.184147	0.534100	1.403920	-0.732480	-0.957151	0.033935	0.259887	-1.000000	-1.000000	-1.000000	-1.000000	-1.000000	-1.000000	-1.000000	51.000000	0.000000	-1.000000	-1.000000	504129.000000	1775792862.623150
-13924.710000	-15341.400000	13651.605000	39821.580000	14721.345000	502.605000	-26301.420000	-39290.355000	-6.007700	-5.573356	-5.813385	-5.747147	-3.813080	8.716771	-1.318451	-5.084831	0.534100	1.403920	-0.732480	-0.957151	0.033935	0.259887	-1.000000	-1.000000	-1.000000	-1.000000	-1.000000	-1.000000	-1.000000	51.000000	0.000000	-1.000000	-1.000000	504130.000000	1775792862.623178
-13920.525000	-15333.660000	13662.405000	39838.005000	14745.735000	517.635000	-26297.145000	-39288.015000	-1.183430	-1.839510	-2.273096	-2.497683	-3.464371	7.353994	-0.027518	-0.034422	0.534100	1.403920	-0.732480	-0.957151	0.033935	0.259887	-1.000000	-1.000000	-1.000000	-1.000000	-1.000000	-1.000000	-1.000000	51.000000	0.000000	-1.000000	-1.000000	504131.000000	1775792862.623190
-13931.325000	-15344.775000	13653.225000	39833.055000	14754.645000	562.185000	-26293.140000	-39293.595000	4.463798	3.424234	3.259058	3.388012	0.053836	3.512061	1.870914	5.261681	0.534100	1.403920	-0.732480	-0.957151	0.033935	0.259887	-1.000000	-1.000000	-1.000000	-1.000000	-1.000000	-1.000000	-1.000000	51.000000	0.000000	-1.000000	-1.000000	504132.000000	1775792862.629287
-13932.225000	-15346.035000	13649.220000	39828.690000	14767.155000	634.320000	-26289.000000	-39291.480000	8.271536	7.673701	8.093122	9.077577	6.482362	5.239079	3.801005	8.471545	0.534100	1.403920	-0.732480	-0.957151	0.033935	0.259887	-1.000000	-1.000000	-1.000000	-1.000000	-1.000000	-1.000000	-1.000000	51.000000	0.000000	-1.000000	-1.000000	504133.000000	1775792862.629311
-13918.590000	-15332.265000	13662.900000	39840.120000	14776.110000	644.130000	-26281.755000	-39278.745000	8.680598	8.724445	9.419094	10.836736	11.886736	14.316194	4.855906	8.574134	0.076300	1.068200	-0.976640	-0.956846	0.034424	0.261474	-1.000000	-1.000000	-1.000000	-1.000000	-1.000000	-1.000000	-1.000000	51.000000	0.000000	-1.000000	-1.000000	504134.000000	1775792862.632242
-13902.210000	-15318.765000	13676.760000	39853.935000	14782.860000	621.405000	-26276.175000	-39265.335000	7.152584	7.437591	7.755183	8.424673	12.485468	21.438320	4.536545	6.859616	0.076300	1.068200	-0.976640	-0.956846	0.034424	0.261474	-1.000000	-1.000000	-1.000000	-1.000000	-1.000000	-1.000000	-1.000000	51.000000	0.000000	-1.000000	-1.000000	504135.000000	1775792862.632265
-13904.910000	-15317.190000	13680.405000	39859.245000	14785.020000	606.060000	-26285.355000	-39271.680000	5.621632	5.670373	5.344271	4.445251	7.488933	14.865190	2.697570	4.736806	0.076300	1.068200	-0.976640	-0.956846	0.034424	0.261474	-1.000000	-1.000000	-1.000000	-1.000000	-1.000000	-1.000000	-1.000000	51.000000	0.000000	-1.000000	-1.000000	504136.000000	1775792862.634264
-13914.045000	-15323.535000	13673.385000	39848.895000	14771.610000	591.570000	-26292.465000	-39282.255000	3.516542	3.350223	2.696957	0.483288	-1.189514	-6.026206	-0.788359	1.649541	0.076300	1.068200	-0.976640	-0.956846	0.034424	0.261474	-1.000000	-1.000000	-1.000000	-1.000000	-1.000000	-1.000000	-1.000000	51.000000	0.000000	-1.000000	-1.000000	504137.000000	1775792862.634284
-13916.790000	-15330.240000	13662.765000	39834.855000	14764.320000	597.285000	-26285.220000	-39281.895000	-0.718950	-0.702116	-1.303211	-3.966170	-10.468997	-29.114476	-4.988500	-3.187430	0.076300	1.068200	-0.976640	-0.956846	0.034424	0.261474	-1.000000	-1.000000	-1.000000	-1.000000	-1.000000	-1.000000	-1.000000	51.000000	0.000000	-1.000000	-1.000000	504138.000000	1775792862.647463
-13922.055000	-15339.105000	13654.575000	39829.860000	14751.945000	587.070000	-26286.390000	-39285.270000	-6.353784	-6.201494	-6.740510	-9.004923	-17.043694	-40.295737	-7.452831	-8.179927	0.076300	1.068200	-0.976640	-0.956846	0.034424	0.261474	-1.000000	-1.000000	-1.000000	-1.000000	-1.000000	-1.000000	-1.000000	51.000000	0.000000	-1.000000	-1.000000	504139.000000	1775792862.647485
-13918.275000	-15336.765000	13656.240000	39831.750000	14743.350000	577.980000	-26290.350000	-39282.480000	-10.431288	-10.760474	-11.327520	-12.404092	-18.360754	-34.254544	-6.589688	-10.419383	0.076300	1.068200	-0.976640	-0.956846	0.034424	0.261474	-1.000000	-1.000000	-1.000000	-1.000000	-1.000000	-1.000000	-1.000000	51.000000	0.000000	-1.000000	-1.000000	504140.000000	1775792862.647512
-13918.320000	-15332.130000	13661.775000	39834.180000	14741.505000	571.230000	-26297.235000	-39286.260000	-10.404541	-11.454948	-11.864954	-11.280006	-13.774385	-16.192682	-3.442566	-8.532436	0.076300	1.068200	-0.976640	-0.956846	0.034424	0.261474	-1.000000	-1.000000	-1.000000	-1.000000	-1.000000	-1.000000	-1.000000	51.000000	0.000000	-1.000000	-1.000000	504141.000000	1775792862.647523
-13916.970000	-15326.280000	13666.590000	39834.495000	14743.530000	568.260000	-26300.025000	-39287.385000	-6.176440	-7.147656	-7.083088	-5.266042	-4.690644	4.327625	-0.211475	-3.704212	0.076300	1.068200	-0.976640	-0.956846	0.034424	0.261474	-1.000000	-1.000000	-1.000000	-1.000000	-1.000000	-1.000000	-1.000000	51.000000	0.000000	-1.000000	-1.000000	504142.000000	1775792862.648322
-13918.230000	-15324.660000	13669.110000	39838.905000	14756.355000	571.860000	-26300.385000	-39289.050000	-0.079480	0.249913	0.899169	2.844777	6.106157	19.689381	1.904218	1.518964	0.076300	1.068200	-0.976640	-0.956846	0.034424	0.261474	-1.000000	-1.000000	-1.000000	-1.000000	-1.000000	-1.000000	-1.000000	51.000000	0.000000	-1.000000	-1.000000	504143.000000	1775792862.648336
-13923.855000	-15332.580000	13663.620000	39839.310000	14756.220000	573.525000	-26298.540000	-39292.470000	4.809849	6.769478	7.860371	9.293726	15.205179	26.600687	3.090321	5.023235	-1.113980	0.885080	-0.732480	-0.956541	0.033630	0.262267	-1.000000	-1.000000	-1.000000	-1.000000	-1.000000	-1.000000	-1.000000	51.000000	0.000000	-1.000000	-1.000000	504144.000000	1775792862.651374
-13914.855000	-15333.165000	13660.335000	39834.000000	14741.775000	564.795000	-26286.705000	-39277.260000	6.700409	9.028866	10.277055	11.492500	19.013827	25.164181	4.088527	6.274677	-1.113980	0.885080	-0.732480	-0.956541	0.033630	0.262267	-1.000000	-1.000000	-1.000000	-1.000000	-1.000000	-1.000000	-1.000000	51.000000	0.000000	-1.000000	-1.000000	504145.000000	1775792862.651397
