Channel1	Channel2	Channel3	Channel4	Channel5	Channel6	Channel7	Channel8	FilteredChannel1	FilteredChannel2	FilteredChannel3	FilteredChannel4	FilteredChannel5	FilteredChannel6	FilteredChannel7	FilteredChannel8	GyroX	GyroY	GyroZ	AccX	AccY	AccZ	PPG1	PPG2	rawPPG1	rawPPG2	rawPPG3	Hr	Hrv	Battery	Trigger	PhysicalTrigger	AutoTrigger	NumMeasurements	Timestamp
-14303.025000	-19316.025000	11033.460000	42366.420000	12806.325000	4738.860000	-28380.330000	-21801.735000	4.563641	0.835174	1.322331	0.796902	-4.297677	-1.724745	2.169039	3.410992	-3.006220	4.333840	0.579880	-0.900266	0.036804	0.421874	-1.000000	-1.000000	-1.000000	-1.000000	-1.000000	-1.000000	-1.000000	51.000000	0.000000	-1.000000	-1.000000	335286.000000	1775792524.851319
-14312.610000	-19328.175000	11019.555000	42354.000000	12795.615000	4731.840000	-28386.900000	-21809.430000	0.485462	-2.153558	-0.079566	0.382254	-8.912186	-12.752398	1.322303	0.407927	-3.006220	4.333840	0.579880	-0.900266	0.036804	0.421874	-1.000000	-1.000000	-1.000000	-1.000000	-1.000000	-1.000000	-1.000000	51.000000	0.000000	-1.000000	-1.000000	335287.000000	1775792524.851347
-14285.070000	-19308.015000	11034.540000	42367.005000	12804.165000	4742.145000	-28390.995000	-21790.440000	-3.426439	-4.578999	-1.841092	-0.294513	-8.722398	-16.677244	0.526750	-2.173701	-3.006220	4.333840	0.579880	-0.900266	0.036804	0.421874	-1.000000	-1.000000	-1.000000	-1.000000	-1.000000	-1.000000	-1.000000	51.000000	0.000000	-1.000000	-1.000000	335288.000000	1775792524.851372
-14276.385000	-19286.595000	11056.230000	42385.095000	12813.750000	4741.875000	-28378.800000	-21780.090000	-3.974708	-3.367373	-1.743539	-0.255386	-4.417559	-12.464817	-0.510768	-2.192537	-3.006220	4.333840	0.579880	-0.900266	0.036804	0.421874	-1.000000	-1.000000	-1.000000	-1.000000	-1.000000	-1.000000	-1.000000	51.000000	0.000000	-1.000000	-1.000000	335289.000000	1775792524.851382
-14279.265000	-19289.115000	11053.395000	42380.685000	12800.520000	4682.880000	-28377.630000	-21783.555000	-0.455813	2.221843	1.667668	1.689963	1.609925	-4.610656	-0.987309	0.627364	-3.006220	4.333840	0.579880	-0.900266	0.036804	0.421874	-1.000000	-1.000000	-1.000000	-1.000000	-1.000000	-1.000000	-1.000000	51.000000	0.000000	-1.000000	-1.000000	335290.000000	1775792524.858444
-14275.665000	-19292.715000	11051.235000	42378.570000	12792.690000	4640.400000	-28385.955000	-21787.920000	3.526394	8.070829	5.846368	3.930920	5.667418	-0.701031	-0.525033	3.353897	-3.006220	4.333840	0.579880	-0.900266	0.036804	0.421874	-1.000000	-1.000000	-1.000000	-1.000000	-1.000000	-1.000000	-1.000000	51.000000	0.000000	-1.000000	-1.000000	335291.000000	1775792524.858473
-14284.890000	-19303.515000	11040.705000	42367.455000	12776.895000	4657.995000	-28396.350000	-21798.855000	4.126014	8.827136	6.428062	3.446702	5.122623	-3.080158	-0.442262	2.775124	-3.006220	4.333840	0.579880	-0.900266	0.036804	0.421874	-1.000000	-1.000000	-1.000000	-1.000000	-1.000000	-1.000000	-1.000000	51.000000	0.000000	-1.000000	-1.000000	335292.000000	1775792524.864564
-14304.960000	-19306.215000	11038.410000	42364.260000	12773.565000	4745.025000	-28396.755000	-21808.890000	0.394488	3.311046	2.047741	-0.495676	0.859106	-3.293426	-1.757339	-1.409029	-3.006220	4.333840	0.579880	-0.900266	0.036804	0.421874	-1.000000	-1.000000	-1.000000	-1.000000	-1.000000	-1.000000	-1.000000	51.000000	0.000000	-1.000000	-1.000000	335293.000000	1775792524.864590
-14320.215000	-19306.620000	11038.815000	42363.630000	12776.895000	4785.705000	-28396.665000	-21815.820000	-6.025680	-4.709734	-4.434560	-5.455963	-3.410904	8.468691	-3.348764	-6.607357	-3.723440	3.845520	2.578940	-0.901792	0.036072	0.420958	-1.000000	-1.000000	-1.000000	-1.000000	-1.000000	-1.000000	-1.000000	51.000000	0.000000	-1.000000	-1.000000	335294.000000	1775792524.864618
-14286.555000	-19291.095000	11053.755000	42382.305000	12801.600000	4753.035000	-28384.650000	-21798.045000	-10.873831	-9.737554	-8.395027	-7.654602	-3.737334	27.492518	-3.078677	-9.001400	-3.723440	3.845520	2.578940	-0.901792	0.036072	0.420958	-1.000000	-1.000000	-1.000000	-1.000000	-1.000000	-1.000000	-1.000000	51.000000	0.000000	-1.000000	-1.000000	335295.000000	1775792524.864630
-14283.540000	-19300.545000	11044.395000	42380.460000	12824.280000	4771.575000	-28366.020000	-21790.935000	-9.050216	-8.780363	-7.252176	-4.980964	1.389354	36.374414	0.191856	-5.864893	-3.723440	3.845520	2.578940	-0.901792	0.036072	0.420958	-1.000000	-1.000000	-1.000000	-1.000000	-1.000000	-1.000000	-1.000000	51.000000	0.000000	-1.000000	-1.000000	335296.000000	1775792524.872418
-14303.385000	-19317.735000	11027.790000	42366.780000	12828.780000	4797.270000	-28370.745000	-21806.235000	-0.763008	-3.921582	-2.960248	0.483151	9.208101	25.596266	5.218243	1.376515	-3.723440	3.845520	2.578940	-0.901792	0.036072	0.420958	-1.000000	-1.000000	-1.000000	-1.000000	-1.000000	-1.000000	-1.000000	51.000000	0.000000	-1.000000	-1.000000	335297.000000	1775792524.872442
-14299.695000	-19311.840000	11034.270000	42369.705000	12827.340000	4791.690000	-28368.540000	-21803.355000	7.328150	0.315736	0.450742	4.198307	13.721686	2.515413	8.431045	7.463493	-3.723440	3.845520	2.578940	-0.901792	0.036072	0.420958	-1.000000	-1.000000	-1.000000	-1.000000	-1.000000	-1.000000	-1.000000	51.000000	0.000000	-1.000000	-1.000000	335298.000000	1775792524.872508
-14297.805000	-19310.760000	11033.730000	42366.330000	12817.215000	4776.120000	-28369.530000	-21802.365000	9.941535	2.211613	1.699569	4.089313	10.335438	-20.253228	6.983153	8.675990	-3.723440	3.845520	2.578940	-0.901792	0.036072	0.420958	-1.000000	-1.000000	-1.000000	-1.000000	-1.000000	-1.000000	-1.000000	51.000000	0.000000	-1.000000	-1.000000	335299.000000	1775792524.872522
-14293.215000	-19306.665000	11037.195000	42368.760000	12816.180000	4763.205000	-28374.210000	-21800.160000	7.640638	3.121821	2.252651	1.734902	-0.082399	-34.863137	1.468390	5.806856	-3.723440	3.845520	2.578940	-0.901792	0.036072	0.420958	-1.000000	-1.000000	-1.000000	-1.000000	-1.000000	-1.000000	-1.000000	51.000000	0.000000	-1.000000	-1.000000	335300.000000	1775792524.875084
-14287.275000	-19299.555000	11045.070000	42376.725000	12817.485000	4755.825000	-28382.535000	-21798.315000	3.711621	4.231687	3.265859	-0.252514	-11.672791	-38.242023	-5.176801	1.726549	-3.723440	3.845520	2.578940	-0.901792	0.036072	0.420958	-1.000000	-1.000000	-1.000000	-1.000000	-1.000000	-1.000000	-1.000000	51.000000	0.000000	-1.000000	-1.000000	335301.000000	1775792524.875110
-14283.720000	-19300.050000	11045.025000	42375.600000	12815.280000	4756.230000	-28377.090000	-21795.525000	0.637865	5.289139	4.541176	-0.405648	-17.996178	-30.357493	-9.787628	-1.357366	-3.723440	3.845520	2.578940	-0.901792	0.036072	0.420958	-1.000000	-1.000000	-1.000000	-1.000000	-1.000000	-1.000000	-1.000000	51.000000	0.000000	-1.000000	-1.000000	335302.000000	1775792524.880056
-14287.680000	-19303.695000	11040.075000	42367.815000	12807.045000	4750.785000	-28379.070000	-21798.720000	-1.079540	5.086478	4.832098	0.571247	-16.606349	-14.263010	-10.155605	-2.760136	-3.723440	3.845520	2.578940	-0.901792	0.036072	0.420958	-1.000000	-1.000000	-1.000000	-1.000000	-1.000000	-1.000000	-1.000000	51.000000	0.000000	-1.000000	-1.000000	335303.000000	1775792524.880081
-14287.950000	-19297.890000	11044.620000	42373.305000	12810.870000	4750.020000	-28379.070000	-21800.880000	-2.298012	2.857327	3.077512	0.923478	-9.603477	4.185243	-6.266904	-3.050953	-2.334780	3.326680	5.539380	-0.899168	0.034973	0.419310	-1.000000	-1.000000	-1.000000	-1.000000	-1.000000	-1.000000	-1.000000	51.000000	0.000000	-1.000000	-1.000000	335304.000000	1775792524.882902
-14282.415000	-19294.065000	11048.220000	42377.625000	12818.430000	4750.245000	-28375.605000	-21796.425000	-3.466937	-0.423655	-0.028736	0.300018	-0.575584	18.701747	-0.346068	-2.905392	-2.334780	3.326680	5.539380	-0.899168	0.034973	0.419310	-1.000000	-1.000000	-1.000000	-1.000000	-1.000000	-1.000000	-1.000000	51.000000	0.000000	-1.000000	-1.000000	335305.000000	1775792524.882922
-14286.060000	-19295.730000	11048.670000	42380.235000	12823.605000	4741.785000	-28377.045000	-21801.105000	-4.017583	-2.998654	-2.653938	-0.237963	7.593836	25.297972	4.863235	-2.382457	-2.334780	3.326680	5.539380	-0.899168	0.034973	0.419310	-1.000000	-1.000000	-1.000000	-1.000000	-1.000000	-1.000000	-1.000000	51.000000	0.000000	-1.000000	-1.000000	335306.000000	1775792524.887446
-14299.245000	-19308.780000	11040.120000	42375.240000	12818.295000	4731.210000	-28388.025000	-21815.325000	-3.798780	-4.364370	-3.915042	-0.242406	12.542599	23.128921	7.265778	-1.768684	-2.334780	3.326680	5.539380	-0.899168	0.034973	0.419310	-1.000000	-1.000000	-1.000000	-1.000000	-1.000000	-1.000000	-1.000000	51.000000	0.000000	-1.000000	-1.000000	335307.000000	1775792524.887466
-14303.700000	-19313.145000	11035.935000	42369.345000	12800.160000	4717.485000	-28393.830000	-21820.500000	-3.565872	-5.236484	-4.329101	-0.456021	12.258542	14.219301	5.941557	-1.832014	-2.334780	3.326680	5.539380	-0.899168	0.034973	0.419310	-1.000000	-1.000000	-1.000000	-1.000000	-1.000000	-1.000000	-1.000000	51.000000	0.000000	-1.000000	-1.000000	335308.000000	1775792524.894342
-14301.360000	-19311.030000	11032.875000	42361.785000	12775.860000	4707.720000	-28391.670000	-21815.325000	-3.320287	-5.612817	-4.379772	-1.572105	6.196832	2.718381	2.082039	-2.228808	-2.334780	3.326680	5.539380	-0.899168	0.034973	0.419310	-1.000000	-1.000000	-1.000000	-1.000000	-1.000000	-1.000000	-1.000000	51.000000	0.000000	-1.000000	-1.000000	335309.000000	1775792524.894366
-14270.715000	-19281.195000	11058.615000	42387.840000	12807.630000	4732.515000	-28370.070000	-21786.165000	-1.385738	-3.831568	-3.229458	-2.641431	-2.473642	-6.127898	-1.053469	-0.844540	-2.334780	3.326680	5.539380	-0.899168	0.034973	0.419310	-1.000000	-1.000000	-1.000000	-1.000000	-1.000000	-1.000000	-1.000000	51.000000	0.000000	-1.000000	-1.000000	335310.000000	1775792524.894391
-14278.905000	-19287.810000	11054.025000	42383.925000	12816.765000	4739.670000	-28369.755000	-21791.565000	3.346567	1.214958	0.252025	-1.566509	-7.152365	-8.001058	-0.728547	3.586848	-2.334780	3.326680	5.539380	-0.899168	0.034973	0.419310	-1.000000	-1.000000	-1.000000	-1.000000	-1.000000	-1.000000	-1.000000	51.000000	0.000000	-1.000000	-1.000000	335311.000000	1775792524.894402
-14289.030000	-19298.205000	11043.585000	42372.495000	12812.625000	4761.630000	-28376.865000	-21802.230000	8.141953	6.771615	4.502896	1.367874	-4.348774	-2.830011	2.018669	8.217966	-2.334780	3.326680	5.539380	-0.899168	0.034973	0.419310	-1.000000	-1.000000	-1.000000	-1.000000	-1.000000	-1.000000	-1.000000	51.000000	0.000000	-1.000000	-1.000000	335312.000000	1775792524.898525
-14288.895000	-19302.210000	11039.220000	42368.310000	12817.530000	4768.605000	-28376.145000	-21803.130000	8.506141	8.077982	5.842039	2.957888	2.154762	4.795254	3.427794	8.361601	-2.334780	3.326680	5.539380	-0.899168	0.034973	0.419310	-1.000000	-1.000000	-1.000000	-1.000000	-1.000000	-1.000000	-1.000000	51.000000	0.000000	-1.000000	-1.000000	335313.000000	1775792524.898542
-14278.905000	-19295.505000	11046.240000	42375.285000	12822.345000	4761.135000	-28373.940000	-21796.380000	3.991650	4.144470	3.187646	1.647624	6.502318	8.946030	1.658384	3.367176	1.724380	4.700080	8.042020	-0.896299	0.039001	0.416686	-1.000000	-1.000000	-1.000000	-1.000000	-1.000000	-1.000000	-1.000000	51.000000	0.000000	-1.000000	-1.000000	335314.000000	1775792524.902790
-14271.030000	-19289.790000	11051.325000	42380.460000	12818.565000	4746.645000	-28373.445000	-21791.520000	-1.386696	-1.277245	-0.606445	-0.537572	6.225423	5.834427	-1.729599	-2.771644	1.724380	4.700080	8.042020	-0.896299	0.039001	0.416686	-1.000000	-1.000000	-1.000000	-1.000000	-1.000000	-1.000000	-1.000000	51.000000	0.000000	-1.000000	-1.000000	335315.000000	1775792524.902815
-14278.815000	-19288.440000	11054.880000	42384.015000	12813.120000	4730.850000	-28371.555000	-21793.545000	-4.174239	-4.178050	-2.370117	-1.117816	2.078627	-3.761700	-4.268130	-6.140082	1.724380	4.700080	8.042020	-0.896299	0.039001	0.416686	-1.000000	-1.000000	-1.000000	-1.000000	-1.000000	-1.000000	-1.000000	51.000000	0.000000	-1.000000	-1.000000	335316.000000	1775792524.907235
-14288.175000	-19291.140000	11050.650000	42376.455000	12801.375000	4729.005000	-28374.840000	-21800.655000	-4.598497	-3.782265	-1.675075	-0.046504	-3.757583	-14.485595	-4.766247	-6.167922	1.724380	4.700080	8.042020	-0.896299	0.039001	0.416686	-1.000000	-1.000000	-1.000000	-1.000000	-1.000000	-1.000000	-1.000000	51.000000	0.000000	-1.000000	-1.000000	335317.000000	1775792524.907259
-14288.490000	-19295.955000	11045.610000	42372.810000	12801.780000	4736.520000	-28382.490000	-21805.965000	-4.556275	-2.009026	-0.405215	0.780772	-8.626378	-19.518346	-3.730256	-4.694974	1.724380	4.700080	8.042020	-0.896299	0.039001	0.416686	-1.000000	-1.000000	-1.000000	-1.000000	-1.000000	-1.000000	-1.000000	51.000000	0.000000	-1.000000	-1.000000	335318.000000	1775792524.912683
-14290.695000	-19299.645000	11043.360000	42372.135000	12806.550000	4751.145000	-28383.885000	-21809.520000	-4.457049	-0.900068	-0.298729	0.106246	-9.973494	-14.975990	-2.378926	-3.288210	1.724380	4.700080	8.042020	-0.896299	0.039001	0.416686	-1.000000	-1.000000	-1.000000	-1.000000	-1.000000	-1.000000	-1.000000	51.000000	0.000000	-1.000000	-1.000000	335319.000000	1775792524.912704
-14292.315000	-19298.520000	11045.970000	42375.825000	12805.650000	4748.760000	-28380.645000	-21811.050000	-3.420273	-0.888037	-1.231270	-1.282614	-6.707730	-2.890444	-1.136005	-2.061485	1.724380	4.700080	8.042020	-0.896299	0.039001	0.416686	-1.000000	-1.000000	-1.000000	-1.000000	-1.000000	-1.000000	-1.000000	51.000000	0.000000	-1.000000	-1.000000	335320.000000	1775792524.913333
-14288.670000	-19292.220000	11051.865000	42381.225000	12810.330000	4751.325000	-28375.695000	-21805.875000	-1.045285	-0.888267	-1.688173	-1.686987	-0.433942	9.848500	0.538300	-0.344000	1.724380	4.700080	8.042020	-0.896299	0.039001	0.416686	-1.000000	-1.000000	-1.000000	-1.000000	-1.000000	-1.000000	-1.000000	51.000000	0.000000	-1.000000	-1.000000	335321.000000	1775792524.913347
-14293.170000	-19294.740000	11048.805000	42377.310000	12815.055000	4754.745000	-28374.120000	-21808.440000	2.019389	0.144055	-0.680169	-0.499516	5.698462	16.619794	2.823598	2.128432	1.724380	4.700080	8.042020	-0.896299	0.039001	0.416686	-1.000000	-1.000000	-1.000000	-1.000000	-1.000000	-1.000000	-1.000000	51.000000	0.000000	-1.000000	-1.000000	335322.000000	1775792524.918623
-14293.935000	-19298.565000	11045.385000	42375.960000	12824.460000	4735.845000	-28374.120000	-21810.015000	4.400248	1.737879	1.016380	1.134220	9.284027	15.069046	4.756119	4.469121	1.724380	4.700080	8.042020	-0.896299	0.039001	0.416686	-1.000000	-1.000000	-1.000000	-1.000000	-1.000000	-1.000000	-1.000000	51.000000	0.000000	-1.000000	-1.000000	335323.000000	1775792524.918641
-14286.870000	-19294.875000	11047.455000	42378.210000	12828.645000	4721.985000	-28368.990000	-21804.345000	5.130706	2.575880	1.915470	1.787913	9.550315	6.743983	5.124885	5.429180	2.578940	3.723440	9.323860	-0.903684	0.040710	0.416747	-1.000000	-1.000000	-1.000000	-1.000000	-1.000000	-1.000000	-1.000000	51.000000	0.000000	-1.000000	-1.000000	335324.000000	1775792524.922873
-14296.095000	-19301.400000	11041.695000	42371.685000	12811.905000	4690.035000	-28368.855000	-21811.455000	4.324447	2.142114	1.517308	1.180666	6.530780	-4.566914	3.712373	4.631325	2.578940	3.723440	9.323860	-0.903684	0.040710	0.416747	-1.000000	-1.000000	-1.000000	-1.000000	-1.000000	-1.000000	-1.000000	51.000000	0.000000	-1.000000	-1.000000	335325.000000	1775792524.922897
-14300.280000	-19305.855000	11036.475000	42364.755000	12805.425000	4702.995000	-28368.315000	-21814.875000	2.277889	0.725775	0.219655	-0.286931	0.547675	-13.680083	1.213750	2.343120	2.578940	3.723440	9.323860	-0.903684	0.040710	0.416747	-1.000000	-1.000000	-1.000000	-1.000000	-1.000000	-1.000000	-1.000000	51.000000	0.000000	-1.000000	-1.000000	335326.000000	1775792524.926680
-14284.440000	-19292.445000	11048.040000	42373.125000	12812.535000	4729.500000	-28384.830000	-21807.855000	-0.289276	-0.810871	-1.076912	-1.840508	-6.299623	-14.915059	-1.751179	-0.601535	2.578940	3.723440	9.323860	-0.903684	0.040710	0.416747	-1.000000	-1.000000	-1.000000	-1.000000	-1.000000	-1.000000	-1.000000	51.000000	0.000000	-1.000000	-1.000000	335327.000000	1775792524.926696
-14264.280000	-19270.620000	11070.135000	42395.715000	12830.130000	4776.345000	-28387.440000	-21793.005000	-1.282966	-0.687544	-0.699727	-1.762557	-9.812142	-5.225816	-4.846192	-2.359786	2.578940	3.723440	9.323860	-0.903684	0.040710	0.416747	-1.000000	-1.000000	-1.000000	-1.000000	-1.000000	-1.000000	-1.000000	51.000000	0.000000	-1.000000	-1.000000	335328.000000	1775792524.931111
-14276.115000	-19282.860000	11058.570000	42384.285000	12815.640000	4775.535000	-28383.030000	-21801.420000	0.339401	1.757505	1.976474	0.909150	-7.580880	11.267838	-6.903349	-1.735106	2.578940	3.723440	9.323860	-0.903684	0.040710	0.416747	-1.000000	-1.000000	-1.000000	-1.000000	-1.000000	-1.000000	-1.000000	51.000000	0.000000	-1.000000	-1.000000	335329.000000	1775792524.931129
-14280.255000	-19285.470000	11056.950000	42382.620000	12818.655000	4764.465000	-28381.410000	-21805.695000	2.030064	3.854690	4.371814	3.878088	-2.090518	23.473492	-6.070689	-0.203763	2.578940	3.723440	9.323860	-0.903684	0.040710	0.416747	-1.000000	-1.000000	-1.000000	-1.000000	-1.000000	-1.000000	-1.000000	51.000000	0.000000	-1.000000	-1.000000	335330.000000	1775792524.933984
-14283.315000	-19288.710000	11054.070000	42380.910000	12830.265000	4768.110000	-28371.510000	-21806.505000	0.727133	2.539808	3.403365	3.899106	2.597998	21.902600	-1.940864	-0.114721	2.578940	3.723440	9.323860	-0.903684	0.040710	0.416747	-1.000000	-1.000000	-1.000000	-1.000000	-1.000000	-1.000000	-1.000000	51.000000	0.000000	-1.000000	-1.000000	335331.000000	1775792524.934000
-14287.545000	-19292.490000	11050.200000	42374.835000	12821.490000	4763.610000	-28371.690000	-21811.590000	-3.159770	-1.748473	-0.697106	0.689199	4.840504	7.416873	3.610135	-1.717437	2.578940	3.723440	9.323860	-0.903684	0.040710	0.416747	-1.000000	-1.000000	-1.000000	-1.000000	-1.000000	-1.000000	-1.000000	51.000000	0.000000	-1.000000	-1.000000	335332.000000	1775792524.940399
-14285.430000	-19292.670000	11049.570000	42373.980000	12807.090000	4745.340000	-28375.695000	-21809.655000	-6.645678	-5.973276	-5.107121	-3.447969	4.263643	-10.915539	7.514303	-3.433611	2.578940	3.723440	9.323860	-0.903684	0.040710	0.416747	-1.000000	-1.000000	-1.000000	-1.000000	-1.000000	-1.000000	-1.000000	51.000000	0.000000	-1.000000	-1.000000	335333.000000	1775792524.940426
-14276.430000	-19286.640000	11054.115000	42379.830000	12815.325000	4735.845000	-28379.880000	-21801.105000	-6.983847	-7.309873	-7.029875	-5.814950	1.113152	-24.122754	7.419157	-3.516132	0.183120	1.587040	9.400160	-0.907957	0.043884	0.416747	-1.000000	-1.000000	-1.000000	-1.000000	-1.000000	-1.000000	-1.000000	51.000000	0.000000	-1.000000	-1.000000	335334.000000	1775792524.946317
-14281.560000	-19288.800000	11054.025000	42382.710000	12829.320000	4747.590000	-28380.600000	-21807.180000	-3.606233	-4.899271	-5.357721	-4.834429	-2.051611	-27.134774	3.518200	-1.389506	0.183120	1.587040	9.400160	-0.907957	0.043884	0.416747	-1.000000	-1.000000	-1.000000	-1.000000	-1.000000	-1.000000	-1.000000	51.000000	0.000000	-1.000000	-1.000000	335335.000000	1775792524.946340
-14284.530000	-19289.250000	11055.330000	42385.545000	12834.720000	4767.120000	-28374.975000	-21810.375000	1.232844	-0.370736	-1.250930	-1.111797	-2.101515	-18.757445	-1.479205	1.479582	0.183120	1.587040	9.400160	-0.907957	0.043884	0.416747	-1.000000	-1.000000	-1.000000	-1.000000	-1.000000	-1.000000	-1.000000	51.000000	0.000000	-1.000000	-1.000000	335336.000000	1775792524.948486
-14290.830000	-19296.315000	11046.645000	42375.555000	12825.855000	4768.470000	-28374.975000	-21815.595000	4.348423	3.436473	2.710653	2.809798	0.676814	-2.532249	-4.504543	2.900129	0.183120	1.587040	9.400160	-0.907957	0.043884	0.416747	-1.000000	-1.000000	-1.000000	-1.000000	-1.000000	-1.000000	-1.000000	51.000000	0.000000	-1.000000	-1.000000	335337.000000	1775792524.948502
-14296.005000	-19302.705000	11039.490000	42368.580000	12817.170000	4767.705000	-28376.640000	-21820.140000	4.299570	4.526336	4.221441	4.195247	2.730075	13.464765	-4.495879	2.132247	0.183120	1.587040	9.400160	-0.907957	0.043884	0.416747	-1.000000	-1.000000	-1.000000	-1.000000	-1.000000	-1.000000	-1.000000	51.000000	0.000000	-1.000000	-1.000000	335338.000000	1775792524.957108
-14289.885000	-19295.595000	11046.105000	42372.675000	12808.755000	4756.095000	-28378.395000	-21816.180000	2.154324	3.078040	2.988690	2.453235	1.403172	21.138990	-2.659129	0.281136	0.183120	1.587040	9.400160	-0.907957	0.043884	0.416747	-1.000000	-1.000000	-1.000000	-1.000000	-1.000000	-1.000000	-1.000000	51.000000	0.000000	-1.000000	-1.000000	335339.000000	1775792524.957135
-14283.990000	-19292.040000	11048.310000	42372.135000	12807.495000	4761.990000	-28371.780000	-21807.315000	0.373528	1.209968	1.026579	-0.291182	-2.366818	17.904283	-0.603011	-0.688121	0.183120	1.587040	9.400160	-0.907957	0.043884	0.416747	-1.000000	-1.000000	-1.000000	-1.000000	-1.000000	-1.000000	-1.000000	51.000000	0.000000	-1.000000	-1.000000	335340.000000	1775792524.957176
-14280.615000	-19290.825000	11048.130000	42369.660000	12804.345000	4752.135000	-28370.430000	-21802.185000	0.573820	0.734766	0.334576	-1.677554	-5.374394	7.696508	1.038771	0.423516	0.183120	1.587040	9.400160	-0.907957	0.043884	0.416747	-1.000000	-1.000000	-1.000000	-1.000000	-1.000000	-1.000000	-1.000000	51.000000	0.000000	-1.000000	-1.000000	335341.000000	1775792524.957187
-14286.060000	-19295.280000	11044.125000	42367.770000	12802.995000	4733.280000	-28376.370000	-21809.070000	1.989570	1.326971	0.823847	-1.301914	-5.257166	-3.385490	1.996709	2.621646	0.183120	1.587040	9.400160	-0.907957	0.043884	0.416747	-1.000000	-1.000000	-1.000000	-1.000000	-1.000000	-1.000000	-1.000000	51.000000	0.000000	-1.000000	-1.000000	335342.000000	1775792524.964397
-14287.005000	-19295.640000	11044.125000	42370.785000	12807.630000	4739.625000	-28373.940000	-21811.320000	2.505228	1.447330	1.153253	-0.069126	-2.028979	-10.997382	1.796968	3.440471	0.183120	1.587040	9.400160	-0.907957	0.043884	0.416747	-1.000000	-1.000000	-1.000000	-1.000000	-1.000000	-1.000000	-1.000000	51.000000	0.000000	-1.000000	-1.000000	335343.000000	1775792524.964418
-14284.665000	-19291.005000	11048.310000	42377.220000	12819.330000	4745.745000	-28370.790000	-21810.555000	1.137476	0.473065	0.701219	1.314758	2.790399	-12.510494	0.667225	1.662060	-2.594200	1.220800	7.782600	-0.904905	0.046570	0.415954	-1.000000	-1.000000	-1.000000	-1.000000	-1.000000	-1.000000	-1.000000	51.000000	0.000000	-1.000000	-1.000000	335344.000000	1775792524.964442
-14285.745000	-19291.680000	11049.210000	42380.640000	12835.485000	4757.760000	-28367.865000	-21812.265000	-1.118788	-0.797500	0.014662	2.581452	7.506146	-7.339178	-0.304111	-1.452521	-2.594200	1.220800	7.782600	-0.904905	0.046570	0.415954	-1.000000	-1.000000	-1.000000	-1.000000	-1.000000	-1.000000	-1.000000	51.000000	0.000000	-1.000000	-1.000000	335345.000000	1775792524.964453
-14280.210000	-19289.925000	11050.155000	42378.300000	12832.200000	4758.345000	-28366.605000	-21806.415000	-2.671063	-1.482025	-0.317681	3.203155	10.326510	1.635994	-0.427583	-3.698510	-2.594200	1.220800	7.782600	-0.904905	0.046570	0.415954	-1.000000	-1.000000	-1.000000	-1.000000	-1.000000	-1.000000	-1.000000	51.000000	0.000000	-1.000000	-1.000000	335346.000000	1775792524.967846
-14284.440000	-19293.390000	11046.780000	42371.415000	12819.150000	4736.790000	-28375.830000	-21811.680000	-2.754509	-1.528703	-0.430296	2.287136	9.035192	8.815633	-0.175441	-3.842125	-2.594200	1.220800	7.782600	-0.904905	0.046570	0.415954	-1.000000	-1.000000	-1.000000	-1.000000	-1.000000	-1.000000	-1.000000	51.000000	0.000000	-1.000000	-1.000000	335347.000000	1775792524.967863
-14278.680000	-19292.040000	11049.795000	42375.735000	12819.420000	4732.110000	-28378.440000	-21810.420000	-1.725132	-1.351335	-0.709093	-0.285118	2.778204	9.445215	-0.570504	-2.336808	-2.594200	1.220800	7.782600	-0.904905	0.046570	0.415954	-1.000000	-1.000000	-1.000000	-1.000000	-1.000000	-1.000000	-1.000000	51.000000	0.000000	-1.000000	-1.000000	335348.000000	1775792524.970881
-14272.605000	-19290.825000	11050.965000	42376.455000	12816.945000	4724.730000	-28375.515000	-21807.450000	-0.245622	-1.125927	-1.053909	-3.036386	-5.661748	3.721190	-1.657926	-0.401101	-2.594200	1.220800	7.782600	-0.904905	0.046570	0.415954	-1.000000	-1.000000	-1.000000	-1.000000	-1.000000	-1.000000	-1.000000	51.000000	0.000000	-1.000000	-1.000000	335349.000000	1775792524.970900
-14281.740000	-19289.385000	11051.685000	42377.310000	12815.505000	4697.910000	-28375.695000	-21812.445000	1.072273	-0.671298	-1.051021	-4.161504	-11.569173	-3.978623	-2.194770	1.116111	-2.594200	1.220800	7.782600	-0.904905	0.046570	0.415954	-1.000000	-1.000000	-1.000000	-1.000000	-1.000000	-1.000000	-1.000000	51.000000	0.000000	-1.000000	-1.000000	335350.000000	1775792524.982308
-14306.490000	-19295.190000	11045.655000	42370.830000	12812.670000	4703.985000	-28379.430000	-21825.045000	0.863365	-0.052990	-0.752558	-3.371215	-12.181981	-9.313794	-1.377577	1.479266	-2.594200	1.220800	7.782600	-0.904905	0.046570	0.415954	-1.000000	-1.000000	-1.000000	-1.000000	-1.000000	-1.000000	-1.000000	51.000000	0.000000	-1.000000	-1.000000	335351.000000	1775792524.982332
-14321.115000	-19315.845000	11024.415000	42350.985000	12799.260000	4721.355000	-28384.425000	-21840.795000	-2.097546	-0.124889	-1.030305	-2.138237	-8.278283	-9.149785	0.102012	0.010412	-2.594200	1.220800	7.782600	-0.904905	0.046570	0.415954	-1.000000	-1.000000	-1.000000	-1.000000	-1.000000	-1.000000	-1.000000	51.000000	0.000000	-1.000000	-1.000000	335352.000000	1775792524.982354
-14310.000000	-19326.195000	11012.085000	42339.195000	12790.170000	4739.715000	-28394.370000	-21844.305000	-6.038870	-1.794988	-2.763729	-2.201173	-2.931153	-2.225740	0.941412	-2.726662	-2.594200	1.220800	7.782600	-0.904905	0.046570	0.415954	-1.000000	-1.000000	-1.000000	-1.000000	-1.000000	-1.000000	-1.000000	51.000000	0.000000	-1.000000	-1.000000	335353.000000	1775792524.982365
-14277.735000	-19295.730000	11040.660000	42365.520000	12821.760000	4793.490000	-28387.665000	-21816.405000	-6.066551	-3.590408	-4.503490	-2.833146	1.873371	9.240688	0.724851	-3.966347	-1.846460	-0.885080	7.980980	-0.893064	0.045715	0.415709	-1.000000	-1.000000	-1.000000	-1.000000	-1.000000	-1.000000	-1.000000	51.000000	0.000000	-1.000000	-1.000000	335354.000000	1775792524.983602
-14257.125000	-19266.030000	11071.170000	42395.670000	12850.155000	4790.700000	-28359.315000	-21789.585000	1.001782	-1.457718	-2.191181	-0.401304	7.187059	19.928549	0.963636	-0.333986	-1.846460	-0.885080	7.980980	-0.893064	0.045715	0.415709	-1.000000	-1.000000	-1.000000	-1.000000	-1.000000	-1.000000	-1.000000	51.000000	0.000000	-1.000000	-1.000000	335355.000000	1775792524.983622
-14271.615000	-19270.845000	11068.875000	42394.320000	12849.300000	4743.585000	-28354.320000	-21798.765000	11.465777	5.703736	5.446375	6.511081	13.304664	21.970765	3.514694	7.478676	-1.846460	-0.885080	7.980980	-0.893064	0.045715	0.415709	-1.000000	-1.000000	-1.000000	-1.000000	-1.000000	-1.000000	-1.000000	51.000000	0.000000	-1.000000	-1.000000	335356.000000	1775792524.985989
-14280.120000	-19282.815000	11057.265000	42383.025000	12834.945000	4723.740000	-28364.400000	-21809.295000	16.589883	12.183029	12.791824	12.938713	15.986671	9.523063	6.870537	13.031593	-1.846460	-0.885080	7.980980	-0.893064	0.045715	0.415709	-1.000000	-1.000000	-1.000000	-1.000000	-1.000000	-1.000000	-1.000000	51.000000	0.000000	-1.000000	-1.000000	335357.000000	1775792524.986005
-14279.805000	-19280.070000	11061.990000	42386.805000	12819.510000	4744.035000	-28372.050000	-21809.340000	11.336952	11.257720	12.801460	12.382462	10.423190	-12.191344	6.713963	10.477258	-1.846460	-0.885080	7.980980	-0.893064	0.045715	0.415709	-1.000000	-1.000000	-1.000000	-1.000000	-1.000000	-1.000000	-1.000000	51.000000	0.000000	-1.000000	-1.000000	335358.000000	1775792524.990854
-14274.180000	-19275.840000	11065.860000	42391.530000	12824.730000	4794.660000	-28372.365000	-21809.115000	-0.546346	3.004774	5.006637	4.452843	-2.101711	-27.504566	1.352237	1.075733	-1.846460	-0.885080	7.980980	-0.893064	0.045715	0.415709	-1.000000	-1.000000	-1.000000	-1.000000	-1.000000	-1.000000	-1.000000	51.000000	0.000000	-1.000000	-1.000000	335359.000000	1775792524.990875
-14276.970000	-19279.035000	11061.540000	42385.455000	12826.845000	4794.390000	-28366.695000	-21808.800000	-11.026114	-6.663962	-5.036715	-5.481515	-14.073281	-24.771701	-5.853538	-8.738989	-1.846460	-0.885080	7.980980	-0.893064	0.045715	0.415709	-1.000000	-1.000000	-1.000000	-1.000000	-1.000000	-1.000000	-1.000000	51.000000	0.000000	-1.000000	-1.000000	335360.000000	1775792524.996179
-14286.600000	-19288.530000	11051.370000	42372.585000	12813.930000	4758.750000	-28374.390000	-21815.415000	-15.102040	-12.513603	-12.033767	-12.390501	-18.608814	-8.665676	-10.100588	-13.615947	-1.846460	-0.885080	7.980980	-0.893064	0.045715	0.415709	-1.000000	-1.000000	-1.000000	-1.000000	-1.000000	-1.000000	-1.000000	51.000000	0.000000	-1.000000	-1.000000	335361.000000	1775792524.996196
-14284.665000	-19294.740000	11046.555000	42370.560000	12807.360000	4743.810000	-28373.355000	-21814.605000	-12.924137	-13.216459	-14.109264	-14.515610	-15.006502	5.451284	-9.525414	-12.406088	-1.846460	-0.885080	7.980980	-0.893064	0.045715	0.415709	-1.000000	-1.000000	-1.000000	-1.000000	-1.000000	-1.000000	-1.000000	51.000000	0.000000	-1.000000	-1.000000	335362.000000	1775792524.997950
-14283.270000	-19292.400000	11049.030000	42371.280000	12790.845000	4725.135000	-28387.215000	-21819.285000	-7.009906	-9.851711	-11.596585	-11.968397	-7.304641	8.023705	-5.683027	-7.104018	-1.846460	-0.885080	7.980980	-0.893064	0.045715	0.415709	-1.000000	-1.000000	-1.000000	-1.000000	-1.000000	-1.000000	-1.000000	51.000000	0.000000	-1.000000	-1.000000	335363.000000	1775792524.997965
-14268.060000	-19272.240000	11067.210000	42385.140000	12802.950000	4737.195000	-28375.830000	-21808.350000	0.305166	-3.571279	-5.319290	-5.479088	0.438418	2.183616	-1.097771	-0.481901	2.166920	-1.236060	10.865120	-0.886900	0.047974	0.417052	-1.000000	-1.000000	-1.000000	-1.000000	-1.000000	-1.000000	-1.000000	51.000000	0.000000	-1.000000	-1.000000	335364.000000	1775792525.002871
-14278.455000	-19280.430000	11058.705000	42377.670000	12805.830000	4739.535000	-28368.360000	-21811.590000	6.876173	4.212941	3.016988	2.982645	6.751840	-2.866324	3.073770	5.302679	2.166920	-1.236060	10.865120	-0.886900	0.047974	0.417052	-1.000000	-1.000000	-1.000000	-1.000000	-1.000000	-1.000000	-1.000000	51.000000	0.000000	-1.000000	-1.000000	335365.000000	1775792525.002887
-14285.295000	-19284.390000	11054.475000	42374.070000	12814.290000	4768.155000	-28366.515000	-21815.190000	10.049075	10.257674	9.731671	9.727057	11.512780	-0.986037	6.650900	8.558606	2.166920	-1.236060	10.865120	-0.886900	0.047974	0.417052	-1.000000	-1.000000	-1.000000	-1.000000	-1.000000	-1.000000	-1.000000	51.000000	0.000000	-1.000000	-1.000000	335366.000000	1775792525.006746
-14285.565000	-19292.535000	11044.530000	42364.035000	12818.880000	4779.180000	-28370.430000	-21820.140000	8.264546	11.116200	11.152434	11.377297	13.908438	7.132399	8.531817	8.139249	2.166920	-1.236060	10.865120	-0.886900	0.047974	0.417052	-1.000000	-1.000000	-1.000000	-1.000000	-1.000000	-1.000000	-1.000000	51.000000	0.000000	-1.000000	-1.000000	335367.000000	1775792525.006766
-14285.385000	-19292.850000	11046.870000	42371.190000	12836.925000	4772.655000	-28371.285000	-21820.320000	3.207530	6.643560	7.090490	7.839136	13.067823	15.361762	7.266360	4.580749	2.166920	-1.236060	10.865120	-0.886900	0.047974	0.417052	-1.000000	-1.000000	-1.000000	-1.000000	-1.000000	-1.000000	-1.000000	51.000000	0.000000	-1.000000	-1.000000	335368.000000	1775792525.012453
-14284.215000	-19285.740000	11055.555000	42380.280000	12838.455000	4759.380000	-28375.020000	-21819.600000	-1.588871	0.309912	1.138982	2.530828	9.270186	16.477610	3.056948	0.154916	2.166920	-1.236060	10.865120	-0.886900	0.047974	0.417052	-1.000000	-1.000000	-1.000000	-1.000000	-1.000000	-1.000000	-1.000000	51.000000	0.000000	-1.000000	-1.000000	335369.000000	1775792525.012475
-14278.095000	-19284.975000	11055.330000	42379.605000	12833.460000	4749.750000	-28374.120000	-21815.415000	-3.651540	-3.785220	-2.564927	-0.839103	3.265431	7.950454	-2.046583	-2.704001	2.166920	-1.236060	10.865120	-0.886900	0.047974	0.417052	-1.000000	-1.000000	-1.000000	-1.000000	-1.000000	-1.000000	-1.000000	51.000000	0.000000	-1.000000	-1.000000	335370.000000	1775792525.019849
-14284.215000	-19290.780000	11047.860000	42372.000000	12827.565000	4750.470000	-28371.420000	-21818.205000	-2.822346	-4.222924	-2.927030	-1.654998	-4.186136	-5.592241	-5.531274	-3.026003	2.166920	-1.236060	10.865120	-0.886900	0.047974	0.417052	-1.000000	-1.000000	-1.000000	-1.000000	-1.000000	-1.000000	-1.000000	51.000000	0.000000	-1.000000	-1.000000	335371.000000	1775792525.019873
-14294.970000	-19300.725000	11036.520000	42357.780000	12817.575000	4760.505000	-28374.480000	-21830.220000	-1.046804	-2.781822	-2.050568	-2.041873	-11.421312	-15.875001	-6.023324	-1.904851	2.166920	-1.236060	10.865120	-0.886900	0.047974	0.417052	-1.000000	-1.000000	-1.000000	-1.000000	-1.000000	-1.000000	-1.000000	51.000000	0.000000	-1.000000	-1.000000	335372.000000	1775792525.019899
-14297.895000	-19303.200000	11035.080000	42358.635000	12822.525000	4762.845000	-28373.850000	-21832.740000	-0.506701	-1.793971	-2.058492	-3.552967	-15.750042	-17.173416	-4.058808	-1.260869	2.166920	-1.236060	10.865120	-0.886900	0.047974	0.417052	-1.000000	-1.000000	-1.000000	-1.000000	-1.000000	-1.000000	-1.000000	51.000000	0.000000	-1.000000	-1.000000	335373.000000	1775792525.019910
-14287.500000	-19291.815000	11046.465000	42369.885000	12828.105000	4759.560000	-28371.285000	-21825.495000	-1.131090	-1.474739	-2.520028	-4.911733	-14.718390	-10.218072	-1.181325	-1.449042	3.921820	-1.190280	11.551820	-0.898252	0.053100	0.418273	-1.000000	-1.000000	-1.000000	-1.000000	-1.000000	-1.000000	-1.000000	51.000000	0.000000	-1.000000	-1.000000	335374.000000	1775792525.026022
-14284.485000	-19289.250000	11048.895000	42370.785000	12824.730000	4757.985000	-28372.230000	-21824.190000	-0.917948	-0.309821	-1.460743	-3.679428	-8.213886	-0.613360	1.337121	-1.038010	3.921820	-1.190280	11.551820	-0.898252	0.053100	0.418273	-1.000000	-1.000000	-1.000000	-1.000000	-1.000000	-1.000000	-1.000000	51.000000	0.000000	-1.000000	-1.000000	335375.000000	1775792525.026046
-14285.250000	-19287.495000	11051.280000	42372.585000	12826.845000	4757.760000	-28374.120000	-21824.280000	0.995592	2.147248	1.487587	0.200161	0.611863	6.200461	2.697382	0.702727	3.921820	-1.190280	11.551820	-0.898252	0.053100	0.418273	-1.000000	-1.000000	-1.000000	-1.000000	-1.000000	-1.000000	-1.000000	51.000000	0.000000	-1.000000	-1.000000	335376.000000	1775792525.027306
-14287.230000	-19287.990000	11051.595000	42371.775000	12825.810000	4750.605000	-28376.910000	-21826.665000	3.081710	4.292610	4.346774	4.111638	7.604080	8.086378	2.541534	2.628164	3.921820	-1.190280	11.551820	-0.898252	0.053100	0.418273	-1.000000	-1.000000	-1.000000	-1.000000	-1.000000	-1.000000	-1.000000	51.000000	0.000000	-1.000000	-1.000000	335377.000000	1775792525.027326
-14285.835000	-19287.900000	11051.055000	42369.795000	12816.045000	4748.625000	-28375.740000	-21824.865000	3.477680	4.384635	5.006449	5.514989	10.209894	5.867548	1.243433	3.242245	3.921820	-1.190280	11.551820	-0.898252	0.053100	0.418273	-1.000000	-1.000000	-1.000000	-1.000000	-1.000000	-1.000000	-1.000000	51.000000	0.000000	-1.000000	-1.000000	335378.000000	1775792525.030024
-14287.320000	-19288.035000	11050.695000	42369.480000	12815.730000	4748.085000	-28379.880000	-21827.790000	1.928432	2.233950	3.016841	3.849992	8.201812	1.942307	-0.264344	2.210207	3.921820	-1.190280	11.551820	-0.898252	0.053100	0.418273	-1.000000	-1.000000	-1.000000	-1.000000	-1.000000	-1.000000	-1.000000	51.000000	0.000000	-1.000000	-1.000000	335379.000000	1775792525.030043
-14283.810000	-19282.680000	11056.140000	42373.935000	12815.820000	4736.655000	-28382.355000	-21827.205000	-0.405254	-0.804464	-0.300576	0.570527	3.624323	-1.328084	-1.267987	0.264452	3.921820	-1.190280	11.551820	-0.898252	0.053100	0.418273	-1.000000	-1.000000	-1.000000	-1.000000	-1.000000	-1.000000	-1.000000	51.000000	0.000000	-1.000000	-1.000000	335380.000000	1775792525.034000
-14280.030000	-19278.810000	11059.065000	42373.395000	12807.360000	4710.060000	-28381.005000	-21825.000000	-2.050881	-2.902508	-2.902354	-2.161983	-0.648683	-3.411717	-1.530761	-1.494294	3.921820	-1.190280	11.551820	-0.898252	0.053100	0.418273	-1.000000	-1.000000	-1.000000	-1.000000	-1.000000	-1.000000	-1.000000	51.000000	0.000000	-1.000000	-1.000000	335381.000000	1775792525.034016
-14282.640000	-19285.290000	11053.620000	42369.705000	12799.305000	4678.470000	-28379.655000	-21825.630000	-2.287167	-3.278544	-3.713634	-3.246983	-3.162417	-5.514100	-0.953070	-2.208626	3.921820	-1.190280	11.551820	-0.898252	0.053100	0.418273	-1.000000	-1.000000	-1.000000	-1.000000	-1.000000	-1.000000	-1.000000	51.000000	0.000000	-1.000000	-1.000000	335382.000000	1775792525.040626
-14282.730000	-19285.020000	11055.330000	42373.980000	12794.220000	4667.625000	-28378.170000	-21824.460000	-1.618597	-2.705204	-3.256749	-2.971211	-4.018115	-7.902040	0.325828	-1.797730	3.921820	-1.190280	11.551820	-0.898252	0.053100	0.418273	-1.000000	-1.000000	-1.000000	-1.000000	-1.000000	-1.000000	-1.000000	51.000000	0.000000	-1.000000	-1.000000	335383.000000	1775792525.040648
-14289.480000	-19293.300000	11048.355000	42369.210000	12805.470000	4704.210000	-28376.190000	-21828.690000	-1.070209	-2.255774	-2.505969	-1.977433	-3.265204	-7.431480	1.719894	-0.904463	3.830260	-2.563680	11.887540	-0.906858	0.058410	0.418517	-1.000000	-1.000000	-1.000000	-1.000000	-1.000000	-1.000000	-1.000000	51.000000	0.000000	-1.000000	-1.000000	335384.000000	1775792525.042652
-14293.080000	-19300.095000	11039.940000	42363.045000	12827.430000	4742.370000	-28368.270000	-21829.635000	-1.216202	-2.300072	-2.058803	-0.956789	-0.220938	0.391359	2.637603	-0.302047	3.830260	-2.563680	11.887540	-0.906858	0.058410	0.418517	-1.000000	-1.000000	-1.000000	-1.000000	-1.000000	-1.000000	-1.000000	51.000000	0.000000	-1.000000	-1.000000	335385.000000	1775792525.042666
-14292.630000	-19297.980000	11038.590000	42360.660000	12826.440000	4755.780000	-28367.640000	-21831.120000	-1.725439	-2.406823	-1.993227	-0.541128	4.817659	14.697614	2.857945	-0.261996	3.830260	-2.563680	11.887540	-0.906858	0.058410	0.418517	-1.000000	-1.000000	-1.000000	-1.000000	-1.000000	-1.000000	-1.000000	51.000000	0.000000	-1.000000	-1.000000	335386.000000	1775792525.052181
-14300.235000	-19303.830000	11033.505000	42354.405000	12820.725000	4758.570000	-28384.245000	-21841.785000	-1.758714	-1.673951	-1.695484	-0.676444	8.704705	26.635007	1.906545	-0.608906	3.830260	-2.563680	11.887540	-0.906858	0.058410	0.418517	-1.000000	-1.000000	-1.000000	-1.000000	-1.000000	-1.000000	-1.000000	51.000000	0.000000	-1.000000	-1.000000	335387.000000	1775792525.052202
-14278.185000	-19282.275000	11055.735000	42376.995000	12850.740000	4826.385000	-28375.425000	-21822.930000	-0.588851	0.559965	-0.109535	-0.335522	8.302463	27.773689	-0.670652	-0.817385	3.830260	-2.563680	11.887540	-0.906858	0.058410	0.418517	-1.000000	-1.000000	-1.000000	-1.000000	-1.000000	-1.000000	-1.000000	51.000000	0.000000	-1.000000	-1.000000	335388.000000	1775792525.052229
-14276.970000	-19282.005000	11057.760000	42379.470000	12849.210000	4818.285000	-28366.740000	-21821.580000	2.188375	4.203343	3.377468	1.756483	4.417467	18.225198	-3.418150	0.179976	3.830260	-2.563680	11.887540	-0.906858	0.058410	0.418517	-1.000000	-1.000000	-1.000000	-1.000000	-1.000000	-1.000000	-1.000000	51.000000	0.000000	-1.000000	-1.000000	335389.000000	1775792525.052239
-14272.515000	-19284.345000	11056.320000	42376.815000	12841.875000	4792.455000	-28365.705000	-21822.030000	5.548098	7.534291	7.290640	4.915725	-0.591346	2.033271	-3.876184	2.438602	3.830260	-2.563680	11.887540	-0.906858	0.058410	0.418517	-1.000000	-1.000000	-1.000000	-1.000000	-1.000000	-1.000000	-1.000000	51.000000	0.000000	-1.000000	-1.000000	335390.000000	1775792525.056752
-14263.245000	-19282.005000	11056.185000	42377.310000	12839.850000	4779.180000	-28366.740000	-21815.145000	7.171681	7.867830	8.489104	6.289787	-5.865235	-17.643195	-1.857175	4.182793	3.830260	-2.563680	11.887540	-0.906858	0.058410	0.418517	-1.000000	-1.000000	-1.000000	-1.000000	-1.000000	-1.000000	-1.000000	51.000000	0.000000	-1.000000	-1.000000	335391.000000	1775792525.056774
-14272.515000	-19282.860000	11052.720000	42373.665000	12833.505000	4763.520000	-28367.955000	-21812.220000	5.633795	4.444806	5.435022	4.123534	-10.451998	-35.052235	0.521642	4.026535	3.830260	-2.563680	11.887540	-0.906858	0.058410	0.418517	-1.000000	-1.000000	-1.000000	-1.000000	-1.000000	-1.000000	-1.000000	51.000000	0.000000	-1.000000	-1.000000	335392.000000	1775792525.058353
-14293.440000	-19285.695000	11050.785000	42370.560000	12825.810000	4753.575000	-28369.170000	-21822.120000	0.795605	-0.900713	-0.373087	-0.545740	-12.601190	-42.314024	1.444695	1.948068	3.830260	-2.563680	11.887540	-0.906858	0.058410	0.418517	-1.000000	-1.000000	-1.000000	-1.000000	-1.000000	-1.000000	-1.000000	51.000000	0.000000	-1.000000	-1.000000	335393.000000	1775792525.058368
-14287.680000	-19281.150000	11055.870000	42372.765000	12827.475000	4760.055000	-28368.405000	-21830.310000	-6.011704	-5.522767	-5.788809	-5.111883	-11.157375	-35.137605	0.774632	-1.643299	0.442540	-0.656180	11.826500	-0.904234	0.061096	0.417418	-1.000000	-1.000000	-1.000000	-1.000000	-1.000000	-1.000000	-1.000000	51.000000	0.000000	-1.000000	-1.000000	335394.000000	1775792525.062438
-14278.185000	-19276.965000	11060.820000	42376.905000	12832.020000	4755.870000	-28375.020000	-21830.310000	-10.890821	-7.337496	-7.977484	-7.080260	-6.096819	-15.811417	-0.548500	-5.592504	0.442540	-0.656180	11.826500	-0.904234	0.061096	0.417418	-1.000000	-1.000000	-1.000000	-1.000000	-1.000000	-1.000000	-1.000000	51.000000	0.000000	-1.000000	-1.000000	335395.000000	1775792525.062451
-14280.615000	-19277.865000	11061.810000	42379.965000	12835.530000	4752.405000	-28374.750000	-21829.860000	-10.057648	-5.853706	-6.183924	-5.508054	1.283096	7.610532	-1.637514	-7.673882	0.442540	-0.656180	11.826500	-0.904234	0.061096	0.417418	-1.000000	-1.000000	-1.000000	-1.000000	-1.000000	-1.000000	-1.000000	51.000000	0.000000	-1.000000	-1.000000	335396.000000	1775792525.066011
-14282.955000	-19285.290000	11051.955000	42371.370000	12825.405000	4748.580000	-28372.365000	-21830.130000	-4.149841	-2.659239	-2.334537	-1.764377	8.116487	25.512334	-1.863961	-6.284303	0.442540	-0.656180	11.826500	-0.904234	0.061096	0.417418	-1.000000	-1.000000	-1.000000	-1.000000	-1.000000	-1.000000	-1.000000	51.000000	0.000000	-1.000000	-1.000000	335397.000000	1775792525.066024
-14284.035000	-19283.220000	11053.350000	42370.875000	12809.970000	4752.810000	-28372.230000	-21833.055000	2.613723	-0.036079	0.658877	1.467335	10.935591	32.195618	-0.865568	-2.106267	0.442540	-0.656180	11.826500	-0.904234	0.061096	0.417418	-1.000000	-1.000000	-1.000000	-1.000000	-1.000000	-1.000000	-1.000000	51.000000	0.000000	-1.000000	-1.000000	335398.000000	1775792525.070112
-14288.445000	-19286.460000	11052.180000	42372.090000	12816.180000	4755.105000	-28372.185000	-21836.340000	6.565724	1.084986	1.565728	2.620084	8.467696	28.076529	0.928694	2.453684	0.442540	-0.656180	11.826500	-0.904234	0.061096	0.417418	-1.000000	-1.000000	-1.000000	-1.000000	-1.000000	-1.000000	-1.000000	51.000000	0.000000	-1.000000	-1.000000	335399.000000	1775792525.070130
-14294.610000	-19292.490000	11048.220000	42370.155000	12820.590000	4738.995000	-28379.205000	-21842.820000	6.573821	1.120420	1.173996	2.194281	3.446375	17.218696	2.326953	5.100958	0.442540	-0.656180	11.826500	-0.904234	0.061096	0.417418	-1.000000	-1.000000	-1.000000	-1.000000	-1.000000	-1.000000	-1.000000	51.000000	0.000000	-1.000000	-1.000000	335400.000000	1775792525.074610
-14294.250000	-19289.565000	11050.830000	42370.155000	12814.470000	4714.875000	-28384.515000	-21847.680000	3.743855	0.742210	0.635943	1.342764	-0.216710	3.631036	2.226124	4.968811	0.442540	-0.656180	11.826500	-0.904234	0.061096	0.417418	-1.000000	-1.000000	-1.000000	-1.000000	-1.000000	-1.000000	-1.000000	51.000000	0.000000	-1.000000	-1.000000	335401.000000	1775792525.074626
-14293.440000	-19297.485000	11038.635000	42357.195000	12800.880000	4679.685000	-28383.165000	-21844.980000	0.428550	0.529487	0.430191	0.499724	-1.571610	-9.776543	0.684033	2.940961	0.442540	-0.656180	11.826500	-0.904234	0.061096	0.417418	-1.000000	-1.000000	-1.000000	-1.000000	-1.000000	-1.000000	-1.000000	51.000000	0.000000	-1.000000	-1.000000	335402.000000	1775792525.080828
-14275.350000	-19281.465000	11054.385000	42373.305000	12816.765000	4693.230000	-28367.820000	-21822.750000	-1.035110	0.932849	0.563242	-0.249655	-1.834049	-19.403205	-0.641403	1.301903	0.442540	-0.656180	11.826500	-0.904234	0.061096	0.417418	-1.000000	-1.000000	-1.000000	-1.000000	-1.000000	-1.000000	-1.000000	51.000000	0.000000	-1.000000	-1.000000	335403.000000	1775792525.080850
-14274.900000	-19278.945000	11057.085000	42376.590000	12825.405000	4744.710000	-28352.025000	-21819.240000	0.277050	2.294110	1.398066	-0.084016	-1.062172	-19.599852	0.273288	2.007861	-2.502640	-0.457800	10.651480	-0.899046	0.060852	0.417357	-1.000000	-1.000000	-1.000000	-1.000000	-1.000000	-1.000000	-1.000000	51.000000	0.000000	-1.000000	-1.000000	335404.000000	1775792525.082663
-14285.790000	-19294.605000	11039.985000	42358.680000	12813.345000	4754.970000	-28363.455000	-21831.795000	2.587915	3.801974	2.644512	1.124630	0.922823	-7.271699	3.140622	3.933522	-2.502640	-0.457800	10.651480	-0.899046	0.060852	0.417357	-1.000000	-1.000000	-1.000000	-1.000000	-1.000000	-1.000000	-1.000000	51.000000	0.000000	-1.000000	-1.000000	335405.000000	1775792525.082678
-14285.205000	-19291.095000	11043.495000	42357.105000	12798.990000	4752.000000	-28374.165000	-21835.350000	2.743372	3.383266	2.534540	1.467649	2.025259	10.969315	4.541923	3.549571	-2.502640	-0.457800	10.651480	-0.899046	0.060852	0.417357	-1.000000	-1.000000	-1.000000	-1.000000	-1.000000	-1.000000	-1.000000	51.000000	0.000000	-1.000000	-1.000000	335406.000000	1775792525.085915
-14292.495000	-19288.170000	11048.850000	42361.920000	12792.600000	4755.420000	-28376.055000	-21844.440000	-0.178804	0.695385	0.618601	-0.019603	0.083370	22.356594	1.724599	-0.606028	-2.502640	-0.457800	10.651480	-0.899046	0.060852	0.417357	-1.000000	-1.000000	-1.000000	-1.000000	-1.000000	-1.000000	-1.000000	51.000000	0.000000	-1.000000	-1.000000	335407.000000	1775792525.085924
-14286.195000	-19282.995000	11055.060000	42369.345000	12805.605000	4785.570000	-28369.980000	-21839.220000	-4.017891	-1.999558	-1.096872	-1.471341	-3.482310	20.331629	-3.599761	-6.058603	-2.502640	-0.457800	10.651480	-0.899046	0.060852	0.417357	-1.000000	-1.000000	-1.000000	-1.000000	-1.000000	-1.000000	-1.000000	51.000000	0.000000	-1.000000	-1.000000	335408.000000	1775792525.090785
-14287.005000	-19289.295000	11049.345000	42366.330000	12818.160000	4782.150000	-28364.085000	-21836.205000	-5.883232	-2.873744	-1.166418	-1.044569	-4.636213	8.850376	-7.008224	-8.849601	-2.502640	-0.457800	10.651480	-0.899046	0.060852	0.417357	-1.000000	-1.000000	-1.000000	-1.000000	-1.000000	-1.000000	-1.000000	51.000000	0.000000	-1.000000	-1.000000	335409.000000	1775792525.090811
-14287.545000	-19293.075000	11046.285000	42368.175000	12842.640000	4773.915000	-28364.175000	-21837.465000	-4.616108	-2.360980	-0.451854	0.686856	-1.001379	-4.821423	-5.999962	-7.012539	-2.502640	-0.457800	10.651480	-0.899046	0.060852	0.417357	-1.000000	-1.000000	-1.000000	-1.000000	-1.000000	-1.000000	-1.000000	51.000000	0.000000	-1.000000	-1.000000	335410.000000	1775792525.093893
-14289.165000	-19291.680000	11047.095000	42367.185000	12850.245000	4762.620000	-28370.565000	-21842.370000	-1.432542	-1.726928	-0.381864	1.932717	5.660326	-16.115065	-2.014106	-2.131006	-2.502640	-0.457800	10.651480	-0.899046	0.060852	0.417357	-1.000000	-1.000000	-1.000000	-1.000000	-1.000000	-1.000000	-1.000000	51.000000	0.000000	-1.000000	-1.000000	335411.000000	1775792525.093907
-14286.960000	-19288.080000	11049.975000	42369.480000	12839.535000	4730.265000	-28371.375000	-21841.605000	1.633801	-1.189793	-0.964321	1.765573	10.331436	-22.975688	1.609378	2.500659	-2.502640	-0.457800	10.651480	-0.899046	0.060852	0.417357	-1.000000	-1.000000	-1.000000	-1.000000	-1.000000	-1.000000	-1.000000	51.000000	0.000000	-1.000000	-1.000000	335412.000000	1775792525.097993
-14283.945000	-19282.815000	11056.365000	42376.230000	12830.445000	4687.425000	-28371.960000	-21838.455000	3.424565	-0.152040	-1.121163	0.663011	8.315044	-25.101342	2.921112	4.874769	-2.502640	-0.457800	10.651480	-0.899046	0.060852	0.417357	-1.000000	-1.000000	-1.000000	-1.000000	-1.000000	-1.000000	-1.000000	51.000000	0.000000	-1.000000	-1.000000	335413.000000	1775792525.098008
-14290.200000	-19288.530000	11051.460000	42370.200000	12823.605000	4684.680000	-28378.035000	-21845.745000	3.714108	1.344940	-0.328065	-0.424513	-0.394556	-22.588137	2.221430	4.919703	-2.090620	-0.534100	9.644320	-0.895383	0.060058	0.418456	-1.000000	-1.000000	-1.000000	-1.000000	-1.000000	-1.000000	-1.000000	51.000000	0.000000	-1.000000	-1.000000	335414.000000	1775792525.101897
-14286.015000	-19287.045000	11054.250000	42372.135000	12835.350000	4741.200000	-28376.505000	-21845.655000	2.638401	2.252978	0.680251	-1.231731	-10.346811	-13.002404	0.733105	3.272599	-2.090620	-0.534100	9.644320	-0.895383	0.060058	0.418456	-1.000000	-1.000000	-1.000000	-1.000000	-1.000000	-1.000000	-1.000000	51.000000	0.000000	-1.000000	-1.000000	335415.000000	1775792525.101910
-14281.605000	-19278.720000	11063.160000	42380.685000	12848.265000	4799.835000	-28368.765000	-21845.115000	0.944458	1.980168	1.151567	-1.717900	-14.700746	6.657273	-0.199279	0.897952	-2.090620	-0.534100	9.644320	-0.895383	0.060058	0.418456	-1.000000	-1.000000	-1.000000	-1.000000	-1.000000	-1.000000	-1.000000	51.000000	0.000000	-1.000000	-1.000000	335416.000000	1775792525.107644
-14292.090000	-19292.310000	11050.020000	42369.120000	12839.130000	4807.215000	-28366.695000	-21853.440000	-0.441687	0.962964	1.033836	-1.620866	-10.908841	31.701081	0.358647	-1.093629	-2.090620	-0.534100	9.644320	-0.895383	0.060058	0.418456	-1.000000	-1.000000	-1.000000	-1.000000	-1.000000	-1.000000	-1.000000	51.000000	0.000000	-1.000000	-1.000000	335417.000000	1775792525.107663
-14290.875000	-19297.395000	11039.580000	42356.925000	12822.480000	4776.345000	-28363.050000	-21846.870000	-1.488178	-0.658740	-0.105192	-1.577177	-3.013621	47.212081	1.986104	-2.107801	-2.090620	-0.534100	9.644320	-0.895383	0.060058	0.418456	-1.000000	-1.000000	-1.000000	-1.000000	-1.000000	-1.000000	-1.000000	51.000000	0.000000	-1.000000	-1.000000	335418.000000	1775792525.121676
-14291.370000	-19292.940000	11043.360000	42360.255000	12819.600000	4764.735000	-28361.790000	-21843.180000	-2.310407	-2.637308	-2.382083	-2.375471	2.769454	39.824325	3.201596	-1.811782	-2.090620	-0.534100	9.644320	-0.895383	0.060058	0.418456	-1.000000	-1.000000	-1.000000	-1.000000	-1.000000	-1.000000	-1.000000	51.000000	0.000000	-1.000000	-1.000000	335419.000000	1775792525.121700
-14296.590000	-19293.255000	11045.970000	42362.235000	12814.695000	4751.190000	-28367.190000	-21850.020000	-2.487477	-3.550374	-4.029606	-2.963962	4.122363	11.618164	2.754194	-0.352980	-2.090620	-0.534100	9.644320	-0.895383	0.060058	0.418456	-1.000000	-1.000000	-1.000000	-1.000000	-1.000000	-1.000000	-1.000000	51.000000	0.000000	-1.000000	-1.000000	335420.000000	1775792525.121722
-14302.080000	-19303.920000	11033.460000	42348.195000	12800.745000	4736.385000	-28363.590000	-21854.115000	-1.975863	-2.552975	-3.339322	-1.937644	2.800550	-21.288675	0.509332	0.946910	-2.090620	-0.534100	9.644320	-0.895383	0.060058	0.418456	-1.000000	-1.000000	-1.000000	-1.000000	-1.000000	-1.000000	-1.000000	51.000000	0.000000	-1.000000	-1.000000	335421.000000	1775792525.121733
-14298.165000	-19305.180000	11030.805000	42347.385000	12807.090000	4741.335000	-28368.585000	-21850.875000	-1.106456	-0.703632	-1.061146	0.107101	1.277193	-41.805035	-2.375098	0.947072	-2.090620	-0.534100	9.644320	-0.895383	0.060058	0.418456	-1.000000	-1.000000	-1.000000	-1.000000	-1.000000	-1.000000	-1.000000	51.000000	0.000000	-1.000000	-1.000000	335422.000000	1775792525.121743
-14277.870000	-19282.275000	11053.350000	42368.490000	12832.155000	4768.245000	-28369.260000	-21837.825000	0.523278	1.173434	1.500630	2.254973	1.755705	-41.322149	-4.399802	0.369130	-2.090620	-0.534100	9.644320	-0.895383	0.060058	0.418456	-1.000000	-1.000000	-1.000000	-1.000000	-1.000000	-1.000000	-1.000000	51.000000	0.000000	-1.000000	-1.000000	335423.000000	1775792525.121751
-14282.910000	-19287.450000	11049.165000	42362.820000	12817.845000	4753.665000	-28369.530000	-21843.675000	3.345644	3.542183	4.347043	4.738399	5.011281	-22.563216	-4.739368	0.577106	1.693860	-0.183120	8.866060	-0.891233	0.060730	0.418822	-1.000000	-1.000000	-1.000000	-1.000000	-1.000000	-1.000000	-1.000000	51.000000	0.000000	-1.000000	-1.000000	335424.000000	1775792525.126100
-14282.190000	-19291.095000	11045.205000	42358.680000	12809.655000	4744.845000	-28373.130000	-21847.005000	5.810912	5.613272	6.613718	6.660289	8.056230	2.086048	-3.410150	1.207224	1.693860	-0.183120	8.866060	-0.891233	0.060730	0.418822	-1.000000	-1.000000	-1.000000	-1.000000	-1.000000	-1.000000	-1.000000	51.000000	0.000000	-1.000000	-1.000000	335425.000000	1775792525.126122
-14279.130000	-19288.125000	11047.995000	42362.955000	12824.865000	4753.485000	-28370.790000	-21843.270000	5.567121	5.265478	6.225970	5.998723	7.207134	19.307396	-1.118054	0.889102	1.693860	-0.183120	8.866060	-0.891233	0.060730	0.418822	-1.000000	-1.000000	-1.000000	-1.000000	-1.000000	-1.000000	-1.000000	51.000000	0.000000	-1.000000	-1.000000	335426.000000	1775792525.127812
-14282.370000	-19290.060000	11042.955000	42357.285000	12828.195000	4747.050000	-28372.410000	-21843.675000	2.366137	2.175963	2.816526	2.567238	3.119209	23.912328	1.234266	-0.416007	1.693860	-0.183120	8.866060	-0.891233	0.060730	0.418822	-1.000000	-1.000000	-1.000000	-1.000000	-1.000000	-1.000000	-1.000000	51.000000	0.000000	-1.000000	-1.000000	335427.000000	1775792525.127826
-14287.905000	-19286.235000	11049.525000	42363.360000	12833.820000	4740.975000	-28367.550000	-21843.495000	-2.131998	-1.763665	-1.693332	-1.746229	-0.974476	18.422619	3.004517	-1.648350	1.693860	-0.183120	8.866060	-0.891233	0.060730	0.418822	-1.000000	-1.000000	-1.000000	-1.000000	-1.000000	-1.000000	-1.000000	51.000000	0.000000	-1.000000	-1.000000	335428.000000	1775792525.137024
-14295.330000	-19288.800000	11050.245000	42366.825000	12836.745000	4728.870000	-28369.800000	-21852.450000	-6.088233	-4.473599	-4.829867	-4.669708	-3.341663	7.949176	3.843783	-2.268360	1.693860	-0.183120	8.866060	-0.891233	0.060730	0.418822	-1.000000	-1.000000	-1.000000	-1.000000	-1.000000	-1.000000	-1.000000	51.000000	0.000000	-1.000000	-1.000000	335429.000000	1775792525.137042
-14287.320000	-19283.085000	11056.320000	42373.755000	12828.555000	4730.220000	-28367.955000	-21848.535000	-7.919267	-4.985868	-5.203696	-4.864260	-4.325335	-2.429630	3.571714	-2.418108	1.693860	-0.183120	8.866060	-0.891233	0.060730	0.418822	-1.000000	-1.000000	-1.000000	-1.000000	-1.000000	-1.000000	-1.000000	51.000000	0.000000	-1.000000	-1.000000	335430.000000	1775792525.137063
-14282.775000	-19276.380000	11057.175000	42368.085000	12825.180000	4758.075000	-28362.870000	-21843.315000	-6.388288	-3.402913	-3.227992	-2.873456	-5.078087	-8.160848	2.375687	-1.895434	1.693860	-0.183120	8.866060	-0.891233	0.060730	0.418822	-1.000000	-1.000000	-1.000000	-1.000000	-1.000000	-1.000000	-1.000000	51.000000	0.000000	-1.000000	-1.000000	335431.000000	1775792525.137073
-14281.605000	-19276.245000	11047.005000	42347.385000	12818.745000	4777.200000	-28361.565000	-21840.165000	-1.796060	-0.587425	-0.734568	-1.063683	-6.020404	-6.450667	0.930996	-0.226527	1.693860	-0.183120	8.866060	-0.891233	0.060730	0.418822	-1.000000	-1.000000	-1.000000	-1.000000	-1.000000	-1.000000	-1.000000	51.000000	0.000000	-1.000000	-1.000000	335432.000000	1775792525.138991
-14287.995000	-19287.630000	11047.455000	42359.130000	12820.095000	4762.935000	-28364.085000	-21847.860000	3.303020	1.685149	0.331842	-1.329311	-6.283611	0.537449	-0.311690	1.946319	1.693860	-0.183120	8.866060	-0.891233	0.060730	0.418822	-1.000000	-1.000000	-1.000000	-1.000000	-1.000000	-1.000000	-1.000000	51.000000	0.000000	-1.000000	-1.000000	335433.000000	1775792525.139008
-14288.130000	-19288.305000	11050.155000	42364.485000	12819.015000	4752.810000	-28366.695000	-21849.210000	5.901832	1.691071	-0.221772	-2.353272	-4.721155	5.775314	-1.509312	2.930132	4.669560	-0.518840	9.644320	-0.892393	0.063660	0.420531	-1.000000	-1.000000	-1.000000	-1.000000	-1.000000	-1.000000	-1.000000	51.000000	0.000000	-1.000000	-1.000000	335434.000000	1775792525.143224
-14280.570000	-19281.420000	11054.790000	42367.590000	12818.115000	4743.495000	-28367.865000	-21844.890000	5.229098	-0.152556	-0.780861	-1.433904	-1.261582	3.975310	-2.735385	2.037642	4.669560	-0.518840	9.644320	-0.892393	0.063660	0.420531	-1.000000	-1.000000	-1.000000	-1.000000	-1.000000	-1.000000	-1.000000	51.000000	0.000000	-1.000000	-1.000000	335435.000000	1775792525.143242
-14281.650000	-19281.060000	11050.065000	42358.590000	12803.940000	4735.935000	-28364.715000	-21842.595000	2.941669	-1.528940	-0.176157	1.396895	2.533401	-3.397864	-3.434321	0.456829	4.669560	-0.518840	9.644320	-0.892393	0.063660	0.420531	-1.000000	-1.000000	-1.000000	-1.000000	-1.000000	-1.000000	-1.000000	51.000000	0.000000	-1.000000	-1.000000	335436.000000	1775792525.152726
-14282.370000	-19281.060000	11041.470000	42340.500000	12786.885000	4721.220000	-28363.410000	-21838.995000	0.753609	-1.058209	0.872732	3.269371	4.288571	-10.742576	-2.874192	-0.353499	4.669560	-0.518840	9.644320	-0.892393	0.063660	0.420531	-1.000000	-1.000000	-1.000000	-1.000000	-1.000000	-1.000000	-1.000000	51.000000	0.000000	-1.000000	-1.000000	335437.000000	1775792525.152758
-14288.625000	-19290.645000	11043.135000	42352.785000	12785.625000	4698.855000	-28373.130000	-21849.615000	-0.970184	0.349824	1.025511	2.246043	3.046219	-13.801238	-1.250917	-0.327209	4.669560	-0.518840	9.644320	-0.892393	0.063660	0.420531	-1.000000	-1.000000	-1.000000	-1.000000	-1.000000	-1.000000	-1.000000	51.000000	0.000000	-1.000000	-1.000000	335438.000000	1775792525.152782
-14282.595000	-19283.895000	11052.990000	42364.620000	12805.920000	4707.765000	-28373.220000	-21845.430000	-2.310787	1.123882	0.503599	0.199258	1.077467	-11.476388	0.197746	-0.455572	4.669560	-0.518840	9.644320	-0.892393	0.063660	0.420531	-1.000000	-1.000000	-1.000000	-1.000000	-1.000000	-1.000000	-1.000000	51.000000	0.000000	-1.000000	-1.000000	335439.000000	1775792525.152794
-14299.020000	-19301.040000	11038.680000	42353.505000	12808.980000	4707.630000	-28373.895000	-21857.040000	-3.090658	0.750578	0.449560	0.026124	1.803191	-4.296111	0.739048	-1.239746	4.669560	-0.518840	9.644320	-0.892393	0.063660	0.420531	-1.000000	-1.000000	-1.000000	-1.000000	-1.000000	-1.000000	-1.000000	51.000000	0.000000	-1.000000	-1.000000	335440.000000	1775792525.156515
-14299.245000	-19304.055000	11035.845000	42351.210000	12821.445000	4715.775000	-28376.910000	-21862.080000	-3.385048	-0.531087	0.606033	1.278180	5.471963	5.729177	0.798643	-2.361949	4.669560	-0.518840	9.644320	-0.892393	0.063660	0.420531	-1.000000	-1.000000	-1.000000	-1.000000	-1.000000	-1.000000	-1.000000	51.000000	0.000000	-1.000000	-1.000000	335441.000000	1775792525.156539
-14274.405000	-19281.915000	11058.030000	42372.630000	12851.685000	4758.570000	-28364.850000	-21848.355000	-2.697536	-1.544537	0.498030	2.055519	9.347041	15.405503	1.128503	-2.869347	4.669560	-0.518840	9.644320	-0.892393	0.063660	0.420531	-1.000000	-1.000000	-1.000000	-1.000000	-1.000000	-1.000000	-1.000000	51.000000	0.000000	-1.000000	-1.000000	335442.000000	1775792525.160882
-14260.950000	-19264.275000	11074.860000	42389.370000	12865.185000	4791.870000	-28350.855000	-21834.765000	0.512295	0.042778	1.490867	2.703886	11.112502	22.458725	2.435581	-1.175476	4.669560	-0.518840	9.644320	-0.892393	0.063660	0.420531	-1.000000	-1.000000	-1.000000	-1.000000	-1.000000	-1.000000	-1.000000	51.000000	0.000000	-1.000000	-1.000000	335443.000000	1775792525.160913
-14285.565000	-19272.915000	11065.860000	42378.570000	12847.770000	4787.505000	-28362.870000	-21846.690000	5.283360	4.377583	4.045252	3.780481	8.932054	24.534870	4.353589	2.702191	3.464020	-2.502640	8.682940	-0.897092	0.071167	0.422850	-1.000000	-1.000000	-1.000000	-1.000000	-1.000000	-1.000000	-1.000000	51.000000	0.000000	-1.000000	-1.000000	335444.000000	1775792525.168308
-14290.965000	-19277.055000	11060.685000	42373.980000	12845.205000	4786.785000	-28365.075000	-21848.490000	6.960716	7.472916	5.256875	3.292145	1.248840	18.058936	4.637291	5.664698	3.464020	-2.502640	8.682940	-0.897092	0.071167	0.422850	-1.000000	-1.000000	-1.000000	-1.000000	-1.000000	-1.000000	-1.000000	51.000000	0.000000	-1.000000	-1.000000	335445.000000	1775792525.168329
-14272.470000	-19269.765000	11069.010000	42383.160000	12847.680000	4783.140000	-28362.015000	-21844.665000	3.382865	5.765913	2.583265	-0.290443	-9.906427	2.614128	1.833812	5.001191	3.464020	-2.502640	8.682940	-0.897092	0.071167	0.422850	-1.000000	-1.000000	-1.000000	-1.000000	-1.000000	-1.000000	-1.000000	51.000000	0.000000	-1.000000	-1.000000	335446.000000	1775792525.168352
-14274.900000	-19273.140000	11065.635000	42378.840000	12836.520000	4766.445000	-28366.020000	-21848.535000	-1.769666	0.316952	-2.482219	-4.996210	-18.783153	-16.149375	-2.462650	1.500173	3.464020	-2.502640	8.682940	-0.897092	0.071167	0.422850	-1.000000	-1.000000	-1.000000	-1.000000	-1.000000	-1.000000	-1.000000	51.000000	0.000000	-1.000000	-1.000000	335447.000000	1775792525.168447
-14281.065000	-19280.520000	11056.365000	42369.795000	12822.120000	4729.320000	-28365.615000	-21848.760000	-4.498414	-5.373928	-6.769609	-7.986499	-21.127589	-30.753833	-5.595200	-2.289115	3.464020	-2.502640	8.682940	-0.897092	0.071167	0.422850	-1.000000	-1.000000	-1.000000	-1.000000	-1.000000	-1.000000	-1.000000	51.000000	0.000000	-1.000000	-1.000000	335448.000000	1775792525.172910
-14285.970000	-19284.570000	11049.300000	42359.490000	12815.505000	4718.205000	-28361.475000	-21849.840000	-4.687003	-8.884896	-8.742214	-8.532831	-16.917376	-36.412334	-6.075050	-4.514519	3.464020	-2.502640	8.682940	-0.897092	0.071167	0.422850	-1.000000	-1.000000	-1.000000	-1.000000	-1.000000	-1.000000	-1.000000	51.000000	0.000000	-1.000000	-1.000000	335449.000000	1775792525.172931
-14296.950000	-19293.975000	11042.145000	42354.270000	12817.980000	4731.255000	-28354.725000	-21857.490000	-4.026048	-9.410139	-8.313889	-7.208562	-8.309380	-30.754174	-3.782959	-4.690380	3.464020	-2.502640	8.682940	-0.897092	0.071167	0.422850	-1.000000	-1.000000	-1.000000	-1.000000	-1.000000	-1.000000	-1.000000	51.000000	0.000000	-1.000000	-1.000000	335450.000000	1775792525.174804
-14303.790000	-19300.905000	11036.835000	42353.055000	12820.815000	4764.510000	-28355.490000	-21865.545000	-3.514178	-7.290812	-5.795867	-4.334360	2.251195	-13.461165	0.103798	-3.604928	3.464020	-2.502640	8.682940	-0.897092	0.071167	0.422850	-1.000000	-1.000000	-1.000000	-1.000000	-1.000000	-1.000000	-1.000000	51.000000	0.000000	-1.000000	-1.000000	335451.000000	1775792525.174827
-14292.495000	-19292.130000	11043.945000	42356.205000	12822.660000	4781.655000	-28367.640000	-21859.245000	-2.673051	-3.304933	-1.620589	-0.011458	11.949305	11.059787	3.213871	-2.133000	3.464020	-2.502640	8.682940	-0.897092	0.071167	0.422850	-1.000000	-1.000000	-1.000000	-1.000000	-1.000000	-1.000000	-1.000000	51.000000	0.000000	-1.000000	-1.000000	335452.000000	1775792525.180923
-14268.240000	-19270.215000	11064.690000	42374.205000	12837.960000	4777.785000	-28369.440000	-21842.865000	0.219850	2.293944	3.910327	5.316727	18.030925	32.563138	3.424191	0.118904	3.464020	-2.502640	8.682940	-0.897092	0.071167	0.422850	-1.000000	-1.000000	-1.000000	-1.000000	-1.000000	-1.000000	-1.000000	51.000000	0.000000	-1.000000	-1.000000	335453.000000	1775792525.180947
-14277.870000	-19280.925000	11054.925000	42366.420000	12833.460000	4765.590000	-28369.620000	-21851.595000	5.498187	8.607698	9.703736	10.291164	18.980077	39.951585	1.024457	3.524324	0.305200	-3.128300	9.003400	-0.897764	0.077087	0.425048	-1.000000	-1.000000	-1.000000	-1.000000	-1.000000	-1.000000	-1.000000	51.000000	0.000000	-1.000000	-1.000000	335454.000000	1775792525.184039
-14289.795000	-19287.225000	11047.095000	42358.635000	12826.125000	4760.055000	-28367.640000	-21855.105000	9.593694	12.286641	12.575281	12.168135	14.450528	29.429693	-1.496289	6.209817	0.305200	-3.128300	9.003400	-0.897764	0.077087	0.425048	-1.000000	-1.000000	-1.000000	-1.000000	-1.000000	-1.000000	-1.000000	51.000000	0.000000	-1.000000	-1.000000	335455.000000	1775792525.184055
-14284.125000	-19284.480000	11047.950000	42356.430000	12818.295000	4771.485000	-28359.630000	-21847.545000	8.408406	10.272504	9.785807	8.840822	5.369557	7.903474	-1.914206	5.883247	0.305200	-3.128300	9.003400	-0.897764	0.077087	0.425048	-1.000000	-1.000000	-1.000000	-1.000000	-1.000000	-1.000000	-1.000000	51.000000	0.000000	-1.000000	-1.000000	335456.000000	1775792525.188625
-14278.230000	-19286.190000	11045.520000	42350.895000	12796.695000	4759.245000	-28367.865000	-21848.355000	2.705948	3.746067	2.700944	1.672554	-5.473068	-12.472934	-0.102057	2.952174	0.305200	-3.128300	9.003400	-0.897764	0.077087	0.425048	-1.000000	-1.000000	-1.000000	-1.000000	-1.000000	-1.000000	-1.000000	51.000000	0.000000	-1.000000	-1.000000	335457.000000	1775792525.188647
-14268.870000	-19281.150000	11050.560000	42354.450000	12786.885000	4737.465000	-28374.570000	-21847.095000	-2.938330	-3.138924	-4.371866	-5.361094	-14.373108	-23.648836	1.900066	-0.482644	0.305200	-3.128300	9.003400	-0.897764	0.077087	0.425048	-1.000000	-1.000000	-1.000000	-1.000000	-1.000000	-1.000000	-1.000000	51.000000	0.000000	-1.000000	-1.000000	335458.000000	1775792525.193214
-14281.470000	-19279.485000	11053.755000	42358.365000	12799.125000	4714.380000	-28375.605000	-21855.330000	-5.433899	-6.940002	-7.841638	-8.677546	-17.707012	-25.223323	2.029894	-3.085342	0.305200	-3.128300	9.003400	-0.897764	0.077087	0.425048	-1.000000	-1.000000	-1.000000	-1.000000	-1.000000	-1.000000	-1.000000	51.000000	0.000000	-1.000000	-1.000000	335459.000000	1775792525.193231
-14293.530000	-19285.245000	11050.605000	42361.560000	12835.080000	4722.840000	-28372.455000	-21864.960000	-5.594194	-6.906421	-6.970051	-7.171928	-12.614790	-20.032282	0.527151	-4.780431	0.305200	-3.128300	9.003400	-0.897764	0.077087	0.425048	-1.000000	-1.000000	-1.000000	-1.000000	-1.000000	-1.000000	-1.000000	51.000000	0.000000	-1.000000	-1.000000	335460.000000	1775792525.194671
-14294.295000	-19289.520000	11047.770000	42363.270000	12861.810000	4767.435000	-28365.435000	-21862.935000	-5.524450	-4.751220	-3.756929	-2.590409	0.501675	-9.136234	-0.641667	-5.665587	0.305200	-3.128300	9.003400	-0.897764	0.077087	0.425048	-1.000000	-1.000000	-1.000000	-1.000000	-1.000000	-1.000000	-1.000000	51.000000	0.000000	-1.000000	-1.000000	335461.000000	1775792525.194688
-14295.195000	-19291.770000	11042.955000	42354.720000	12840.885000	4781.700000	-28363.680000	-21864.645000	-5.267932	-2.552294	-0.865426	1.824905	15.071554	6.796833	-0.149595	-5.074288	0.305200	-3.128300	9.003400	-0.897764	0.077087	0.425048	-1.000000	-1.000000	-1.000000	-1.000000	-1.000000	-1.000000	-1.000000	51.000000	0.000000	-1.000000	-1.000000	335462.000000	1775792525.198946
-14295.555000	-19291.545000	11043.135000	42353.910000	12829.320000	4764.285000	-28370.025000	-21867.255000	-3.493951	-1.010469	0.431821	3.474974	20.879309	21.958285	1.279029	-2.554081	0.305200	-3.128300	9.003400	-0.897764	0.077087	0.425048	-1.000000	-1.000000	-1.000000	-1.000000	-1.000000	-1.000000	-1.000000	51.000000	0.000000	-1.000000	-1.000000	335463.000000	1775792525.198968
-14293.305000	-19287.990000	11047.815000	42359.085000	12836.340000	4760.550000	-28370.790000	-21866.490000	0.049128	0.339149	0.671721	2.251459	13.373567	26.917257	1.764337	1.003667	-2.243220	-2.914660	8.133580	-0.896726	0.079651	0.427794	-1.000000	-1.000000	-1.000000	-1.000000	-1.000000	-1.000000	-1.000000	51.000000	0.000000	-1.000000	-1.000000	335464.000000	1775792525.215441
-14291.505000	-19285.785000	11049.795000	42358.680000	12829.230000	4755.465000	-28371.195000	-21866.445000	4.109130	1.971638	1.085283	0.224026	-1.580020	18.056330	0.531753	4.091332	-2.243220	-2.914660	8.133580	-0.896726	0.079651	0.427794	-1.000000	-1.000000	-1.000000	-1.000000	-1.000000	-1.000000	-1.000000	51.000000	0.000000	-1.000000	-1.000000	335465.000000	1775792525.215463
-14286.645000	-19283.220000	11053.260000	42361.020000	12828.960000	4748.175000	-28368.765000	-21864.690000	7.017027	3.613194	2.102445	-0.801232	-14.220730	1.247377	-1.347800	5.668234	-2.243220	-2.914660	8.133580	-0.896726	0.079651	0.427794	-1.000000	-1.000000	-1.000000	-1.000000	-1.000000	-1.000000	-1.000000	51.000000	0.000000	-1.000000	-1.000000	335466.000000	1775792525.215560
-14285.700000	-19284.930000	11051.235000	42358.995000	12830.130000	4734.630000	-28372.905000	-21867.345000	7.684894	4.385180	3.008095	-0.644159	-18.622421	-14.151894	-2.434359	5.399463	-2.243220	-2.914660	8.133580	-0.896726	0.079651	0.427794	-1.000000	-1.000000	-1.000000	-1.000000	-1.000000	-1.000000	-1.000000	51.000000	0.000000	-1.000000	-1.000000	335467.000000	1775792525.215573
-14272.965000	-19276.740000	11058.165000	42366.060000	12838.995000	4711.185000	-28372.365000	-21858.705000	6.138362	3.718857	2.926118	0.013940	-14.295099	-22.082424	-2.309660	3.676995	-2.243220	-2.914660	8.133580	-0.896726	0.079651	0.427794	-1.000000	-1.000000	-1.000000	-1.000000	-1.000000	-1.000000	-1.000000	51.000000	0.000000	-1.000000	-1.000000	335468.000000	1775792525.215590
-14283.855000	-19279.170000	11058.390000	42367.275000	12836.745000	4690.260000	-28372.140000	-21862.980000	3.174540	1.978402	1.812635	0.691030	-4.695049	-21.736689	-1.373229	1.447217	-2.243220	-2.914660	8.133580	-0.896726	0.079651	0.427794	-1.000000	-1.000000	-1.000000	-1.000000	-1.000000	-1.000000	-1.000000	51.000000	0.000000	-1.000000	-1.000000	335469.000000	1775792525.215600
-14300.370000	-19284.705000	11055.195000	42362.235000	12818.925000	4671.045000	-28372.275000	-21872.790000	-0.933716	-0.243367	0.148151	1.005490	4.579105	-15.480216	-0.122267	-0.797565	-2.243220	-2.914660	8.133580	-0.896726	0.079651	0.427794	-1.000000	-1.000000	-1.000000	-1.000000	-1.000000	-1.000000	-1.000000	51.000000	0.000000	-1.000000	-1.000000	335470.000000	1775792525.215612
-14297.805000	-19290.150000	11047.860000	42355.440000	12819.465000	4690.845000	-28365.300000	-21870.540000	-5.894258	-2.714768	-1.841845	0.310089	8.780399	-5.627139	1.110754	-3.120433	-2.243220	-2.914660	8.133580	-0.896726	0.079651	0.427794	-1.000000	-1.000000	-1.000000	-1.000000	-1.000000	-1.000000	-1.000000	51.000000	0.000000	-1.000000	-1.000000	335471.000000	1775792525.215621
-14293.080000	-19290.015000	11043.990000	42349.545000	12815.145000	4731.615000	-28362.870000	-21865.815000	-9.399558	-4.845200	-3.910228	-1.564075	7.386936	7.205916	2.194850	-4.713476	-2.243220	-2.914660	8.133580	-0.896726	0.079651	0.427794	-1.000000	-1.000000	-1.000000	-1.000000	-1.000000	-1.000000	-1.000000	51.000000	0.000000	-1.000000	-1.000000	335472.000000	1775792525.219768
-14293.215000	-19292.265000	11041.290000	42346.035000	12813.345000	4784.715000	-28369.845000	-21869.505000	-8.671638	-5.482487	-5.226032	-3.623366	3.559420	22.235900	2.706614	-4.322202	-2.243220	-2.914660	8.133580	-0.896726	0.079651	0.427794	-1.000000	-1.000000	-1.000000	-1.000000	-1.000000	-1.000000	-1.000000	51.000000	0.000000	-1.000000	-1.000000	335473.000000	1775792525.219788
-14300.190000	-19296.360000	11040.480000	42347.205000	12823.335000	4822.785000	-28367.730000	-21876.075000	-3.989595	-4.072641	-4.789401	-4.297652	0.718105	35.273242	1.901328	-2.277267	-4.364360	-3.753960	7.111160	-0.894529	0.080200	0.429808	-1.000000	-1.000000	-1.000000	-1.000000	-1.000000	-1.000000	-1.000000	51.000000	0.000000	-1.000000	-1.000000	335474.000000	1775792525.222772
-14291.280000	-19286.775000	11049.885000	42356.070000	12828.780000	4787.415000	-28365.165000	-21867.570000	1.652528	-1.143206	-2.207149	-2.518691	0.588681	38.100668	-0.012114	-0.063740	-4.364360	-3.753960	7.111160	-0.894529	0.080200	0.429808	-1.000000	-1.000000	-1.000000	-1.000000	-1.000000	-1.000000	-1.000000	51.000000	0.000000	-1.000000	-1.000000	335475.000000	1775792525.222793
-14286.465000	-19281.825000	11056.230000	42364.035000	12842.775000	4775.310000	-28363.860000	-21864.510000	5.806833	2.474662	2.007751	1.513792	2.760971	23.455384	-1.690268	1.708448	-4.364360	-3.753960	7.111160	-0.894529	0.080200	0.429808	-1.000000	-1.000000	-1.000000	-1.000000	-1.000000	-1.000000	-1.000000	51.000000	0.000000	-1.000000	-1.000000	335476.000000	1775792525.230982
-14291.505000	-19283.355000	11057.130000	42363.720000	12843.045000	4768.785000	-28366.740000	-21871.890000	7.537942	5.638231	6.216547	5.963686	5.175040	-5.689758	-2.225724	2.962274	-4.364360	-3.753960	7.111160	-0.894529	0.080200	0.429808	-1.000000	-1.000000	-1.000000	-1.000000	-1.000000	-1.000000	-1.000000	51.000000	0.000000	-1.000000	-1.000000	335477.000000	1775792525.231002
-14288.715000	-19279.440000	11060.730000	42365.610000	12839.490000	4762.845000	-28367.145000	-21873.690000	6.479357	6.778187	8.170539	8.132672	5.331557	-34.817284	-1.875750	2.969765	-4.364360	-3.753960	7.111160	-0.894529	0.080200	0.429808	-1.000000	-1.000000	-1.000000	-1.000000	-1.000000	-1.000000	-1.000000	51.000000	0.000000	-1.000000	-1.000000	335478.000000	1775792525.231024
-14285.295000	-19284.795000	11051.820000	42356.835000	12829.680000	4756.095000	-28364.895000	-21867.075000	3.252594	5.103652	6.535489	6.373026	1.823005	-49.060764	-1.207702	1.534548	-4.364360	-3.753960	7.111160	-0.894529	0.080200	0.429808	-1.000000	-1.000000	-1.000000	-1.000000	-1.000000	-1.000000	-1.000000	51.000000	0.000000	-1.000000	-1.000000	335479.000000	1775792525.231066
-14278.545000	-19286.595000	11046.465000	42351.210000	12825.990000	4748.085000	-28369.935000	-21865.905000	-0.271909	1.276067	1.722013	1.219787	-4.298556	-43.413674	-0.492499	-0.079646	-4.364360	-3.753960	7.111160	-0.894529	0.080200	0.429808	-1.000000	-1.000000	-1.000000	-1.000000	-1.000000	-1.000000	-1.000000	51.000000	0.000000	-1.000000	-1.000000	335480.000000	1775792525.242468
-14287.815000	-19292.355000	11039.175000	42343.560000	12820.590000	4741.065000	-28367.640000	-21864.870000	-2.606954	-3.089613	-4.260444	-4.954270	-9.842289	-23.386574	0.069230	-0.715048	-4.364360	-3.753960	7.111160	-0.894529	0.080200	0.429808	-1.000000	-1.000000	-1.000000	-1.000000	-1.000000	-1.000000	-1.000000	51.000000	0.000000	-1.000000	-1.000000	335481.000000	1775792525.242490
-14303.205000	-19292.130000	11042.460000	42349.410000	12826.935000	4758.795000	-28357.290000	-21862.530000	-4.095239	-6.150807	-8.511795	-9.019461	-11.544185	0.969870	0.616540	-0.485958	-4.364360	-3.753960	7.111160	-0.894529	0.080200	0.429808	-1.000000	-1.000000	-1.000000	-1.000000	-1.000000	-1.000000	-1.000000	51.000000	0.000000	-1.000000	-1.000000	335482.000000	1775792525.242513
-14289.840000	-19284.615000	11050.335000	42356.610000	12831.795000	4772.565000	-28357.425000	-21863.655000	-5.407332	-6.467285	-8.612748	-8.575738	-8.074217	21.382563	1.601123	-0.118288	-4.364360	-3.753960	7.111160	-0.894529	0.080200	0.429808	-1.000000	-1.000000	-1.000000	-1.000000	-1.000000	-1.000000	-1.000000	51.000000	0.000000	-1.000000	-1.000000	335483.000000	1775792525.242523
-14282.775000	-19285.380000	11049.345000	42354.720000	12830.985000	4763.880000	-28358.370000	-21866.535000	-5.238475	-3.737253	-4.316301	-3.707515	-1.007490	32.765977	2.613584	-0.217662	-4.074420	-2.197440	6.332900	-0.890928	0.078552	0.430785	-1.000000	-1.000000	-1.000000	-1.000000	-1.000000	-1.000000	-1.000000	51.000000	0.000000	-1.000000	-1.000000	335484.000000	1775792525.246856
-14296.905000	-19292.940000	11043.450000	42348.780000	12825.990000	4748.400000	-28361.115000	-21873.195000	-2.440253	0.381786	1.676331	2.449444	5.812557	32.087584	2.445137	-1.047944	-4.074420	-2.197440	6.332900	-0.890928	0.078552	0.430785	-1.000000	-1.000000	-1.000000	-1.000000	-1.000000	-1.000000	-1.000000	51.000000	0.000000	-1.000000	-1.000000	335485.000000	1775792525.246878
-14307.030000	-19301.670000	11036.880000	42344.010000	12819.870000	4738.725000	-28366.335000	-21882.240000	0.946491	3.056712	5.529514	6.010242	8.787744	19.955540	0.590395	-2.441357	-4.074420	-2.197440	6.332900	-0.890928	0.078552	0.430785	-1.000000	-1.000000	-1.000000	-1.000000	-1.000000	-1.000000	-1.000000	51.000000	0.000000	-1.000000	-1.000000	335486.000000	1775792525.246898
-14307.165000	-19304.145000	11034.315000	42341.085000	12814.470000	4732.020000	-28380.600000	-21885.570000	2.203228	2.802705	5.396020	5.474701	6.985861	2.307998	-2.356298	-3.730527	-4.074420	-2.197440	6.332900	-0.890928	0.078552	0.430785	-1.000000	-1.000000	-1.000000	-1.000000	-1.000000	-1.000000	-1.000000	51.000000	0.000000	-1.000000	-1.000000	335487.000000	1775792525.246908
-14278.545000	-19274.940000	11061.045000	42364.935000	12836.025000	4748.940000	-28371.735000	-21861.945000	2.018041	1.285894	2.993758	2.770306	2.786804	-12.091892	-4.999292	-3.399516	-4.074420	-2.197440	6.332900	-0.890928	0.078552	0.430785	-1.000000	-1.000000	-1.000000	-1.000000	-1.000000	-1.000000	-1.000000	51.000000	0.000000	-1.000000	-1.000000	335488.000000	1775792525.250897
-14264.865000	-19260.765000	11073.150000	42375.645000	12850.425000	4765.725000	-28356.840000	-21850.695000	3.439840	1.884338	1.967780	1.424011	0.262534	-16.558759	-5.092191	0.187704	-4.074420	-2.197440	6.332900	-0.890928	0.078552	0.430785	-1.000000	-1.000000	-1.000000	-1.000000	-1.000000	-1.000000	-1.000000	51.000000	0.000000	-1.000000	-1.000000	335489.000000	1775792525.250914
-14270.940000	-19264.770000	11070.585000	42373.980000	12848.895000	4768.335000	-28352.610000	-21857.220000	6.776638	5.092575	3.452946	2.576025	1.172376	-10.683661	-1.281338	5.877105	-4.074420	-2.197440	6.332900	-0.890928	0.078552	0.430785	-1.000000	-1.000000	-1.000000	-1.000000	-1.000000	-1.000000	-1.000000	51.000000	0.000000	-1.000000	-1.000000	335490.000000	1775792525.255241
-14275.080000	-19267.740000	11068.560000	42372.945000	12844.710000	4757.445000	-28359.720000	-21861.315000	8.147601	7.029353	4.477434	3.599998	2.899911	-0.791826	4.274390	9.215032	-4.074420	-2.197440	6.332900	-0.890928	0.078552	0.430785	-1.000000	-1.000000	-1.000000	-1.000000	-1.000000	-1.000000	-1.000000	51.000000	0.000000	-1.000000	-1.000000	335491.000000	1775792525.255261
-14271.795000	-19268.640000	11067.300000	42372.450000	12841.695000	4755.060000	-28354.905000	-21854.790000	4.532213	4.253720	2.081489	1.771430	1.895119	5.269521	7.367852	7.137364	-4.074420	-2.197440	6.332900	-0.890928	0.078552	0.430785	-1.000000	-1.000000	-1.000000	-1.000000	-1.000000	-1.000000	-1.000000	51.000000	0.000000	-1.000000	-1.000000	335492.000000	1775792525.259091
-14275.755000	-19271.520000	11064.150000	42366.420000	12833.910000	4740.120000	-28359.360000	-21859.740000	-2.439308	-2.252009	-3.153396	-2.635338	-2.314250	4.263839	6.006943	1.198912	-4.074420	-2.197440	6.332900	-0.890928	0.078552	0.430785	-1.000000	-1.000000	-1.000000	-1.000000	-1.000000	-1.000000	-1.000000	51.000000	0.000000	-1.000000	-1.000000	335493.000000	1775792525.259109
-14273.145000	-19267.965000	11067.075000	42365.970000	12832.335000	4735.530000	-28358.595000	-21857.175000	-8.616717	-8.495997	-8.091402	-7.170516	-7.219424	-1.480934	1.580560	-4.790172	-1.938020	-0.335720	5.447820	-0.885679	0.076050	0.432677	-1.000000	-1.000000	-1.000000	-1.000000	-1.000000	-1.000000	-1.000000	51.000000	0.000000	-1.000000	-1.000000	335494.000000	1775792525.263304
-14276.655000	-19274.490000	11060.910000	42361.920000	12834.720000	4752.360000	-28358.280000	-21860.190000	-10.941465	-11.032192	-9.896365	-9.322441	-9.617201	-6.732128	-3.077796	-8.030676	-1.938020	-0.335720	5.447820	-0.885679	0.076050	0.432677	-1.000000	-1.000000	-1.000000	-1.000000	-1.000000	-1.000000	-1.000000	51.000000	0.000000	-1.000000	-1.000000	335495.000000	1775792525.263328
-14275.890000	-19274.670000	11060.685000	42361.560000	12838.275000	4769.100000	-28355.805000	-21861.045000	-8.945122	-9.164886	-7.960320	-7.997139	-7.701850	-6.617868	-5.590897	-7.785637	-1.938020	-0.335720	5.447820	-0.885679	0.076050	0.432677	-1.000000	-1.000000	-1.000000	-1.000000	-1.000000	-1.000000	-1.000000	51.000000	0.000000	-1.000000	-1.000000	335496.000000	1775792525.278288
-14277.420000	-19277.235000	11057.580000	42356.655000	12827.070000	4760.460000	-28356.030000	-21862.080000	-4.242913	-4.525903	-3.674225	-3.962635	-2.477417	-0.689454	-5.172690	-5.008492	-1.938020	-0.335720	5.447820	-0.885679	0.076050	0.432677	-1.000000	-1.000000	-1.000000	-1.000000	-1.000000	-1.000000	-1.000000	51.000000	0.000000	-1.000000	-1.000000	335497.000000	1775792525.278312
-14283.135000	-19279.800000	11055.420000	42355.845000	12823.920000	4752.180000	-28359.270000	-21866.355000	0.771742	0.615392	0.975495	0.850780	2.787927	5.940721	-2.805004	-1.367124	-1.938020	-0.335720	5.447820	-0.885679	0.076050	0.432677	-1.000000	-1.000000	-1.000000	-1.000000	-1.000000	-1.000000	-1.000000	51.000000	0.000000	-1.000000	-1.000000	335498.000000	1775792525.278336
-14279.850000	-19275.705000	11060.235000	42359.355000	12818.385000	4730.130000	-28359.630000	-21867.210000	4.189041	4.547082	4.513183	4.702444	5.381531	7.389596	-0.252238	1.632414	-1.938020	-0.335720	5.447820	-0.885679	0.076050	0.432677	-1.000000	-1.000000	-1.000000	-1.000000	-1.000000	-1.000000	-1.000000	51.000000	0.000000	-1.000000	-1.000000	335499.000000	1775792525.278346
-14276.520000	-19275.975000	11060.550000	42362.190000	12822.255000	4721.895000	-28365.750000	-21871.440000	5.575012	6.617739	6.436324	6.889563	5.178698	2.384644	1.226096	3.212498	-1.938020	-0.335720	5.447820	-0.885679	0.076050	0.432677	-1.000000	-1.000000	-1.000000	-1.000000	-1.000000	-1.000000	-1.000000	51.000000	0.000000	-1.000000	-1.000000	335500.000000	1775792525.278359
-14279.175000	-19276.875000	11059.560000	42365.745000	12849.975000	4749.210000	-28364.580000	-21872.790000	5.541982	6.826326	6.711534	7.397477	4.345154	-4.452319	1.413155	3.402937	-1.938020	-0.335720	5.447820	-0.885679	0.076050	0.432677	-1.000000	-1.000000	-1.000000	-1.000000	-1.000000	-1.000000	-1.000000	51.000000	0.000000	-1.000000	-1.000000	335501.000000	1775792525.278369
-14279.895000	-19285.155000	11046.960000	42353.550000	12848.175000	4764.555000	-28358.910000	-21869.730000	4.464416	5.198698	5.106090	6.088783	5.038646	-6.223351	1.089312	2.810939	-1.938020	-0.335720	5.447820	-0.885679	0.076050	0.432677	-1.000000	-1.000000	-1.000000	-1.000000	-1.000000	-1.000000	-1.000000	51.000000	0.000000	-1.000000	-1.000000	335502.000000	1775792525.289382
-14291.325000	-19281.600000	11052.180000	42357.105000	12837.780000	4737.375000	-28358.550000	-21873.825000	2.302100	2.134661	1.778846	2.846194	6.157066	-1.297998	1.291501	2.163564	-1.938020	-0.335720	5.447820	-0.885679	0.076050	0.432677	-1.000000	-1.000000	-1.000000	-1.000000	-1.000000	-1.000000	-1.000000	51.000000	0.000000	-1.000000	-1.000000	335503.000000	1775792525.289405
-14293.395000	-19281.150000	11055.465000	42359.760000	12832.155000	4732.245000	-28362.780000	-21879.585000	-0.713680	-0.995978	-1.643581	-1.178001	4.293687	4.348989	1.977609	1.533733	-0.091560	0.763000	4.928980	-0.884702	0.075500	0.434752	-1.000000	-1.000000	-1.000000	-1.000000	-1.000000	-1.000000	-1.000000	51.000000	0.000000	-1.000000	-1.000000	335504.000000	1775792525.289431
-14293.260000	-19285.335000	11050.110000	42351.750000	12826.350000	4747.545000	-28367.055000	-21882.825000	-3.431898	-2.743020	-3.205804	-4.006102	-1.372399	5.325708	2.016599	0.490219	-0.091560	0.763000	4.928980	-0.884702	0.075500	0.434752	-1.000000	-1.000000	-1.000000	-1.000000	-1.000000	-1.000000	-1.000000	51.000000	0.000000	-1.000000	-1.000000	335505.000000	1775792525.289442
-14290.335000	-19283.895000	11048.985000	42347.295000	12827.520000	4762.305000	-28360.620000	-21878.865000	-4.205077	-2.873379	-2.781064	-4.942243	-7.695277	3.089839	0.896127	-0.759017	-0.091560	0.763000	4.928980	-0.884702	0.075500	0.434752	-1.000000	-1.000000	-1.000000	-1.000000	-1.000000	-1.000000	-1.000000	51.000000	0.000000	-1.000000	-1.000000	335506.000000	1775792525.289455
-14287.770000	-19280.970000	11051.955000	42350.940000	12825.495000	4719.240000	-28362.555000	-21877.920000	-2.408383	-1.925009	-1.512545	-4.433238	-10.700798	0.809585	-0.471676	-1.248161	-0.091560	0.763000	4.928980	-0.884702	0.075500	0.434752	-1.000000	-1.000000	-1.000000	-1.000000	-1.000000	-1.000000	-1.000000	51.000000	0.000000	-1.000000	-1.000000	335507.000000	1775792525.289465
-14284.215000	-19276.875000	11057.175000	42358.365000	12831.345000	4715.595000	-28362.555000	-21877.290000	0.899747	-0.359379	-0.062456	-2.567313	-8.701472	-2.149132	-1.109744	-0.519512	-0.091560	0.763000	4.928980	-0.884702	0.075500	0.434752	-1.000000	-1.000000	-1.000000	-1.000000	-1.000000	-1.000000	-1.000000	51.000000	0.000000	-1.000000	-1.000000	335508.000000	1775792525.291268
-14291.415000	-19282.995000	11050.605000	42351.570000	12829.590000	4748.850000	-28359.225000	-21881.970000	3.659368	1.157984	1.241092	0.388708	-3.017811	-5.608480	-0.964806	0.653057	-0.091560	0.763000	4.928980	-0.884702	0.075500	0.434752	-1.000000	-1.000000	-1.000000	-1.000000	-1.000000	-1.000000	-1.000000	51.000000	0.000000	-1.000000	-1.000000	335509.000000	1775792525.291286
-14294.340000	-19283.355000	11051.820000	42351.300000	12828.195000	4782.240000	-28355.985000	-21885.390000	4.030265	1.628712	1.697326	2.932094	3.167564	-4.866682	-0.325603	1.027944	-0.091560	0.763000	4.928980	-0.884702	0.075500	0.434752	-1.000000	-1.000000	-1.000000	-1.000000	-1.000000	-1.000000	-1.000000	51.000000	0.000000	-1.000000	-1.000000	335510.000000	1775792525.309890
-14292.000000	-19281.555000	11053.080000	42350.760000	12812.085000	4761.855000	-28352.745000	-21883.995000	1.874110	0.756243	0.999717	3.566537	6.567007	1.988332	0.530142	0.216013	-0.091560	0.763000	4.928980	-0.884702	0.075500	0.434752	-1.000000	-1.000000	-1.000000	-1.000000	-1.000000	-1.000000	-1.000000	51.000000	0.000000	-1.000000	-1.000000	335511.000000	1775792525.309913
-14287.365000	-19280.475000	11053.035000	42349.050000	12800.745000	4733.055000	-28359.225000	-21879.270000	-0.923805	-0.533743	-0.158866	2.347879	5.494672	8.310744	1.033624	-0.848321	-0.091560	0.763000	4.928980	-0.884702	0.075500	0.434752	-1.000000	-1.000000	-1.000000	-1.000000	-1.000000	-1.000000	-1.000000	51.000000	0.000000	-1.000000	-1.000000	335512.000000	1775792525.309937
-14289.390000	-19284.165000	11049.030000	42347.025000	12811.410000	4733.775000	-28369.215000	-21881.160000	-2.339953	-1.259555	-1.034250	0.368184	1.382716	6.506869	0.323132	-1.025668	-0.091560	0.763000	4.928980	-0.884702	0.075500	0.434752	-1.000000	-1.000000	-1.000000	-1.000000	-1.000000	-1.000000	-1.000000	51.000000	0.000000	-1.000000	-1.000000	335513.000000	1775792525.309948
-14288.040000	-19286.505000	11046.870000	42347.835000	12826.845000	4758.660000	-28365.930000	-21878.820000	-2.040396	-1.367432	-1.528413	-1.277685	-1.554676	-1.664050	-1.692736	-0.288400	0.152600	1.434440	4.364360	-0.885313	0.076904	0.434935	-1.000000	-1.000000	-1.000000	-1.000000	-1.000000	-1.000000	-1.000000	51.000000	0.000000	-1.000000	-1.000000	335514.000000	1775792525.309961
-14285.430000	-19283.310000	11047.545000	42347.745000	12825.720000	4770.630000	-28362.555000	-21878.640000	-0.930151	-1.165062	-1.696354	-1.890804	-0.339066	-7.451501	-3.403955	0.564831	0.152600	1.434440	4.364360	-0.885313	0.076904	0.434935	-1.000000	-1.000000	-1.000000	-1.000000	-1.000000	-1.000000	-1.000000	51.000000	0.000000	-1.000000	-1.000000	335515.000000	1775792525.309971
-14296.365000	-19290.015000	11043.315000	42347.430000	12842.595000	4775.760000	-28356.120000	-21886.830000	-0.059584	-0.721209	-1.406757	-1.403257	3.651371	-5.834979	-2.870598	0.743217	0.152600	1.434440	4.364360	-0.885313	0.076904	0.434935	-1.000000	-1.000000	-1.000000	-1.000000	-1.000000	-1.000000	-1.000000	51.000000	0.000000	-1.000000	-1.000000	335516.000000	1775792525.309983
-14307.795000	-19297.980000	11037.465000	42342.705000	12850.920000	4757.355000	-28359.945000	-21897.000000	-0.422161	-0.355986	-0.799332	-0.431610	6.977255	-0.082636	-0.095755	-0.322017	0.152600	1.434440	4.364360	-0.885313	0.076904	0.434935	-1.000000	-1.000000	-1.000000	-1.000000	-1.000000	-1.000000	-1.000000	51.000000	0.000000	-1.000000	-1.000000	335517.000000	1775792525.309993
-14291.055000	-19285.965000	11047.005000	42349.230000	12855.195000	4756.320000	-28365.390000	-21886.470000	-1.806516	-0.278389	-0.099844	0.332271	7.300233	3.298389	2.745278	-2.162633	0.152600	1.434440	4.364360	-0.885313	0.076904	0.434935	-1.000000	-1.000000	-1.000000	-1.000000	-1.000000	-1.000000	-1.000000	51.000000	0.000000	-1.000000	-1.000000	335518.000000	1775792525.321873
-14272.065000	-19265.355000	11067.480000	42367.995000	12855.870000	4768.830000	-28357.335000	-21869.145000	-1.752245	0.644769	1.346215	1.172505	3.970896	1.965785	3.608507	-2.579957	0.152600	1.434440	4.364360	-0.885313	0.076904	0.434935	-1.000000	-1.000000	-1.000000	-1.000000	-1.000000	-1.000000	-1.000000	51.000000	0.000000	-1.000000	-1.000000	335519.000000	1775792525.321896
-14279.715000	-19275.165000	11057.085000	42356.925000	12831.210000	4749.525000	-28355.850000	-21873.780000	1.360231	3.219448	3.893501	2.573716	-2.362467	-1.342294	2.659636	-0.011380	0.152600	1.434440	4.364360	-0.885313	0.076904	0.434935	-1.000000	-1.000000	-1.000000	-1.000000	-1.000000	-1.000000	-1.000000	51.000000	0.000000	-1.000000	-1.000000	335520.000000	1775792525.321921
-14285.295000	-19286.685000	11043.945000	42344.685000	12825.180000	4732.380000	-28357.515000	-21879.360000	4.932471	5.142838	5.308263	3.068541	-10.002514	-4.143662	1.224726	3.542691	0.152600	1.434440	4.364360	-0.885313	0.076904	0.434935	-1.000000	-1.000000	-1.000000	-1.000000	-1.000000	-1.000000	-1.000000	51.000000	0.000000	-1.000000	-1.000000	335521.000000	1775792525.321931
-14279.265000	-19277.415000	11053.260000	42353.685000	12829.545000	4745.745000	-28366.920000	-21879.315000	5.214696	3.543205	3.098095	0.904112	-15.551314	-5.696480	-0.257347	4.551289	0.152600	1.434440	4.364360	-0.885313	0.076904	0.434935	-1.000000	-1.000000	-1.000000	-1.000000	-1.000000	-1.000000	-1.000000	51.000000	0.000000	-1.000000	-1.000000	335522.000000	1775792525.321943
-14291.820000	-19281.060000	11051.730000	42352.110000	12824.280000	4748.490000	-28374.615000	-21891.510000	1.817606	-0.693844	-1.427625	-2.571319	-15.163002	-4.503373	-2.120887	1.959918	0.152600	1.434440	4.364360	-0.885313	0.076904	0.434935	-1.000000	-1.000000	-1.000000	-1.000000	-1.000000	-1.000000	-1.000000	51.000000	0.000000	-1.000000	-1.000000	335523.000000	1775792525.321952
-14302.080000	-19289.700000	11043.225000	42343.920000	12808.170000	4713.750000	-28377.090000	-21898.980000	-3.152778	-4.535112	-4.976544	-4.669793	-8.619108	-0.482793	-4.073032	-2.581671	-1.739640	2.121140	4.639040	-0.886900	0.079895	0.435729	-1.000000	-1.000000	-1.000000	-1.000000	-1.000000	-1.000000	-1.000000	51.000000	0.000000	-1.000000	-1.000000	335524.000000	1775792525.325040
-14297.220000	-19291.905000	11040.435000	42340.455000	12804.390000	4718.880000	-28368.720000	-21889.980000	-7.195665	-6.357255	-6.129771	-4.683724	0.078274	3.052556	-4.652280	-6.229036	-1.739640	2.121140	4.639040	-0.886900	0.079895	0.435729	-1.000000	-1.000000	-1.000000	-1.000000	-1.000000	-1.000000	-1.000000	51.000000	0.000000	-1.000000	-1.000000	335525.000000	1775792525.325059
-14284.395000	-19277.190000	11056.230000	42357.240000	12831.390000	4750.470000	-28357.245000	-21880.530000	-7.670878	-5.625752	-4.873264	-3.002184	7.431198	4.625305	-2.350328	-6.122117	-1.739640	2.121140	4.639040	-0.886900	0.079895	0.435729	-1.000000	-1.000000	-1.000000	-1.000000	-1.000000	-1.000000	-1.000000	51.000000	0.000000	-1.000000	-1.000000	335526.000000	1775792525.327229
-14284.395000	-19276.020000	11057.670000	42358.185000	12841.470000	4779.000000	-28353.150000	-21882.690000	-3.479440	-2.101851	-1.270081	0.332304	13.076805	7.125724	2.476237	-1.745561	-1.739640	2.121140	4.639040	-0.886900	0.079895	0.435729	-1.000000	-1.000000	-1.000000	-1.000000	-1.000000	-1.000000	-1.000000	51.000000	0.000000	-1.000000	-1.000000	335527.000000	1775792525.327242
-14291.370000	-19281.870000	11053.665000	42353.910000	12839.085000	4779.945000	-28360.800000	-21890.655000	2.828317	2.689837	3.250200	4.163746	16.550882	11.659114	6.908746	3.753717	-1.739640	2.121140	4.639040	-0.886900	0.079895	0.435729	-1.000000	-1.000000	-1.000000	-1.000000	-1.000000	-1.000000	-1.000000	51.000000	0.000000	-1.000000	-1.000000	335528.000000	1775792525.341257
-14297.805000	-19286.865000	11049.570000	42350.580000	12838.050000	4759.425000	-28368.855000	-21899.205000	6.758191	5.573565	5.778500	5.905364	15.367288	13.551238	7.432876	6.187150	-1.739640	2.121140	4.639040	-0.886900	0.079895	0.435729	-1.000000	-1.000000	-1.000000	-1.000000	-1.000000	-1.000000	-1.000000	51.000000	0.000000	-1.000000	-1.000000	335529.000000	1775792525.341287
-14300.775000	-19295.820000	11037.735000	42338.790000	12829.365000	4744.665000	-28371.690000	-21903.840000	6.007678	4.619898	4.497140	4.038240	8.252247	7.402748	3.202600	4.124860	-1.739640	2.121140	4.639040	-0.886900	0.079895	0.435729	-1.000000	-1.000000	-1.000000	-1.000000	-1.000000	-1.000000	-1.000000	51.000000	0.000000	-1.000000	-1.000000	335530.000000	1775792525.341318
-14290.200000	-19287.090000	11044.485000	42345.720000	12834.720000	4752.675000	-28364.445000	-21891.240000	2.262510	0.995348	0.420133	-0.270509	-2.260244	-5.464565	-2.826850	-0.029076	-1.739640	2.121140	4.639040	-0.886900	0.079895	0.435729	-1.000000	-1.000000	-1.000000	-1.000000	-1.000000	-1.000000	-1.000000	51.000000	0.000000	-1.000000	-1.000000	335531.000000	1775792525.341327
-14278.815000	-19270.395000	11061.495000	42362.910000	12848.670000	4779.585000	-28340.640000	-21871.665000	-0.696202	-1.837309	-2.998406	-3.623659	-10.914839	-16.500429	-6.019641	-2.097781	-1.739640	2.121140	4.639040	-0.886900	0.079895	0.435729	-1.000000	-1.000000	-1.000000	-1.000000	-1.000000	-1.000000	-1.000000	51.000000	0.000000	-1.000000	-1.000000	335532.000000	1775792525.341337
-14287.545000	-19279.980000	11051.100000	42352.155000	12831.885000	4759.290000	-28348.695000	-21882.465000	-0.831044	-1.426629	-2.910062	-3.334065	-13.709938	-18.170098	-4.065146	-0.250895	-1.739640	2.121140	4.639040	-0.886900	0.079895	0.435729	-1.000000	-1.000000	-1.000000	-1.000000	-1.000000	-1.000000	-1.000000	51.000000	0.000000	-1.000000	-1.000000	335533.000000	1775792525.341345
-14290.695000	-19281.015000	11052.630000	42353.280000	12821.445000	4720.455000	-28359.180000	-21889.485000	0.270354	0.809986	-0.325385	-0.569115	-11.451231	-12.153033	0.294802	2.643097	-3.570840	2.884140	4.379620	-0.890073	0.079468	0.434996	-1.000000	-1.000000	-1.000000	-1.000000	-1.000000	-1.000000	-1.000000	51.000000	0.000000	-1.000000	-1.000000	335534.000000	1775792525.349027
-14283.540000	-19271.250000	11065.455000	42364.530000	12815.370000	4667.805000	-28361.520000	-21885.930000	0.261897	1.986785	1.917299	1.731738	-7.675337	-6.810497	2.237888	2.699224	-3.570840	2.884140	4.379620	-0.890073	0.079468	0.434996	-1.000000	-1.000000	-1.000000	-1.000000	-1.000000	-1.000000	-1.000000	51.000000	0.000000	-1.000000	-1.000000	335535.000000	1775792525.349050
-14279.805000	-19267.830000	11067.165000	42363.090000	12817.035000	4673.610000	-28364.670000	-21884.220000	-0.771838	1.558178	2.832571	2.528219	-4.108995	-6.486327	0.369900	-0.169571	-3.570840	2.884140	4.379620	-0.890073	0.079468	0.434996	-1.000000	-1.000000	-1.000000	-1.000000	-1.000000	-1.000000	-1.000000	51.000000	0.000000	-1.000000	-1.000000	335536.000000	1775792525.349079
-14278.455000	-19279.440000	11051.505000	42346.080000	12821.535000	4724.370000	-28366.200000	-21886.965000	-1.430805	0.338777	2.332951	1.762158	-0.211151	-5.605108	-2.818179	-3.245506	-3.570840	2.884140	4.379620	-0.890073	0.079468	0.434996	-1.000000	-1.000000	-1.000000	-1.000000	-1.000000	-1.000000	-1.000000	51.000000	0.000000	-1.000000	-1.000000	335537.000000	1775792525.349091
-14268.240000	-19276.830000	11053.485000	42350.535000	12843.540000	4815.135000	-28354.815000	-21882.465000	-1.107662	-1.488417	-0.065780	-0.763254	4.733076	5.248346	-4.169055	-4.480368	-3.570840	2.884140	4.379620	-0.890073	0.079468	0.434996	-1.000000	-1.000000	-1.000000	-1.000000	-1.000000	-1.000000	-1.000000	51.000000	0.000000	-1.000000	-1.000000	335538.000000	1775792525.350329
-14280.480000	-19274.265000	11045.700000	42331.860000	12843.855000	4820.265000	-28347.930000	-21880.755000	-0.300193	-3.345377	-3.572560	-4.042601	10.053637	26.244975	-2.105488	-3.474250	-3.570840	2.884140	4.379620	-0.890073	0.079468	0.434996	-1.000000	-1.000000	-1.000000	-1.000000	-1.000000	-1.000000	-1.000000	51.000000	0.000000	-1.000000	-1.000000	335539.000000	1775792525.350344
-14304.690000	-19275.120000	11050.605000	42341.445000	12838.545000	4782.375000	-28348.335000	-21889.665000	-0.650145	-3.881729	-5.899644	-6.052680	12.980673	42.351286	2.277417	-1.208214	-3.570840	2.884140	4.379620	-0.890073	0.079468	0.434996	-1.000000	-1.000000	-1.000000	-1.000000	-1.000000	-1.000000	-1.000000	51.000000	0.000000	-1.000000	-1.000000	335540.000000	1775792525.354771
-14300.460000	-19273.995000	11058.255000	42354.135000	12835.980000	4760.730000	-28353.870000	-21894.795000	-3.233317	-2.619392	-5.147112	-4.867410	10.579975	36.033004	5.727817	0.486475	-3.570840	2.884140	4.379620	-0.890073	0.079468	0.434996	-1.000000	-1.000000	-1.000000	-1.000000	-1.000000	-1.000000	-1.000000	51.000000	0.000000	-1.000000	-1.000000	335541.000000	1775792525.354790
-14274.495000	-19271.745000	11059.695000	42355.170000	12840.300000	4755.555000	-28358.505000	-21888.855000	-5.444564	-0.353155	-1.260006	-0.004595	3.338146	6.735281	5.518047	0.725973	-3.570840	2.884140	4.379620	-0.890073	0.079468	0.434996	-1.000000	-1.000000	-1.000000	-1.000000	-1.000000	-1.000000	-1.000000	51.000000	0.000000	-1.000000	-1.000000	335542.000000	1775792525.359985
-14274.630000	-19277.055000	11051.865000	42348.735000	12837.645000	4763.340000	-28355.040000	-21878.865000	-3.181202	1.699704	3.421376	5.835012	-4.766061	-27.439208	1.885389	0.685434	-3.570840	2.884140	4.379620	-0.890073	0.079468	0.434996	-1.000000	-1.000000	-1.000000	-1.000000	-1.000000	-1.000000	-1.000000	51.000000	0.000000	-1.000000	-1.000000	335543.000000	1775792525.360010
-14285.430000	-19282.005000	11048.310000	42346.935000	12842.280000	4780.485000	-28356.570000	-21886.560000	2.866323	2.428084	5.681178	8.482836	-9.736670	-45.926345	-2.373749	1.629125	-3.586100	2.350040	4.623780	-0.891599	0.078979	0.433959	-1.000000	-1.000000	-1.000000	-1.000000	-1.000000	-1.000000	-1.000000	51.000000	0.000000	-1.000000	-1.000000	335544.000000	1775792525.362930
-14285.520000	-19278.450000	11052.495000	42349.185000	12840.525000	4774.005000	-28358.415000	-21889.890000	7.397324	1.608312	4.423252	6.406325	-10.045970	-40.794905	-4.647001	2.700627	-3.586100	2.350040	4.623780	-0.891599	0.078979	0.433959	-1.000000	-1.000000	-1.000000	-1.000000	-1.000000	-1.000000	-1.000000	51.000000	0.000000	-1.000000	-1.000000	335545.000000	1775792525.362955
-14280.840000	-19272.600000	11057.580000	42352.020000	12834.045000	4763.745000	-28355.535000	-21886.605000	7.109812	0.439824	1.534934	1.726624	-6.866335	-19.675964	-4.276061	2.367173	-3.586100	2.350040	4.623780	-0.891599	0.078979	0.433959	-1.000000	-1.000000	-1.000000	-1.000000	-1.000000	-1.000000	-1.000000	51.000000	0.000000	-1.000000	-1.000000	335546.000000	1775792525.366904
-14286.015000	-19278.540000	11052.270000	42347.970000	12819.330000	4748.445000	-28355.670000	-21891.150000	3.325896	0.187344	-0.587916	-2.448747	-2.995907	2.760321	-2.055475	0.726289	-3.586100	2.350040	4.623780	-0.891599	0.078979	0.433959	-1.000000	-1.000000	-1.000000	-1.000000	-1.000000	-1.000000	-1.000000	51.000000	0.000000	-1.000000	-1.000000	335547.000000	1775792525.366926
-14290.605000	-19285.740000	11047.545000	42345.180000	12813.210000	4743.855000	-28357.875000	-21897.270000	-1.130468	0.461064	-1.471207	-4.614768	-0.743925	15.978915	0.610728	-1.185042	-3.586100	2.350040	4.623780	-0.891599	0.078979	0.433959	-1.000000	-1.000000	-1.000000	-1.000000	-1.000000	-1.000000	-1.000000	51.000000	0.000000	-1.000000	-1.000000	335548.000000	1775792525.370964
-14290.380000	-19290.195000	11043.720000	42340.275000	12816.945000	4759.020000	-28356.210000	-21897.900000	-4.343873	0.023255	-1.971111	-4.959086	-0.021412	18.649401	2.375381	-2.638891	-3.586100	2.350040	4.623780	-0.891599	0.078979	0.433959	-1.000000	-1.000000	-1.000000	-1.000000	-1.000000	-1.000000	-1.000000	51.000000	0.000000	-1.000000	-1.000000	335549.000000	1775792525.370990
-14286.735000	-19287.720000	11046.510000	42340.455000	12821.220000	4746.375000	-28360.710000	-21896.640000	-5.224644	-1.142402	-2.362084	-4.109814	1.128908	15.485297	2.663053	-3.002621	-3.586100	2.350040	4.623780	-0.891599	0.078979	0.433959	-1.000000	-1.000000	-1.000000	-1.000000	-1.000000	-1.000000	-1.000000	51.000000	0.000000	-1.000000	-1.000000	335550.000000	1775792525.375262
-14289.705000	-19277.280000	11058.480000	42354.810000	12843.405000	4734.495000	-28361.295000	-21894.840000	-3.613941	-1.551984	-1.811336	-2.153886	4.182098	10.438647	1.701046	-1.830742	-3.586100	2.350040	4.623780	-0.891599	0.078979	0.433959	-1.000000	-1.000000	-1.000000	-1.000000	-1.000000	-1.000000	-1.000000	51.000000	0.000000	-1.000000	-1.000000	335551.000000	1775792525.375286
-14288.265000	-19276.020000	11056.680000	42354.360000	12850.785000	4737.240000	-28356.030000	-21892.185000	-0.681666	-0.027496	0.299977	1.026240	8.619338	4.755075	0.321295	0.499430	-3.586100	2.350040	4.623780	-0.891599	0.078979	0.433959	-1.000000	-1.000000	-1.000000	-1.000000	-1.000000	-1.000000	-1.000000	51.000000	0.000000	-1.000000	-1.000000	335552.000000	1775792525.378189
-14298.795000	-19290.285000	11041.785000	42339.510000	12835.485000	4752.360000	-28353.870000	-21900.915000	1.721734	2.309359	2.583025	4.014750	11.435575	0.040754	-0.371082	2.670788	-3.586100	2.350040	4.623780	-0.891599	0.078979	0.433959	-1.000000	-1.000000	-1.000000	-1.000000	-1.000000	-1.000000	-1.000000	51.000000	0.000000	-1.000000	-1.000000	335553.000000	1775792525.378209
-14312.205000	-19300.275000	11033.145000	42330.510000	12818.475000	4746.330000	-28360.530000	-21916.530000	2.065114	2.686747	2.459505	4.150108	8.688456	-1.727159	-0.131569	2.920802	-3.204600	2.624720	4.471180	-0.891111	0.078003	0.433410	-1.000000	-1.000000	-1.000000	-1.000000	-1.000000	-1.000000	-1.000000	51.000000	0.000000	-1.000000	-1.000000	335554.000000	1775792525.388725
-14309.280000	-19298.295000	11034.405000	42330.555000	12809.610000	4732.695000	-28364.220000	-21917.250000	0.283883	0.142691	-0.453718	0.899216	-0.193205	-1.314649	0.038067	0.581448	-3.204600	2.624720	4.471180	-0.891111	0.078003	0.433410	-1.000000	-1.000000	-1.000000	-1.000000	-1.000000	-1.000000	-1.000000	51.000000	0.000000	-1.000000	-1.000000	335555.000000	1775792525.388748
-14276.025000	-19267.965000	11062.710000	42356.385000	12825.585000	4742.910000	-28357.020000	-21889.305000	-1.020448	-2.432477	-2.941970	-2.470521	-10.126081	-1.304640	-0.485306	-2.020557	-3.204600	2.624720	4.471180	-0.891111	0.078003	0.433410	-1.000000	-1.000000	-1.000000	-1.000000	-1.000000	-1.000000	-1.000000	51.000000	0.000000	-1.000000	-1.000000	335556.000000	1775792525.388772
-14278.140000	-19272.150000	11054.430000	42345.810000	12821.580000	4740.885000	-28353.645000	-21888.720000	1.200086	-1.403154	-1.632362	-2.283170	-14.263590	-2.224688	-0.858103	-1.299172	-3.204600	2.624720	4.471180	-0.891111	0.078003	0.433410	-1.000000	-1.000000	-1.000000	-1.000000	-1.000000	-1.000000	-1.000000	51.000000	0.000000	-1.000000	-1.000000	335557.000000	1775792525.388782
-14289.615000	-19281.555000	11047.230000	42343.290000	12830.760000	4748.265000	-28367.955000	-21900.420000	5.483599	2.343934	2.260948	0.817904	-10.284919	-2.657187	-0.484929	2.432938	-3.204600	2.624720	4.471180	-0.891111	0.078003	0.433410	-1.000000	-1.000000	-1.000000	-1.000000	-1.000000	-1.000000	-1.000000	51.000000	0.000000	-1.000000	-1.000000	335558.000000	1775792525.390030
-14287.140000	-19275.615000	11053.980000	42349.680000	12845.250000	4769.370000	-28366.470000	-21897.135000	6.844581	4.374418	4.466842	3.181972	-1.365350	-1.467228	-0.276149	4.846119	-3.204600	2.624720	4.471180	-0.891111	0.078003	0.433410	-1.000000	-1.000000	-1.000000	-1.000000	-1.000000	-1.000000	-1.000000	51.000000	0.000000	-1.000000	-1.000000	335559.000000	1775792525.390047
-14285.475000	-19273.680000	11054.970000	42347.205000	12835.710000	4744.485000	-28363.455000	-21895.605000	3.339865	2.744479	3.316984	3.037557	7.286801	0.870480	-0.718469	3.437559	-3.204600	2.624720	4.471180	-0.891111	0.078003	0.433410	-1.000000	-1.000000	-1.000000	-1.000000	-1.000000	-1.000000	-1.000000	51.000000	0.000000	-1.000000	-1.000000	335560.000000	1775792525.394694
-14289.390000	-19280.430000	11052.000000	42346.845000	12824.325000	4730.895000	-28364.850000	-21902.490000	-2.331066	-0.815382	0.391086	1.093532	10.847543	1.485216	-0.874435	-0.357101	-3.204600	2.624720	4.471180	-0.891111	0.078003	0.433410	-1.000000	-1.000000	-1.000000	-1.000000	-1.000000	-1.000000	-1.000000	51.000000	0.000000	-1.000000	-1.000000	335561.000000	1775792525.394720
-14290.920000	-19279.710000	11054.430000	42351.525000	12832.245000	4729.815000	-28369.080000	-21905.370000	-6.693521	-4.074730	-2.386299	-1.242996	7.607191	-1.622417	-0.223055	-4.090659	-3.204600	2.624720	4.471180	-0.891111	0.078003	0.433410	-1.000000	-1.000000	-1.000000	-1.000000	-1.000000	-1.000000	-1.000000	51.000000	0.000000	-1.000000	-1.000000	335562.000000	1775792525.402208
-14291.145000	-19277.415000	11055.870000	42352.785000	12830.805000	4723.875000	-28366.155000	-21904.470000	-7.976882	-5.574354	-3.809358	-2.618873	0.794311	-6.017520	0.656759	-6.078205	-3.204600	2.624720	4.471180	-0.891111	0.078003	0.433410	-1.000000	-1.000000	-1.000000	-1.000000	-1.000000	-1.000000	-1.000000	51.000000	0.000000	-1.000000	-1.000000	335563.000000	1775792525.402230
-14287.230000	-19279.170000	11049.885000	42344.235000	12823.020000	4726.980000	-28356.525000	-21899.610000	-6.079240	-4.682270	-3.581924	-2.665254	-4.829179	-7.562693	1.431617	-5.392006	-3.677660	1.678600	4.898460	-0.889219	0.078857	0.432616	-1.000000	-1.000000	-1.000000	-1.000000	-1.000000	-1.000000	-1.000000	51.000000	0.000000	-1.000000	-1.000000	335564.000000	1775792525.402254
-14288.445000	-19280.070000	11045.655000	42336.360000	12820.230000	4728.105000	-28358.280000	-21900.645000	-2.116129	-2.070485	-2.500541	-2.357431	-7.117382	-4.579430	2.274147	-2.272032	-3.677660	1.678600	4.898460	-0.889219	0.078857	0.432616	-1.000000	-1.000000	-1.000000	-1.000000	-1.000000	-1.000000	-1.000000	51.000000	0.000000	-1.000000	-1.000000	335565.000000	1775792525.402264
-14305.275000	-19293.795000	11032.920000	42323.625000	12811.545000	4760.910000	-28364.895000	-21916.260000	1.699084	0.520380	-1.703788	-2.719227	-6.461046	1.926514	2.616878	1.324223	-3.677660	1.678600	4.898460	-0.889219	0.078857	0.432616	-1.000000	-1.000000	-1.000000	-1.000000	-1.000000	-1.000000	-1.000000	51.000000	0.000000	-1.000000	-1.000000	335566.000000	1775792525.406030
-14328.045000	-19311.255000	11021.670000	42317.685000	12805.830000	4786.380000	-28369.350000	-21935.970000	2.735644	1.255152	-1.773902	-3.570345	-4.144947	9.968875	1.350841	2.569681	-3.677660	1.678600	4.898460	-0.889219	0.078857	0.432616	-1.000000	-1.000000	-1.000000	-1.000000	-1.000000	-1.000000	-1.000000	51.000000	0.000000	-1.000000	-1.000000	335567.000000	1775792525.406053
-14320.980000	-19307.070000	11023.830000	42320.295000	12801.780000	4756.005000	-28367.055000	-21929.220000	0.475157	-0.130559	-2.161286	-3.535433	-1.363319	15.783998	-1.312799	0.650942	-3.677660	1.678600	4.898460	-0.889219	0.078857	0.432616	-1.000000	-1.000000	-1.000000	-1.000000	-1.000000	-1.000000	-1.000000	51.000000	0.000000	-1.000000	-1.000000	335568.000000	1775792525.410565
-14296.995000	-19283.535000	11047.455000	42343.965000	12820.995000	4758.480000	-28357.920000	-21910.005000	-1.544466	-0.995898	-0.913961	-0.842134	1.644310	13.976958	-3.378768	-1.329311	-3.677660	1.678600	4.898460	-0.889219	0.078857	0.432616	-1.000000	-1.000000	-1.000000	-1.000000	-1.000000	-1.000000	-1.000000	51.000000	0.000000	-1.000000	-1.000000	335569.000000	1775792525.410582
-14295.330000	-19281.105000	11051.955000	42348.195000	12820.725000	4743.945000	-28369.485000	-21910.410000	0.754254	1.672193	3.483617	4.896646	5.239324	3.414620	-3.235210	0.298703	-3.677660	1.678600	4.898460	-0.889219	0.078857	0.432616	-1.000000	-1.000000	-1.000000	-1.000000	-1.000000	-1.000000	-1.000000	51.000000	0.000000	-1.000000	-1.000000	335570.000000	1775792525.416514
-14291.820000	-19276.695000	11056.230000	42351.300000	12819.105000	4730.580000	-28373.490000	-21909.600000	6.403272	6.820522	9.155274	10.870406	8.365262	-10.285871	-1.689639	4.779235	-3.677660	1.678600	4.898460	-0.889219	0.078857	0.432616	-1.000000	-1.000000	-1.000000	-1.000000	-1.000000	-1.000000	-1.000000	51.000000	0.000000	-1.000000	-1.000000	335571.000000	1775792525.416535
-14285.295000	-19274.355000	11056.860000	42348.915000	12823.065000	4746.735000	-28352.565000	-21899.520000	10.462637	10.070944	11.780622	12.650198	8.707369	-19.440486	-0.145444	8.080610	-3.677660	1.678600	4.898460	-0.889219	0.078857	0.432616	-1.000000	-1.000000	-1.000000	-1.000000	-1.000000	-1.000000	-1.000000	51.000000	0.000000	-1.000000	-1.000000	335572.000000	1775792525.418639
-14290.290000	-19289.115000	11039.130000	42332.355000	12821.400000	4746.375000	-28356.120000	-21903.345000	9.473188	8.198760	8.535815	8.002321	5.499291	-18.940330	1.600179	7.616383	-3.677660	1.678600	4.898460	-0.889219	0.078857	0.432616	-1.000000	-1.000000	-1.000000	-1.000000	-1.000000	-1.000000	-1.000000	51.000000	0.000000	-1.000000	-1.000000	335573.000000	1775792525.418657
-14284.575000	-19288.890000	11042.145000	42337.035000	12831.480000	4749.390000	-28359.405000	-21905.505000	3.741512	1.416851	0.274574	-1.264150	0.446590	-9.422518	3.345085	3.499294	-2.670500	1.464960	4.440660	-0.892271	0.079651	0.430114	-1.000000	-1.000000	-1.000000	-1.000000	-1.000000	-1.000000	-1.000000	51.000000	0.000000	-1.000000	-1.000000	335574.000000	1775792525.422084
-14294.430000	-19295.910000	11035.530000	42333.030000	12836.340000	4765.770000	-28359.630000	-21910.770000	-3.791846	-6.819057	-8.714763	-10.140368	-3.747790	3.391678	3.482758	-2.538005	-2.670500	1.464960	4.440660	-0.892271	0.079651	0.430114	-1.000000	-1.000000	-1.000000	-1.000000	-1.000000	-1.000000	-1.000000	51.000000	0.000000	-1.000000	-1.000000	335575.000000	1775792525.422104
-14305.680000	-19286.550000	11046.195000	42343.470000	12842.955000	4769.955000	-28356.525000	-21910.230000	-10.006699	-11.903778	-13.393448	-13.704146	-5.332692	13.456088	1.535759	-7.887041	-2.670500	1.464960	4.440660	-0.892271	0.079651	0.430114	-1.000000	-1.000000	-1.000000	-1.000000	-1.000000	-1.000000	-1.000000	51.000000	0.000000	-1.000000	-1.000000	335576.000000	1775792525.436122
-14304.240000	-19279.845000	11053.305000	42351.570000	12845.655000	4766.670000	-28354.230000	-21913.245000	-13.000172	-11.012235	-11.319129	-10.368191	-4.531230	17.046650	-1.018145	-10.187324	-2.670500	1.464960	4.440660	-0.892271	0.079651	0.430114	-1.000000	-1.000000	-1.000000	-1.000000	-1.000000	-1.000000	-1.000000	51.000000	0.000000	-1.000000	-1.000000	335577.000000	1775792525.436144
-14287.095000	-19281.870000	11049.615000	42348.825000	12842.145000	4763.565000	-28355.715000	-21911.850000	-11.373101	-4.937191	-4.125758	-2.584748	-2.929169	13.152113	-2.578423	-8.627703	-2.670500	1.464960	4.440660	-0.892271	0.079651	0.430114	-1.000000	-1.000000	-1.000000	-1.000000	-1.000000	-1.000000	-1.000000	51.000000	0.000000	-1.000000	-1.000000	335578.000000	1775792525.436168
-14299.650000	-19289.340000	11041.155000	42336.135000	12829.320000	4755.555000	-28361.520000	-21918.555000	-5.064490	2.204429	3.379344	4.556488	-2.309246	3.956506	-2.872693	-4.334386	-2.670500	1.464960	4.440660	-0.892271	0.079651	0.430114	-1.000000	-1.000000	-1.000000	-1.000000	-1.000000	-1.000000	-1.000000	51.000000	0.000000	-1.000000	-1.000000	335579.000000	1775792525.436178
-14304.195000	-19287.225000	11044.710000	42337.395000	12828.375000	4753.575000	-28361.070000	-21920.715000	2.637298	6.180243	6.903953	6.903333	-3.340591	-6.061451	-2.561721	0.410105	-2.670500	1.464960	4.440660	-0.892271	0.079651	0.430114	-1.000000	-1.000000	-1.000000	-1.000000	-1.000000	-1.000000	-1.000000	51.000000	0.000000	-1.000000	-1.000000	335580.000000	1775792525.436190
-14318.145000	-19295.910000	11038.815000	42332.220000	12817.305000	4738.230000	-28362.240000	-21932.145000	7.119702	5.804421	5.870614	4.454122	-4.848230	-12.669110	-1.991687	3.529021	-2.670500	1.464960	4.440660	-0.892271	0.079651	0.430114	-1.000000	-1.000000	-1.000000	-1.000000	-1.000000	-1.000000	-1.000000	51.000000	0.000000	-1.000000	-1.000000	335581.000000	1775792525.436200
-14319.405000	-19305.090000	11029.005000	42323.805000	12807.135000	4719.285000	-28365.120000	-21932.055000	6.643775	2.518594	2.341677	0.213767	-5.157607	-14.262662	-1.062062	4.239682	-2.670500	1.464960	4.440660	-0.892271	0.079651	0.430114	-1.000000	-1.000000	-1.000000	-1.000000	-1.000000	-1.000000	-1.000000	51.000000	0.000000	-1.000000	-1.000000	335582.000000	1775792525.441749
-14288.400000	-19291.275000	11036.835000	42331.185000	12817.035000	4710.285000	-28369.170000	-21906.180000	3.852221	-1.151862	-1.275970	-2.853982	-3.376977	-11.780490	0.054965	3.862245	-2.670500	1.464960	4.440660	-0.892271	0.079651	0.430114	-1.000000	-1.000000	-1.000000	-1.000000	-1.000000	-1.000000	-1.000000	51.000000	0.000000	-1.000000	-1.000000	335583.000000	1775792525.441776
-14276.880000	-19280.340000	11046.195000	42339.555000	12826.530000	4707.495000	-28360.890000	-21898.260000	3.233317	-2.307769	-2.705570	-2.885781	0.902358	-6.514854	1.099352	4.824485	-3.509800	-0.183120	5.096840	-0.894651	0.082519	0.424865	-1.000000	-1.000000	-1.000000	-1.000000	-1.000000	-1.000000	-1.000000	51.000000	0.000000	-1.000000	-1.000000	335584.000000	1775792525.441983
-14285.745000	-19279.710000	11049.570000	42344.955000	12835.485000	4726.980000	-28355.670000	-21908.430000	5.581963	0.116532	-0.893323	0.259450	6.949317	0.988674	2.302619	6.933107	-3.509800	-0.183120	5.096840	-0.894651	0.082519	0.424865	-1.000000	-1.000000	-1.000000	-1.000000	-1.000000	-1.000000	-1.000000	51.000000	0.000000	-1.000000	-1.000000	335585.000000	1775792525.441997
-14280.975000	-19277.955000	11051.145000	42348.330000	12847.095000	4757.760000	-28354.680000	-21908.520000	6.839532	3.743315	2.569379	4.442924	12.202360	10.273571	3.686585	6.778727	-3.509800	-0.183120	5.096840	-0.894651	0.082519	0.424865	-1.000000	-1.000000	-1.000000	-1.000000	-1.000000	-1.000000	-1.000000	51.000000	0.000000	-1.000000	-1.000000	335586.000000	1775792525.448553
-14285.745000	-19284.165000	11045.475000	42343.155000	12842.820000	4772.565000	-28355.130000	-21908.160000	3.775216	5.079936	4.636909	6.581116	13.645360	19.336585	4.298832	2.506700	-3.509800	-0.183120	5.096840	-0.894651	0.082519	0.424865	-1.000000	-1.000000	-1.000000	-1.000000	-1.000000	-1.000000	-1.000000	51.000000	0.000000	-1.000000	-1.000000	335587.000000	1775792525.448568
-14298.750000	-19284.255000	11046.375000	42341.940000	12839.985000	4784.310000	-28351.575000	-21912.345000	-2.739465	2.739827	3.486916	4.904413	9.642422	23.838867	3.219607	-3.772804	-3.509800	-0.183120	5.096840	-0.894651	0.082519	0.424865	-1.000000	-1.000000	-1.000000	-1.000000	-1.000000	-1.000000	-1.000000	51.000000	0.000000	-1.000000	-1.000000	335588.000000	1775792525.454033
-14294.700000	-19280.790000	11049.705000	42342.795000	12828.780000	4755.330000	-28355.805000	-21915.045000	-9.432360	-1.667435	-0.011650	0.302160	1.124123	19.263217	0.696755	-8.649458	-3.509800	-0.183120	5.096840	-0.894651	0.082519	0.424865	-1.000000	-1.000000	-1.000000	-1.000000	-1.000000	-1.000000	-1.000000	51.000000	0.000000	-1.000000	-1.000000	335589.000000	1775792525.454053
-14293.890000	-19286.820000	11044.935000	42337.530000	12810.870000	4740.615000	-28359.270000	-21919.635000	-12.599602	-5.229495	-3.404063	-4.486300	-8.705202	4.646386	-2.288247	-10.115013	-3.509800	-0.183120	5.096840	-0.894651	0.082519	0.424865	-1.000000	-1.000000	-1.000000	-1.000000	-1.000000	-1.000000	-1.000000	51.000000	0.000000	-1.000000	-1.000000	335590.000000	1775792525.455458
-14297.265000	-19289.070000	11042.235000	42335.595000	12806.955000	4749.975000	-28357.515000	-21920.175000	-10.354008	-6.322798	-5.061345	-7.155399	-15.946525	-14.317540	-4.634951	-8.068942	-3.509800	-0.183120	5.096840	-0.894651	0.082519	0.424865	-1.000000	-1.000000	-1.000000	-1.000000	-1.000000	-1.000000	-1.000000	51.000000	0.000000	-1.000000	-1.000000	335591.000000	1775792525.455472
-14300.100000	-19286.910000	11042.910000	42335.235000	12812.130000	4770.405000	-28356.570000	-21918.825000	-4.260780	-5.081358	-4.820121	-6.943245	-17.201242	-26.901542	-5.260561	-3.663100	-3.509800	-0.183120	5.096840	-0.894651	0.082519	0.424865	-1.000000	-1.000000	-1.000000	-1.000000	-1.000000	-1.000000	-1.000000	51.000000	0.000000	-1.000000	-1.000000	335592.000000	1775792525.458017
-14297.265000	-19281.510000	11049.435000	42342.480000	12829.770000	4762.260000	-28369.485000	-21921.120000	2.305204	-2.176238	-2.966164	-4.165256	-10.915351	-25.863208	-4.003245	1.397388	-3.509800	-0.183120	5.096840	-0.894651	0.082519	0.424865	-1.000000	-1.000000	-1.000000	-1.000000	-1.000000	-1.000000	-1.000000	51.000000	0.000000	-1.000000	-1.000000	335593.000000	1775792525.458032
-14293.980000	-19278.630000	11053.170000	42347.700000	12842.955000	4746.015000	-28367.100000	-21923.595000	6.896599	1.523828	0.083078	0.230207	0.997719	-14.181381	-2.008211	5.262682	-5.386780	0.579880	6.775440	-0.895994	0.087158	0.422301	-1.000000	-1.000000	-1.000000	-1.000000	-1.000000	-1.000000	-1.000000	51.000000	0.000000	-1.000000	-1.000000	335594.000000	1775792525.465675
-14289.570000	-19277.055000	11055.195000	42350.040000	12849.030000	4722.750000	-28359.270000	-21915.900000	8.766413	4.663105	3.272217	4.606548	13.156074	-1.440051	-0.021632	6.819247	-5.386780	0.579880	6.775440	-0.895994	0.087158	0.422301	-1.000000	-1.000000	-1.000000	-1.000000	-1.000000	-1.000000	-1.000000	51.000000	0.000000	-1.000000	-1.000000	335595.000000	1775792525.465698
-14286.330000	-19278.540000	11053.350000	42346.890000	12845.475000	4725.765000	-28355.265000	-21910.905000	8.173408	5.819067	5.032670	6.924264	19.300661	5.488453	2.311480	6.441063	-5.386780	0.579880	6.775440	-0.895994	0.087158	0.422301	-1.000000	-1.000000	-1.000000	-1.000000	-1.000000	-1.000000	-1.000000	51.000000	0.000000	-1.000000	-1.000000	335596.000000	1775792525.480675
-14286.285000	-19278.765000	11052.945000	42346.845000	12841.605000	4746.555000	-28358.505000	-21913.380000	5.704685	4.443865	4.354859	5.943090	16.167860	7.360709	4.675727	5.016595	-5.386780	0.579880	6.775440	-0.895994	0.087158	0.422301	-1.000000	-1.000000	-1.000000	-1.000000	-1.000000	-1.000000	-1.000000	51.000000	0.000000	-1.000000	-1.000000	335597.000000	1775792525.480700
-14297.490000	-19284.480000	11047.005000	42342.345000	12845.790000	4799.565000	-28354.995000	-21921.390000	1.864601	1.243791	1.568338	2.249685	5.815976	9.700844	5.618281	2.604195	-5.386780	0.579880	6.775440	-0.895994	0.087158	0.422301	-1.000000	-1.000000	-1.000000	-1.000000	-1.000000	-1.000000	-1.000000	51.000000	0.000000	-1.000000	-1.000000	335598.000000	1775792525.480726
