Channel1	Channel2	Channel3	Channel4	Channel5	Channel6	Channel7	Channel8	FilteredChannel1	FilteredChannel2	FilteredChannel3	FilteredChannel4	FilteredChannel5	FilteredChannel6	FilteredChannel7	FilteredChannel8	GyroX	GyroY	GyroZ	AccX	AccY	AccZ	PPG1	PPG2	rawPPG1	rawPPG2	rawPPG3	Hr	Hrv	Battery	Trigger	PhysicalTrigger	AutoTrigger	NumMeasurements	Timestamp
-12254.580000	-20513.340000	8966.385000	46015.110000	23751.450000	12354.255000	-26745.435000	-13193.415000	4.493526	5.985717	3.740266	-0.736243	-7.868830	-39.417316	-2.139769	5.172515	3.021480	5.157880	2.746800	-0.876341	0.150695	0.450866	-1.000000	-1.000000	-1.000000	-1.000000	-1.000000	-1.000000	-1.000000	52.000000	0.000000	-1.000000	-1.000000	226040.000000	1775792306.367440
-12268.620000	-20527.470000	8952.795000	46000.620000	23726.205000	12301.605000	-26752.590000	-13223.520000	0.278453	1.529175	-0.936167	-5.084781	-6.721725	-15.795038	-4.062192	-1.806715	3.021480	5.157880	2.746800	-0.876341	0.150695	0.450866	-1.000000	-1.000000	-1.000000	-1.000000	-1.000000	-1.000000	-1.000000	52.000000	0.000000	-1.000000	-1.000000	226041.000000	1775792306.367457
-12266.775000	-20522.430000	8960.850000	46012.230000	23742.765000	12278.835000	-26748.270000	-13242.780000	-4.033020	-2.837545	-4.418123	-6.349385	-1.121945	11.299791	-4.760724	-9.834647	3.021480	5.157880	2.746800	-0.876341	0.150695	0.450866	-1.000000	-1.000000	-1.000000	-1.000000	-1.000000	-1.000000	-1.000000	52.000000	0.000000	-1.000000	-1.000000	226042.000000	1775792306.368061
-12258.675000	-20510.640000	8972.505000	46021.410000	23737.905000	12276.270000	-26742.780000	-13235.490000	-6.029595	-4.625720	-4.795179	-4.395547	2.347364	18.402914	-3.909484	-15.475986	3.021480	5.157880	2.746800	-0.876341	0.150695	0.450866	-1.000000	-1.000000	-1.000000	-1.000000	-1.000000	-1.000000	-1.000000	52.000000	0.000000	-1.000000	-1.000000	226043.000000	1775792306.368080
-12255.840000	-20506.140000	8976.420000	46024.695000	23743.350000	12314.295000	-26736.570000	-13216.410000	-3.944552	-2.266156	-1.276674	0.275974	1.886630	6.137313	-1.210399	-13.884469	-6.165040	7.446880	4.013380	-0.869688	0.168212	0.444335	-1.000000	-1.000000	-1.000000	-1.000000	-1.000000	-1.000000	-1.000000	52.000000	0.000000	-1.000000	-1.000000	226044.000000	1775792306.381837
-12252.015000	-20504.565000	8977.635000	46024.740000	23743.845000	12321.765000	-26734.320000	-13196.610000	1.152679	2.674243	3.972063	5.201551	-0.825771	-8.672545	2.405712	-3.283556	-6.165040	7.446880	4.013380	-0.869688	0.168212	0.444335	-1.000000	-1.000000	-1.000000	-1.000000	-1.000000	-1.000000	-1.000000	52.000000	0.000000	-1.000000	-1.000000	226045.000000	1775792306.381862
-12247.380000	-20502.720000	8979.075000	46023.885000	23717.250000	12280.185000	-26737.515000	-13185.990000	6.038893	6.475207	7.221549	7.268580	-3.910514	-14.427804	4.912427	11.724796	-6.165040	7.446880	4.013380	-0.869688	0.168212	0.444335	-1.000000	-1.000000	-1.000000	-1.000000	-1.000000	-1.000000	-1.000000	52.000000	0.000000	-1.000000	-1.000000	226046.000000	1775792306.381888
-12248.010000	-20503.890000	8977.950000	46022.175000	23685.165000	12249.675000	-26744.130000	-13186.755000	7.964834	6.536274	6.386706	5.307334	-7.243470	-13.261041	4.573896	22.552432	-6.165040	7.446880	4.013380	-0.869688	0.168212	0.444335	-1.000000	-1.000000	-1.000000	-1.000000	-1.000000	-1.000000	-1.000000	52.000000	0.000000	-1.000000	-1.000000	226047.000000	1775792306.381908
-12253.005000	-20506.905000	8972.460000	46010.475000	23675.130000	12246.345000	-26751.330000	-13194.090000	6.018486	2.944890	2.104647	0.520902	-10.754509	-11.239645	1.284217	22.546747	-6.165040	7.446880	4.013380	-0.869688	0.168212	0.444335	-1.000000	-1.000000	-1.000000	-1.000000	-1.000000	-1.000000	-1.000000	52.000000	0.000000	-1.000000	-1.000000	226048.000000	1775792306.381923
-12259.305000	-20511.540000	8969.220000	46006.785000	23695.515000	12222.900000	-26761.995000	-13199.850000	1.090931	-2.285528	-3.351869	-4.795045	-11.296793	-8.924648	-3.285708	11.471520	-6.165040	7.446880	4.013380	-0.869688	0.168212	0.444335	-1.000000	-1.000000	-1.000000	-1.000000	-1.000000	-1.000000	-1.000000	52.000000	0.000000	-1.000000	-1.000000	226049.000000	1775792306.381935
-12260.610000	-20512.080000	8971.740000	46016.910000	23720.535000	12217.005000	-26754.660000	-13200.885000	-4.526681	-6.617889	-7.337791	-7.982098	-4.565272	-4.072738	-6.549698	-4.530033	-6.165040	7.446880	4.013380	-0.869688	0.168212	0.444335	-1.000000	-1.000000	-1.000000	-1.000000	-1.000000	-1.000000	-1.000000	52.000000	0.000000	-1.000000	-1.000000	226050.000000	1775792306.398254
-12269.115000	-20525.040000	8956.035000	46003.050000	23716.035000	12221.280000	-26746.740000	-13222.080000	-8.218732	-8.345249	-8.227459	-7.212251	8.644546	3.744662	-6.114040	-17.516255	-6.165040	7.446880	4.013380	-0.869688	0.168212	0.444335	-1.000000	-1.000000	-1.000000	-1.000000	-1.000000	-1.000000	-1.000000	52.000000	0.000000	-1.000000	-1.000000	226051.000000	1775792306.398278
-12281.220000	-20534.625000	8946.135000	45993.735000	23717.970000	12235.950000	-26747.595000	-13250.970000	-8.757857	-7.498068	-6.596039	-3.575366	20.585528	13.097588	-1.642426	-23.215372	-6.165040	7.446880	4.013380	-0.869688	0.168212	0.444335	-1.000000	-1.000000	-1.000000	-1.000000	-1.000000	-1.000000	-1.000000	52.000000	0.000000	-1.000000	-1.000000	226052.000000	1775792306.398303
-12263.715000	-20513.115000	8957.520000	45990.945000	23727.690000	12304.080000	-26734.905000	-13232.925000	-6.317526	-4.635703	-3.741851	0.047777	23.456861	22.300446	4.330583	-21.300608	-6.165040	7.446880	4.013380	-0.869688	0.168212	0.444335	-1.000000	-1.000000	-1.000000	-1.000000	-1.000000	-1.000000	-1.000000	52.000000	0.000000	-1.000000	-1.000000	226053.000000	1775792306.398314
-12233.295000	-20485.620000	8987.085000	46023.210000	23757.795000	12343.230000	-26718.750000	-13196.025000	-0.717692	0.873393	0.757778	2.876673	16.757514	30.008833	8.797120	-11.603802	-7.889420	8.362480	3.723440	-0.859556	0.168029	0.439818	-1.000000	-1.000000	-1.000000	-1.000000	-1.000000	-1.000000	-1.000000	52.000000	0.000000	-1.000000	-1.000000	226054.000000	1775792306.398329
-12241.980000	-20497.005000	8985.105000	46032.570000	23754.375000	12297.735000	-26732.745000	-13195.620000	7.234331	8.394703	7.282813	6.469978	5.908868	31.620086	9.933556	4.561107	-7.889420	8.362480	3.723440	-0.859556	0.168029	0.439818	-1.000000	-1.000000	-1.000000	-1.000000	-1.000000	-1.000000	-1.000000	52.000000	0.000000	-1.000000	-1.000000	226055.000000	1775792306.398340
-12246.795000	-20500.560000	8983.935000	46035.000000	23750.010000	12279.465000	-26737.560000	-13196.070000	13.002421	13.283729	12.692541	10.471789	-4.496342	19.387771	6.511216	20.108318	-7.889420	8.362480	3.723440	-0.859556	0.168029	0.439818	-1.000000	-1.000000	-1.000000	-1.000000	-1.000000	-1.000000	-1.000000	52.000000	0.000000	-1.000000	-1.000000	226056.000000	1775792306.398352
-12253.635000	-20508.345000	8973.270000	46018.305000	23728.635000	12271.905000	-26744.670000	-13202.865000	11.682333	10.993696	12.318439	11.103664	-13.256946	-6.614587	-0.879973	25.917641	-7.889420	8.362480	3.723440	-0.859556	0.168029	0.439818	-1.000000	-1.000000	-1.000000	-1.000000	-1.000000	-1.000000	-1.000000	52.000000	0.000000	-1.000000	-1.000000	226057.000000	1775792306.398363
-12248.415000	-20505.240000	8970.300000	46005.030000	23710.410000	12226.950000	-26740.575000	-13199.850000	3.718575	2.505069	5.159531	5.294946	-20.023862	-34.188833	-8.580605	19.067070	-7.889420	8.362480	3.723440	-0.859556	0.168029	0.439818	-1.000000	-1.000000	-1.000000	-1.000000	-1.000000	-1.000000	-1.000000	52.000000	0.000000	-1.000000	-1.000000	226058.000000	1775792306.413173
-12252.285000	-20510.730000	8966.205000	46004.220000	23717.970000	12194.685000	-26743.455000	-13203.180000	-5.568559	-6.765485	-4.871195	-5.081063	-22.846237	-50.046592	-12.239642	4.654713	-7.889420	8.362480	3.723440	-0.859556	0.168029	0.439818	-1.000000	-1.000000	-1.000000	-1.000000	-1.000000	-1.000000	-1.000000	52.000000	0.000000	-1.000000	-1.000000	226059.000000	1775792306.413200
-12251.025000	-20505.870000	8976.285000	46021.770000	23745.420000	12237.570000	-26741.745000	-13204.620000	-11.015623	-11.776822	-12.002442	-13.559433	-18.283435	-47.320593	-10.201046	-9.194014	-7.889420	8.362480	3.723440	-0.859556	0.168029	0.439818	-1.000000	-1.000000	-1.000000	-1.000000	-1.000000	-1.000000	-1.000000	52.000000	0.000000	-1.000000	-1.000000	226060.000000	1775792306.413228
-12255.930000	-20510.370000	8973.450000	46020.600000	23739.570000	12309.615000	-26737.605000	-13208.940000	-10.946823	-10.867943	-12.588771	-14.322725	-5.508630	-24.190040	-4.131487	-16.774298	-7.889420	8.362480	3.723440	-0.859556	0.168029	0.439818	-1.000000	-1.000000	-1.000000	-1.000000	-1.000000	-1.000000	-1.000000	52.000000	0.000000	-1.000000	-1.000000	226061.000000	1775792306.413240
-12257.865000	-20511.090000	8976.195000	46025.910000	23725.980000	12323.655000	-26732.655000	-13211.820000	-6.913634	-5.798039	-7.362004	-7.473399	9.584323	13.026454	2.851954	-16.771768	-7.889420	8.362480	3.723440	-0.859556	0.168029	0.439818	-1.000000	-1.000000	-1.000000	-1.000000	-1.000000	-1.000000	-1.000000	52.000000	0.000000	-1.000000	-1.000000	226062.000000	1775792306.413254
-12260.295000	-20512.350000	8975.070000	46025.640000	23733.045000	12292.650000	-26734.770000	-13213.575000	-1.674683	0.152361	-0.183970	1.768645	18.424159	45.843526	7.862645	-11.226549	-7.889420	8.362480	3.723440	-0.859556	0.168029	0.439818	-1.000000	-1.000000	-1.000000	-1.000000	-1.000000	-1.000000	-1.000000	52.000000	0.000000	-1.000000	-1.000000	226063.000000	1775792306.413265
-12259.620000	-20513.880000	8967.870000	46012.545000	23730.705000	12295.530000	-26734.725000	-13213.800000	2.636611	4.404622	5.024483	7.781606	17.807911	54.414769	9.083907	-3.464457	-11.200840	3.464020	-0.579880	-0.877317	0.156372	0.438659	-1.000000	-1.000000	-1.000000	-1.000000	-1.000000	-1.000000	-1.000000	52.000000	0.000000	-1.000000	-1.000000	226064.000000	1775792306.413280
-12259.215000	-20510.235000	8974.260000	46017.045000	23735.430000	12284.055000	-26746.740000	-13214.880000	5.148729	6.063766	6.436566	7.975684	10.921369	35.136880	6.314709	3.519195	-11.200840	3.464020	-0.579880	-0.877317	0.156372	0.438659	-1.000000	-1.000000	-1.000000	-1.000000	-1.000000	-1.000000	-1.000000	52.000000	0.000000	-1.000000	-1.000000	226065.000000	1775792306.413291
-12249.045000	-20504.520000	8978.625000	46021.905000	23734.530000	12278.520000	-26742.870000	-13198.050000	6.043320	5.736332	5.004062	4.065369	2.753119	2.137955	1.088665	8.116292	-11.200840	3.464020	-0.579880	-0.877317	0.156372	0.438659	-1.000000	-1.000000	-1.000000	-1.000000	-1.000000	-1.000000	-1.000000	52.000000	0.000000	-1.000000	-1.000000	226066.000000	1775792306.418778
-12246.930000	-20508.390000	8972.055000	46016.415000	23731.470000	12265.695000	-26736.570000	-13188.555000	5.968348	4.445488	2.792395	-0.094180	-3.332945	-26.207295	-3.619517	10.391336	-11.200840	3.464020	-0.579880	-0.877317	0.156372	0.438659	-1.000000	-1.000000	-1.000000	-1.000000	-1.000000	-1.000000	-1.000000	52.000000	0.000000	-1.000000	-1.000000	226067.000000	1775792306.418801
-12244.455000	-20504.835000	8975.970000	46020.600000	23731.110000	12247.920000	-26732.070000	-13181.850000	5.122583	2.598600	0.786163	-2.234671	-6.362683	-38.824674	-5.043403	10.702815	-11.200840	3.464020	-0.579880	-0.877317	0.156372	0.438659	-1.000000	-1.000000	-1.000000	-1.000000	-1.000000	-1.000000	-1.000000	52.000000	0.000000	-1.000000	-1.000000	226068.000000	1775792306.422331
-12250.395000	-20513.790000	8965.845000	46008.405000	23710.770000	12203.370000	-26740.530000	-13182.255000	3.055233	0.240882	-0.959984	-2.490371	-7.075456	-35.422164	-3.117117	8.542445	-11.200840	3.464020	-0.579880	-0.877317	0.156372	0.438659	-1.000000	-1.000000	-1.000000	-1.000000	-1.000000	-1.000000	-1.000000	52.000000	0.000000	-1.000000	-1.000000	226069.000000	1775792306.422355
-12249.540000	-20509.740000	8969.490000	46006.650000	23686.020000	12197.565000	-26744.895000	-13196.970000	-0.349206	-2.274438	-2.383762	-2.094112	-7.219944	-22.629465	-0.463964	3.290609	-11.200840	3.464020	-0.579880	-0.877317	0.156372	0.438659	-1.000000	-1.000000	-1.000000	-1.000000	-1.000000	-1.000000	-1.000000	52.000000	0.000000	-1.000000	-1.000000	226070.000000	1775792306.423667
-12255.255000	-20510.550000	8970.345000	46006.560000	23699.250000	12232.080000	-26749.215000	-13220.415000	-4.092446	-4.023024	-2.996268	-1.781396	-7.451433	-5.961410	0.534984	-4.665524	-11.200840	3.464020	-0.579880	-0.877317	0.156372	0.438659	-1.000000	-1.000000	-1.000000	-1.000000	-1.000000	-1.000000	-1.000000	52.000000	0.000000	-1.000000	-1.000000	226071.000000	1775792306.423690
-12257.100000	-20509.245000	8974.395000	46015.650000	23739.120000	12285.495000	-26745.030000	-13231.170000	-6.633273	-4.092388	-2.180115	-0.981870	-4.922862	13.368273	-0.086574	-13.087244	-11.200840	3.464020	-0.579880	-0.877317	0.156372	0.438659	-1.000000	-1.000000	-1.000000	-1.000000	-1.000000	-1.000000	-1.000000	52.000000	0.000000	-1.000000	-1.000000	226072.000000	1775792306.429135
-12258.405000	-20510.820000	8971.020000	46011.555000	23715.720000	12277.485000	-26748.090000	-13246.380000	-6.922381	-2.574685	-0.216734	0.909999	2.701565	32.371687	-0.711960	-18.053287	-11.200840	3.464020	-0.579880	-0.877317	0.156372	0.438659	-1.000000	-1.000000	-1.000000	-1.000000	-1.000000	-1.000000	-1.000000	52.000000	0.000000	-1.000000	-1.000000	226073.000000	1775792306.429157
-12256.020000	-20509.740000	8971.785000	46012.140000	23676.750000	12286.980000	-26740.395000	-13244.220000	-4.802341	-0.465485	1.615947	3.030179	10.430819	42.097779	-0.187531	-16.291331	-6.012440	3.433500	-1.953280	-0.876524	0.147338	0.435973	-1.000000	-1.000000	-1.000000	-1.000000	-1.000000	-1.000000	-1.000000	52.000000	0.000000	-1.000000	-1.000000	226074.000000	1775792306.430017
-12246.345000	-20498.895000	8983.080000	46017.900000	23658.255000	12215.250000	-26737.380000	-13219.515000	-0.884524	1.427918	2.451259	3.948190	10.115008	33.885910	1.446355	-7.132913	-6.012440	3.433500	-1.953280	-0.876524	0.147338	0.435973	-1.000000	-1.000000	-1.000000	-1.000000	-1.000000	-1.000000	-1.000000	52.000000	0.000000	-1.000000	-1.000000	226075.000000	1775792306.430043
-12245.580000	-20498.715000	8984.385000	46021.545000	23706.270000	12189.555000	-26730.855000	-13200.255000	3.576745	2.919935	2.599101	3.401120	2.307209	7.805341	3.327701	7.113664	-6.012440	3.433500	-1.953280	-0.876524	0.147338	0.435973	-1.000000	-1.000000	-1.000000	-1.000000	-1.000000	-1.000000	-1.000000	52.000000	0.000000	-1.000000	-1.000000	226076.000000	1775792306.435472
-12256.470000	-20511.315000	8973.720000	46017.495000	23733.360000	12246.570000	-26732.880000	-13198.635000	6.497472	3.390220	2.148818	1.930825	-2.984587	-22.963400	4.232052	20.732827	-6.012440	3.433500	-1.953280	-0.876524	0.147338	0.435973	-1.000000	-1.000000	-1.000000	-1.000000	-1.000000	-1.000000	-1.000000	52.000000	0.000000	-1.000000	-1.000000	226077.000000	1775792306.435497
-12273.930000	-20527.830000	8960.130000	46011.780000	23766.120000	12352.680000	-26732.565000	-13215.690000	5.633519	1.489919	0.153108	-0.252825	1.159250	-36.663310	3.222627	26.139804	-6.012440	3.433500	-1.953280	-0.876524	0.147338	0.435973	-1.000000	-1.000000	-1.000000	-1.000000	-1.000000	-1.000000	-1.000000	52.000000	0.000000	-1.000000	-1.000000	226078.000000	1775792306.439207
-12277.665000	-20532.375000	8953.515000	46001.025000	23755.410000	12335.625000	-26729.145000	-13222.530000	0.849770	-2.770525	-3.552584	-3.055402	10.372985	-22.411308	0.506302	19.124653	-6.012440	3.433500	-1.953280	-0.876524	0.147338	0.435973	-1.000000	-1.000000	-1.000000	-1.000000	-1.000000	-1.000000	-1.000000	52.000000	0.000000	-1.000000	-1.000000	226079.000000	1775792306.439230
-12257.505000	-20514.420000	8967.060000	46008.045000	23745.195000	12295.125000	-26736.705000	-13210.380000	-4.306086	-6.343226	-6.646027	-5.538947	14.117923	4.710053	-2.618947	3.447946	-6.012440	3.433500	-1.953280	-0.876524	0.147338	0.435973	-1.000000	-1.000000	-1.000000	-1.000000	-1.000000	-1.000000	-1.000000	52.000000	0.000000	-1.000000	-1.000000	226080.000000	1775792306.443249
-12222.450000	-20479.590000	9003.195000	46046.970000	23767.515000	12303.585000	-26729.640000	-13182.525000	-4.570906	-4.830623	-5.317621	-5.221971	6.968222	19.139743	-4.799369	-10.943649	-6.012440	3.433500	-1.953280	-0.876524	0.147338	0.435973	-1.000000	-1.000000	-1.000000	-1.000000	-1.000000	-1.000000	-1.000000	52.000000	0.000000	-1.000000	-1.000000	226081.000000	1775792306.443274
-12236.760000	-20495.790000	8987.220000	46031.670000	23743.350000	12295.530000	-26729.685000	-13192.335000	1.401833	2.441875	1.427816	-0.467099	-6.587998	12.130777	-5.095268	-16.160092	-6.012440	3.433500	-1.953280	-0.876524	0.147338	0.435973	-1.000000	-1.000000	-1.000000	-1.000000	-1.000000	-1.000000	-1.000000	52.000000	0.000000	-1.000000	-1.000000	226082.000000	1775792306.447128
-12248.460000	-20506.860000	8974.395000	46013.445000	23720.220000	12261.150000	-26733.465000	-13202.505000	7.848018	9.509995	8.380173	5.169514	-18.931624	-6.081326	-3.459336	-12.974122	-6.012440	3.433500	-1.953280	-0.876524	0.147338	0.435973	-1.000000	-1.000000	-1.000000	-1.000000	-1.000000	-1.000000	-1.000000	52.000000	0.000000	-1.000000	-1.000000	226083.000000	1775792306.447155
-12246.075000	-20503.350000	8977.140000	46013.085000	23723.775000	12217.230000	-26739.585000	-13202.730000	7.907087	9.692056	9.059502	5.840310	-25.282316	-22.543407	-1.179786	-7.621689	-4.806900	2.746800	-4.440660	-0.884275	0.143371	0.434996	-1.000000	-1.000000	-1.000000	-1.000000	-1.000000	-1.000000	-1.000000	52.000000	0.000000	-1.000000	-1.000000	226084.000000	1775792306.450540
-12240.540000	-20494.980000	8986.050000	46023.480000	23741.775000	12211.605000	-26743.140000	-13201.875000	1.584813	3.327087	3.478105	1.233759	-22.545752	-29.698331	0.269537	-4.018899	-4.806900	2.746800	-4.440660	-0.884275	0.143371	0.434996	-1.000000	-1.000000	-1.000000	-1.000000	-1.000000	-1.000000	-1.000000	52.000000	0.000000	-1.000000	-1.000000	226085.000000	1775792306.450562
-12243.915000	-20497.815000	8983.980000	46022.445000	23760.135000	12265.830000	-26737.785000	-13203.720000	-5.615719	-3.918190	-3.015078	-3.592782	-9.984856	-23.136505	0.742222	-1.934982	-4.806900	2.746800	-4.440660	-0.884275	0.143371	0.434996	-1.000000	-1.000000	-1.000000	-1.000000	-1.000000	-1.000000	-1.000000	52.000000	0.000000	-1.000000	-1.000000	226086.000000	1775792306.461486
-12260.970000	-20518.740000	8963.685000	46008.180000	23762.880000	12322.215000	-26735.625000	-13215.330000	-9.506511	-8.103728	-6.661640	-5.116635	7.678745	-1.459354	1.274064	-0.279000	-4.806900	2.746800	-4.440660	-0.884275	0.143371	0.434996	-1.000000	-1.000000	-1.000000	-1.000000	-1.000000	-1.000000	-1.000000	52.000000	0.000000	-1.000000	-1.000000	226087.000000	1775792306.461514
-12265.020000	-20526.255000	8958.285000	46006.605000	23741.235000	12312.405000	-26730.630000	-13214.790000	-9.778181	-9.359045	-7.706702	-4.078634	21.224716	27.596564	2.538863	1.060247	-4.806900	2.746800	-4.440660	-0.884275	0.143371	0.434996	-1.000000	-1.000000	-1.000000	-1.000000	-1.000000	-1.000000	-1.000000	52.000000	0.000000	-1.000000	-1.000000	226088.000000	1775792306.461545
-12260.745000	-20519.145000	8962.965000	46005.255000	23695.110000	12278.205000	-26731.890000	-13212.990000	-7.365413	-8.472271	-7.025095	-2.289854	22.352547	46.298400	3.928696	2.151739	-4.806900	2.746800	-4.440660	-0.884275	0.143371	0.434996	-1.000000	-1.000000	-1.000000	-1.000000	-1.000000	-1.000000	-1.000000	52.000000	0.000000	-1.000000	-1.000000	226089.000000	1775792306.461558
-12251.745000	-20505.915000	8976.600000	46016.370000	23711.220000	12246.885000	-26732.880000	-13209.525000	-2.496146	-4.623233	-3.865225	-0.064939	10.572308	40.138396	4.167645	3.513132	-4.806900	2.746800	-4.440660	-0.884275	0.143371	0.434996	-1.000000	-1.000000	-1.000000	-1.000000	-1.000000	-1.000000	-1.000000	52.000000	0.000000	-1.000000	-1.000000	226090.000000	1775792306.464240
-12246.840000	-20497.095000	8986.725000	46027.080000	23723.955000	12191.310000	-26742.420000	-13208.895000	4.048668	2.374708	2.148113	3.041966	-4.370246	11.116528	2.423029	5.098241	-4.806900	2.746800	-4.440660	-0.884275	0.143371	0.434996	-1.000000	-1.000000	-1.000000	-1.000000	-1.000000	-1.000000	-1.000000	52.000000	0.000000	-1.000000	-1.000000	226091.000000	1775792306.464262
-12246.615000	-20495.025000	8976.240000	46002.735000	23708.610000	12172.500000	-26748.135000	-13208.085000	9.771216	9.788568	8.559644	5.999343	-11.331375	-24.229977	-1.012339	5.961839	-4.806900	2.746800	-4.440660	-0.884275	0.143371	0.434996	-1.000000	-1.000000	-1.000000	-1.000000	-1.000000	-1.000000	-1.000000	52.000000	0.000000	-1.000000	-1.000000	226092.000000	1775792306.475843
-12253.410000	-20505.870000	8956.125000	45970.335000	23673.780000	12227.760000	-26731.395000	-13208.220000	11.620915	13.212072	10.785080	5.435704	-9.015978	-45.206526	-4.250821	5.182523	-4.806900	2.746800	-4.440660	-0.884275	0.143371	0.434996	-1.000000	-1.000000	-1.000000	-1.000000	-1.000000	-1.000000	-1.000000	52.000000	0.000000	-1.000000	-1.000000	226093.000000	1775792306.475870
-12248.280000	-20498.445000	8964.630000	45979.785000	23667.795000	12292.470000	-26719.650000	-13204.845000	8.457076	10.221697	6.539691	-0.190905	-4.017552	-37.675288	-4.462733	2.805963	-4.974760	2.853620	-6.271860	-0.889707	0.139648	0.435302	-1.000000	-1.000000	-1.000000	-1.000000	-1.000000	-1.000000	-1.000000	52.000000	0.000000	-1.000000	-1.000000	226094.000000	1775792306.475899
-12236.895000	-20485.845000	8977.365000	45994.995000	23692.455000	12318.075000	-26712.855000	-13193.280000	2.496600	3.052719	-0.672044	-6.252680	-0.236071	-4.793612	-0.784182	0.051051	-4.974760	2.853620	-6.271860	-0.889707	0.139648	0.435302	-1.000000	-1.000000	-1.000000	-1.000000	-1.000000	-1.000000	-1.000000	52.000000	0.000000	-1.000000	-1.000000	226095.000000	1775792306.475912
-12245.580000	-20497.455000	8964.810000	45986.040000	23702.355000	12297.735000	-26711.370000	-13197.375000	-2.673059	-3.653740	-5.248954	-6.647821	4.073686	31.628676	4.046086	-1.718582	-4.974760	2.853620	-6.271860	-0.889707	0.139648	0.435302	-1.000000	-1.000000	-1.000000	-1.000000	-1.000000	-1.000000	-1.000000	52.000000	0.000000	-1.000000	-1.000000	226096.000000	1775792306.483241
-12258.270000	-20508.705000	8953.380000	45975.870000	23728.770000	12295.980000	-26716.365000	-13208.670000	-5.721142	-7.698828	-5.821274	-1.554847	10.243485	46.953238	6.082844	-2.674873	-4.974760	2.853620	-6.271860	-0.889707	0.139648	0.435302	-1.000000	-1.000000	-1.000000	-1.000000	-1.000000	-1.000000	-1.000000	52.000000	0.000000	-1.000000	-1.000000	226097.000000	1775792306.483267
-12257.820000	-20507.670000	8957.430000	45981.855000	23745.105000	12301.560000	-26715.915000	-13211.190000	-7.406842	-9.489856	-4.616215	3.961130	15.851086	33.476173	3.606657	-4.021428	-4.974760	2.853620	-6.271860	-0.889707	0.139648	0.435302	-1.000000	-1.000000	-1.000000	-1.000000	-1.000000	-1.000000	-1.000000	52.000000	0.000000	-1.000000	-1.000000	226098.000000	1775792306.483298
-12255.255000	-20509.020000	8968.410000	46003.410000	23742.405000	12300.660000	-26716.905000	-13210.470000	-7.622536	-9.008570	-2.702035	6.902911	16.787332	3.548651	-1.682921	-5.569924	-4.974760	2.853620	-6.271860	-0.889707	0.139648	0.435302	-1.000000	-1.000000	-1.000000	-1.000000	-1.000000	-1.000000	-1.000000	52.000000	0.000000	-1.000000	-1.000000	226099.000000	1775792306.483311
-12253.275000	-20507.760000	8975.430000	46017.135000	23750.820000	12290.310000	-26722.665000	-13209.795000	-5.358864	-5.809855	0.481764	8.056259	10.444825	-24.152884	-6.453037	-5.627808	-4.974760	2.853620	-6.271860	-0.889707	0.139648	0.435302	-1.000000	-1.000000	-1.000000	-1.000000	-1.000000	-1.000000	-1.000000	52.000000	0.000000	-1.000000	-1.000000	226100.000000	1775792306.483325
-12251.070000	-20505.510000	8976.510000	46017.855000	23741.595000	12273.255000	-26728.380000	-13208.040000	-0.889383	-0.652271	4.344866	8.166238	-1.654900	-37.958264	-8.464989	-3.241686	-4.974760	2.853620	-6.271860	-0.889707	0.139648	0.435302	-1.000000	-1.000000	-1.000000	-1.000000	-1.000000	-1.000000	-1.000000	52.000000	0.000000	-1.000000	-1.000000	226101.000000	1775792306.483336
-12253.455000	-20505.825000	8975.070000	46012.995000	23719.725000	12270.735000	-26729.865000	-13212.765000	3.790597	4.521357	6.598014	5.877878	-14.842703	-36.116591	-7.370636	0.605261	-4.974760	2.853620	-6.271860	-0.889707	0.139648	0.435302	-1.000000	-1.000000	-1.000000	-1.000000	-1.000000	-1.000000	-1.000000	52.000000	0.000000	-1.000000	-1.000000	226102.000000	1775792306.490413
-12246.345000	-20499.795000	8980.245000	46016.145000	23717.655000	12269.340000	-26724.240000	-13206.690000	6.544547	7.772612	5.570311	0.235096	-24.288907	-22.842543	-3.788330	3.942699	-4.974760	2.853620	-6.271860	-0.889707	0.139648	0.435302	-1.000000	-1.000000	-1.000000	-1.000000	-1.000000	-1.000000	-1.000000	52.000000	0.000000	-1.000000	-1.000000	226103.000000	1775792306.490438
-12251.475000	-20504.115000	8977.455000	46015.200000	23723.325000	12254.040000	-26728.965000	-13209.390000	6.554727	8.158700	1.895428	-6.828125	-25.956452	-4.777428	1.121862	5.479520	-5.814060	1.953280	-8.652420	-0.888731	0.136596	0.437072	-1.000000	-1.000000	-1.000000	-1.000000	-1.000000	-1.000000	-1.000000	52.000000	0.000000	-1.000000	-1.000000	226104.000000	1775792306.493068
-12256.245000	-20512.215000	8970.120000	46009.935000	23742.765000	12259.755000	-26726.715000	-13207.860000	4.142182	5.664426	-2.536701	-11.915068	-17.848076	11.135875	5.484664	5.038794	-5.814060	1.953280	-8.652420	-0.888731	0.136596	0.437072	-1.000000	-1.000000	-1.000000	-1.000000	-1.000000	-1.000000	-1.000000	52.000000	0.000000	-1.000000	-1.000000	226105.000000	1775792306.493092
-12253.185000	-20506.815000	8976.060000	46014.750000	23736.420000	12262.095000	-26724.690000	-13206.960000	0.362091	1.228399	-5.976025	-12.878365	-2.639213	20.618389	7.632006	3.148205	-5.814060	1.953280	-8.652420	-0.888731	0.136596	0.437072	-1.000000	-1.000000	-1.000000	-1.000000	-1.000000	-1.000000	-1.000000	52.000000	0.000000	-1.000000	-1.000000	226106.000000	1775792306.495514
-12247.065000	-20497.230000	8986.860000	46025.100000	23731.110000	12266.910000	-26725.545000	-13206.060000	-2.826057	-2.765176	-6.762531	-9.352874	12.231140	23.102013	7.180330	0.774997	-5.814060	1.953280	-8.652420	-0.888731	0.136596	0.437072	-1.000000	-1.000000	-1.000000	-1.000000	-1.000000	-1.000000	-1.000000	52.000000	0.000000	-1.000000	-1.000000	226107.000000	1775792306.495539
-12244.545000	-20493.720000	8990.100000	46027.395000	23708.745000	12264.795000	-26728.785000	-13205.430000	-3.660465	-3.931491	-4.097890	-2.570395	19.100183	19.845657	4.684979	-1.168469	-5.814060	1.953280	-8.652420	-0.888731	0.136596	0.437072	-1.000000	-1.000000	-1.000000	-1.000000	-1.000000	-1.000000	-1.000000	52.000000	0.000000	-1.000000	-1.000000	226108.000000	1775792306.505601
-12248.145000	-20501.415000	8980.155000	46017.270000	23710.410000	12244.095000	-26727.885000	-13206.960000	-2.292543	-2.451546	0.283628	4.312814	15.659292	12.215516	1.134807	-2.273053	-5.814060	1.953280	-8.652420	-0.888731	0.136596	0.437072	-1.000000	-1.000000	-1.000000	-1.000000	-1.000000	-1.000000	-1.000000	52.000000	0.000000	-1.000000	-1.000000	226109.000000	1775792306.505626
-12248.190000	-20505.780000	8974.710000	46011.240000	23702.085000	12197.925000	-26724.420000	-13203.090000	-0.507795	-0.833896	2.991254	7.592463	6.238376	1.074829	-2.050744	-2.534064	-5.814060	1.953280	-8.652420	-0.888731	0.136596	0.437072	-1.000000	-1.000000	-1.000000	-1.000000	-1.000000	-1.000000	-1.000000	52.000000	0.000000	-1.000000	-1.000000	226110.000000	1775792306.521051
-12247.155000	-20503.395000	8976.735000	46007.955000	23682.420000	12179.115000	-26728.875000	-13199.490000	0.285265	-0.826536	2.408211	6.064507	-2.733586	-11.783747	-3.677419	-1.980254	-5.814060	1.953280	-8.652420	-0.888731	0.136596	0.437072	-1.000000	-1.000000	-1.000000	-1.000000	-1.000000	-1.000000	-1.000000	52.000000	0.000000	-1.000000	-1.000000	226111.000000	1775792306.521076
-12244.815000	-20504.115000	8974.980000	46007.055000	23687.460000	12210.795000	-26725.860000	-13190.940000	0.148944	-1.745499	0.097611	1.961827	-7.489801	-20.601889	-3.641166	-0.636666	-5.814060	1.953280	-8.652420	-0.888731	0.136596	0.437072	-1.000000	-1.000000	-1.000000	-1.000000	-1.000000	-1.000000	-1.000000	52.000000	0.000000	-1.000000	-1.000000	226112.000000	1775792306.521102
-12241.260000	-20498.220000	8972.955000	45997.290000	23690.430000	12277.710000	-26723.250000	-13188.915000	-0.078955	-1.944631	-1.523496	-1.536453	-6.919066	-16.993051	-2.508720	1.106949	-5.814060	1.953280	-8.652420	-0.888731	0.136596	0.437072	-1.000000	-1.000000	-1.000000	-1.000000	-1.000000	-1.000000	-1.000000	52.000000	0.000000	-1.000000	-1.000000	226113.000000	1775792306.521110
-12245.985000	-20502.090000	8968.185000	45989.145000	23691.960000	12282.705000	-26724.150000	-13213.305000	0.034291	-0.771288	-1.554444	-2.984125	-1.848060	0.889332	-0.871628	1.851633	-1.556520	2.426340	-9.049180	-0.873838	0.131897	0.439635	-1.000000	-1.000000	-1.000000	-1.000000	-1.000000	-1.000000	-1.000000	52.000000	0.000000	-1.000000	-1.000000	226114.000000	1775792306.521120
-12255.030000	-20508.660000	8964.630000	45989.775000	23727.555000	12269.880000	-26725.950000	-13240.935000	-0.039015	0.835235	-0.595367	-2.586468	5.228769	21.552685	0.510260	-0.527710	-1.556520	2.426340	-9.049180	-0.873838	0.131897	0.439635	-1.000000	-1.000000	-1.000000	-1.000000	-1.000000	-1.000000	-1.000000	52.000000	0.000000	-1.000000	-1.000000	226115.000000	1775792306.521127
-12254.805000	-20509.785000	8974.890000	46016.505000	23761.080000	12310.740000	-26720.505000	-13234.005000	-0.910264	1.430807	0.675945	-0.279551	12.134840	29.670762	1.077326	-5.749454	-1.556520	2.426340	-9.049180	-0.873838	0.131897	0.439635	-1.000000	-1.000000	-1.000000	-1.000000	-1.000000	-1.000000	-1.000000	52.000000	0.000000	-1.000000	-1.000000	226116.000000	1775792306.521137
-12253.680000	-20506.995000	8978.535000	46022.625000	23763.825000	12316.950000	-26716.590000	-13213.080000	-1.940342	0.861550	2.298718	4.259886	16.647269	21.410751	1.105720	-8.898656	-1.556520	2.426340	-9.049180	-0.873838	0.131897	0.439635	-1.000000	-1.000000	-1.000000	-1.000000	-1.000000	-1.000000	-1.000000	52.000000	0.000000	-1.000000	-1.000000	226117.000000	1775792306.521145
-12255.300000	-20508.750000	8976.465000	46017.225000	23751.585000	12327.930000	-26710.200000	-13200.615000	-1.845179	0.225829	3.975575	8.994828	14.800873	4.221203	1.229466	-4.906130	-1.556520	2.426340	-9.049180	-0.873838	0.131897	0.439635	-1.000000	-1.000000	-1.000000	-1.000000	-1.000000	-1.000000	-1.000000	52.000000	0.000000	-1.000000	-1.000000	226118.000000	1775792306.521154
-12260.700000	-20514.870000	8967.510000	46002.420000	23729.220000	12323.880000	-26713.215000	-13206.240000	-0.466367	0.142244	4.264734	9.596137	3.893495	-12.977836	1.460254	4.820166	-1.556520	2.426340	-9.049180	-0.873838	0.131897	0.439635	-1.000000	-1.000000	-1.000000	-1.000000	-1.000000	-1.000000	-1.000000	52.000000	0.000000	-1.000000	-1.000000	226119.000000	1775792306.521163
-12258.810000	-20511.630000	8971.380000	46007.235000	23724.315000	12269.880000	-26720.910000	-13213.845000	1.170367	0.276749	2.168768	4.100126	-12.800917	-25.410596	0.961924	12.949864	-1.556520	2.426340	-9.049180	-0.873838	0.131897	0.439635	-1.000000	-1.000000	-1.000000	-1.000000	-1.000000	-1.000000	-1.000000	52.000000	0.000000	-1.000000	-1.000000	226120.000000	1775792306.522439
-12235.545000	-20490.840000	8993.160000	46033.245000	23743.080000	12261.690000	-26720.055000	-13194.810000	2.667488	0.795971	-0.776186	-3.742654	-26.184840	-32.279177	-0.855765	13.804795	-1.556520	2.426340	-9.049180	-0.873838	0.131897	0.439635	-1.000000	-1.000000	-1.000000	-1.000000	-1.000000	-1.000000	-1.000000	52.000000	0.000000	-1.000000	-1.000000	226121.000000	1775792306.522467
-12246.795000	-20502.945000	8980.380000	46019.655000	23713.740000	12272.355000	-26722.170000	-13200.795000	4.351581	2.201715	-1.985776	-8.084915	-28.224142	-31.868603	-3.102503	8.224227	-1.556520	2.426340	-9.049180	-0.873838	0.131897	0.439635	-1.000000	-1.000000	-1.000000	-1.000000	-1.000000	-1.000000	-1.000000	52.000000	0.000000	-1.000000	-1.000000	226122.000000	1775792306.528471
-12252.870000	-20509.200000	8972.235000	46010.700000	23721.120000	12277.665000	-26722.665000	-13206.555000	5.008157	3.148836	-1.671852	-7.709482	-18.999891	-20.933735	-4.140415	0.312686	-1.556520	2.426340	-9.049180	-0.873838	0.131897	0.439635	-1.000000	-1.000000	-1.000000	-1.000000	-1.000000	-1.000000	-1.000000	52.000000	0.000000	-1.000000	-1.000000	226123.000000	1775792306.528504
-12259.440000	-20514.870000	8968.905000	46012.995000	23746.230000	12258.810000	-26727.165000	-13215.915000	2.681592	1.557818	-2.096340	-5.676786	-4.123116	-1.536281	-3.297034	-6.905560	3.998120	2.609460	-7.492660	-0.861692	0.128967	0.439879	-1.000000	-1.000000	-1.000000	-1.000000	-1.000000	-1.000000	-1.000000	52.000000	0.000000	-1.000000	-1.000000	226124.000000	1775792306.531220
-12252.555000	-20507.400000	8977.050000	46020.465000	23744.880000	12217.725000	-26727.390000	-13210.965000	-1.896337	-1.970988	-3.434095	-3.713741	11.059868	16.695531	-1.215942	-11.428190	3.998120	2.609460	-7.492660	-0.861692	0.128967	0.439879	-1.000000	-1.000000	-1.000000	-1.000000	-1.000000	-1.000000	-1.000000	52.000000	0.000000	-1.000000	-1.000000	226125.000000	1775792306.531245
-12239.775000	-20495.520000	8986.320000	46021.365000	23719.365000	12191.760000	-26729.145000	-13200.930000	-5.252948	-4.289831	-3.482649	-1.248040	20.959752	23.961230	1.031518	-11.432852	3.998120	2.609460	-7.492660	-0.861692	0.128967	0.439879	-1.000000	-1.000000	-1.000000	-1.000000	-1.000000	-1.000000	-1.000000	52.000000	0.000000	-1.000000	-1.000000	226126.000000	1775792306.536040
-12240.225000	-20493.990000	8987.130000	46020.420000	23715.045000	12193.245000	-26736.615000	-13202.370000	-4.742801	-3.158805	-0.951234	1.727812	20.655439	19.166370	2.551461	-6.621175	3.998120	2.609460	-7.492660	-0.861692	0.128967	0.439879	-1.000000	-1.000000	-1.000000	-1.000000	-1.000000	-1.000000	-1.000000	52.000000	0.000000	-1.000000	-1.000000	226127.000000	1775792306.536064
-12239.505000	-20492.145000	8989.875000	46024.380000	23721.480000	12222.675000	-26728.290000	-13195.215000	-1.321069	0.328978	2.693166	3.989404	11.339108	10.613973	2.962282	0.500426	3.998120	2.609460	-7.492660	-0.861692	0.128967	0.439879	-1.000000	-1.000000	-1.000000	-1.000000	-1.000000	-1.000000	-1.000000	52.000000	0.000000	-1.000000	-1.000000	226128.000000	1775792306.552258
-12249.225000	-20505.690000	8977.050000	46014.210000	23726.655000	12269.115000	-26716.995000	-13195.755000	1.662167	2.891111	4.619422	4.423747	0.289870	7.986347	2.988341	6.241276	3.998120	2.609460	-7.492660	-0.861692	0.128967	0.439879	-1.000000	-1.000000	-1.000000	-1.000000	-1.000000	-1.000000	-1.000000	52.000000	0.000000	-1.000000	-1.000000	226129.000000	1775792306.552284
-12259.845000	-20518.695000	8964.180000	46005.120000	23723.055000	12273.930000	-26723.520000	-13203.585000	1.659843	1.967129	2.945668	2.610173	-6.066538	13.288011	3.431865	8.079779	3.998120	2.609460	-7.492660	-0.861692	0.128967	0.439879	-1.000000	-1.000000	-1.000000	-1.000000	-1.000000	-1.000000	-1.000000	52.000000	0.000000	-1.000000	-1.000000	226130.000000	1775792306.552311
-12265.380000	-20522.385000	8959.410000	45997.065000	23715.000000	12292.110000	-26732.070000	-13220.145000	-1.212290	-2.092719	-1.676194	-0.876014	-6.834868	19.155741	3.302483	5.318010	3.998120	2.609460	-7.492660	-0.861692	0.128967	0.439879	-1.000000	-1.000000	-1.000000	-1.000000	-1.000000	-1.000000	-1.000000	52.000000	0.000000	-1.000000	-1.000000	226131.000000	1775792306.552325
-12266.145000	-20522.430000	8960.310000	45998.460000	23729.130000	12305.745000	-26728.020000	-13240.530000	-4.388826	-5.990940	-5.991273	-4.087582	-4.596352	17.060672	1.209293	-0.885515	3.998120	2.609460	-7.492660	-0.861692	0.128967	0.439879	-1.000000	-1.000000	-1.000000	-1.000000	-1.000000	-1.000000	-1.000000	52.000000	0.000000	-1.000000	-1.000000	226132.000000	1775792306.552340
-12258.720000	-20513.970000	8967.780000	46004.535000	23740.920000	12304.440000	-26722.395000	-13241.880000	-4.859544	-6.170633	-6.496953	-4.629838	-1.226050	5.366827	-1.896988	-7.426513	3.998120	2.609460	-7.492660	-0.861692	0.128967	0.439879	-1.000000	-1.000000	-1.000000	-1.000000	-1.000000	-1.000000	-1.000000	52.000000	0.000000	-1.000000	-1.000000	226133.000000	1775792306.552351
-12250.125000	-20500.920000	8983.530000	46022.625000	23736.510000	12318.795000	-26714.520000	-13226.625000	-1.438932	-1.616133	-2.112937	-1.352166	2.315553	-10.896011	-3.538919	-9.880507	7.141680	3.174080	-6.439720	-0.859556	0.130432	0.439391	-1.000000	-1.000000	-1.000000	-1.000000	-1.000000	-1.000000	-1.000000	52.000000	0.000000	-1.000000	-1.000000	226134.000000	1775792306.552365
-12250.350000	-20502.945000	8981.190000	46019.205000	23713.155000	12301.785000	-26717.445000	-13213.755000	4.210542	5.345703	4.929721	4.375603	3.781802	-24.580857	-2.698634	-5.275591	7.141680	3.174080	-6.439720	-0.859556	0.130432	0.439391	-1.000000	-1.000000	-1.000000	-1.000000	-1.000000	-1.000000	-1.000000	52.000000	0.000000	-1.000000	-1.000000	226135.000000	1775792306.552375
-12253.860000	-20507.715000	8975.925000	46015.380000	23730.345000	12279.645000	-26719.155000	-13207.410000	8.450543	10.223709	10.055605	8.716255	1.395459	-31.238743	-0.791062	4.535718	7.141680	3.174080	-6.439720	-0.859556	0.130432	0.439391	-1.000000	-1.000000	-1.000000	-1.000000	-1.000000	-1.000000	-1.000000	52.000000	0.000000	-1.000000	-1.000000	226136.000000	1775792306.568335
-12258.765000	-20512.530000	8970.705000	46007.235000	23720.310000	12264.390000	-26724.330000	-13212.270000	8.326887	9.567997	9.538915	8.093605	-2.831061	-30.493442	0.119603	13.337425	7.141680	3.174080	-6.439720	-0.859556	0.130432	0.439391	-1.000000	-1.000000	-1.000000	-1.000000	-1.000000	-1.000000	-1.000000	52.000000	0.000000	-1.000000	-1.000000	226137.000000	1775792306.568362
-12252.555000	-20505.645000	8977.635000	46012.500000	23719.455000	12255.120000	-26717.400000	-13208.625000	4.019725	3.962725	3.827910	2.626043	-5.391904	-23.376795	-0.478922	15.361565	7.141680	3.174080	-6.439720	-0.859556	0.130432	0.439391	-1.000000	-1.000000	-1.000000	-1.000000	-1.000000	-1.000000	-1.000000	52.000000	0.000000	-1.000000	-1.000000	226138.000000	1775792306.568714
-12245.040000	-20497.770000	8985.105000	46021.410000	23724.765000	12213.810000	-26716.680000	-13202.865000	-1.289206	-2.485575	-2.832087	-3.746720	-4.949736	-11.752487	-1.311907	9.842525	7.141680	3.174080	-6.439720	-0.859556	0.130432	0.439391	-1.000000	-1.000000	-1.000000	-1.000000	-1.000000	-1.000000	-1.000000	52.000000	0.000000	-1.000000	-1.000000	226139.000000	1775792306.568732
-12244.185000	-20496.015000	8988.930000	46024.425000	23729.085000	12217.680000	-26728.920000	-13207.680000	-4.318003	-5.866112	-6.286085	-6.808911	-1.970396	0.948918	-1.361417	0.677181	7.141680	3.174080	-6.439720	-0.859556	0.130432	0.439391	-1.000000	-1.000000	-1.000000	-1.000000	-1.000000	-1.000000	-1.000000	52.000000	0.000000	-1.000000	-1.000000	226140.000000	1775792306.568794
-12249.765000	-20502.270000	8982.045000	46014.975000	23729.805000	12294.315000	-26728.605000	-13213.080000	-4.488305	-5.607114	-5.814315	-5.793447	2.081496	13.582636	-1.118490	-7.639385	7.141680	3.174080	-6.439720	-0.859556	0.130432	0.439391	-1.000000	-1.000000	-1.000000	-1.000000	-1.000000	-1.000000	-1.000000	52.000000	0.000000	-1.000000	-1.000000	226141.000000	1775792306.568810
-12248.730000	-20499.345000	8985.510000	46019.565000	23732.505000	12349.530000	-26720.325000	-13211.865000	-3.457827	-3.789091	-3.613495	-3.125856	5.109757	28.453552	-0.873411	-12.412463	7.141680	3.174080	-6.439720	-0.859556	0.130432	0.439391	-1.000000	-1.000000	-1.000000	-1.000000	-1.000000	-1.000000	-1.000000	52.000000	0.000000	-1.000000	-1.000000	226142.000000	1775792306.568832
-12248.325000	-20500.425000	8983.350000	46016.415000	23715.045000	12308.040000	-26718.795000	-13209.390000	-2.554350	-2.186857	-1.755390	-1.019208	5.363175	41.981537	0.183530	-12.519933	7.141680	3.174080	-6.439720	-0.859556	0.130432	0.439391	-1.000000	-1.000000	-1.000000	-1.000000	-1.000000	-1.000000	-1.000000	52.000000	0.000000	-1.000000	-1.000000	226143.000000	1775792306.568845
-12251.070000	-20507.085000	8975.295000	46008.945000	23719.860000	12289.860000	-26720.595000	-13209.840000	-1.852364	-1.242569	-0.895382	-0.071862	2.444675	41.488841	2.092364	-8.394076	4.104940	2.105880	-5.676720	-0.868101	0.130371	0.441283	-1.000000	-1.000000	-1.000000	-1.000000	-1.000000	-1.000000	-1.000000	52.000000	0.000000	-1.000000	-1.000000	226144.000000	1775792306.580492
-12242.880000	-20497.320000	8986.140000	46020.780000	23742.315000	12288.015000	-26716.320000	-13202.460000	-0.953704	-0.699553	-0.720919	0.102677	-1.338746	20.306390	3.538707	-2.055415	4.104940	2.105880	-5.676720	-0.868101	0.130371	0.441283	-1.000000	-1.000000	-1.000000	-1.000000	-1.000000	-1.000000	-1.000000	52.000000	0.000000	-1.000000	-1.000000	226145.000000	1775792306.580519
-12246.705000	-20502.810000	8982.585000	46020.780000	23753.160000	12296.385000	-26712.990000	-13203.630000	0.384474	0.065022	-0.246451	0.586399	-2.202174	-11.092975	3.580486	3.912823	4.104940	2.105880	-5.676720	-0.868101	0.130371	0.441283	-1.000000	-1.000000	-1.000000	-1.000000	-1.000000	-1.000000	-1.000000	52.000000	0.000000	-1.000000	-1.000000	226146.000000	1775792306.580551
-12249.810000	-20505.645000	8980.695000	46021.320000	23757.210000	12296.070000	-26715.510000	-13205.835000	1.671569	1.114859	0.941490	1.881760	0.638478	-34.723231	2.347402	7.334314	4.104940	2.105880	-5.676720	-0.868101	0.130371	0.441283	-1.000000	-1.000000	-1.000000	-1.000000	-1.000000	-1.000000	-1.000000	52.000000	0.000000	-1.000000	-1.000000	226147.000000	1775792306.580563
-12250.980000	-20510.505000	8974.260000	46015.245000	23740.785000	12283.425000	-26715.690000	-13205.925000	1.976776	1.629942	1.902838	2.918619	3.541517	-40.441088	0.314113	7.187870	4.104940	2.105880	-5.676720	-0.868101	0.130371	0.441283	-1.000000	-1.000000	-1.000000	-1.000000	-1.000000	-1.000000	-1.000000	52.000000	0.000000	-1.000000	-1.000000	226148.000000	1775792306.580579
-12259.305000	-20518.380000	8965.845000	46005.795000	23726.925000	12267.315000	-26722.890000	-13216.320000	1.046621	1.062538	1.584522	2.272534	2.245218	-30.623271	-2.006686	4.086117	4.104940	2.105880	-5.676720	-0.868101	0.130371	0.441283	-1.000000	-1.000000	-1.000000	-1.000000	-1.000000	-1.000000	-1.000000	52.000000	0.000000	-1.000000	-1.000000	226149.000000	1775792306.580590
-12258.180000	-20515.860000	8969.625000	46008.450000	23724.990000	12262.860000	-26725.005000	-13217.355000	-0.496956	-0.147783	0.158096	-0.103582	-3.510806	-14.158154	-3.987290	-0.269673	4.104940	2.105880	-5.676720	-0.868101	0.130371	0.441283	-1.000000	-1.000000	-1.000000	-1.000000	-1.000000	-1.000000	-1.000000	52.000000	0.000000	-1.000000	-1.000000	226150.000000	1775792306.583462
-12253.365000	-20508.795000	8976.735000	46012.905000	23723.820000	12261.420000	-26723.790000	-13213.980000	-1.449302	-0.683658	-0.801030	-2.371882	-9.362719	1.396259	-4.815876	-3.693477	4.104940	2.105880	-5.676720	-0.868101	0.130371	0.441283	-1.000000	-1.000000	-1.000000	-1.000000	-1.000000	-1.000000	-1.000000	52.000000	0.000000	-1.000000	-1.000000	226151.000000	1775792306.583487
-12254.715000	-20510.505000	8972.145000	46004.445000	23713.155000	12252.060000	-26724.240000	-13212.225000	-0.818846	0.444101	0.013115	-2.675351	-10.751191	12.359673	-3.799018	-4.335016	4.104940	2.105880	-5.676720	-0.868101	0.130371	0.441283	-1.000000	-1.000000	-1.000000	-1.000000	-1.000000	-1.000000	-1.000000	52.000000	0.000000	-1.000000	-1.000000	226152.000000	1775792306.589220
-12249.090000	-20502.630000	8980.425000	46010.295000	23712.120000	12264.255000	-26722.620000	-13207.680000	1.071359	2.593283	1.978718	-1.159763	-6.968011	17.754775	-1.145562	-2.047580	4.104940	2.105880	-5.676720	-0.868101	0.130371	0.441283	-1.000000	-1.000000	-1.000000	-1.000000	-1.000000	-1.000000	-1.000000	52.000000	0.000000	-1.000000	-1.000000	226153.000000	1775792306.589245
-12244.500000	-20495.835000	8989.920000	46022.625000	23718.465000	12275.280000	-26719.560000	-13206.060000	3.011625	4.317536	3.706327	1.131806	-0.287937	18.599671	2.002641	1.508353	-0.503580	2.792580	-4.669560	-0.886106	0.130371	0.440429	-1.000000	-1.000000	-1.000000	-1.000000	-1.000000	-1.000000	-1.000000	52.000000	0.000000	-1.000000	-1.000000	226154.000000	1775792306.590523
-12233.385000	-20484.585000	9000.945000	46032.165000	23723.460000	12232.800000	-26714.250000	-13197.105000	4.135785	4.828615	4.606873	3.704388	6.642869	15.773693	4.431803	4.292801	-0.503580	2.792580	-4.669560	-0.886106	0.130371	0.440429	-1.000000	-1.000000	-1.000000	-1.000000	-1.000000	-1.000000	-1.000000	52.000000	0.000000	-1.000000	-1.000000	226155.000000	1775792306.590542
-12236.265000	-20486.970000	8998.560000	46031.580000	23735.475000	12203.145000	-26721.540000	-13202.640000	4.053967	3.907496	4.336017	5.674216	11.686147	7.970650	5.241477	5.037385	-0.503580	2.792580	-4.669560	-0.886106	0.130371	0.440429	-1.000000	-1.000000	-1.000000	-1.000000	-1.000000	-1.000000	-1.000000	52.000000	0.000000	-1.000000	-1.000000	226156.000000	1775792306.595209
-12250.620000	-20507.490000	8978.355000	46017.045000	23747.895000	12240.630000	-26724.330000	-13214.160000	2.121125	0.981078	1.861421	5.121748	13.511528	-3.376224	3.823037	3.141988	-0.503580	2.792580	-4.669560	-0.886106	0.130371	0.440429	-1.000000	-1.000000	-1.000000	-1.000000	-1.000000	-1.000000	-1.000000	52.000000	0.000000	-1.000000	-1.000000	226157.000000	1775792306.595236
-12248.955000	-20508.390000	8978.490000	46019.565000	23757.255000	12295.755000	-26716.320000	-13203.855000	-1.938008	-4.187005	-3.318376	0.980975	11.845059	-9.755694	0.736538	-0.857474	-0.503580	2.792580	-4.669560	-0.886106	0.130371	0.440429	-1.000000	-1.000000	-1.000000	-1.000000	-1.000000	-1.000000	-1.000000	52.000000	0.000000	-1.000000	-1.000000	226158.000000	1775792306.599445
-12246.840000	-20505.195000	8981.820000	46021.410000	23738.310000	12277.080000	-26718.885000	-13193.730000	-6.259876	-9.328024	-8.822320	-4.707577	6.732266	-4.783747	-2.058980	-4.301483	-0.503580	2.792580	-4.669560	-0.886106	0.130371	0.440429	-1.000000	-1.000000	-1.000000	-1.000000	-1.000000	-1.000000	-1.000000	52.000000	0.000000	-1.000000	-1.000000	226159.000000	1775792306.599480
-12244.275000	-20504.745000	8980.920000	46016.010000	23701.500000	12245.760000	-26718.930000	-13191.795000	-7.816608	-10.681684	-10.675613	-8.270712	-2.146022	4.960803	-3.149058	-4.493068	-0.503580	2.792580	-4.669560	-0.886106	0.130371	0.440429	-1.000000	-1.000000	-1.000000	-1.000000	-1.000000	-1.000000	-1.000000	52.000000	0.000000	-1.000000	-1.000000	226160.000000	1775792306.602655
-12233.655000	-20489.355000	8995.095000	46026.135000	23681.295000	12206.745000	-26723.520000	-13204.665000	-5.314879	-6.669689	-7.191788	-7.791421	-13.682167	6.717551	-2.826610	-2.063898	-0.503580	2.792580	-4.669560	-0.886106	0.130371	0.440429	-1.000000	-1.000000	-1.000000	-1.000000	-1.000000	-1.000000	-1.000000	52.000000	0.000000	-1.000000	-1.000000	226161.000000	1775792306.602676
-12238.290000	-20491.020000	8992.305000	46019.655000	23678.280000	12211.245000	-26728.155000	-13231.845000	-0.189330	0.831983	-0.151779	-3.935458	-22.841658	-2.994121	-2.127056	-0.572172	-0.503580	2.792580	-4.669560	-0.886106	0.130371	0.440429	-1.000000	-1.000000	-1.000000	-1.000000	-1.000000	-1.000000	-1.000000	52.000000	0.000000	-1.000000	-1.000000	226162.000000	1775792306.606582
-12255.210000	-20509.830000	8970.660000	45995.895000	23708.970000	12276.630000	-26722.035000	-13239.450000	4.094622	7.359827	6.124880	0.471503	-22.509030	-13.858674	-1.527731	-2.459663	-0.503580	2.792580	-4.669560	-0.886106	0.130371	0.440429	-1.000000	-1.000000	-1.000000	-1.000000	-1.000000	-1.000000	-1.000000	52.000000	0.000000	-1.000000	-1.000000	226163.000000	1775792306.606603
-12258.495000	-20512.440000	8970.120000	46004.085000	23743.710000	12285.045000	-26717.760000	-13222.620000	4.445351	8.605365	7.473942	2.375854	-9.264316	-12.872671	-0.522692	-5.492430	-5.279960	3.952340	-4.944240	-0.894407	0.126037	0.436889	-1.000000	-1.000000	-1.000000	-1.000000	-1.000000	-1.000000	-1.000000	52.000000	0.000000	-1.000000	-1.000000	226164.000000	1775792306.614321
-12238.470000	-20493.945000	8988.885000	46022.085000	23720.085000	12187.305000	-26705.250000	-13188.510000	1.654534	4.826579	4.294065	2.271130	11.326967	-1.358997	1.471340	-4.204311	-5.279960	3.952340	-4.944240	-0.894407	0.126037	0.436889	-1.000000	-1.000000	-1.000000	-1.000000	-1.000000	-1.000000	-1.000000	52.000000	0.000000	-1.000000	-1.000000	226165.000000	1775792306.614345
-12236.805000	-20491.785000	8993.070000	46028.610000	23713.245000	12155.085000	-26708.940000	-13188.960000	-0.250790	0.670334	1.176559	3.294649	26.219502	5.241253	3.884028	3.613786	-5.279960	3.952340	-4.944240	-0.894407	0.126037	0.436889	-1.000000	-1.000000	-1.000000	-1.000000	-1.000000	-1.000000	-1.000000	52.000000	0.000000	-1.000000	-1.000000	226166.000000	1775792306.630287
-12243.915000	-20497.095000	8987.850000	46022.355000	23740.785000	12257.595000	-26716.005000	-13206.420000	0.618579	-0.710888	0.850612	5.895434	26.447081	0.836936	4.812157	12.538251	-5.279960	3.952340	-4.944240	-0.894407	0.126037	0.436889	-1.000000	-1.000000	-1.000000	-1.000000	-1.000000	-1.000000	-1.000000	52.000000	0.000000	-1.000000	-1.000000	226167.000000	1775792306.630313
-12258.900000	-20515.320000	8969.985000	46010.520000	23759.370000	12372.075000	-26717.220000	-13216.815000	1.857573	-0.708978	1.361789	6.817487	15.464015	-0.078790	2.735412	14.251196	-5.279960	3.952340	-4.944240	-0.894407	0.126037	0.436889	-1.000000	-1.000000	-1.000000	-1.000000	-1.000000	-1.000000	-1.000000	52.000000	0.000000	-1.000000	-1.000000	226168.000000	1775792306.630341
-12270.150000	-20528.640000	8958.960000	46005.480000	23761.350000	12362.355000	-26711.235000	-13222.035000	0.540317	-2.138587	-0.367813	3.494365	2.541955	14.244166	-1.288070	6.479355	-5.279960	3.952340	-4.944240	-0.894407	0.126037	0.436889	-1.000000	-1.000000	-1.000000	-1.000000	-1.000000	-1.000000	-1.000000	52.000000	0.000000	-1.000000	-1.000000	226169.000000	1775792306.630354
-12283.380000	-20542.905000	8941.860000	45982.260000	23747.085000	12307.995000	-26714.880000	-13231.305000	-3.214884	-5.362684	-4.520178	-3.014096	-7.302474	30.655916	-4.419229	-5.286058	-5.279960	3.952340	-4.944240	-0.894407	0.126037	0.436889	-1.000000	-1.000000	-1.000000	-1.000000	-1.000000	-1.000000	-1.000000	52.000000	0.000000	-1.000000	-1.000000	226170.000000	1775792306.630369
-12280.005000	-20543.535000	8936.595000	45968.400000	23717.610000	12287.520000	-26721.225000	-13228.785000	-6.495901	-7.871481	-8.328741	-9.498797	-14.494256	26.458677	-5.103155	-13.572964	-5.279960	3.952340	-4.944240	-0.894407	0.126037	0.436889	-1.000000	-1.000000	-1.000000	-1.000000	-1.000000	-1.000000	-1.000000	52.000000	0.000000	-1.000000	-1.000000	226171.000000	1775792306.630380
-12238.830000	-20501.190000	8981.550000	46020.420000	23733.405000	12303.045000	-26714.340000	-13197.330000	-5.416496	-5.959496	-7.768686	-11.687936	-19.599875	-0.928848	-3.814480	-13.628481	-5.279960	3.952340	-4.944240	-0.894407	0.126037	0.436889	-1.000000	-1.000000	-1.000000	-1.000000	-1.000000	-1.000000	-1.000000	52.000000	0.000000	-1.000000	-1.000000	226172.000000	1775792306.630394
-12237.165000	-20500.605000	8980.965000	46015.740000	23726.655000	12285.855000	-26708.670000	-13193.685000	1.826378	2.169895	-0.353162	-5.832703	-19.969978	-31.858427	-1.286383	-5.216170	-5.279960	3.952340	-4.944240	-0.894407	0.126037	0.436889	-1.000000	-1.000000	-1.000000	-1.000000	-1.000000	-1.000000	-1.000000	52.000000	0.000000	-1.000000	-1.000000	226173.000000	1775792306.630413
-12241.665000	-20503.665000	8978.220000	46009.935000	23722.695000	12272.760000	-26708.985000	-13198.230000	11.127885	12.409699	10.329754	5.464562	-13.503446	-46.681764	1.839923	6.265199	-5.753020	5.371520	-6.638100	-0.886289	0.115967	0.433532	-1.000000	-1.000000	-1.000000	-1.000000	-1.000000	-1.000000	-1.000000	52.000000	0.000000	-1.000000	-1.000000	226174.000000	1775792306.638125
-12249.855000	-20510.415000	8973.315000	46007.595000	23722.020000	12282.210000	-26712.945000	-13206.645000	14.795410	16.889365	16.172882	13.579420	-2.660444	-40.039446	4.140196	12.795470	-5.753020	5.371520	-6.638100	-0.886289	0.115967	0.433532	-1.000000	-1.000000	-1.000000	-1.000000	-1.000000	-1.000000	-1.000000	52.000000	0.000000	-1.000000	-1.000000	226175.000000	1775792306.638152
-12253.320000	-20512.035000	8972.235000	46005.345000	23730.120000	12311.550000	-26712.045000	-13210.920000	9.314037	11.840908	12.727398	12.959471	7.920657	-17.629967	4.214450	10.394377	-5.753020	5.371520	-6.638100	-0.886289	0.115967	0.433532	-1.000000	-1.000000	-1.000000	-1.000000	-1.000000	-1.000000	-1.000000	52.000000	0.000000	-1.000000	-1.000000	226176.000000	1775792306.638186
-12258.630000	-20515.230000	8969.760000	46004.085000	23738.040000	12299.625000	-26716.320000	-13218.705000	-1.746135	0.654947	2.686779	5.335839	14.999405	9.915602	2.145022	1.709100	-5.753020	5.371520	-6.638100	-0.886289	0.115967	0.433532	-1.000000	-1.000000	-1.000000	-1.000000	-1.000000	-1.000000	-1.000000	52.000000	0.000000	-1.000000	-1.000000	226177.000000	1775792306.638198
-12252.555000	-20510.730000	8975.205000	46012.950000	23741.820000	12295.080000	-26710.470000	-13210.740000	-11.513722	-9.868599	-7.586257	-3.588264	17.263643	30.197302	-0.588909	-7.091256	-5.753020	5.371520	-6.638100	-0.886289	0.115967	0.433532	-1.000000	-1.000000	-1.000000	-1.000000	-1.000000	-1.000000	-1.000000	52.000000	0.000000	-1.000000	-1.000000	226178.000000	1775792306.638674
-12252.690000	-20512.530000	8972.820000	46010.745000	23730.930000	12283.335000	-26712.180000	-13210.830000	-14.810058	-14.526357	-12.881193	-8.750498	14.400209	34.767604	-2.293164	-10.769045	-5.753020	5.371520	-6.638100	-0.886289	0.115967	0.433532	-1.000000	-1.000000	-1.000000	-1.000000	-1.000000	-1.000000	-1.000000	52.000000	0.000000	-1.000000	-1.000000	226179.000000	1775792306.638691
-12249.810000	-20507.535000	8978.580000	46014.030000	23731.020000	12278.970000	-26710.020000	-13211.505000	-10.961864	-12.308431	-11.826324	-8.686898	7.089264	24.354310	-2.273225	-8.144944	-5.753020	5.371520	-6.638100	-0.886289	0.115967	0.433532	-1.000000	-1.000000	-1.000000	-1.000000	-1.000000	-1.000000	-1.000000	52.000000	0.000000	-1.000000	-1.000000	226180.000000	1775792306.646084
-12251.970000	-20508.030000	8978.580000	46012.095000	23731.425000	12277.575000	-26713.890000	-13216.320000	-3.288853	-5.762841	-6.441752	-5.252596	-1.970292	7.145620	-1.159528	-2.169732	-5.753020	5.371520	-6.638100	-0.886289	0.115967	0.433532	-1.000000	-1.000000	-1.000000	-1.000000	-1.000000	-1.000000	-1.000000	52.000000	0.000000	-1.000000	-1.000000	226181.000000	1775792306.646111
-12254.400000	-20508.795000	8978.985000	46012.410000	23730.570000	12277.620000	-26717.310000	-13218.615000	3.717425	1.250214	-0.112782	-1.249206	-8.856654	-7.390366	-0.140181	3.062782	-5.753020	5.371520	-6.638100	-0.886289	0.115967	0.433532	-1.000000	-1.000000	-1.000000	-1.000000	-1.000000	-1.000000	-1.000000	52.000000	0.000000	-1.000000	-1.000000	226182.000000	1775792306.660570
-12249.315000	-20501.595000	8986.005000	46020.420000	23732.055000	12274.245000	-26719.065000	-13216.365000	7.223756	5.797248	4.398096	1.572624	-11.080033	-13.845721	0.052648	5.345549	-5.753020	5.371520	-6.638100	-0.886289	0.115967	0.433532	-1.000000	-1.000000	-1.000000	-1.000000	-1.000000	-1.000000	-1.000000	52.000000	0.000000	-1.000000	-1.000000	226183.000000	1775792306.660594
-12253.230000	-20509.245000	8976.195000	46012.455000	23727.105000	12267.360000	-26718.075000	-13219.470000	7.075226	6.962880	5.939067	2.859185	-8.896656	-12.498508	-0.310075	4.949001	2.685760	7.187460	-4.562740	-0.880491	0.109497	0.430358	-1.000000	-1.000000	-1.000000	-1.000000	-1.000000	-1.000000	-1.000000	52.000000	0.000000	-1.000000	-1.000000	226184.000000	1775792306.660623
-12253.725000	-20510.820000	8971.155000	46005.210000	23724.405000	12247.740000	-26716.770000	-13218.030000	4.610841	5.176166	4.468763	2.502725	-4.533759	-7.405293	-0.382141	3.208156	2.685760	7.187460	-4.562740	-0.880491	0.109497	0.430358	-1.000000	-1.000000	-1.000000	-1.000000	-1.000000	-1.000000	-1.000000	52.000000	0.000000	-1.000000	-1.000000	226185.000000	1775792306.660635
-12247.965000	-20505.465000	8976.150000	46007.370000	23728.005000	12225.555000	-26713.530000	-13209.975000	1.471617	1.773001	1.071058	0.641039	-0.312859	-3.162058	0.331729	1.457553	2.685760	7.187460	-4.562740	-0.880491	0.109497	0.430358	-1.000000	-1.000000	-1.000000	-1.000000	-1.000000	-1.000000	-1.000000	52.000000	0.000000	-1.000000	-1.000000	226186.000000	1775792306.660649
-12244.905000	-20503.440000	8980.650000	46014.255000	23719.095000	12190.590000	-26719.470000	-13209.975000	-0.749089	-1.117385	-1.808628	-1.235803	2.562236	-2.269277	1.428886	0.621070	2.685760	7.187460	-4.562740	-0.880491	0.109497	0.430358	-1.000000	-1.000000	-1.000000	-1.000000	-1.000000	-1.000000	-1.000000	52.000000	0.000000	-1.000000	-1.000000	226187.000000	1775792306.660661
-12253.365000	-20512.080000	8973.630000	46010.205000	23719.590000	12206.115000	-26720.730000	-13216.995000	-1.519200	-2.250376	-2.380196	-1.410156	3.665649	-3.483633	1.869036	0.402702	2.685760	7.187460	-4.562740	-0.880491	0.109497	0.430358	-1.000000	-1.000000	-1.000000	-1.000000	-1.000000	-1.000000	-1.000000	52.000000	0.000000	-1.000000	-1.000000	226188.000000	1775792306.662053
-12268.755000	-20528.820000	8957.925000	45996.705000	23714.820000	12296.430000	-26721.135000	-13226.220000	-2.013087	-2.523834	-1.521614	-0.268493	3.176835	-0.817360	1.126159	-0.522295	2.685760	7.187460	-4.562740	-0.880491	0.109497	0.430358	-1.000000	-1.000000	-1.000000	-1.000000	-1.000000	-1.000000	-1.000000	52.000000	0.000000	-1.000000	-1.000000	226189.000000	1775792306.662078
-12268.125000	-20526.165000	8960.310000	45995.805000	23698.665000	12295.575000	-26721.045000	-13220.100000	-3.364296	-3.224901	-1.186961	0.301827	1.640549	10.778430	-0.170621	-2.517401	2.685760	7.187460	-4.562740	-0.880491	0.109497	0.430358	-1.000000	-1.000000	-1.000000	-1.000000	-1.000000	-1.000000	-1.000000	52.000000	0.000000	-1.000000	-1.000000	226190.000000	1775792306.668785
-12262.770000	-20518.290000	8968.410000	46003.950000	23699.475000	12278.160000	-26718.525000	-13211.730000	-4.492000	-3.525384	-1.282048	-0.080866	-0.441012	24.750604	-0.991927	-3.852127	2.685760	7.187460	-4.562740	-0.880491	0.109497	0.430358	-1.000000	-1.000000	-1.000000	-1.000000	-1.000000	-1.000000	-1.000000	52.000000	0.000000	-1.000000	-1.000000	226191.000000	1775792306.668808
-12266.415000	-20522.610000	8964.585000	46002.330000	23709.330000	12269.520000	-26717.310000	-13210.200000	-3.370177	-1.674120	-0.216027	0.049217	-1.758105	26.953867	-0.824794	-2.692026	2.685760	7.187460	-4.562740	-0.880491	0.109497	0.430358	-1.000000	-1.000000	-1.000000	-1.000000	-1.000000	-1.000000	-1.000000	52.000000	0.000000	-1.000000	-1.000000	226192.000000	1775792306.668835
-12264.525000	-20524.230000	8960.535000	45996.345000	23711.760000	12273.165000	-26717.040000	-13211.505000	0.003696	1.847653	1.953995	1.197228	-0.640146	12.515675	0.039495	0.342749	2.685760	7.187460	-4.562740	-0.880491	0.109497	0.430358	-1.000000	-1.000000	-1.000000	-1.000000	-1.000000	-1.000000	-1.000000	52.000000	0.000000	-1.000000	-1.000000	226193.000000	1775792306.668846
-12256.290000	-20516.085000	8968.005000	46002.510000	23707.845000	12255.030000	-26730.315000	-13227.255000	3.792390	4.831985	3.591159	2.223119	2.432460	-9.688886	0.583289	2.550771	3.540320	6.744920	-3.402980	-0.877012	0.115661	0.431029	-1.000000	-1.000000	-1.000000	-1.000000	-1.000000	-1.000000	-1.000000	52.000000	0.000000	-1.000000	-1.000000	226194.000000	1775792306.678401
-12248.730000	-20504.520000	8981.820000	46016.325000	23704.560000	12201.975000	-26744.355000	-13238.190000	6.459216	6.175825	4.129325	2.624291	4.724185	-28.057409	-0.405575	1.671087	3.540320	6.744920	-3.402980	-0.877012	0.115661	0.431029	-1.000000	-1.000000	-1.000000	-1.000000	-1.000000	-1.000000	-1.000000	52.000000	0.000000	-1.000000	-1.000000	226195.000000	1775792306.678425
-12237.435000	-20492.685000	8989.785000	46015.560000	23705.370000	12142.170000	-26730.720000	-13231.260000	7.390014	6.275897	4.303757	2.943294	4.205792	-37.429648	-2.602110	-1.644622	3.540320	6.744920	-3.402980	-0.877012	0.115661	0.431029	-1.000000	-1.000000	-1.000000	-1.000000	-1.000000	-1.000000	-1.000000	52.000000	0.000000	-1.000000	-1.000000	226196.000000	1775792306.678453
-12233.655000	-20484.540000	8999.955000	46026.720000	23728.995000	12147.975000	-26719.155000	-13235.985000	6.420928	5.500478	4.298402	3.074078	1.812562	-36.825081	-3.254658	-4.091475	3.540320	6.744920	-3.402980	-0.877012	0.115661	0.431029	-1.000000	-1.000000	-1.000000	-1.000000	-1.000000	-1.000000	-1.000000	52.000000	0.000000	-1.000000	-1.000000	226197.000000	1775792306.678467
-12235.140000	-20481.030000	9010.035000	46049.130000	23764.275000	12260.880000	-26712.630000	-13228.065000	3.479937	3.519459	3.454121	2.695216	0.814559	-22.412264	-0.247998	-3.190039	3.540320	6.744920	-3.402980	-0.877012	0.115661	0.431029	-1.000000	-1.000000	-1.000000	-1.000000	-1.000000	-1.000000	-1.000000	52.000000	0.000000	-1.000000	-1.000000	226198.000000	1775792306.689979
-12254.130000	-20508.615000	8980.110000	46021.590000	23769.630000	12357.000000	-26711.145000	-13219.830000	-1.461746	-0.520177	0.726419	1.604695	3.010754	9.747068	4.705956	0.732394	3.540320	6.744920	-3.402980	-0.877012	0.115661	0.431029	-1.000000	-1.000000	-1.000000	-1.000000	-1.000000	-1.000000	-1.000000	52.000000	0.000000	-1.000000	-1.000000	226199.000000	1775792306.690005
-12255.570000	-20521.620000	8959.950000	45994.005000	23742.540000	12345.705000	-26707.815000	-13203.045000	-7.598264	-7.079193	-5.059391	-1.940204	5.034554	49.674643	7.735183	5.701002	3.540320	6.744920	-3.402980	-0.877012	0.115661	0.431029	-1.000000	-1.000000	-1.000000	-1.000000	-1.000000	-1.000000	-1.000000	52.000000	0.000000	-1.000000	-1.000000	226200.000000	1775792306.690036
-12246.795000	-20512.935000	8966.295000	45996.075000	23717.475000	12329.235000	-26703.495000	-13192.650000	-12.092371	-13.764771	-12.440926	-8.642469	1.077405	71.497560	6.656201	9.468163	3.540320	6.744920	-3.402980	-0.877012	0.115661	0.431029	-1.000000	-1.000000	-1.000000	-1.000000	-1.000000	-1.000000	-1.000000	52.000000	0.000000	-1.000000	-1.000000	226201.000000	1775792306.690048
-12248.145000	-20510.370000	8972.820000	46005.615000	23702.985000	12272.310000	-26705.205000	-13202.190000	-11.574807	-15.496241	-15.971459	-14.064951	-9.538074	55.332832	2.283318	9.834784	3.540320	6.744920	-3.402980	-0.877012	0.115661	0.431029	-1.000000	-1.000000	-1.000000	-1.000000	-1.000000	-1.000000	-1.000000	52.000000	0.000000	-1.000000	-1.000000	226202.000000	1775792306.690064
-12253.950000	-20514.960000	8971.515000	46009.080000	23738.760000	12222.495000	-26709.840000	-13211.325000	-5.965258	-9.800280	-11.496731	-12.445316	-19.321162	6.410988	-3.114563	5.215700	3.540320	6.744920	-3.402980	-0.877012	0.115661	0.431029	-1.000000	-1.000000	-1.000000	-1.000000	-1.000000	-1.000000	-1.000000	52.000000	0.000000	-1.000000	-1.000000	226203.000000	1775792306.690075
-12262.230000	-20522.385000	8963.595000	45999.270000	23722.560000	12259.710000	-26710.695000	-13220.370000	1.040559	0.018892	-1.220520	-3.742275	-19.227553	-47.807351	-7.411736	-3.464489	-0.579880	4.837420	0.320460	-0.876768	0.126831	0.431273	-1.000000	-1.000000	-1.000000	-1.000000	-1.000000	-1.000000	-1.000000	52.000000	0.000000	-1.000000	-1.000000	226204.000000	1775792306.692202
-12260.790000	-20520.720000	8962.830000	45996.795000	23724.135000	12313.170000	-26708.445000	-13218.930000	5.671088	8.329797	8.570592	6.271793	-8.509155	-74.895873	-9.023552	-12.030313	-0.579880	4.837420	0.320460	-0.876768	0.126831	0.431273	-1.000000	-1.000000	-1.000000	-1.000000	-1.000000	-1.000000	-1.000000	52.000000	0.000000	-1.000000	-1.000000	226205.000000	1775792306.692221
-12252.150000	-20514.195000	8970.480000	46009.215000	23745.690000	12335.265000	-26700.345000	-13210.380000	7.125626	12.063962	13.376038	12.175733	5.669916	-59.867367	-7.168513	-15.455314	-0.579880	4.837420	0.320460	-0.876768	0.126831	0.431273	-1.000000	-1.000000	-1.000000	-1.000000	-1.000000	-1.000000	-1.000000	52.000000	0.000000	-1.000000	-1.000000	226206.000000	1775792306.694349
-12251.610000	-20512.935000	8972.685000	46011.420000	23745.780000	12313.890000	-26701.785000	-13212.540000	6.876545	11.613520	12.949430	12.933948	16.426562	-16.902954	-2.541857	-11.588838	-0.579880	4.837420	0.320460	-0.876768	0.126831	0.431273	-1.000000	-1.000000	-1.000000	-1.000000	-1.000000	-1.000000	-1.000000	52.000000	0.000000	-1.000000	-1.000000	226207.000000	1775792306.694375
-12241.485000	-20501.505000	8984.925000	46022.265000	23724.045000	12232.845000	-26705.655000	-13207.365000	6.133626	8.745662	9.444217	10.274970	19.693750	22.418801	2.452547	-2.888647	-0.579880	4.837420	0.320460	-0.876768	0.126831	0.431273	-1.000000	-1.000000	-1.000000	-1.000000	-1.000000	-1.000000	-1.000000	52.000000	0.000000	-1.000000	-1.000000	226208.000000	1775792306.701582
-12236.580000	-20493.540000	8993.205000	46030.545000	23713.110000	12165.075000	-26715.600000	-13206.915000	5.070502	5.160255	5.167713	6.136886	13.803685	33.513623	5.005987	5.779336	-0.579880	4.837420	0.320460	-0.876768	0.126831	0.431273	-1.000000	-1.000000	-1.000000	-1.000000	-1.000000	-1.000000	-1.000000	52.000000	0.000000	-1.000000	-1.000000	226209.000000	1775792306.701607
-12253.320000	-20511.180000	8974.395000	46008.135000	23712.030000	12208.545000	-26721.540000	-13220.865000	3.054471	1.482581	1.019376	1.378392	1.810883	17.242508	3.979464	10.341544	-0.579880	4.837420	0.320460	-0.876768	0.126831	0.431273	-1.000000	-1.000000	-1.000000	-1.000000	-1.000000	-1.000000	-1.000000	52.000000	0.000000	-1.000000	-1.000000	226210.000000	1775792306.702219
-12275.145000	-20533.320000	8951.265000	45983.070000	23721.435000	12325.410000	-26710.965000	-13236.120000	-1.178119	-3.310232	-4.070878	-4.713499	-8.973227	-1.289922	0.984304	8.929123	-0.579880	4.837420	0.320460	-0.876768	0.126831	0.431273	-1.000000	-1.000000	-1.000000	-1.000000	-1.000000	-1.000000	-1.000000	52.000000	0.000000	-1.000000	-1.000000	226211.000000	1775792306.702239
-12278.340000	-20535.030000	8950.005000	45981.810000	23718.510000	12292.515000	-26703.630000	-13235.220000	-7.393196	-9.405482	-10.351381	-11.815379	-12.500210	0.728232	-0.748067	2.921001	-0.579880	4.837420	0.320460	-0.876768	0.126831	0.431273	-1.000000	-1.000000	-1.000000	-1.000000	-1.000000	-1.000000	-1.000000	52.000000	0.000000	-1.000000	-1.000000	226212.000000	1775792306.709698
-12268.035000	-20526.345000	8958.330000	45990.540000	23713.650000	12241.890000	-26703.585000	-13226.715000	-11.912851	-13.509837	-14.425466	-15.944727	-8.611772	17.310749	0.439476	-3.091632	-0.579880	4.837420	0.320460	-0.876768	0.126831	0.431273	-1.000000	-1.000000	-1.000000	-1.000000	-1.000000	-1.000000	-1.000000	52.000000	0.000000	-1.000000	-1.000000	226213.000000	1775792306.709724
-12246.750000	-20507.490000	8975.835000	46007.280000	23728.950000	12274.155000	-26705.880000	-13212.180000	-10.119221	-11.273584	-11.882863	-12.537769	-1.512445	25.451512	2.905779	-4.493199	-5.157880	2.960440	1.861720	-0.879881	0.131408	0.430968	-1.000000	-1.000000	-1.000000	-1.000000	-1.000000	-1.000000	-1.000000	52.000000	0.000000	-1.000000	-1.000000	226214.000000	1775792306.725106
-12245.310000	-20506.770000	8977.185000	46012.320000	23744.385000	12323.295000	-26698.365000	-13209.660000	-1.488784	-2.367162	-2.526948	-1.819940	5.112437	17.231705	4.001528	-0.556157	-5.157880	2.960440	1.861720	-0.879881	0.131408	0.430968	-1.000000	-1.000000	-1.000000	-1.000000	-1.000000	-1.000000	-1.000000	52.000000	0.000000	-1.000000	-1.000000	226215.000000	1775792306.725132
-12249.540000	-20511.090000	8973.225000	46010.385000	23748.480000	12305.295000	-26696.205000	-13210.830000	8.662039	7.991044	8.282931	10.277175	9.466463	2.843359	2.969885	4.979177	-5.157880	2.960440	1.861720	-0.879881	0.131408	0.430968	-1.000000	-1.000000	-1.000000	-1.000000	-1.000000	-1.000000	-1.000000	52.000000	0.000000	-1.000000	-1.000000	226216.000000	1775792306.725162
-12249.540000	-20508.975000	8975.025000	46009.305000	23741.145000	12292.155000	-26703.495000	-13214.115000	13.500817	13.285742	13.956299	16.611694	9.932696	-9.172860	0.615876	7.317573	-5.157880	2.960440	1.861720	-0.879881	0.131408	0.430968	-1.000000	-1.000000	-1.000000	-1.000000	-1.000000	-1.000000	-1.000000	52.000000	0.000000	-1.000000	-1.000000	226217.000000	1775792306.725174
-12250.620000	-20508.255000	8975.565000	46008.945000	23730.255000	12281.400000	-26711.640000	-13217.220000	10.577429	11.225703	12.084643	14.261029	5.346772	-17.976481	-2.384348	4.587042	-5.157880	2.960440	1.861720	-0.879881	0.131408	0.430968	-1.000000	-1.000000	-1.000000	-1.000000	-1.000000	-1.000000	-1.000000	52.000000	0.000000	-1.000000	-1.000000	226218.000000	1775792306.725210
-12249.990000	-20506.230000	8978.895000	46014.255000	23724.720000	12258.990000	-26717.220000	-13216.950000	2.815875	4.482632	5.269341	5.925277	-2.924847	-23.566163	-5.391207	-1.247417	-5.157880	2.960440	1.861720	-0.879881	0.131408	0.430968	-1.000000	-1.000000	-1.000000	-1.000000	-1.000000	-1.000000	-1.000000	52.000000	0.000000	-1.000000	-1.000000	226219.000000	1775792306.725222
-12241.395000	-20496.825000	8980.920000	46004.895000	23715.720000	12248.775000	-26713.530000	-13207.320000	-4.716458	-2.426099	-2.009060	-3.200948	-10.849485	-24.394562	-7.002040	-6.283694	-5.157880	2.960440	1.861720	-0.879881	0.131408	0.430968	-1.000000	-1.000000	-1.000000	-1.000000	-1.000000	-1.000000	-1.000000	52.000000	0.000000	-1.000000	-1.000000	226220.000000	1775792306.725374
-12240.855000	-20493.315000	8976.105000	45986.580000	23713.470000	12247.110000	-26707.905000	-13205.565000	-8.250046	-6.118157	-6.602974	-9.645647	-14.347508	-19.053117	-5.645577	-7.486571	-5.157880	2.960440	1.861720	-0.879881	0.131408	0.430968	-1.000000	-1.000000	-1.000000	-1.000000	-1.000000	-1.000000	-1.000000	52.000000	0.000000	-1.000000	-1.000000	226221.000000	1775792306.725391
-12246.345000	-20503.170000	8977.635000	46005.795000	23744.520000	12257.730000	-26707.860000	-13211.190000	-7.382773	-6.187928	-7.839448	-12.212210	-11.225598	-7.600380	-1.291177	-4.933349	-5.157880	2.960440	1.861720	-0.879881	0.131408	0.430968	-1.000000	-1.000000	-1.000000	-1.000000	-1.000000	-1.000000	-1.000000	52.000000	0.000000	-1.000000	-1.000000	226222.000000	1775792306.727105
-12245.220000	-20502.045000	8982.090000	46014.345000	23734.800000	12219.480000	-26714.565000	-13211.415000	-4.418506	-4.721803	-6.415406	-9.830544	-2.136285	6.493466	3.729606	-1.322664	-5.157880	2.960440	1.861720	-0.879881	0.131408	0.430968	-1.000000	-1.000000	-1.000000	-1.000000	-1.000000	-1.000000	-1.000000	52.000000	0.000000	-1.000000	-1.000000	226223.000000	1775792306.727124
-12238.515000	-20493.855000	8990.640000	46021.410000	23697.495000	12193.200000	-26710.200000	-13205.565000	-1.457306	-3.281925	-3.143604	-2.721705	7.437679	16.230194	6.479585	1.099585	-9.110220	1.281840	1.113980	-0.881895	0.129028	0.431762	-1.000000	-1.000000	-1.000000	-1.000000	-1.000000	-1.000000	-1.000000	52.000000	0.000000	-1.000000	-1.000000	226224.000000	1775792306.730629
-12244.905000	-20501.190000	8983.755000	46013.580000	23686.200000	12253.185000	-26702.955000	-13208.625000	0.838583	-1.736364	0.760322	5.365065	10.097233	18.075329	6.164502	2.087156	-9.110220	1.281840	1.113980	-0.881895	0.129028	0.431762	-1.000000	-1.000000	-1.000000	-1.000000	-1.000000	-1.000000	-1.000000	52.000000	0.000000	-1.000000	-1.000000	226225.000000	1775792306.730655
-12245.670000	-20501.055000	8985.060000	46018.530000	23730.930000	12316.905000	-26698.680000	-13208.265000	2.100637	-0.102442	3.387653	9.572400	5.590963	17.772348	4.248430	2.126250	-9.110220	1.281840	1.113980	-0.881895	0.129028	0.431762	-1.000000	-1.000000	-1.000000	-1.000000	-1.000000	-1.000000	-1.000000	52.000000	0.000000	-1.000000	-1.000000	226226.000000	1775792306.740542
-12255.795000	-20513.385000	8970.345000	46001.835000	23743.755000	12312.225000	-26704.350000	-13216.590000	1.906697	0.820962	3.306893	7.900834	1.801669	21.113327	2.055098	1.383392	-9.110220	1.281840	1.113980	-0.881895	0.129028	0.431762	-1.000000	-1.000000	-1.000000	-1.000000	-1.000000	-1.000000	-1.000000	52.000000	0.000000	-1.000000	-1.000000	226227.000000	1775792306.740565
-12253.950000	-20514.465000	8966.655000	45994.095000	23727.915000	12275.775000	-26706.600000	-13214.790000	0.547483	0.579524	0.687644	1.802309	3.386886	22.394344	-0.379680	0.048547	-9.110220	1.281840	1.113980	-0.881895	0.129028	0.431762	-1.000000	-1.000000	-1.000000	-1.000000	-1.000000	-1.000000	-1.000000	52.000000	0.000000	-1.000000	-1.000000	226228.000000	1775792306.740591
-12237.075000	-20496.510000	8984.430000	46005.210000	23692.905000	12209.445000	-26702.190000	-13203.270000	-0.437708	0.175976	-2.250241	-4.928271	5.479134	10.694113	-2.954613	-0.913405	-9.110220	1.281840	1.113980	-0.881895	0.129028	0.431762	-1.000000	-1.000000	-1.000000	-1.000000	-1.000000	-1.000000	-1.000000	52.000000	0.000000	-1.000000	-1.000000	226229.000000	1775792306.740602
-12225.690000	-20479.365000	9003.375000	46024.830000	23708.475000	12135.555000	-26703.900000	-13202.595000	0.852857	1.708782	-2.119854	-7.530590	2.074750	-15.662314	-4.609056	-0.277370	-9.110220	1.281840	1.113980	-0.881895	0.129028	0.431762	-1.000000	-1.000000	-1.000000	-1.000000	-1.000000	-1.000000	-1.000000	52.000000	0.000000	-1.000000	-1.000000	226230.000000	1775792306.752586
-12246.120000	-20498.940000	8987.220000	46019.160000	23750.955000	12193.380000	-26712.720000	-13223.295000	3.767823	5.092816	1.755594	-3.993727	-4.106651	-43.035340	-4.676011	1.242087	-9.110220	1.281840	1.113980	-0.881895	0.129028	0.431762	-1.000000	-1.000000	-1.000000	-1.000000	-1.000000	-1.000000	-1.000000	52.000000	0.000000	-1.000000	-1.000000	226231.000000	1775792306.752611
-12276.045000	-20530.530000	8957.520000	45997.335000	23762.250000	12363.885000	-26707.590000	-13244.175000	4.189150	6.110419	4.889488	1.935093	-5.283215	-47.430241	-3.618396	0.842877	-9.110220	1.281840	1.113980	-0.881895	0.129028	0.431762	-1.000000	-1.000000	-1.000000	-1.000000	-1.000000	-1.000000	-1.000000	52.000000	0.000000	-1.000000	-1.000000	226232.000000	1775792306.752642
-12264.210000	-20519.280000	8967.060000	46002.375000	23735.520000	12362.625000	-26705.250000	-13230.495000	-0.366810	1.500436	2.767417	4.475380	-0.444454	-15.881008	-1.811819	-2.293040	-9.110220	1.281840	1.113980	-0.881895	0.129028	0.431762	-1.000000	-1.000000	-1.000000	-1.000000	-1.000000	-1.000000	-1.000000	52.000000	0.000000	-1.000000	-1.000000	226233.000000	1775792306.752654
-12261.150000	-20520.135000	8965.350000	46002.510000	23744.925000	12336.750000	-26698.095000	-13221.090000	-6.127330	-5.385466	-2.732892	2.439282	3.437802	31.389491	0.751741	-4.565606	-9.796920	0.244160	-0.152600	-0.886900	0.122924	0.430236	-1.000000	-1.000000	-1.000000	-1.000000	-1.000000	-1.000000	-1.000000	52.000000	0.000000	-1.000000	-1.000000	226234.000000	1775792306.752669
-12255.525000	-20517.345000	8967.555000	46005.705000	23754.645000	12321.315000	-26697.240000	-13215.690000	-7.290411	-8.353306	-6.044358	-0.729956	1.991379	56.499706	3.494921	-2.299647	-9.796920	0.244160	-0.152600	-0.886900	0.122924	0.430236	-1.000000	-1.000000	-1.000000	-1.000000	-1.000000	-1.000000	-1.000000	52.000000	0.000000	-1.000000	-1.000000	226235.000000	1775792306.752680
-12246.075000	-20505.060000	8979.300000	46015.875000	23750.415000	12305.115000	-26697.150000	-13208.490000	-2.598006	-5.178173	-4.376772	-1.765423	-2.291084	42.111081	5.107024	3.497840	-9.796920	0.244160	-0.152600	-0.886900	0.122924	0.430236	-1.000000	-1.000000	-1.000000	-1.000000	-1.000000	-1.000000	-1.000000	52.000000	0.000000	-1.000000	-1.000000	226236.000000	1775792306.771829
-12244.905000	-20500.920000	8983.665000	46016.550000	23737.230000	12279.330000	-26703.765000	-13209.390000	4.497532	1.760210	0.998163	-0.069320	-5.875528	2.026384	4.417508	8.532177	-9.796920	0.244160	-0.152600	-0.886900	0.122924	0.430236	-1.000000	-1.000000	-1.000000	-1.000000	-1.000000	-1.000000	-1.000000	52.000000	0.000000	-1.000000	-1.000000	226237.000000	1775792306.771852
-12244.815000	-20498.985000	8986.410000	46017.180000	23731.245000	12242.430000	-26712.045000	-13213.620000	9.292920	8.071907	6.544685	2.526609	-7.755991	-37.558397	1.307404	9.162711	-9.796920	0.244160	-0.152600	-0.886900	0.122924	0.430236	-1.000000	-1.000000	-1.000000	-1.000000	-1.000000	-1.000000	-1.000000	52.000000	0.000000	-1.000000	-1.000000	226238.000000	1775792306.771879
-12250.845000	-20503.845000	8979.930000	46007.910000	23718.960000	12231.765000	-26714.295000	-13219.695000	8.881932	9.946835	8.638066	3.419490	-7.909661	-57.099097	-2.903012	4.673538	-9.796920	0.244160	-0.152600	-0.886900	0.122924	0.430236	-1.000000	-1.000000	-1.000000	-1.000000	-1.000000	-1.000000	-1.000000	52.000000	0.000000	-1.000000	-1.000000	226239.000000	1775792306.771891
-12259.980000	-20513.340000	8971.245000	45996.255000	23711.985000	12268.170000	-26711.820000	-13220.595000	3.549216	6.240468	5.709600	1.241489	-6.214219	-49.664729	-5.833629	-2.497242	-9.796920	0.244160	-0.152600	-0.886900	0.122924	0.430236	-1.000000	-1.000000	-1.000000	-1.000000	-1.000000	-1.000000	-1.000000	52.000000	0.000000	-1.000000	-1.000000	226240.000000	1775792306.771906
-12260.655000	-20513.970000	8973.720000	46005.030000	23726.835000	12275.685000	-26712.000000	-13209.030000	-3.752225	-0.986317	-0.666834	-2.857033	-2.424721	-19.878884	-5.578641	-8.175942	-9.796920	0.244160	-0.152600	-0.886900	0.122924	0.430236	-1.000000	-1.000000	-1.000000	-1.000000	-1.000000	-1.000000	-1.000000	52.000000	0.000000	-1.000000	-1.000000	226241.000000	1775792306.771917
-12261.150000	-20519.865000	8965.755000	46000.710000	23718.195000	12265.335000	-26711.595000	-13200.255000	-9.040843	-7.707247	-6.718243	-5.714290	3.318448	17.218330	-2.328132	-8.963586	-9.796920	0.244160	-0.152600	-0.886900	0.122924	0.430236	-1.000000	-1.000000	-1.000000	-1.000000	-1.000000	-1.000000	-1.000000	52.000000	0.000000	-1.000000	-1.000000	226242.000000	1775792306.771931
-12260.115000	-20523.420000	8960.220000	45994.185000	23716.485000	12271.005000	-26707.365000	-13207.680000	-9.640319	-10.580967	-9.402759	-5.289746	8.977540	43.029334	1.940836	-4.944343	-9.796920	0.244160	-0.152600	-0.886900	0.122924	0.430236	-1.000000	-1.000000	-1.000000	-1.000000	-1.000000	-1.000000	-1.000000	52.000000	0.000000	-1.000000	-1.000000	226243.000000	1775792306.771942
-12258.000000	-20520.630000	8961.660000	45990.765000	23711.265000	12251.520000	-26704.305000	-13241.925000	-5.740705	-8.752522	-8.106538	-2.527064	11.432298	47.143794	5.178450	-0.367424	-4.715340	1.083460	-0.839300	-0.891172	0.117553	0.428283	-1.000000	-1.000000	-1.000000	-1.000000	-1.000000	-1.000000	-1.000000	52.000000	0.000000	-1.000000	-1.000000	226244.000000	1775792306.771956
-12246.975000	-20501.460000	8982.225000	46010.295000	23716.395000	12179.835000	-26703.990000	-13262.760000	0.360795	-3.179671	-3.474461	0.922863	9.592658	30.586207	6.235555	-0.090563	-4.715340	1.083460	-0.839300	-0.891172	0.117553	0.428283	-1.000000	-1.000000	-1.000000	-1.000000	-1.000000	-1.000000	-1.000000	52.000000	0.000000	-1.000000	-1.000000	226245.000000	1775792306.771967
-12247.020000	-20496.195000	8988.210000	46016.955000	23717.160000	12157.290000	-26704.980000	-13252.815000	5.936596	4.241503	3.329008	4.632802	5.186620	1.851806	4.871913	-3.878452	-4.715340	1.083460	-0.839300	-0.891172	0.117553	0.428283	-1.000000	-1.000000	-1.000000	-1.000000	-1.000000	-1.000000	-1.000000	52.000000	0.000000	-1.000000	-1.000000	226246.000000	1775792306.774505
-12258.225000	-20510.325000	8972.415000	46000.485000	23704.515000	12245.625000	-26702.595000	-13231.710000	8.446214	10.063261	9.258022	7.506257	0.485990	-23.249644	1.780885	-5.690632	-4.715340	1.083460	-0.839300	-0.891172	0.117553	0.428283	-1.000000	-1.000000	-1.000000	-1.000000	-1.000000	-1.000000	-1.000000	52.000000	0.000000	-1.000000	-1.000000	226247.000000	1775792306.774532
-12263.625000	-20521.935000	8959.905000	45988.110000	23700.285000	12338.235000	-26696.115000	-13214.610000	6.345182	10.268827	9.998886	6.746578	-3.552229	-26.150338	-1.462038	-0.447961	-4.715340	1.083460	-0.839300	-0.891172	0.117553	0.428283	-1.000000	-1.000000	-1.000000	-1.000000	-1.000000	-1.000000	-1.000000	52.000000	0.000000	-1.000000	-1.000000	226248.000000	1775792306.778544
-12258.540000	-20521.665000	8958.960000	45986.535000	23695.695000	12305.745000	-26694.000000	-13204.620000	0.922386	4.233390	4.389350	1.428915	-6.455218	-3.909686	-3.266301	9.901922	-4.715340	1.083460	-0.839300	-0.891172	0.117553	0.428283	-1.000000	-1.000000	-1.000000	-1.000000	-1.000000	-1.000000	-1.000000	52.000000	0.000000	-1.000000	-1.000000	226249.000000	1775792306.778569
-12261.105000	-20521.575000	8961.165000	45993.330000	23730.930000	12295.305000	-26695.710000	-13215.510000	-4.092577	-3.768942	-3.473836	-4.971599	-6.660980	22.162833	-3.300503	17.848973	-4.715340	1.083460	-0.839300	-0.891172	0.117553	0.428283	-1.000000	-1.000000	-1.000000	-1.000000	-1.000000	-1.000000	-1.000000	52.000000	0.000000	-1.000000	-1.000000	226250.000000	1775792306.782517
-12260.970000	-20519.055000	8965.395000	45999.360000	23754.690000	12291.480000	-26697.915000	-13223.070000	-5.867069	-8.397351	-8.006427	-7.639481	-2.198625	28.097954	-2.566039	16.725719	-4.715340	1.083460	-0.839300	-0.891172	0.117553	0.428283	-1.000000	-1.000000	-1.000000	-1.000000	-1.000000	-1.000000	-1.000000	52.000000	0.000000	-1.000000	-1.000000	226251.000000	1775792306.782537
-12258.495000	-20516.175000	8967.780000	45999.045000	23748.120000	12271.230000	-26698.680000	-13221.405000	-4.306454	-7.483143	-6.847476	-5.020583	5.515093	10.473567	-2.079637	6.331350	-4.715340	1.083460	-0.839300	-0.891172	0.117553	0.428283	-1.000000	-1.000000	-1.000000	-1.000000	-1.000000	-1.000000	-1.000000	52.000000	0.000000	-1.000000	-1.000000	226252.000000	1775792306.786394
-12254.265000	-20509.245000	8975.205000	46005.345000	23728.995000	12248.235000	-26697.330000	-13219.245000	-0.948172	-2.539060	-1.713046	0.366027	10.131870	-16.725799	-1.888878	-6.916731	-4.715340	1.083460	-0.839300	-0.891172	0.117553	0.428283	-1.000000	-1.000000	-1.000000	-1.000000	-1.000000	-1.000000	-1.000000	52.000000	0.000000	-1.000000	-1.000000	226253.000000	1775792306.786414
-12257.955000	-20513.070000	8972.460000	46004.850000	23712.525000	12251.520000	-26696.070000	-13223.250000	2.314095	3.092684	3.777784	4.816020	6.125569	-36.773241	-1.390148	-15.601218	1.983800	1.327620	0.045780	-0.888914	0.115967	0.429198	-1.000000	-1.000000	-1.000000	-1.000000	-1.000000	-1.000000	-1.000000	52.000000	0.000000	-1.000000	-1.000000	226254.000000	1775792306.791498
-12261.465000	-20518.605000	8966.295000	45998.640000	23703.840000	12263.895000	-26693.370000	-13225.905000	3.785131	6.125370	6.353435	5.946923	-4.882058	-39.082860	-0.213253	-16.631704	1.983800	1.327620	0.045780	-0.888914	0.115967	0.429198	-1.000000	-1.000000	-1.000000	-1.000000	-1.000000	-1.000000	-1.000000	52.000000	0.000000	-1.000000	-1.000000	226255.000000	1775792306.791525
-12257.820000	-20515.095000	8969.130000	46000.080000	23720.535000	12272.310000	-26696.520000	-13223.970000	2.912824	5.179149	4.813159	3.481516	-14.953728	-23.105563	1.276832	-11.527769	1.983800	1.327620	0.045780	-0.888914	0.115967	0.429198	-1.000000	-1.000000	-1.000000	-1.000000	-1.000000	-1.000000	-1.000000	52.000000	0.000000	-1.000000	-1.000000	226256.000000	1775792306.795843
-12265.020000	-20522.295000	8962.110000	45995.355000	23725.305000	12266.640000	-26701.020000	-13231.665000	0.694810	1.587259	0.684353	-0.790819	-16.372468	1.808577	2.135637	-3.851360	1.983800	1.327620	0.045780	-0.888914	0.115967	0.429198	-1.000000	-1.000000	-1.000000	-1.000000	-1.000000	-1.000000	-1.000000	52.000000	0.000000	-1.000000	-1.000000	226257.000000	1775792306.795868
-12266.370000	-20522.070000	8962.785000	45996.300000	23712.210000	12238.020000	-26697.690000	-13232.340000	-1.510316	-2.190424	-3.343624	-4.322479	-8.364490	21.938252	1.783232	2.856683	1.983800	1.327620	0.045780	-0.888914	0.115967	0.429198	-1.000000	-1.000000	-1.000000	-1.000000	-1.000000	-1.000000	-1.000000	52.000000	0.000000	-1.000000	-1.000000	226258.000000	1775792306.802647
-12272.805000	-20528.820000	8954.685000	45984.330000	23681.025000	12173.940000	-26701.065000	-13237.245000	-2.917860	-4.421041	-5.414156	-5.646716	2.135099	26.770762	0.726899	6.505889	1.983800	1.327620	0.045780	-0.888914	0.115967	0.429198	-1.000000	-1.000000	-1.000000	-1.000000	-1.000000	-1.000000	-1.000000	52.000000	0.000000	-1.000000	-1.000000	226259.000000	1775792306.802673
-12266.955000	-20527.470000	8954.910000	45983.115000	23678.370000	12157.965000	-26706.870000	-13231.350000	-3.075479	-4.535305	-5.113372	-4.938943	7.484811	15.154858	-0.268827	7.106424	1.983800	1.327620	0.045780	-0.888914	0.115967	0.429198	-1.000000	-1.000000	-1.000000	-1.000000	-1.000000	-1.000000	-1.000000	52.000000	0.000000	-1.000000	-1.000000	226260.000000	1775792306.813620
-12240.270000	-20500.875000	8982.720000	46011.960000	23719.995000	12227.580000	-26710.200000	-13214.430000	-1.236653	-2.331595	-2.477154	-2.424153	7.355142	-1.440535	-1.027291	6.336881	1.983800	1.327620	0.045780	-0.888914	0.115967	0.429198	-1.000000	-1.000000	-1.000000	-1.000000	-1.000000	-1.000000	-1.000000	52.000000	0.000000	-1.000000	-1.000000	226261.000000	1775792306.813644
-12230.190000	-20486.655000	8998.740000	46030.860000	23747.175000	12288.870000	-26699.040000	-13207.545000	3.062140	2.380223	2.669556	2.582869	7.864190	-5.833673	-1.234537	6.009482	1.983800	1.327620	0.045780	-0.888914	0.115967	0.429198	-1.000000	-1.000000	-1.000000	-1.000000	-1.000000	-1.000000	-1.000000	52.000000	0.000000	-1.000000	-1.000000	226262.000000	1775792306.813673
-12243.330000	-20499.480000	8983.935000	46012.410000	23742.270000	12280.365000	-26699.985000	-13217.895000	7.572577	7.610532	8.357743	8.570056	11.873256	7.080823	-0.191174	5.798493	1.983800	1.327620	0.045780	-0.888914	0.115967	0.429198	-1.000000	-1.000000	-1.000000	-1.000000	-1.000000	-1.000000	-1.000000	52.000000	0.000000	-1.000000	-1.000000	226263.000000	1775792306.813684
-12264.480000	-20522.970000	8957.655000	45983.295000	23731.470000	12265.740000	-26705.205000	-13233.105000	7.558718	8.540158	9.475024	10.096717	14.249482	22.991869	1.683770	3.278055	3.006220	-0.350980	2.258480	-0.881467	0.117920	0.432677	-1.000000	-1.000000	-1.000000	-1.000000	-1.000000	-1.000000	-1.000000	52.000000	0.000000	-1.000000	-1.000000	226264.000000	1775792306.813699
-12266.280000	-20526.705000	8954.730000	45981.810000	23729.670000	12270.825000	-26702.505000	-13234.995000	0.988428	2.436530	3.007739	3.597613	9.050353	24.347677	2.733453	-2.529910	3.006220	-0.350980	2.258480	-0.881467	0.117920	0.432677	-1.000000	-1.000000	-1.000000	-1.000000	-1.000000	-1.000000	-1.000000	52.000000	0.000000	-1.000000	-1.000000	226265.000000	1775792306.813709
-12261.240000	-20521.620000	8962.065000	45993.645000	23712.705000	12304.755000	-26694.495000	-13231.665000	-7.921940	-6.909827	-6.942123	-6.627602	-2.916865	9.112099	2.299332	-8.701697	3.006220	-0.350980	2.258480	-0.881467	0.117920	0.432677	-1.000000	-1.000000	-1.000000	-1.000000	-1.000000	-1.000000	-1.000000	52.000000	0.000000	-1.000000	-1.000000	226266.000000	1775792306.818302
-12265.965000	-20524.815000	8961.705000	45995.805000	23704.515000	12284.550000	-26699.895000	-13237.155000	-12.541966	-12.440103	-12.656807	-12.210100	-15.468509	-10.988396	1.194232	-11.015831	3.006220	-0.350980	2.258480	-0.881467	0.117920	0.432677	-1.000000	-1.000000	-1.000000	-1.000000	-1.000000	-1.000000	-1.000000	52.000000	0.000000	-1.000000	-1.000000	226267.000000	1775792306.818324
-12267.000000	-20525.940000	8961.570000	45994.635000	23680.350000	12240.135000	-26703.945000	-13236.390000	-10.207957	-10.717347	-10.478528	-9.463595	-22.574015	-25.837501	-0.113250	-8.177755	3.006220	-0.350980	2.258480	-0.881467	0.117920	0.432677	-1.000000	-1.000000	-1.000000	-1.000000	-1.000000	-1.000000	-1.000000	52.000000	0.000000	-1.000000	-1.000000	226268.000000	1775792306.832814
-12270.240000	-20529.585000	8957.745000	45989.685000	23692.905000	12239.685000	-26704.215000	-13237.605000	-3.377692	-3.889378	-3.038097	-1.776277	-21.346392	-32.930355	-1.711860	-2.267075	3.006220	-0.350980	2.258480	-0.881467	0.117920	0.432677	-1.000000	-1.000000	-1.000000	-1.000000	-1.000000	-1.000000	-1.000000	52.000000	0.000000	-1.000000	-1.000000	226269.000000	1775792306.832839
-12269.745000	-20529.045000	8956.755000	45986.760000	23722.020000	12264.660000	-26699.535000	-13236.255000	3.723713	3.547047	4.464064	5.033169	-11.482592	-30.775415	-2.984648	3.629284	3.006220	-0.350980	2.258480	-0.881467	0.117920	0.432677	-1.000000	-1.000000	-1.000000	-1.000000	-1.000000	-1.000000	-1.000000	52.000000	0.000000	-1.000000	-1.000000	226270.000000	1775792306.832868
-12277.440000	-20535.975000	8950.635000	45980.685000	23712.075000	12265.335000	-26705.835000	-13241.025000	7.970481	8.100284	8.299169	7.475265	4.199033	-17.562407	-3.003040	7.165253	3.006220	-0.350980	2.258480	-0.881467	0.117920	0.432677	-1.000000	-1.000000	-1.000000	-1.000000	-1.000000	-1.000000	-1.000000	52.000000	0.000000	-1.000000	-1.000000	226271.000000	1775792306.832881
-12280.455000	-20538.855000	8948.385000	45979.380000	23703.885000	12241.260000	-26707.005000	-13244.445000	8.240100	8.507822	7.674820	5.654569	18.098992	2.147511	-1.906505	7.342009	3.006220	-0.350980	2.258480	-0.881467	0.117920	0.432677	-1.000000	-1.000000	-1.000000	-1.000000	-1.000000	-1.000000	-1.000000	52.000000	0.000000	-1.000000	-1.000000	226272.000000	1775792306.832896
-12278.790000	-20538.180000	8949.510000	45981.945000	23704.245000	12225.780000	-26703.405000	-13244.445000	5.477682	5.705715	4.241051	2.035235	22.452881	17.777460	-0.504568	4.736018	3.006220	-0.350980	2.258480	-0.881467	0.117920	0.432677	-1.000000	-1.000000	-1.000000	-1.000000	-1.000000	-1.000000	-1.000000	52.000000	0.000000	-1.000000	-1.000000	226273.000000	1775792306.832907
-12285.405000	-20544.165000	8942.130000	45972.765000	23698.575000	12254.310000	-26705.205000	-13250.565000	1.850750	1.878785	0.478956	-0.835505	16.213495	22.757585	0.817472	1.081702	-0.518840	-2.487380	4.059160	-0.877683	0.119262	0.433959	-1.000000	-1.000000	-1.000000	-1.000000	-1.000000	-1.000000	-1.000000	52.000000	0.000000	-1.000000	-1.000000	226274.000000	1775792306.832921
-12282.390000	-20536.695000	8947.440000	45973.080000	23699.340000	12278.070000	-26711.190000	-13253.445000	-0.894787	-1.032998	-1.951283	-2.079139	4.630946	20.117299	1.725241	-1.973357	-0.518840	-2.487380	4.059160	-0.877683	0.119262	0.433959	-1.000000	-1.000000	-1.000000	-1.000000	-1.000000	-1.000000	-1.000000	52.000000	0.000000	-1.000000	-1.000000	226275.000000	1775792306.832931
-12266.460000	-20519.640000	8961.795000	45983.160000	23710.095000	12258.810000	-26700.705000	-13242.330000	-1.750742	-1.715900	-2.209086	-1.822180	-5.547102	15.549241	1.881691	-3.323699	-0.518840	-2.487380	4.059160	-0.877683	0.119262	0.433959	-1.000000	-1.000000	-1.000000	-1.000000	-1.000000	-1.000000	-1.000000	52.000000	0.000000	-1.000000	-1.000000	226276.000000	1775792306.834987
-12264.840000	-20524.815000	8960.265000	45985.455000	23698.035000	12206.205000	-26706.690000	-13242.330000	-0.342820	0.002238	-0.239814	-0.129325	-10.123130	8.812129	1.620224	-2.340315	-0.518840	-2.487380	4.059160	-0.877683	0.119262	0.433959	-1.000000	-1.000000	-1.000000	-1.000000	-1.000000	-1.000000	-1.000000	52.000000	0.000000	-1.000000	-1.000000	226277.000000	1775792306.835012
-12259.665000	-20522.655000	8962.470000	45989.415000	23689.620000	12202.830000	-26708.220000	-13234.320000	2.074145	2.108200	2.283262	2.236382	-9.561648	-2.814208	1.204810	0.343154	-0.518840	-2.487380	4.059160	-0.877683	0.119262	0.433959	-1.000000	-1.000000	-1.000000	-1.000000	-1.000000	-1.000000	-1.000000	52.000000	0.000000	-1.000000	-1.000000	226278.000000	1775792306.838465
-12266.010000	-20525.895000	8961.525000	45991.035000	23694.480000	12233.880000	-26707.995000	-13236.030000	3.066709	2.065235	3.011722	3.681174	-6.798756	-14.969212	0.405179	2.868878	-0.518840	-2.487380	4.059160	-0.877683	0.119262	0.433959	-1.000000	-1.000000	-1.000000	-1.000000	-1.000000	-1.000000	-1.000000	52.000000	0.000000	-1.000000	-1.000000	226279.000000	1775792306.838485
-12269.790000	-20528.865000	8958.510000	45989.505000	23702.625000	12267.270000	-26707.815000	-13240.170000	1.143650	-0.566822	1.153804	3.078841	-3.326305	-17.657157	-0.584336	3.417616	-0.518840	-2.487380	4.059160	-0.877683	0.119262	0.433959	-1.000000	-1.000000	-1.000000	-1.000000	-1.000000	-1.000000	-1.000000	52.000000	0.000000	-1.000000	-1.000000	226280.000000	1775792306.842543
-12272.265000	-20534.580000	8950.095000	45976.995000	23696.280000	12277.530000	-26706.240000	-13242.195000	-2.941689	-4.220179	-2.321658	0.332763	0.612944	-7.202067	-1.146168	1.366311	-0.518840	-2.487380	4.059160	-0.877683	0.119262	0.433959	-1.000000	-1.000000	-1.000000	-1.000000	-1.000000	-1.000000	-1.000000	52.000000	0.000000	-1.000000	-1.000000	226281.000000	1775792306.842566
-12270.465000	-20534.580000	8949.825000	45977.265000	23712.840000	12282.255000	-26699.175000	-13239.270000	-6.631956	-6.791219	-5.653481	-3.638050	4.117762	8.495242	-0.855023	-2.040906	-0.518840	-2.487380	4.059160	-0.877683	0.119262	0.433959	-1.000000	-1.000000	-1.000000	-1.000000	-1.000000	-1.000000	-1.000000	52.000000	0.000000	-1.000000	-1.000000	226282.000000	1775792306.968958
-12272.940000	-20535.300000	8953.515000	45987.390000	23729.130000	12275.640000	-26698.995000	-13241.700000	-7.540686	-6.766749	-6.915469	-6.573180	6.488536	17.553897	0.232280	-4.550481	-0.518840	-2.487380	4.059160	-0.877683	0.119262	0.433959	-1.000000	-1.000000	-1.000000	-1.000000	-1.000000	-1.000000	-1.000000	52.000000	0.000000	-1.000000	-1.000000	226283.000000	1775792306.968976
-12268.980000	-20531.790000	8956.845000	45989.370000	23725.215000	12264.525000	-26696.115000	-13238.190000	-5.183119	-3.939876	-4.960294	-6.052709	7.511078	13.992592	1.389357	-4.774746	-1.052940	-1.403920	5.371520	-0.880979	0.117431	0.437194	-1.000000	-1.000000	-1.000000	-1.000000	-1.000000	-1.000000	-1.000000	52.000000	0.000000	-1.000000	-1.000000	226284.000000	1775792306.968996
-12266.730000	-20528.145000	8959.770000	45990.315000	23725.530000	12258.360000	-26700.615000	-13236.165000	-0.845481	0.545273	-0.516791	-2.148009	6.112079	0.799290	1.619681	-2.852327	-1.052940	-1.403920	5.371520	-0.880979	0.117431	0.437194	-1.000000	-1.000000	-1.000000	-1.000000	-1.000000	-1.000000	-1.000000	52.000000	0.000000	-1.000000	-1.000000	226285.000000	1775792306.969003
-12270.015000	-20531.430000	8954.730000	45981.720000	23700.825000	12254.940000	-26697.645000	-13232.790000	3.402805	4.716403	3.992463	2.264700	1.202239	-13.489811	0.535731	0.112187	-1.052940	-1.403920	5.371520	-0.880979	0.117431	0.437194	-1.000000	-1.000000	-1.000000	-1.000000	-1.000000	-1.000000	-1.000000	52.000000	0.000000	-1.000000	-1.000000	226286.000000	1775792306.969011
-12269.070000	-20529.000000	8958.240000	45982.935000	23678.010000	12177.630000	-26703.585000	-13228.920000	5.651207	6.676043	6.140599	4.231521	-6.628740	-22.172657	-1.283951	2.755953	-1.052940	-1.403920	5.371520	-0.880979	0.117431	0.437194	-1.000000	-1.000000	-1.000000	-1.000000	-1.000000	-1.000000	-1.000000	52.000000	0.000000	-1.000000	-1.000000	226287.000000	1775792306.969017
-12262.275000	-20521.890000	8964.855000	45987.255000	23678.415000	12120.795000	-26708.355000	-13223.790000	5.375986	5.937022	5.420602	3.333831	-14.228811	-25.368997	-2.944642	4.127444	-1.052940	-1.403920	5.371520	-0.880979	0.117431	0.437194	-1.000000	-1.000000	-1.000000	-1.000000	-1.000000	-1.000000	-1.000000	52.000000	0.000000	-1.000000	-1.000000	226288.000000	1775792306.969024
-12266.415000	-20526.795000	8961.480000	45987.120000	23694.930000	12164.265000	-26719.515000	-13242.105000	3.555102	3.538650	3.141559	1.397975	-16.278551	-23.719315	-3.981042	3.604786	-1.052940	-1.403920	5.371520	-0.880979	0.117431	0.437194	-1.000000	-1.000000	-1.000000	-1.000000	-1.000000	-1.000000	-1.000000	52.000000	0.000000	-1.000000	-1.000000	226289.000000	1775792306.969030
-12276.810000	-20537.190000	8952.480000	45984.060000	23719.365000	12268.755000	-26715.825000	-13272.300000	1.040338	0.395393	0.382856	-0.005556	-9.053046	-10.626714	-4.092216	0.274840	-1.052940	-1.403920	5.371520	-0.880979	0.117431	0.437194	-1.000000	-1.000000	-1.000000	-1.000000	-1.000000	-1.000000	-1.000000	52.000000	0.000000	-1.000000	-1.000000	226290.000000	1775792306.969038
-12279.285000	-20537.820000	8954.145000	45987.795000	23712.795000	12264.705000	-26709.975000	-13278.285000	-1.925075	-3.064762	-2.487737	-0.640542	4.878279	17.528449	-2.573204	-5.600034	-1.052940	-1.403920	5.371520	-0.880979	0.117431	0.437194	-1.000000	-1.000000	-1.000000	-1.000000	-1.000000	-1.000000	-1.000000	52.000000	0.000000	-1.000000	-1.000000	226291.000000	1775792306.969044
-12272.895000	-20532.195000	8959.770000	45991.170000	23696.505000	12252.150000	-26704.395000	-13255.380000	-4.312285	-5.554326	-4.453799	-0.644106	16.762902	46.554836	0.947343	-9.998327	-1.052940	-1.403920	5.371520	-0.880979	0.117431	0.437194	-1.000000	-1.000000	-1.000000	-1.000000	-1.000000	-1.000000	-1.000000	52.000000	0.000000	-1.000000	-1.000000	226292.000000	1775792306.969051
-12276.855000	-20536.740000	8952.120000	45978.165000	23691.645000	12296.430000	-26701.650000	-13242.780000	-4.498324	-5.449828	-4.314428	-0.348139	18.588910	55.369714	5.234123	-7.520688	-1.052940	-1.403920	5.371520	-0.880979	0.117431	0.437194	-1.000000	-1.000000	-1.000000	-1.000000	-1.000000	-1.000000	-1.000000	52.000000	0.000000	-1.000000	-1.000000	226293.000000	1775792306.969056
-12271.500000	-20531.700000	8950.590000	45967.950000	23703.345000	12295.035000	-26700.075000	-13230.540000	-2.243733	-2.782711	-2.476290	-0.772985	10.457937	38.641314	7.920986	2.178799	4.669560	-2.578940	5.188400	-0.881712	0.113342	0.441039	-1.000000	-1.000000	-1.000000	-1.000000	-1.000000	-1.000000	-1.000000	52.000000	0.000000	-1.000000	-1.000000	226294.000000	1775792306.969063
-12263.895000	-20523.465000	8956.620000	45973.080000	23707.755000	12250.710000	-26702.370000	-13229.145000	1.179461	0.986649	-0.278632	-2.225718	-0.370778	6.741009	7.308892	12.962326	4.669560	-2.578940	5.188400	-0.881712	0.113342	0.441039	-1.000000	-1.000000	-1.000000	-1.000000	-1.000000	-1.000000	-1.000000	52.000000	0.000000	-1.000000	-1.000000	226295.000000	1775792306.969069
-12265.650000	-20525.220000	8958.825000	45981.135000	23710.005000	12253.905000	-26698.815000	-13232.880000	4.182022	4.281577	1.703540	-2.930032	-7.065267	-26.784744	3.602758	17.493182	4.669560	-2.578940	5.188400	-0.881712	0.113342	0.441039	-1.000000	-1.000000	-1.000000	-1.000000	-1.000000	-1.000000	-1.000000	52.000000	0.000000	-1.000000	-1.000000	226296.000000	1775792306.969076
-12277.125000	-20539.755000	8949.240000	45976.770000	23695.695000	12257.955000	-26705.790000	-13244.130000	5.052634	5.363685	3.075749	-1.182552	-8.287680	-48.988125	-1.348459	12.641777	4.669560	-2.578940	5.188400	-0.881712	0.113342	0.441039	-1.000000	-1.000000	-1.000000	-1.000000	-1.000000	-1.000000	-1.000000	52.000000	0.000000	-1.000000	-1.000000	226297.000000	1775792306.969082
-12265.515000	-20527.740000	8959.860000	45983.655000	23683.860000	12257.370000	-26705.340000	-13236.075000	2.997986	3.298922	3.141162	2.150661	-6.973888	-50.928882	-5.461172	1.285909	4.669560	-2.578940	5.188400	-0.881712	0.113342	0.441039	-1.000000	-1.000000	-1.000000	-1.000000	-1.000000	-1.000000	-1.000000	52.000000	0.000000	-1.000000	-1.000000	226298.000000	1775792306.969088
-12257.865000	-20519.595000	8965.620000	45984.960000	23671.485000	12243.420000	-26705.070000	-13230.405000	-0.206331	-0.075308	2.253881	4.842515	-6.042258	-34.114208	-7.309701	-9.679200	4.669560	-2.578940	5.188400	-0.881712	0.113342	0.441039	-1.000000	-1.000000	-1.000000	-1.000000	-1.000000	-1.000000	-1.000000	52.000000	0.000000	-1.000000	-1.000000	226299.000000	1775792306.969094
-12265.470000	-20525.535000	8956.485000	45974.835000	23693.985000	12252.870000	-26706.420000	-13235.535000	-2.067423	-1.950150	1.341305	5.249572	-5.241631	-8.992539	-6.391619	-14.508045	4.669560	-2.578940	5.188400	-0.881712	0.113342	0.441039	-1.000000	-1.000000	-1.000000	-1.000000	-1.000000	-1.000000	-1.000000	52.000000	0.000000	-1.000000	-1.000000	226300.000000	1775792306.969476
-12277.530000	-20539.080000	8947.980000	45974.340000	23706.720000	12227.085000	-26710.515000	-13244.580000	-2.616807	-2.231920	0.044869	2.835710	-1.879062	12.950412	-3.496618	-12.703569	4.669560	-2.578940	5.188400	-0.881712	0.113342	0.441039	-1.000000	-1.000000	-1.000000	-1.000000	-1.000000	-1.000000	-1.000000	52.000000	0.000000	-1.000000	-1.000000	226301.000000	1775792306.969490
-12280.140000	-20541.735000	8943.255000	45965.205000	23693.130000	12246.480000	-26703.540000	-13245.165000	-3.382786	-2.730018	-2.280440	-1.328238	4.414596	24.820486	-0.110840	-7.585431	4.669560	-2.578940	5.188400	-0.881712	0.113342	0.441039	-1.000000	-1.000000	-1.000000	-1.000000	-1.000000	-1.000000	-1.000000	52.000000	0.000000	-1.000000	-1.000000	226302.000000	1775792306.969504
-12282.795000	-20546.415000	8938.395000	45960.165000	23691.060000	12281.805000	-26695.755000	-13247.145000	-4.362287	-3.792909	-4.721240	-5.099283	9.417649	26.923376	2.901517	-2.204176	4.669560	-2.578940	5.188400	-0.881712	0.113342	0.441039	-1.000000	-1.000000	-1.000000	-1.000000	-1.000000	-1.000000	-1.000000	52.000000	0.000000	-1.000000	-1.000000	226303.000000	1775792306.969510
-12279.465000	-20539.305000	8946.270000	45969.030000	23681.160000	12243.870000	-26704.530000	-13250.430000	-4.044914	-3.882788	-5.357482	-6.491805	9.016651	23.364870	5.021944	2.096664	6.516020	-1.892240	4.684820	-0.882932	0.116638	0.441283	-1.000000	-1.000000	-1.000000	-1.000000	-1.000000	-1.000000	-1.000000	52.000000	0.000000	-1.000000	-1.000000	226304.000000	1775792306.969610
-12280.005000	-20538.270000	8944.110000	45962.820000	23687.010000	12243.060000	-26701.155000	-13249.530000	-1.557213	-1.680571	-3.062425	-4.554859	3.748747	15.287792	5.249513	4.870520	6.516020	-1.892240	4.684820	-0.882932	0.116638	0.441283	-1.000000	-1.000000	-1.000000	-1.000000	-1.000000	-1.000000	-1.000000	52.000000	0.000000	-1.000000	-1.000000	226305.000000	1775792306.969617
-12282.390000	-20542.770000	8942.310000	45965.835000	23699.430000	12235.455000	-26693.055000	-13245.120000	2.143104	2.115262	1.127951	-0.371904	-2.075001	3.014909	3.426864	6.176695	6.516020	-1.892240	4.684820	-0.882932	0.116638	0.441283	-1.000000	-1.000000	-1.000000	-1.000000	-1.000000	-1.000000	-1.000000	52.000000	0.000000	-1.000000	-1.000000	226306.000000	1775792306.969625
-12291.030000	-20551.950000	8932.770000	45954.855000	23682.555000	12208.275000	-26697.105000	-13245.795000	4.873526	4.975074	4.510773	3.439068	-4.721717	-9.600028	0.932486	6.358547	6.516020	-1.892240	4.684820	-0.882932	0.116638	0.441283	-1.000000	-1.000000	-1.000000	-1.000000	-1.000000	-1.000000	-1.000000	52.000000	0.000000	-1.000000	-1.000000	226307.000000	1775792306.969631
-12291.345000	-20554.740000	8929.575000	45953.910000	23690.430000	12199.095000	-26703.180000	-13242.825000	5.033921	4.874079	4.995930	4.755816	-4.246896	-18.079119	-1.243142	5.530429	6.516020	-1.892240	4.684820	-0.882932	0.116638	0.441283	-1.000000	-1.000000	-1.000000	-1.000000	-1.000000	-1.000000	-1.000000	52.000000	0.000000	-1.000000	-1.000000	226308.000000	1775792306.969638
-12267.945000	-20530.395000	8956.035000	45981.630000	23687.730000	12219.930000	-26705.835000	-13227.255000	3.447667	2.721303	3.319022	3.965771	-2.586905	-19.274793	-3.137175	3.975077	6.516020	-1.892240	4.684820	-0.882932	0.116638	0.441283	-1.000000	-1.000000	-1.000000	-1.000000	-1.000000	-1.000000	-1.000000	52.000000	0.000000	-1.000000	-1.000000	226309.000000	1775792306.969644
-12272.760000	-20536.875000	8951.580000	45977.625000	23654.655000	12248.370000	-26704.620000	-13239.090000	2.490503	1.363574	2.244941	3.450388	-1.461536	-11.276272	-4.427291	2.224418	6.516020	-1.892240	4.684820	-0.882932	0.116638	0.441283	-1.000000	-1.000000	-1.000000	-1.000000	-1.000000	-1.000000	-1.000000	52.000000	0.000000	-1.000000	-1.000000	226310.000000	1775792306.969651
-12276.045000	-20540.295000	8948.025000	45971.820000	23663.520000	12247.470000	-26707.995000	-13261.365000	2.502502	1.483581	2.475764	3.633832	-2.137804	3.457187	-4.288135	-0.406656	6.516020	-1.892240	4.684820	-0.882932	0.116638	0.441283	-1.000000	-1.000000	-1.000000	-1.000000	-1.000000	-1.000000	-1.000000	52.000000	0.000000	-1.000000	-1.000000	226311.000000	1775792306.969657
-12269.745000	-20529.810000	8961.480000	45990.180000	23710.455000	12261.195000	-26702.820000	-13264.155000	1.669230	1.297878	2.167799	2.690439	-2.526756	16.974608	-2.472951	-4.877609	6.516020	-1.892240	4.684820	-0.882932	0.116638	0.441283	-1.000000	-1.000000	-1.000000	-1.000000	-1.000000	-1.000000	-1.000000	52.000000	0.000000	-1.000000	-1.000000	226312.000000	1775792306.969664
-12274.065000	-20532.240000	8959.545000	45991.215000	23728.545000	12257.955000	-26701.965000	-13258.170000	-0.639032	0.056673	0.568034	0.425445	1.850956	21.536991	0.407704	-9.173102	6.516020	-1.892240	4.684820	-0.882932	0.116638	0.441283	-1.000000	-1.000000	-1.000000	-1.000000	-1.000000	-1.000000	-1.000000	52.000000	0.000000	-1.000000	-1.000000	226313.000000	1775792306.969670
-12271.185000	-20527.830000	8959.050000	45987.570000	23740.110000	12258.180000	-26694.675000	-13242.555000	-3.324995	-1.532916	-1.617857	-1.979233	10.347122	15.270701	3.307658	-9.180779	3.753960	3.265640	5.630940	-0.878111	0.123352	0.433898	-1.000000	-1.000000	-1.000000	-1.000000	-1.000000	-1.000000	-1.000000	52.000000	0.000000	-1.000000	-1.000000	226314.000000	1775792306.969676
-12266.190000	-20525.940000	8956.350000	45977.040000	23727.015000	12268.395000	-26691.345000	-13227.705000	-4.947256	-2.740902	-3.813849	-4.363018	15.710529	2.460796	5.201651	-3.189485	3.753960	3.265640	5.630940	-0.878111	0.123352	0.433898	-1.000000	-1.000000	-1.000000	-1.000000	-1.000000	-1.000000	-1.000000	52.000000	0.000000	-1.000000	-1.000000	226315.000000	1775792306.969682
-12272.130000	-20534.580000	8950.185000	45972.180000	23715.675000	12269.070000	-26694.585000	-13235.445000	-4.700985	-3.313974	-5.539556	-6.844086	11.491297	-9.737175	5.301627	5.636795	3.753960	3.265640	5.630940	-0.878111	0.123352	0.433898	-1.000000	-1.000000	-1.000000	-1.000000	-1.000000	-1.000000	-1.000000	52.000000	0.000000	-1.000000	-1.000000	226316.000000	1775792306.969689
-12274.200000	-20535.300000	8951.355000	45976.680000	23723.955000	12259.710000	-26700.210000	-13245.255000	-3.177471	-3.574397	-6.172951	-8.262141	-1.252104	-16.258692	3.147597	11.105255	3.753960	3.265640	5.630940	-0.878111	0.123352	0.433898	-1.000000	-1.000000	-1.000000	-1.000000	-1.000000	-1.000000	-1.000000	52.000000	0.000000	-1.000000	-1.000000	226317.000000	1775792306.969695
-12272.760000	-20532.600000	8957.070000	45986.445000	23723.730000	12246.300000	-26703.585000	-13247.550000	-1.526914	-3.529545	-4.990201	-6.670149	-14.497470	-16.762851	-0.778058	9.242812	3.753960	3.265640	5.630940	-0.878111	0.123352	0.433898	-1.000000	-1.000000	-1.000000	-1.000000	-1.000000	-1.000000	-1.000000	52.000000	0.000000	-1.000000	-1.000000	226318.000000	1775792306.969701
-12264.885000	-20521.530000	8966.565000	45994.410000	23722.875000	12240.900000	-26704.755000	-13239.945000	0.017214	-2.313148	-1.607828	-1.477186	-20.427260	-13.516223	-4.698926	2.029658	3.753960	3.265640	5.630940	-0.878111	0.123352	0.433898	-1.000000	-1.000000	-1.000000	-1.000000	-1.000000	-1.000000	-1.000000	52.000000	0.000000	-1.000000	-1.000000	226319.000000	1775792306.969707
-12253.500000	-20506.365000	8973.630000	45987.030000	23706.045000	12229.965000	-26699.355000	-13225.365000	1.982481	0.788915	3.161423	5.007507	-17.459608	-8.395939	-6.433998	-4.637095	3.753960	3.265640	5.630940	-0.878111	0.123352	0.433898	-1.000000	-1.000000	-1.000000	-1.000000	-1.000000	-1.000000	-1.000000	52.000000	0.000000	-1.000000	-1.000000	226320.000000	1775792306.969714
-12264.120000	-20521.665000	8964.675000	45983.385000	23683.185000	12185.730000	-26699.715000	-13233.510000	4.082980	4.630087	6.997919	8.781764	-9.804736	-3.134139	-4.928926	-6.557402	3.753960	3.265640	5.630940	-0.878111	0.123352	0.433898	-1.000000	-1.000000	-1.000000	-1.000000	-1.000000	-1.000000	-1.000000	52.000000	0.000000	-1.000000	-1.000000	226321.000000	1775792306.969720
-12265.155000	-20523.825000	8960.265000	45978.030000	23689.980000	12165.345000	-26701.965000	-13233.555000	4.576801	6.094472	7.246626	7.554058	-2.345814	-0.010852	-1.233835	-4.499059	3.753960	3.265640	5.630940	-0.878111	0.123352	0.433898	-1.000000	-1.000000	-1.000000	-1.000000	-1.000000	-1.000000	-1.000000	52.000000	0.000000	-1.000000	-1.000000	226322.000000	1775792306.969726
-12262.680000	-20520.900000	8963.910000	45984.105000	23713.155000	12214.845000	-26698.365000	-13233.105000	2.455564	3.513664	3.502919	2.768726	4.029339	1.907505	2.357927	-1.750577	3.753960	3.265640	5.630940	-0.878111	0.123352	0.433898	-1.000000	-1.000000	-1.000000	-1.000000	-1.000000	-1.000000	-1.000000	52.000000	0.000000	-1.000000	-1.000000	226323.000000	1775792306.969732
-12266.955000	-20528.280000	8954.415000	45972.135000	23701.770000	12259.665000	-26688.285000	-13234.815000	-0.921490	-1.142938	-1.702239	-2.129881	10.548408	8.164371	4.434586	-0.224384	2.243220	4.425400	5.630940	-0.873228	0.124633	0.433226	-1.000000	-1.000000	-1.000000	-1.000000	-1.000000	-1.000000	-1.000000	52.000000	0.000000	-1.000000	-1.000000	226324.000000	1775792306.969739
-12266.190000	-20528.055000	8953.245000	45969.660000	23691.195000	12231.495000	-26683.920000	-13232.025000	-3.486314	-4.814116	-5.486461	-4.901639	15.304738	19.730549	5.089114	0.129582	2.243220	4.425400	5.630940	-0.873228	0.124633	0.433226	-1.000000	-1.000000	-1.000000	-1.000000	-1.000000	-1.000000	-1.000000	52.000000	0.000000	-1.000000	-1.000000	226325.000000	1775792306.969745
-12260.475000	-20519.325000	8956.305000	45963.585000	23678.865000	12220.560000	-26687.700000	-13226.310000	-4.032338	-5.628621	-6.366806	-5.279132	14.423886	27.045913	4.507267	0.242022	2.243220	4.425400	5.630940	-0.873228	0.124633	0.433226	-1.000000	-1.000000	-1.000000	-1.000000	-1.000000	-1.000000	-1.000000	52.000000	0.000000	-1.000000	-1.000000	226326.000000	1775792306.969752
-12265.560000	-20520.045000	8956.170000	45963.180000	23680.980000	12265.740000	-26692.020000	-13232.745000	-2.500167	-3.229419	-4.179729	-3.760385	7.617878	21.717732	2.279079	0.745613	2.243220	4.425400	5.630940	-0.873228	0.124633	0.433226	-1.000000	-1.000000	-1.000000	-1.000000	-1.000000	-1.000000	-1.000000	52.000000	0.000000	-1.000000	-1.000000	226327.000000	1775792306.969758
-12258.000000	-20512.215000	8961.930000	45966.960000	23694.705000	12289.455000	-26690.490000	-13227.570000	0.008304	0.956482	-0.087483	-0.937444	-0.574036	8.013266	-1.354671	1.279961	2.243220	4.425400	5.630940	-0.873228	0.124633	0.433226	-1.000000	-1.000000	-1.000000	-1.000000	-1.000000	-1.000000	-1.000000	52.000000	0.000000	-1.000000	-1.000000	226328.000000	1775792306.969764
-12259.890000	-20513.970000	8960.130000	45966.600000	23706.720000	12253.095000	-26694.900000	-13230.945000	2.146449	4.533560	3.895706	2.421294	-4.780644	-5.214004	-4.790927	1.298559	2.243220	4.425400	5.630940	-0.873228	0.124633	0.433226	-1.000000	-1.000000	-1.000000	-1.000000	-1.000000	-1.000000	-1.000000	52.000000	0.000000	-1.000000	-1.000000	226329.000000	1775792306.969770
-12253.140000	-20503.935000	8971.335000	45979.110000	23725.485000	12263.220000	-26696.295000	-13226.715000	3.190611	5.823176	6.101857	5.323433	-3.218013	-15.259345	-6.357387	0.843598	2.243220	4.425400	5.630940	-0.873228	0.124633	0.433226	-1.000000	-1.000000	-1.000000	-1.000000	-1.000000	-1.000000	-1.000000	52.000000	0.000000	-1.000000	-1.000000	226330.000000	1775792306.969777
-12250.620000	-20499.885000	8976.645000	45983.430000	23709.465000	12254.445000	-26696.520000	-13222.215000	3.091897	4.779670	6.159619	6.973990	1.127115	-22.019454	-5.513067	0.393199	2.243220	4.425400	5.630940	-0.873228	0.124633	0.433226	-1.000000	-1.000000	-1.000000	-1.000000	-1.000000	-1.000000	-1.000000	52.000000	0.000000	-1.000000	-1.000000	226331.000000	1775792306.969783
-12261.960000	-20515.815000	8960.265000	45967.320000	23679.765000	12273.975000	-26688.555000	-13219.245000	1.945170	2.089450	4.271182	6.470074	2.521000	-23.178695	-2.637866	0.416128	2.243220	4.425400	5.630940	-0.873228	0.124633	0.433226	-1.000000	-1.000000	-1.000000	-1.000000	-1.000000	-1.000000	-1.000000	52.000000	0.000000	-1.000000	-1.000000	226332.000000	1775792306.969790
-12271.860000	-20529.540000	8944.380000	45954.585000	23692.905000	12293.505000	-26688.690000	-13221.270000	-0.512861	-2.110094	0.073628	2.631129	-2.084601	-16.668441	1.308680	0.730645	2.243220	4.425400	5.630940	-0.873228	0.124633	0.433226	-1.000000	-1.000000	-1.000000	-1.000000	-1.000000	-1.000000	-1.000000	52.000000	0.000000	-1.000000	-1.000000	226333.000000	1775792306.969796
-12271.095000	-20526.930000	8949.195000	45960.705000	23695.290000	12268.170000	-26692.695000	-13229.685000	-3.809322	-6.903089	-5.643118	-3.702668	-8.718581	-4.652134	4.620791	0.444528	1.297100	0.869820	3.876040	-0.876707	0.127624	0.435546	-1.000000	-1.000000	-1.000000	-1.000000	-1.000000	-1.000000	-1.000000	52.000000	0.000000	-1.000000	-1.000000	226334.000000	1775792306.969803
-12267.945000	-20526.165000	8951.085000	45965.655000	23697.090000	12258.675000	-26689.005000	-13248.945000	-5.823625	-9.384328	-9.433295	-8.554317	-10.886973	5.926071	5.614413	-1.336718	1.297100	0.869820	3.876040	-0.876707	0.127624	0.435546	-1.000000	-1.000000	-1.000000	-1.000000	-1.000000	-1.000000	-1.000000	52.000000	0.000000	-1.000000	-1.000000	226335.000000	1775792306.969808
-12260.295000	-20517.660000	8956.620000	45964.485000	23679.180000	12244.410000	-26685.810000	-13255.335000	-4.506860	-7.092581	-8.145973	-8.453943	-7.140035	9.246116	4.218298	-4.435383	1.297100	0.869820	3.876040	-0.876707	0.127624	0.435546	-1.000000	-1.000000	-1.000000	-1.000000	-1.000000	-1.000000	-1.000000	52.000000	0.000000	-1.000000	-1.000000	226336.000000	1775792306.969815
-12253.095000	-20505.420000	8965.530000	45962.910000	23667.570000	12184.830000	-26691.120000	-13241.295000	-0.012434	-0.531237	-2.166335	-4.008131	-1.420662	4.984961	1.716447	-6.540150	1.297100	0.869820	3.876040	-0.876707	0.127624	0.435546	-1.000000	-1.000000	-1.000000	-1.000000	-1.000000	-1.000000	-1.000000	52.000000	0.000000	-1.000000	-1.000000	226337.000000	1775792306.969821
-12244.455000	-20496.645000	8980.830000	45989.055000	23684.220000	12114.720000	-26689.500000	-13216.590000	5.340734	7.227508	5.368176	1.807634	2.629702	-4.520931	-0.795602	-4.208130	1.297100	0.869820	3.876040	-0.876707	0.127624	0.435546	-1.000000	-1.000000	-1.000000	-1.000000	-1.000000	-1.000000	-1.000000	52.000000	0.000000	-1.000000	-1.000000	226338.000000	1775792306.969828
-12244.995000	-20502.090000	8976.105000	45986.355000	23689.305000	12138.120000	-26686.305000	-13204.260000	8.618316	12.143566	10.756059	6.762027	5.237038	-14.240923	-2.559092	3.359764	1.297100	0.869820	3.876040	-0.876707	0.127624	0.435546	-1.000000	-1.000000	-1.000000	-1.000000	-1.000000	-1.000000	-1.000000	52.000000	0.000000	-1.000000	-1.000000	226339.000000	1775792306.969834
-12257.055000	-20514.465000	8959.230000	45962.910000	23683.275000	12221.730000	-26682.525000	-13214.205000	7.667156	11.040631	10.791192	8.565163	7.505833	-13.468576	-2.873803	11.721019	1.297100	0.869820	3.876040	-0.876707	0.127624	0.435546	-1.000000	-1.000000	-1.000000	-1.000000	-1.000000	-1.000000	-1.000000	52.000000	0.000000	-1.000000	-1.000000	226340.000000	1775792306.969841
-12261.375000	-20517.030000	8958.780000	45967.905000	23705.685000	12293.820000	-26679.195000	-13224.285000	2.294877	3.906312	4.602958	5.088171	8.681752	6.288955	-1.687419	14.069092	1.297100	0.869820	3.876040	-0.876707	0.127624	0.435546	-1.000000	-1.000000	-1.000000	-1.000000	-1.000000	-1.000000	-1.000000	52.000000	0.000000	-1.000000	-1.000000	226341.000000	1775792306.969847
-12262.635000	-20518.470000	8958.330000	45971.235000	23709.645000	12307.320000	-26680.590000	-13226.670000	-4.852776	-5.263927	-4.359116	-1.807157	8.105954	37.265875	0.086652	7.683553	1.297100	0.869820	3.876040	-0.876707	0.127624	0.435546	-1.000000	-1.000000	-1.000000	-1.000000	-1.000000	-1.000000	-1.000000	52.000000	0.000000	-1.000000	-1.000000	226342.000000	1775792306.969854
-12267.090000	-20523.105000	8954.460000	45967.995000	23725.755000	12336.075000	-26682.660000	-13231.485000	-9.715113	-11.260815	-10.590268	-7.098992	6.099349	57.568132	1.134899	-3.404279	1.297100	0.869820	3.876040	-0.876707	0.127624	0.435546	-1.000000	-1.000000	-1.000000	-1.000000	-1.000000	-1.000000	-1.000000	52.000000	0.000000	-1.000000	-1.000000	226343.000000	1775792306.969859
-12265.605000	-20519.595000	8958.420000	45974.025000	23717.610000	12292.380000	-26685.990000	-13233.420000	-9.857429	-11.429584	-11.030904	-7.775227	2.761394	49.833368	0.717486	-12.372788	-1.052940	-1.281840	4.532220	-0.883909	0.136840	0.433898	-1.000000	-1.000000	-1.000000	-1.000000	-1.000000	-1.000000	-1.000000	52.000000	0.000000	-1.000000	-1.000000	226344.000000	1775792306.971008
-12266.730000	-20518.875000	8960.310000	45979.785000	23704.695000	12253.230000	-26691.255000	-13234.590000	-5.715020	-6.543271	-6.335703	-4.310532	-2.304597	13.938814	-0.836064	-14.819461	-1.052940	-1.281840	4.532220	-0.883909	0.136840	0.433898	-1.000000	-1.000000	-1.000000	-1.000000	-1.000000	-1.000000	-1.000000	52.000000	0.000000	-1.000000	-1.000000	226345.000000	1775792306.971029
-12266.730000	-20523.285000	8958.195000	45977.445000	23702.670000	12256.830000	-26684.640000	-13228.785000	0.294093	0.371311	0.476128	0.840928	-8.673811	-33.233092	-2.328317	-10.512592	-1.052940	-1.281840	4.532220	-0.883909	0.136840	0.433898	-1.000000	-1.000000	-1.000000	-1.000000	-1.000000	-1.000000	-1.000000	52.000000	0.000000	-1.000000	-1.000000	226346.000000	1775792306.975405
-12275.505000	-20536.875000	8946.765000	45968.040000	23704.605000	12272.535000	-26684.190000	-13235.715000	5.186429	5.534930	5.654716	4.490741	-13.616292	-66.489253	-2.362967	-2.444574	-1.052940	-1.281840	4.532220	-0.883909	0.136840	0.433898	-1.000000	-1.000000	-1.000000	-1.000000	-1.000000	-1.000000	-1.000000	52.000000	0.000000	-1.000000	-1.000000	226347.000000	1775792306.975428
-12271.275000	-20530.395000	8958.690000	45987.795000	23730.795000	12279.915000	-26685.945000	-13237.695000	6.994921	6.706876	6.995708	4.909339	-13.320377	-68.503868	-0.659315	5.017428	-1.052940	-1.281840	4.532220	-0.883909	0.136840	0.433898	-1.000000	-1.000000	-1.000000	-1.000000	-1.000000	-1.000000	-1.000000	52.000000	0.000000	-1.000000	-1.000000	226348.000000	1775792306.978304
-12268.350000	-20525.715000	8962.965000	45987.345000	23721.210000	12257.235000	-26687.970000	-13238.325000	5.980260	4.962010	5.495760	3.390485	-6.611878	-41.997226	1.475102	8.678919	-1.052940	-1.281840	4.532220	-0.883909	0.136840	0.433898	-1.000000	-1.000000	-1.000000	-1.000000	-1.000000	-1.000000	-1.000000	52.000000	0.000000	-1.000000	-1.000000	226349.000000	1775792306.978324
-12265.875000	-20522.205000	8966.925000	45987.885000	23711.895000	12208.185000	-26692.200000	-13236.615000	3.892304	3.052995	3.562834	1.848608	2.483712	-6.083562	2.489283	8.236098	-1.052940	-1.281840	4.532220	-0.883909	0.136840	0.433898	-1.000000	-1.000000	-1.000000	-1.000000	-1.000000	-1.000000	-1.000000	52.000000	0.000000	-1.000000	-1.000000	226350.000000	1775792306.982291
-12265.470000	-20520.360000	8970.255000	45993.780000	23714.190000	12200.985000	-26696.115000	-13235.355000	1.997742	2.271079	2.201235	0.551914	7.984780	19.546273	1.863524	5.469844	-1.052940	-1.281840	4.532220	-0.883909	0.136840	0.433898	-1.000000	-1.000000	-1.000000	-1.000000	-1.000000	-1.000000	-1.000000	52.000000	0.000000	-1.000000	-1.000000	226351.000000	1775792306.982309
-12270.015000	-20524.770000	8965.710000	45988.470000	23706.495000	12202.425000	-26700.030000	-13238.415000	0.359376	1.858908	0.888297	-0.825298	7.757233	28.513253	0.201385	2.272870	-1.052940	-1.281840	4.532220	-0.883909	0.136840	0.433898	-1.000000	-1.000000	-1.000000	-1.000000	-1.000000	-1.000000	-1.000000	52.000000	0.000000	-1.000000	-1.000000	226352.000000	1775792306.987910
