Channel1	Channel2	Channel3	Channel4	Channel5	Channel6	Channel7	Channel8	FilteredChannel1	FilteredChannel2	FilteredChannel3	FilteredChannel4	FilteredChannel5	FilteredChannel6	FilteredChannel7	FilteredChannel8	GyroX	GyroY	GyroZ	AccX	AccY	AccZ	PPG1	PPG2	rawPPG1	rawPPG2	rawPPG3	Hr	Hrv	Battery	Trigger	PhysicalTrigger	AutoTrigger	NumMeasurements	Timestamp
-13714.020000	-14500.890000	14486.805000	39911.490000	14684.265000	-44.685000	-28795.095000	-39063.195000	2.454034	0.359506	1.045444	1.311184	1.695115	3.835808	0.559191	2.553613	1.083460	0.412020	0.808780	-0.922849	-0.009155	0.368224	-1.000000	-1.000000	-1.000000	-1.000000	-1.000000	-1.000000	-1.000000	51.000000	0.000000	-1.000000	-1.000000	541263.000000	1775792936.914078
-13725.585000	-14510.250000	14477.805000	39902.670000	14675.850000	-60.480000	-28804.185000	-39075.255000	0.154915	-3.369478	-3.108027	-2.643059	-2.721461	0.459410	1.178869	1.857204	1.052940	1.571780	-0.518840	-0.927061	-0.006531	0.368529	-1.000000	-1.000000	-1.000000	-1.000000	-1.000000	-1.000000	-1.000000	51.000000	0.000000	-1.000000	-1.000000	541264.000000	1775792936.920107
-13728.465000	-14511.870000	14472.135000	39894.750000	14669.055000	-70.470000	-28801.530000	-39076.290000	-3.001683	-6.303031	-6.446271	-5.811840	-6.089813	-3.111104	1.002895	-0.549667	1.052940	1.571780	-0.518840	-0.927061	-0.006531	0.368529	-1.000000	-1.000000	-1.000000	-1.000000	-1.000000	-1.000000	-1.000000	51.000000	0.000000	-1.000000	-1.000000	541265.000000	1775792936.920131
-13714.380000	-14502.105000	14481.765000	39904.425000	14677.155000	-64.080000	-28791.540000	-39064.680000	-5.095124	-7.033579	-7.702877	-7.172818	-7.048617	-5.551942	0.665790	-2.936215	1.052940	1.571780	-0.518840	-0.927061	-0.006531	0.368529	-1.000000	-1.000000	-1.000000	-1.000000	-1.000000	-1.000000	-1.000000	51.000000	0.000000	-1.000000	-1.000000	541266.000000	1775792937.031516
-13693.095000	-14482.305000	14498.955000	39920.805000	14698.575000	-34.290000	-28771.830000	-39042.990000	-3.584408	-4.150965	-5.403146	-5.259992	-4.347936	-4.445611	1.622534	-2.518800	1.052940	1.571780	-0.518840	-0.927061	-0.006531	0.368529	-1.000000	-1.000000	-1.000000	-1.000000	-1.000000	-1.000000	-1.000000	51.000000	0.000000	-1.000000	-1.000000	541267.000000	1775792937.031539
-13703.940000	-14492.205000	14488.335000	39910.725000	14694.030000	-23.130000	-28776.465000	-39052.440000	1.577082	1.687102	0.143977	-0.102688	1.660921	1.517380	4.076566	1.321484	1.052940	1.571780	-0.518840	-0.927061	-0.006531	0.368529	-1.000000	-1.000000	-1.000000	-1.000000	-1.000000	-1.000000	-1.000000	51.000000	0.000000	-1.000000	-1.000000	541268.000000	1775792937.031565
-13711.005000	-14497.470000	14486.085000	39910.905000	14696.730000	-11.700000	-28782.765000	-39061.845000	6.231529	6.594343	5.389244	5.067766	7.510659	9.470593	5.558846	5.067137	1.052940	1.571780	-0.518840	-0.927061	-0.006531	0.368529	-1.000000	-1.000000	-1.000000	-1.000000	-1.000000	-1.000000	-1.000000	51.000000	0.000000	-1.000000	-1.000000	541269.000000	1775792937.031575
-13711.725000	-14497.020000	14486.715000	39910.905000	14694.930000	-22.005000	-28787.130000	-39063.645000	6.070073	6.828112	6.685835	6.700363	9.126601	13.535377	3.328973	4.614451	1.052940	1.571780	-0.518840	-0.927061	-0.006531	0.368529	-1.000000	-1.000000	-1.000000	-1.000000	-1.000000	-1.000000	-1.000000	51.000000	0.000000	-1.000000	-1.000000	541270.000000	1775792937.031588
-13720.905000	-14503.050000	14481.990000	39905.280000	14688.450000	-36.675000	-28796.265000	-39074.670000	1.265938	2.670402	3.914297	4.365893	5.519116	9.509977	-2.242604	-0.072463	1.052940	1.571780	-0.518840	-0.927061	-0.006531	0.368529	-1.000000	-1.000000	-1.000000	-1.000000	-1.000000	-1.000000	-1.000000	51.000000	0.000000	-1.000000	-1.000000	541271.000000	1775792937.031597
-13712.445000	-14495.490000	14489.595000	39913.335000	14692.770000	-34.785000	-28788.795000	-39067.335000	-4.422151	-2.487640	-0.284815	0.258348	-0.943611	-1.397729	-7.806292	-5.437882	1.052940	1.571780	-0.518840	-0.927061	-0.006531	0.368529	-1.000000	-1.000000	-1.000000	-1.000000	-1.000000	-1.000000	-1.000000	51.000000	0.000000	-1.000000	-1.000000	541272.000000	1775792937.031739
-13696.965000	-14480.055000	14504.895000	39927.600000	14702.085000	-23.895000	-28780.065000	-39053.565000	-6.824761	-4.989431	-2.782300	-2.584957	-6.279488	-12.546321	-9.534703	-7.392171	1.052940	1.571780	-0.518840	-0.927061	-0.006531	0.368529	-1.000000	-1.000000	-1.000000	-1.000000	-1.000000	-1.000000	-1.000000	51.000000	0.000000	-1.000000	-1.000000	541273.000000	1775792937.031752
-13706.100000	-14487.930000	14497.560000	39919.995000	14694.255000	-24.975000	-28782.225000	-39061.575000	-4.345540	-3.409103	-2.120279	-2.451600	-7.640703	-16.926199	-6.066505	-4.355795	-1.007160	2.044840	-1.907500	-0.931760	-0.003601	0.368529	-1.000000	-1.000000	-1.000000	-1.000000	-1.000000	-1.000000	-1.000000	51.000000	0.000000	-1.000000	-1.000000	541274.000000	1775792937.031768
-13707.270000	-14486.940000	14500.935000	39925.395000	14701.500000	-28.395000	-28794.555000	-39064.005000	0.369525	0.076379	0.081325	-0.609068	-5.398794	-13.031600	-0.123524	1.001481	-1.007160	2.044840	-1.907500	-0.931760	-0.003601	0.368529	-1.000000	-1.000000	-1.000000	-1.000000	-1.000000	-1.000000	-1.000000	51.000000	0.000000	-1.000000	-1.000000	541275.000000	1775792937.031778
-13703.355000	-14483.340000	14504.040000	39928.005000	14706.225000	-24.840000	-28790.055000	-39059.865000	3.412437	2.238053	1.273123	0.654303	-1.676577	-4.778988	4.037222	4.611891	-1.007160	2.044840	-1.907500	-0.931760	-0.003601	0.368529	-1.000000	-1.000000	-1.000000	-1.000000	-1.000000	-1.000000	-1.000000	51.000000	0.000000	-1.000000	-1.000000	541276.000000	1775792937.031790
-13712.535000	-14491.305000	14494.095000	39916.350000	14694.120000	-33.840000	-28788.795000	-39069.495000	3.401790	1.968174	0.584183	0.357021	1.553502	2.888338	4.850588	4.851035	-1.007160	2.044840	-1.907500	-0.931760	-0.003601	0.368529	-1.000000	-1.000000	-1.000000	-1.000000	-1.000000	-1.000000	-1.000000	51.000000	0.000000	-1.000000	-1.000000	541277.000000	1775792937.031801
-13713.615000	-14497.830000	14486.760000	39909.285000	14685.345000	-39.330000	-28781.865000	-39065.175000	1.184108	-0.130303	-1.612281	-1.526709	2.519330	6.833559	3.828747	2.552792	-1.007160	2.044840	-1.907500	-0.931760	-0.003601	0.368529	-1.000000	-1.000000	-1.000000	-1.000000	-1.000000	-1.000000	-1.000000	51.000000	0.000000	-1.000000	-1.000000	541278.000000	1775792937.031812
-13715.280000	-14508.765000	14473.845000	39899.025000	14677.515000	-37.485000	-28775.835000	-39060.270000	-1.554854	-2.959896	-4.420416	-4.236404	0.688326	6.623353	2.890764	-0.235789	-1.007160	2.044840	-1.907500	-0.931760	-0.003601	0.368529	-1.000000	-1.000000	-1.000000	-1.000000	-1.000000	-1.000000	-1.000000	51.000000	0.000000	-1.000000	-1.000000	541279.000000	1775792937.031821
-13705.920000	-14494.770000	14488.155000	39909.735000	14688.270000	-43.155000	-28796.040000	-39059.865000	-2.883151	-4.793231	-6.056288	-5.829332	-1.963064	4.181982	2.218896	-1.537786	-1.007160	2.044840	-1.907500	-0.931760	-0.003601	0.368529	-1.000000	-1.000000	-1.000000	-1.000000	-1.000000	-1.000000	-1.000000	51.000000	0.000000	-1.000000	-1.000000	541280.000000	1775792937.031832
-13699.755000	-14487.930000	14493.960000	39912.750000	14692.590000	-62.640000	-28807.965000	-39056.760000	-1.634595	-3.576735	-4.327493	-4.192581	-2.350148	1.403641	0.224322	-1.013590	-1.007160	2.044840	-1.907500	-0.931760	-0.003601	0.368529	-1.000000	-1.000000	-1.000000	-1.000000	-1.000000	-1.000000	-1.000000	51.000000	0.000000	-1.000000	-1.000000	541281.000000	1775792937.031842
-13707.225000	-14492.970000	14490.180000	39909.465000	14685.480000	-70.830000	-28803.195000	-39064.140000	1.340913	0.774901	0.843310	0.590373	0.375528	-1.273909	-3.448154	0.084544	-1.007160	2.044840	-1.907500	-0.931760	-0.003601	0.368529	-1.000000	-1.000000	-1.000000	-1.000000	-1.000000	-1.000000	-1.000000	51.000000	0.000000	-1.000000	-1.000000	541282.000000	1775792937.031853
-13718.025000	-14499.990000	14486.130000	39909.105000	14682.870000	-69.030000	-28803.735000	-39073.905000	3.281617	5.131309	6.164626	5.595545	3.720403	-3.228205	-6.106525	0.148686	-1.007160	2.044840	-1.907500	-0.931760	-0.003601	0.368529	-1.000000	-1.000000	-1.000000	-1.000000	-1.000000	-1.000000	-1.000000	51.000000	0.000000	-1.000000	-1.000000	541283.000000	1775792937.031862
-13726.170000	-14508.855000	14476.320000	39900.285000	14667.435000	-78.750000	-28809.180000	-39082.725000	2.036504	6.008207	7.882301	7.647541	4.615054	-3.064595	-5.246634	-1.501434	-3.555580	2.411080	-1.892240	-0.922910	-0.002319	0.368224	-1.000000	-1.000000	-1.000000	-1.000000	-1.000000	-1.000000	-1.000000	51.000000	0.000000	-1.000000	-1.000000	541284.000000	1775792937.031874
-13731.750000	-14512.770000	14472.090000	39895.110000	14662.080000	-96.750000	-28813.590000	-39087.090000	-1.620728	2.923083	5.076059	5.725244	2.186814	-0.912969	-1.598148	-3.822826	-3.555580	2.411080	-1.892240	-0.922910	-0.002319	0.368224	-1.000000	-1.000000	-1.000000	-1.000000	-1.000000	-1.000000	-1.000000	51.000000	0.000000	-1.000000	-1.000000	541285.000000	1775792937.031884
-13699.530000	-14481.630000	14502.645000	39923.325000	14683.995000	-74.610000	-28796.580000	-39059.910000	-4.180644	-0.983645	0.576360	1.837780	-1.304479	1.717545	2.596521	-4.265561	-3.555580	2.411080	-1.892240	-0.922910	-0.002319	0.368224	-1.000000	-1.000000	-1.000000	-1.000000	-1.000000	-1.000000	-1.000000	51.000000	0.000000	-1.000000	-1.000000	541286.000000	1775792937.031897
-13691.475000	-14473.620000	14509.485000	39928.095000	14688.315000	-73.080000	-28794.555000	-39052.305000	-2.093170	-1.474196	-1.168567	-0.234190	-2.072372	4.553471	6.109180	-0.597927	-3.555580	2.411080	-1.892240	-0.922910	-0.002319	0.368224	-1.000000	-1.000000	-1.000000	-1.000000	-1.000000	-1.000000	-1.000000	51.000000	0.000000	-1.000000	-1.000000	541287.000000	1775792937.031906
-13701.690000	-14487.705000	14494.725000	39914.145000	14697.810000	-21.015000	-28800.135000	-39062.205000	3.730881	1.682328	0.662618	0.513077	0.978650	8.335475	7.944709	5.652975	-3.555580	2.411080	-1.892240	-0.922910	-0.002319	0.368224	-1.000000	-1.000000	-1.000000	-1.000000	-1.000000	-1.000000	-1.000000	51.000000	0.000000	-1.000000	-1.000000	541288.000000	1775792937.031918
-13709.520000	-14493.015000	14492.610000	39915.990000	14712.165000	25.740000	-28796.310000	-39068.775000	7.637440	3.832361	2.059832	0.992895	5.180320	13.401881	6.738086	9.236320	-3.555580	2.411080	-1.892240	-0.922910	-0.002319	0.368224	-1.000000	-1.000000	-1.000000	-1.000000	-1.000000	-1.000000	-1.000000	51.000000	0.000000	-1.000000	-1.000000	541289.000000	1775792937.031927
-13703.715000	-14489.910000	14494.725000	39915.585000	14700.915000	9.360000	-28795.230000	-39063.780000	5.698321	1.644732	0.072699	-0.980222	7.047417	17.348926	2.695540	6.874292	-3.555580	2.411080	-1.892240	-0.922910	-0.002319	0.368224	-1.000000	-1.000000	-1.000000	-1.000000	-1.000000	-1.000000	-1.000000	51.000000	0.000000	-1.000000	-1.000000	541290.000000	1775792937.031938
-13708.440000	-14491.170000	14494.680000	39915.945000	14696.820000	-3.195000	-28789.785000	-39061.755000	-0.243755	-3.063120	-3.707888	-4.025682	4.376261	13.829213	-1.962274	0.732445	-3.555580	2.411080	-1.892240	-0.922910	-0.002319	0.368224	-1.000000	-1.000000	-1.000000	-1.000000	-1.000000	-1.000000	-1.000000	51.000000	0.000000	-1.000000	-1.000000	541291.000000	1775792937.031947
-13708.305000	-14495.220000	14489.910000	39913.605000	14698.215000	-5.895000	-28785.870000	-39059.910000	-5.753491	-6.535390	-6.192315	-5.774490	-2.151170	-0.439585	-4.923533	-4.659581	-3.555580	2.411080	-1.892240	-0.922910	-0.002319	0.368224	-1.000000	-1.000000	-1.000000	-1.000000	-1.000000	-1.000000	-1.000000	51.000000	0.000000	-1.000000	-1.000000	541292.000000	1775792937.031959
-13702.410000	-14488.605000	14489.370000	39907.485000	14694.345000	-13.905000	-28786.140000	-39050.145000	-7.819806	-6.769050	-6.048407	-5.343449	-8.762678	-19.290560	-5.366797	-6.487495	-3.555580	2.411080	-1.892240	-0.922910	-0.002319	0.368224	-1.000000	-1.000000	-1.000000	-1.000000	-1.000000	-1.000000	-1.000000	51.000000	0.000000	-1.000000	-1.000000	541293.000000	1775792937.031968
-13701.870000	-14485.140000	14490.810000	39906.405000	14687.235000	-31.140000	-28787.130000	-39047.445000	-5.872915	-3.835540	-3.706491	-3.396883	-11.815797	-32.363065	-4.142292	-4.640115	-3.784480	2.868880	-0.808780	-0.913328	-0.003723	0.369994	-1.000000	-1.000000	-1.000000	-1.000000	-1.000000	-1.000000	-1.000000	51.000000	0.000000	-1.000000	-1.000000	541294.000000	1775792937.031980
-13711.635000	-14496.120000	14488.605000	39913.155000	14685.885000	-37.890000	-28799.865000	-39067.515000	-1.735413	0.512939	-0.312485	-0.776939	-10.382939	-33.575238	-2.856297	-1.433261	-3.784480	2.868880	-0.808780	-0.913328	-0.003723	0.369994	-1.000000	-1.000000	-1.000000	-1.000000	-1.000000	-1.000000	-1.000000	51.000000	0.000000	-1.000000	-1.000000	541295.000000	1775792937.031989
-13712.040000	-14500.755000	14480.595000	39903.615000	14682.735000	-38.790000	-28799.730000	-39065.445000	1.632874	3.469574	2.604822	1.967601	-5.686441	-23.216766	-2.558377	-0.011255	-3.784480	2.868880	-0.808780	-0.913328	-0.003723	0.369994	-1.000000	-1.000000	-1.000000	-1.000000	-1.000000	-1.000000	-1.000000	51.000000	0.000000	-1.000000	-1.000000	541296.000000	1775792937.032000
-13714.785000	-14503.770000	14478.075000	39899.160000	14681.205000	-48.690000	-28800.720000	-39068.730000	2.694543	3.477663	3.710246	3.774332	0.208458	-6.066110	-2.716909	-1.026880	-3.784480	2.868880	-0.808780	-0.913328	-0.003723	0.369994	-1.000000	-1.000000	-1.000000	-1.000000	-1.000000	-1.000000	-1.000000	51.000000	0.000000	-1.000000	-1.000000	541297.000000	1775792937.032009
-13697.145000	-14488.245000	14493.330000	39912.660000	14696.910000	-29.295000	-28784.880000	-39054.285000	2.424679	1.865983	3.258206	3.962594	5.525672	11.333103	-1.626977	-2.044324	-3.784480	2.868880	-0.808780	-0.913328	-0.003723	0.369994	-1.000000	-1.000000	-1.000000	-1.000000	-1.000000	-1.000000	-1.000000	51.000000	0.000000	-1.000000	-1.000000	541298.000000	1775792937.032020
-13696.155000	-14485.140000	14495.355000	39914.955000	14698.305000	-18.585000	-28789.290000	-39057.390000	2.726588	1.272988	2.976209	3.521867	9.395714	23.976761	1.553167	-0.758830	-3.784480	2.868880	-0.808780	-0.913328	-0.003723	0.369994	-1.000000	-1.000000	-1.000000	-1.000000	-1.000000	-1.000000	-1.000000	51.000000	0.000000	-1.000000	-1.000000	541299.000000	1775792937.032029
-13689.765000	-14479.380000	14501.385000	39919.770000	14694.705000	-10.620000	-28788.480000	-39053.430000	3.919158	2.535418	3.621203	3.451506	10.861141	29.349782	5.214163	2.359904	-3.784480	2.868880	-0.808780	-0.913328	-0.003723	0.369994	-1.000000	-1.000000	-1.000000	-1.000000	-1.000000	-1.000000	-1.000000	51.000000	0.000000	-1.000000	-1.000000	541300.000000	1775792937.032040
-13692.555000	-14478.075000	14502.150000	39917.790000	14691.510000	-13.410000	-28778.310000	-39047.715000	4.417766	3.999735	4.038523	3.200837	8.678825	26.359061	6.877063	5.006791	-3.784480	2.868880	-0.808780	-0.913328	-0.003723	0.369994	-1.000000	-1.000000	-1.000000	-1.000000	-1.000000	-1.000000	-1.000000	51.000000	0.000000	-1.000000	-1.000000	541301.000000	1775792937.032049
-13701.150000	-14477.445000	14504.895000	39924.675000	14700.195000	-35.280000	-28780.290000	-39054.105000	2.630880	3.689108	2.903463	1.861889	3.361706	15.428594	5.848050	5.462580	-3.784480	2.868880	-0.808780	-0.913328	-0.003723	0.369994	-1.000000	-1.000000	-1.000000	-1.000000	-1.000000	-1.000000	-1.000000	51.000000	0.000000	-1.000000	-1.000000	541302.000000	1775792937.032061
-13706.010000	-14494.590000	14487.930000	39910.725000	14693.355000	-41.760000	-28786.365000	-39058.020000	-1.501219	0.830277	-0.148493	-0.645642	-2.418298	-0.468789	2.798993	3.258051	-3.784480	2.868880	-0.808780	-0.913328	-0.003723	0.369994	-1.000000	-1.000000	-1.000000	-1.000000	-1.000000	-1.000000	-1.000000	51.000000	0.000000	-1.000000	-1.000000	541303.000000	1775792937.032070
-13714.020000	-14503.770000	14479.695000	39904.335000	14699.835000	0.585000	-28784.745000	-39064.005000	-6.178919	-4.046575	-4.639255	-3.914577	-6.171250	-14.558508	-1.331270	-0.832719	-2.655240	2.624720	-0.137340	-0.919004	-0.004150	0.371581	-1.000000	-1.000000	-1.000000	-1.000000	-1.000000	-1.000000	-1.000000	51.000000	0.000000	-1.000000	-1.000000	541304.000000	1775792937.032081
-13702.365000	-14490.090000	14493.195000	39915.720000	14707.575000	7.605000	-28779.885000	-39056.670000	-8.617666	-8.515798	-8.552368	-6.696867	-6.822815	-18.971455	-4.854036	-4.678333	-2.655240	2.624720	-0.137340	-0.919004	-0.004150	0.371581	-1.000000	-1.000000	-1.000000	-1.000000	-1.000000	-1.000000	-1.000000	51.000000	0.000000	-1.000000	-1.000000	541305.000000	1775792937.032090
-13692.870000	-14475.555000	14509.395000	39931.335000	14715.360000	-6.210000	-28781.055000	-39050.460000	-6.645311	-8.750743	-8.442654	-6.501502	-4.470526	-12.793886	-5.974004	-5.795378	-2.655240	2.624720	-0.137340	-0.919004	-0.004150	0.371581	-1.000000	-1.000000	-1.000000	-1.000000	-1.000000	-1.000000	-1.000000	51.000000	0.000000	-1.000000	-1.000000	541306.000000	1775792937.032101
-13693.680000	-14473.395000	14511.735000	39931.650000	14706.180000	-33.120000	-28791.045000	-39052.800000	-0.711598	-3.301257	-2.956837	-2.198773	-0.776931	-4.046725	-4.676059	-3.443099	-2.655240	2.624720	-0.137340	-0.919004	-0.004150	0.371581	-1.000000	-1.000000	-1.000000	-1.000000	-1.000000	-1.000000	-1.000000	51.000000	0.000000	-1.000000	-1.000000	541307.000000	1775792937.032110
-13684.050000	-14467.860000	14513.985000	39929.355000	14687.010000	-73.530000	-28795.095000	-39045.735000	5.755094	4.489615	4.591512	3.527506	1.217305	-1.318897	-2.684506	0.553487	-2.655240	2.624720	-0.137340	-0.919004	-0.004150	0.371581	-1.000000	-1.000000	-1.000000	-1.000000	-1.000000	-1.000000	-1.000000	51.000000	0.000000	-1.000000	-1.000000	541308.000000	1775792937.032122
-13689.225000	-14475.915000	14504.940000	39920.670000	14676.840000	-87.120000	-28786.410000	-39047.805000	9.078853	9.364794	8.937444	6.344847	-0.494844	-5.913451	-1.089303	3.644934	-2.655240	2.624720	-0.137340	-0.919004	-0.004150	0.371581	-1.000000	-1.000000	-1.000000	-1.000000	-1.000000	-1.000000	-1.000000	51.000000	0.000000	-1.000000	-1.000000	541309.000000	1775792937.032131
-13706.685000	-14488.290000	14498.010000	39920.715000	14691.195000	-74.745000	-28789.425000	-39063.375000	7.429856	8.207657	7.269560	4.400401	-4.061366	-11.169071	0.597336	4.087023	-2.655240	2.624720	-0.137340	-0.919004	-0.004150	0.371581	-1.000000	-1.000000	-1.000000	-1.000000	-1.000000	-1.000000	-1.000000	51.000000	0.000000	-1.000000	-1.000000	541310.000000	1775792937.032142
-13711.995000	-14493.195000	14494.005000	39921.120000	14711.355000	-10.125000	-28789.245000	-39066.885000	1.310333	1.794678	1.008155	-0.299490	-4.656232	-7.807796	2.591385	1.385117	-2.655240	2.624720	-0.137340	-0.919004	-0.004150	0.371581	-1.000000	-1.000000	-1.000000	-1.000000	-1.000000	-1.000000	-1.000000	51.000000	0.000000	-1.000000	-1.000000	541311.000000	1775792937.032151
-13715.685000	-14501.385000	14484.420000	39910.230000	14712.435000	42.795000	-28793.115000	-39070.260000	-5.961815	-5.809239	-5.711707	-4.310025	0.229113	8.103720	3.927934	-2.801456	-2.655240	2.624720	-0.137340	-0.919004	-0.004150	0.371581	-1.000000	-1.000000	-1.000000	-1.000000	-1.000000	-1.000000	-1.000000	51.000000	0.000000	-1.000000	-1.000000	541312.000000	1775792937.032162
-13705.785000	-14493.465000	14491.395000	39916.710000	14711.535000	27.000000	-28792.035000	-39061.395000	-9.751770	-9.947707	-9.043716	-5.647889	7.288403	28.832663	3.753995	-5.254743	-2.655240	2.624720	-0.137340	-0.919004	-0.004150	0.371581	-1.000000	-1.000000	-1.000000	-1.000000	-1.000000	-1.000000	-1.000000	51.000000	0.000000	-1.000000	-1.000000	541313.000000	1775792937.032171
-13696.380000	-14482.710000	14501.385000	39924.090000	14710.410000	4.725000	-28788.210000	-39053.430000	-7.388762	-8.055789	-7.140035	-3.892372	10.767587	37.920132	2.386887	-3.729905	-0.244160	2.502640	0.061040	-0.922483	-0.003845	0.371825	-1.000000	-1.000000	-1.000000	-1.000000	-1.000000	-1.000000	-1.000000	51.000000	0.000000	-1.000000	-1.000000	541314.000000	1775792937.032183
-13700.340000	-14488.740000	14494.995000	39915.855000	14704.245000	-11.115000	-28792.395000	-39057.930000	-0.352797	-1.244612	-1.026221	0.090009	8.035964	24.914886	0.822340	0.981818	-0.244160	2.502640	0.061040	-0.922483	-0.003845	0.371825	-1.000000	-1.000000	-1.000000	-1.000000	-1.000000	-1.000000	-1.000000	51.000000	0.000000	-1.000000	-1.000000	541315.000000	1775792937.032192
-13693.140000	-14481.180000	14503.635000	39925.305000	14715.585000	0.945000	-28786.860000	-39050.685000	6.691966	6.116625	5.560048	3.983128	1.199667	-3.439360	-0.322564	5.546557	-0.244160	2.502640	0.061040	-0.922483	-0.003845	0.371825	-1.000000	-1.000000	-1.000000	-1.000000	-1.000000	-1.000000	-1.000000	51.000000	0.000000	-1.000000	-1.000000	541316.000000	1775792937.032203
-13693.050000	-14481.180000	14503.995000	39927.510000	14708.655000	-7.380000	-28790.685000	-39052.845000	9.750127	9.885715	9.061297	5.880008	-5.257834	-29.367282	-0.937398	7.103572	-0.244160	2.502640	0.061040	-0.922483	-0.003845	0.371825	-1.000000	-1.000000	-1.000000	-1.000000	-1.000000	-1.000000	-1.000000	51.000000	0.000000	-1.000000	-1.000000	541317.000000	1775792937.032212
-13694.130000	-14479.065000	14506.245000	39929.670000	14703.030000	-25.065000	-28794.195000	-39055.365000	7.945496	8.892872	8.420528	5.526686	-8.380705	-39.621961	-1.262699	5.105530	-0.244160	2.502640	0.061040	-0.922483	-0.003845	0.371825	-1.000000	-1.000000	-1.000000	-1.000000	-1.000000	-1.000000	-1.000000	51.000000	0.000000	-1.000000	-1.000000	541318.000000	1775792937.032771
-13696.605000	-14482.575000	14500.305000	39921.570000	14697.675000	-39.870000	-28797.975000	-39057.030000	2.840696	4.435458	4.542005	3.288474	-8.236961	-33.336543	-1.719168	0.802908	-0.244160	2.502640	0.061040	-0.922483	-0.003845	0.371825	-1.000000	-1.000000	-1.000000	-1.000000	-1.000000	-1.000000	-1.000000	51.000000	0.000000	-1.000000	-1.000000	541319.000000	1775792937.032786
-13699.215000	-14486.490000	14494.410000	39912.255000	14698.260000	-27.450000	-28795.230000	-39058.965000	-2.962435	-1.233399	-0.864670	-0.451652	-6.017833	-17.227574	-2.194039	-3.643402	-0.244160	2.502640	0.061040	-0.922483	-0.003845	0.371825	-1.000000	-1.000000	-1.000000	-1.000000	-1.000000	-1.000000	-1.000000	51.000000	0.000000	-1.000000	-1.000000	541320.000000	1775792937.032806
-13703.895000	-14488.695000	14494.140000	39914.415000	14704.290000	-8.100000	-28792.260000	-39062.565000	-7.074769	-5.926511	-5.758487	-4.574357	-2.439984	1.953641	-1.921183	-6.280499	-0.244160	2.502640	0.061040	-0.922483	-0.003845	0.371825	-1.000000	-1.000000	-1.000000	-1.000000	-1.000000	-1.000000	-1.000000	51.000000	0.000000	-1.000000	-1.000000	541321.000000	1775792937.032816
-13714.155000	-14498.145000	14486.670000	39908.745000	14690.520000	-29.880000	-28799.010000	-39072.420000	-8.400835	-8.203728	-8.252748	-7.025790	1.652607	18.557724	-0.610733	-6.493877	-0.244160	2.502640	0.061040	-0.922483	-0.003845	0.371825	-1.000000	-1.000000	-1.000000	-1.000000	-1.000000	-1.000000	-1.000000	51.000000	0.000000	-1.000000	-1.000000	541322.000000	1775792937.033470
-13718.160000	-14503.770000	14480.145000	39899.340000	14669.685000	-54.315000	-28801.080000	-39074.265000	-7.246158	-7.844761	-7.697681	-6.571745	4.167616	26.268934	0.812769	-4.943143	-0.244160	2.502640	0.061040	-0.922483	-0.003845	0.371825	-1.000000	-1.000000	-1.000000	-1.000000	-1.000000	-1.000000	-1.000000	51.000000	0.000000	-1.000000	-1.000000	541323.000000	1775792937.033483
-13721.580000	-14502.690000	14480.685000	39897.765000	14672.385000	-71.235000	-28801.395000	-39077.190000	-4.395307	-5.403291	-4.844483	-3.921162	3.457150	21.521799	1.345006	-2.443146	-0.457800	2.899400	-0.640920	-0.922239	-0.007385	0.371459	-1.000000	-1.000000	-1.000000	-1.000000	-1.000000	-1.000000	-1.000000	51.000000	0.000000	-1.000000	-1.000000	541324.000000	1775792937.038006
-13719.780000	-14500.485000	14485.320000	39904.695000	14682.780000	-71.235000	-28801.215000	-39077.550000	-0.504282	-1.443626	-0.706928	-0.272357	1.260879	8.314547	1.091549	0.519731	-0.457800	2.899400	-0.640920	-0.922239	-0.007385	0.371459	-1.000000	-1.000000	-1.000000	-1.000000	-1.000000	-1.000000	-1.000000	51.000000	0.000000	-1.000000	-1.000000	541325.000000	1775792937.038024
-13707.855000	-14491.980000	14492.970000	39914.595000	14690.835000	-52.695000	-28790.505000	-39067.020000	3.852442	3.290998	3.871077	3.832570	1.111786	-3.895242	0.937961	3.567148	-0.457800	2.899400	-0.640920	-0.922239	-0.007385	0.371459	-1.000000	-1.000000	-1.000000	-1.000000	-1.000000	-1.000000	-1.000000	51.000000	0.000000	-1.000000	-1.000000	541326.000000	1775792937.045830
-13701.555000	-14483.970000	14499.540000	39920.940000	14712.210000	12.960000	-28783.845000	-39060.990000	7.948453	7.587145	7.773853	7.697916	4.188134	-6.578595	1.666021	6.348863	-0.457800	2.899400	-0.640920	-0.922239	-0.007385	0.371459	-1.000000	-1.000000	-1.000000	-1.000000	-1.000000	-1.000000	-1.000000	51.000000	0.000000	-1.000000	-1.000000	541327.000000	1775792937.045852
-13712.445000	-14496.390000	14485.995000	39904.785000	14702.895000	20.295000	-28797.435000	-39068.505000	10.170809	9.668753	9.275789	9.419525	8.147943	1.919595	2.716510	7.894938	-0.457800	2.899400	-0.640920	-0.922239	-0.007385	0.371459	-1.000000	-1.000000	-1.000000	-1.000000	-1.000000	-1.000000	-1.000000	51.000000	0.000000	-1.000000	-1.000000	541328.000000	1775792937.062268
-13704.435000	-14492.880000	14480.280000	39893.040000	14690.655000	-7.650000	-28794.195000	-39052.530000	8.636213	7.868289	6.731140	6.708822	8.710538	12.881588	2.259624	6.936167	-0.457800	2.899400	-0.640920	-0.922239	-0.007385	0.371459	-1.000000	-1.000000	-1.000000	-1.000000	-1.000000	-1.000000	-1.000000	51.000000	0.000000	-1.000000	-1.000000	541329.000000	1775792937.062293
-13673.835000	-14461.245000	14505.210000	39912.930000	14705.145000	-5.715000	-28774.665000	-39019.905000	4.234000	3.252122	1.177489	0.233715	3.700174	13.837033	0.147189	4.347492	-0.457800	2.899400	-0.640920	-0.922239	-0.007385	0.371459	-1.000000	-1.000000	-1.000000	-1.000000	-1.000000	-1.000000	-1.000000	51.000000	0.000000	-1.000000	-1.000000	541330.000000	1775792937.062322
-13686.030000	-14470.335000	14497.110000	39901.140000	14689.395000	-14.625000	-28777.815000	-39029.895000	0.238921	-0.580512	-3.421496	-5.621450	-4.123128	1.797547	-1.393004	2.351946	-0.457800	2.899400	-0.640920	-0.922239	-0.007385	0.371459	-1.000000	-1.000000	-1.000000	-1.000000	-1.000000	-1.000000	-1.000000	51.000000	0.000000	-1.000000	-1.000000	541331.000000	1775792937.062334
-13700.160000	-14481.450000	14486.805000	39890.295000	14681.880000	-28.080000	-28790.280000	-39046.590000	-2.641791	-2.537437	-4.983893	-7.772164	-10.459908	-14.934858	-1.605412	0.194050	-0.457800	2.899400	-0.640920	-0.922239	-0.007385	0.371459	-1.000000	-1.000000	-1.000000	-1.000000	-1.000000	-1.000000	-1.000000	51.000000	0.000000	-1.000000	-1.000000	541332.000000	1775792937.062368
-13691.115000	-14470.110000	14498.505000	39903.840000	14700.240000	-15.120000	-28787.040000	-39041.055000	-6.025168	-4.440542	-4.814038	-6.710524	-12.659697	-25.826433	-2.087558	-4.455559	-0.457800	2.899400	-0.640920	-0.922239	-0.007385	0.371459	-1.000000	-1.000000	-1.000000	-1.000000	-1.000000	-1.000000	-1.000000	51.000000	0.000000	-1.000000	-1.000000	541333.000000	1775792937.062380
-13680.090000	-14457.915000	14510.610000	39914.955000	14712.615000	11.565000	-28769.625000	-39028.185000	-8.902622	-6.133259	-3.629034	-3.265886	-9.205914	-24.408055	-2.978950	-9.935228	-1.190280	3.494540	-0.549360	-0.922849	-0.010254	0.371642	-1.000000	-1.000000	-1.000000	-1.000000	-1.000000	-1.000000	-1.000000	51.000000	0.000000	-1.000000	-1.000000	541334.000000	1775792937.062394
-13696.470000	-14478.345000	14490.585000	39895.560000	14693.805000	-3.780000	-28772.595000	-39039.120000	-8.747143	-5.990182	-1.384099	1.481637	-1.490364	-11.396203	-2.436515	-11.943316	-1.190280	3.494540	-0.549360	-0.922849	-0.010254	0.371642	-1.000000	-1.000000	-1.000000	-1.000000	-1.000000	-1.000000	-1.000000	51.000000	0.000000	-1.000000	-1.000000	541335.000000	1775792937.062405
-13693.005000	-14474.340000	14496.030000	39901.320000	14689.935000	-22.455000	-28774.170000	-39038.130000	-5.834122	-4.574898	0.341594	4.635657	5.215534	4.506529	-0.278403	-9.258996	-1.190280	3.494540	-0.549360	-0.922849	-0.010254	0.371642	-1.000000	-1.000000	-1.000000	-1.000000	-1.000000	-1.000000	-1.000000	51.000000	0.000000	-1.000000	-1.000000	541336.000000	1775792937.062418
-13694.580000	-14477.355000	14497.560000	39907.035000	14677.875000	-51.255000	-28788.885000	-39048.300000	-2.186007	-3.193858	0.391180	4.517563	6.590002	12.939079	1.225669	-4.248386	-1.190280	3.494540	-0.549360	-0.922849	-0.010254	0.371642	-1.000000	-1.000000	-1.000000	-1.000000	-1.000000	-1.000000	-1.000000	51.000000	0.000000	-1.000000	-1.000000	541337.000000	1775792937.062427
-13698.315000	-14483.295000	14497.380000	39909.735000	14674.275000	-56.880000	-28800.045000	-39062.205000	1.022944	-1.798184	-0.175975	2.638658	3.159502	10.611503	0.161386	0.140754	-1.190280	3.494540	-0.549360	-0.922849	-0.010254	0.371642	-1.000000	-1.000000	-1.000000	-1.000000	-1.000000	-1.000000	-1.000000	51.000000	0.000000	-1.000000	-1.000000	541338.000000	1775792937.066525
-13704.750000	-14489.730000	14492.385000	39904.965000	14675.805000	-52.695000	-28801.440000	-39068.010000	3.148106	-0.235819	-0.258202	0.841457	-1.251832	3.024196	-2.796168	2.271100	-1.190280	3.494540	-0.549360	-0.922849	-0.010254	0.371642	-1.000000	-1.000000	-1.000000	-1.000000	-1.000000	-1.000000	-1.000000	51.000000	0.000000	-1.000000	-1.000000	541339.000000	1775792937.066545
-13706.955000	-14488.965000	14498.370000	39918.060000	14696.010000	-32.175000	-28804.140000	-39074.670000	3.776141	1.235767	0.130636	-0.370726	-2.660024	-1.351767	-4.800834	2.594212	-1.190280	3.494540	-0.549360	-0.922849	-0.010254	0.371642	-1.000000	-1.000000	-1.000000	-1.000000	-1.000000	-1.000000	-1.000000	51.000000	0.000000	-1.000000	-1.000000	541340.000000	1775792937.069297
-13699.215000	-14484.555000	14501.430000	39923.910000	14705.280000	-11.025000	-28793.250000	-39066.390000	3.430860	2.730188	0.869518	-0.696148	0.569246	1.842785	-3.408306	2.930734	-1.190280	3.494540	-0.549360	-0.922849	-0.010254	0.371642	-1.000000	-1.000000	-1.000000	-1.000000	-1.000000	-1.000000	-1.000000	51.000000	0.000000	-1.000000	-1.000000	541341.000000	1775792937.069316
-13696.875000	-14483.655000	14499.450000	39917.565000	14692.005000	-34.110000	-28799.145000	-39066.615000	3.306236	4.441820	1.814527	-0.231254	5.893850	9.436870	1.242130	4.631308	-1.190280	3.494540	-0.549360	-0.922849	-0.010254	0.371642	-1.000000	-1.000000	-1.000000	-1.000000	-1.000000	-1.000000	-1.000000	51.000000	0.000000	-1.000000	-1.000000	541342.000000	1775792937.077573
-13699.530000	-14483.025000	14500.350000	39916.575000	14683.095000	-52.425000	-28797.750000	-39060.360000	3.707795	5.799089	2.291392	-0.218828	8.039984	13.139215	6.342817	7.230343	-1.190280	3.494540	-0.549360	-0.922849	-0.010254	0.371642	-1.000000	-1.000000	-1.000000	-1.000000	-1.000000	-1.000000	-1.000000	51.000000	0.000000	-1.000000	-1.000000	541343.000000	1775792937.077597
-13698.045000	-14482.350000	14501.880000	39920.760000	14684.220000	-50.130000	-28795.455000	-39059.415000	3.615639	5.766838	1.776891	-1.396325	4.340838	7.851079	8.768960	8.857019	-3.967600	2.395820	-2.319520	-0.929197	-0.008667	0.368590	-1.000000	-1.000000	-1.000000	-1.000000	-1.000000	-1.000000	-1.000000	51.000000	0.000000	-1.000000	-1.000000	541344.000000	1775792937.077625
-13698.315000	-14487.795000	14494.185000	39913.335000	14683.950000	-39.780000	-28791.495000	-39056.805000	2.237578	3.846795	0.431568	-2.895947	-2.428077	-2.583977	7.647108	7.927612	-3.967600	2.395820	-2.319520	-0.929197	-0.008667	0.368590	-1.000000	-1.000000	-1.000000	-1.000000	-1.000000	-1.000000	-1.000000	51.000000	0.000000	-1.000000	-1.000000	541345.000000	1775792937.077636
-13704.570000	-14493.960000	14490.135000	39912.750000	14687.100000	-23.445000	-28789.515000	-39062.880000	-0.152047	0.391388	-1.384200	-3.681542	-7.350457	-9.843706	4.233453	4.179011	-3.967600	2.395820	-2.319520	-0.929197	-0.008667	0.368590	-1.000000	-1.000000	-1.000000	-1.000000	-1.000000	-1.000000	-1.000000	51.000000	0.000000	-1.000000	-1.000000	541346.000000	1775792937.083101
-13715.145000	-14506.380000	14473.980000	39892.455000	14675.085000	6.705000	-28796.265000	-39072.555000	-2.923006	-3.627272	-3.334006	-3.703649	-7.972998	-8.961766	0.134948	-1.463406	-3.967600	2.395820	-2.319520	-0.929197	-0.008667	0.368590	-1.000000	-1.000000	-1.000000	-1.000000	-1.000000	-1.000000	-1.000000	51.000000	0.000000	-1.000000	-1.000000	541347.000000	1775792937.083123
-13704.255000	-14490.945000	14488.245000	39906.045000	14696.910000	11.160000	-28796.625000	-39064.770000	-5.110045	-6.500729	-4.571563	-3.205261	-5.005641	-1.457883	-3.641356	-7.015475	-3.967600	2.395820	-2.319520	-0.929197	-0.008667	0.368590	-1.000000	-1.000000	-1.000000	-1.000000	-1.000000	-1.000000	-1.000000	51.000000	0.000000	-1.000000	-1.000000	541348.000000	1775792937.086220
-13709.610000	-14489.820000	14491.170000	39911.715000	14701.950000	-15.300000	-28800.765000	-39070.395000	-5.231080	-6.115481	-3.497879	-1.396683	0.024606	5.730056	-6.301064	-9.872493	-3.967600	2.395820	-2.319520	-0.929197	-0.008667	0.368590	-1.000000	-1.000000	-1.000000	-1.000000	-1.000000	-1.000000	-1.000000	51.000000	0.000000	-1.000000	-1.000000	541349.000000	1775792937.086239
-13712.670000	-14492.970000	14490.585000	39911.850000	14698.845000	-22.185000	-28803.915000	-39074.355000	-2.964166	-2.275668	0.321954	2.341903	5.139314	5.472353	-7.110680	-8.851662	-3.967600	2.395820	-2.319520	-0.929197	-0.008667	0.368590	-1.000000	-1.000000	-1.000000	-1.000000	-1.000000	-1.000000	-1.000000	51.000000	0.000000	-1.000000	-1.000000	541350.000000	1775792937.091781
-13713.525000	-14496.570000	14487.210000	39908.385000	14690.070000	-21.420000	-28807.605000	-39076.875000	0.109638	2.217700	4.580039	6.237646	7.305399	-2.411471	-5.937125	-5.208482	-3.967600	2.395820	-2.319520	-0.929197	-0.008667	0.368590	-1.000000	-1.000000	-1.000000	-1.000000	-1.000000	-1.000000	-1.000000	51.000000	0.000000	-1.000000	-1.000000	541351.000000	1775792937.091802
-13703.715000	-14490.270000	14491.125000	39912.930000	14691.870000	-21.780000	-28795.770000	-39064.140000	2.538837	4.497057	6.431897	7.626495	4.870408	-10.999736	-3.096209	-0.733909	-3.967600	2.395820	-2.319520	-0.929197	-0.008667	0.368590	-1.000000	-1.000000	-1.000000	-1.000000	-1.000000	-1.000000	-1.000000	51.000000	0.000000	-1.000000	-1.000000	541352.000000	1775792937.171029
-13695.345000	-14483.070000	14494.725000	39913.470000	14689.260000	-39.870000	-28791.270000	-39053.655000	4.242873	4.313909	5.279202	5.841870	-0.340853	-13.929505	1.017293	3.780036	-3.967600	2.395820	-2.319520	-0.929197	-0.008667	0.368590	-1.000000	-1.000000	-1.000000	-1.000000	-1.000000	-1.000000	-1.000000	51.000000	0.000000	-1.000000	-1.000000	541353.000000	1775792937.171054
-13693.545000	-14481.990000	14496.750000	39915.360000	14683.455000	-50.940000	-28796.085000	-39055.275000	5.340255	3.067552	2.534023	2.267561	-4.915329	-10.639890	5.116339	7.501658	-3.509800	3.113040	-1.251320	-0.918882	-0.005615	0.366881	-1.000000	-1.000000	-1.000000	-1.000000	-1.000000	-1.000000	-1.000000	51.000000	0.000000	-1.000000	-1.000000	541354.000000	1775792937.171083
-13701.960000	-14486.355000	14494.995000	39915.135000	14688.450000	-22.230000	-28794.375000	-39062.340000	4.930788	1.502520	-0.287698	-1.310777	-6.624605	-3.655438	6.967568	8.484421	-3.509800	3.113040	-1.251320	-0.918882	-0.005615	0.366881	-1.000000	-1.000000	-1.000000	-1.000000	-1.000000	-1.000000	-1.000000	51.000000	0.000000	-1.000000	-1.000000	541355.000000	1775792937.171096
-13697.640000	-14481.990000	14500.530000	39921.030000	14697.090000	-18.810000	-28789.155000	-39057.390000	2.126875	-0.476754	-2.404424	-3.632357	-4.867275	5.316216	5.601490	5.467730	-3.509800	3.113040	-1.251320	-0.918882	-0.005615	0.366881	-1.000000	-1.000000	-1.000000	-1.000000	-1.000000	-1.000000	-1.000000	51.000000	0.000000	-1.000000	-1.000000	541356.000000	1775792937.171110
-13700.655000	-14490.765000	14489.370000	39908.295000	14688.855000	-33.840000	-28791.855000	-39058.830000	-2.101765	-2.622819	-3.601728	-4.376716	-0.661621	13.498181	2.280741	0.017379	-3.509800	3.113040	-1.251320	-0.918882	-0.005615	0.366881	-1.000000	-1.000000	-1.000000	-1.000000	-1.000000	-1.000000	-1.000000	51.000000	0.000000	-1.000000	-1.000000	541357.000000	1775792937.171121
-13701.600000	-14494.455000	14485.545000	39905.370000	14698.260000	-16.560000	-28792.350000	-39059.775000	-5.526090	-4.377063	-4.241451	-4.326962	3.462388	16.486740	-1.204209	-4.784255	-3.509800	3.113040	-1.251320	-0.918882	-0.005615	0.366881	-1.000000	-1.000000	-1.000000	-1.000000	-1.000000	-1.000000	-1.000000	51.000000	0.000000	-1.000000	-1.000000	541358.000000	1775792937.171196
-13706.595000	-14493.195000	14488.920000	39912.075000	14707.530000	-6.345000	-28789.470000	-39063.735000	-6.707676	-5.149595	-4.469751	-3.989594	5.627434	13.221200	-3.666725	-7.002978	-3.509800	3.113040	-1.251320	-0.918882	-0.005615	0.366881	-1.000000	-1.000000	-1.000000	-1.000000	-1.000000	-1.000000	-1.000000	51.000000	0.000000	-1.000000	-1.000000	541359.000000	1775792937.171212
-13719.555000	-14494.365000	14489.865000	39912.345000	14699.835000	-7.605000	-28794.465000	-39078.315000	-5.842872	-4.255856	-3.528672	-2.646334	5.618485	6.700564	-4.513235	-6.751567	-3.509800	3.113040	-1.251320	-0.918882	-0.005615	0.366881	-1.000000	-1.000000	-1.000000	-1.000000	-1.000000	-1.000000	-1.000000	51.000000	0.000000	-1.000000	-1.000000	541360.000000	1775792937.171232
-13714.065000	-14490.990000	14493.735000	39915.495000	14697.855000	-7.245000	-28795.545000	-39075.165000	-3.908350	-1.622688	-0.961509	0.044828	3.459619	-0.276079	-3.948334	-5.179672	-3.509800	3.113040	-1.251320	-0.918882	-0.005615	0.366881	-1.000000	-1.000000	-1.000000	-1.000000	-1.000000	-1.000000	-1.000000	51.000000	0.000000	-1.000000	-1.000000	541361.000000	1775792937.171244
-13713.930000	-14494.365000	14489.910000	39910.635000	14693.355000	-9.540000	-28797.570000	-39074.895000	-1.221803	1.723480	2.270102	2.894427	-0.453435	-6.323134	-2.658941	-2.745509	-3.509800	3.113040	-1.251320	-0.918882	-0.005615	0.366881	-1.000000	-1.000000	-1.000000	-1.000000	-1.000000	-1.000000	-1.000000	51.000000	0.000000	-1.000000	-1.000000	541362.000000	1775792937.171257
-13704.165000	-14487.660000	14493.510000	39912.345000	14694.750000	-16.200000	-28801.260000	-39067.605000	2.339114	4.322284	4.474954	4.264314	-4.416038	-10.432924	-1.181515	0.782183	-3.509800	3.113040	-1.251320	-0.918882	-0.005615	0.366881	-1.000000	-1.000000	-1.000000	-1.000000	-1.000000	-1.000000	-1.000000	51.000000	0.000000	-1.000000	-1.000000	541363.000000	1775792937.171268
-13701.465000	-14485.545000	14495.310000	39914.685000	14697.225000	-18.450000	-28800.405000	-39062.340000	6.085661	5.358341	4.743019	3.661030	-6.277930	-11.875675	0.185021	4.920121	-2.594200	3.692920	0.717220	-0.918577	-0.007507	0.366149	-1.000000	-1.000000	-1.000000	-1.000000	-1.000000	-1.000000	-1.000000	51.000000	0.000000	-1.000000	-1.000000	541364.000000	1775792937.171281
-13702.815000	-14485.545000	14494.995000	39914.685000	14695.785000	-22.050000	-28800.405000	-39064.140000	8.337379	4.810631	3.413887	1.958224	-5.095705	-10.380016	1.373893	8.051584	-2.594200	3.692920	0.717220	-0.918577	-0.007507	0.366149	-1.000000	-1.000000	-1.000000	-1.000000	-1.000000	-1.000000	-1.000000	51.000000	0.000000	-1.000000	-1.000000	541365.000000	1775792937.171291
-13697.325000	-14480.325000	14500.980000	39920.355000	14701.635000	-15.525000	-28794.465000	-39058.785000	7.607609	3.000671	1.393275	0.318039	-1.756156	-6.208298	2.477017	8.424081	-2.594200	3.692920	0.717220	-0.918577	-0.007507	0.366149	-1.000000	-1.000000	-1.000000	-1.000000	-1.000000	-1.000000	-1.000000	51.000000	0.000000	-1.000000	-1.000000	541366.000000	1775792937.171304
-13701.555000	-14483.700000	14497.245000	39917.430000	14696.145000	-24.525000	-28796.040000	-39061.800000	4.024799	0.550210	-0.460256	-0.642400	1.847743	-0.499733	3.400151	5.651289	-2.594200	3.692920	0.717220	-0.918577	-0.007507	0.366149	-1.000000	-1.000000	-1.000000	-1.000000	-1.000000	-1.000000	-1.000000	51.000000	0.000000	-1.000000	-1.000000	541367.000000	1775792937.171313
-13699.755000	-14481.630000	14498.685000	39917.880000	14687.910000	-48.330000	-28798.785000	-39061.620000	-0.822474	-1.833582	-1.782381	-1.070622	3.767973	4.183803	3.558285	0.964538	-2.594200	3.692920	0.717220	-0.918577	-0.007507	0.366149	-1.000000	-1.000000	-1.000000	-1.000000	-1.000000	-1.000000	-1.000000	51.000000	0.000000	-1.000000	-1.000000	541368.000000	1775792937.171326
-13697.595000	-14477.220000	14503.860000	39922.200000	14686.380000	-61.200000	-28799.595000	-39060.585000	-4.915529	-3.458956	-2.475481	-1.321828	3.030774	5.110642	2.355022	-3.670667	-2.594200	3.692920	0.717220	-0.918577	-0.007507	0.366149	-1.000000	-1.000000	-1.000000	-1.000000	-1.000000	-1.000000	-1.000000	51.000000	0.000000	-1.000000	-1.000000	541369.000000	1775792937.171336
-13701.240000	-14479.155000	14503.230000	39922.650000	14686.830000	-64.800000	-28803.330000	-39065.940000	-6.752230	-3.755428	-2.314038	-1.307911	0.663791	2.524176	0.065742	-6.541615	-2.594200	3.692920	0.717220	-0.918577	-0.007507	0.366149	-1.000000	-1.000000	-1.000000	-1.000000	-1.000000	-1.000000	-1.000000	51.000000	0.000000	-1.000000	-1.000000	541370.000000	1775792937.171348
-13707.450000	-14484.195000	14499.360000	39919.095000	14694.435000	-34.380000	-28806.930000	-39072.870000	-6.292374	-2.988737	-1.538938	-1.000058	-1.046598	0.443585	-2.303455	-7.153134	-2.594200	3.692920	0.717220	-0.918577	-0.007507	0.366149	-1.000000	-1.000000	-1.000000	-1.000000	-1.000000	-1.000000	-1.000000	51.000000	0.000000	-1.000000	-1.000000	541371.000000	1775792937.171358
-13708.530000	-14489.595000	14492.520000	39913.425000	14700.420000	9.495000	-28802.970000	-39072.510000	-4.585950	-2.155975	-1.039663	-0.900987	-0.550319	3.526889	-3.663375	-6.020582	-2.594200	3.692920	0.717220	-0.918577	-0.007507	0.366149	-1.000000	-1.000000	-1.000000	-1.000000	-1.000000	-1.000000	-1.000000	51.000000	0.000000	-1.000000	-1.000000	541372.000000	1775792937.171370
-13707.630000	-14487.795000	14494.770000	39914.730000	14697.000000	0.045000	-28801.980000	-39071.880000	-2.385305	-1.725851	-1.252388	-1.300068	1.604527	11.570339	-3.234609	-3.584214	-2.594200	3.692920	0.717220	-0.918577	-0.007507	0.366149	-1.000000	-1.000000	-1.000000	-1.000000	-1.000000	-1.000000	-1.000000	51.000000	0.000000	-1.000000	-1.000000	541373.000000	1775792937.171380
-13705.650000	-14483.655000	14500.485000	39921.525000	14698.710000	-7.740000	-28798.695000	-39070.665000	0.168301	-1.053100	-1.353251	-1.479485	3.252668	17.190686	-1.132987	-0.191044	-1.831200	3.570840	1.022420	-0.929685	-0.010742	0.366271	-1.000000	-1.000000	-1.000000	-1.000000	-1.000000	-1.000000	-1.000000	51.000000	0.000000	-1.000000	-1.000000	541374.000000	1775792937.171392
-13704.120000	-14483.520000	14500.215000	39920.940000	14694.570000	-12.960000	-28796.355000	-39068.955000	2.796100	0.572412	-0.270212	-0.482530	2.744977	12.910230	1.512599	3.292810	-1.831200	3.570840	1.022420	-0.929685	-0.010742	0.366271	-1.000000	-1.000000	-1.000000	-1.000000	-1.000000	-1.000000	-1.000000	51.000000	0.000000	-1.000000	-1.000000	541375.000000	1775792937.171402
-13701.915000	-14487.480000	14492.970000	39916.260000	14693.625000	-12.240000	-28789.380000	-39062.475000	4.767566	2.604546	1.567972	1.297443	0.265930	-0.312807	3.432974	5.769234	-1.831200	3.570840	1.022420	-0.929685	-0.010742	0.366271	-1.000000	-1.000000	-1.000000	-1.000000	-1.000000	-1.000000	-1.000000	51.000000	0.000000	-1.000000	-1.000000	541376.000000	1775792937.171414
-13712.130000	-14500.665000	14478.930000	39902.670000	14685.570000	-20.790000	-28791.585000	-39069.270000	5.148709	3.419400	2.311574	2.122496	-2.792568	-14.541934	3.904862	6.426471	-1.831200	3.570840	1.022420	-0.929685	-0.010742	0.366271	-1.000000	-1.000000	-1.000000	-1.000000	-1.000000	-1.000000	-1.000000	51.000000	0.000000	-1.000000	-1.000000	541377.000000	1775792937.171424
-13708.980000	-14497.245000	14482.980000	39906.585000	14688.675000	-19.440000	-28793.880000	-39067.020000	3.434029	2.076042	0.955646	0.953524	-4.891864	-22.231891	2.648144	4.860915	-1.831200	3.570840	1.022420	-0.929685	-0.010742	0.366271	-1.000000	-1.000000	-1.000000	-1.000000	-1.000000	-1.000000	-1.000000	51.000000	0.000000	-1.000000	-1.000000	541378.000000	1775792937.171436
-13702.455000	-14487.165000	14493.285000	39915.585000	14692.050000	-20.115000	-28797.435000	-39063.645000	0.619221	-0.056091	-0.872045	-0.823412	-4.827421	-20.563160	-0.089915	1.695559	-1.831200	3.570840	1.022420	-0.929685	-0.010742	0.366271	-1.000000	-1.000000	-1.000000	-1.000000	-1.000000	-1.000000	-1.000000	51.000000	0.000000	-1.000000	-1.000000	541379.000000	1775792937.171446
-13705.290000	-14488.290000	14492.880000	39913.515000	14687.100000	-25.920000	-28798.065000	-39067.290000	-1.364150	-0.621577	-0.693265	-0.921029	-2.448849	-11.635937	-3.185779	-1.474798	-1.831200	3.570840	1.022420	-0.929685	-0.010742	0.366271	-1.000000	-1.000000	-1.000000	-1.000000	-1.000000	-1.000000	-1.000000	51.000000	0.000000	-1.000000	-1.000000	541380.000000	1775792937.171458
-13706.055000	-14488.380000	14492.970000	39913.605000	14689.710000	-28.980000	-28797.570000	-39068.235000	-1.824056	0.668886	1.508578	0.797205	0.830962	-0.503950	-5.048182	-3.512714	-1.831200	3.570840	1.022420	-0.929685	-0.010742	0.366271	-1.000000	-1.000000	-1.000000	-1.000000	-1.000000	-1.000000	-1.000000	51.000000	0.000000	-1.000000	-1.000000	541381.000000	1775792937.171468
-13703.940000	-14486.580000	14494.680000	39915.495000	14691.060000	-28.485000	-28797.255000	-39067.065000	-1.479709	2.047799	3.511199	2.507533	3.291657	8.107810	-4.674839	-4.173040	-1.831200	3.570840	1.022420	-0.929685	-0.010742	0.366271	-1.000000	-1.000000	-1.000000	-1.000000	-1.000000	-1.000000	-1.000000	51.000000	0.000000	-1.000000	-1.000000	541382.000000	1775792937.171480
-13708.215000	-14489.730000	14491.890000	39913.695000	14690.790000	-23.535000	-28807.335000	-39073.455000	-1.058488	2.065199	3.563501	2.803474	4.185407	12.214487	-2.531222	-3.629628	-1.831200	3.570840	1.022420	-0.929685	-0.010742	0.366271	-1.000000	-1.000000	-1.000000	-1.000000	-1.000000	-1.000000	-1.000000	51.000000	0.000000	-1.000000	-1.000000	541383.000000	1775792937.171490
-13717.170000	-14495.895000	14487.075000	39908.250000	14682.375000	-24.705000	-28803.735000	-39080.745000	-1.052617	0.488403	1.496325	1.468208	3.400078	12.268549	-0.130216	-2.548165	-1.587040	3.143560	0.106820	-0.933164	-0.011230	0.365172	-1.000000	-1.000000	-1.000000	-1.000000	-1.000000	-1.000000	-1.000000	51.000000	0.000000	-1.000000	-1.000000	541384.000000	1775792937.171502
-13722.210000	-14499.540000	14482.485000	39903.615000	14676.075000	-36.450000	-28803.330000	-39086.685000	-1.748618	-2.021317	-1.714055	-0.951956	1.068184	9.275714	1.620431	-1.723525	-1.587040	3.143560	0.106820	-0.933164	-0.011230	0.365172	-1.000000	-1.000000	-1.000000	-1.000000	-1.000000	-1.000000	-1.000000	51.000000	0.000000	-1.000000	-1.000000	541385.000000	1775792937.171512
-13716.855000	-14497.290000	14482.935000	39902.220000	14678.685000	-36.450000	-28796.670000	-39078.585000	-2.484698	-4.081146	-4.462581	-3.328704	-1.859322	4.120403	2.915595	-1.024400	-1.587040	3.143560	0.106820	-0.933164	-0.011230	0.365172	-1.000000	-1.000000	-1.000000	-1.000000	-1.000000	-1.000000	-1.000000	51.000000	0.000000	-1.000000	-1.000000	541386.000000	1775792937.171524
-13698.090000	-14480.865000	14497.335000	39915.720000	14693.535000	-48.690000	-28809.585000	-39064.320000	-1.552265	-3.954312	-4.968730	-4.076429	-3.305632	-1.632733	3.731251	0.754650	-1.587040	3.143560	0.106820	-0.933164	-0.011230	0.365172	-1.000000	-1.000000	-1.000000	-1.000000	-1.000000	-1.000000	-1.000000	51.000000	0.000000	-1.000000	-1.000000	541387.000000	1775792937.171534
-13689.225000	-14472.045000	14506.830000	39926.070000	14703.390000	-42.480000	-28802.970000	-39055.860000	2.072596	-0.759061	-2.220242	-1.955832	-1.552493	-5.831532	3.342066	4.237884	-1.587040	3.143560	0.106820	-0.933164	-0.011230	0.365172	-1.000000	-1.000000	-1.000000	-1.000000	-1.000000	-1.000000	-1.000000	51.000000	0.000000	-1.000000	-1.000000	541388.000000	1775792937.171547
-13690.440000	-14471.370000	14508.360000	39927.870000	14704.695000	-27.135000	-28803.195000	-39057.435000	6.611155	3.965370	2.560988	2.309410	2.512156	-6.471100	1.760955	7.729643	-1.587040	3.143560	0.106820	-0.933164	-0.011230	0.365172	-1.000000	-1.000000	-1.000000	-1.000000	-1.000000	-1.000000	-1.000000	51.000000	0.000000	-1.000000	-1.000000	541389.000000	1775792937.171557
-13693.320000	-14472.270000	14507.865000	39926.790000	14704.335000	-10.755000	-28813.590000	-39062.565000	8.311364	6.779639	6.097080	5.754244	5.575389	-2.681086	-0.110076	8.135709	-1.587040	3.143560	0.106820	-0.933164	-0.011230	0.365172	-1.000000	-1.000000	-1.000000	-1.000000	-1.000000	-1.000000	-1.000000	51.000000	0.000000	-1.000000	-1.000000	541390.000000	1775792937.171569
-13699.710000	-14478.030000	14502.735000	39919.995000	14691.060000	-28.305000	-28807.290000	-39067.515000	5.029261	5.300591	5.705121	5.550535	4.725515	3.270696	-1.702292	3.989484	-1.587040	3.143560	0.106820	-0.933164	-0.011230	0.365172	-1.000000	-1.000000	-1.000000	-1.000000	-1.000000	-1.000000	-1.000000	51.000000	0.000000	-1.000000	-1.000000	541391.000000	1775792937.171579
-13706.640000	-14486.130000	14495.670000	39915.225000	14684.310000	-63.540000	-28803.105000	-39069.180000	-1.817117	0.088737	1.397363	1.418234	-0.248409	5.829231	-2.379532	-2.862926	-1.587040	3.143560	0.106820	-0.933164	-0.011230	0.365172	-1.000000	-1.000000	-1.000000	-1.000000	-1.000000	-1.000000	-1.000000	51.000000	0.000000	-1.000000	-1.000000	541392.000000	1775792937.178128
-13713.075000	-14492.880000	14485.950000	39905.685000	14677.785000	-77.130000	-28803.645000	-39070.800000	-8.575504	-6.068890	-4.486086	-4.337647	-6.615131	1.096047	-1.525403	-8.625204	-1.587040	3.143560	0.106820	-0.933164	-0.011230	0.365172	-1.000000	-1.000000	-1.000000	-1.000000	-1.000000	-1.000000	-1.000000	51.000000	0.000000	-1.000000	-1.000000	541393.000000	1775792937.178150
-13725.135000	-14502.105000	14479.875000	39903.120000	14682.105000	-45.585000	-28808.055000	-39086.640000	-11.986584	-10.044038	-8.934033	-8.576369	-10.358645	-7.192294	0.128923	-10.630151	-2.365300	2.182180	-0.259420	-0.924314	-0.011658	0.364684	-1.000000	-1.000000	-1.000000	-1.000000	-1.000000	-1.000000	-1.000000	51.000000	0.000000	-1.000000	-1.000000	541394.000000	1775792937.178172
-13719.195000	-14499.045000	14481.855000	39902.895000	14690.790000	1.305000	-28799.550000	-39081.870000	-10.722193	-9.916749	-9.657773	-9.053129	-8.752773	-9.474780	1.211294	-8.826064	-2.365300	2.182180	-0.259420	-0.924314	-0.011658	0.364684	-1.000000	-1.000000	-1.000000	-1.000000	-1.000000	-1.000000	-1.000000	51.000000	0.000000	-1.000000	-1.000000	541395.000000	1775792937.178182
-13694.850000	-14479.200000	14499.405000	39916.710000	14697.585000	-2.790000	-28780.020000	-39056.265000	-4.793318	-5.193599	-5.694246	-5.179907	-2.174620	-1.011283	1.750382	-3.895251	-2.365300	2.182180	-0.259420	-0.924314	-0.011658	0.364684	-1.000000	-1.000000	-1.000000	-1.000000	-1.000000	-1.000000	-1.000000	51.000000	0.000000	-1.000000	-1.000000	541396.000000	1775792937.183352
-13707.540000	-14493.195000	14485.680000	39904.290000	14684.625000	-11.070000	-28793.205000	-39067.065000	4.168920	2.655766	1.637495	1.444710	5.628096	11.185132	2.443084	3.312327	-2.365300	2.182180	-0.259420	-0.924314	-0.011658	0.364684	-1.000000	-1.000000	-1.000000	-1.000000	-1.000000	-1.000000	-1.000000	51.000000	0.000000	-1.000000	-1.000000	541397.000000	1775792937.183374
-13688.550000	-14471.460000	14508.495000	39928.410000	14710.005000	5.490000	-28813.455000	-39058.515000	11.952800	9.819887	8.628398	7.564350	10.231502	16.119726	1.956588	9.710707	-2.365300	2.182180	-0.259420	-0.924314	-0.011658	0.364684	-1.000000	-1.000000	-1.000000	-1.000000	-1.000000	-1.000000	-1.000000	51.000000	0.000000	-1.000000	-1.000000	541398.000000	1775792937.192769
-13687.470000	-14466.150000	14515.830000	39938.445000	14713.695000	9.855000	-28809.630000	-39059.190000	14.663309	13.056608	12.228517	10.959528	10.455053	10.727024	-1.440190	11.655441	-2.365300	2.182180	-0.259420	-0.924314	-0.011658	0.364684	-1.000000	-1.000000	-1.000000	-1.000000	-1.000000	-1.000000	-1.000000	51.000000	0.000000	-1.000000	-1.000000	541399.000000	1775792937.192795
-13700.430000	-14478.795000	14504.535000	39927.105000	14693.985000	-8.055000	-28810.530000	-39069.675000	11.353206	11.459152	11.486243	10.930077	7.322546	-0.284424	-5.878681	8.262859	-2.365300	2.182180	-0.259420	-0.924314	-0.011658	0.364684	-1.000000	-1.000000	-1.000000	-1.000000	-1.000000	-1.000000	-1.000000	51.000000	0.000000	-1.000000	-1.000000	541400.000000	1775792937.192822
-13700.115000	-14479.020000	14500.440000	39914.550000	14682.330000	-7.065000	-28805.040000	-39067.515000	3.343829	5.326509	6.196120	6.543364	1.099379	-11.221833	-7.400602	1.386272	-2.365300	2.182180	-0.259420	-0.924314	-0.011658	0.364684	-1.000000	-1.000000	-1.000000	-1.000000	-1.000000	-1.000000	-1.000000	51.000000	0.000000	-1.000000	-1.000000	541401.000000	1775792937.192833
-13701.330000	-14480.280000	14498.775000	39912.210000	14686.065000	-28.935000	-28810.350000	-39070.440000	-5.863426	-3.120653	-2.102081	-1.704219	-6.716591	-18.054421	-4.543621	-5.500641	-2.365300	2.182180	-0.259420	-0.924314	-0.011658	0.364684	-1.000000	-1.000000	-1.000000	-1.000000	-1.000000	-1.000000	-1.000000	51.000000	0.000000	-1.000000	-1.000000	541402.000000	1775792937.206157
-13695.435000	-14471.415000	14510.880000	39933.810000	14708.205000	-35.505000	-28811.880000	-39068.325000	-11.713282	-9.680340	-9.268307	-9.535663	-11.501422	-18.881953	0.547152	-9.072158	-2.365300	2.182180	-0.259420	-0.924314	-0.011658	0.364684	-1.000000	-1.000000	-1.000000	-1.000000	-1.000000	-1.000000	-1.000000	51.000000	0.000000	-1.000000	-1.000000	541403.000000	1775792937.206181
-13693.950000	-14473.755000	14506.470000	39928.725000	14697.900000	-38.340000	-28811.070000	-39065.040000	-11.673970	-11.177675	-11.451601	-11.782152	-9.553115	-13.924679	4.658072	-8.127644	-1.663340	1.571780	1.464960	-0.919492	-0.011169	0.365539	-1.000000	-1.000000	-1.000000	-1.000000	-1.000000	-1.000000	-1.000000	51.000000	0.000000	-1.000000	-1.000000	541404.000000	1775792937.206220
-13701.105000	-14482.710000	14496.030000	39915.585000	14680.485000	-49.320000	-28816.245000	-39070.890000	-6.906713	-8.034629	-8.616142	-8.021020	-3.074726	-4.907959	6.060368	-3.959652	-1.663340	1.571780	1.464960	-0.919492	-0.011169	0.365539	-1.000000	-1.000000	-1.000000	-1.000000	-1.000000	-1.000000	-1.000000	51.000000	0.000000	-1.000000	-1.000000	541405.000000	1775792937.206231
-13685.940000	-14465.790000	14511.510000	39927.510000	14693.670000	-12.330000	-28800.270000	-39057.615000	-0.750038	-3.058473	-3.704036	-2.378086	2.389680	5.697414	5.117095	0.899009	-1.663340	1.571780	1.464960	-0.919492	-0.011169	0.365539	-1.000000	-1.000000	-1.000000	-1.000000	-1.000000	-1.000000	-1.000000	51.000000	0.000000	-1.000000	-1.000000	541406.000000	1775792937.206247
-13690.800000	-14470.290000	14506.830000	39921.885000	14687.685000	-19.665000	-28798.155000	-39060.180000	4.184967	1.668579	1.034546	1.905550	4.488469	15.549743	3.545026	4.542832	-1.663340	1.571780	1.464960	-0.919492	-0.011169	0.365539	-1.000000	-1.000000	-1.000000	-1.000000	-1.000000	-1.000000	-1.000000	51.000000	0.000000	-1.000000	-1.000000	541407.000000	1775792937.206258
-13707.630000	-14486.670000	14493.780000	39913.830000	14683.320000	-38.070000	-28809.765000	-39075.165000	6.250986	4.648098	4.235648	3.921947	4.237779	20.987226	2.208246	5.723544	-1.663340	1.571780	1.464960	-0.919492	-0.011169	0.365539	-1.000000	-1.000000	-1.000000	-1.000000	-1.000000	-1.000000	-1.000000	51.000000	0.000000	-1.000000	-1.000000	541408.000000	1775792937.206270
-13721.265000	-14501.880000	14477.085000	39894.435000	14674.545000	-18.855000	-28812.960000	-39085.335000	4.226237	4.090672	4.269235	3.241465	2.652743	18.369332	0.131118	3.449718	-1.663340	1.571780	1.464960	-0.919492	-0.011169	0.365539	-1.000000	-1.000000	-1.000000	-1.000000	-1.000000	-1.000000	-1.000000	51.000000	0.000000	-1.000000	-1.000000	541409.000000	1775792937.206280
-13730.040000	-14514.300000	14462.010000	39876.030000	14663.025000	-17.100000	-28816.290000	-39092.805000	-0.919013	0.052348	0.877148	-0.004037	0.250884	9.348183	-3.071072	-1.404045	-1.663340	1.571780	1.464960	-0.919492	-0.011169	0.365539	-1.000000	-1.000000	-1.000000	-1.000000	-1.000000	-1.000000	-1.000000	51.000000	0.000000	-1.000000	-1.000000	541410.000000	1775792937.225124
-13704.525000	-14489.100000	14486.580000	39902.310000	14695.650000	-2.205000	-28801.395000	-39070.530000	-5.111076	-3.963774	-3.028605	-3.468914	-1.521974	-0.295661	-5.534011	-5.281810	-1.663340	1.571780	1.464960	-0.919492	-0.011169	0.365539	-1.000000	-1.000000	-1.000000	-1.000000	-1.000000	-1.000000	-1.000000	51.000000	0.000000	-1.000000	-1.000000	541411.000000	1775792937.225149
-13698.225000	-14479.155000	14499.180000	39918.870000	14716.125000	9.000000	-28795.095000	-39066.930000	-3.984883	-3.291921	-2.821705	-2.826133	0.025003	-6.200221	-4.863989	-4.454298	-1.663340	1.571780	1.464960	-0.919492	-0.011169	0.365539	-1.000000	-1.000000	-1.000000	-1.000000	-1.000000	-1.000000	-1.000000	51.000000	0.000000	-1.000000	-1.000000	541412.000000	1775792937.225175
-13697.055000	-14476.455000	14501.880000	39919.635000	14713.245000	6.210000	-28797.930000	-39066.615000	2.324175	2.777339	2.788215	3.355296	5.129171	-7.688660	-1.111168	0.880618	-1.663340	1.571780	1.464960	-0.919492	-0.011169	0.365539	-1.000000	-1.000000	-1.000000	-1.000000	-1.000000	-1.000000	-1.000000	51.000000	0.000000	-1.000000	-1.000000	541413.000000	1775792937.225186
-13701.150000	-14478.525000	14500.170000	39916.845000	14704.470000	-8.055000	-28804.005000	-39070.980000	8.594832	9.406777	9.355223	10.392543	9.010202	-7.275479	2.657128	6.250222	-0.457800	-0.869820	0.076300	-0.919675	-0.010681	0.365661	-1.000000	-1.000000	-1.000000	-1.000000	-1.000000	-1.000000	-1.000000	51.000000	0.000000	-1.000000	-1.000000	541414.000000	1775792937.225200
-13705.245000	-14481.090000	14499.180000	39917.070000	14697.585000	-21.195000	-28810.665000	-39075.750000	9.712326	11.072944	11.221956	12.172389	6.660282	-7.968003	3.367057	7.380180	-0.457800	-0.869820	0.076300	-0.919675	-0.010681	0.365661	-1.000000	-1.000000	-1.000000	-1.000000	-1.000000	-1.000000	-1.000000	51.000000	0.000000	-1.000000	-1.000000	541415.000000	1775792937.225210
-13698.135000	-14473.755000	14506.830000	39924.765000	14700.600000	-21.735000	-28808.280000	-39069.765000	5.132313	6.597532	6.929531	7.293974	-1.363423	-9.919379	0.888120	3.866188	-0.457800	-0.869820	0.076300	-0.919675	-0.010681	0.365661	-1.000000	-1.000000	-1.000000	-1.000000	-1.000000	-1.000000	-1.000000	51.000000	0.000000	-1.000000	-1.000000	541416.000000	1775792937.225223
-13706.010000	-14486.580000	14491.755000	39907.305000	14685.030000	-39.285000	-28806.255000	-39073.455000	-1.663341	-0.935816	-0.664814	-0.983776	-9.903130	-10.579162	-2.181168	-1.299423	-0.457800	-0.869820	0.076300	-0.919675	-0.010681	0.365661	-1.000000	-1.000000	-1.000000	-1.000000	-1.000000	-1.000000	-1.000000	51.000000	0.000000	-1.000000	-1.000000	541417.000000	1775792937.225233
-13708.620000	-14498.235000	14479.470000	39898.305000	14675.805000	-60.570000	-28801.980000	-39072.645000	-6.945783	-7.898837	-8.072947	-8.873128	-14.447715	-8.348984	-3.151334	-4.919801	-0.457800	-0.869820	0.076300	-0.919675	-0.010681	0.365661	-1.000000	-1.000000	-1.000000	-1.000000	-1.000000	-1.000000	-1.000000	51.000000	0.000000	-1.000000	-1.000000	541418.000000	1775792937.228446
-13707.405000	-14494.860000	14482.395000	39900.870000	14674.590000	-70.245000	-28803.645000	-39074.175000	-8.941258	-11.987561	-12.823101	-13.670105	-13.563910	-4.089506	-1.508406	-5.762387	-0.457800	-0.869820	0.076300	-0.919675	-0.010681	0.365661	-1.000000	-1.000000	-1.000000	-1.000000	-1.000000	-1.000000	-1.000000	51.000000	0.000000	-1.000000	-1.000000	541419.000000	1775792937.228467
-13706.730000	-14486.715000	14491.350000	39907.305000	14684.985000	-52.245000	-28811.745000	-39076.380000	-7.429335	-11.447809	-12.694271	-13.184560	-7.683869	1.429532	0.984098	-4.343337	-0.457800	-0.869820	0.076300	-0.919675	-0.010681	0.365661	-1.000000	-1.000000	-1.000000	-1.000000	-1.000000	-1.000000	-1.000000	51.000000	0.000000	-1.000000	-1.000000	541420.000000	1775792937.237544
-13707.360000	-14480.145000	14501.295000	39920.040000	14704.020000	-9.540000	-28822.005000	-39080.790000	-3.440428	-5.842068	-6.834526	-6.930119	1.725910	9.144815	1.960987	-2.015589	-0.457800	-0.869820	0.076300	-0.919675	-0.010681	0.365661	-1.000000	-1.000000	-1.000000	-1.000000	-1.000000	-1.000000	-1.000000	51.000000	0.000000	-1.000000	-1.000000	541421.000000	1775792937.237569
-13695.660000	-14470.650000	14509.620000	39926.205000	14702.265000	-9.045000	-28815.705000	-39072.465000	1.248731	2.514328	2.430158	2.558020	11.549588	18.614950	0.779547	0.138333	-0.457800	-0.869820	0.076300	-0.919675	-0.010681	0.365661	-1.000000	-1.000000	-1.000000	-1.000000	-1.000000	-1.000000	-1.000000	51.000000	0.000000	-1.000000	-1.000000	541422.000000	1775792937.310386
-13698.855000	-14477.130000	14499.810000	39915.045000	14693.085000	-4.905000	-28812.735000	-39069.315000	5.061582	9.429896	10.268732	10.431222	16.987629	24.652386	-0.727805	2.007930	-0.457800	-0.869820	0.076300	-0.919675	-0.010681	0.365661	-1.000000	-1.000000	-1.000000	-1.000000	-1.000000	-1.000000	-1.000000	51.000000	0.000000	-1.000000	-1.000000	541423.000000	1775792937.310412
-13705.020000	-14487.255000	14490.405000	39906.045000	14692.680000	4.320000	-28808.685000	-39071.790000	6.559083	11.114306	12.132803	12.137668	14.575407	21.397453	-0.493867	3.552766	-0.183120	0.091560	-0.076300	-0.923215	-0.008057	0.366820	-1.000000	-1.000000	-1.000000	-1.000000	-1.000000	-1.000000	-1.000000	51.000000	0.000000	-1.000000	-1.000000	541424.000000	1775792937.310439
-13700.700000	-14485.365000	14490.630000	39903.930000	14689.485000	-20.790000	-28804.770000	-39067.020000	4.946766	6.745048	7.168132	6.960239	5.727659	8.567648	1.488780	4.063077	-0.183120	0.091560	-0.076300	-0.923215	-0.008057	0.366820	-1.000000	-1.000000	-1.000000	-1.000000	-1.000000	-1.000000	-1.000000	51.000000	0.000000	-1.000000	-1.000000	541425.000000	1775792937.310451
-13698.180000	-14476.545000	14501.340000	39915.180000	14693.040000	-44.415000	-28807.605000	-39067.470000	1.443345	-0.305028	-0.617435	-0.917793	-4.262942	-9.184695	3.492811	3.127100	-0.183120	0.091560	-0.076300	-0.923215	-0.008057	0.366820	-1.000000	-1.000000	-1.000000	-1.000000	-1.000000	-1.000000	-1.000000	51.000000	0.000000	-1.000000	-1.000000	541426.000000	1775792937.310581
-13704.120000	-14479.155000	14501.295000	39917.115000	14684.670000	-53.640000	-28809.315000	-39073.365000	-1.720960	-5.229698	-5.761740	-5.903017	-10.518661	-25.123447	3.689696	1.071848	-0.183120	0.091560	-0.076300	-0.923215	-0.008057	0.366820	-1.000000	-1.000000	-1.000000	-1.000000	-1.000000	-1.000000	-1.000000	51.000000	0.000000	-1.000000	-1.000000	541427.000000	1775792937.310594
-13709.970000	-14489.370000	14490.135000	39907.620000	14676.075000	-41.985000	-28808.235000	-39075.120000	-3.560505	-6.206356	-6.269361	-5.909350	-11.594184	-31.877985	1.643492	-1.534912	-0.183120	0.091560	-0.076300	-0.923215	-0.008057	0.366820	-1.000000	-1.000000	-1.000000	-1.000000	-1.000000	-1.000000	-1.000000	51.000000	0.000000	-1.000000	-1.000000	541428.000000	1775792937.310610
-13716.045000	-14501.475000	14478.480000	39899.970000	14692.770000	-3.150000	-28808.595000	-39076.695000	-4.333528	-5.028900	-4.413517	-3.327126	-8.622374	-24.593450	-1.354006	-3.783667	-0.183120	0.091560	-0.076300	-0.923215	-0.008057	0.366820	-1.000000	-1.000000	-1.000000	-1.000000	-1.000000	-1.000000	-1.000000	51.000000	0.000000	-1.000000	-1.000000	541429.000000	1775792937.310620
-13712.940000	-14496.435000	14483.295000	39902.985000	14697.720000	19.395000	-28808.100000	-39076.470000	-4.132730	-3.719276	-2.843889	-1.205757	-2.877141	-4.959807	-3.539595	-4.568324	-0.183120	0.091560	-0.076300	-0.923215	-0.008057	0.366820	-1.000000	-1.000000	-1.000000	-1.000000	-1.000000	-1.000000	-1.000000	51.000000	0.000000	-1.000000	-1.000000	541430.000000	1775792937.310633
-13711.185000	-14490.405000	14488.560000	39905.460000	14696.100000	19.485000	-28809.540000	-39077.370000	-2.523227	-2.037680	-1.510362	-0.075549	3.780603	17.421010	-4.018738	-3.440941	-0.183120	0.091560	-0.076300	-0.923215	-0.008057	0.366820	-1.000000	-1.000000	-1.000000	-1.000000	-1.000000	-1.000000	-1.000000	51.000000	0.000000	-1.000000	-1.000000	541431.000000	1775792937.310643
-13707.135000	-14483.115000	14496.705000	39914.595000	14702.580000	6.435000	-28807.605000	-39075.840000	0.498544	1.110419	0.947513	1.190972	8.297725	29.755784	-2.976505	-0.983430	-0.183120	0.091560	-0.076300	-0.923215	-0.008057	0.366820	-1.000000	-1.000000	-1.000000	-1.000000	-1.000000	-1.000000	-1.000000	51.000000	0.000000	-1.000000	-1.000000	541432.000000	1775792937.310655
-13704.705000	-14483.295000	14497.695000	39918.555000	14704.650000	-1.620000	-28802.970000	-39071.925000	3.843897	5.105355	4.386629	3.139228	8.755732	25.180112	-1.056592	1.725035	-0.183120	0.091560	-0.076300	-0.923215	-0.008057	0.366820	-1.000000	-1.000000	-1.000000	-1.000000	-1.000000	-1.000000	-1.000000	51.000000	0.000000	-1.000000	-1.000000	541433.000000	1775792937.310665
-13706.100000	-14484.015000	14495.850000	39916.170000	14694.615000	-19.215000	-28803.465000	-39072.555000	5.870106	7.603565	6.785151	4.804856	5.488809	7.554517	1.043452	3.707706	0.656180	1.526000	0.457800	-0.928281	-0.007812	0.368285	-1.000000	-1.000000	-1.000000	-1.000000	-1.000000	-1.000000	-1.000000	51.000000	0.000000	-1.000000	-1.000000	541434.000000	1775792937.310678
-13717.485000	-14496.570000	14483.655000	39905.235000	14681.565000	-23.490000	-28805.670000	-39080.745000	5.240446	6.550773	5.996092	4.371507	-0.186768	-12.365596	2.437018	4.094860	0.656180	1.526000	0.457800	-0.928281	-0.007812	0.368285	-1.000000	-1.000000	-1.000000	-1.000000	-1.000000	-1.000000	-1.000000	51.000000	0.000000	-1.000000	-1.000000	541435.000000	1775792937.310688
-13719.105000	-14502.915000	14476.185000	39896.370000	14675.760000	-22.815000	-28800.675000	-39077.820000	1.816477	1.856173	1.626184	0.932859	-6.332665	-24.159985	2.488715	2.507305	0.656180	1.526000	0.457800	-0.928281	-0.007812	0.368285	-1.000000	-1.000000	-1.000000	-1.000000	-1.000000	-1.000000	-1.000000	51.000000	0.000000	-1.000000	-1.000000	541436.000000	1775792937.310700
-13721.490000	-14502.015000	14475.960000	39890.745000	14668.110000	-34.020000	-28814.535000	-39085.065000	-2.641009	-4.087750	-4.145125	-4.129850	-10.269476	-23.261601	1.288616	-0.202450	0.656180	1.526000	0.457800	-0.928281	-0.007812	0.368285	-1.000000	-1.000000	-1.000000	-1.000000	-1.000000	-1.000000	-1.000000	51.000000	0.000000	-1.000000	-1.000000	541437.000000	1775792937.310710
-13699.530000	-14478.165000	14500.395000	39916.170000	14694.255000	-12.510000	-28809.810000	-39066.570000	-5.079197	-7.271540	-7.325096	-7.310389	-9.448977	-12.144670	-0.677370	-2.212002	0.656180	1.526000	0.457800	-0.928281	-0.007812	0.368285	-1.000000	-1.000000	-1.000000	-1.000000	-1.000000	-1.000000	-1.000000	51.000000	0.000000	-1.000000	-1.000000	541438.000000	1775792937.310722
-13704.255000	-14483.970000	14495.805000	39913.785000	14691.645000	-12.555000	-28807.065000	-39067.695000	-3.502918	-5.130307	-5.152952	-5.482096	-3.136811	3.038312	-2.311767	-1.944119	0.656180	1.526000	0.457800	-0.928281	-0.007812	0.368285	-1.000000	-1.000000	-1.000000	-1.000000	-1.000000	-1.000000	-1.000000	51.000000	0.000000	-1.000000	-1.000000	541439.000000	1775792937.310732
-13700.970000	-14481.540000	14497.335000	39915.765000	14684.085000	-15.345000	-28818.765000	-39065.130000	0.661385	0.389369	0.594065	0.388188	5.445863	15.513910	-2.505900	0.266075	0.656180	1.526000	0.457800	-0.928281	-0.007812	0.368285	-1.000000	-1.000000	-1.000000	-1.000000	-1.000000	-1.000000	-1.000000	51.000000	0.000000	-1.000000	-1.000000	541440.000000	1775792937.310744
-13699.440000	-14483.340000	14494.185000	39913.515000	14685.570000	-18.450000	-28816.650000	-39062.115000	3.865813	4.657909	5.131891	5.708332	10.677587	19.986088	-1.582088	2.282343	0.656180	1.526000	0.457800	-0.928281	-0.007812	0.368285	-1.000000	-1.000000	-1.000000	-1.000000	-1.000000	-1.000000	-1.000000	51.000000	0.000000	-1.000000	-1.000000	541441.000000	1775792937.310754
-13699.710000	-14482.845000	14495.445000	39914.415000	14684.760000	-38.430000	-28810.305000	-39061.305000	4.036472	4.995533	5.502031	6.941484	9.844570	15.196039	-0.269464	2.503512	0.656180	1.526000	0.457800	-0.928281	-0.007812	0.368285	-1.000000	-1.000000	-1.000000	-1.000000	-1.000000	-1.000000	-1.000000	51.000000	0.000000	-1.000000	-1.000000	541442.000000	1775792937.310767
-13707.540000	-14487.705000	14491.620000	39908.205000	14671.755000	-47.655000	-28814.715000	-39069.135000	1.455575	2.006690	2.330711	4.008748	4.537802	4.206128	1.342123	0.801006	0.656180	1.526000	0.457800	-0.928281	-0.007812	0.368285	-1.000000	-1.000000	-1.000000	-1.000000	-1.000000	-1.000000	-1.000000	51.000000	0.000000	-1.000000	-1.000000	541443.000000	1775792937.310777
-13713.120000	-14493.915000	14486.265000	39907.395000	14680.890000	-39.555000	-28811.295000	-39072.645000	-2.442996	-2.138380	-1.952873	-0.850773	-1.901523	-7.046945	2.782219	-2.112329	0.747740	2.166920	-0.289940	-0.928281	-0.008545	0.369567	-1.000000	-1.000000	-1.000000	-1.000000	-1.000000	-1.000000	-1.000000	51.000000	0.000000	-1.000000	-1.000000	541444.000000	1775792937.310789
-13719.330000	-14499.180000	14479.560000	39896.550000	14676.075000	-48.960000	-28819.170000	-39080.160000	-5.833409	-5.380786	-5.207995	-5.042672	-6.147562	-12.648539	3.124419	-4.952229	0.747740	2.166920	-0.289940	-0.928281	-0.008545	0.369567	-1.000000	-1.000000	-1.000000	-1.000000	-1.000000	-1.000000	-1.000000	51.000000	0.000000	-1.000000	-1.000000	541445.000000	1775792937.310799
-13716.540000	-14498.010000	14480.415000	39895.110000	14684.535000	-30.015000	-28818.765000	-39077.415000	-6.970957	-6.343525	-6.247751	-6.962642	-6.415015	-10.519500	1.950727	-6.178557	0.747740	2.166920	-0.289940	-0.928281	-0.008545	0.369567	-1.000000	-1.000000	-1.000000	-1.000000	-1.000000	-1.000000	-1.000000	51.000000	0.000000	-1.000000	-1.000000	541446.000000	1775792937.310812
-13689.855000	-14471.055000	14507.415000	39923.955000	14710.140000	3.690000	-28801.035000	-39054.555000	-4.478929	-4.029506	-4.195971	-5.586247	-2.911817	-2.342717	0.206798	-4.348469	0.747740	2.166920	-0.289940	-0.928281	-0.008545	0.369567	-1.000000	-1.000000	-1.000000	-1.000000	-1.000000	-1.000000	-1.000000	51.000000	0.000000	-1.000000	-1.000000	541447.000000	1775792937.310822
-13695.165000	-14474.565000	14504.760000	39920.130000	14694.165000	-19.620000	-28805.445000	-39059.595000	1.538574	1.501835	1.059017	-0.505388	2.488684	7.681058	-0.370810	0.749217	0.747740	2.166920	-0.289940	-0.928281	-0.008545	0.369567	-1.000000	-1.000000	-1.000000	-1.000000	-1.000000	-1.000000	-1.000000	51.000000	0.000000	-1.000000	-1.000000	541448.000000	1775792937.310834
-13704.930000	-14486.355000	14491.080000	39904.785000	14675.895000	-45.855000	-28816.290000	-39068.010000	7.601377	7.122104	6.603041	5.514227	5.654700	12.506644	0.102607	6.207032	0.747740	2.166920	-0.289940	-0.928281	-0.008545	0.369567	-1.000000	-1.000000	-1.000000	-1.000000	-1.000000	-1.000000	-1.000000	51.000000	0.000000	-1.000000	-1.000000	541449.000000	1775792937.310844
-13704.750000	-14490.315000	14485.410000	39898.620000	14675.310000	-44.595000	-28816.110000	-39067.830000	9.020663	8.248434	7.798348	7.496295	3.199925	7.424604	-0.313837	7.850205	0.747740	2.166920	-0.289940	-0.928281	-0.008545	0.369567	-1.000000	-1.000000	-1.000000	-1.000000	-1.000000	-1.000000	-1.000000	51.000000	0.000000	-1.000000	-1.000000	541450.000000	1775792937.310856
-13702.680000	-14489.550000	14486.940000	39902.940000	14691.330000	-21.195000	-28801.665000	-39062.520000	5.041376	3.950388	3.562036	4.003323	-2.617792	-3.168847	-1.801331	4.892608	0.747740	2.166920	-0.289940	-0.928281	-0.008545	0.369567	-1.000000	-1.000000	-1.000000	-1.000000	-1.000000	-1.000000	-1.000000	51.000000	0.000000	-1.000000	-1.000000	541451.000000	1775792937.310866
-13711.680000	-14494.185000	14485.185000	39906.180000	14701.095000	-11.205000	-28805.985000	-39071.565000	-1.002530	-2.248762	-2.460993	-1.301642	-5.852827	-9.725904	-2.378515	0.121557	0.747740	2.166920	-0.289940	-0.928281	-0.008545	0.369567	-1.000000	-1.000000	-1.000000	-1.000000	-1.000000	-1.000000	-1.000000	51.000000	0.000000	-1.000000	-1.000000	541452.000000	1775792937.310879
-13704.390000	-14484.015000	14496.435000	39918.105000	14713.020000	2.835000	-28810.305000	-39069.450000	-5.515108	-6.163011	-5.855896	-3.960544	-3.462829	-7.603790	-1.387966	-3.671514	0.747740	2.166920	-0.289940	-0.928281	-0.008545	0.369567	-1.000000	-1.000000	-1.000000	-1.000000	-1.000000	-1.000000	-1.000000	51.000000	0.000000	-1.000000	-1.000000	541453.000000	1775792937.310888
-13708.215000	-14487.390000	14491.530000	39911.085000	14699.970000	11.070000	-28812.015000	-39072.150000	-6.617675	-5.854003	-4.881388	-2.685809	1.959373	-0.034585	-0.290918	-5.215935	3.158820	2.960440	-2.212700	-0.923093	-0.009827	0.371215	-1.000000	-1.000000	-1.000000	-1.000000	-1.000000	-1.000000	-1.000000	51.000000	0.000000	-1.000000	-1.000000	541454.000000	1775792937.310901
-13701.690000	-14481.090000	14496.660000	39914.370000	14697.315000	5.805000	-28806.795000	-39064.995000	-4.408728	-2.311684	-1.125088	0.296812	5.169476	6.441448	-0.032441	-4.280228	3.158820	2.960440	-2.212700	-0.923093	-0.009827	0.371215	-1.000000	-1.000000	-1.000000	-1.000000	-1.000000	-1.000000	-1.000000	51.000000	0.000000	-1.000000	-1.000000	541455.000000	1775792937.310911
-13702.320000	-14481.720000	14496.435000	39913.560000	14698.080000	-0.270000	-28806.795000	-39065.445000	-0.536078	1.818999	2.467201	2.113753	3.523708	7.037385	-0.035035	-1.479110	3.158820	2.960440	-2.212700	-0.923093	-0.009827	0.371215	-1.000000	-1.000000	-1.000000	-1.000000	-1.000000	-1.000000	-1.000000	51.000000	0.000000	-1.000000	-1.000000	541456.000000	1775792937.310923
-13707.225000	-14488.560000	14490.180000	39908.835000	14690.385000	-14.265000	-28811.115000	-39069.765000	2.792357	4.120746	3.865119	1.717768	-1.092584	1.353617	0.253363	1.629201	3.158820	2.960440	-2.212700	-0.923093	-0.009827	0.371215	-1.000000	-1.000000	-1.000000	-1.000000	-1.000000	-1.000000	-1.000000	51.000000	0.000000	-1.000000	-1.000000	541457.000000	1775792937.310934
-13711.005000	-14492.475000	14486.220000	39903.435000	14671.800000	-37.575000	-28819.305000	-39074.850000	3.823054	3.433513	2.546819	-0.344188	-5.495738	-7.246239	0.349290	3.148178	3.158820	2.960440	-2.212700	-0.923093	-0.009827	0.371215	-1.000000	-1.000000	-1.000000	-1.000000	-1.000000	-1.000000	-1.000000	51.000000	0.000000	-1.000000	-1.000000	541458.000000	1775792937.310947
-13707.720000	-14486.940000	14491.305000	39906.855000	14672.520000	-49.635000	-28822.005000	-39073.950000	2.455406	0.628202	-0.333038	-2.686482	-7.854347	-14.247295	-0.348351	2.380601	3.158820	2.960440	-2.212700	-0.923093	-0.009827	0.371215	-1.000000	-1.000000	-1.000000	-1.000000	-1.000000	-1.000000	-1.000000	51.000000	0.000000	-1.000000	-1.000000	541459.000000	1775792937.310957
-13700.790000	-14480.640000	14497.020000	39913.560000	14686.155000	-47.880000	-28814.130000	-39066.840000	0.445364	-1.763314	-2.408092	-3.504581	-6.800346	-15.705098	-1.216702	0.596135	3.158820	2.960440	-2.212700	-0.923093	-0.009827	0.371215	-1.000000	-1.000000	-1.000000	-1.000000	-1.000000	-1.000000	-1.000000	51.000000	0.000000	-1.000000	-1.000000	541460.000000	1775792937.310970
-13699.305000	-14478.705000	14498.685000	39911.400000	14685.975000	-33.840000	-28806.435000	-39066.255000	-0.341887	-1.855152	-2.101966	-1.916108	-1.632189	-9.502715	-0.713828	-0.313874	3.158820	2.960440	-2.212700	-0.923093	-0.009827	0.371215	-1.000000	-1.000000	-1.000000	-1.000000	-1.000000	-1.000000	-1.000000	51.000000	0.000000	-1.000000	-1.000000	541461.000000	1775792937.310980
-13703.940000	-14483.205000	14494.590000	39907.710000	14694.660000	-4.860000	-28803.420000	-39066.570000	0.157156	-0.206695	-0.147387	0.853459	5.623198	3.193155	1.646012	0.131390	3.158820	2.960440	-2.212700	-0.923093	-0.009827	0.371215	-1.000000	-1.000000	-1.000000	-1.000000	-1.000000	-1.000000	-1.000000	51.000000	0.000000	-1.000000	-1.000000	541462.000000	1775792937.313785
-13699.305000	-14482.215000	14493.465000	39907.980000	14710.995000	32.265000	-28797.480000	-39058.290000	0.615148	1.137132	1.371037	2.643488	11.313290	17.984844	4.359028	1.014764	3.158820	2.960440	-2.212700	-0.923093	-0.009827	0.371215	-1.000000	-1.000000	-1.000000	-1.000000	-1.000000	-1.000000	-1.000000	51.000000	0.000000	-1.000000	-1.000000	541463.000000	1775792937.313800
-13702.815000	-14483.565000	14495.895000	39912.030000	14703.930000	20.295000	-28801.125000	-39064.860000	0.241457	0.989646	1.300118	2.639489	12.892079	28.206160	5.305744	1.414271	3.998120	2.639980	-0.946120	-0.917905	-0.010071	0.370360	-1.000000	-1.000000	-1.000000	-1.000000	-1.000000	-1.000000	-1.000000	51.000000	0.000000	-1.000000	-1.000000	541464.000000	1775792937.330676
-13699.620000	-14478.165000	14501.655000	39917.565000	14700.465000	8.640000	-28801.440000	-39064.185000	-0.670771	-0.116455	0.333005	1.757154	9.310826	26.861372	3.428650	0.778779	3.998120	2.639980	-0.946120	-0.917905	-0.010071	0.370360	-1.000000	-1.000000	-1.000000	-1.000000	-1.000000	-1.000000	-1.000000	51.000000	0.000000	-1.000000	-1.000000	541465.000000	1775792937.330701
-13698.990000	-14478.570000	14499.945000	39914.325000	14691.195000	-2.205000	-28801.755000	-39063.060000	-1.413749	-0.946375	-0.277493	1.039856	1.380063	12.033513	-0.520184	-0.788853	3.998120	2.639980	-0.946120	-0.917905	-0.010071	0.370360	-1.000000	-1.000000	-1.000000	-1.000000	-1.000000	-1.000000	-1.000000	51.000000	0.000000	-1.000000	-1.000000	541466.000000	1775792937.330730
-13708.395000	-14487.255000	14492.745000	39910.455000	14692.905000	-8.280000	-28808.595000	-39073.410000	-1.652029	-1.087279	-0.402711	0.388938	-7.558269	-9.437288	-4.545958	-2.464592	3.998120	2.639980	-0.946120	-0.917905	-0.010071	0.370360	-1.000000	-1.000000	-1.000000	-1.000000	-1.000000	-1.000000	-1.000000	51.000000	0.000000	-1.000000	-1.000000	541467.000000	1775792937.330742
-13706.595000	-14484.105000	14498.505000	39919.005000	14705.370000	-0.585000	-28805.805000	-39071.880000	-1.703188	-1.113736	-0.704777	-0.592877	-12.906865	-26.179985	-6.839017	-3.563087	3.998120	2.639980	-0.946120	-0.917905	-0.010071	0.370360	-1.000000	-1.000000	-1.000000	-1.000000	-1.000000	-1.000000	-1.000000	51.000000	0.000000	-1.000000	-1.000000	541468.000000	1775792937.330757
-13705.020000	-14480.415000	14502.780000	39921.930000	14701.500000	-9.720000	-28808.370000	-39071.970000	-1.587055	-1.113597	-1.005150	-1.316991	-11.862127	-30.239512	-6.507327	-3.562399	3.998120	2.639980	-0.946120	-0.917905	-0.010071	0.370360	-1.000000	-1.000000	-1.000000	-1.000000	-1.000000	-1.000000	-1.000000	51.000000	0.000000	-1.000000	-1.000000	541469.000000	1775792937.330767
-13701.600000	-14479.515000	14500.305000	39914.730000	14696.955000	-8.370000	-28807.245000	-39069.720000	-0.719888	-0.459174	-0.599720	-1.228489	-5.956215	-21.719494	-3.803304	-2.029114	3.998120	2.639980	-0.946120	-0.917905	-0.010071	0.370360	-1.000000	-1.000000	-1.000000	-1.000000	-1.000000	-1.000000	-1.000000	51.000000	0.000000	-1.000000	-1.000000	541470.000000	1775792937.330781
-13706.280000	-14486.760000	14491.935000	39906.945000	14691.465000	-8.190000	-28805.760000	-39070.395000	0.881893	0.696630	0.111768	-1.115144	0.375327	-6.856078	0.000374	0.620463	3.998120	2.639980	-0.946120	-0.917905	-0.010071	0.370360	-1.000000	-1.000000	-1.000000	-1.000000	-1.000000	-1.000000	-1.000000	51.000000	0.000000	-1.000000	-1.000000	541471.000000	1775792937.330790
-13701.600000	-14481.315000	14498.730000	39915.405000	14689.620000	-20.160000	-28808.055000	-39068.100000	2.275605	1.372397	0.182578	-1.658505	3.864936	6.980502	3.332138	3.139977	3.998120	2.639980	-0.946120	-0.917905	-0.010071	0.370360	-1.000000	-1.000000	-1.000000	-1.000000	-1.000000	-1.000000	-1.000000	51.000000	0.000000	-1.000000	-1.000000	541472.000000	1775792937.335724
-13705.290000	-14484.465000	14495.445000	39910.500000	14675.355000	-53.370000	-28812.645000	-39072.915000	2.665036	1.216715	-0.225075	-2.008247	4.031052	14.088894	4.888994	4.304544	3.998120	2.639980	-0.946120	-0.917905	-0.010071	0.370360	-1.000000	-1.000000	-1.000000	-1.000000	-1.000000	-1.000000	-1.000000	51.000000	0.000000	-1.000000	-1.000000	541473.000000	1775792937.335744
-13702.365000	-14486.265000	14492.205000	39903.750000	14668.470000	-83.970000	-28810.035000	-39067.650000	1.997720	0.611980	-0.413396	-1.404495	1.990091	12.012060	4.256835	3.668704	0.763000	2.151660	-0.442540	-0.919614	-0.005554	0.368102	-1.000000	-1.000000	-1.000000	-1.000000	-1.000000	-1.000000	-1.000000	51.000000	0.000000	-1.000000	-1.000000	541474.000000	1775792937.336322
-13701.600000	-14484.420000	14493.780000	39905.595000	14676.840000	-80.280000	-28809.990000	-39067.515000	0.786102	-0.068865	-0.289790	-0.356685	-0.262160	3.749409	2.342519	1.901628	0.763000	2.151660	-0.442540	-0.919614	-0.005554	0.368102	-1.000000	-1.000000	-1.000000	-1.000000	-1.000000	-1.000000	-1.000000	51.000000	0.000000	-1.000000	-1.000000	541475.000000	1775792937.336334
-13702.725000	-14477.355000	14503.680000	39918.555000	14699.970000	-36.810000	-28812.915000	-39072.555000	-0.321821	-0.329737	0.233335	0.882780	-0.059854	-2.360520	0.467581	0.010530	0.763000	2.151660	-0.442540	-0.919614	-0.005554	0.368102	-1.000000	-1.000000	-1.000000	-1.000000	-1.000000	-1.000000	-1.000000	51.000000	0.000000	-1.000000	-1.000000	541476.000000	1775792937.341594
-13712.445000	-14487.435000	14495.130000	39914.055000	14709.645000	24.255000	-28815.030000	-39079.395000	-1.213478	0.059905	1.266070	2.627975	3.839390	1.699123	-0.803134	-1.707059	0.763000	2.151660	-0.442540	-0.919614	-0.005554	0.368102	-1.000000	-1.000000	-1.000000	-1.000000	-1.000000	-1.000000	-1.000000	51.000000	0.000000	-1.000000	-1.000000	541477.000000	1775792937.341616
-13721.175000	-14500.755000	14482.755000	39900.645000	14690.025000	17.010000	-28821.330000	-39085.605000	-2.323803	0.105783	1.751405	3.868699	8.529713	14.908680	-1.601560	-3.307583	0.763000	2.151660	-0.442540	-0.919614	-0.005554	0.368102	-1.000000	-1.000000	-1.000000	-1.000000	-1.000000	-1.000000	-1.000000	51.000000	0.000000	-1.000000	-1.000000	541478.000000	1775792937.346698
-13723.830000	-14510.520000	14471.415000	39889.260000	14670.360000	-15.030000	-28823.085000	-39085.290000	-3.595693	-1.393797	0.224764	2.599223	8.401935	24.791351	-2.114042	-4.291071	0.763000	2.151660	-0.442540	-0.919614	-0.005554	0.368102	-1.000000	-1.000000	-1.000000	-1.000000	-1.000000	-1.000000	-1.000000	51.000000	0.000000	-1.000000	-1.000000	541479.000000	1775792937.346723
-13720.770000	-14506.830000	14473.215000	39888.630000	14666.310000	-25.605000	-28816.245000	-39081.195000	-3.872844	-3.633434	-2.759074	-1.173799	1.292107	18.759689	-2.031382	-3.653773	0.763000	2.151660	-0.442540	-0.919614	-0.005554	0.368102	-1.000000	-1.000000	-1.000000	-1.000000	-1.000000	-1.000000	-1.000000	51.000000	0.000000	-1.000000	-1.000000	541480.000000	1775792937.363536
-13704.840000	-14485.005000	14494.860000	39908.745000	14689.035000	-11.070000	-28802.745000	-39067.740000	-1.743558	-3.728172	-4.147689	-4.259989	-7.831674	-1.627903	-0.541988	-0.771016	0.763000	2.151660	-0.442540	-0.919614	-0.005554	0.368102	-1.000000	-1.000000	-1.000000	-1.000000	-1.000000	-1.000000	-1.000000	51.000000	0.000000	-1.000000	-1.000000	541481.000000	1775792937.363558
-13701.645000	-14479.695000	14501.385000	39916.845000	14704.605000	10.935000	-28795.095000	-39065.805000	2.818355	0.322077	-1.258521	-3.135961	-11.163508	-21.829788	2.526890	3.619810	0.763000	2.151660	-0.442540	-0.919614	-0.005554	0.368102	-1.000000	-1.000000	-1.000000	-1.000000	-1.000000	-1.000000	-1.000000	51.000000	0.000000	-1.000000	-1.000000	541482.000000	1775792937.363582
-13702.275000	-14483.070000	14497.695000	39911.355000	14692.905000	-3.060000	-28802.115000	-39069.945000	7.415779	6.425026	4.515984	1.778442	-6.300738	-29.082378	5.428564	7.066765	0.763000	2.151660	-0.442540	-0.919614	-0.005554	0.368102	-1.000000	-1.000000	-1.000000	-1.000000	-1.000000	-1.000000	-1.000000	51.000000	0.000000	-1.000000	-1.000000	541483.000000	1775792937.363592
-13702.455000	-14485.095000	14496.255000	39910.230000	14689.530000	-27.180000	-28807.065000	-39069.180000	8.729977	9.668955	8.371947	6.025582	1.418949	-23.107439	5.358301	6.986677	-4.898460	2.243220	0.701960	-0.924070	-0.001221	0.367492	-1.000000	-1.000000	-1.000000	-1.000000	-1.000000	-1.000000	-1.000000	51.000000	0.000000	-1.000000	-1.000000	541484.000000	1775792937.363604
-13700.700000	-14485.050000	14493.870000	39908.565000	14692.320000	-24.705000	-28802.115000	-39063.240000	5.623329	7.296520	7.033553	5.939442	5.541741	-12.087267	1.532185	3.314792	-4.898460	2.243220	0.701960	-0.924070	-0.001221	0.367492	-1.000000	-1.000000	-1.000000	-1.000000	-1.000000	-1.000000	-1.000000	51.000000	0.000000	-1.000000	-1.000000	541485.000000	1775792937.363614
-13695.840000	-14475.465000	14503.860000	39919.320000	14702.535000	-16.335000	-28804.905000	-39060.270000	0.087602	1.159648	1.687308	2.073455	4.805539	-2.027121	-3.568786	-1.366015	-4.898460	2.243220	0.701960	-0.924070	-0.001221	0.367492	-1.000000	-1.000000	-1.000000	-1.000000	-1.000000	-1.000000	-1.000000	51.000000	0.000000	-1.000000	-1.000000	541486.000000	1775792937.363625
-13695.210000	-14474.565000	14505.300000	39920.175000	14697.990000	-35.460000	-28820.610000	-39062.070000	-4.707519	-4.529728	-3.725732	-2.212040	1.941960	5.719033	-7.071332	-4.506693	-4.898460	2.243220	0.701960	-0.924070	-0.001221	0.367492	-1.000000	-1.000000	-1.000000	-1.000000	-1.000000	-1.000000	-1.000000	51.000000	0.000000	-1.000000	-1.000000	541487.000000	1775792937.363634
-13693.140000	-14478.255000	14500.845000	39915.180000	14689.620000	-37.980000	-28808.955000	-39057.525000	-6.804003	-7.098296	-6.357184	-4.478431	-0.842521	10.318895	-7.909499	-5.356872	-4.898460	2.243220	0.701960	-0.924070	-0.001221	0.367492	-1.000000	-1.000000	-1.000000	-1.000000	-1.000000	-1.000000	-1.000000	51.000000	0.000000	-1.000000	-1.000000	541488.000000	1775792937.374024
-13696.560000	-14479.020000	14500.530000	39916.440000	14700.330000	-15.390000	-28803.240000	-39059.685000	-6.242571	-6.799767	-6.238462	-4.778190	-2.916306	11.525190	-5.671776	-4.435674	-4.898460	2.243220	0.701960	-0.924070	-0.001221	0.367492	-1.000000	-1.000000	-1.000000	-1.000000	-1.000000	-1.000000	-1.000000	51.000000	0.000000	-1.000000	-1.000000	541489.000000	1775792937.374050
-13715.640000	-14498.145000	14482.980000	39901.050000	14696.685000	19.710000	-28804.455000	-39075.120000	-4.600678	-5.369945	-4.976031	-4.276536	-3.604988	11.806468	-0.728250	-2.970025	-4.898460	2.243220	0.701960	-0.924070	-0.001221	0.367492	-1.000000	-1.000000	-1.000000	-1.000000	-1.000000	-1.000000	-1.000000	51.000000	0.000000	-1.000000	-1.000000	541490.000000	1775792937.374079
-13713.165000	-14496.660000	14485.365000	39901.095000	14692.185000	27.405000	-28804.275000	-39072.915000	-3.546474	-4.240381	-3.898570	-3.834632	-2.678379	13.266563	4.489930	-2.241083	-4.898460	2.243220	0.701960	-0.924070	-0.001221	0.367492	-1.000000	-1.000000	-1.000000	-1.000000	-1.000000	-1.000000	-1.000000	51.000000	0.000000	-1.000000	-1.000000	541491.000000	1775792937.374090
-13716.090000	-14497.245000	14483.835000	39896.820000	14676.750000	12.420000	-28816.470000	-39076.920000	-2.884198	-3.166978	-2.814072	-3.266865	-1.419839	13.359787	6.918393	-2.081183	-4.898460	2.243220	0.701960	-0.924070	-0.001221	0.367492	-1.000000	-1.000000	-1.000000	-1.000000	-1.000000	-1.000000	-1.000000	51.000000	0.000000	-1.000000	-1.000000	541492.000000	1775792937.476080
-13724.865000	-14504.265000	14475.645000	39887.055000	14658.525000	-27.855000	-28827.225000	-39084.885000	-1.320888	-0.999811	-0.812065	-1.877602	-1.472060	6.849271	5.128489	-1.367409	-4.898460	2.243220	0.701960	-0.924070	-0.001221	0.367492	-1.000000	-1.000000	-1.000000	-1.000000	-1.000000	-1.000000	-1.000000	51.000000	0.000000	-1.000000	-1.000000	541493.000000	1775792937.476106
-13712.895000	-14493.825000	14488.020000	39902.850000	14671.305000	-51.210000	-28820.835000	-39078.720000	1.427231	2.312908	2.076609	0.532552	-2.612726	-7.511952	0.515804	0.282723	-7.294280	1.831200	1.113980	-0.926389	-0.003540	0.367797	-1.000000	-1.000000	-1.000000	-1.000000	-1.000000	-1.000000	-1.000000	51.000000	0.000000	-1.000000	-1.000000	541494.000000	1775792937.476135
-13690.845000	-14470.605000	14508.720000	39923.010000	14705.145000	-15.615000	-28806.120000	-39060.630000	5.187282	6.232491	5.559030	4.230211	-1.685758	-22.416652	-3.042816	2.941362	-7.294280	1.831200	1.113980	-0.926389	-0.003540	0.367797	-1.000000	-1.000000	-1.000000	-1.000000	-1.000000	-1.000000	-1.000000	51.000000	0.000000	-1.000000	-1.000000	541495.000000	1775792937.476147
-13687.245000	-14468.985000	14506.605000	39915.945000	14712.390000	33.435000	-28789.470000	-39050.685000	9.458068	10.079874	9.114786	8.670225	3.970580	-25.578394	-2.194131	6.604946	-7.294280	1.831200	1.113980	-0.926389	-0.003540	0.367797	-1.000000	-1.000000	-1.000000	-1.000000	-1.000000	-1.000000	-1.000000	51.000000	0.000000	-1.000000	-1.000000	541496.000000	1775792937.476161
-13691.970000	-14474.835000	14503.275000	39918.960000	14722.245000	21.195000	-28804.905000	-39055.455000	11.771700	11.568586	10.448085	10.907379	11.659573	-12.093996	2.201849	9.603394	-7.294280	1.831200	1.113980	-0.926389	-0.003540	0.367797	-1.000000	-1.000000	-1.000000	-1.000000	-1.000000	-1.000000	-1.000000	51.000000	0.000000	-1.000000	-1.000000	541497.000000	1775792937.476171
-13702.545000	-14485.815000	14493.735000	39910.590000	14705.955000	1.845000	-28814.220000	-39066.165000	8.964592	7.926084	7.036187	8.159358	14.869423	7.818733	5.232609	8.799686	-7.294280	1.831200	1.113980	-0.926389	-0.003540	0.367797	-1.000000	-1.000000	-1.000000	-1.000000	-1.000000	-1.000000	-1.000000	51.000000	0.000000	-1.000000	-1.000000	541498.000000	1775792937.476331
-13706.190000	-14488.740000	14490.675000	39904.965000	14688.855000	-14.220000	-28814.895000	-39070.080000	0.915325	-0.511173	-0.567966	1.008783	9.287622	18.545372	3.246308	2.878538	-7.294280	1.831200	1.113980	-0.926389	-0.003540	0.367797	-1.000000	-1.000000	-1.000000	-1.000000	-1.000000	-1.000000	-1.000000	51.000000	0.000000	-1.000000	-1.000000	541499.000000	1775792937.476348
-13708.215000	-14487.705000	14491.935000	39907.125000	14686.875000	-16.020000	-28813.590000	-39071.520000	-8.404690	-9.457244	-8.462737	-6.971798	-3.191301	14.374073	-2.085177	-5.416709	-7.294280	1.831200	1.113980	-0.926389	-0.003540	0.367797	-1.000000	-1.000000	-1.000000	-1.000000	-1.000000	-1.000000	-1.000000	51.000000	0.000000	-1.000000	-1.000000	541500.000000	1775792937.476369
-13708.980000	-14489.370000	14490.045000	39907.665000	14697.180000	4.410000	-28808.640000	-39072.060000	-13.902639	-13.929262	-12.329476	-11.574825	-15.009047	2.412035	-6.175671	-11.288331	-7.294280	1.831200	1.113980	-0.926389	-0.003540	0.367797	-1.000000	-1.000000	-1.000000	-1.000000	-1.000000	-1.000000	-1.000000	51.000000	0.000000	-1.000000	-1.000000	541501.000000	1775792937.476382
-13704.345000	-14483.205000	14497.020000	39914.460000	14704.920000	5.130000	-28809.585000	-39069.315000	-12.978834	-11.924968	-10.470692	-10.609872	-18.528404	-6.383058	-6.202018	-11.671219	-7.294280	1.831200	1.113980	-0.926389	-0.003540	0.367797	-1.000000	-1.000000	-1.000000	-1.000000	-1.000000	-1.000000	-1.000000	51.000000	0.000000	-1.000000	-1.000000	541502.000000	1775792937.476396
-13701.060000	-14477.085000	14502.825000	39919.320000	14703.210000	-11.610000	-28815.390000	-39069.315000	-6.639226	-5.035676	-4.283915	-5.046671	-12.248192	-7.420311	-2.970849	-6.951601	-7.294280	1.831200	1.113980	-0.926389	-0.003540	0.367797	-1.000000	-1.000000	-1.000000	-1.000000	-1.000000	-1.000000	-1.000000	51.000000	0.000000	-1.000000	-1.000000	541503.000000	1775792937.476407
-13707.450000	-14487.075000	14490.270000	39902.760000	14682.915000	-25.155000	-28814.850000	-39071.340000	1.488687	2.927266	2.782076	1.615759	-1.673351	-4.264629	0.674223	-0.143241	-3.708180	2.273740	0.656180	-0.927732	-0.009338	0.367736	-1.000000	-1.000000	-1.000000	-1.000000	-1.000000	-1.000000	-1.000000	51.000000	0.000000	-1.000000	-1.000000	541504.000000	1775792937.476416
-13704.795000	-14486.355000	14489.865000	39901.410000	14683.635000	-13.455000	-28809.045000	-39068.145000	7.290207	7.841466	6.854513	5.319592	5.906842	-1.599573	2.844713	5.310124	-3.708180	2.273740	0.656180	-0.927732	-0.009338	0.367736	-1.000000	-1.000000	-1.000000	-1.000000	-1.000000	-1.000000	-1.000000	51.000000	0.000000	-1.000000	-1.000000	541505.000000	1775792937.476424
-13705.290000	-14486.895000	14491.350000	39904.695000	14689.260000	-3.015000	-28806.210000	-39069.180000	8.760679	7.960810	6.467954	4.785249	7.776112	0.244191	3.619580	7.561858	-3.708180	2.273740	0.656180	-0.927732	-0.009338	0.367736	-1.000000	-1.000000	-1.000000	-1.000000	-1.000000	-1.000000	-1.000000	51.000000	0.000000	-1.000000	-1.000000	541506.000000	1775792937.476434
-13707.405000	-14486.220000	14493.240000	39906.225000	14689.125000	-10.710000	-28812.015000	-39073.545000	6.622932	4.793933	3.497946	2.323017	6.342860	2.739635	3.486622	6.594430	-3.708180	2.273740	0.656180	-0.927732	-0.009338	0.367736	-1.000000	-1.000000	-1.000000	-1.000000	-1.000000	-1.000000	-1.000000	51.000000	0.000000	-1.000000	-1.000000	541507.000000	1775792937.476439
-13704.390000	-14481.720000	14498.775000	39911.850000	14693.760000	-15.795000	-28813.050000	-39072.420000	2.869296	1.113343	0.746249	0.730677	4.624213	4.941679	2.289040	3.465823	-3.708180	2.273740	0.656180	-0.927732	-0.009338	0.367736	-1.000000	-1.000000	-1.000000	-1.000000	-1.000000	-1.000000	-1.000000	51.000000	0.000000	-1.000000	-1.000000	541508.000000	1775792937.476445
-13709.295000	-14488.470000	14490.855000	39905.280000	14690.880000	-23.625000	-28815.660000	-39074.670000	-0.597308	-1.246359	-0.502045	0.731804	3.540819	4.640300	0.108503	-0.140975	-3.708180	2.273740	0.656180	-0.927732	-0.009338	0.367736	-1.000000	-1.000000	-1.000000	-1.000000	-1.000000	-1.000000	-1.000000	51.000000	0.000000	-1.000000	-1.000000	541509.000000	1775792937.476451
-13709.970000	-14488.650000	14490.360000	39904.020000	14693.760000	-13.050000	-28814.400000	-39075.570000	-2.775569	-2.180497	-0.868065	1.116695	2.535381	1.826659	-2.065294	-2.675128	-3.708180	2.273740	0.656180	-0.927732	-0.009338	0.367736	-1.000000	-1.000000	-1.000000	-1.000000	-1.000000	-1.000000	-1.000000	51.000000	0.000000	-1.000000	-1.000000	541510.000000	1775792937.476457
-13707.450000	-14484.735000	14497.065000	39913.335000	14698.755000	-7.335000	-28812.645000	-39074.535000	-3.472851	-2.263704	-1.165779	0.821804	1.144056	-0.938731	-3.019868	-3.455089	-3.708180	2.273740	0.656180	-0.927732	-0.009338	0.367736	-1.000000	-1.000000	-1.000000	-1.000000	-1.000000	-1.000000	-1.000000	51.000000	0.000000	-1.000000	-1.000000	541511.000000	1775792937.476462
-13706.280000	-14485.725000	14495.805000	39911.310000	14691.195000	-21.690000	-28807.605000	-39071.745000	-2.742019	-1.643593	-1.149747	0.231642	-0.477925	-1.757913	-2.210206	-2.589565	-3.708180	2.273740	0.656180	-0.927732	-0.009338	0.367736	-1.000000	-1.000000	-1.000000	-1.000000	-1.000000	-1.000000	-1.000000	51.000000	0.000000	-1.000000	-1.000000	541512.000000	1775792937.476469
-13713.570000	-14494.680000	14485.095000	39897.180000	14671.980000	-44.190000	-28811.700000	-39077.055000	-1.169573	-0.696047	-0.785689	-0.379897	-2.540876	-1.944370	-0.216750	-0.826732	-3.708180	2.273740	0.656180	-0.927732	-0.009338	0.367736	-1.000000	-1.000000	-1.000000	-1.000000	-1.000000	-1.000000	-1.000000	51.000000	0.000000	-1.000000	-1.000000	541513.000000	1775792937.476474
-13710.195000	-14487.705000	14493.375000	39904.380000	14681.070000	-43.020000	-28815.255000	-39078.180000	0.143605	-0.160484	-0.729413	-1.515529	-5.119579	-3.482728	1.442561	0.619329	0.976640	2.838360	-1.068200	-0.926267	-0.013061	0.366454	-1.000000	-1.000000	-1.000000	-1.000000	-1.000000	-1.000000	-1.000000	51.000000	0.000000	-1.000000	-1.000000	541514.000000	1775792937.476481
-13711.320000	-14490.225000	14489.955000	39899.430000	14686.200000	-19.710000	-28818.045000	-39080.295000	0.699512	0.001627	-0.874054	-2.726556	-6.375680	-4.810060	1.524945	0.957009	0.976640	2.838360	-1.068200	-0.926267	-0.013061	0.366454	-1.000000	-1.000000	-1.000000	-1.000000	-1.000000	-1.000000	-1.000000	51.000000	0.000000	-1.000000	-1.000000	541515.000000	1775792937.476487
-13707.090000	-14485.815000	14495.085000	39906.180000	14702.445000	14.220000	-28818.990000	-39076.695000	0.892873	0.379667	-0.503237	-2.736894	-3.976310	-1.873839	0.225057	0.507078	0.976640	2.838360	-1.068200	-0.926267	-0.013061	0.366454	-1.000000	-1.000000	-1.000000	-1.000000	-1.000000	-1.000000	-1.000000	51.000000	0.000000	-1.000000	-1.000000	541516.000000	1775792937.476493
-13708.395000	-14490.990000	14489.640000	39902.850000	14698.305000	-3.195000	-28817.145000	-39076.425000	1.130480	0.983037	0.391628	-1.170258	1.577507	5.642607	-1.138478	0.177948	0.976640	2.838360	-1.068200	-0.926267	-0.013061	0.366454	-1.000000	-1.000000	-1.000000	-1.000000	-1.000000	-1.000000	-1.000000	51.000000	0.000000	-1.000000	-1.000000	541517.000000	1775792937.476499
-13704.390000	-14487.840000	14492.655000	39906.090000	14693.445000	-30.240000	-28816.605000	-39071.880000	1.355231	1.272463	1.124213	1.074264	6.529838	11.180476	-1.381024	0.481321	0.976640	2.838360	-1.068200	-0.926267	-0.013061	0.366454	-1.000000	-1.000000	-1.000000	-1.000000	-1.000000	-1.000000	-1.000000	51.000000	0.000000	-1.000000	-1.000000	541518.000000	1775792937.476505
-13709.655000	-14497.065000	14483.295000	39897.720000	14682.420000	-44.775000	-28813.185000	-39070.980000	1.225586	0.829463	1.070892	2.573293	7.033565	7.834627	-0.323904	1.193824	0.976640	2.838360	-1.068200	-0.926267	-0.013061	0.366454	-1.000000	-1.000000	-1.000000	-1.000000	-1.000000	-1.000000	-1.000000	51.000000	0.000000	-1.000000	-1.000000	541519.000000	1775792937.476511
-13705.515000	-14493.555000	14485.590000	39899.745000	14679.540000	-50.220000	-28812.780000	-39066.480000	0.505025	-0.269328	0.153253	2.411728	2.637129	-3.068320	1.283389	1.721925	0.976640	2.838360	-1.068200	-0.926267	-0.013061	0.366454	-1.000000	-1.000000	-1.000000	-1.000000	-1.000000	-1.000000	-1.000000	51.000000	0.000000	-1.000000	-1.000000	541520.000000	1775792937.476518
-13705.650000	-14486.985000	14492.475000	39905.010000	14675.850000	-42.615000	-28822.590000	-39072.330000	-0.507445	-1.172417	-0.808312	1.072722	-3.451761	-13.032365	2.202333	1.493886	0.976640	2.838360	-1.068200	-0.926267	-0.013061	0.366454	-1.000000	-1.000000	-1.000000	-1.000000	-1.000000	-1.000000	-1.000000	51.000000	0.000000	-1.000000	-1.000000	541521.000000	1775792937.476523
-13700.745000	-14479.515000	14500.755000	39910.815000	14678.235000	-34.470000	-28825.785000	-39071.295000	-1.119753	-0.707691	-0.501585	0.086103	-7.157371	-14.496026	1.391116	0.223414	0.976640	2.838360	-1.068200	-0.926267	-0.013061	0.366454	-1.000000	-1.000000	-1.000000	-1.000000	-1.000000	-1.000000	-1.000000	51.000000	0.000000	-1.000000	-1.000000	541522.000000	1775792937.476529
-13700.700000	-14479.155000	14501.700000	39911.310000	14687.055000	-19.800000	-28820.880000	-39070.845000	-0.960910	1.122401	1.283288	0.289660	-6.284245	-6.488660	-0.703256	-1.617354	0.976640	2.838360	-1.068200	-0.926267	-0.013061	0.366454	-1.000000	-1.000000	-1.000000	-1.000000	-1.000000	-1.000000	-1.000000	51.000000	0.000000	-1.000000	-1.000000	541523.000000	1775792937.476535
-13701.555000	-14482.530000	14499.360000	39914.325000	14698.710000	11.295000	-28803.285000	-39067.470000	-0.374785	2.676522	2.967333	1.009104	-1.325166	6.195857	-1.868678	-2.854070	3.692920	2.838360	-0.549360	-0.920164	-0.011963	0.366210	-1.000000	-1.000000	-1.000000	-1.000000	-1.000000	-1.000000	-1.000000	51.000000	0.000000	-1.000000	-1.000000	541524.000000	1775792937.476541
-13707.315000	-14492.880000	14486.670000	39901.770000	14693.355000	3.060000	-28803.645000	-39067.065000	-0.150594	2.099572	2.516361	0.904898	4.859349	16.774103	-0.398134	-2.650590	3.692920	2.838360	-0.549360	-0.920164	-0.011963	0.366210	-1.000000	-1.000000	-1.000000	-1.000000	-1.000000	-1.000000	-1.000000	51.000000	0.000000	-1.000000	-1.000000	541525.000000	1775792937.476547
-13709.250000	-14494.230000	14485.680000	39902.130000	14708.475000	33.975000	-28807.740000	-39070.845000	-0.760593	-0.859238	-0.585140	-0.799426	8.607540	19.733286	2.400955	-1.341058	3.692920	2.838360	-0.549360	-0.920164	-0.011963	0.366210	-1.000000	-1.000000	-1.000000	-1.000000	-1.000000	-1.000000	-1.000000	51.000000	0.000000	-1.000000	-1.000000	541526.000000	1775792937.476559
-13709.565000	-14492.070000	14487.885000	39904.605000	14708.385000	36.045000	-28807.695000	-39072.870000	-1.741398	-4.223962	-4.363724	-3.196123	8.200244	14.098233	3.464021	-0.071522	3.692920	2.838360	-0.549360	-0.920164	-0.011963	0.366210	-1.000000	-1.000000	-1.000000	-1.000000	-1.000000	-1.000000	-1.000000	51.000000	0.000000	-1.000000	-1.000000	541527.000000	1775792937.476566
-13711.050000	-14492.655000	14487.840000	39904.200000	14699.115000	10.350000	-28808.640000	-39072.870000	-2.081231	-5.382873	-5.888198	-4.242465	4.233030	2.744126	1.568973	0.409173	3.692920	2.838360	-0.549360	-0.920164	-0.011963	0.366210	-1.000000	-1.000000	-1.000000	-1.000000	-1.000000	-1.000000	-1.000000	51.000000	0.000000	-1.000000	-1.000000	541528.000000	1775792937.476575
-13703.040000	-14486.445000	14493.150000	39908.025000	14698.170000	6.390000	-28804.365000	-39064.905000	-1.122171	-3.398977	-3.966924	-2.926783	-1.803410	-10.811624	-1.715047	0.487490	3.692920	2.838360	-0.549360	-0.920164	-0.011963	0.366210	-1.000000	-1.000000	-1.000000	-1.000000	-1.000000	-1.000000	-1.000000	51.000000	0.000000	-1.000000	-1.000000	541529.000000	1775792937.477193
-13700.340000	-14483.655000	14494.635000	39906.810000	14691.780000	-3.870000	-28813.500000	-39064.455000	1.048746	0.580072	0.181914	-0.069494	-7.593728	-21.947176	-4.154282	1.004859	3.692920	2.838360	-0.549360	-0.920164	-0.011963	0.366210	-1.000000	-1.000000	-1.000000	-1.000000	-1.000000	-1.000000	-1.000000	51.000000	0.000000	-1.000000	-1.000000	541530.000000	1775792937.477205
-13702.770000	-14485.545000	14492.880000	39904.650000	14688.405000	-12.825000	-28819.125000	-39069.135000	3.376753	4.322456	4.109171	2.558391	-10.616178	-25.674540	-4.937768	1.841001	3.692920	2.838360	-0.549360	-0.920164	-0.011963	0.366210	-1.000000	-1.000000	-1.000000	-1.000000	-1.000000	-1.000000	-1.000000	51.000000	0.000000	-1.000000	-1.000000	541531.000000	1775792937.477215
-13700.880000	-14483.070000	14495.625000	39908.475000	14694.435000	-3.555000	-28816.380000	-39068.370000	4.272914	5.795922	5.724739	3.583117	-9.547161	-20.067698	-4.356520	1.925128	3.692920	2.838360	-0.549360	-0.920164	-0.011963	0.366210	-1.000000	-1.000000	-1.000000	-1.000000	-1.000000	-1.000000	-1.000000	51.000000	0.000000	-1.000000	-1.000000	541532.000000	1775792937.477225
-13703.895000	-14485.545000	14494.725000	39908.610000	14694.975000	2.340000	-28818.000000	-39073.365000	3.033942	4.451071	4.592253	2.982907	-4.726288	-7.125270	-2.514619	0.761960	3.692920	2.838360	-0.549360	-0.920164	-0.011963	0.366210	-1.000000	-1.000000	-1.000000	-1.000000	-1.000000	-1.000000	-1.000000	51.000000	0.000000	-1.000000	-1.000000	541533.000000	1775792937.477234
-13702.185000	-14484.105000	14497.785000	39913.560000	14702.040000	-0.270000	-28810.755000	-39070.845000	0.407123	1.344941	1.843722	1.670989	1.870620	8.019095	0.438036	-0.972641	0.534100	2.624720	-0.015260	-0.922178	-0.007690	0.366759	-1.000000	-1.000000	-1.000000	-1.000000	-1.000000	-1.000000	-1.000000	51.000000	0.000000	-1.000000	-1.000000	541534.000000	1775792937.477242
-13700.880000	-14481.675000	14499.495000	39913.065000	14695.695000	-25.740000	-28812.330000	-39068.505000	-2.102620	-1.758604	-0.895068	0.476672	7.317742	18.473215	3.661153	-2.062499	0.534100	2.624720	-0.015260	-0.922178	-0.007690	0.366759	-1.000000	-1.000000	-1.000000	-1.000000	-1.000000	-1.000000	-1.000000	51.000000	0.000000	-1.000000	-1.000000	541535.000000	1775792937.477248
-13706.775000	-14486.670000	14493.420000	39909.015000	14695.785000	-17.505000	-28806.660000	-39068.100000	-3.362345	-3.507213	-2.612975	-0.453395	9.170186	19.600236	5.848399	-1.718895	0.534100	2.624720	-0.015260	-0.922178	-0.007690	0.366759	-1.000000	-1.000000	-1.000000	-1.000000	-1.000000	-1.000000	-1.000000	51.000000	0.000000	-1.000000	-1.000000	541536.000000	1775792937.477255
-13714.515000	-14497.875000	14479.875000	39894.345000	14684.175000	-1.665000	-28808.505000	-39073.140000	-3.468193	-3.924989	-3.575921	-1.685724	6.781800	13.333658	6.010495	-0.398149	0.534100	2.624720	-0.015260	-0.922178	-0.007690	0.366759	-1.000000	-1.000000	-1.000000	-1.000000	-1.000000	-1.000000	-1.000000	51.000000	0.000000	-1.000000	-1.000000	541537.000000	1775792937.477261
-13705.110000	-14487.795000	14489.370000	39899.745000	14682.555000	6.030000	-28805.805000	-39069.765000	-2.924530	-3.651974	-4.251042	-3.427330	1.627766	6.074121	4.089793	0.716255	0.534100	2.624720	-0.015260	-0.922178	-0.007690	0.366759	-1.000000	-1.000000	-1.000000	-1.000000	-1.000000	-1.000000	-1.000000	51.000000	0.000000	-1.000000	-1.000000	541538.000000	1775792937.477267
-13696.605000	-14473.710000	14506.335000	39915.900000	14700.330000	6.795000	-28810.215000	-39065.940000	-1.314527	-2.164117	-3.506325	-4.112925	-3.112176	1.802759	0.879527	1.154995	0.534100	2.624720	-0.015260	-0.922178	-0.007690	0.366759	-1.000000	-1.000000	-1.000000	-1.000000	-1.000000	-1.000000	-1.000000	51.000000	0.000000	-1.000000	-1.000000	541539.000000	1775792937.477273
-13709.430000	-14483.385000	14499.720000	39911.985000	14695.155000	-25.155000	-28822.500000	-39078.135000	1.407610	1.038879	-0.171163	-1.896404	-4.347849	-0.820784	-2.661098	1.074386	0.534100	2.624720	-0.015260	-0.922178	-0.007690	0.366759	-1.000000	-1.000000	-1.000000	-1.000000	-1.000000	-1.000000	-1.000000	51.000000	0.000000	-1.000000	-1.000000	541540.000000	1775792937.477280
-13721.310000	-14499.270000	14483.025000	39896.460000	14680.125000	-34.830000	-28819.170000	-39083.895000	3.193644	3.803886	3.645842	1.867856	-2.394474	-5.072467	-5.636970	0.177638	0.534100	2.624720	-0.015260	-0.922178	-0.007690	0.366759	-1.000000	-1.000000	-1.000000	-1.000000	-1.000000	-1.000000	-1.000000	51.000000	0.000000	-1.000000	-1.000000	541541.000000	1775792937.477285
-13731.480000	-14511.465000	14468.085000	39882.915000	14662.530000	-37.620000	-28835.460000	-39095.370000	1.971732	3.072442	4.035202	3.357547	-0.845819	-10.748093	-6.991223	-1.706300	0.534100	2.624720	-0.015260	-0.922178	-0.007690	0.366759	-1.000000	-1.000000	-1.000000	-1.000000	-1.000000	-1.000000	-1.000000	51.000000	0.000000	-1.000000	-1.000000	541542.000000	1775792937.477292
-13704.165000	-14483.835000	14493.645000	39909.960000	14684.220000	-18.630000	-28826.910000	-39073.680000	-0.893401	-0.440396	0.719983	1.553040	-1.481840	-13.241747	-6.051996	-3.198940	0.534100	2.624720	-0.015260	-0.922178	-0.007690	0.366759	-1.000000	-1.000000	-1.000000	-1.000000	-1.000000	-1.000000	-1.000000	51.000000	0.000000	-1.000000	-1.000000	541543.000000	1775792937.477298
-13692.015000	-14472.270000	14502.510000	39911.445000	14692.770000	-6.570000	-28812.240000	-39058.020000	-1.293670	-2.075571	-1.810586	-0.109463	-1.704312	-8.569710	-2.539933	-1.752702	-3.921820	0.610400	0.869820	-0.927122	-0.005005	0.366515	-1.000000	-1.000000	-1.000000	-1.000000	-1.000000	-1.000000	-1.000000	51.000000	0.000000	-1.000000	-1.000000	541544.000000	1775792937.478065
-13704.795000	-14485.410000	14489.955000	39899.880000	14700.285000	-4.005000	-28809.630000	-39065.535000	2.095302	0.503626	-0.478129	0.745997	1.114765	1.751286	3.154297	2.972097	-3.921820	0.610400	0.869820	-0.927122	-0.005005	0.366515	-1.000000	-1.000000	-1.000000	-1.000000	-1.000000	-1.000000	-1.000000	51.000000	0.000000	-1.000000	-1.000000	541545.000000	1775792937.478081
-13703.445000	-14484.960000	14494.185000	39910.680000	14712.030000	-0.540000	-28805.130000	-39064.815000	5.407888	3.910474	2.386504	2.297412	5.647407	11.397603	8.613260	7.198314	-3.921820	0.610400	0.869820	-0.927122	-0.005005	0.366515	-1.000000	-1.000000	-1.000000	-1.000000	-1.000000	-1.000000	-1.000000	51.000000	0.000000	-1.000000	-1.000000	541546.000000	1775792937.483068
-13717.845000	-14496.615000	14481.135000	39894.165000	14685.345000	-28.755000	-28832.130000	-39079.980000	4.575772	3.927509	3.102736	2.209108	7.982132	14.130022	10.088811	6.783312	-3.921820	0.610400	0.869820	-0.927122	-0.005005	0.366515	-1.000000	-1.000000	-1.000000	-1.000000	-1.000000	-1.000000	-1.000000	51.000000	0.000000	-1.000000	-1.000000	541547.000000	1775792937.483092
-13716.630000	-14494.590000	14481.720000	39893.040000	14680.710000	-24.885000	-28831.140000	-39077.955000	-0.298879	0.258129	0.806733	0.039157	4.890329	8.138136	5.566185	1.446918	-3.921820	0.610400	0.869820	-0.927122	-0.005005	0.366515	-1.000000	-1.000000	-1.000000	-1.000000	-1.000000	-1.000000	-1.000000	51.000000	0.000000	-1.000000	-1.000000	541548.000000	1775792937.490581
-13692.690000	-14472.000000	14494.455000	39896.235000	14686.245000	-15.975000	-28810.800000	-39046.950000	-5.267904	-3.683496	-2.370685	-2.932993	-2.562559	-2.103996	-2.073135	-4.616848	-3.921820	0.610400	0.869820	-0.927122	-0.005005	0.366515	-1.000000	-1.000000	-1.000000	-1.000000	-1.000000	-1.000000	-1.000000	51.000000	0.000000	-1.000000	-1.000000	541549.000000	1775792937.490605
-13667.895000	-14445.855000	14526.900000	39931.560000	14705.370000	-11.520000	-28799.955000	-39037.140000	-5.491690	-3.598232	-2.813630	-3.765483	-8.624934	-9.119519	-6.557351	-5.992849	-3.921820	0.610400	0.869820	-0.927122	-0.005005	0.366515	-1.000000	-1.000000	-1.000000	-1.000000	-1.000000	-1.000000	-1.000000	51.000000	0.000000	-1.000000	-1.000000	541550.000000	1775792937.490634
-13680.405000	-14453.505000	14526.855000	39939.120000	14715.630000	-10.845000	-28809.135000	-39054.060000	-0.319935	1.148550	1.071269	-0.192192	-8.260945	-9.164925	-5.075223	-2.183495	-3.921820	0.610400	0.869820	-0.927122	-0.005005	0.366515	-1.000000	-1.000000	-1.000000	-1.000000	-1.000000	-1.000000	-1.000000	51.000000	0.000000	-1.000000	-1.000000	541551.000000	1775792937.490645
-13692.780000	-14460.615000	14524.335000	39940.695000	14721.345000	11.205000	-28813.545000	-39065.760000	4.789179	5.711114	5.965325	5.714467	-2.048933	-3.929116	-1.034676	1.377007	-3.921820	0.610400	0.869820	-0.927122	-0.005005	0.366515	-1.000000	-1.000000	-1.000000	-1.000000	-1.000000	-1.000000	-1.000000	51.000000	0.000000	-1.000000	-1.000000	541552.000000	1775792937.493361
-13698.450000	-14481.180000	14497.875000	39913.605000	14698.980000	3.780000	-28801.530000	-39059.550000	4.163057	4.587707	6.202074	8.134057	4.434444	2.676942	1.230764	0.470256	-3.921820	0.610400	0.869820	-0.927122	-0.005005	0.366515	-1.000000	-1.000000	-1.000000	-1.000000	-1.000000	-1.000000	-1.000000	51.000000	0.000000	-1.000000	-1.000000	541553.000000	1775792937.493378
-13700.520000	-14489.640000	14485.635000	39899.745000	14690.610000	-4.725000	-28793.700000	-39055.905000	-1.761334	-2.641010	-0.496289	3.031464	5.481433	6.477001	1.273160	-3.046279	-5.600420	-0.061040	1.373400	-0.927793	-0.006775	0.366271	-1.000000	-1.000000	-1.000000	-1.000000	-1.000000	-1.000000	-1.000000	51.000000	0.000000	-1.000000	-1.000000	541554.000000	1775792937.499690
-13696.470000	-14479.920000	14495.985000	39911.175000	14702.490000	-1.575000	-28795.950000	-39055.500000	-7.690697	-10.732170	-10.018539	-6.916161	0.749204	5.035795	0.795787	-4.842175	-5.600420	-0.061040	1.373400	-0.927793	-0.006775	0.366271	-1.000000	-1.000000	-1.000000	-1.000000	-1.000000	-1.000000	-1.000000	51.000000	0.000000	-1.000000	-1.000000	541555.000000	1775792937.499715
-13701.465000	-14481.855000	14494.050000	39908.970000	14706.495000	21.735000	-28799.235000	-39062.025000	-9.065346	-13.196722	-14.887859	-13.962992	-4.467449	0.424170	0.237793	-3.388654	-5.600420	-0.061040	1.373400	-0.927793	-0.006775	0.366271	-1.000000	-1.000000	-1.000000	-1.000000	-1.000000	-1.000000	-1.000000	51.000000	0.000000	-1.000000	-1.000000	541556.000000	1775792937.502629
-13700.655000	-14479.740000	14496.885000	39909.015000	14708.340000	20.160000	-28816.560000	-39064.365000	-5.449946	-8.023749	-11.252448	-12.887536	-5.378002	-2.730927	-1.240580	-0.412203	-5.600420	-0.061040	1.373400	-0.927793	-0.006775	0.366271	-1.000000	-1.000000	-1.000000	-1.000000	-1.000000	-1.000000	-1.000000	51.000000	0.000000	-1.000000	-1.000000	541557.000000	1775792937.502657
-13707.360000	-14487.705000	14490.270000	39903.885000	14699.610000	7.650000	-28818.495000	-39069.540000	0.310828	1.058035	-1.908288	-5.254812	-2.243243	-2.915220	-3.867216	1.862388	-5.600420	-0.061040	1.373400	-0.927793	-0.006775	0.366271	-1.000000	-1.000000	-1.000000	-1.000000	-1.000000	-1.000000	-1.000000	51.000000	0.000000	-1.000000	-1.000000	541558.000000	1775792937.507234
-13705.920000	-14487.570000	14489.460000	39905.235000	14701.815000	10.980000	-28813.905000	-39068.055000	4.952375	8.473449	7.174971	3.638021	1.476508	-2.428525	-5.937902	2.646153	-5.600420	-0.061040	1.373400	-0.927793	-0.006775	0.366271	-1.000000	-1.000000	-1.000000	-1.000000	-1.000000	-1.000000	-1.000000	51.000000	0.000000	-1.000000	-1.000000	541559.000000	1775792937.507255
-13697.100000	-14478.480000	14497.020000	39908.970000	14704.290000	13.635000	-28809.630000	-39060.360000	7.040998	11.210552	11.808785	9.528992	3.346035	-2.720331	-4.943003	2.667725	-5.600420	-0.061040	1.373400	-0.927793	-0.006775	0.366271	-1.000000	-1.000000	-1.000000	-1.000000	-1.000000	-1.000000	-1.000000	51.000000	0.000000	-1.000000	-1.000000	541560.000000	1775792937.508632
-13705.065000	-14481.045000	14496.390000	39906.540000	14697.810000	4.185000	-28814.490000	-39067.110000	6.954129	9.854942	11.563750	11.040710	3.256913	-2.981447	-0.595340	2.861058	-5.600420	-0.061040	1.373400	-0.927793	-0.006775	0.366271	-1.000000	-1.000000	-1.000000	-1.000000	-1.000000	-1.000000	-1.000000	51.000000	0.000000	-1.000000	-1.000000	541561.000000	1775792937.508649
-13699.305000	-14473.260000	14506.380000	39917.655000	14706.000000	4.635000	-28812.915000	-39064.680000	5.262247	6.363644	8.247695	8.982571	2.079165	-2.535919	4.461242	2.994134	-5.600420	-0.061040	1.373400	-0.927793	-0.006775	0.366271	-1.000000	-1.000000	-1.000000	-1.000000	-1.000000	-1.000000	-1.000000	51.000000	0.000000	-1.000000	-1.000000	541562.000000	1775792937.513125
-13697.595000	-14477.355000	14501.385000	39913.515000	14701.590000	-5.130000	-28813.770000	-39060.315000	2.570476	2.292517	3.833615	5.158262	0.815363	-1.544128	7.300592	2.429757	-5.600420	-0.061040	1.373400	-0.927793	-0.006775	0.366271	-1.000000	-1.000000	-1.000000	-1.000000	-1.000000	-1.000000	-1.000000	51.000000	0.000000	-1.000000	-1.000000	541563.000000	1775792937.513140
-13697.505000	-14476.500000	14501.970000	39913.110000	14695.110000	-26.505000	-28816.740000	-39062.340000	-0.105678	-1.470358	-0.532088	1.019940	-0.107003	-0.699348	6.880672	1.306191	-1.556520	1.342880	1.175020	-0.924680	-0.010315	0.363830	-1.000000	-1.000000	-1.000000	-1.000000	-1.000000	-1.000000	-1.000000	51.000000	0.000000	-1.000000	-1.000000	541564.000000	1775792937.524472
-13700.295000	-14476.815000	14501.970000	39912.480000	14688.270000	-49.185000	-28819.350000	-39066.120000	-2.140286	-4.393480	-4.245905	-2.733766	-1.132007	-1.073498	3.916959	-0.090688	-1.556520	1.342880	1.175020	-0.924680	-0.010315	0.363830	-1.000000	-1.000000	-1.000000	-1.000000	-1.000000	-1.000000	-1.000000	51.000000	0.000000	-1.000000	-1.000000	541565.000000	1775792937.524495
-13689.360000	-14469.975000	14507.685000	39920.130000	14693.760000	-57.285000	-28811.160000	-39052.755000	-3.286179	-5.796370	-6.435199	-5.260237	-2.246453	-2.584426	0.212099	-1.440741	-1.556520	1.342880	1.175020	-0.924680	-0.010315	0.363830	-1.000000	-1.000000	-1.000000	-1.000000	-1.000000	-1.000000	-1.000000	51.000000	0.000000	-1.000000	-1.000000	541566.000000	1775792937.524522
-13690.845000	-14471.730000	14506.155000	39916.845000	14688.000000	-59.040000	-28815.120000	-39054.555000	-3.166290	-5.201040	-6.368056	-5.700846	-2.478515	-3.027022	-2.265038	-1.913252	-1.556520	1.342880	1.175020	-0.924680	-0.010315	0.363830	-1.000000	-1.000000	-1.000000	-1.000000	-1.000000	-1.000000	-1.000000	51.000000	0.000000	-1.000000	-1.000000	541567.000000	1775792937.524532
-13703.985000	-14485.770000	14490.675000	39900.465000	14673.465000	-29.070000	-28819.440000	-39066.030000	-2.244130	-3.421947	-4.716398	-4.613015	-1.622822	0.367867	-2.950577	-1.527173	-1.556520	1.342880	1.175020	-0.924680	-0.010315	0.363830	-1.000000	-1.000000	-1.000000	-1.000000	-1.000000	-1.000000	-1.000000	51.000000	0.000000	-1.000000	-1.000000	541568.000000	1775792937.530995
-13702.500000	-14484.195000	14493.195000	39908.430000	14702.850000	29.835000	-28808.910000	-39062.745000	-1.912033	-2.117459	-3.143539	-3.517088	-0.223218	9.012495	-2.541941	-1.531944	-1.556520	1.342880	1.175020	-0.924680	-0.010315	0.363830	-1.000000	-1.000000	-1.000000	-1.000000	-1.000000	-1.000000	-1.000000	51.000000	0.000000	-1.000000	-1.000000	541569.000000	1775792937.531019
-13705.740000	-14487.930000	14487.975000	39903.030000	14703.525000	43.425000	-28810.170000	-39065.040000	-2.402548	-1.680585	-2.164849	-2.603072	2.200785	20.641848	-1.437249	-2.200356	-1.556520	1.342880	1.175020	-0.924680	-0.010315	0.363830	-1.000000	-1.000000	-1.000000	-1.000000	-1.000000	-1.000000	-1.000000	51.000000	0.000000	-1.000000	-1.000000	541570.000000	1775792937.531044
-13709.070000	-14491.530000	14482.620000	39890.970000	14677.245000	17.415000	-28814.580000	-39068.055000	-2.541287	-1.136039	-1.055526	-1.266317	4.903737	27.079198	-0.075399	-2.509450	-1.556520	1.342880	1.175020	-0.924680	-0.010315	0.363830	-1.000000	-1.000000	-1.000000	-1.000000	-1.000000	-1.000000	-1.000000	51.000000	0.000000	-1.000000	-1.000000	541571.000000	1775792937.531055
-13703.850000	-14481.900000	14495.490000	39904.425000	14689.665000	21.195000	-28810.395000	-39065.445000	-1.453651	0.294405	0.760482	0.388897	4.837376	19.666095	0.607047	-1.792561	-1.556520	1.342880	1.175020	-0.924680	-0.010315	0.363830	-1.000000	-1.000000	-1.000000	-1.000000	-1.000000	-1.000000	-1.000000	51.000000	0.000000	-1.000000	-1.000000	541572.000000	1775792937.534800
-13702.320000	-14479.830000	14500.080000	39912.570000	14702.175000	18.180000	-28809.990000	-39066.525000	0.863747	2.719526	3.522598	2.577795	1.766237	-0.327549	0.400157	-0.158003	-1.556520	1.342880	1.175020	-0.924680	-0.010315	0.363830	-1.000000	-1.000000	-1.000000	-1.000000	-1.000000	-1.000000	-1.000000	51.000000	0.000000	-1.000000	-1.000000	541573.000000	1775792937.534821
-13700.475000	-14480.325000	14497.380000	39908.520000	14698.530000	17.370000	-28809.180000	-39065.670000	3.567265	5.239480	6.433266	5.316697	-1.002052	-21.680217	-0.062704	1.753722	3.067260	1.205540	1.602300	-0.922056	-0.012817	0.364684	-1.000000	-1.000000	-1.000000	-1.000000	-1.000000	-1.000000	-1.000000	51.000000	0.000000	-1.000000	-1.000000	541574.000000	1775792937.644578
-13696.290000	-14477.130000	14497.155000	39905.370000	14693.085000	27.990000	-28806.840000	-39059.955000	5.323669	6.207292	7.422627	6.827502	-1.933979	-33.053652	-0.297768	3.178909	3.067260	1.205540	1.602300	-0.922056	-0.012817	0.364684	-1.000000	-1.000000	-1.000000	-1.000000	-1.000000	-1.000000	-1.000000	51.000000	0.000000	-1.000000	-1.000000	541575.000000	1775792937.644602
