Channel1	Channel2	Channel3	Channel4	Channel5	Channel6	Channel7	Channel8	FilteredChannel1	FilteredChannel2	FilteredChannel3	FilteredChannel4	FilteredChannel5	FilteredChannel6	FilteredChannel7	FilteredChannel8	GyroX	GyroY	GyroZ	AccX	AccY	AccZ	PPG1	PPG2	rawPPG1	rawPPG2	rawPPG3	Hr	Hrv	Battery	Trigger	PhysicalTrigger	AutoTrigger	NumMeasurements	Timestamp
5747.760000	862.335000	2679.210000	24403.275000	17586.585000	6309.585000	-22519.980000	-18309.015000	2.488365	2.735168	2.310431	0.298871	-4.288398	-9.550365	-2.071358	1.153901	-3.906560	1.953280	1.251320	-0.730894	-0.072326	0.662169	-1.000000	-1.000000	-1.000000	-1.000000	-1.000000	-1.000000	-1.000000	56.000000	0.000000	-1.000000	-1.000000	659013.000000	1775778042.492667
5752.305000	868.455000	2686.095000	24402.960000	17586.405000	6295.950000	-22524.570000	-18305.280000	3.486939	4.199381	4.902724	3.609372	-0.711582	-4.742119	-1.938168	1.257162	-3.906560	1.953280	1.251320	-0.730894	-0.072326	0.662169	-1.000000	-1.000000	-1.000000	-1.000000	-1.000000	-1.000000	-1.000000	56.000000	0.000000	-1.000000	-1.000000	659014.000000	1775778042.492696
5752.845000	872.010000	2683.710000	24392.745000	17571.915000	6279.885000	-22526.280000	-18306.630000	3.536596	4.114426	5.268031	4.538437	2.572162	-0.088566	-1.453863	1.486269	-3.906560	1.953280	1.251320	-0.730894	-0.072326	0.662169	-1.000000	-1.000000	-1.000000	-1.000000	-1.000000	-1.000000	-1.000000	56.000000	0.000000	-1.000000	-1.000000	659015.000000	1775778042.492724
5745.735000	864.630000	2677.410000	24386.715000	17576.280000	6305.445000	-22523.895000	-18313.470000	2.459195	2.662436	3.332604	2.268625	3.717191	2.210065	-0.971668	1.237610	-3.906560	1.953280	1.251320	-0.730894	-0.072326	0.662169	-1.000000	-1.000000	-1.000000	-1.000000	-1.000000	-1.000000	-1.000000	56.000000	0.000000	-1.000000	-1.000000	659016.000000	1775778042.492738
5745.645000	861.480000	2680.290000	24404.985000	17612.415000	6340.545000	-22520.430000	-18312.795000	0.158764	-0.067711	-0.295904	-1.583140	3.445117	4.452950	-0.187001	-0.084652	-3.906560	1.953280	1.251320	-0.730894	-0.072326	0.662169	-1.000000	-1.000000	-1.000000	-1.000000	-1.000000	-1.000000	-1.000000	56.000000	0.000000	-1.000000	-1.000000	659017.000000	1775778042.492754
5744.430000	860.760000	2681.190000	24410.880000	17634.285000	6348.195000	-22522.005000	-18314.145000	-2.533265	-3.335585	-3.803471	-3.487049	4.859506	9.281316	1.089311	-1.904996	-3.906560	1.953280	1.251320	-0.730894	-0.072326	0.662169	-1.000000	-1.000000	-1.000000	-1.000000	-1.000000	-1.000000	-1.000000	56.000000	0.000000	-1.000000	-1.000000	659018.000000	1775778042.492770
5739.525000	855.360000	2673.135000	24396.750000	17607.060000	6317.505000	-22523.715000	-18315.405000	-4.209576	-5.569976	-5.396134	-2.053276	7.861277	13.471856	2.221602	-2.936449	-3.906560	1.953280	1.251320	-0.730894	-0.072326	0.662169	-1.000000	-1.000000	-1.000000	-1.000000	-1.000000	-1.000000	-1.000000	56.000000	0.000000	-1.000000	-1.000000	659019.000000	1775778042.492785
5735.430000	848.745000	2667.330000	24395.985000	17591.220000	6316.650000	-22517.370000	-18316.440000	-4.224817	-5.750624	-4.975559	0.170528	7.120901	10.600570	2.480074	-2.533299	-3.906560	1.953280	1.251320	-0.730894	-0.072326	0.662169	-1.000000	-1.000000	-1.000000	-1.000000	-1.000000	-1.000000	-1.000000	56.000000	0.000000	-1.000000	-1.000000	659020.000000	1775778042.492797
5734.755000	850.095000	2666.070000	24399.045000	17573.175000	6304.770000	-22522.005000	-18319.095000	-2.879836	-4.034976	-3.473479	0.694686	-0.802574	-0.055615	1.903534	-1.069529	-3.906560	1.953280	1.251320	-0.730894	-0.072326	0.662169	-1.000000	-1.000000	-1.000000	-1.000000	-1.000000	-1.000000	-1.000000	56.000000	0.000000	-1.000000	-1.000000	659021.000000	1775778042.495625
5733.945000	841.905000	2665.170000	24397.875000	17582.895000	6307.875000	-22524.120000	-18322.020000	-0.722487	-1.170605	-1.394721	-0.051394	-11.691265	-11.894823	0.773447	0.549857	-3.906560	1.953280	1.251320	-0.730894	-0.072326	0.662169	-1.000000	-1.000000	-1.000000	-1.000000	-1.000000	-1.000000	-1.000000	56.000000	0.000000	-1.000000	-1.000000	659022.000000	1775778042.495639
5733.270000	841.725000	2661.075000	24384.510000	17581.725000	6312.735000	-22525.605000	-18324.450000	1.634255	1.782420	1.017688	-0.837825	-17.397330	-17.428732	-0.719721	1.546767	-2.365300	1.709120	0.885080	-0.734617	-0.074951	0.661558	-1.000000	-1.000000	-1.000000	-1.000000	-1.000000	-1.000000	-1.000000	56.000000	0.000000	-1.000000	-1.000000	659023.000000	1775778042.495656
5750.325000	869.490000	2681.145000	24391.935000	17583.255000	6309.045000	-22517.055000	-18311.850000	3.762262	4.403637	3.497799	-1.343467	-13.659628	-13.934110	-1.861917	1.973213	-2.365300	1.709120	0.885080	-0.734617	-0.074951	0.661558	-1.000000	-1.000000	-1.000000	-1.000000	-1.000000	-1.000000	-1.000000	56.000000	0.000000	-1.000000	-1.000000	659024.000000	1775778042.495667
5746.680000	865.530000	2682.585000	24397.155000	17581.815000	6313.185000	-22517.955000	-18316.440000	5.505080	7.128135	5.994878	-1.044949	-3.245080	-4.496547	-1.712181	2.483722	-2.365300	1.709120	0.885080	-0.734617	-0.074951	0.661558	-1.000000	-1.000000	-1.000000	-1.000000	-1.000000	-1.000000	-1.000000	56.000000	0.000000	-1.000000	-1.000000	659025.000000	1775778042.497971
5739.750000	858.870000	2679.525000	24401.610000	17584.875000	6307.245000	-22530.240000	-18324.180000	5.894595	8.756576	7.588817	0.735890	7.548282	5.161378	-0.615752	2.781171	-2.365300	1.709120	0.885080	-0.734617	-0.074951	0.661558	-1.000000	-1.000000	-1.000000	-1.000000	-1.000000	-1.000000	-1.000000	56.000000	0.000000	-1.000000	-1.000000	659026.000000	1775778042.497985
5741.460000	858.645000	2679.885000	24403.410000	17594.055000	6305.355000	-22529.340000	-18320.355000	3.634288	6.742201	6.442820	3.290342	13.915869	10.567696	-0.115083	1.793249	-2.365300	1.709120	0.885080	-0.734617	-0.074951	0.661558	-1.000000	-1.000000	-1.000000	-1.000000	-1.000000	-1.000000	-1.000000	56.000000	0.000000	-1.000000	-1.000000	659027.000000	1775778042.501794
5743.530000	858.510000	2677.860000	24397.290000	17602.245000	6317.190000	-22525.290000	-18315.540000	-0.546936	1.108381	2.220010	4.691099	14.680325	10.656003	-0.584538	-0.139248	-2.365300	1.709120	0.885080	-0.734617	-0.074951	0.661558	-1.000000	-1.000000	-1.000000	-1.000000	-1.000000	-1.000000	-1.000000	56.000000	0.000000	-1.000000	-1.000000	659028.000000	1775778042.501814
5742.990000	859.680000	2679.390000	24398.595000	17605.260000	6318.135000	-22527.225000	-18314.730000	-4.176126	-5.012221	-3.085654	3.547820	11.150858	7.559837	-0.791812	-1.439791	-2.365300	1.709120	0.885080	-0.734617	-0.074951	0.661558	-1.000000	-1.000000	-1.000000	-1.000000	-1.000000	-1.000000	-1.000000	56.000000	0.000000	-1.000000	-1.000000	659029.000000	1775778042.513224
5746.140000	864.855000	2683.530000	24401.880000	17584.695000	6298.965000	-22524.615000	-18313.920000	-5.475383	-8.334270	-6.763793	0.472778	4.779697	3.445155	-0.002191	-1.439427	-2.365300	1.709120	0.885080	-0.734617	-0.074951	0.661558	-1.000000	-1.000000	-1.000000	-1.000000	-1.000000	-1.000000	-1.000000	56.000000	0.000000	-1.000000	-1.000000	659030.000000	1775778042.513249
5742.180000	860.445000	2676.735000	24392.700000	17568.765000	6290.235000	-22521.870000	-18318.150000	-4.424394	-7.707339	-7.333079	-2.608809	-3.576492	-1.415497	1.333996	-0.864780	-2.365300	1.709120	0.885080	-0.734617	-0.074951	0.661558	-1.000000	-1.000000	-1.000000	-1.000000	-1.000000	-1.000000	-1.000000	56.000000	0.000000	-1.000000	-1.000000	659031.000000	1775778042.513276
5744.070000	863.010000	2679.120000	24391.485000	17569.935000	6291.225000	-22520.520000	-18318.690000	-2.225079	-4.432324	-5.380271	-4.470941	-11.780135	-6.305541	2.435890	-0.702044	-2.365300	1.709120	0.885080	-0.734617	-0.074951	0.661558	-1.000000	-1.000000	-1.000000	-1.000000	-1.000000	-1.000000	-1.000000	56.000000	0.000000	-1.000000	-1.000000	659032.000000	1775778042.513288
5750.775000	870.930000	2689.110000	24402.105000	17580.240000	6282.495000	-22523.130000	-18314.370000	-0.009771	-0.556369	-2.227217	-4.606168	-15.522524	-8.836229	2.616375	-1.047823	-0.579880	1.388660	-0.885080	-0.741148	-0.077820	0.663389	-1.000000	-1.000000	-1.000000	-1.000000	-1.000000	-1.000000	-1.000000	56.000000	0.000000	-1.000000	-1.000000	659033.000000	1775778042.526451
5753.250000	874.350000	2691.945000	24415.560000	17605.170000	6291.810000	-22523.040000	-18311.220000	1.858777	2.711250	1.331611	-2.367888	-11.356697	-7.318138	1.544007	-1.083256	-0.579880	1.388660	-0.885080	-0.741148	-0.077820	0.663389	-1.000000	-1.000000	-1.000000	-1.000000	-1.000000	-1.000000	-1.000000	56.000000	0.000000	-1.000000	-1.000000	659034.000000	1775778042.526475
5751.585000	871.380000	2688.120000	24415.335000	17606.610000	6305.220000	-22523.355000	-18311.355000	3.054587	4.581727	4.222822	1.817568	-0.554608	-2.037008	-0.345055	-0.297176	-0.579880	1.388660	-0.885080	-0.741148	-0.077820	0.663389	-1.000000	-1.000000	-1.000000	-1.000000	-1.000000	-1.000000	-1.000000	56.000000	0.000000	-1.000000	-1.000000	659035.000000	1775778042.526500
5747.715000	866.160000	2684.430000	24407.820000	17596.350000	6317.505000	-22524.705000	-18313.785000	2.869267	4.200580	4.865281	5.266400	10.340244	5.168367	-2.066363	0.723119	-0.579880	1.388660	-0.885080	-0.741148	-0.077820	0.663389	-1.000000	-1.000000	-1.000000	-1.000000	-1.000000	-1.000000	-1.000000	56.000000	0.000000	-1.000000	-1.000000	659036.000000	1775778042.526508
5738.490000	853.245000	2670.660000	24393.285000	17594.595000	6332.445000	-22517.730000	-18318.735000	0.945061	1.364697	2.563000	4.857594	14.169996	11.280776	-2.725060	0.945596	-0.579880	1.388660	-0.885080	-0.741148	-0.077820	0.663389	-1.000000	-1.000000	-1.000000	-1.000000	-1.000000	-1.000000	-1.000000	56.000000	0.000000	-1.000000	-1.000000	659037.000000	1775778042.526516
5733.945000	848.970000	2666.520000	24388.245000	17596.395000	6338.295000	-22514.580000	-18322.155000	-2.064015	-2.795970	-1.648250	0.180482	9.380718	13.348353	-1.876335	-0.013854	-0.579880	1.388660	-0.885080	-0.741148	-0.077820	0.663389	-1.000000	-1.000000	-1.000000	-1.000000	-1.000000	-1.000000	-1.000000	56.000000	0.000000	-1.000000	-1.000000	659038.000000	1775778042.526522
5732.010000	848.520000	2667.510000	24386.940000	17584.785000	6317.550000	-22518.090000	-18322.290000	-4.533059	-5.934816	-5.248047	-5.591099	0.316840	9.597198	-0.041755	-1.451759	-0.579880	1.388660	-0.885080	-0.741148	-0.077820	0.663389	-1.000000	-1.000000	-1.000000	-1.000000	-1.000000	-1.000000	-1.000000	56.000000	0.000000	-1.000000	-1.000000	659039.000000	1775778042.537628
5734.125000	855.540000	2675.340000	24395.400000	17591.355000	6300.405000	-22520.880000	-18319.365000	-4.748300	-5.729231	-5.561316	-8.104810	-7.481011	0.054342	1.288026	-2.072724	-0.579880	1.388660	-0.885080	-0.741148	-0.077820	0.663389	-1.000000	-1.000000	-1.000000	-1.000000	-1.000000	-1.000000	-1.000000	56.000000	0.000000	-1.000000	-1.000000	659040.000000	1775778042.537652
5730.705000	856.755000	2676.780000	24400.035000	17603.280000	6328.080000	-22510.530000	-18322.740000	-2.292350	-1.759523	-1.910008	-5.259474	-10.210695	-11.327518	1.264976	-1.174699	-0.579880	1.388660	-0.885080	-0.741148	-0.077820	0.663389	-1.000000	-1.000000	-1.000000	-1.000000	-1.000000	-1.000000	-1.000000	56.000000	0.000000	-1.000000	-1.000000	659041.000000	1775778042.537679
5737.860000	857.700000	2675.880000	24397.380000	17597.205000	6335.370000	-22511.790000	-18325.260000	1.577981	3.783847	3.460967	1.127405	-7.084981	-17.134689	0.639123	0.569679	-0.579880	1.388660	-0.885080	-0.741148	-0.077820	0.663389	-1.000000	-1.000000	-1.000000	-1.000000	-1.000000	-1.000000	-1.000000	56.000000	0.000000	-1.000000	-1.000000	659042.000000	1775778042.537691
5742.225000	861.705000	2682.180000	24404.445000	17588.385000	6315.885000	-22513.545000	-18320.445000	5.117344	7.707293	7.204230	6.908449	-1.241811	-13.767096	0.216091	1.966151	-0.350980	1.297100	-3.204600	-0.741819	-0.076965	0.663084	-1.000000	-1.000000	-1.000000	-1.000000	-1.000000	-1.000000	-1.000000	56.000000	0.000000	-1.000000	-1.000000	659043.000000	1775778042.537706
5744.115000	863.415000	2685.240000	24408.360000	17581.410000	6305.805000	-22515.210000	-18316.980000	7.023251	8.204829	7.614869	9.122518	2.753614	-5.701508	-0.227689	2.641374	-0.350980	1.297100	-3.204600	-0.741819	-0.076965	0.663084	-1.000000	-1.000000	-1.000000	-1.000000	-1.000000	-1.000000	-1.000000	56.000000	0.000000	-1.000000	-1.000000	659044.000000	1775778042.537716
5751.495000	871.740000	2693.160000	24414.570000	17582.985000	6304.500000	-22517.955000	-18312.795000	6.620189	5.679446	5.275627	7.588517	3.109044	0.700921	-1.003539	2.865886	-0.350980	1.297100	-3.204600	-0.741819	-0.076965	0.663084	-1.000000	-1.000000	-1.000000	-1.000000	-1.000000	-1.000000	-1.000000	56.000000	0.000000	-1.000000	-1.000000	659045.000000	1775778042.539057
5746.770000	868.095000	2689.920000	24409.890000	17598.330000	6325.470000	-22519.620000	-18319.860000	4.063999	1.771732	1.698003	3.675361	1.803304	3.999749	-1.832564	2.521801	-0.350980	1.297100	-3.204600	-0.741819	-0.076965	0.663084	-1.000000	-1.000000	-1.000000	-1.000000	-1.000000	-1.000000	-1.000000	56.000000	0.000000	-1.000000	-1.000000	659046.000000	1775778042.539074
5742.945000	867.510000	2690.280000	24408.855000	17607.240000	6331.320000	-22514.760000	-18324.495000	0.052156	-2.118412	-1.976576	-1.146938	1.878739	6.543526	-2.046225	0.999603	-0.350980	1.297100	-3.204600	-0.741819	-0.076965	0.663084	-1.000000	-1.000000	-1.000000	-1.000000	-1.000000	-1.000000	-1.000000	56.000000	0.000000	-1.000000	-1.000000	659047.000000	1775778042.548692
5751.945000	876.060000	2698.200000	24412.230000	17600.760000	6323.805000	-22512.780000	-18316.530000	-4.130931	-5.016082	-4.853237	-5.384045	3.774310	9.108319	-1.064279	-1.484507	-0.350980	1.297100	-3.204600	-0.741819	-0.076965	0.663084	-1.000000	-1.000000	-1.000000	-1.000000	-1.000000	-1.000000	-1.000000	56.000000	0.000000	-1.000000	-1.000000	659048.000000	1775778042.548714
5752.935000	873.900000	2694.960000	24409.350000	17592.210000	6308.460000	-22521.105000	-18313.695000	-6.501542	-5.977904	-5.969332	-7.507326	4.721558	9.136622	0.705298	-3.236423	-0.350980	1.297100	-3.204600	-0.741819	-0.076965	0.663084	-1.000000	-1.000000	-1.000000	-1.000000	-1.000000	-1.000000	-1.000000	56.000000	0.000000	-1.000000	-1.000000	659049.000000	1775778042.551473
5755.320000	878.175000	2697.345000	24411.870000	17600.985000	6318.990000	-22515.840000	-18310.185000	-5.950110	-4.872940	-5.172974	-6.903614	2.530166	4.859516	1.948055	-2.876129	-0.350980	1.297100	-3.204600	-0.741819	-0.076965	0.663084	-1.000000	-1.000000	-1.000000	-1.000000	-1.000000	-1.000000	-1.000000	56.000000	0.000000	-1.000000	-1.000000	659050.000000	1775778042.551498
5746.140000	868.320000	2689.380000	24405.390000	17603.775000	6320.070000	-22516.515000	-18318.645000	-3.522980	-2.815873	-3.423365	-4.333361	-1.382549	-1.258344	2.051695	-1.082799	-0.350980	1.297100	-3.204600	-0.741819	-0.076965	0.663084	-1.000000	-1.000000	-1.000000	-1.000000	-1.000000	-1.000000	-1.000000	56.000000	0.000000	-1.000000	-1.000000	659051.000000	1775778042.551528
5742.855000	862.875000	2686.410000	24406.560000	17594.145000	6301.125000	-22519.755000	-18321.525000	-1.338681	-1.339492	-1.891120	-1.263529	-4.247705	-5.543596	1.429033	0.187025	-0.350980	1.297100	-3.204600	-0.741819	-0.076965	0.663084	-1.000000	-1.000000	-1.000000	-1.000000	-1.000000	-1.000000	-1.000000	56.000000	0.000000	-1.000000	-1.000000	659052.000000	1775778042.551540
5740.785000	861.705000	2687.175000	24405.615000	17593.875000	6300.630000	-22519.260000	-18319.230000	-0.493897	-1.058056	-0.961453	1.195636	-5.200693	-7.113681	0.492834	-0.023423	0.122080	3.464020	-0.274680	-0.733824	-0.075317	0.661680	-1.000000	-1.000000	-1.000000	-1.000000	-1.000000	-1.000000	-1.000000	56.000000	0.000000	-1.000000	-1.000000	659053.000000	1775778042.557593
5742.225000	866.160000	2692.935000	24411.285000	17609.445000	6314.445000	-22517.550000	-18318.105000	-0.323078	-0.981990	0.058320	2.837085	-4.394517	-6.270437	-0.378054	-0.766182	0.122080	3.464020	-0.274680	-0.733824	-0.075317	0.661680	-1.000000	-1.000000	-1.000000	-1.000000	-1.000000	-1.000000	-1.000000	56.000000	0.000000	-1.000000	-1.000000	659054.000000	1775778042.557617
5747.400000	867.645000	2689.920000	24408.585000	17601.705000	6312.375000	-22513.680000	-18314.505000	0.443098	0.248441	1.794970	3.829322	-1.796758	-2.743664	-0.650160	-0.681229	0.122080	3.464020	-0.274680	-0.733824	-0.075317	0.661680	-1.000000	-1.000000	-1.000000	-1.000000	-1.000000	-1.000000	-1.000000	56.000000	0.000000	-1.000000	-1.000000	659055.000000	1775778042.559291
5743.485000	858.465000	2675.430000	24390.315000	17588.655000	6320.835000	-22515.030000	-18321.120000	2.145085	2.435788	3.361315	3.670111	1.157439	2.408902	-0.181501	0.358607	0.122080	3.464020	-0.274680	-0.733824	-0.075317	0.661680	-1.000000	-1.000000	-1.000000	-1.000000	-1.000000	-1.000000	-1.000000	56.000000	0.000000	-1.000000	-1.000000	659056.000000	1775778042.559312
5744.790000	863.280000	2682.585000	24396.795000	17583.165000	6317.100000	-22513.095000	-18321.075000	3.760438	3.969536	3.276510	1.691095	1.975252	6.496216	0.489483	1.290586	0.122080	3.464020	-0.274680	-0.733824	-0.075317	0.661680	-1.000000	-1.000000	-1.000000	-1.000000	-1.000000	-1.000000	-1.000000	56.000000	0.000000	-1.000000	-1.000000	659057.000000	1775778042.564332
5749.785000	872.010000	2692.305000	24408.675000	17582.715000	6296.220000	-22507.695000	-18316.800000	4.170839	4.111991	2.034295	-0.750186	0.360724	6.923248	0.815435	1.378432	0.122080	3.464020	-0.274680	-0.733824	-0.075317	0.661680	-1.000000	-1.000000	-1.000000	-1.000000	-1.000000	-1.000000	-1.000000	56.000000	0.000000	-1.000000	-1.000000	659058.000000	1775778042.564354
5741.235000	862.110000	2679.840000	24398.910000	17577.855000	6300.540000	-22508.820000	-18325.125000	3.186384	3.415935	1.315290	-1.289263	-1.480102	2.934066	0.758895	0.883765	0.122080	3.464020	-0.274680	-0.733824	-0.075317	0.661680	-1.000000	-1.000000	-1.000000	-1.000000	-1.000000	-1.000000	-1.000000	56.000000	0.000000	-1.000000	-1.000000	659059.000000	1775778042.565746
5749.695000	873.900000	2695.275000	24411.960000	17586.990000	6290.235000	-22523.490000	-18321.795000	1.212050	2.181752	1.324102	0.178710	-1.468525	-2.983423	0.081945	0.162714	0.122080	3.464020	-0.274680	-0.733824	-0.075317	0.661680	-1.000000	-1.000000	-1.000000	-1.000000	-1.000000	-1.000000	-1.000000	56.000000	0.000000	-1.000000	-1.000000	659060.000000	1775778042.565763
5746.455000	872.280000	2700.225000	24414.120000	17606.295000	6306.570000	-22523.895000	-18325.620000	-0.860082	0.661559	1.598746	2.112710	1.154411	-6.639031	-1.677830	-0.533561	0.122080	3.464020	-0.274680	-0.733824	-0.075317	0.661680	-1.000000	-1.000000	-1.000000	-1.000000	-1.000000	-1.000000	-1.000000	56.000000	0.000000	-1.000000	-1.000000	659061.000000	1775778042.570120
5739.120000	861.705000	2689.560000	24412.185000	17624.520000	6360.120000	-22515.660000	-18329.670000	-2.282271	-0.863894	1.758885	3.179191	5.841459	-4.540332	-3.565280	-0.941466	0.122080	3.464020	-0.274680	-0.733824	-0.075317	0.661680	-1.000000	-1.000000	-1.000000	-1.000000	-1.000000	-1.000000	-1.000000	56.000000	0.000000	-1.000000	-1.000000	659062.000000	1775778042.570140
5744.700000	868.995000	2693.790000	24414.705000	17619.075000	6354.855000	-22509.270000	-18324.585000	-3.022004	-2.517702	0.792285	2.468266	10.044694	3.642612	-3.362483	-0.951870	0.045780	2.639980	2.227960	-0.729673	-0.072143	0.663084	-1.000000	-1.000000	-1.000000	-1.000000	-1.000000	-1.000000	-1.000000	56.000000	0.000000	-1.000000	-1.000000	659063.000000	1775778042.574877
5746.005000	870.030000	2694.330000	24411.555000	17609.400000	6334.470000	-22510.080000	-18323.370000	-2.862371	-3.690344	-1.430860	0.094374	9.778557	11.700134	-0.436048	-0.338877	0.045780	2.639980	2.227960	-0.729673	-0.072143	0.663084	-1.000000	-1.000000	-1.000000	-1.000000	-1.000000	-1.000000	-1.000000	56.000000	0.000000	-1.000000	-1.000000	659064.000000	1775778042.574899
5749.695000	873.630000	2703.735000	24418.935000	17609.085000	6324.390000	-22509.720000	-18320.445000	-1.462079	-3.286779	-3.295627	-2.617485	3.294763	11.062326	3.137573	0.915217	0.045780	2.639980	2.227960	-0.729673	-0.072143	0.663084	-1.000000	-1.000000	-1.000000	-1.000000	-1.000000	-1.000000	-1.000000	56.000000	0.000000	-1.000000	-1.000000	659065.000000	1775778042.577947
5748.300000	872.820000	2700.630000	24414.930000	17606.655000	6318.810000	-22510.440000	-18321.480000	0.620663	-1.404684	-3.369455	-4.144723	-6.239718	0.636707	4.777558	2.120298	0.045780	2.639980	2.227960	-0.729673	-0.072143	0.663084	-1.000000	-1.000000	-1.000000	-1.000000	-1.000000	-1.000000	-1.000000	56.000000	0.000000	-1.000000	-1.000000	659066.000000	1775778042.577967
5747.490000	873.810000	2702.205000	24416.820000	17603.910000	6320.430000	-22512.465000	-18321.255000	2.128689	0.696169	-1.972949	-3.956936	-13.315256	-11.991675	3.628866	2.374841	0.045780	2.639980	2.227960	-0.729673	-0.072143	0.663084	-1.000000	-1.000000	-1.000000	-1.000000	-1.000000	-1.000000	-1.000000	56.000000	0.000000	-1.000000	-1.000000	659067.000000	1775778042.593114
5751.405000	881.370000	2714.310000	24431.085000	17614.665000	6319.755000	-22513.860000	-18318.150000	2.270294	1.973126	-0.252963	-2.351403	-14.307682	-18.224781	0.677236	1.441571	0.045780	2.639980	2.227960	-0.729673	-0.072143	0.663084	-1.000000	-1.000000	-1.000000	-1.000000	-1.000000	-1.000000	-1.000000	56.000000	0.000000	-1.000000	-1.000000	659068.000000	1775778042.593139
5744.520000	870.705000	2700.630000	24419.250000	17603.910000	6313.185000	-22518.495000	-18323.460000	1.249036	2.137445	1.027541	0.071194	-9.275393	-15.075737	-2.377445	-0.138634	0.045780	2.639980	2.227960	-0.729673	-0.072143	0.663084	-1.000000	-1.000000	-1.000000	-1.000000	-1.000000	-1.000000	-1.000000	56.000000	0.000000	-1.000000	-1.000000	659069.000000	1775778042.593166
5748.255000	871.605000	2699.955000	24420.555000	17596.935000	6310.620000	-22514.400000	-18320.400000	-0.281586	1.079796	1.042862	1.863149	-1.756014	-5.825217	-4.100320	-1.680385	0.045780	2.639980	2.227960	-0.729673	-0.072143	0.663084	-1.000000	-1.000000	-1.000000	-1.000000	-1.000000	-1.000000	-1.000000	56.000000	0.000000	-1.000000	-1.000000	659070.000000	1775778042.593178
5749.560000	873.135000	2703.510000	24423.480000	17602.020000	6315.705000	-22512.690000	-18319.950000	-1.490761	-0.757213	-0.359469	1.861642	4.091587	4.080866	-3.709342	-2.558500	0.045780	2.639980	2.227960	-0.729673	-0.072143	0.663084	-1.000000	-1.000000	-1.000000	-1.000000	-1.000000	-1.000000	-1.000000	56.000000	0.000000	-1.000000	-1.000000	659071.000000	1775778042.593190
5748.930000	868.545000	2692.710000	24405.885000	17607.915000	6336.945000	-22505.130000	-18317.565000	-1.673855	-2.142227	-1.910327	0.425160	6.935937	11.266025	-1.337421	-2.313709	0.045780	2.639980	2.227960	-0.729673	-0.072143	0.663084	-1.000000	-1.000000	-1.000000	-1.000000	-1.000000	-1.000000	-1.000000	56.000000	0.000000	-1.000000	-1.000000	659072.000000	1775778042.593199
5746.905000	865.620000	2686.635000	24402.375000	17608.005000	6331.410000	-22506.300000	-18316.215000	-0.987059	-2.382576	-2.666848	-1.721431	7.708766	14.788259	1.820647	-1.089387	-0.763000	1.495480	2.517900	-0.733702	-0.070434	0.663267	-1.000000	-1.000000	-1.000000	-1.000000	-1.000000	-1.000000	-1.000000	56.000000	0.000000	-1.000000	-1.000000	659073.000000	1775778042.595188
5745.825000	865.530000	2688.975000	24406.830000	17609.355000	6323.895000	-22511.655000	-18318.780000	-0.209128	-1.711844	-2.524460	-3.469261	7.065987	13.782460	3.864309	0.350002	-0.763000	1.495480	2.517900	-0.733702	-0.070434	0.663267	-1.000000	-1.000000	-1.000000	-1.000000	-1.000000	-1.000000	-1.000000	56.000000	0.000000	-1.000000	-1.000000	659074.000000	1775778042.595209
5751.270000	872.010000	2695.995000	24414.525000	17608.005000	6318.585000	-22507.875000	-18315.720000	0.269614	-0.368344	-1.070423	-2.946851	5.006360	7.675130	3.467490	1.177037	-0.763000	1.495480	2.517900	-0.733702	-0.070434	0.663267	-1.000000	-1.000000	-1.000000	-1.000000	-1.000000	-1.000000	-1.000000	56.000000	0.000000	-1.000000	-1.000000	659075.000000	1775778042.598226
5748.525000	873.810000	2700.585000	24421.140000	17609.940000	6311.115000	-22511.835000	-18320.850000	0.648135	1.549584	1.924053	0.548696	1.859039	-1.480835	1.139409	1.094678	-0.763000	1.495480	2.517900	-0.733702	-0.070434	0.663267	-1.000000	-1.000000	-1.000000	-1.000000	-1.000000	-1.000000	-1.000000	56.000000	0.000000	-1.000000	-1.000000	659076.000000	1775778042.598248
5747.985000	872.460000	2699.955000	24415.605000	17599.635000	6313.455000	-22509.855000	-18321.975000	0.937578	3.359856	5.258408	5.069052	-1.563878	-9.434551	-1.437239	0.291471	-0.763000	1.495480	2.517900	-0.733702	-0.070434	0.663267	-1.000000	-1.000000	-1.000000	-1.000000	-1.000000	-1.000000	-1.000000	56.000000	0.000000	-1.000000	-1.000000	659077.000000	1775778042.602405
5741.685000	864.855000	2694.780000	24411.825000	17594.370000	6323.535000	-22512.870000	-18326.340000	0.715065	3.750780	6.698808	7.279361	-4.559382	-12.301566	-2.918424	-0.812003	-0.763000	1.495480	2.517900	-0.733702	-0.070434	0.663267	-1.000000	-1.000000	-1.000000	-1.000000	-1.000000	-1.000000	-1.000000	56.000000	0.000000	-1.000000	-1.000000	659078.000000	1775778042.602425
5739.930000	864.630000	2696.310000	24419.205000	17596.395000	6313.320000	-22517.955000	-18326.880000	-0.217424	2.016271	4.937404	5.572101	-6.354765	-9.110622	-3.005897	-1.624754	-0.763000	1.495480	2.517900	-0.733702	-0.070434	0.663267	-1.000000	-1.000000	-1.000000	-1.000000	-1.000000	-1.000000	-1.000000	56.000000	0.000000	-1.000000	-1.000000	659079.000000	1775778042.611897
5745.915000	870.885000	2701.080000	24421.680000	17603.190000	6319.620000	-22509.270000	-18320.490000	-1.217420	-0.749175	1.054727	1.596953	-5.774951	-2.661537	-2.064773	-1.490676	-0.763000	1.495480	2.517900	-0.733702	-0.070434	0.663267	-1.000000	-1.000000	-1.000000	-1.000000	-1.000000	-1.000000	-1.000000	56.000000	0.000000	-1.000000	-1.000000	659080.000000	1775778042.611941
5748.615000	872.100000	2700.495000	24415.380000	17599.230000	6316.650000	-22509.900000	-18320.940000	-1.133103	-2.418497	-2.469564	-2.028185	-2.509474	3.110428	-0.321027	-0.085122	-0.763000	1.495480	2.517900	-0.733702	-0.070434	0.663267	-1.000000	-1.000000	-1.000000	-1.000000	-1.000000	-1.000000	-1.000000	56.000000	0.000000	-1.000000	-1.000000	659081.000000	1775778042.611970
5746.140000	871.245000	2700.180000	24412.140000	17596.080000	6306.030000	-22516.875000	-18325.890000	0.256174	-2.072331	-4.092021	-4.281535	1.664598	5.773507	1.617072	1.814867	-0.763000	1.495480	2.517900	-0.733702	-0.070434	0.663267	-1.000000	-1.000000	-1.000000	-1.000000	-1.000000	-1.000000	-1.000000	56.000000	0.000000	-1.000000	-1.000000	659082.000000	1775778042.611979
5745.600000	869.940000	2697.210000	24405.930000	17588.295000	6292.305000	-22516.245000	-18325.935000	1.722118	-0.692411	-3.985721	-5.338482	4.126457	4.556275	2.475946	2.700163	-1.098720	1.678600	1.739640	-0.738340	-0.072082	0.663511	-1.000000	-1.000000	-1.000000	-1.000000	-1.000000	-1.000000	-1.000000	56.000000	0.000000	-1.000000	-1.000000	659083.000000	1775778042.622532
5746.320000	869.445000	2693.745000	24408.180000	17593.560000	6296.805000	-22509.810000	-18323.820000	2.034792	0.304854	-3.106963	-5.220023	3.834377	0.697653	1.941031	2.030336	-1.098720	1.678600	1.739640	-0.738340	-0.072082	0.663511	-1.000000	-1.000000	-1.000000	-1.000000	-1.000000	-1.000000	-1.000000	56.000000	0.000000	-1.000000	-1.000000	659084.000000	1775778042.622555
5741.730000	866.610000	2692.350000	24409.710000	17613.270000	6335.640000	-22502.790000	-18327.240000	1.078662	0.340345	-2.174607	-3.592345	2.395445	-1.915120	1.219291	0.603138	-1.098720	1.678600	1.739640	-0.738340	-0.072082	0.663511	-1.000000	-1.000000	-1.000000	-1.000000	-1.000000	-1.000000	-1.000000	56.000000	0.000000	-1.000000	-1.000000	659085.000000	1775778042.622654
5740.830000	867.600000	2697.300000	24416.865000	17621.505000	6346.215000	-22501.620000	-18329.445000	-0.521467	-0.274905	-1.170468	-0.447523	2.321695	0.539607	1.281956	-0.721461	-1.098720	1.678600	1.739640	-0.738340	-0.072082	0.663511	-1.000000	-1.000000	-1.000000	-1.000000	-1.000000	-1.000000	-1.000000	56.000000	0.000000	-1.000000	-1.000000	659086.000000	1775778042.622674
5743.530000	870.615000	2700.990000	24417.630000	17615.070000	6329.790000	-22506.615000	-18328.275000	-1.848415	-0.757170	0.364551	3.280489	3.618377	6.324727	1.524186	-1.555785	-1.098720	1.678600	1.739640	-0.738340	-0.072082	0.663511	-1.000000	-1.000000	-1.000000	-1.000000	-1.000000	-1.000000	-1.000000	56.000000	0.000000	-1.000000	-1.000000	659087.000000	1775778042.622698
5745.150000	872.280000	2700.720000	24416.505000	17609.760000	6316.470000	-22512.735000	-18326.790000	-2.013133	-0.454476	2.328312	5.854495	3.473685	8.520691	0.581528	-1.608995	-1.098720	1.678600	1.739640	-0.738340	-0.072082	0.663511	-1.000000	-1.000000	-1.000000	-1.000000	-1.000000	-1.000000	-1.000000	56.000000	0.000000	-1.000000	-1.000000	659088.000000	1775778042.622709
5748.030000	873.585000	2701.215000	24415.695000	17609.850000	6313.455000	-22513.545000	-18321.930000	-0.848805	0.534575	3.699275	5.812071	0.117493	3.158470	-1.807616	-0.732247	-1.098720	1.678600	1.739640	-0.738340	-0.072082	0.663511	-1.000000	-1.000000	-1.000000	-1.000000	-1.000000	-1.000000	-1.000000	56.000000	0.000000	-1.000000	-1.000000	659089.000000	1775778042.625245
5751.360000	878.130000	2705.760000	24419.160000	17608.185000	6299.685000	-22511.565000	-18319.185000	0.924096	1.529518	3.608745	3.266281	-4.783001	-6.413205	-4.137642	0.771368	-1.098720	1.678600	1.739640	-0.738340	-0.072082	0.663511	-1.000000	-1.000000	-1.000000	-1.000000	-1.000000	-1.000000	-1.000000	56.000000	0.000000	-1.000000	-1.000000	659090.000000	1775778042.625271
5744.745000	872.550000	2700.855000	24414.075000	17608.950000	6309.585000	-22510.440000	-18326.970000	2.152913	1.847837	2.158337	-0.229400	-8.035255	-13.538302	-4.530006	1.954975	-1.098720	1.678600	1.739640	-0.738340	-0.072082	0.663511	-1.000000	-1.000000	-1.000000	-1.000000	-1.000000	-1.000000	-1.000000	56.000000	0.000000	-1.000000	-1.000000	659091.000000	1775778042.632367
5738.580000	867.330000	2698.200000	24411.240000	17595.180000	6322.185000	-22514.850000	-18335.790000	1.754500	0.961177	-0.094515	-3.166928	-8.018899	-13.353419	-2.638963	1.527736	-1.098720	1.678600	1.739640	-0.738340	-0.072082	0.663511	-1.000000	-1.000000	-1.000000	-1.000000	-1.000000	-1.000000	-1.000000	56.000000	0.000000	-1.000000	-1.000000	659092.000000	1775778042.632391
5740.650000	868.995000	2701.845000	24415.200000	17596.485000	6342.435000	-22511.790000	-18334.980000	-0.276964	-0.989582	-2.361475	-4.677214	-5.504818	-5.305784	0.195314	-0.734983	-2.487380	0.900340	0.045780	-0.741880	-0.073852	0.662169	-1.000000	-1.000000	-1.000000	-1.000000	-1.000000	-1.000000	-1.000000	56.000000	0.000000	-1.000000	-1.000000	659093.000000	1775778042.635442
5742.945000	871.335000	2706.795000	24425.775000	17610.660000	6345.180000	-22508.280000	-18330.795000	-2.334127	-2.693143	-3.424267	-4.059487	-1.635886	6.322778	2.552264	-3.055247	-2.487380	0.900340	0.045780	-0.741880	-0.073852	0.662169	-1.000000	-1.000000	-1.000000	-1.000000	-1.000000	-1.000000	-1.000000	56.000000	0.000000	-1.000000	-1.000000	659094.000000	1775778042.635465
5742.000000	867.600000	2699.100000	24426.360000	17614.890000	6339.690000	-22506.615000	-18328.860000	-2.703368	-2.836867	-2.697179	-1.274192	3.222191	14.576710	3.867312	-3.239692	-2.487380	0.900340	0.045780	-0.741880	-0.073852	0.662169	-1.000000	-1.000000	-1.000000	-1.000000	-1.000000	-1.000000	-1.000000	56.000000	0.000000	-1.000000	-1.000000	659095.000000	1775778042.637606
5735.745000	844.785000	2678.040000	24402.825000	17592.840000	6314.760000	-22509.855000	-18331.920000	-1.408250	-1.932422	-1.524302	1.683360	7.406049	14.026848	3.907262	-1.068997	-2.487380	0.900340	0.045780	-0.741880	-0.073852	0.662169	-1.000000	-1.000000	-1.000000	-1.000000	-1.000000	-1.000000	-1.000000	56.000000	0.000000	-1.000000	-1.000000	659096.000000	1775778042.637626
5739.075000	852.885000	2685.330000	24404.805000	17596.755000	6313.185000	-22504.815000	-18328.860000	0.215399	-1.510066	-1.602012	1.945957	7.894968	4.657980	2.621338	1.696297	-2.487380	0.900340	0.045780	-0.741880	-0.073852	0.662169	-1.000000	-1.000000	-1.000000	-1.000000	-1.000000	-1.000000	-1.000000	56.000000	0.000000	-1.000000	-1.000000	659097.000000	1775778042.654766
5747.355000	877.275000	2704.905000	24412.995000	17591.400000	6307.920000	-22508.505000	-18327.735000	1.444713	-0.897063	-1.793081	-0.326360	4.219671	-7.475262	0.577901	3.346439	-2.487380	0.900340	0.045780	-0.741880	-0.073852	0.662169	-1.000000	-1.000000	-1.000000	-1.000000	-1.000000	-1.000000	-1.000000	56.000000	0.000000	-1.000000	-1.000000	659098.000000	1775778042.654790
5743.035000	875.385000	2705.220000	24415.740000	17589.105000	6305.535000	-22514.895000	-18331.920000	2.419501	2.037761	0.513095	-1.837643	-0.710078	-14.752921	-1.509146	3.295433	-2.487380	0.900340	0.045780	-0.741880	-0.073852	0.662169	-1.000000	-1.000000	-1.000000	-1.000000	-1.000000	-1.000000	-1.000000	56.000000	0.000000	-1.000000	-1.000000	659099.000000	1775778042.654820
5742.090000	873.630000	2703.060000	24416.325000	17604.720000	6309.720000	-22519.440000	-18334.845000	2.775672	6.243564	4.700325	-0.645934	-3.599491	-13.588158	-3.314271	1.695987	-2.487380	0.900340	0.045780	-0.741880	-0.073852	0.662169	-1.000000	-1.000000	-1.000000	-1.000000	-1.000000	-1.000000	-1.000000	56.000000	0.000000	-1.000000	-1.000000	659100.000000	1775778042.654832
5749.335000	871.560000	2697.975000	24413.670000	17624.655000	6341.085000	-22506.480000	-18331.560000	2.006646	7.859229	7.063397	1.910718	-2.472534	-5.138964	-4.132939	-0.625587	-2.487380	0.900340	0.045780	-0.741880	-0.073852	0.662169	-1.000000	-1.000000	-1.000000	-1.000000	-1.000000	-1.000000	-1.000000	56.000000	0.000000	-1.000000	-1.000000	659101.000000	1775778042.654847
5746.410000	871.515000	2700.360000	24418.440000	17622.855000	6346.440000	-22506.705000	-18332.055000	0.592772	5.032581	5.332155	3.512801	2.013102	6.706982	-2.839031	-2.288248	-2.487380	0.900340	0.045780	-0.741880	-0.073852	0.662169	-1.000000	-1.000000	-1.000000	-1.000000	-1.000000	-1.000000	-1.000000	56.000000	0.000000	-1.000000	-1.000000	659102.000000	1775778042.654858
5750.280000	878.085000	2708.505000	24424.695000	17622.090000	6336.495000	-22506.300000	-18329.130000	-0.690132	-0.335509	0.955380	3.355571	5.970140	15.880983	0.274993	-2.396229	-2.350040	2.670500	-1.159760	-0.739622	-0.074890	0.661497	-1.000000	-1.000000	-1.000000	-1.000000	-1.000000	-1.000000	-1.000000	56.000000	0.000000	-1.000000	-1.000000	659103.000000	1775778042.654872
5749.650000	877.095000	2706.120000	24418.845000	17613.225000	6323.850000	-22506.480000	-18327.420000	-1.513027	-4.822952	-2.872109	2.037330	5.423412	16.409919	3.121647	-1.162923	-2.350040	2.670500	-1.159760	-0.739622	-0.074890	0.661497	-1.000000	-1.000000	-1.000000	-1.000000	-1.000000	-1.000000	-1.000000	56.000000	0.000000	-1.000000	-1.000000	659104.000000	1775778042.654882
5755.320000	883.215000	2710.980000	24420.960000	17609.940000	6327.990000	-22500.000000	-18319.455000	-1.742727	-6.334167	-4.355774	0.106840	0.038405	7.630588	4.045340	0.614998	-2.350040	2.670500	-1.159760	-0.739622	-0.074890	0.661497	-1.000000	-1.000000	-1.000000	-1.000000	-1.000000	-1.000000	-1.000000	56.000000	0.000000	-1.000000	-1.000000	659105.000000	1775778042.658994
5749.650000	877.455000	2704.050000	24419.475000	17610.930000	6325.785000	-22503.285000	-18325.620000	-1.457172	-5.079911	-3.876298	-1.969142	-6.734698	-4.519589	3.073857	2.025270	-2.350040	2.670500	-1.159760	-0.739622	-0.074890	0.661497	-1.000000	-1.000000	-1.000000	-1.000000	-1.000000	-1.000000	-1.000000	56.000000	0.000000	-1.000000	-1.000000	659106.000000	1775778042.659018
5750.685000	876.870000	2702.025000	24418.755000	17602.470000	6307.650000	-22501.845000	-18323.820000	-1.116341	-2.747557	-2.806704	-3.424745	-10.666530	-13.082803	1.035374	2.141222	-2.350040	2.670500	-1.159760	-0.739622	-0.074890	0.661497	-1.000000	-1.000000	-1.000000	-1.000000	-1.000000	-1.000000	-1.000000	56.000000	0.000000	-1.000000	-1.000000	659107.000000	1775778042.668237
5762.610000	893.880000	2723.310000	24430.545000	17608.140000	6304.185000	-22497.480000	-18314.955000	-0.823778	-0.585422	-1.691520	-3.493003	-9.823721	-15.307473	-1.099436	0.926800	-2.350040	2.670500	-1.159760	-0.739622	-0.074890	0.661497	-1.000000	-1.000000	-1.000000	-1.000000	-1.000000	-1.000000	-1.000000	56.000000	0.000000	-1.000000	-1.000000	659108.000000	1775778042.668260
5759.685000	891.900000	2725.785000	24434.235000	17621.145000	6343.155000	-22493.880000	-18319.185000	-0.041131	1.509910	0.309665	-1.755128	-4.736111	-11.221165	-2.294136	-0.489131	-2.350040	2.670500	-1.159760	-0.739622	-0.074890	0.661497	-1.000000	-1.000000	-1.000000	-1.000000	-1.000000	-1.000000	-1.000000	56.000000	0.000000	-1.000000	-1.000000	659109.000000	1775778042.668285
5747.310000	875.835000	2708.595000	24423.300000	17610.030000	6346.755000	-22502.565000	-18329.805000	0.822536	2.982420	2.731863	0.835762	2.368871	-1.510349	-2.290868	-1.573410	-2.350040	2.670500	-1.159760	-0.739622	-0.074890	0.661497	-1.000000	-1.000000	-1.000000	-1.000000	-1.000000	-1.000000	-1.000000	56.000000	0.000000	-1.000000	-1.000000	659110.000000	1775778042.668296
5748.750000	874.395000	2707.380000	24423.930000	17613.945000	6327.585000	-22504.500000	-18326.295000	0.413687	2.145440	2.991934	2.070005	7.853371	9.485330	-1.992707	-2.709221	-2.350040	2.670500	-1.159760	-0.739622	-0.074890	0.661497	-1.000000	-1.000000	-1.000000	-1.000000	-1.000000	-1.000000	-1.000000	56.000000	0.000000	-1.000000	-1.000000	659111.000000	1775778042.669475
5742.945000	866.970000	2704.815000	24432.525000	17637.435000	6350.130000	-22501.710000	-18333.045000	-1.237366	-0.927529	0.244558	1.207608	9.513002	14.826072	-2.003573	-3.567247	-2.350040	2.670500	-1.159760	-0.739622	-0.074890	0.661497	-1.000000	-1.000000	-1.000000	-1.000000	-1.000000	-1.000000	-1.000000	56.000000	0.000000	-1.000000	-1.000000	659112.000000	1775778042.669492
5740.335000	863.325000	2699.280000	24425.010000	17628.255000	6358.410000	-22502.745000	-18336.195000	-2.621610	-3.897561	-3.202612	-0.250256	8.255864	12.448141	-1.744647	-3.353766	-2.105880	3.158820	-2.105880	-0.733030	-0.076294	0.660338	-1.000000	-1.000000	-1.000000	-1.000000	-1.000000	-1.000000	-1.000000	56.000000	0.000000	-1.000000	-1.000000	659113.000000	1775778042.676802
5750.595000	871.155000	2699.010000	24413.400000	17616.915000	6346.935000	-22497.030000	-18326.475000	-2.373303	-4.438630	-4.778487	-1.309069	4.935815	5.726141	-0.565058	-1.767478	-2.105880	3.158820	-2.105880	-0.733030	-0.076294	0.660338	-1.000000	-1.000000	-1.000000	-1.000000	-1.000000	-1.000000	-1.000000	56.000000	0.000000	-1.000000	-1.000000	659114.000000	1775778042.676826
5759.280000	877.095000	2701.800000	24411.780000	17605.170000	6323.805000	-22499.595000	-18321.120000	0.113397	-1.651310	-3.530886	-2.293557	-0.717064	-2.450840	1.289495	1.185314	-2.105880	3.158820	-2.105880	-0.733030	-0.076294	0.660338	-1.000000	-1.000000	-1.000000	-1.000000	-1.000000	-1.000000	-1.000000	56.000000	0.000000	-1.000000	-1.000000	659115.000000	1775778042.676852
5751.945000	872.235000	2700.135000	24410.655000	17598.555000	6289.245000	-22511.835000	-18327.915000	3.820912	3.128017	-0.134968	-2.923368	-7.342535	-11.044422	2.579957	4.522065	-2.105880	3.158820	-2.105880	-0.733030	-0.076294	0.660338	-1.000000	-1.000000	-1.000000	-1.000000	-1.000000	-1.000000	-1.000000	56.000000	0.000000	-1.000000	-1.000000	659116.000000	1775778042.676863
5753.745000	875.880000	2703.555000	24412.140000	17606.835000	6296.805000	-22509.315000	-18327.105000	6.055162	6.822724	3.598196	-2.146945	-11.412851	-17.792613	2.071012	6.086457	-2.105880	3.158820	-2.105880	-0.733030	-0.076294	0.660338	-1.000000	-1.000000	-1.000000	-1.000000	-1.000000	-1.000000	-1.000000	56.000000	0.000000	-1.000000	-1.000000	659117.000000	1775778042.685552
5745.330000	872.775000	2704.140000	24420.600000	17621.100000	6349.005000	-22502.790000	-18337.500000	4.890295	7.182966	5.882413	0.416968	-9.697847	-17.250354	0.394464	4.521985	-2.105880	3.158820	-2.105880	-0.733030	-0.076294	0.660338	-1.000000	-1.000000	-1.000000	-1.000000	-1.000000	-1.000000	-1.000000	56.000000	0.000000	-1.000000	-1.000000	659118.000000	1775778042.685585
5741.640000	871.605000	2704.860000	24423.750000	17617.095000	6357.510000	-22498.785000	-18340.560000	0.875552	4.311249	5.911566	3.942051	-2.393864	-5.377647	-0.397922	0.545756	-2.105880	3.158820	-2.105880	-0.733030	-0.076294	0.660338	-1.000000	-1.000000	-1.000000	-1.000000	-1.000000	-1.000000	-1.000000	56.000000	0.000000	-1.000000	-1.000000	659119.000000	1775778042.689807
5750.145000	882.225000	2717.775000	24435.315000	17631.315000	6353.010000	-22491.045000	-18331.425000	-3.485767	0.158423	4.145442	6.836674	6.277270	12.489705	0.637317	-3.428064	-2.105880	3.158820	-2.105880	-0.733030	-0.076294	0.660338	-1.000000	-1.000000	-1.000000	-1.000000	-1.000000	-1.000000	-1.000000	56.000000	0.000000	-1.000000	-1.000000	659120.000000	1775778042.689832
5749.245000	878.625000	2713.680000	24427.665000	17620.605000	6351.480000	-22487.670000	-18327.195000	-5.367197	-2.862067	1.836100	7.495657	11.392488	24.090093	2.546795	-4.653088	-2.105880	3.158820	-2.105880	-0.733030	-0.076294	0.660338	-1.000000	-1.000000	-1.000000	-1.000000	-1.000000	-1.000000	-1.000000	56.000000	0.000000	-1.000000	-1.000000	659121.000000	1775778042.702184
5743.620000	871.110000	2704.725000	24422.130000	17612.685000	6339.465000	-22497.525000	-18333.090000	-4.043447	-3.941333	-0.531720	4.861396	10.328760	21.806305	3.409579	-2.563661	-2.105880	3.158820	-2.105880	-0.733030	-0.076294	0.660338	-1.000000	-1.000000	-1.000000	-1.000000	-1.000000	-1.000000	-1.000000	56.000000	0.000000	-1.000000	-1.000000	659122.000000	1775778042.702265
5748.750000	878.445000	2710.395000	24427.305000	17616.420000	6337.620000	-22497.480000	-18329.355000	-1.240430	-3.920331	-3.198867	-0.468631	3.944934	8.104943	1.739760	0.615827	1.281840	2.868880	-0.396760	-0.725889	-0.076294	0.661619	-1.000000	-1.000000	-1.000000	-1.000000	-1.000000	-1.000000	-1.000000	56.000000	0.000000	-1.000000	-1.000000	659123.000000	1775778042.702298
5757.255000	887.805000	2716.920000	24430.365000	17615.970000	6326.595000	-22496.400000	-18323.190000	1.387895	-3.040471	-5.211510	-5.626158	-3.591009	-8.294085	-1.834996	2.644824	1.281840	2.868880	-0.396760	-0.725889	-0.076294	0.661619	-1.000000	-1.000000	-1.000000	-1.000000	-1.000000	-1.000000	-1.000000	56.000000	0.000000	-1.000000	-1.000000	659124.000000	1775778042.702308
5755.950000	886.995000	2717.505000	24431.895000	17614.620000	6323.670000	-22496.490000	-18326.565000	3.305398	-0.957841	-4.995212	-7.690041	-7.964509	-19.016977	-4.856752	3.010152	1.281840	2.868880	-0.396760	-0.725889	-0.076294	0.661619	-1.000000	-1.000000	-1.000000	-1.000000	-1.000000	-1.000000	-1.000000	56.000000	0.000000	-1.000000	-1.000000	659125.000000	1775778042.702319
5750.460000	883.080000	2720.970000	24436.350000	17619.120000	6332.355000	-22500.990000	-18332.865000	3.862171	1.364099	-2.618603	-6.118091	-7.742476	-20.055173	-5.526377	1.848367	1.281840	2.868880	-0.396760	-0.725889	-0.076294	0.661619	-1.000000	-1.000000	-1.000000	-1.000000	-1.000000	-1.000000	-1.000000	56.000000	0.000000	-1.000000	-1.000000	659126.000000	1775778042.702327
5742.945000	873.045000	2709.450000	24425.865000	17612.055000	6330.555000	-22509.945000	-18339.525000	2.244967	2.009108	0.077391	-2.674496	-4.271991	-12.291071	-4.146294	-0.645461	1.281840	2.868880	-0.396760	-0.725889	-0.076294	0.661619	-1.000000	-1.000000	-1.000000	-1.000000	-1.000000	-1.000000	-1.000000	56.000000	0.000000	-1.000000	-1.000000	659127.000000	1775778042.702338
5743.620000	870.930000	2704.320000	24418.170000	17601.705000	6325.245000	-22508.550000	-18339.255000	-1.069807	0.267782	1.070906	-0.004417	-0.372160	-0.647940	-2.077536	-3.465968	1.281840	2.868880	-0.396760	-0.725889	-0.076294	0.661619	-1.000000	-1.000000	-1.000000	-1.000000	-1.000000	-1.000000	-1.000000	56.000000	0.000000	-1.000000	-1.000000	659128.000000	1775778042.702347
5750.820000	878.490000	2711.700000	24424.605000	17611.020000	6320.835000	-22504.275000	-18335.205000	-3.879636	-2.226713	0.141187	0.606203	1.785556	8.637879	0.065715	-4.789498	1.281840	2.868880	-0.396760	-0.725889	-0.076294	0.661619	-1.000000	-1.000000	-1.000000	-1.000000	-1.000000	-1.000000	-1.000000	56.000000	0.000000	-1.000000	-1.000000	659129.000000	1775778042.708083
5743.035000	871.785000	2706.030000	24421.050000	17628.615000	6347.970000	-22493.340000	-18340.650000	-4.157733	-3.021558	-0.895063	0.305980	2.774167	12.472286	2.607417	-3.512585	1.281840	2.868880	-0.396760	-0.725889	-0.076294	0.661619	-1.000000	-1.000000	-1.000000	-1.000000	-1.000000	-1.000000	-1.000000	56.000000	0.000000	-1.000000	-1.000000	659130.000000	1775778042.708107
5743.755000	873.855000	2709.315000	24424.110000	17629.875000	6350.310000	-22499.280000	-18340.020000	-2.181414	-1.517666	-0.595922	0.672763	4.345659	12.218433	5.287623	-0.517986	1.281840	2.868880	-0.396760	-0.725889	-0.076294	0.661619	-1.000000	-1.000000	-1.000000	-1.000000	-1.000000	-1.000000	-1.000000	56.000000	0.000000	-1.000000	-1.000000	659131.000000	1775778042.721975
5749.290000	878.490000	2713.545000	24429.375000	17621.055000	6335.280000	-22498.920000	-18335.970000	0.389512	1.043756	0.905966	1.985928	5.848344	9.563143	6.498373	2.402415	1.281840	2.868880	-0.396760	-0.725889	-0.076294	0.661619	-1.000000	-1.000000	-1.000000	-1.000000	-1.000000	-1.000000	-1.000000	56.000000	0.000000	-1.000000	-1.000000	659132.000000	1775778042.721998
5749.560000	879.120000	2715.615000	24433.380000	17615.430000	6326.280000	-22500.945000	-18337.095000	2.498365	3.346287	2.777426	3.632340	4.704787	4.015172	4.915629	4.161344	1.617560	1.327620	1.693860	-0.728941	-0.074707	0.663511	-1.000000	-1.000000	-1.000000	-1.000000	-1.000000	-1.000000	-1.000000	56.000000	0.000000	-1.000000	-1.000000	659133.000000	1775778042.722025
5756.490000	885.780000	2721.195000	24436.575000	17617.500000	6330.510000	-22497.030000	-18330.255000	3.726426	4.546606	4.059834	4.662011	0.342537	-3.729738	1.264869	4.486779	1.617560	1.327620	1.693860	-0.728941	-0.074707	0.663511	-1.000000	-1.000000	-1.000000	-1.000000	-1.000000	-1.000000	-1.000000	56.000000	0.000000	-1.000000	-1.000000	659134.000000	1775778042.722037
5755.545000	883.395000	2718.270000	24431.310000	17617.680000	6332.535000	-22497.345000	-18330.750000	3.827328	4.245881	3.984922	4.110211	-4.565582	-9.875173	-2.326188	3.607304	1.617560	1.327620	1.693860	-0.728941	-0.074707	0.663511	-1.000000	-1.000000	-1.000000	-1.000000	-1.000000	-1.000000	-1.000000	56.000000	0.000000	-1.000000	-1.000000	659135.000000	1775778042.722051
5751.135000	881.775000	2718.180000	24430.545000	17616.960000	6330.645000	-22501.980000	-18335.835000	2.603028	2.426807	2.273099	1.602410	-6.920801	-11.012156	-4.305182	1.814306	1.617560	1.327620	1.693860	-0.728941	-0.074707	0.663511	-1.000000	-1.000000	-1.000000	-1.000000	-1.000000	-1.000000	-1.000000	56.000000	0.000000	-1.000000	-1.000000	659136.000000	1775778042.722081
5753.070000	884.205000	2722.185000	24434.685000	17615.295000	6336.765000	-22499.055000	-18332.415000	0.155341	-0.404699	-0.490914	-1.900024	-5.867268	-7.207783	-4.515060	-0.638614	1.617560	1.327620	1.693860	-0.728941	-0.074707	0.663511	-1.000000	-1.000000	-1.000000	-1.000000	-1.000000	-1.000000	-1.000000	56.000000	0.000000	-1.000000	-1.000000	659137.000000	1775778042.722109
5749.920000	878.175000	2712.060000	24424.560000	17600.580000	6321.285000	-22504.005000	-18334.800000	-2.562988	-3.121871	-3.085863	-4.622135	-2.951595	-1.383287	-3.477549	-2.943668	1.617560	1.327620	1.693860	-0.728941	-0.074707	0.663511	-1.000000	-1.000000	-1.000000	-1.000000	-1.000000	-1.000000	-1.000000	56.000000	0.000000	-1.000000	-1.000000	659138.000000	1775778042.722120
5745.015000	873.675000	2705.580000	24419.880000	17609.580000	6327.585000	-22505.040000	-18338.490000	-4.342927	-4.803282	-4.838723	-5.707901	-0.289846	3.020384	-1.875167	-4.162181	1.617560	1.327620	1.693860	-0.728941	-0.074707	0.663511	-1.000000	-1.000000	-1.000000	-1.000000	-1.000000	-1.000000	-1.000000	56.000000	0.000000	-1.000000	-1.000000	659139.000000	1775778042.728188
5744.655000	875.835000	2712.690000	24430.545000	17628.255000	6329.520000	-22504.590000	-18338.895000	-4.646563	-5.080662	-5.436226	-5.096019	1.914320	4.632405	-0.318910	-4.068628	1.617560	1.327620	1.693860	-0.728941	-0.074707	0.663511	-1.000000	-1.000000	-1.000000	-1.000000	-1.000000	-1.000000	-1.000000	56.000000	0.000000	-1.000000	-1.000000	659140.000000	1775778042.728210
5746.230000	878.310000	2716.920000	24436.305000	17635.455000	6318.135000	-22504.815000	-18339.390000	-3.429200	-3.676216	-4.037679	-2.431140	4.842779	4.224590	0.979870	-2.890030	1.617560	1.327620	1.693860	-0.728941	-0.074707	0.663511	-1.000000	-1.000000	-1.000000	-1.000000	-1.000000	-1.000000	-1.000000	56.000000	0.000000	-1.000000	-1.000000	659141.000000	1775778042.729499
5741.460000	874.800000	2713.635000	24427.260000	17628.750000	6334.020000	-22504.500000	-18346.275000	-1.064049	-0.851307	-0.564981	1.642605	7.677684	2.863918	1.972040	-1.106237	1.617560	1.327620	1.693860	-0.728941	-0.074707	0.663511	-1.000000	-1.000000	-1.000000	-1.000000	-1.000000	-1.000000	-1.000000	56.000000	0.000000	-1.000000	-1.000000	659142.000000	1775778042.729515
5745.960000	879.210000	2718.855000	24432.345000	17626.140000	6340.275000	-22504.365000	-18344.295000	1.502512	2.166403	3.243297	4.738206	7.497590	1.852604	2.492938	0.545326	-0.152600	0.137340	1.297100	-0.736265	-0.071594	0.664366	-1.000000	-1.000000	-1.000000	-1.000000	-1.000000	-1.000000	-1.000000	56.000000	0.000000	-1.000000	-1.000000	659143.000000	1775778042.733001
5751.180000	881.595000	2721.150000	24437.070000	17630.010000	6349.050000	-22499.010000	-18338.355000	3.479695	4.169778	5.472336	5.268661	3.191586	2.163803	2.489636	1.805152	-0.152600	0.137340	1.297100	-0.736265	-0.071594	0.664366	-1.000000	-1.000000	-1.000000	-1.000000	-1.000000	-1.000000	-1.000000	56.000000	0.000000	-1.000000	-1.000000	659144.000000	1775778042.733017
5759.415000	887.985000	2724.975000	24437.880000	17631.900000	6339.330000	-22495.005000	-18328.050000	4.727505	4.804867	5.522926	3.848289	-2.761271	2.814153	2.211623	3.136496	-0.152600	0.137340	1.297100	-0.736265	-0.071594	0.664366	-1.000000	-1.000000	-1.000000	-1.000000	-1.000000	-1.000000	-1.000000	56.000000	0.000000	-1.000000	-1.000000	659145.000000	1775778042.739006
5756.220000	885.690000	2722.950000	24433.470000	17623.395000	6319.260000	-22499.775000	-18331.245000	5.056741	4.186156	3.770713	1.599334	-7.039159	1.379351	1.730404	4.532990	-0.152600	0.137340	1.297100	-0.736265	-0.071594	0.664366	-1.000000	-1.000000	-1.000000	-1.000000	-1.000000	-1.000000	-1.000000	56.000000	0.000000	-1.000000	-1.000000	659146.000000	1775778042.739029
5752.755000	883.530000	2722.770000	24435.810000	17619.705000	6341.535000	-22491.045000	-18334.350000	3.757994	2.349144	0.924050	-0.863582	-8.375889	-2.745546	0.780023	4.728683	-0.152600	0.137340	1.297100	-0.736265	-0.071594	0.664366	-1.000000	-1.000000	-1.000000	-1.000000	-1.000000	-1.000000	-1.000000	56.000000	0.000000	-1.000000	-1.000000	659147.000000	1775778042.745893
5747.130000	877.995000	2715.120000	24428.430000	17613.630000	6353.010000	-22494.330000	-18340.650000	0.500044	-0.535719	-2.201028	-2.969651	-7.285218	-6.076862	-0.501507	2.493815	-0.152600	0.137340	1.297100	-0.736265	-0.071594	0.664366	-1.000000	-1.000000	-1.000000	-1.000000	-1.000000	-1.000000	-1.000000	56.000000	0.000000	-1.000000	-1.000000	659148.000000	1775778042.745912
5750.100000	882.405000	2722.545000	24437.520000	17622.810000	6355.620000	-22493.925000	-18337.410000	-3.541121	-3.520899	-4.599305	-4.015495	-4.428354	-4.981815	-1.678154	-1.521528	-0.152600	0.137340	1.297100	-0.736265	-0.071594	0.664366	-1.000000	-1.000000	-1.000000	-1.000000	-1.000000	-1.000000	-1.000000	56.000000	0.000000	-1.000000	-1.000000	659149.000000	1775778042.753612
5749.695000	884.880000	2726.505000	24446.070000	17629.020000	6344.910000	-22492.890000	-18338.085000	-6.134186	-4.994353	-5.029199	-3.217870	-0.091093	-0.775324	-2.513765	-4.952199	-0.152600	0.137340	1.297100	-0.736265	-0.071594	0.664366	-1.000000	-1.000000	-1.000000	-1.000000	-1.000000	-1.000000	-1.000000	56.000000	0.000000	-1.000000	-1.000000	659150.000000	1775778042.753634
5751.585000	887.445000	2722.680000	24438.465000	17632.620000	6346.620000	-22491.540000	-18335.880000	-5.820305	-3.990891	-3.101331	-0.654221	4.866368	2.224361	-2.731706	-5.782521	-0.152600	0.137340	1.297100	-0.736265	-0.071594	0.664366	-1.000000	-1.000000	-1.000000	-1.000000	-1.000000	-1.000000	-1.000000	56.000000	0.000000	-1.000000	-1.000000	659151.000000	1775778042.753661
5749.785000	879.075000	2706.885000	24413.805000	17619.705000	6354.675000	-22489.560000	-18335.115000	-3.060664	-1.376483	-0.498861	1.392878	8.169300	2.102992	-2.109849	-3.867849	-0.152600	0.137340	1.297100	-0.736265	-0.071594	0.664366	-1.000000	-1.000000	-1.000000	-1.000000	-1.000000	-1.000000	-1.000000	56.000000	0.000000	-1.000000	-1.000000	659152.000000	1775778042.753687
5753.025000	884.385000	2718.270000	24425.505000	17625.330000	6357.780000	-22486.320000	-18333.720000	0.421131	0.923457	0.711897	0.627638	7.626371	0.541099	-0.801546	-0.610051	-2.090620	0.473060	1.556520	-0.741392	-0.069885	0.664793	-1.000000	-1.000000	-1.000000	-1.000000	-1.000000	-1.000000	-1.000000	56.000000	0.000000	-1.000000	-1.000000	659153.000000	1775778042.755164
5751.000000	882.495000	2722.860000	24435.495000	17629.290000	6349.185000	-22491.765000	-18338.040000	3.005407	1.907346	0.880766	-1.403447	3.801353	-0.552231	0.586316	2.149111	-2.090620	0.473060	1.556520	-0.741392	-0.069885	0.664793	-1.000000	-1.000000	-1.000000	-1.000000	-1.000000	-1.000000	-1.000000	56.000000	0.000000	-1.000000	-1.000000	659154.000000	1775778042.755184
5756.895000	888.345000	2729.520000	24445.575000	17648.100000	6359.850000	-22488.435000	-18332.415000	3.967150	1.958681	1.736928	-1.057013	-0.102801	-0.963808	1.265644	3.225353	-2.090620	0.473060	1.556520	-0.741392	-0.069885	0.664793	-1.000000	-1.000000	-1.000000	-1.000000	-1.000000	-1.000000	-1.000000	56.000000	0.000000	-1.000000	-1.000000	659155.000000	1775778042.757106
5755.185000	886.500000	2723.085000	24434.955000	17642.160000	6355.350000	-22488.165000	-18332.640000	3.498691	1.740467	3.305665	2.111741	-1.567906	-0.883250	1.075106	2.769559	-2.090620	0.473060	1.556520	-0.741392	-0.069885	0.664793	-1.000000	-1.000000	-1.000000	-1.000000	-1.000000	-1.000000	-1.000000	56.000000	0.000000	-1.000000	-1.000000	659156.000000	1775778042.757123
5752.215000	883.305000	2719.260000	24429.645000	17628.615000	6334.290000	-22495.230000	-18338.490000	2.070459	1.332455	3.769480	4.688301	-1.481541	-0.816439	0.435271	1.533668	-2.090620	0.473060	1.556520	-0.741392	-0.069885	0.664793	-1.000000	-1.000000	-1.000000	-1.000000	-1.000000	-1.000000	-1.000000	56.000000	0.000000	-1.000000	-1.000000	659157.000000	1775778042.761046
5754.465000	888.075000	2728.305000	24440.130000	17638.380000	6344.325000	-22489.785000	-18338.220000	0.109857	0.521573	2.128929	4.003613	-2.254929	-1.606777	-0.312391	-0.071657	-2.090620	0.473060	1.556520	-0.741392	-0.069885	0.664793	-1.000000	-1.000000	-1.000000	-1.000000	-1.000000	-1.000000	-1.000000	56.000000	0.000000	-1.000000	-1.000000	659158.000000	1775778042.761062
5758.065000	893.745000	2736.855000	24450.570000	17640.585000	6355.935000	-22487.040000	-18337.005000	-1.573093	-0.273415	-0.183557	1.344159	-3.792761	-2.177847	-0.632908	-1.530951	-2.090620	0.473060	1.556520	-0.741392	-0.069885	0.664793	-1.000000	-1.000000	-1.000000	-1.000000	-1.000000	-1.000000	-1.000000	56.000000	0.000000	-1.000000	-1.000000	659159.000000	1775778042.768297
5756.895000	894.195000	2735.280000	24447.330000	17617.860000	6326.055000	-22498.245000	-18337.545000	-2.138718	-0.362241	-1.250338	-0.561264	-4.526027	-0.954826	-0.243770	-2.063536	-2.090620	0.473060	1.556520	-0.741392	-0.069885	0.664793	-1.000000	-1.000000	-1.000000	-1.000000	-1.000000	-1.000000	-1.000000	56.000000	0.000000	-1.000000	-1.000000	659160.000000	1775778042.768320
5752.710000	890.280000	2728.035000	24436.035000	17607.870000	6313.635000	-22503.420000	-18340.920000	-1.719479	-0.008477	-1.248698	-1.393125	-4.680644	0.431328	-0.003770	-1.517140	-2.090620	0.473060	1.556520	-0.741392	-0.069885	0.664793	-1.000000	-1.000000	-1.000000	-1.000000	-1.000000	-1.000000	-1.000000	56.000000	0.000000	-1.000000	-1.000000	659161.000000	1775778042.769735
5754.195000	886.590000	2726.865000	24443.370000	17634.510000	6340.635000	-22496.445000	-18344.790000	-1.141872	-0.207587	-1.660225	-2.445104	-4.290261	0.361999	-0.469879	-0.599043	-2.090620	0.473060	1.556520	-0.741392	-0.069885	0.664793	-1.000000	-1.000000	-1.000000	-1.000000	-1.000000	-1.000000	-1.000000	56.000000	0.000000	-1.000000	-1.000000	659162.000000	1775778042.769749
5753.025000	885.375000	2724.885000	24441.030000	17642.475000	6363.270000	-22481.865000	-18340.245000	-0.777901	-1.302746	-2.825418	-3.612020	-1.195517	1.405742	-0.384591	0.070127	-3.113040	1.892240	0.198380	-0.741270	-0.071289	0.663023	-1.000000	-1.000000	-1.000000	-1.000000	-1.000000	-1.000000	-1.000000	56.000000	0.000000	-1.000000	-1.000000	659163.000000	1775778042.774239
5756.085000	886.860000	2722.995000	24435.045000	17633.115000	6357.960000	-22481.820000	-18335.565000	-0.370418	-2.434598	-3.658510	-3.802859	4.739394	5.636414	1.508822	0.712248	-3.113040	1.892240	0.198380	-0.741270	-0.071289	0.663023	-1.000000	-1.000000	-1.000000	-1.000000	-1.000000	-1.000000	-1.000000	56.000000	0.000000	-1.000000	-1.000000	659164.000000	1775778042.774260
5759.685000	891.090000	2729.745000	24441.795000	17631.405000	6336.945000	-22485.645000	-18332.190000	0.388324	-2.376102	-3.033500	-2.750773	9.303250	9.330812	3.953255	1.746691	-3.113040	1.892240	0.198380	-0.741270	-0.071289	0.663023	-1.000000	-1.000000	-1.000000	-1.000000	-1.000000	-1.000000	-1.000000	56.000000	0.000000	-1.000000	-1.000000	659165.000000	1775778042.781395
5752.800000	886.185000	2727.270000	24441.030000	17629.020000	6327.360000	-22494.510000	-18339.840000	1.289177	-0.842705	-0.746735	-0.725741	8.779089	7.022476	4.172011	2.637424	-3.113040	1.892240	0.198380	-0.741270	-0.071289	0.663023	-1.000000	-1.000000	-1.000000	-1.000000	-1.000000	-1.000000	-1.000000	56.000000	0.000000	-1.000000	-1.000000	659166.000000	1775778042.781418
5749.155000	887.130000	2727.135000	24442.920000	17634.420000	6349.725000	-22498.200000	-18344.790000	1.463347	1.099766	2.110895	1.705746	3.930516	-0.791650	1.062935	2.113832	-3.113040	1.892240	0.198380	-0.741270	-0.071289	0.663023	-1.000000	-1.000000	-1.000000	-1.000000	-1.000000	-1.000000	-1.000000	56.000000	0.000000	-1.000000	-1.000000	659167.000000	1775778042.787777
5750.505000	889.470000	2731.230000	24449.940000	17636.310000	6341.670000	-22500.405000	-18345.780000	0.479786	2.260628	3.981292	3.642748	-1.566156	-7.747471	-3.531539	-0.146496	-3.113040	1.892240	0.198380	-0.741270	-0.071289	0.663023	-1.000000	-1.000000	-1.000000	-1.000000	-1.000000	-1.000000	-1.000000	56.000000	0.000000	-1.000000	-1.000000	659168.000000	1775778042.787798
5749.875000	879.930000	2731.545000	24450.570000	17637.480000	6319.260000	-22510.260000	-18348.030000	-0.805505	2.246026	4.228090	4.485516	-4.685837	-9.697608	-6.683008	-2.738460	-3.113040	1.892240	0.198380	-0.741270	-0.071289	0.663023	-1.000000	-1.000000	-1.000000	-1.000000	-1.000000	-1.000000	-1.000000	56.000000	0.000000	-1.000000	-1.000000	659169.000000	1775778042.787969
5745.150000	879.165000	2722.185000	24436.035000	17636.760000	6328.215000	-22497.660000	-18348.030000	-1.356581	1.085088	2.960018	3.698289	-4.879924	-7.975279	-6.605059	-3.889662	-3.113040	1.892240	0.198380	-0.741270	-0.071289	0.663023	-1.000000	-1.000000	-1.000000	-1.000000	-1.000000	-1.000000	-1.000000	56.000000	0.000000	-1.000000	-1.000000	659170.000000	1775778042.787988
5745.960000	886.860000	2725.920000	24426.900000	17630.640000	6341.985000	-22486.230000	-18342.765000	-1.061081	-0.475489	0.524434	0.690001	-3.482963	-4.306710	-2.888372	-2.862122	-3.113040	1.892240	0.198380	-0.741270	-0.071289	0.663023	-1.000000	-1.000000	-1.000000	-1.000000	-1.000000	-1.000000	-1.000000	56.000000	0.000000	-1.000000	-1.000000	659171.000000	1775778042.794694
5750.055000	886.455000	2725.560000	24430.905000	17614.305000	6337.980000	-22488.840000	-18342.090000	-0.199844	-1.015201	-1.959384	-3.561220	-2.377614	1.033431	3.120215	-0.156390	-3.113040	1.892240	0.198380	-0.741270	-0.071289	0.663023	-1.000000	-1.000000	-1.000000	-1.000000	-1.000000	-1.000000	-1.000000	56.000000	0.000000	-1.000000	-1.000000	659172.000000	1775778042.794716
5742.405000	877.770000	2716.695000	24423.705000	17601.660000	6335.460000	-22491.675000	-18350.730000	0.908462	-0.293009	-3.239555	-6.272089	-2.775111	6.170481	7.888437	2.584998	-1.556520	3.067260	-0.427280	-0.733946	-0.074341	0.661375	-1.000000	-1.000000	-1.000000	-1.000000	-1.000000	-1.000000	-1.000000	56.000000	0.000000	-1.000000	-1.000000	659173.000000	1775778042.795254
5749.785000	885.285000	2725.785000	24435.630000	17623.080000	6333.255000	-22492.395000	-18344.340000	1.674253	0.481223	-3.054646	-5.395839	-3.601957	8.139116	8.251953	3.583964	-1.556520	3.067260	-0.427280	-0.733946	-0.074341	0.661375	-1.000000	-1.000000	-1.000000	-1.000000	-1.000000	-1.000000	-1.000000	56.000000	0.000000	-1.000000	-1.000000	659174.000000	1775778042.795270
5750.280000	882.990000	2724.210000	24443.010000	17642.610000	6342.120000	-22491.765000	-18343.980000	1.853974	0.669539	-1.596895	-1.076870	-1.594828	6.251402	4.327793	2.695222	-1.556520	3.067260	-0.427280	-0.733946	-0.074341	0.661375	-1.000000	-1.000000	-1.000000	-1.000000	-1.000000	-1.000000	-1.000000	56.000000	0.000000	-1.000000	-1.000000	659175.000000	1775778042.805109
5741.055000	875.385000	2718.180000	24437.205000	17646.300000	6361.155000	-22491.090000	-18354.780000	1.502932	0.405417	0.488104	4.454559	4.500401	2.897118	-1.041218	0.946452	-1.556520	3.067260	-0.427280	-0.733946	-0.074341	0.661375	-1.000000	-1.000000	-1.000000	-1.000000	-1.000000	-1.000000	-1.000000	56.000000	0.000000	-1.000000	-1.000000	659176.000000	1775778042.805131
5742.630000	876.870000	2719.800000	24436.620000	17640.225000	6365.430000	-22489.290000	-18353.070000	0.375737	-0.335935	1.885053	7.724011	10.770681	0.929746	-4.855764	-1.039269	-1.556520	3.067260	-0.427280	-0.733946	-0.074341	0.661375	-1.000000	-1.000000	-1.000000	-1.000000	-1.000000	-1.000000	-1.000000	56.000000	0.000000	-1.000000	-1.000000	659177.000000	1775778042.805158
5748.345000	882.495000	2726.010000	24442.965000	17637.480000	6356.430000	-22488.570000	-18349.155000	-1.104486	-1.073198	2.090807	6.822287	11.706260	0.398356	-5.734824	-2.531367	-1.556520	3.067260	-0.427280	-0.733946	-0.074341	0.661375	-1.000000	-1.000000	-1.000000	-1.000000	-1.000000	-1.000000	-1.000000	56.000000	0.000000	-1.000000	-1.000000	659178.000000	1775778042.805170
5747.805000	881.595000	2723.625000	24436.980000	17631.810000	6352.785000	-22488.120000	-18350.100000	-1.688119	-0.858921	1.793247	2.942418	5.861205	-1.033979	-4.138573	-2.495080	-1.556520	3.067260	-0.427280	-0.733946	-0.074341	0.661375	-1.000000	-1.000000	-1.000000	-1.000000	-1.000000	-1.000000	-1.000000	56.000000	0.000000	-1.000000	-1.000000	659179.000000	1775778042.811435
5751.675000	884.115000	2723.445000	24435.315000	17633.430000	6350.445000	-22485.555000	-18346.320000	-0.935612	0.320142	1.383607	-1.588399	-3.190802	-4.336203	-1.495888	-0.912347	-1.556520	3.067260	-0.427280	-0.733946	-0.074341	0.661375	-1.000000	-1.000000	-1.000000	-1.000000	-1.000000	-1.000000	-1.000000	56.000000	0.000000	-1.000000	-1.000000	659180.000000	1775778042.811457
5759.370000	894.060000	2733.300000	24444.270000	17639.100000	6347.295000	-22484.790000	-18341.055000	0.515231	1.670896	0.819931	-4.836077	-10.050888	-7.673180	0.868238	1.215369	-1.556520	3.067260	-0.427280	-0.733946	-0.074341	0.661375	-1.000000	-1.000000	-1.000000	-1.000000	-1.000000	-1.000000	-1.000000	56.000000	0.000000	-1.000000	-1.000000	659181.000000	1775778042.811480
5756.580000	893.745000	2737.575000	24449.670000	17638.380000	6342.210000	-22486.995000	-18344.565000	1.789693	2.600780	0.487526	-5.330478	-11.289221	-8.682123	2.143032	2.758120	-1.556520	3.067260	-0.427280	-0.733946	-0.074341	0.661375	-1.000000	-1.000000	-1.000000	-1.000000	-1.000000	-1.000000	-1.000000	56.000000	0.000000	-1.000000	-1.000000	659182.000000	1775778042.811492
5750.370000	889.605000	2733.435000	24447.465000	17638.695000	6344.730000	-22491.405000	-18349.605000	1.858467	2.480888	0.492979	-3.107066	-7.403287	-6.533236	1.970172	2.695916	-0.137340	2.105880	0.350980	-0.728392	-0.077087	0.661070	-1.000000	-1.000000	-1.000000	-1.000000	-1.000000	-1.000000	-1.000000	56.000000	0.000000	-1.000000	-1.000000	659183.000000	1775778042.819777
5753.700000	891.090000	2735.550000	24448.140000	17643.465000	6354.495000	-22493.835000	-18346.770000	0.206795	0.782437	0.067635	-0.149625	-1.499312	-1.805281	0.576911	0.811166	-0.137340	2.105880	0.350980	-0.728392	-0.077087	0.661070	-1.000000	-1.000000	-1.000000	-1.000000	-1.000000	-1.000000	-1.000000	56.000000	0.000000	-1.000000	-1.000000	659184.000000	1775778042.819798
5760.135000	897.885000	2741.535000	24451.110000	17640.495000	6347.520000	-22491.270000	-18341.100000	-1.990827	-1.713487	-1.065324	1.543002	3.394371	3.887092	-1.045316	-1.531039	-0.137340	2.105880	0.350980	-0.728392	-0.077087	0.661070	-1.000000	-1.000000	-1.000000	-1.000000	-1.000000	-1.000000	-1.000000	56.000000	0.000000	-1.000000	-1.000000	659185.000000	1775778042.819821
5757.660000	897.705000	2741.355000	24450.255000	17641.620000	6350.850000	-22491.630000	-18344.295000	-2.889647	-3.275576	-2.063402	1.563984	5.581931	7.990287	-1.660027	-2.579722	-0.137340	2.105880	0.350980	-0.728392	-0.077087	0.661070	-1.000000	-1.000000	-1.000000	-1.000000	-1.000000	-1.000000	-1.000000	56.000000	0.000000	-1.000000	-1.000000	659186.000000	1775778042.819830
5755.545000	896.760000	2743.560000	24457.275000	17643.195000	6361.560000	-22487.940000	-18345.510000	-2.170711	-3.154053	-2.245483	0.705905	4.967756	8.838345	-0.801256	-2.102272	-0.137340	2.105880	0.350980	-0.728392	-0.077087	0.661070	-1.000000	-1.000000	-1.000000	-1.000000	-1.000000	-1.000000	-1.000000	56.000000	0.000000	-1.000000	-1.000000	659187.000000	1775778042.824991
5755.140000	894.465000	2741.490000	24455.610000	17644.230000	6353.505000	-22486.365000	-18345.780000	-0.950919	-2.100981	-1.792570	-0.052691	2.785462	6.874069	0.948944	-1.106539	-0.137340	2.105880	0.350980	-0.728392	-0.077087	0.661070	-1.000000	-1.000000	-1.000000	-1.000000	-1.000000	-1.000000	-1.000000	56.000000	0.000000	-1.000000	-1.000000	659188.000000	1775778042.825010
5759.460000	897.480000	2746.350000	24460.785000	17647.470000	6348.780000	-22485.690000	-18341.190000	-0.017889	-1.058418	-1.143772	-0.288716	0.550068	3.061966	2.499305	-0.251209	-0.137340	2.105880	0.350980	-0.728392	-0.077087	0.661070	-1.000000	-1.000000	-1.000000	-1.000000	-1.000000	-1.000000	-1.000000	56.000000	0.000000	-1.000000	-1.000000	659189.000000	1775778042.826306
5752.620000	889.920000	2737.485000	24449.760000	17634.105000	6331.815000	-22491.675000	-18344.160000	0.588156	-0.357026	-0.590479	-0.358841	-1.068494	-1.950616	2.797428	0.466245	-0.137340	2.105880	0.350980	-0.728392	-0.077087	0.661070	-1.000000	-1.000000	-1.000000	-1.000000	-1.000000	-1.000000	-1.000000	56.000000	0.000000	-1.000000	-1.000000	659190.000000	1775778042.826324
5751.630000	888.570000	2732.940000	24441.210000	17621.820000	6317.235000	-22491.495000	-18344.025000	0.754837	-0.090715	-0.513670	-1.080613	-2.605583	-7.098648	1.432099	0.945868	-0.137340	2.105880	0.350980	-0.728392	-0.077087	0.661070	-1.000000	-1.000000	-1.000000	-1.000000	-1.000000	-1.000000	-1.000000	56.000000	0.000000	-1.000000	-1.000000	659191.000000	1775778042.835705
5750.595000	885.825000	2726.910000	24432.930000	17617.230000	6328.845000	-22491.630000	-18347.805000	0.398397	-0.167680	-1.090668	-2.743383	-4.448903	-10.230662	-0.816410	0.872604	-0.137340	2.105880	0.350980	-0.728392	-0.077087	0.661070	-1.000000	-1.000000	-1.000000	-1.000000	-1.000000	-1.000000	-1.000000	56.000000	0.000000	-1.000000	-1.000000	659192.000000	1775778042.835783
5749.245000	882.045000	2722.680000	24430.590000	17625.915000	6347.025000	-22490.865000	-18350.190000	-0.056779	-0.185394	-1.756142	-4.258902	-5.242653	-8.391285	-2.464815	0.192395	0.961380	1.678600	0.656180	-0.728331	-0.076843	0.661314	-1.000000	-1.000000	-1.000000	-1.000000	-1.000000	-1.000000	-1.000000	56.000000	0.000000	-1.000000	-1.000000	659193.000000	1775778042.835826
5753.295000	885.240000	2728.980000	24441.660000	17647.200000	6353.550000	-22491.990000	-18347.805000	-0.050958	0.220709	-1.483648	-3.733572	-2.723555	-0.790005	-2.621254	-0.644904	0.961380	1.678600	0.656180	-0.728331	-0.076843	0.661314	-1.000000	-1.000000	-1.000000	-1.000000	-1.000000	-1.000000	-1.000000	56.000000	0.000000	-1.000000	-1.000000	659194.000000	1775778042.835838
5752.485000	888.255000	2735.280000	24449.760000	17663.130000	6369.210000	-22489.965000	-18348.795000	0.609611	1.243271	0.514369	-0.061983	3.609142	8.869974	-1.499490	-0.916236	0.961380	1.678600	0.656180	-0.728331	-0.076843	0.661314	-1.000000	-1.000000	-1.000000	-1.000000	-1.000000	-1.000000	-1.000000	56.000000	0.000000	-1.000000	-1.000000	659195.000000	1775778042.842402
5749.245000	890.190000	2739.510000	24452.010000	17664.255000	6366.915000	-22488.660000	-18352.080000	1.446699	2.699459	3.857809	5.484820	10.674251	14.905934	0.130218	-0.411495	0.961380	1.678600	0.656180	-0.728331	-0.076843	0.661314	-1.000000	-1.000000	-1.000000	-1.000000	-1.000000	-1.000000	-1.000000	56.000000	0.000000	-1.000000	-1.000000	659196.000000	1775778042.842422
5747.760000	888.345000	2736.315000	24443.370000	17640.810000	6351.345000	-22482.180000	-18351.405000	1.598569	3.745449	6.623169	9.380811	12.979880	13.421811	1.611666	0.334579	0.961380	1.678600	0.656180	-0.728331	-0.076843	0.661314	-1.000000	-1.000000	-1.000000	-1.000000	-1.000000	-1.000000	-1.000000	56.000000	0.000000	-1.000000	-1.000000	659197.000000	1775778042.842447
5750.730000	891.450000	2737.935000	24445.845000	17631.765000	6350.400000	-22485.735000	-18350.595000	0.855692	3.474417	6.698137	8.647540	7.023920	4.502578	2.495882	0.851555	0.961380	1.678600	0.656180	-0.728331	-0.076843	0.661314	-1.000000	-1.000000	-1.000000	-1.000000	-1.000000	-1.000000	-1.000000	56.000000	0.000000	-1.000000	-1.000000	659198.000000	1775778042.842458
5753.925000	890.955000	2731.050000	24441.120000	17614.980000	6333.210000	-22490.595000	-18347.940000	-0.015439	1.853222	3.611802	3.623452	-4.760611	-7.345010	2.213175	1.159362	0.961380	1.678600	0.656180	-0.728331	-0.076843	0.661314	-1.000000	-1.000000	-1.000000	-1.000000	-1.000000	-1.000000	-1.000000	56.000000	0.000000	-1.000000	-1.000000	659199.000000	1775778042.856214
5758.335000	898.065000	2740.320000	24449.130000	17627.580000	6328.935000	-22492.035000	-18346.185000	-0.183012	-0.219847	-1.026112	-2.473723	-15.134952	-16.117747	0.485428	1.397483	0.961380	1.678600	0.656180	-0.728331	-0.076843	0.661314	-1.000000	-1.000000	-1.000000	-1.000000	-1.000000	-1.000000	-1.000000	56.000000	0.000000	-1.000000	-1.000000	659200.000000	1775778042.856238
5749.785000	892.170000	2737.755000	24444.630000	17642.340000	6365.430000	-22488.255000	-18354.510000	0.198238	-1.780293	-4.621056	-6.306537	-17.107778	-17.216457	-1.757577	1.315478	0.961380	1.678600	0.656180	-0.728331	-0.076843	0.661314	-1.000000	-1.000000	-1.000000	-1.000000	-1.000000	-1.000000	-1.000000	56.000000	0.000000	-1.000000	-1.000000	659201.000000	1775778042.856266
5749.245000	892.755000	2738.835000	24445.440000	17645.580000	6354.090000	-22492.665000	-18357.030000	0.088929	-2.639516	-5.600569	-6.703855	-9.077778	-9.302795	-2.968043	0.349004	0.961380	1.678600	0.656180	-0.728331	-0.076843	0.661314	-1.000000	-1.000000	-1.000000	-1.000000	-1.000000	-1.000000	-1.000000	56.000000	0.000000	-1.000000	-1.000000	659202.000000	1775778042.856278
5752.215000	890.370000	2734.740000	24447.420000	17649.810000	6343.245000	-22481.505000	-18348.255000	-0.884671	-3.066331	-4.413891	-4.630115	3.629959	2.788587	-2.392836	-1.197957	0.885080	-0.366240	1.953280	-0.735411	-0.074829	0.663634	-1.000000	-1.000000	-1.000000	-1.000000	-1.000000	-1.000000	-1.000000	56.000000	0.000000	-1.000000	-1.000000	659203.000000	1775778042.856292
5750.235000	887.760000	2730.645000	24446.070000	17648.730000	6339.015000	-22482.315000	-18349.425000	-1.794923	-3.081884	-2.538872	-1.656982	13.139971	10.821710	-0.324121	-1.905680	0.885080	-0.366240	1.953280	-0.735411	-0.074829	0.663634	-1.000000	-1.000000	-1.000000	-1.000000	-1.000000	-1.000000	-1.000000	56.000000	0.000000	-1.000000	-1.000000	659204.000000	1775778042.856303
5754.510000	895.500000	2742.165000	24454.350000	17650.710000	6335.010000	-22487.220000	-18348.300000	-1.729869	-2.406126	-0.861618	1.019435	14.866999	10.965346	1.943227	-1.108844	0.885080	-0.366240	1.953280	-0.735411	-0.074829	0.663634	-1.000000	-1.000000	-1.000000	-1.000000	-1.000000	-1.000000	-1.000000	56.000000	0.000000	-1.000000	-1.000000	659205.000000	1775778042.858195
5749.155000	888.435000	2737.710000	24446.160000	17645.670000	6339.870000	-22489.200000	-18354.195000	-0.755687	-0.871416	0.789818	2.700190	9.403393	5.824859	2.658021	0.197767	0.885080	-0.366240	1.953280	-0.735411	-0.074829	0.663634	-1.000000	-1.000000	-1.000000	-1.000000	-1.000000	-1.000000	-1.000000	56.000000	0.000000	-1.000000	-1.000000	659206.000000	1775778042.858211
5746.590000	883.125000	2730.555000	24444.765000	17633.475000	6336.630000	-22488.165000	-18356.040000	0.259681	0.794089	2.182881	2.832636	0.466935	0.299898	1.362161	0.660578	0.885080	-0.366240	1.953280	-0.735411	-0.074829	0.663634	-1.000000	-1.000000	-1.000000	-1.000000	-1.000000	-1.000000	-1.000000	56.000000	0.000000	-1.000000	-1.000000	659207.000000	1775778042.862712
5748.975000	892.710000	2742.030000	24455.790000	17629.245000	6327.270000	-22492.755000	-18359.280000	0.596977	1.642615	2.504965	1.597074	-7.843354	-2.737298	-0.725118	-0.050605	0.885080	-0.366240	1.953280	-0.735411	-0.074829	0.663634	-1.000000	-1.000000	-1.000000	-1.000000	-1.000000	-1.000000	-1.000000	56.000000	0.000000	-1.000000	-1.000000	659208.000000	1775778042.862730
5756.175000	900.810000	2749.230000	24460.560000	17646.705000	6356.520000	-22485.600000	-18352.710000	0.619977	2.101287	2.182316	0.491439	-11.919860	-2.886941	-2.081243	-1.010772	0.885080	-0.366240	1.953280	-0.735411	-0.074829	0.663634	-1.000000	-1.000000	-1.000000	-1.000000	-1.000000	-1.000000	-1.000000	56.000000	0.000000	-1.000000	-1.000000	659209.000000	1775778042.869591
5755.860000	896.760000	2742.165000	24449.985000	17657.280000	6373.845000	-22482.135000	-18348.930000	1.092644	2.892120	2.089450	0.362311	-9.428216	-0.000534	-1.769426	-0.907460	0.885080	-0.366240	1.953280	-0.735411	-0.074829	0.663634	-1.000000	-1.000000	-1.000000	-1.000000	-1.000000	-1.000000	-1.000000	56.000000	0.000000	-1.000000	-1.000000	659210.000000	1775778042.869615
5754.285000	894.960000	2743.830000	24458.895000	17669.385000	6372.900000	-22482.405000	-18350.505000	1.782662	3.215336	1.684872	0.289657	-1.485550	4.810933	0.023335	0.525612	0.885080	-0.366240	1.953280	-0.735411	-0.074829	0.663634	-1.000000	-1.000000	-1.000000	-1.000000	-1.000000	-1.000000	-1.000000	56.000000	0.000000	-1.000000	-1.000000	659211.000000	1775778042.871448
5748.795000	888.975000	2737.935000	24452.595000	17657.730000	6365.610000	-22483.845000	-18355.725000	1.619446	1.831433	0.151799	-0.425523	6.907229	7.502656	1.854758	1.965677	0.885080	-0.366240	1.953280	-0.735411	-0.074829	0.663634	-1.000000	-1.000000	-1.000000	-1.000000	-1.000000	-1.000000	-1.000000	56.000000	0.000000	-1.000000	-1.000000	659212.000000	1775778042.871475
5742.630000	880.830000	2727.945000	24439.770000	17639.685000	6350.490000	-22488.120000	-18360.675000	0.021346	-1.183303	-2.271104	-1.664790	9.870741	4.386014	2.211066	1.835908	-0.564620	-0.793520	0.793520	-0.742002	-0.073303	0.663878	-1.000000	-1.000000	-1.000000	-1.000000	-1.000000	-1.000000	-1.000000	56.000000	0.000000	-1.000000	-1.000000	659213.000000	1775778042.874099
5744.160000	882.585000	2725.965000	24431.535000	17632.620000	6355.710000	-22484.970000	-18356.895000	-2.283440	-4.334227	-4.613795	-3.373499	5.172811	-3.593748	0.881831	0.103336	-0.564620	-0.793520	0.793520	-0.742002	-0.073303	0.663878	-1.000000	-1.000000	-1.000000	-1.000000	-1.000000	-1.000000	-1.000000	56.000000	0.000000	-1.000000	-1.000000	659214.000000	1775778042.874116
5750.685000	891.495000	2735.820000	24441.165000	17637.165000	6347.430000	-22486.230000	-18351.990000	-3.518579	-5.434041	-5.299855	-4.631676	-3.384275	-11.249499	-0.953385	-1.554272	-0.564620	-0.793520	0.793520	-0.742002	-0.073303	0.663878	-1.000000	-1.000000	-1.000000	-1.000000	-1.000000	-1.000000	-1.000000	56.000000	0.000000	-1.000000	-1.000000	659215.000000	1775778042.887168
5746.725000	888.930000	2735.235000	24444.045000	17642.070000	6352.605000	-22492.620000	-18356.625000	-2.451681	-3.263525	-3.031168	-3.490672	-9.042723	-13.680301	-2.092370	-1.657770	-0.564620	-0.793520	0.793520	-0.742002	-0.073303	0.663878	-1.000000	-1.000000	-1.000000	-1.000000	-1.000000	-1.000000	-1.000000	56.000000	0.000000	-1.000000	-1.000000	659216.000000	1775778042.887193
5748.345000	891.045000	2737.395000	24445.755000	17647.560000	6366.465000	-22487.085000	-18357.030000	0.147034	0.867016	1.364135	0.509119	-7.928102	-9.489043	-2.231219	-0.567148	-0.564620	-0.793520	0.793520	-0.742002	-0.073303	0.663878	-1.000000	-1.000000	-1.000000	-1.000000	-1.000000	-1.000000	-1.000000	56.000000	0.000000	-1.000000	-1.000000	659217.000000	1775778042.887218
5749.380000	891.000000	2737.890000	24445.305000	17643.060000	6359.220000	-22489.920000	-18359.010000	2.439210	4.249072	5.255064	5.115440	-1.661004	-0.901392	-1.431839	0.402982	-0.564620	-0.793520	0.793520	-0.742002	-0.073303	0.663878	-1.000000	-1.000000	-1.000000	-1.000000	-1.000000	-1.000000	-1.000000	56.000000	0.000000	-1.000000	-1.000000	659218.000000	1775778042.887229
5751.675000	892.170000	2740.545000	24449.805000	17652.510000	6361.380000	-22486.725000	-18357.660000	3.345813	5.177598	6.572072	7.519710	5.040005	7.301963	0.038863	0.631081	-0.564620	-0.793520	0.793520	-0.742002	-0.073303	0.663878	-1.000000	-1.000000	-1.000000	-1.000000	-1.000000	-1.000000	-1.000000	56.000000	0.000000	-1.000000	-1.000000	659219.000000	1775778042.889161
5753.160000	892.260000	2742.435000	24453.855000	17663.715000	6369.660000	-22479.615000	-18353.520000	2.887201	3.719258	5.112376	6.763804	8.740125	11.083846	1.663726	0.478408	-0.564620	-0.793520	0.793520	-0.742002	-0.073303	0.663878	-1.000000	-1.000000	-1.000000	-1.000000	-1.000000	-1.000000	-1.000000	56.000000	0.000000	-1.000000	-1.000000	659220.000000	1775778042.889181
5752.755000	890.595000	2739.330000	24452.415000	17654.850000	6366.645000	-22479.075000	-18351.090000	1.574668	1.016167	1.988220	3.748639	8.665442	9.922568	2.985561	0.584690	-0.564620	-0.793520	0.793520	-0.742002	-0.073303	0.663878	-1.000000	-1.000000	-1.000000	-1.000000	-1.000000	-1.000000	-1.000000	56.000000	0.000000	-1.000000	-1.000000	659221.000000	1775778042.893342
5752.620000	892.755000	2740.860000	24454.755000	17635.410000	6348.465000	-22483.845000	-18352.350000	-0.062170	-1.589305	-1.421595	-0.080707	4.784245	5.238439	3.311120	0.998226	-0.564620	-0.793520	0.793520	-0.742002	-0.073303	0.663878	-1.000000	-1.000000	-1.000000	-1.000000	-1.000000	-1.000000	-1.000000	56.000000	0.000000	-1.000000	-1.000000	659222.000000	1775778042.893363
5753.970000	895.095000	2742.795000	24453.585000	17637.030000	6348.285000	-22485.105000	-18353.340000	-1.524839	-3.024979	-3.866053	-3.418074	-2.100482	-1.311748	1.935621	1.075561	-1.770160	1.083460	0.732480	-0.739134	-0.072143	0.663817	-1.000000	-1.000000	-1.000000	-1.000000	-1.000000	-1.000000	-1.000000	56.000000	0.000000	-1.000000	-1.000000	659223.000000	1775778042.896174
5756.220000	896.445000	2743.110000	24447.870000	17640.675000	6342.480000	-22484.745000	-18352.215000	-2.294581	-2.859492	-4.512274	-5.434834	-8.515023	-7.097546	-0.707429	0.374406	-1.770160	1.083460	0.732480	-0.739134	-0.072143	0.663817	-1.000000	-1.000000	-1.000000	-1.000000	-1.000000	-1.000000	-1.000000	56.000000	0.000000	-1.000000	-1.000000	659224.000000	1775778042.896190
5758.020000	900.720000	2748.960000	24456.645000	17646.435000	6330.420000	-22487.265000	-18352.080000	-2.083413	-1.498199	-3.368473	-5.819773	-10.196214	-9.462973	-3.096456	-0.739848	-1.770160	1.083460	0.732480	-0.739134	-0.072143	0.663817	-1.000000	-1.000000	-1.000000	-1.000000	-1.000000	-1.000000	-1.000000	56.000000	0.000000	-1.000000	-1.000000	659225.000000	1775778042.898740
5758.110000	903.105000	2750.400000	24457.095000	17649.360000	6330.825000	-22493.070000	-18353.970000	-1.136125	0.215635	-1.145458	-4.359840	-6.118973	-7.843916	-4.094816	-1.588538	-1.770160	1.083460	0.732480	-0.739134	-0.072143	0.663817	-1.000000	-1.000000	-1.000000	-1.000000	-1.000000	-1.000000	-1.000000	56.000000	0.000000	-1.000000	-1.000000	659226.000000	1775778042.898757
5761.170000	907.785000	2755.935000	24459.570000	17665.335000	6367.005000	-22487.580000	-18351.765000	-0.060832	1.519780	1.140497	-1.424228	1.049063	-2.702833	-3.544812	-1.806694	-1.770160	1.083460	0.732480	-0.739134	-0.072143	0.663817	-1.000000	-1.000000	-1.000000	-1.000000	-1.000000	-1.000000	-1.000000	56.000000	0.000000	-1.000000	-1.000000	659227.000000	1775778042.904245
5754.375000	899.415000	2750.220000	24459.030000	17660.385000	6382.305000	-22485.420000	-18357.390000	0.543400	1.799849	2.445685	1.596009	7.413320	5.539175	-1.619236	-1.438539	-1.770160	1.083460	0.732480	-0.739134	-0.072143	0.663817	-1.000000	-1.000000	-1.000000	-1.000000	-1.000000	-1.000000	-1.000000	56.000000	0.000000	-1.000000	-1.000000	659228.000000	1775778042.904268
5748.030000	891.180000	2742.660000	24453.495000	17646.795000	6387.030000	-22482.900000	-18363.420000	0.174728	0.511164	1.928572	3.156269	9.458079	13.968415	1.168235	-0.963699	-1.770160	1.083460	0.732480	-0.739134	-0.072143	0.663817	-1.000000	-1.000000	-1.000000	-1.000000	-1.000000	-1.000000	-1.000000	56.000000	0.000000	-1.000000	-1.000000	659229.000000	1775778042.910014
5749.695000	892.980000	2743.740000	24454.215000	17644.095000	6362.010000	-22486.545000	-18362.340000	-1.057789	-2.022015	-0.326441	2.632180	5.687302	16.604471	3.542541	-0.804682	-1.770160	1.083460	0.732480	-0.739134	-0.072143	0.663817	-1.000000	-1.000000	-1.000000	-1.000000	-1.000000	-1.000000	-1.000000	56.000000	0.000000	-1.000000	-1.000000	659230.000000	1775778042.910034
5742.495000	886.050000	2737.395000	24450.480000	17650.575000	6352.560000	-22489.920000	-18368.145000	-2.114361	-4.121724	-2.827812	0.754114	-1.338643	9.429089	4.085999	-0.706331	-1.770160	1.083460	0.732480	-0.739134	-0.072143	0.663817	-1.000000	-1.000000	-1.000000	-1.000000	-1.000000	-1.000000	-1.000000	56.000000	0.000000	-1.000000	-1.000000	659231.000000	1775778042.910059
5742.675000	887.895000	2740.095000	24452.055000	17651.700000	6356.025000	-22485.105000	-18367.200000	-2.070250	-4.216298	-3.834015	-1.030086	-6.594995	-4.394960	2.560883	-0.224691	-1.770160	1.083460	0.732480	-0.739134	-0.072143	0.663817	-1.000000	-1.000000	-1.000000	-1.000000	-1.000000	-1.000000	-1.000000	56.000000	0.000000	-1.000000	-1.000000	659232.000000	1775778042.910070
5743.575000	891.945000	2747.520000	24456.600000	17649.045000	6351.660000	-22487.580000	-18366.975000	-0.805637	-2.025394	-2.514424	-1.549286	-7.177002	-16.216506	0.243182	0.736352	-2.090620	2.136400	1.632820	-0.732603	-0.072754	0.662901	-1.000000	-1.000000	-1.000000	-1.000000	-1.000000	-1.000000	-1.000000	56.000000	0.000000	-1.000000	-1.000000	659233.000000	1775778042.913802
5747.985000	895.860000	2752.470000	24461.820000	17647.515000	6349.455000	-22486.185000	-18363.645000	1.327968	1.641472	0.826405	-0.414203	-4.128901	-19.412296	-1.435017	2.011369	-2.090620	2.136400	1.632820	-0.732603	-0.072754	0.662901	-1.000000	-1.000000	-1.000000	-1.000000	-1.000000	-1.000000	-1.000000	56.000000	0.000000	-1.000000	-1.000000	659234.000000	1775778042.913816
5745.780000	896.760000	2753.595000	24465.510000	17651.295000	6356.655000	-22489.470000	-18366.345000	3.533078	5.156953	4.561002	1.720899	-0.173521	-13.614833	-2.022174	3.107627	-2.090620	2.136400	1.632820	-0.732603	-0.072754	0.662901	-1.000000	-1.000000	-1.000000	-1.000000	-1.000000	-1.000000	-1.000000	56.000000	0.000000	-1.000000	-1.000000	659235.000000	1775778042.919291
5742.225000	893.835000	2751.030000	24463.125000	17649.000000	6350.220000	-22495.770000	-18372.105000	4.564057	6.664035	6.387640	3.368027	2.758806	-2.997477	-1.939345	3.181807	-2.090620	2.136400	1.632820	-0.732603	-0.072754	0.662901	-1.000000	-1.000000	-1.000000	-1.000000	-1.000000	-1.000000	-1.000000	56.000000	0.000000	-1.000000	-1.000000	659236.000000	1775778042.919316
5755.275000	892.530000	2740.995000	24453.360000	17645.355000	6341.535000	-22490.190000	-18363.915000	3.823665	5.222384	4.846927	2.996142	3.833860	6.680200	-1.672756	1.886007	-2.090620	2.136400	1.632820	-0.732603	-0.072754	0.662901	-1.000000	-1.000000	-1.000000	-1.000000	-1.000000	-1.000000	-1.000000	56.000000	0.000000	-1.000000	-1.000000	659237.000000	1775778042.924927
5758.560000	894.420000	2740.635000	24448.455000	17643.645000	6349.770000	-22483.350000	-18356.490000	2.268806	1.630379	0.456601	0.164387	2.985124	11.298868	-0.908376	0.288339	-2.090620	2.136400	1.632820	-0.732603	-0.072754	0.662901	-1.000000	-1.000000	-1.000000	-1.000000	-1.000000	-1.000000	-1.000000	56.000000	0.000000	-1.000000	-1.000000	659238.000000	1775778042.924950
5756.805000	896.715000	2746.305000	24453.405000	17656.515000	6363.225000	-22482.135000	-18357.165000	0.945827	-2.026544	-4.151474	-3.534321	1.266119	11.008078	0.808022	-0.302447	-2.090620	2.136400	1.632820	-0.732603	-0.072754	0.662901	-1.000000	-1.000000	-1.000000	-1.000000	-1.000000	-1.000000	-1.000000	56.000000	0.000000	-1.000000	-1.000000	659239.000000	1775778042.925438
5758.785000	899.640000	2750.895000	24459.615000	17663.805000	6373.710000	-22479.075000	-18356.580000	-0.353940	-3.912578	-5.903050	-5.241951	0.488676	8.756551	2.768525	-0.126790	-2.090620	2.136400	1.632820	-0.732603	-0.072754	0.662901	-1.000000	-1.000000	-1.000000	-1.000000	-1.000000	-1.000000	-1.000000	56.000000	0.000000	-1.000000	-1.000000	659240.000000	1775778042.925457
5753.880000	892.620000	2742.120000	24450.120000	17640.720000	6351.120000	-22483.575000	-18360.405000	-2.063116	-3.743083	-4.081337	-3.635455	0.854374	5.972235	3.523211	-0.383815	-2.090620	2.136400	1.632820	-0.732603	-0.072754	0.662901	-1.000000	-1.000000	-1.000000	-1.000000	-1.000000	-1.000000	-1.000000	56.000000	0.000000	-1.000000	-1.000000	659241.000000	1775778042.936073
5759.100000	898.470000	2749.680000	24458.895000	17643.105000	6341.985000	-22482.540000	-18357.750000	-3.796034	-2.550192	-0.733091	-0.233820	0.279200	1.359444	2.281742	-1.533343	-2.090620	2.136400	1.632820	-0.732603	-0.072754	0.662901	-1.000000	-1.000000	-1.000000	-1.000000	-1.000000	-1.000000	-1.000000	56.000000	0.000000	-1.000000	-1.000000	659242.000000	1775778042.936095
5753.610000	895.365000	2749.455000	24461.370000	17645.670000	6347.880000	-22484.880000	-18364.365000	-4.646771	-1.252767	1.968962	2.822804	-1.959835	-5.120203	-0.350987	-2.931296	-1.052940	2.670500	2.212700	-0.728636	-0.074096	0.663267	-1.000000	-1.000000	-1.000000	-1.000000	-1.000000	-1.000000	-1.000000	56.000000	0.000000	-1.000000	-1.000000	659243.000000	1775778042.936209
5758.065000	903.105000	2756.610000	24466.635000	17657.145000	6367.455000	-22478.220000	-18360.765000	-4.074902	-0.054240	3.327207	4.564993	-3.525871	-9.624626	-2.749284	-3.656637	-1.052940	2.670500	2.212700	-0.728636	-0.074096	0.663267	-1.000000	-1.000000	-1.000000	-1.000000	-1.000000	-1.000000	-1.000000	56.000000	0.000000	-1.000000	-1.000000	659244.000000	1775778042.936229
5757.570000	902.880000	2756.340000	24467.490000	17663.535000	6384.555000	-22475.745000	-18360.675000	-2.251920	1.085861	3.465115	4.702471	-2.219058	-8.062248	-3.404762	-3.092732	-1.052940	2.670500	2.212700	-0.728636	-0.074096	0.663267	-1.000000	-1.000000	-1.000000	-1.000000	-1.000000	-1.000000	-1.000000	56.000000	0.000000	-1.000000	-1.000000	659245.000000	1775778042.940148
5754.825000	896.895000	2752.695000	24460.965000	17657.820000	6384.060000	-22482.045000	-18361.935000	0.081146	1.808205	2.474683	3.094324	1.173554	-1.112394	-2.223292	-1.271958	-1.052940	2.670500	2.212700	-0.728636	-0.074096	0.663267	-1.000000	-1.000000	-1.000000	-1.000000	-1.000000	-1.000000	-1.000000	56.000000	0.000000	-1.000000	-1.000000	659246.000000	1775778042.940219
5753.475000	895.410000	2750.490000	24457.815000	17652.645000	6369.345000	-22483.710000	-18361.575000	1.848101	1.391670	0.387577	-0.055792	3.552344	5.535334	-0.657792	0.933317	-1.052940	2.670500	2.212700	-0.728636	-0.074096	0.663267	-1.000000	-1.000000	-1.000000	-1.000000	-1.000000	-1.000000	-1.000000	56.000000	0.000000	-1.000000	-1.000000	659247.000000	1775778042.947354
5756.085000	899.055000	2752.605000	24460.605000	17645.445000	6344.820000	-22485.465000	-18359.595000	2.466296	-0.032908	-2.111204	-3.557554	2.644739	5.958950	0.007617	2.532286	-1.052940	2.670500	2.212700	-0.728636	-0.074096	0.663267	-1.000000	-1.000000	-1.000000	-1.000000	-1.000000	-1.000000	-1.000000	56.000000	0.000000	-1.000000	-1.000000	659248.000000	1775778042.947375
5758.245000	903.735000	2757.195000	24463.620000	17639.460000	6330.600000	-22480.560000	-18357.120000	2.313951	-1.124893	-3.593919	-5.418227	-0.943079	-0.772880	-0.033186	3.164770	-1.052940	2.670500	2.212700	-0.728636	-0.074096	0.663267	-1.000000	-1.000000	-1.000000	-1.000000	-1.000000	-1.000000	-1.000000	56.000000	0.000000	-1.000000	-1.000000	659249.000000	1775778042.947400
5753.340000	898.650000	2751.570000	24458.535000	17652.060000	6368.130000	-22473.990000	-18360.720000	1.907612	-0.942829	-3.197311	-4.598553	-4.339562	-8.840792	0.302565	2.875490	-1.052940	2.670500	2.212700	-0.728636	-0.074096	0.663267	-1.000000	-1.000000	-1.000000	-1.000000	-1.000000	-1.000000	-1.000000	56.000000	0.000000	-1.000000	-1.000000	659250.000000	1775778042.947411
5758.425000	902.880000	2755.260000	24456.330000	17653.095000	6377.580000	-22470.525000	-18357.075000	1.292077	0.000211	-1.535906	-2.098932	-4.581507	-9.921507	1.583959	1.784732	-1.052940	2.670500	2.212700	-0.728636	-0.074096	0.663267	-1.000000	-1.000000	-1.000000	-1.000000	-1.000000	-1.000000	-1.000000	56.000000	0.000000	-1.000000	-1.000000	659251.000000	1775778042.968090
5760.045000	903.015000	2757.240000	24461.865000	17658.045000	6373.350000	-22467.105000	-18355.680000	0.605531	0.780135	0.279777	0.421900	-1.251126	-2.056437	3.114398	0.355793	-1.052940	2.670500	2.212700	-0.728636	-0.074096	0.663267	-1.000000	-1.000000	-1.000000	-1.000000	-1.000000	-1.000000	-1.000000	56.000000	0.000000	-1.000000	-1.000000	659252.000000	1775778042.968122
5756.895000	901.395000	2755.530000	24462.900000	17655.030000	6362.685000	-22473.945000	-18362.205000	0.119438	1.002003	1.613819	2.283748	3.107179	7.751402	3.470611	-0.859245	0.259420	1.480220	2.136400	-0.730528	-0.073913	0.664000	-1.000000	-1.000000	-1.000000	-1.000000	-1.000000	-1.000000	-1.000000	56.000000	0.000000	-1.000000	-1.000000	659253.000000	1775778042.968151
5754.555000	899.730000	2753.235000	24464.835000	17662.905000	6380.370000	-22484.880000	-18366.030000	-0.371543	0.572060	2.036591	3.414259	5.564744	11.852937	1.558926	-1.875870	0.259420	1.480220	2.136400	-0.730528	-0.073913	0.664000	-1.000000	-1.000000	-1.000000	-1.000000	-1.000000	-1.000000	-1.000000	56.000000	0.000000	-1.000000	-1.000000	659254.000000	1775778042.968162
5757.030000	902.160000	2756.385000	24463.260000	17657.415000	6376.995000	-22483.620000	-18361.395000	-1.066544	-0.271676	1.453572	3.553467	5.045191	9.184320	-2.213346	-2.654525	0.259420	1.480220	2.136400	-0.730528	-0.073913	0.664000	-1.000000	-1.000000	-1.000000	-1.000000	-1.000000	-1.000000	-1.000000	56.000000	0.000000	-1.000000	-1.000000	659255.000000	1775778042.968174
5753.880000	900.900000	2759.445000	24464.475000	17649.900000	6356.070000	-22490.505000	-18365.940000	-1.589633	-0.915987	0.528720	2.518416	2.064376	2.814522	-5.625852	-2.569068	0.259420	1.480220	2.136400	-0.730528	-0.073913	0.664000	-1.000000	-1.000000	-1.000000	-1.000000	-1.000000	-1.000000	-1.000000	56.000000	0.000000	-1.000000	-1.000000	659256.000000	1775778042.968185
5753.520000	898.605000	2757.285000	24466.185000	17658.900000	6356.340000	-22492.260000	-18368.595000	-1.573452	-1.009762	0.014077	0.725927	-1.918221	-4.493284	-6.488542	-1.464240	0.259420	1.480220	2.136400	-0.730528	-0.073913	0.664000	-1.000000	-1.000000	-1.000000	-1.000000	-1.000000	-1.000000	-1.000000	56.000000	0.000000	-1.000000	-1.000000	659257.000000	1775778042.968196
5753.070000	897.885000	2754.270000	24469.470000	17681.085000	6384.510000	-22480.110000	-18367.200000	-1.066444	-0.757097	-0.167648	-0.909845	-4.212010	-9.383519	-4.145983	-0.010089	0.259420	1.480220	2.136400	-0.730528	-0.073913	0.664000	-1.000000	-1.000000	-1.000000	-1.000000	-1.000000	-1.000000	-1.000000	56.000000	0.000000	-1.000000	-1.000000	659258.000000	1775778042.968208
5750.100000	894.465000	2748.240000	24464.160000	17675.730000	6381.090000	-22477.770000	-18366.570000	-0.322606	-0.473872	-0.622538	-1.782490	-2.824314	-8.324269	0.691505	1.265251	0.259420	1.480220	2.136400	-0.730528	-0.073913	0.664000	-1.000000	-1.000000	-1.000000	-1.000000	-1.000000	-1.000000	-1.000000	56.000000	0.000000	-1.000000	-1.000000	659259.000000	1775778042.968219
5751.855000	892.665000	2742.210000	24456.285000	17666.460000	6380.325000	-22469.580000	-18359.595000	0.370895	-0.299222	-1.595249	-2.221065	0.399813	-2.236134	5.982983	2.307603	0.259420	1.480220	2.136400	-0.730528	-0.073913	0.664000	-1.000000	-1.000000	-1.000000	-1.000000	-1.000000	-1.000000	-1.000000	56.000000	0.000000	-1.000000	-1.000000	659260.000000	1775778042.968229
5750.460000	884.250000	2745.810000	24463.710000	17666.415000	6375.690000	-22475.790000	-18364.005000	0.879581	-0.306582	-2.489382	-2.631787	1.615375	3.659774	8.946220	3.017880	0.259420	1.480220	2.136400	-0.730528	-0.073913	0.664000	-1.000000	-1.000000	-1.000000	-1.000000	-1.000000	-1.000000	-1.000000	56.000000	0.000000	-1.000000	-1.000000	659261.000000	1775778042.970286
5747.535000	887.580000	2743.920000	24458.310000	17655.885000	6367.635000	-22481.595000	-18367.290000	1.127854	-0.435866	-2.222079	-2.488167	-0.390148	5.264420	7.643440	2.800779	0.259420	1.480220	2.136400	-0.730528	-0.073913	0.664000	-1.000000	-1.000000	-1.000000	-1.000000	-1.000000	-1.000000	-1.000000	56.000000	0.000000	-1.000000	-1.000000	659262.000000	1775778042.970309
5756.220000	907.785000	2758.905000	24461.595000	17650.035000	6361.695000	-22480.290000	-18361.305000	1.126350	0.142315	-0.204204	-1.285322	-3.764019	2.408086	2.494760	1.318983	0.656180	0.763000	1.831200	-0.734373	-0.073303	0.664122	-1.000000	-1.000000	-1.000000	-1.000000	-1.000000	-1.000000	-1.000000	56.000000	0.000000	-1.000000	-1.000000	659263.000000	1775778042.981711
5760.585000	908.955000	2766.555000	24473.115000	17658.765000	6363.000000	-22476.420000	-18358.110000	1.302970	2.399576	3.184180	0.774167	-5.748741	-2.067841	-3.463812	-0.494455	0.656180	0.763000	1.831200	-0.734373	-0.073303	0.664122	-1.000000	-1.000000	-1.000000	-1.000000	-1.000000	-1.000000	-1.000000	56.000000	0.000000	-1.000000	-1.000000	659264.000000	1775778042.981733
5759.415000	907.605000	2765.295000	24471.225000	17662.095000	6350.670000	-22477.095000	-18357.705000	1.811632	5.173801	6.342777	3.154319	-4.242542	-4.877002	-6.821509	-1.421772	0.656180	0.763000	1.831200	-0.734373	-0.073303	0.664122	-1.000000	-1.000000	-1.000000	-1.000000	-1.000000	-1.000000	-1.000000	56.000000	0.000000	-1.000000	-1.000000	659265.000000	1775778042.981759
5756.490000	903.555000	2759.085000	24463.080000	17651.475000	6343.290000	-22478.445000	-18359.415000	1.813198	5.591109	6.789308	4.503619	0.262934	-4.852135	-6.490563	-1.418188	0.656180	0.763000	1.831200	-0.734373	-0.073303	0.664122	-1.000000	-1.000000	-1.000000	-1.000000	-1.000000	-1.000000	-1.000000	56.000000	0.000000	-1.000000	-1.000000	659266.000000	1775778042.981770
5752.170000	899.820000	2756.115000	24460.515000	17641.395000	6347.160000	-22482.945000	-18365.940000	0.443266	2.356258	3.275897	3.281700	4.400245	-2.710286	-3.874614	-1.356360	0.656180	0.763000	1.831200	-0.734373	-0.073303	0.664122	-1.000000	-1.000000	-1.000000	-1.000000	-1.000000	-1.000000	-1.000000	56.000000	0.000000	-1.000000	-1.000000	659267.000000	1775778042.984927
5755.095000	906.345000	2763.090000	24469.830000	17656.245000	6345.990000	-22485.915000	-18367.965000	-1.886801	-2.735897	-2.404307	0.048857	5.560642	0.702448	-1.087338	-1.865894	0.656180	0.763000	1.831200	-0.734373	-0.073303	0.664122	-1.000000	-1.000000	-1.000000	-1.000000	-1.000000	-1.000000	-1.000000	56.000000	0.000000	-1.000000	-1.000000	659268.000000	1775778042.984945
5752.350000	902.565000	2759.535000	24468.885000	17668.890000	6374.880000	-22480.110000	-18367.830000	-3.681393	-6.449227	-6.704952	-2.621207	4.850448	4.892643	0.785942	-2.553646	0.656180	0.763000	1.831200	-0.734373	-0.073303	0.664122	-1.000000	-1.000000	-1.000000	-1.000000	-1.000000	-1.000000	-1.000000	56.000000	0.000000	-1.000000	-1.000000	659269.000000	1775778042.986348
5747.085000	897.615000	2753.685000	24457.770000	17656.650000	6384.915000	-22481.280000	-18372.870000	-3.912452	-7.034811	-7.621479	-3.270959	4.317923	9.337009	1.983591	-2.490408	0.656180	0.763000	1.831200	-0.734373	-0.073303	0.664122	-1.000000	-1.000000	-1.000000	-1.000000	-1.000000	-1.000000	-1.000000	56.000000	0.000000	-1.000000	-1.000000	659270.000000	1775778042.986363
5754.870000	907.065000	2764.800000	24470.145000	17675.370000	6388.560000	-22477.590000	-18369.180000	-2.675305	-4.967165	-5.600463	-2.573531	3.716991	12.259436	2.892190	-1.307391	0.656180	0.763000	1.831200	-0.734373	-0.073303	0.664122	-1.000000	-1.000000	-1.000000	-1.000000	-1.000000	-1.000000	-1.000000	56.000000	0.000000	-1.000000	-1.000000	659271.000000	1775778042.999750
5755.500000	904.185000	2760.345000	24470.190000	17684.055000	6397.965000	-22468.140000	-18365.625000	-0.389732	-1.418912	-1.884330	-1.150037	2.468269	10.967972	3.502667	0.736890	0.656180	0.763000	1.831200	-0.734373	-0.073303	0.664122	-1.000000	-1.000000	-1.000000	-1.000000	-1.000000	-1.000000	-1.000000	56.000000	0.000000	-1.000000	-1.000000	659272.000000	1775778042.999773
5761.485000	909.090000	2765.880000	24476.895000	17675.910000	6385.095000	-22467.555000	-18358.245000	2.311143	2.252775	2.032010	0.865763	0.842156	4.601049	3.722997	3.136724	0.686700	0.030520	1.815940	-0.737486	-0.073303	0.663817	-1.000000	-1.000000	-1.000000	-1.000000	-1.000000	-1.000000	-1.000000	56.000000	0.000000	-1.000000	-1.000000	659273.000000	1775778042.999816
5764.185000	912.330000	2770.110000	24482.295000	17661.465000	6368.580000	-22474.080000	-18358.110000	4.375815	4.689468	4.679570	2.814337	-1.808691	-5.159737	3.018075	5.025202	0.686700	0.030520	1.815940	-0.737486	-0.073303	0.663817	-1.000000	-1.000000	-1.000000	-1.000000	-1.000000	-1.000000	-1.000000	56.000000	0.000000	-1.000000	-1.000000	659274.000000	1775778042.999826
5770.080000	919.440000	2777.985000	24486.480000	17659.125000	6360.390000	-22471.920000	-18352.980000	4.942108	5.354152	5.547730	3.827779	-5.972724	-14.956529	0.762194	5.355646	0.686700	0.030520	1.815940	-0.737486	-0.073303	0.663817	-1.000000	-1.000000	-1.000000	-1.000000	-1.000000	-1.000000	-1.000000	56.000000	0.000000	-1.000000	-1.000000	659275.000000	1775778042.999837
5766.930000	914.670000	2770.425000	24472.485000	17659.710000	6355.530000	-22478.310000	-18354.915000	3.751639	4.390849	4.733695	3.085545	-9.661258	-20.403405	-2.462416	3.674618	0.686700	0.030520	1.815940	-0.737486	-0.073303	0.663817	-1.000000	-1.000000	-1.000000	-1.000000	-1.000000	-1.000000	-1.000000	56.000000	0.000000	-1.000000	-1.000000	659276.000000	1775778042.999844
5758.605000	905.940000	2762.595000	24467.535000	17674.560000	6369.480000	-22483.395000	-18362.025000	0.922283	1.855560	2.106643	0.044902	-9.580425	-18.069586	-5.183834	0.369270	0.686700	0.030520	1.815940	-0.737486	-0.073303	0.663817	-1.000000	-1.000000	-1.000000	-1.000000	-1.000000	-1.000000	-1.000000	56.000000	0.000000	-1.000000	-1.000000	659277.000000	1775778043.003039
5754.060000	902.295000	2762.415000	24471.090000	17677.170000	6362.100000	-22483.305000	-18367.965000	-2.965304	-1.937974	-1.929602	-4.146998	-4.435464	-8.167516	-6.214769	-3.646877	0.686700	0.030520	1.815940	-0.737486	-0.073303	0.663817	-1.000000	-1.000000	-1.000000	-1.000000	-1.000000	-1.000000	-1.000000	56.000000	0.000000	-1.000000	-1.000000	659278.000000	1775778043.003058
5747.355000	893.385000	2752.650000	24462.585000	17661.645000	6366.645000	-22483.890000	-18373.050000	-6.456946	-5.612316	-5.627931	-6.781708	2.959172	4.635239	-4.976690	-6.963206	0.686700	0.030520	1.815940	-0.737486	-0.073303	0.663817	-1.000000	-1.000000	-1.000000	-1.000000	-1.000000	-1.000000	-1.000000	56.000000	0.000000	-1.000000	-1.000000	659279.000000	1775778043.008086
5753.430000	898.830000	2754.810000	24466.095000	17665.380000	6370.380000	-22474.215000	-18363.195000	-7.647224	-7.221030	-7.077308	-6.188109	7.646011	14.317356	-1.631551	-7.815840	0.686700	0.030520	1.815940	-0.737486	-0.073303	0.663817	-1.000000	-1.000000	-1.000000	-1.000000	-1.000000	-1.000000	-1.000000	56.000000	0.000000	-1.000000	-1.000000	659280.000000	1775778043.008112
5753.610000	899.685000	2754.495000	24463.890000	17661.510000	6383.070000	-22469.715000	-18362.250000	-5.400806	-5.489320	-5.471552	-2.845942	7.375894	17.751361	2.832731	-5.091915	0.686700	0.030520	1.815940	-0.737486	-0.073303	0.663817	-1.000000	-1.000000	-1.000000	-1.000000	-1.000000	-1.000000	-1.000000	56.000000	0.000000	-1.000000	-1.000000	659281.000000	1775778043.009374
5752.440000	899.505000	2754.675000	24463.080000	17652.195000	6369.480000	-22478.805000	-18367.020000	-0.557835	-0.951085	-1.433249	1.498493	3.737508	15.121400	6.450902	0.088051	0.686700	0.030520	1.815940	-0.737486	-0.073303	0.663817	-1.000000	-1.000000	-1.000000	-1.000000	-1.000000	-1.000000	-1.000000	56.000000	0.000000	-1.000000	-1.000000	659282.000000	1775778043.009394
5760.405000	910.665000	2767.770000	24476.085000	17660.700000	6363.630000	-22478.220000	-18362.295000	4.440670	4.204252	3.378108	5.091595	-0.437341	7.848607	6.971696	4.733899	-0.473060	0.442540	0.640920	-0.737120	-0.071838	0.664732	-1.000000	-1.000000	-1.000000	-1.000000	-1.000000	-1.000000	-1.000000	56.000000	0.000000	-1.000000	-1.000000	659283.000000	1775778043.017393
5760.585000	911.655000	2773.440000	24481.980000	17671.590000	6378.165000	-22475.880000	-18363.510000	7.486128	7.808127	7.358987	7.234545	-2.463868	-1.304365	4.088875	6.666790	-0.473060	0.442540	0.640920	-0.737120	-0.071838	0.664732	-1.000000	-1.000000	-1.000000	-1.000000	-1.000000	-1.000000	-1.000000	56.000000	0.000000	-1.000000	-1.000000	659284.000000	1775778043.017417
5751.720000	896.625000	2756.520000	24463.485000	17661.195000	6378.255000	-22465.170000	-18365.085000	7.500194	8.244199	8.841272	7.330704	-1.334719	-7.987081	0.157006	5.701993	-0.473060	0.442540	0.640920	-0.737120	-0.071838	0.664732	-1.000000	-1.000000	-1.000000	-1.000000	-1.000000	-1.000000	-1.000000	56.000000	0.000000	-1.000000	-1.000000	659285.000000	1775778043.019260
5747.715000	891.090000	2748.240000	24455.520000	17651.745000	6364.125000	-22470.930000	-18368.505000	4.284332	4.605991	6.059849	4.115243	0.779106	-9.810957	-2.260826	2.785130	-0.473060	0.442540	0.640920	-0.737120	-0.071838	0.664732	-1.000000	-1.000000	-1.000000	-1.000000	-1.000000	-1.000000	-1.000000	56.000000	0.000000	-1.000000	-1.000000	659286.000000	1775778043.019276
5748.255000	896.805000	2758.365000	24467.400000	17651.835000	6353.460000	-22484.205000	-18373.905000	-0.730120	-1.514755	-0.188688	-1.664669	1.035878	-8.497933	-3.040403	-0.760943	-0.473060	0.442540	0.640920	-0.737120	-0.071838	0.664732	-1.000000	-1.000000	-1.000000	-1.000000	-1.000000	-1.000000	-1.000000	56.000000	0.000000	-1.000000	-1.000000	659287.000000	1775778043.021247
5747.580000	897.255000	2758.230000	24468.615000	17664.795000	6377.985000	-22481.640000	-18374.715000	-4.777236	-6.187446	-5.729169	-6.131336	-0.347934	-6.124999	-3.643047	-3.604016	-0.473060	0.442540	0.640920	-0.737120	-0.071838	0.664732	-1.000000	-1.000000	-1.000000	-1.000000	-1.000000	-1.000000	-1.000000	56.000000	0.000000	-1.000000	-1.000000	659288.000000	1775778043.021264
5749.470000	898.020000	2755.620000	24463.215000	17666.775000	6379.605000	-22475.205000	-18370.620000	-5.820997	-6.708522	-7.174341	-6.443071	-0.894664	-2.234414	-4.056507	-4.591097	-0.473060	0.442540	0.640920	-0.737120	-0.071838	0.664732	-1.000000	-1.000000	-1.000000	-1.000000	-1.000000	-1.000000	-1.000000	56.000000	0.000000	-1.000000	-1.000000	659289.000000	1775778043.026307
5755.320000	901.080000	2758.455000	24466.095000	17671.185000	6379.335000	-22468.455000	-18364.365000	-3.771754	-3.650832	-4.849246	-3.594222	0.441374	3.079207	-2.763030	-3.115512	-0.473060	0.442540	0.640920	-0.737120	-0.071838	0.664732	-1.000000	-1.000000	-1.000000	-1.000000	-1.000000	-1.000000	-1.000000	56.000000	0.000000	-1.000000	-1.000000	659290.000000	1775778043.026332
5755.140000	899.145000	2756.475000	24466.455000	17659.980000	6376.680000	-22464.765000	-18366.255000	-0.082029	0.499576	-1.113066	-0.123117	2.050524	7.018610	0.552882	0.121088	-0.473060	0.442540	0.640920	-0.737120	-0.071838	0.664732	-1.000000	-1.000000	-1.000000	-1.000000	-1.000000	-1.000000	-1.000000	56.000000	0.000000	-1.000000	-1.000000	659291.000000	1775778043.029892
5757.930000	903.465000	2762.820000	24472.935000	17662.230000	6361.470000	-22478.580000	-18369.315000	3.149449	3.410358	1.994957	2.419615	1.799122	6.822384	3.834429	3.038173	-0.473060	0.442540	0.640920	-0.737120	-0.071838	0.664732	-1.000000	-1.000000	-1.000000	-1.000000	-1.000000	-1.000000	-1.000000	56.000000	0.000000	-1.000000	-1.000000	659292.000000	1775778043.029914
5759.460000	908.370000	2767.770000	24475.995000	17672.625000	6368.670000	-22476.465000	-18369.000000	4.370468	4.204106	3.677553	3.673757	-0.231772	2.580400	4.422765	3.741873	-0.747740	1.129240	1.236060	-0.734251	-0.071228	0.664793	-1.000000	-1.000000	-1.000000	-1.000000	-1.000000	-1.000000	-1.000000	56.000000	0.000000	-1.000000	-1.000000	659293.000000	1775778043.033211
5755.680000	907.155000	2767.860000	24475.455000	17673.120000	6378.930000	-22474.575000	-18370.755000	3.306069	3.341915	4.002112	3.674991	-1.873317	-2.341187	2.061275	2.146314	-0.747740	1.129240	1.236060	-0.734251	-0.071228	0.664793	-1.000000	-1.000000	-1.000000	-1.000000	-1.000000	-1.000000	-1.000000	56.000000	0.000000	-1.000000	-1.000000	659294.000000	1775778043.033228
5760.630000	912.645000	2774.745000	24479.865000	17668.035000	6377.130000	-22473.765000	-18366.075000	0.769441	1.594446	3.152232	2.474181	-1.951098	-4.164829	-0.901364	-0.260424	-0.747740	1.129240	1.236060	-0.734251	-0.071228	0.664793	-1.000000	-1.000000	-1.000000	-1.000000	-1.000000	-1.000000	-1.000000	56.000000	0.000000	-1.000000	-1.000000	659295.000000	1775778043.041039
5757.795000	910.080000	2774.205000	24478.200000	17666.595000	6378.975000	-22479.390000	-18369.675000	-1.808713	-0.359967	1.472308	0.475647	-1.415392	-2.467302	-2.446189	-1.879669	-0.747740	1.129240	1.236060	-0.734251	-0.071228	0.664793	-1.000000	-1.000000	-1.000000	-1.000000	-1.000000	-1.000000	-1.000000	56.000000	0.000000	-1.000000	-1.000000	659296.000000	1775778043.041061
5759.010000	911.790000	2772.900000	24479.010000	17678.745000	6381.495000	-22480.155000	-18366.975000	-3.261757	-2.005421	-0.575778	-1.604421	-1.073427	0.356967	-2.455611	-2.151093	-0.747740	1.129240	1.236060	-0.734251	-0.071228	0.664793	-1.000000	-1.000000	-1.000000	-1.000000	-1.000000	-1.000000	-1.000000	56.000000	0.000000	-1.000000	-1.000000	659297.000000	1775778043.042259
5755.320000	914.985000	2777.220000	24488.415000	17698.860000	6387.750000	-22475.295000	-18366.615000	-3.358833	-2.959353	-2.525015	-2.941034	-0.047142	2.237276	-1.558122	-1.442953	-0.747740	1.129240	1.236060	-0.734251	-0.071228	0.664793	-1.000000	-1.000000	-1.000000	-1.000000	-1.000000	-1.000000	-1.000000	56.000000	0.000000	-1.000000	-1.000000	659298.000000	1775778043.042305
5755.005000	906.705000	2765.655000	24480.720000	17685.270000	6389.775000	-22466.565000	-18367.470000	-2.539690	-3.053254	-3.878322	-2.952792	2.174974	2.636705	0.078500	-0.386686	-0.747740	1.129240	1.236060	-0.734251	-0.071228	0.664793	-1.000000	-1.000000	-1.000000	-1.000000	-1.000000	-1.000000	-1.000000	56.000000	0.000000	-1.000000	-1.000000	659299.000000	1775778043.049548
5753.340000	901.935000	2759.310000	24471.630000	17662.680000	6379.245000	-22468.905000	-18370.890000	-1.340017	-2.744918	-4.608714	-2.288573	3.136596	1.619839	2.185984	0.346821	-0.747740	1.129240	1.236060	-0.734251	-0.071228	0.664793	-1.000000	-1.000000	-1.000000	-1.000000	-1.000000	-1.000000	-1.000000	56.000000	0.000000	-1.000000	-1.000000	659300.000000	1775778043.049569
5752.980000	905.670000	2762.190000	24472.350000	17668.530000	6384.195000	-22470.840000	-18371.340000	-0.098172	-2.412407	-4.706562	-2.132915	0.227830	-0.637141	3.524948	0.349357	-0.747740	1.129240	1.236060	-0.734251	-0.071228	0.664793	-1.000000	-1.000000	-1.000000	-1.000000	-1.000000	-1.000000	-1.000000	56.000000	0.000000	-1.000000	-1.000000	659301.000000	1775778043.060701
5751.270000	904.815000	2758.860000	24465.420000	17663.040000	6381.000000	-22470.570000	-18373.455000	0.968079	-1.542646	-3.481631	-2.378831	-4.685244	-3.073468	2.874074	-0.167583	-0.747740	1.129240	1.236060	-0.734251	-0.071228	0.664793	-1.000000	-1.000000	-1.000000	-1.000000	-1.000000	-1.000000	-1.000000	56.000000	0.000000	-1.000000	-1.000000	659302.000000	1775778043.060724
5750.550000	905.895000	2761.380000	24467.760000	17666.235000	6383.520000	-22468.455000	-18372.960000	1.656977	0.260932	-0.656225	-1.999065	-7.198980	-4.140717	0.582697	-0.608459	-1.556520	2.273740	0.869820	-0.731443	-0.070068	0.663817	-1.000000	-1.000000	-1.000000	-1.000000	-1.000000	-1.000000	-1.000000	56.000000	0.000000	-1.000000	-1.000000	659303.000000	1775778043.060750
5751.765000	907.020000	2770.380000	24478.020000	17667.000000	6377.040000	-22472.505000	-18373.680000	1.896672	2.401623	2.989712	-0.212669	-5.220494	-3.335938	-1.851906	-0.525851	-1.556520	2.273740	0.869820	-0.731443	-0.070068	0.663817	-1.000000	-1.000000	-1.000000	-1.000000	-1.000000	-1.000000	-1.000000	56.000000	0.000000	-1.000000	-1.000000	659304.000000	1775778043.060763
5753.565000	906.120000	2772.450000	24484.185000	17663.445000	6366.600000	-22471.470000	-18372.465000	1.845413	3.854411	6.269207	3.034167	-0.160145	-1.652384	-3.281678	0.102239	-1.556520	2.273740	0.869820	-0.731443	-0.070068	0.663817	-1.000000	-1.000000	-1.000000	-1.000000	-1.000000	-1.000000	-1.000000	56.000000	0.000000	-1.000000	-1.000000	659305.000000	1775778043.060778
5755.230000	908.865000	2770.020000	24478.335000	17652.105000	6353.055000	-22476.240000	-18372.645000	1.702683	3.970271	7.750442	6.281368	4.572922	-0.652743	-3.416626	0.936314	-1.556520	2.273740	0.869820	-0.731443	-0.070068	0.663817	-1.000000	-1.000000	-1.000000	-1.000000	-1.000000	-1.000000	-1.000000	56.000000	0.000000	-1.000000	-1.000000	659306.000000	1775778043.060788
5752.215000	905.535000	2764.440000	24474.690000	17658.270000	6363.630000	-22475.565000	-18374.085000	1.389375	2.794936	6.195250	6.996427	6.291698	-0.610034	-2.536804	1.484914	-1.556520	2.273740	0.869820	-0.731443	-0.070068	0.663817	-1.000000	-1.000000	-1.000000	-1.000000	-1.000000	-1.000000	-1.000000	56.000000	0.000000	-1.000000	-1.000000	659307.000000	1775778043.061878
5753.880000	911.070000	2771.595000	24481.485000	17680.320000	6377.805000	-22471.965000	-18374.580000	0.648932	0.935683	1.995141	4.215981	5.563114	0.337219	-1.006556	1.376929	-1.556520	2.273740	0.869820	-0.731443	-0.070068	0.663817	-1.000000	-1.000000	-1.000000	-1.000000	-1.000000	-1.000000	-1.000000	56.000000	0.000000	-1.000000	-1.000000	659308.000000	1775778043.061893
5761.395000	920.520000	2783.295000	24493.590000	17690.535000	6379.965000	-22469.985000	-18370.125000	-0.284835	-0.552743	-2.286473	0.065867	5.086348	3.667572	0.934678	0.744623	-1.556520	2.273740	0.869820	-0.731443	-0.070068	0.663817	-1.000000	-1.000000	-1.000000	-1.000000	-1.000000	-1.000000	-1.000000	56.000000	0.000000	-1.000000	-1.000000	659309.000000	1775778043.073399
5766.075000	922.770000	2785.140000	24494.580000	17683.470000	6385.680000	-22468.725000	-18365.850000	-0.626047	-0.781804	-4.002901	-2.492479	5.450582	7.716624	2.773668	0.240944	-1.556520	2.273740	0.869820	-0.731443	-0.070068	0.663817	-1.000000	-1.000000	-1.000000	-1.000000	-1.000000	-1.000000	-1.000000	56.000000	0.000000	-1.000000	-1.000000	659310.000000	1775778043.073422
5759.415000	913.545000	2776.860000	24484.455000	17675.730000	6386.085000	-22470.435000	-18368.685000	-0.274363	-0.311791	-3.227284	-2.977116	4.090326	9.214794	3.646803	0.226709	-1.556520	2.273740	0.869820	-0.731443	-0.070068	0.663817	-1.000000	-1.000000	-1.000000	-1.000000	-1.000000	-1.000000	-1.000000	56.000000	0.000000	-1.000000	-1.000000	659311.000000	1775778043.073450
5759.325000	915.480000	2780.370000	24489.000000	17680.185000	6383.610000	-22465.980000	-18367.155000	-0.260605	-0.687011	-2.175920	-3.062714	-0.604685	6.513187	3.068553	0.242216	-1.556520	2.273740	0.869820	-0.731443	-0.070068	0.663817	-1.000000	-1.000000	-1.000000	-1.000000	-1.000000	-1.000000	-1.000000	56.000000	0.000000	-1.000000	-1.000000	659312.000000	1775778043.073461
5759.730000	916.920000	2778.705000	24486.255000	17660.790000	6374.070000	-22471.155000	-18367.830000	-1.179803	-2.146648	-2.092025	-3.549684	-6.772635	0.454997	1.387295	-0.224943	-0.427280	2.411080	1.052940	-0.729063	-0.070434	0.664915	-1.000000	-1.000000	-1.000000	-1.000000	-1.000000	-1.000000	-1.000000	56.000000	0.000000	-1.000000	-1.000000	659313.000000	1775778043.073475
5762.520000	917.640000	2774.250000	24484.995000	17664.255000	6384.285000	-22470.030000	-18364.995000	-2.229445	-3.283429	-2.475135	-3.732157	-11.269602	-6.201512	-0.667502	-0.987300	-0.427280	2.411080	1.052940	-0.729063	-0.070434	0.664915	-1.000000	-1.000000	-1.000000	-1.000000	-1.000000	-1.000000	-1.000000	56.000000	0.000000	-1.000000	-1.000000	659314.000000	1775778043.073486
5761.980000	917.370000	2774.700000	24485.310000	17682.120000	6395.580000	-22464.045000	-18364.995000	-2.323682	-2.987197	-2.538951	-2.959244	-11.404937	-9.749822	-2.226321	-1.468481	-0.427280	2.411080	1.052940	-0.729063	-0.070434	0.664915	-1.000000	-1.000000	-1.000000	-1.000000	-1.000000	-1.000000	-1.000000	56.000000	0.000000	-1.000000	-1.000000	659315.000000	1775778043.078908
5756.130000	912.330000	2772.945000	24482.610000	17672.715000	6379.965000	-22471.245000	-18372.870000	-1.428457	-1.545276	-1.837642	-1.284899	-6.156951	-8.394053	-2.575659	-1.514867	-0.427280	2.411080	1.052940	-0.729063	-0.070434	0.664915	-1.000000	-1.000000	-1.000000	-1.000000	-1.000000	-1.000000	-1.000000	56.000000	0.000000	-1.000000	-1.000000	659316.000000	1775778043.078928
5762.295000	918.945000	2781.630000	24491.880000	17693.010000	6392.880000	-22467.645000	-18368.730000	-0.305082	0.096603	-0.192251	0.854691	2.024188	-4.115065	-1.934793	-1.463166	-0.427280	2.411080	1.052940	-0.729063	-0.070434	0.664915	-1.000000	-1.000000	-1.000000	-1.000000	-1.000000	-1.000000	-1.000000	56.000000	0.000000	-1.000000	-1.000000	659317.000000	1775778043.085315
5761.980000	914.445000	2774.970000	24484.635000	17693.280000	6411.735000	-22462.290000	-18366.255000	0.686999	1.401253	2.045107	2.894802	9.014183	0.531643	-0.881672	-1.199587	-0.427280	2.411080	1.052940	-0.729063	-0.070434	0.664915	-1.000000	-1.000000	-1.000000	-1.000000	-1.000000	-1.000000	-1.000000	56.000000	0.000000	-1.000000	-1.000000	659318.000000	1775778043.085338
5755.050000	908.100000	2769.975000	24481.395000	17674.155000	6387.030000	-22469.670000	-18372.150000	1.427334	2.007892	3.615367	3.878479	11.472235	4.231133	0.282970	-0.360996	-0.427280	2.411080	1.052940	-0.729063	-0.070434	0.664915	-1.000000	-1.000000	-1.000000	-1.000000	-1.000000	-1.000000	-1.000000	56.000000	0.000000	-1.000000	-1.000000	659319.000000	1775778043.087693
5749.020000	903.105000	2766.330000	24477.885000	17665.425000	6357.735000	-22482.315000	-18379.035000	1.319323	1.450127	3.248793	3.004333	7.628360	4.485208	0.721009	0.500259	-0.427280	2.411080	1.052940	-0.729063	-0.070434	0.664915	-1.000000	-1.000000	-1.000000	-1.000000	-1.000000	-1.000000	-1.000000	56.000000	0.000000	-1.000000	-1.000000	659320.000000	1775778043.087717
5751.945000	904.590000	2767.635000	24479.595000	17673.300000	6366.060000	-22472.145000	-18376.020000	0.222722	0.059560	1.266213	0.846065	-0.452686	-0.146058	-0.169358	0.607423	-0.427280	2.411080	1.052940	-0.729063	-0.070434	0.664915	-1.000000	-1.000000	-1.000000	-1.000000	-1.000000	-1.000000	-1.000000	56.000000	0.000000	-1.000000	-1.000000	659321.000000	1775778043.094234
5750.505000	904.095000	2766.195000	24474.645000	17667.630000	6369.255000	-22466.610000	-18377.910000	-0.801327	-0.896964	-0.685489	-1.089803	-7.266230	-5.674733	-1.026374	0.299195	-0.427280	2.411080	1.052940	-0.729063	-0.070434	0.664915	-1.000000	-1.000000	-1.000000	-1.000000	-1.000000	-1.000000	-1.000000	56.000000	0.000000	-1.000000	-1.000000	659322.000000	1775778043.094257
5749.785000	907.110000	2769.435000	24477.525000	17671.050000	6380.235000	-22466.835000	-18379.485000	-0.737030	-0.487908	-1.298177	-1.803431	-8.839652	-6.282541	-0.153708	0.344763	0.289940	1.495480	1.068200	-0.730833	-0.070923	0.665770	-1.000000	-1.000000	-1.000000	-1.000000	-1.000000	-1.000000	-1.000000	56.000000	0.000000	-1.000000	-1.000000	659323.000000	1775778043.094284
5749.380000	907.650000	2768.580000	24475.140000	17671.320000	6385.275000	-22463.010000	-18376.920000	0.268780	1.038938	-0.482733	-1.237333	-5.409290	-0.763980	1.956748	0.862232	0.289940	1.495480	1.068200	-0.730833	-0.070923	0.665770	-1.000000	-1.000000	-1.000000	-1.000000	-1.000000	-1.000000	-1.000000	56.000000	0.000000	-1.000000	-1.000000	659324.000000	1775778043.094295
5752.710000	909.855000	2768.985000	24474.195000	17664.435000	6364.485000	-22465.170000	-18373.455000	1.453180	2.611465	0.864955	-0.011647	0.031060	6.510912	3.445941	1.604605	0.289940	1.495480	1.068200	-0.730833	-0.070923	0.665770	-1.000000	-1.000000	-1.000000	-1.000000	-1.000000	-1.000000	-1.000000	56.000000	0.000000	-1.000000	-1.000000	659325.000000	1775778043.098405
5750.280000	906.705000	2768.445000	24477.030000	17663.760000	6366.555000	-22470.030000	-18378.675000	2.198449	3.133039	1.663308	1.076838	4.093469	9.668782	2.991277	2.169515	0.289940	1.495480	1.068200	-0.730833	-0.070923	0.665770	-1.000000	-1.000000	-1.000000	-1.000000	-1.000000	-1.000000	-1.000000	56.000000	0.000000	-1.000000	-1.000000	659326.000000	1775778043.098424
5752.710000	910.485000	2774.025000	24485.355000	17668.890000	6368.895000	-22474.845000	-18380.430000	2.143084	2.184152	1.523877	1.796123	5.259581	6.940273	0.529106	1.867570	0.289940	1.495480	1.068200	-0.730833	-0.070923	0.665770	-1.000000	-1.000000	-1.000000	-1.000000	-1.000000	-1.000000	-1.000000	56.000000	0.000000	-1.000000	-1.000000	659327.000000	1775778043.103314
5751.540000	907.200000	2773.035000	24483.105000	17688.015000	6399.585000	-22468.545000	-18380.565000	1.291900	0.285710	0.850423	2.291969	4.704239	2.106432	-2.538620	0.468421	0.289940	1.495480	1.068200	-0.730833	-0.070923	0.665770	-1.000000	-1.000000	-1.000000	-1.000000	-1.000000	-1.000000	-1.000000	56.000000	0.000000	-1.000000	-1.000000	659328.000000	1775778043.103336
5752.035000	907.065000	2772.405000	24481.080000	17686.125000	6401.385000	-22465.980000	-18379.530000	0.031946	-1.648144	0.040625	2.159419	4.277858	-0.102930	-4.041563	-1.209349	0.289940	1.495480	1.068200	-0.730833	-0.070923	0.665770	-1.000000	-1.000000	-1.000000	-1.000000	-1.000000	-1.000000	-1.000000	56.000000	0.000000	-1.000000	-1.000000	659329.000000	1775778043.106985
5751.810000	908.505000	2772.630000	24480.360000	17672.580000	6384.015000	-22473.045000	-18383.580000	-1.142352	-2.877685	-0.850017	0.811106	3.599110	0.425411	-3.082275	-2.154328	0.289940	1.495480	1.068200	-0.730833	-0.070923	0.665770	-1.000000	-1.000000	-1.000000	-1.000000	-1.000000	-1.000000	-1.000000	56.000000	0.000000	-1.000000	-1.000000	659330.000000	1775778043.107037
