Channel1	Channel2	Channel3	Channel4	Channel5	Channel6	Channel7	Channel8	FilteredChannel1	FilteredChannel2	FilteredChannel3	FilteredChannel4	FilteredChannel5	FilteredChannel6	FilteredChannel7	FilteredChannel8	GyroX	GyroY	GyroZ	AccX	AccY	AccZ	PPG1	PPG2	rawPPG1	rawPPG2	rawPPG3	Hr	Hrv	Battery	Trigger	PhysicalTrigger	AutoTrigger	NumMeasurements	Timestamp
-4668.615000	-7554.240000	-5992.920000	23160.870000	15092.730000	8010.090000	-15384.555000	-746.415000	-2.517495	-5.433451	-5.542138	-3.925440	-4.480936	1.067458	4.443660	-0.454513	-4.852680	-0.763000	4.928980	-0.698179	-0.042114	0.700926	-1.000000	-1.000000	-1.000000	-1.000000	-1.000000	-1.000000	-1.000000	57.000000	0.000000	-1.000000	-1.000000	459539.000000	1775777643.229386
-4664.565000	-7551.990000	-5992.335000	23163.300000	15090.930000	8002.485000	-15377.850000	-738.495000	-1.906237	-4.507218	-6.535510	-5.739926	-8.034833	1.119925	3.713521	-0.863184	-4.852680	-0.763000	4.928980	-0.698179	-0.042114	0.700926	-1.000000	-1.000000	-1.000000	-1.000000	-1.000000	-1.000000	-1.000000	57.000000	0.000000	-1.000000	-1.000000	459540.000000	1775777643.232785
-4672.170000	-7559.955000	-5999.715000	23151.870000	15073.605000	7969.950000	-15386.670000	-745.155000	-0.972125	-1.992558	-4.768313	-4.690395	-7.808036	-0.206928	0.968508	-1.053203	-4.852680	-0.763000	4.928980	-0.698179	-0.042114	0.700926	-1.000000	-1.000000	-1.000000	-1.000000	-1.000000	-1.000000	-1.000000	57.000000	0.000000	-1.000000	-1.000000	459541.000000	1775777643.232805
-4665.105000	-7553.295000	-5989.995000	23163.300000	15074.415000	7942.365000	-15397.065000	-741.240000	-0.059118	0.536198	-1.686652	-1.792078	-3.869536	-2.962418	-2.097232	-0.879777	-4.852680	-0.763000	4.928980	-0.698179	-0.042114	0.700926	-1.000000	-1.000000	-1.000000	-1.000000	-1.000000	-1.000000	-1.000000	57.000000	0.000000	-1.000000	-1.000000	459542.000000	1775777643.238067
-4662.675000	-7547.580000	-5978.430000	23181.615000	15107.850000	7996.185000	-15386.130000	-742.140000	0.666425	2.169246	1.536102	1.766251	2.100173	-5.153268	-4.130596	-0.684894	-4.852680	-0.763000	4.928980	-0.698179	-0.042114	0.700926	-1.000000	-1.000000	-1.000000	-1.000000	-1.000000	-1.000000	-1.000000	57.000000	0.000000	-1.000000	-1.000000	459543.000000	1775777643.238087
-4669.470000	-7555.095000	-5982.255000	23179.185000	15142.860000	8070.930000	-15369.660000	-746.235000	1.244798	2.950591	4.379928	5.444496	9.765890	-0.473179	-3.541002	-0.615164	-4.852680	-0.763000	4.928980	-0.698179	-0.042114	0.700926	-1.000000	-1.000000	-1.000000	-1.000000	-1.000000	-1.000000	-1.000000	57.000000	0.000000	-1.000000	-1.000000	459544.000000	1775777643.245147
-4668.885000	-7560.720000	-5990.040000	23167.710000	15133.815000	8066.520000	-15366.555000	-738.855000	1.211038	2.503389	5.464892	7.305401	17.277086	13.497567	0.348600	-0.610340	-4.852680	-0.763000	4.928980	-0.698179	-0.042114	0.700926	-1.000000	-1.000000	-1.000000	-1.000000	-1.000000	-1.000000	-1.000000	57.000000	0.000000	-1.000000	-1.000000	459545.000000	1775777643.245174
-4667.805000	-7564.095000	-5995.215000	23165.010000	15124.275000	8045.100000	-15376.140000	-739.665000	0.394897	0.519516	3.394496	5.002001	18.891708	26.361859	4.983458	-0.306542	-4.852680	-0.763000	4.928980	-0.698179	-0.042114	0.700926	-1.000000	-1.000000	-1.000000	-1.000000	-1.000000	-1.000000	-1.000000	57.000000	0.000000	-1.000000	-1.000000	459546.000000	1775777643.245230
-4671.810000	-7561.125000	-5991.165000	23166.405000	15115.230000	8026.245000	-15377.040000	-744.030000	-0.546338	-1.897909	-0.881365	-0.672046	10.385146	23.863550	6.295958	0.343868	-4.852680	-0.763000	4.928980	-0.698179	-0.042114	0.700926	-1.000000	-1.000000	-1.000000	-1.000000	-1.000000	-1.000000	-1.000000	57.000000	0.000000	-1.000000	-1.000000	459547.000000	1775777643.245243
-4654.215000	-7541.325000	-5977.800000	23174.955000	15101.730000	8004.195000	-15378.255000	-735.570000	-0.746813	-2.583050	-4.141408	-5.788053	-5.165578	3.989473	3.070911	0.820933	-2.014320	-0.228900	3.631880	-0.695677	-0.043884	0.702818	-1.000000	-1.000000	-1.000000	-1.000000	-1.000000	-1.000000	-1.000000	57.000000	0.000000	-1.000000	-1.000000	459548.000000	1775777643.338801
-4651.335000	-7539.795000	-5976.270000	23175.495000	15100.470000	8011.035000	-15376.860000	-733.275000	0.462866	-0.250932	-3.805410	-6.972033	-19.507671	-21.123290	-2.088769	1.073280	-2.014320	-0.228900	3.631880	-0.695677	-0.043884	0.702818	-1.000000	-1.000000	-1.000000	-1.000000	-1.000000	-1.000000	-1.000000	57.000000	0.000000	-1.000000	-1.000000	459549.000000	1775777643.338827
-4656.285000	-7547.670000	-5984.370000	23167.305000	15111.135000	8031.195000	-15370.110000	-735.840000	2.410065	3.354533	-0.730350	-4.369757	-24.997043	-35.509458	-5.572257	1.288519	-2.014320	-0.228900	3.631880	-0.695677	-0.043884	0.702818	-1.000000	-1.000000	-1.000000	-1.000000	-1.000000	-1.000000	-1.000000	57.000000	0.000000	-1.000000	-1.000000	459550.000000	1775777643.338853
-4659.615000	-7549.245000	-5980.410000	23174.955000	15125.580000	8039.385000	-15372.765000	-740.340000	2.923278	4.614556	1.856129	-0.728812	-18.751331	-30.823690	-5.552975	0.976000	-2.014320	-0.228900	3.631880	-0.695677	-0.043884	0.702818	-1.000000	-1.000000	-1.000000	-1.000000	-1.000000	-1.000000	-1.000000	57.000000	0.000000	-1.000000	-1.000000	459551.000000	1775777643.338866
-4658.715000	-7543.080000	-5969.115000	23186.610000	15129.090000	8030.520000	-15372.450000	-740.205000	0.901250	2.235553	2.333779	2.092895	-4.295194	-11.832481	-2.915834	-0.279688	-2.014320	-0.228900	3.631880	-0.695677	-0.043884	0.702818	-1.000000	-1.000000	-1.000000	-1.000000	-1.000000	-1.000000	-1.000000	57.000000	0.000000	-1.000000	-1.000000	459552.000000	1775777643.339165
-4653.315000	-7535.430000	-5962.320000	23190.975000	15121.260000	8018.730000	-15373.080000	-736.965000	-2.161395	-1.418453	1.834887	4.084118	10.219829	8.299214	0.083646	-1.766055	-2.014320	-0.228900	3.631880	-0.695677	-0.043884	0.702818	-1.000000	-1.000000	-1.000000	-1.000000	-1.000000	-1.000000	-1.000000	57.000000	0.000000	-1.000000	-1.000000	459553.000000	1775777643.339183
-4658.490000	-7542.045000	-5969.475000	23184.495000	15114.285000	8016.840000	-15373.755000	-741.870000	-3.969551	-3.530124	1.427611	4.938501	17.115121	18.755940	1.854112	-2.334632	-2.014320	-0.228900	3.631880	-0.695677	-0.043884	0.702818	-1.000000	-1.000000	-1.000000	-1.000000	-1.000000	-1.000000	-1.000000	57.000000	0.000000	-1.000000	-1.000000	459554.000000	1775777643.339203
-4664.565000	-7551.450000	-5981.040000	23173.290000	15110.820000	8024.805000	-15373.575000	-744.615000	-3.879223	-3.843131	0.309984	3.384442	14.194545	17.850470	2.115893	-1.816048	-2.014320	-0.228900	3.631880	-0.695677	-0.043884	0.702818	-1.000000	-1.000000	-1.000000	-1.000000	-1.000000	-1.000000	-1.000000	57.000000	0.000000	-1.000000	-1.000000	459555.000000	1775777643.339215
-4651.695000	-7543.170000	-5976.180000	23180.535000	15118.245000	8028.405000	-15365.205000	-730.530000	-2.565287	-3.541063	-2.239703	-0.626138	5.511311	10.994828	1.597994	-0.621237	-2.014320	-0.228900	3.631880	-0.695677	-0.043884	0.702818	-1.000000	-1.000000	-1.000000	-1.000000	-1.000000	-1.000000	-1.000000	57.000000	0.000000	-1.000000	-1.000000	459556.000000	1775777643.339229
-4649.355000	-7542.630000	-5977.890000	23176.260000	15121.080000	8020.395000	-15372.765000	-729.495000	-0.289912	-2.669802	-4.738542	-4.649822	-2.474831	3.962216	1.162771	1.258071	-2.014320	-0.228900	3.631880	-0.695677	-0.043884	0.702818	-1.000000	-1.000000	-1.000000	-1.000000	-1.000000	-1.000000	-1.000000	57.000000	0.000000	-1.000000	-1.000000	459557.000000	1775777643.339239
-4651.965000	-7545.105000	-5978.430000	23173.155000	15116.985000	8024.895000	-15370.740000	-733.365000	2.449986	-0.789233	-5.054317	-6.125114	-5.881831	-0.911325	0.789390	3.219987	4.333840	1.068200	3.891300	-0.696409	-0.044983	0.704222	-1.000000	-1.000000	-1.000000	-1.000000	-1.000000	-1.000000	-1.000000	57.000000	0.000000	-1.000000	-1.000000	459558.000000	1775777643.339253
-4658.535000	-7551.630000	-5978.745000	23176.440000	15117.705000	8034.345000	-15363.855000	-738.000000	3.959849	1.270703	-2.859374	-4.650713	-5.142085	-3.299847	0.232643	3.585764	4.333840	1.068200	3.891300	-0.696409	-0.044983	0.704222	-1.000000	-1.000000	-1.000000	-1.000000	-1.000000	-1.000000	-1.000000	57.000000	0.000000	-1.000000	-1.000000	459559.000000	1775777643.339263
-4652.415000	-7544.790000	-5971.680000	23175.810000	15117.345000	8027.010000	-15363.000000	-733.500000	3.091497	2.335079	0.623634	-1.337255	-2.689703	-3.392503	-0.064740	1.669154	4.333840	1.068200	3.891300	-0.696409	-0.044983	0.704222	-1.000000	-1.000000	-1.000000	-1.000000	-1.000000	-1.000000	-1.000000	57.000000	0.000000	-1.000000	-1.000000	459560.000000	1775777643.339276
-4654.170000	-7545.195000	-5972.220000	23174.370000	15117.840000	8012.430000	-15375.600000	-737.865000	0.804385	2.457924	3.920952	2.189275	-0.403671	-2.704015	-0.119835	-1.166884	4.333840	1.068200	3.891300	-0.696409	-0.044983	0.704222	-1.000000	-1.000000	-1.000000	-1.000000	-1.000000	-1.000000	-1.000000	57.000000	0.000000	-1.000000	-1.000000	459561.000000	1775777643.339286
-4654.800000	-7543.530000	-5968.980000	23180.850000	15123.195000	8011.710000	-15377.265000	-739.530000	-1.151143	2.314344	5.756283	4.484309	1.049232	-3.101711	-0.865109	-3.174429	4.333840	1.068200	3.891300	-0.696409	-0.044983	0.704222	-1.000000	-1.000000	-1.000000	-1.000000	-1.000000	-1.000000	-1.000000	57.000000	0.000000	-1.000000	-1.000000	459562.000000	1775777643.339299
-4658.715000	-7546.815000	-5971.365000	23180.895000	15105.870000	8011.395000	-15377.715000	-744.345000	-2.037011	1.985677	5.379258	5.085357	1.491996	-4.226187	-2.324804	-3.708069	4.333840	1.068200	3.891300	-0.696409	-0.044983	0.704222	-1.000000	-1.000000	-1.000000	-1.000000	-1.000000	-1.000000	-1.000000	57.000000	0.000000	-1.000000	-1.000000	459563.000000	1775777643.339309
-4657.770000	-7549.425000	-5975.100000	23176.620000	15101.955000	8004.420000	-15373.755000	-740.070000	-2.039023	1.106237	2.921082	4.135641	0.486070	-4.179338	-3.018397	-2.906109	4.333840	1.068200	3.891300	-0.696409	-0.044983	0.704222	-1.000000	-1.000000	-1.000000	-1.000000	-1.000000	-1.000000	-1.000000	57.000000	0.000000	-1.000000	-1.000000	459564.000000	1775777643.339322
-4660.470000	-7556.265000	-5986.080000	23166.720000	15112.530000	8025.660000	-15364.620000	-737.955000	-1.462883	-0.445272	-0.801808	1.681559	-1.393041	-1.869972	-1.624757	-1.003407	4.333840	1.068200	3.891300	-0.696409	-0.044983	0.704222	-1.000000	-1.000000	-1.000000	-1.000000	-1.000000	-1.000000	-1.000000	57.000000	0.000000	-1.000000	-1.000000	459565.000000	1775777643.339332
-4651.740000	-7544.115000	-5977.440000	23173.695000	15110.145000	8023.545000	-15361.515000	-729.045000	-0.406371	-1.969477	-4.325443	-1.639305	-2.021185	2.452035	1.609118	1.626564	4.333840	1.068200	3.891300	-0.696409	-0.044983	0.704222	-1.000000	-1.000000	-1.000000	-1.000000	-1.000000	-1.000000	-1.000000	57.000000	0.000000	-1.000000	-1.000000	459566.000000	1775777643.339345
-4653.720000	-7544.610000	-5977.350000	23173.425000	15107.085000	8009.145000	-15370.740000	-734.040000	1.076031	-2.125878	-5.652011	-3.990622	-0.507515	6.514771	4.611628	4.037527	4.333840	1.068200	3.891300	-0.696409	-0.044983	0.704222	-1.000000	-1.000000	-1.000000	-1.000000	-1.000000	-1.000000	-1.000000	57.000000	0.000000	-1.000000	-1.000000	459567.000000	1775777643.339355
-4651.335000	-7541.730000	-5972.355000	23173.470000	15100.830000	7998.795000	-15373.755000	-732.060000	2.441032	-0.548958	-3.791079	-3.906075	1.535965	6.796039	4.846305	4.821820	6.165040	1.312360	1.464960	-0.699461	-0.040649	0.704405	-1.000000	-1.000000	-1.000000	-1.000000	-1.000000	-1.000000	-1.000000	56.000000	0.000000	-1.000000	-1.000000	459568.000000	1775777643.339368
-4653.315000	-7540.920000	-5968.350000	23179.545000	15118.470000	8019.225000	-15364.035000	-732.465000	2.800271	1.468376	0.105982	-1.745580	2.588456	2.870125	2.057689	3.320850	6.165040	1.312360	1.464960	-0.699461	-0.040649	0.704405	-1.000000	-1.000000	-1.000000	-1.000000	-1.000000	-1.000000	-1.000000	56.000000	0.000000	-1.000000	-1.000000	459569.000000	1775777643.339378
-4658.220000	-7543.125000	-5965.920000	23187.420000	15142.140000	8046.135000	-15358.815000	-735.345000	1.712153	2.372803	3.779560	1.198372	3.421207	-0.857675	-1.147359	0.355665	6.165040	1.312360	1.464960	-0.699461	-0.040649	0.704405	-1.000000	-1.000000	-1.000000	-1.000000	-1.000000	-1.000000	-1.000000	56.000000	0.000000	-1.000000	-1.000000	459570.000000	1775777643.339390
-4655.970000	-7543.395000	-5970.375000	23179.410000	15120.495000	8018.550000	-15369.480000	-737.955000	-0.396860	1.570855	5.273956	3.503068	4.760939	-0.863142	-2.554194	-2.636078	6.165040	1.312360	1.464960	-0.699461	-0.040649	0.704405	-1.000000	-1.000000	-1.000000	-1.000000	-1.000000	-1.000000	-1.000000	56.000000	0.000000	-1.000000	-1.000000	459571.000000	1775777643.339400
-4653.045000	-7548.795000	-5978.880000	23164.605000	15097.545000	8000.505000	-15375.465000	-735.345000	-2.240612	-0.431232	3.679343	3.432088	3.988475	0.120771	-2.714001	-4.421067	6.165040	1.312360	1.464960	-0.699461	-0.040649	0.704405	-1.000000	-1.000000	-1.000000	-1.000000	-1.000000	-1.000000	-1.000000	56.000000	0.000000	-1.000000	-1.000000	459572.000000	1775777643.339412
-4649.625000	-7545.690000	-5974.515000	23173.335000	15118.695000	8035.740000	-15370.695000	-733.455000	-2.533910	-2.464120	-0.179568	0.444360	-1.011694	-1.505510	-2.877913	-4.216783	6.165040	1.312360	1.464960	-0.699461	-0.040649	0.704405	-1.000000	-1.000000	-1.000000	-1.000000	-1.000000	-1.000000	-1.000000	56.000000	0.000000	-1.000000	-1.000000	459573.000000	1775777643.339423
-4651.740000	-7543.935000	-5971.725000	23172.120000	15116.310000	8044.920000	-15378.570000	-740.070000	-1.245537	-3.264442	-3.737304	-3.138121	-6.747476	-3.331363	-2.819411	-2.291337	6.165040	1.312360	1.464960	-0.699461	-0.040649	0.704405	-1.000000	-1.000000	-1.000000	-1.000000	-1.000000	-1.000000	-1.000000	56.000000	0.000000	-1.000000	-1.000000	459574.000000	1775777643.339436
-4648.995000	-7539.030000	-5963.940000	23175.495000	15105.555000	8016.345000	-15383.835000	-741.105000	0.442324	-2.183664	-4.518697	-4.327027	-8.561687	-2.345619	-2.054289	-0.056134	6.165040	1.312360	1.464960	-0.699461	-0.040649	0.704405	-1.000000	-1.000000	-1.000000	-1.000000	-1.000000	-1.000000	-1.000000	56.000000	0.000000	-1.000000	-1.000000	459575.000000	1775777643.339446
-4637.790000	-7527.285000	-5948.775000	23191.110000	15115.050000	8015.265000	-15368.175000	-729.405000	1.603356	0.413343	-1.981361	-2.266470	-6.155247	-0.930793	-0.566764	1.495405	6.165040	1.312360	1.464960	-0.699461	-0.040649	0.704405	-1.000000	-1.000000	-1.000000	-1.000000	-1.000000	-1.000000	-1.000000	56.000000	0.000000	-1.000000	-1.000000	459576.000000	1775777643.339460
-4646.295000	-7538.265000	-5957.775000	23189.670000	15130.710000	8033.490000	-15366.870000	-733.995000	2.094022	3.154514	2.135490	1.784246	-1.358453	-1.414465	1.902776	2.584279	6.165040	1.312360	1.464960	-0.699461	-0.040649	0.704405	-1.000000	-1.000000	-1.000000	-1.000000	-1.000000	-1.000000	-1.000000	56.000000	0.000000	-1.000000	-1.000000	459577.000000	1775777643.339470
-4651.020000	-7549.335000	-5972.130000	23176.755000	15135.660000	8046.405000	-15363.405000	-734.580000	1.479253	3.795265	4.356903	4.914945	4.285524	-1.549947	4.817526	3.162436	2.548420	1.113980	0.518840	-0.695921	-0.033935	0.703184	-1.000000	-1.000000	-1.000000	-1.000000	-1.000000	-1.000000	-1.000000	56.000000	0.000000	-1.000000	-1.000000	459578.000000	1775777643.339483
-4642.155000	-7543.395000	-5967.180000	23178.150000	15132.465000	8039.385000	-15357.780000	-727.245000	-0.399404	1.260060	2.355913	4.327777	8.419857	0.744123	6.427145	2.707786	2.548420	1.113980	0.518840	-0.695921	-0.033935	0.703184	-1.000000	-1.000000	-1.000000	-1.000000	-1.000000	-1.000000	-1.000000	56.000000	0.000000	-1.000000	-1.000000	459579.000000	1775777643.339493
-4637.520000	-7538.490000	-5961.915000	23184.585000	15120.270000	8026.110000	-15358.770000	-724.140000	-2.070581	-2.283727	-1.965461	0.550569	8.233464	3.271126	5.534452	1.564368	2.548420	1.113980	0.518840	-0.695921	-0.033935	0.703184	-1.000000	-1.000000	-1.000000	-1.000000	-1.000000	-1.000000	-1.000000	56.000000	0.000000	-1.000000	-1.000000	459580.000000	1775777643.339506
-4643.145000	-7543.845000	-5966.280000	23180.985000	15108.795000	8016.885000	-15363.270000	-729.990000	-2.123021	-3.770161	-4.662303	-3.094893	2.950748	2.581360	2.263562	0.364195	2.548420	1.113980	0.518840	-0.695921	-0.033935	0.703184	-1.000000	-1.000000	-1.000000	-1.000000	-1.000000	-1.000000	-1.000000	56.000000	0.000000	-1.000000	-1.000000	459581.000000	1775777643.339516
-4638.645000	-7537.815000	-5959.665000	23186.745000	15117.795000	8020.260000	-15360.390000	-725.670000	-1.056164	-2.586676	-4.060880	-4.245534	-4.558495	-1.278644	-2.189066	-0.915609	2.548420	1.113980	0.518840	-0.695921	-0.033935	0.703184	-1.000000	-1.000000	-1.000000	-1.000000	-1.000000	-1.000000	-1.000000	56.000000	0.000000	-1.000000	-1.000000	459582.000000	1775777643.339528
-4637.745000	-7537.455000	-5957.955000	23188.590000	15112.665000	8008.155000	-15363.630000	-726.435000	0.003807	-0.080140	-1.143434	-2.864349	-9.364661	-4.954258	-5.856494	-2.145389	2.548420	1.113980	0.518840	-0.695921	-0.033935	0.703184	-1.000000	-1.000000	-1.000000	-1.000000	-1.000000	-1.000000	-1.000000	56.000000	0.000000	-1.000000	-1.000000	459583.000000	1775777643.339538
-4634.955000	-7538.175000	-5962.140000	23176.170000	15100.605000	8006.580000	-15367.140000	-726.255000	0.667991	2.169040	2.068958	-0.501843	-8.924156	-5.754362	-7.225456	-2.760686	2.548420	1.113980	0.518840	-0.695921	-0.033935	0.703184	-1.000000	-1.000000	-1.000000	-1.000000	-1.000000	-1.000000	-1.000000	56.000000	0.000000	-1.000000	-1.000000	459584.000000	1775777643.339550
-4634.595000	-7536.690000	-5960.205000	23173.650000	15107.625000	8016.750000	-15373.395000	-731.205000	0.947315	3.030517	3.665874	0.741213	-4.730726	-3.259112	-6.264006	-2.598148	2.548420	1.113980	0.518840	-0.695921	-0.033935	0.703184	-1.000000	-1.000000	-1.000000	-1.000000	-1.000000	-1.000000	-1.000000	56.000000	0.000000	-1.000000	-1.000000	459585.000000	1775777643.339561
-4647.600000	-7543.890000	-5963.265000	23178.735000	15114.780000	8014.680000	-15377.130000	-744.570000	0.597029	2.206033	3.045533	0.291899	0.786203	1.558561	-3.937323	-2.239827	2.548420	1.113980	0.518840	-0.695921	-0.033935	0.703184	-1.000000	-1.000000	-1.000000	-1.000000	-1.000000	-1.000000	-1.000000	56.000000	0.000000	-1.000000	-1.000000	459586.000000	1775777643.339573
-4645.620000	-7544.115000	-5965.605000	23175.270000	15107.760000	8009.775000	-15372.945000	-739.710000	-0.697998	0.183620	1.018235	-0.388157	5.838916	6.307992	-1.075864	-2.186699	2.548420	1.113980	0.518840	-0.695921	-0.033935	0.703184	-1.000000	-1.000000	-1.000000	-1.000000	-1.000000	-1.000000	-1.000000	56.000000	0.000000	-1.000000	-1.000000	459587.000000	1775777643.339583
-4629.240000	-7530.750000	-5951.565000	23190.840000	15126.435000	8021.520000	-15358.455000	-722.790000	-1.921428	-1.681014	-0.889946	0.166372	8.766498	8.372413	2.251356	-1.459346	-2.517900	1.693860	0.778260	-0.694761	-0.030517	0.700682	-1.000000	-1.000000	-1.000000	-1.000000	-1.000000	-1.000000	-1.000000	56.000000	0.000000	-1.000000	-1.000000	459588.000000	1775777643.339595
-4622.715000	-7521.885000	-5939.550000	23208.030000	15144.840000	8017.650000	-15352.155000	-717.300000	-1.029276	-1.583506	-0.969589	2.443268	9.277710	7.219360	6.024394	1.453029	-2.517900	1.693860	0.778260	-0.694761	-0.030517	0.700682	-1.000000	-1.000000	-1.000000	-1.000000	-1.000000	-1.000000	-1.000000	56.000000	0.000000	-1.000000	-1.000000	459589.000000	1775777643.339605
-4623.165000	-7520.355000	-5940.450000	23204.970000	15153.255000	8021.610000	-15355.665000	-718.335000	2.012615	0.706046	1.049810	5.539899	8.364180	3.990231	8.827715	5.600823	-2.517900	1.693860	0.778260	-0.694761	-0.030517	0.700682	-1.000000	-1.000000	-1.000000	-1.000000	-1.000000	-1.000000	-1.000000	56.000000	0.000000	-1.000000	-1.000000	459590.000000	1775777643.339617
-4635.270000	-7535.160000	-5958.270000	23187.555000	15136.785000	8042.760000	-15366.420000	-733.095000	4.303681	2.777559	2.702065	6.470268	5.686154	0.437514	8.178969	7.483550	-2.517900	1.693860	0.778260	-0.694761	-0.030517	0.700682	-1.000000	-1.000000	-1.000000	-1.000000	-1.000000	-1.000000	-1.000000	56.000000	0.000000	-1.000000	-1.000000	459591.000000	1775777643.339628
-4642.020000	-7542.315000	-5963.580000	23179.005000	15113.925000	8018.640000	-15371.640000	-739.170000	3.034464	1.778321	1.053215	2.521248	-0.506102	-2.009684	3.122644	4.570857	-2.517900	1.693860	0.778260	-0.694761	-0.030517	0.700682	-1.000000	-1.000000	-1.000000	-1.000000	-1.000000	-1.000000	-1.000000	56.000000	0.000000	-1.000000	-1.000000	459592.000000	1775777643.339640
-4641.030000	-7541.190000	-5957.280000	23188.455000	15126.705000	8032.770000	-15369.930000	-739.755000	-1.329297	-2.188279	-3.327835	-4.689754	-9.428053	-3.709135	-3.943661	-1.736771	-2.517900	1.693860	0.778260	-0.694761	-0.030517	0.700682	-1.000000	-1.000000	-1.000000	-1.000000	-1.000000	-1.000000	-1.000000	56.000000	0.000000	-1.000000	-1.000000	459593.000000	1775777643.339650
-4640.220000	-7544.070000	-5959.935000	23189.355000	15125.760000	8045.010000	-15361.785000	-736.335000	-5.350401	-5.866942	-6.569105	-9.821279	-15.855258	-4.890591	-8.656395	-7.037084	-2.517900	1.693860	0.778260	-0.694761	-0.030517	0.700682	-1.000000	-1.000000	-1.000000	-1.000000	-1.000000	-1.000000	-1.000000	56.000000	0.000000	-1.000000	-1.000000	459594.000000	1775777643.339947
-4648.140000	-7553.565000	-5971.185000	23177.475000	15115.860000	8026.245000	-15365.295000	-740.340000	-6.150074	-6.473049	-6.148852	-9.455581	-15.214868	-4.676350	-8.284259	-7.913796	-2.517900	1.693860	0.778260	-0.694761	-0.030517	0.700682	-1.000000	-1.000000	-1.000000	-1.000000	-1.000000	-1.000000	-1.000000	56.000000	0.000000	-1.000000	-1.000000	459595.000000	1775777643.339959
-4642.425000	-7549.830000	-5968.665000	23174.190000	15120.990000	8025.345000	-15360.525000	-732.195000	-3.702981	-3.982099	-3.035595	-5.103232	-8.356518	-3.758255	-3.857153	-4.420927	-2.517900	1.693860	0.778260	-0.694761	-0.030517	0.700682	-1.000000	-1.000000	-1.000000	-1.000000	-1.000000	-1.000000	-1.000000	56.000000	0.000000	-1.000000	-1.000000	459596.000000	1775777643.355342
-4634.370000	-7542.855000	-5961.960000	23180.040000	15119.010000	8017.650000	-15358.590000	-724.860000	0.465225	0.272962	0.890328	-0.016883	0.641622	-3.487280	1.438676	1.124623	-2.517900	1.693860	0.778260	-0.694761	-0.030517	0.700682	-1.000000	-1.000000	-1.000000	-1.000000	-1.000000	-1.000000	-1.000000	56.000000	0.000000	-1.000000	-1.000000	459597.000000	1775777643.355368
-4636.260000	-7545.195000	-5963.265000	23178.825000	15103.980000	7988.985000	-15371.550000	-731.205000	4.687549	4.817213	4.562051	4.104537	7.719957	-3.945807	4.707727	5.913846	-5.112100	3.204600	-0.808780	-0.696531	-0.029968	0.698912	-1.000000	-1.000000	-1.000000	-1.000000	-1.000000	-1.000000	-1.000000	56.000000	0.000000	-1.000000	-1.000000	459598.000000	1775777643.355439
-4625.235000	-7532.100000	-5946.525000	23190.705000	15101.505000	7985.520000	-15369.480000	-725.265000	7.252047	7.979907	7.164780	6.823306	10.124113	-4.692117	4.486638	7.564462	-5.112100	3.204600	-0.808780	-0.696531	-0.029968	0.698912	-1.000000	-1.000000	-1.000000	-1.000000	-1.000000	-1.000000	-1.000000	56.000000	0.000000	-1.000000	-1.000000	459599.000000	1775777643.355458
-4620.420000	-7525.035000	-5936.445000	23199.930000	15112.485000	8002.530000	-15362.325000	-723.600000	7.272282	8.774252	8.272447	8.117167	8.224417	-4.004745	1.830877	5.619786	-5.112100	3.204600	-0.808780	-0.696531	-0.029968	0.698912	-1.000000	-1.000000	-1.000000	-1.000000	-1.000000	-1.000000	-1.000000	56.000000	0.000000	-1.000000	-1.000000	459600.000000	1775777643.355476
-4635.180000	-7544.115000	-5955.840000	23183.730000	15101.055000	8007.840000	-15369.030000	-733.455000	4.778674	6.849814	7.309036	7.596034	4.952911	0.551218	-0.600226	1.565673	-5.112100	3.204600	-0.808780	-0.696531	-0.029968	0.698912	-1.000000	-1.000000	-1.000000	-1.000000	-1.000000	-1.000000	-1.000000	56.000000	0.000000	-1.000000	-1.000000	459601.000000	1775777643.355488
-4637.340000	-7551.675000	-5971.860000	23165.685000	15099.795000	8031.060000	-15363.585000	-729.270000	0.004831	1.745679	2.799868	3.905097	2.211643	8.495792	-1.400897	-2.797396	-5.112100	3.204600	-0.808780	-0.696531	-0.029968	0.698912	-1.000000	-1.000000	-1.000000	-1.000000	-1.000000	-1.000000	-1.000000	56.000000	0.000000	-1.000000	-1.000000	459602.000000	1775777643.360114
-4642.065000	-7550.235000	-5972.670000	23165.190000	15107.130000	8023.140000	-15365.025000	-731.520000	-5.608377	-5.244546	-4.914743	-2.931840	0.226373	15.624684	-0.892002	-5.765803	-5.112100	3.204600	-0.808780	-0.696531	-0.029968	0.698912	-1.000000	-1.000000	-1.000000	-1.000000	-1.000000	-1.000000	-1.000000	56.000000	0.000000	-1.000000	-1.000000	459603.000000	1775777643.360142
-4632.030000	-7537.995000	-5957.055000	23186.385000	15129.360000	8040.420000	-15361.965000	-730.845000	-9.075675	-10.048521	-11.354166	-8.935964	-0.318187	17.192097	0.124090	-6.139686	-5.112100	3.204600	-0.808780	-0.696531	-0.029968	0.698912	-1.000000	-1.000000	-1.000000	-1.000000	-1.000000	-1.000000	-1.000000	56.000000	0.000000	-1.000000	-1.000000	459604.000000	1775777643.360712
-4629.915000	-7538.625000	-5955.885000	23190.615000	15135.255000	8049.870000	-15354.495000	-725.940000	-8.059791	-9.276788	-11.491524	-9.107933	1.277865	11.956910	1.054826	-4.020461	-5.112100	3.204600	-0.808780	-0.696531	-0.029968	0.698912	-1.000000	-1.000000	-1.000000	-1.000000	-1.000000	-1.000000	-1.000000	56.000000	0.000000	-1.000000	-1.000000	459605.000000	1775777643.360733
-4636.755000	-7548.345000	-5966.055000	23180.175000	15123.465000	8038.125000	-15358.365000	-725.715000	-3.257697	-3.983326	-5.388337	-3.400364	3.296803	2.572350	1.612443	-0.546609	-5.112100	3.204600	-0.808780	-0.696531	-0.029968	0.698912	-1.000000	-1.000000	-1.000000	-1.000000	-1.000000	-1.000000	-1.000000	56.000000	0.000000	-1.000000	-1.000000	459606.000000	1775777643.364631
-4626.945000	-7536.600000	-5956.605000	23187.555000	15122.835000	8035.560000	-15350.130000	-716.805000	2.128096	1.714521	2.129101	3.117796	2.428340	-7.620637	1.517004	2.803711	-5.112100	3.204600	-0.808780	-0.696531	-0.029968	0.698912	-1.000000	-1.000000	-1.000000	-1.000000	-1.000000	-1.000000	-1.000000	56.000000	0.000000	-1.000000	-1.000000	459607.000000	1775777643.364650
-4623.615000	-7533.270000	-5955.480000	23183.280000	15112.260000	8023.680000	-15353.415000	-718.605000	5.585197	5.152590	6.920433	6.103986	-2.230607	-15.764793	0.705927	4.815416	-3.311420	2.563680	-1.571780	-0.701475	-0.033935	0.699217	-1.000000	-1.000000	-1.000000	-1.000000	-1.000000	-1.000000	-1.000000	56.000000	0.000000	-1.000000	-1.000000	459608.000000	1775777643.368512
-4626.630000	-7534.215000	-5953.815000	23185.980000	15118.380000	8025.210000	-15359.220000	-722.025000	6.450842	6.088600	7.987362	5.022944	-7.873482	-19.238399	-0.677639	4.697805	-3.311420	2.563680	-1.571780	-0.701475	-0.033935	0.699217	-1.000000	-1.000000	-1.000000	-1.000000	-1.000000	-1.000000	-1.000000	56.000000	0.000000	-1.000000	-1.000000	459609.000000	1775777643.368529
-4625.865000	-7533.405000	-5950.710000	23191.335000	15130.125000	8033.760000	-15360.120000	-721.620000	4.819581	4.832664	6.097094	1.841078	-10.327770	-16.412455	-2.461834	2.359714	-3.311420	2.563680	-1.571780	-0.701475	-0.033935	0.699217	-1.000000	-1.000000	-1.000000	-1.000000	-1.000000	-1.000000	-1.000000	56.000000	0.000000	-1.000000	-1.000000	459610.000000	1775777643.376424
-4630.680000	-7538.580000	-5955.255000	23184.270000	15114.015000	8008.380000	-15370.560000	-728.505000	1.432235	1.902873	2.599145	-1.126441	-7.674114	-8.320211	-4.065967	-1.119294	-3.311420	2.563680	-1.571780	-0.701475	-0.033935	0.699217	-1.000000	-1.000000	-1.000000	-1.000000	-1.000000	-1.000000	-1.000000	56.000000	0.000000	-1.000000	-1.000000	459611.000000	1775777643.376443
-4628.835000	-7538.400000	-5954.670000	23188.455000	15122.250000	8016.480000	-15368.895000	-727.020000	-2.212505	-1.612763	-1.173561	-2.817861	-2.120348	0.905059	-4.669540	-4.055239	-3.311420	2.563680	-1.571780	-0.701475	-0.033935	0.699217	-1.000000	-1.000000	-1.000000	-1.000000	-1.000000	-1.000000	-1.000000	56.000000	0.000000	-1.000000	-1.000000	459612.000000	1775777643.381721
-4630.275000	-7541.145000	-5958.045000	23185.575000	15122.745000	8029.170000	-15365.970000	-726.210000	-4.511540	-4.308415	-4.110846	-3.221531	2.920111	7.847144	-3.542626	-5.047568	-3.311420	2.563680	-1.571780	-0.701475	-0.033935	0.699217	-1.000000	-1.000000	-1.000000	-1.000000	-1.000000	-1.000000	-1.000000	56.000000	0.000000	-1.000000	-1.000000	459613.000000	1775777643.381745
-4629.555000	-7540.020000	-5960.520000	23180.355000	15116.355000	8022.105000	-15362.775000	-724.320000	-4.616533	-5.092994	-5.439129	-2.701621	5.708288	11.948965	-0.479063	-3.596600	-3.311420	2.563680	-1.571780	-0.701475	-0.033935	0.699217	-1.000000	-1.000000	-1.000000	-1.000000	-1.000000	-1.000000	-1.000000	56.000000	0.000000	-1.000000	-1.000000	459614.000000	1775777643.388912
-4624.515000	-7532.100000	-5953.410000	23185.620000	15114.690000	8002.665000	-15366.420000	-721.215000	-2.767440	-3.636837	-4.844439	-1.766894	5.728135	12.506033	3.364223	-0.480076	-3.311420	2.563680	-1.571780	-0.701475	-0.033935	0.699217	-1.000000	-1.000000	-1.000000	-1.000000	-1.000000	-1.000000	-1.000000	56.000000	0.000000	-1.000000	-1.000000	459615.000000	1775777643.388938
-4621.905000	-7528.860000	-5948.820000	23189.535000	15107.490000	7989.030000	-15371.280000	-721.530000	0.116178	-0.431592	-2.357174	-0.449047	3.438403	8.215482	5.792466	2.698127	-3.311420	2.563680	-1.571780	-0.701475	-0.033935	0.699217	-1.000000	-1.000000	-1.000000	-1.000000	-1.000000	-1.000000	-1.000000	56.000000	0.000000	-1.000000	-1.000000	459616.000000	1775777643.388968
-4629.690000	-7538.580000	-5954.760000	23189.535000	15117.075000	8009.100000	-15369.480000	-727.425000	2.613984	2.867553	1.078255	1.332172	0.480311	0.912660	5.416680	4.304742	-3.311420	2.563680	-1.571780	-0.701475	-0.033935	0.699217	-1.000000	-1.000000	-1.000000	-1.000000	-1.000000	-1.000000	-1.000000	56.000000	0.000000	-1.000000	-1.000000	459617.000000	1775777643.388980
-4637.520000	-7547.310000	-5960.700000	23184.180000	15116.895000	8032.545000	-15364.980000	-734.940000	3.106484	3.898048	3.374760	2.762167	-1.137590	-3.800380	3.006122	3.392759	0.564620	1.953280	-2.227960	-0.702269	-0.038635	0.699034	-1.000000	-1.000000	-1.000000	-1.000000	-1.000000	-1.000000	-1.000000	56.000000	0.000000	-1.000000	-1.000000	459618.000000	1775777643.388994
-4632.480000	-7544.070000	-5959.935000	23181.435000	15116.400000	8026.335000	-15373.575000	-737.280000	1.301071	1.898334	3.108546	2.669258	-0.714235	-2.323998	0.366141	0.454272	0.564620	1.953280	-2.227960	-0.702269	-0.038635	0.699034	-1.000000	-1.000000	-1.000000	-1.000000	-1.000000	-1.000000	-1.000000	56.000000	0.000000	-1.000000	-1.000000	459619.000000	1775777643.389005
-4624.290000	-7532.010000	-5946.930000	23195.925000	15137.415000	8038.440000	-15360.525000	-727.695000	-0.838158	-0.885035	1.322235	1.250075	0.952066	2.543070	-1.388214	-2.394488	0.564620	1.953280	-2.227960	-0.702269	-0.038635	0.699034	-1.000000	-1.000000	-1.000000	-1.000000	-1.000000	-1.000000	-1.000000	56.000000	0.000000	-1.000000	-1.000000	459620.000000	1775777643.402458
-4625.775000	-7535.610000	-5955.120000	23184.315000	15123.285000	8028.765000	-15357.555000	-730.800000	-1.122644	-1.586324	0.182003	-0.012904	2.720214	5.315264	-1.692637	-2.917508	0.564620	1.953280	-2.227960	-0.702269	-0.038635	0.699034	-1.000000	-1.000000	-1.000000	-1.000000	-1.000000	-1.000000	-1.000000	56.000000	0.000000	-1.000000	-1.000000	459621.000000	1775777643.402483
-4631.670000	-7541.955000	-5960.250000	23178.150000	15112.350000	8016.750000	-15361.830000	-737.190000	0.208372	-0.184979	0.032852	-0.725599	2.766050	3.003105	-0.734687	-1.140920	0.564620	1.953280	-2.227960	-0.702269	-0.038635	0.699034	-1.000000	-1.000000	-1.000000	-1.000000	-1.000000	-1.000000	-1.000000	56.000000	0.000000	-1.000000	-1.000000	459622.000000	1775777643.402510
-4620.870000	-7533.045000	-5952.870000	23186.430000	15128.235000	8027.865000	-15354.900000	-727.380000	1.368687	1.206909	-0.203534	-1.492649	0.055266	-3.224138	0.195726	1.025112	0.564620	1.953280	-2.227960	-0.702269	-0.038635	0.699034	-1.000000	-1.000000	-1.000000	-1.000000	-1.000000	-1.000000	-1.000000	56.000000	0.000000	-1.000000	-1.000000	459623.000000	1775777643.402522
-4618.395000	-7531.200000	-5948.865000	23188.725000	15127.155000	8016.255000	-15360.480000	-726.120000	1.698818	1.602242	-0.502936	-1.776398	-3.204086	-9.017768	0.129603	2.426887	0.564620	1.953280	-2.227960	-0.702269	-0.038635	0.699034	-1.000000	-1.000000	-1.000000	-1.000000	-1.000000	-1.000000	-1.000000	56.000000	0.000000	-1.000000	-1.000000	459624.000000	1775777643.402536
-4617.810000	-7530.165000	-5944.905000	23191.155000	15122.475000	8007.210000	-15366.735000	-726.165000	1.569554	1.403571	-0.081916	-0.735073	-4.339084	-10.956750	-0.995362	2.956733	0.564620	1.953280	-2.227960	-0.702269	-0.038635	0.699034	-1.000000	-1.000000	-1.000000	-1.000000	-1.000000	-1.000000	-1.000000	56.000000	0.000000	-1.000000	-1.000000	459625.000000	1775777643.402547
-4615.875000	-7526.655000	-5938.380000	23200.920000	15124.590000	8010.495000	-15363.945000	-723.285000	0.985451	0.891582	0.996476	1.220131	-3.398719	-8.864254	-2.660928	2.465087	0.564620	1.953280	-2.227960	-0.702269	-0.038635	0.699034	-1.000000	-1.000000	-1.000000	-1.000000	-1.000000	-1.000000	-1.000000	56.000000	0.000000	-1.000000	-1.000000	459626.000000	1775777643.408448
-4626.720000	-7537.905000	-5946.165000	23193.855000	15121.305000	8026.335000	-15364.665000	-732.330000	-0.345100	-0.072891	1.757788	2.861797	-1.730763	-3.676551	-3.630725	0.881706	0.564620	1.953280	-2.227960	-0.702269	-0.038635	0.699034	-1.000000	-1.000000	-1.000000	-1.000000	-1.000000	-1.000000	-1.000000	56.000000	0.000000	-1.000000	-1.000000	459627.000000	1775777643.408482
-4629.195000	-7545.150000	-5952.015000	23185.080000	15122.655000	8033.535000	-15360.390000	-731.745000	-2.445479	-1.818385	0.979487	2.697957	-0.226705	3.530900	-2.816499	-1.476248	2.792580	3.021480	-2.136400	-0.703611	-0.039429	0.696776	-1.000000	-1.000000	-1.000000	-1.000000	-1.000000	-1.000000	-1.000000	56.000000	0.000000	-1.000000	-1.000000	459628.000000	1775777643.417334
-4614.525000	-7535.565000	-5938.695000	23198.310000	15125.130000	8030.520000	-15349.185000	-715.365000	-4.195365	-3.810621	-1.268827	0.359776	0.871460	10.112486	-0.202959	-3.343964	2.792580	3.021480	-2.136400	-0.703611	-0.039429	0.696776	-1.000000	-1.000000	-1.000000	-1.000000	-1.000000	-1.000000	-1.000000	56.000000	0.000000	-1.000000	-1.000000	459629.000000	1775777643.417358
-4616.280000	-7543.620000	-5940.180000	23197.140000	15116.670000	8010.675000	-15355.845000	-717.165000	-3.680836	-4.338499	-2.985091	-2.199247	1.537332	12.107560	3.072167	-2.997720	2.792580	3.021480	-2.136400	-0.703611	-0.039429	0.696776	-1.000000	-1.000000	-1.000000	-1.000000	-1.000000	-1.000000	-1.000000	56.000000	0.000000	-1.000000	-1.000000	459630.000000	1775777643.417385
-4627.890000	-7566.840000	-5952.240000	23180.895000	15103.530000	7993.620000	-15366.780000	-727.425000	-1.010299	-3.096169	-2.925516	-3.253104	1.249093	7.240132	4.746183	-0.843483	2.792580	3.021480	-2.136400	-0.703611	-0.039429	0.696776	-1.000000	-1.000000	-1.000000	-1.000000	-1.000000	-1.000000	-1.000000	56.000000	0.000000	-1.000000	-1.000000	459631.000000	1775777643.417397
-4624.110000	-7578.900000	-5946.480000	23187.105000	15116.985000	8008.920000	-15363.360000	-724.545000	1.353545	-2.040013	-2.047307	-3.284146	-0.078701	-1.862234	3.195278	0.646137	2.792580	3.021480	-2.136400	-0.703611	-0.039429	0.696776	-1.000000	-1.000000	-1.000000	-1.000000	-1.000000	-1.000000	-1.000000	56.000000	0.000000	-1.000000	-1.000000	459632.000000	1775777643.417411
-4618.080000	-7582.365000	-5934.780000	23201.685000	15134.535000	8019.360000	-15364.170000	-723.330000	2.099445	-2.067462	-0.935342	-2.483415	-0.533202	-8.433168	-0.322857	0.387386	2.792580	3.021480	-2.136400	-0.703611	-0.039429	0.696776	-1.000000	-1.000000	-1.000000	-1.000000	-1.000000	-1.000000	-1.000000	56.000000	0.000000	-1.000000	-1.000000	459633.000000	1775777643.417422
-4616.190000	-7586.415000	-5929.740000	23197.185000	15127.110000	8017.470000	-15363.045000	-725.265000	2.133824	-1.564679	1.070749	-0.072152	1.540973	-7.811623	-2.968397	-0.515303	2.792580	3.021480	-2.136400	-0.703611	-0.039429	0.696776	-1.000000	-1.000000	-1.000000	-1.000000	-1.000000	-1.000000	-1.000000	56.000000	0.000000	-1.000000	-1.000000	459634.000000	1775777643.420055
-4620.555000	-7598.340000	-5934.780000	23193.855000	15113.430000	8009.865000	-15356.340000	-726.885000	2.167948	0.774028	3.504350	2.946724	4.064943	-2.053754	-3.093005	-0.952339	2.792580	3.021480	-2.136400	-0.703611	-0.039429	0.696776	-1.000000	-1.000000	-1.000000	-1.000000	-1.000000	-1.000000	-1.000000	56.000000	0.000000	-1.000000	-1.000000	459635.000000	1775777643.420072
-4622.490000	-7604.910000	-5938.290000	23195.925000	15110.775000	8005.905000	-15360.120000	-726.120000	1.695035	3.935508	4.311340	4.225849	3.460738	3.175950	-1.047335	-0.727539	2.792580	3.021480	-2.136400	-0.703611	-0.039429	0.696776	-1.000000	-1.000000	-1.000000	-1.000000	-1.000000	-1.000000	-1.000000	56.000000	0.000000	-1.000000	-1.000000	459636.000000	1775777643.425018
-4623.840000	-7607.520000	-5938.245000	23194.980000	15108.480000	8010.720000	-15358.365000	-726.930000	0.321253	6.097081	2.366170	3.049750	-0.455940	4.570074	1.406700	-0.047659	2.792580	3.021480	-2.136400	-0.703611	-0.039429	0.696776	-1.000000	-1.000000	-1.000000	-1.000000	-1.000000	-1.000000	-1.000000	56.000000	0.000000	-1.000000	-1.000000	459637.000000	1775777643.425043
-4623.705000	-7607.790000	-5935.995000	23196.330000	15096.420000	7996.770000	-15361.245000	-727.155000	-1.329052	6.602378	-1.007879	0.648323	-4.691768	2.724769	2.536162	0.754133	3.174080	5.997180	-3.631880	-0.707640	-0.035767	0.695311	-1.000000	-1.000000	-1.000000	-1.000000	-1.000000	-1.000000	-1.000000	56.000000	0.000000	-1.000000	-1.000000	459638.000000	1775777643.437173
-4619.880000	-7609.545000	-5939.685000	23194.890000	15098.130000	7987.860000	-15363.315000	-723.330000	-2.165095	5.840540	-3.512640	-1.442435	-6.617279	-0.524907	1.853233	1.381480	3.174080	5.997180	-3.631880	-0.707640	-0.035767	0.695311	-1.000000	-1.000000	-1.000000	-1.000000	-1.000000	-1.000000	-1.000000	56.000000	0.000000	-1.000000	-1.000000	459639.000000	1775777643.437199
-4616.955000	-7605.000000	-5937.705000	23193.225000	15123.060000	8003.610000	-15359.130000	-722.745000	-1.553970	4.354989	-3.975478	-2.441194	-4.844494	-3.267873	0.146222	1.758894	3.174080	5.997180	-3.631880	-0.707640	-0.035767	0.695311	-1.000000	-1.000000	-1.000000	-1.000000	-1.000000	-1.000000	-1.000000	56.000000	0.000000	-1.000000	-1.000000	459640.000000	1775777643.437226
-4634.370000	-7620.120000	-5951.565000	23186.340000	15139.305000	8040.420000	-15358.140000	-734.895000	-0.195038	2.305595	-2.878044	-2.498118	1.018885	-2.642977	-1.187564	1.583179	3.174080	5.997180	-3.631880	-0.707640	-0.035767	0.695311	-1.000000	-1.000000	-1.000000	-1.000000	-1.000000	-1.000000	-1.000000	56.000000	0.000000	-1.000000	-1.000000	459641.000000	1775777643.437238
-4631.220000	-7613.775000	-5948.055000	23186.205000	15113.430000	8032.320000	-15357.870000	-730.530000	0.273060	-0.438403	-1.475810	-2.142449	8.079002	2.555343	-1.318670	0.380121	3.174080	5.997180	-3.631880	-0.707640	-0.035767	0.695311	-1.000000	-1.000000	-1.000000	-1.000000	-1.000000	-1.000000	-1.000000	56.000000	0.000000	-1.000000	-1.000000	459642.000000	1775777643.437257
-4627.800000	-7609.095000	-5947.605000	23183.820000	15113.835000	8036.820000	-15356.385000	-727.605000	-0.387716	-3.085794	-0.260044	-1.530795	10.474227	8.330963	-0.567673	-1.209919	3.174080	5.997180	-3.631880	-0.707640	-0.035767	0.695311	-1.000000	-1.000000	-1.000000	-1.000000	-1.000000	-1.000000	-1.000000	56.000000	0.000000	-1.000000	-1.000000	459643.000000	1775777643.437268
-4621.860000	-7600.860000	-5941.530000	23190.705000	15128.415000	8029.845000	-15359.310000	-723.420000	-0.546904	-3.975635	1.278828	-0.369917	6.003558	8.958776	0.217810	-1.665245	3.174080	5.997180	-3.631880	-0.707640	-0.035767	0.695311	-1.000000	-1.000000	-1.000000	-1.000000	-1.000000	-1.000000	-1.000000	56.000000	0.000000	-1.000000	-1.000000	459644.000000	1775777643.443067
-4617.990000	-7594.965000	-5940.720000	23194.260000	15135.975000	8025.570000	-15360.390000	-718.785000	0.834587	-2.563369	3.256462	1.533777	-0.906130	3.068571	0.379897	-0.447391	3.174080	5.997180	-3.631880	-0.707640	-0.035767	0.695311	-1.000000	-1.000000	-1.000000	-1.000000	-1.000000	-1.000000	-1.000000	56.000000	0.000000	-1.000000	-1.000000	459645.000000	1775777643.443091
-4625.280000	-7600.995000	-5950.395000	23184.405000	15134.535000	8027.820000	-15355.845000	-723.240000	2.746870	-0.303506	4.565713	3.434245	-5.123109	-5.686402	-0.047094	1.385263	3.174080	5.997180	-3.631880	-0.707640	-0.035767	0.695311	-1.000000	-1.000000	-1.000000	-1.000000	-1.000000	-1.000000	-1.000000	56.000000	0.000000	-1.000000	-1.000000	459646.000000	1775777643.444507
-4636.620000	-7610.040000	-5953.500000	23182.155000	15129.090000	8028.855000	-15357.825000	-733.770000	3.014943	0.414284	3.731985	3.718078	-5.841508	-11.935179	-0.404336	1.974811	3.174080	5.997180	-3.631880	-0.707640	-0.035767	0.695311	-1.000000	-1.000000	-1.000000	-1.000000	-1.000000	-1.000000	-1.000000	56.000000	0.000000	-1.000000	-1.000000	459647.000000	1775777643.444523
-4624.605000	-7593.570000	-5927.400000	23210.505000	15131.835000	8013.465000	-15356.025000	-724.275000	0.836534	-1.183614	1.279729	2.322536	-5.004813	-12.685804	-0.298405	0.485620	0.824040	3.906560	-6.729660	-0.707762	-0.032593	0.695311	-1.000000	-1.000000	-1.000000	-1.000000	-1.000000	-1.000000	-1.000000	56.000000	0.000000	-1.000000	-1.000000	459648.000000	1775777643.452916
-4626.045000	-7594.875000	-5924.880000	23211.540000	15128.730000	7997.940000	-15359.580000	-727.515000	-1.806596	-3.032952	-0.063847	1.494695	-3.958626	-9.240655	0.010313	-1.651329	0.824040	3.906560	-6.729660	-0.707762	-0.032593	0.695311	-1.000000	-1.000000	-1.000000	-1.000000	-1.000000	-1.000000	-1.000000	56.000000	0.000000	-1.000000	-1.000000	459649.000000	1775777643.452935
-4629.645000	-7601.310000	-5932.395000	23202.045000	15125.940000	8010.360000	-15363.135000	-735.615000	-2.723720	-3.219470	0.595799	1.884955	-2.857850	-4.360688	0.026906	-2.691980	0.824040	3.906560	-6.729660	-0.707762	-0.032593	0.695311	-1.000000	-1.000000	-1.000000	-1.000000	-1.000000	-1.000000	-1.000000	56.000000	0.000000	-1.000000	-1.000000	459650.000000	1775777643.452958
-4630.680000	-7604.865000	-5935.995000	23198.850000	15124.905000	8039.070000	-15360.480000	-736.875000	-2.006881	-2.353983	0.822687	1.143407	-1.609966	1.584483	-0.376491	-2.579567	0.824040	3.906560	-6.729660	-0.707762	-0.032593	0.695311	-1.000000	-1.000000	-1.000000	-1.000000	-1.000000	-1.000000	-1.000000	56.000000	0.000000	-1.000000	-1.000000	459651.000000	1775777643.452970
-4625.415000	-7607.295000	-5945.490000	23184.810000	15116.760000	8026.740000	-15355.125000	-724.995000	-0.744685	-1.688399	-1.365176	-2.218516	-0.298761	8.826950	-0.571568	-1.620802	0.824040	3.906560	-6.729660	-0.707762	-0.032593	0.695311	-1.000000	-1.000000	-1.000000	-1.000000	-1.000000	-1.000000	-1.000000	56.000000	0.000000	-1.000000	-1.000000	459652.000000	1775777643.457405
-4628.565000	-7618.590000	-5959.665000	23168.385000	15099.975000	8004.375000	-15357.015000	-725.040000	0.504215	-1.464375	-5.238422	-6.967491	0.512608	13.747789	0.073049	0.462798	0.824040	3.906560	-6.729660	-0.707762	-0.032593	0.695311	-1.000000	-1.000000	-1.000000	-1.000000	-1.000000	-1.000000	-1.000000	56.000000	0.000000	-1.000000	-1.000000	459653.000000	1775777643.457440
-4628.115000	-7613.415000	-5949.270000	23176.305000	15097.185000	7998.885000	-15354.090000	-725.490000	1.348493	-1.267837	-8.259361	-10.290088	0.275124	11.566192	1.172682	3.047142	0.824040	3.906560	-6.729660	-0.707762	-0.032593	0.695311	-1.000000	-1.000000	-1.000000	-1.000000	-1.000000	-1.000000	-1.000000	56.000000	0.000000	-1.000000	-1.000000	459654.000000	1775777643.461074
-4621.635000	-7607.070000	-5939.415000	23189.355000	15119.370000	8006.265000	-15351.165000	-721.890000	1.545510	-0.199642	-7.421069	-8.960374	0.171227	3.272536	1.867172	4.454325	0.824040	3.906560	-6.729660	-0.707762	-0.032593	0.695311	-1.000000	-1.000000	-1.000000	-1.000000	-1.000000	-1.000000	-1.000000	56.000000	0.000000	-1.000000	-1.000000	459655.000000	1775777643.461106
-4621.050000	-7615.530000	-5948.730000	23182.650000	15127.245000	8007.300000	-15357.555000	-723.015000	1.401536	2.123980	-2.024101	-2.157934	2.535126	-4.758822	1.658072	3.782126	0.824040	3.906560	-6.729660	-0.707762	-0.032593	0.695311	-1.000000	-1.000000	-1.000000	-1.000000	-1.000000	-1.000000	-1.000000	56.000000	0.000000	-1.000000	-1.000000	459656.000000	1775777643.480230
-4616.415000	-7610.760000	-5940.720000	23189.895000	15134.535000	8022.825000	-15356.520000	-721.080000	1.223677	4.406727	4.725638	6.499173	7.182143	-7.309218	0.421774	1.533234	0.824040	3.906560	-6.729660	-0.707762	-0.032593	0.695311	-1.000000	-1.000000	-1.000000	-1.000000	-1.000000	-1.000000	-1.000000	56.000000	0.000000	-1.000000	-1.000000	459657.000000	1775777643.480256
-4619.070000	-7610.265000	-5932.620000	23198.085000	15136.695000	8028.045000	-15357.195000	-724.860000	0.852535	5.138727	9.050067	12.196679	10.585598	-3.936803	-1.317271	-1.163516	-0.457800	3.799740	-8.286180	-0.700621	-0.032715	0.696043	-1.000000	-1.000000	-1.000000	-1.000000	-1.000000	-1.000000	-1.000000	56.000000	0.000000	-1.000000	-1.000000	459658.000000	1775777643.480282
-4625.235000	-7615.395000	-5931.315000	23194.755000	15134.490000	8028.585000	-15353.595000	-727.605000	-0.136845	4.047069	9.689747	12.742682	9.405108	1.824958	-2.428234	-3.337959	-0.457800	3.799740	-8.286180	-0.700621	-0.032715	0.696043	-1.000000	-1.000000	-1.000000	-1.000000	-1.000000	-1.000000	-1.000000	56.000000	0.000000	-1.000000	-1.000000	459659.000000	1775777643.480294
-4629.375000	-7622.055000	-5929.290000	23199.435000	15151.230000	8043.570000	-15350.490000	-726.210000	-1.919482	1.485913	7.100244	8.576700	3.696447	5.642941	-2.095249	-4.376920	-0.457800	3.799740	-8.286180	-0.700621	-0.032715	0.696043	-1.000000	-1.000000	-1.000000	-1.000000	-1.000000	-1.000000	-1.000000	56.000000	0.000000	-1.000000	-1.000000	459660.000000	1775777643.480308
-4632.210000	-7630.965000	-5938.020000	23190.570000	15129.495000	8016.885000	-15359.715000	-724.590000	-3.803363	-1.889896	2.271734	1.710907	-3.574609	5.189959	-0.694914	-3.858125	-0.457800	3.799740	-8.286180	-0.700621	-0.032715	0.696043	-1.000000	-1.000000	-1.000000	-1.000000	-1.000000	-1.000000	-1.000000	56.000000	0.000000	-1.000000	-1.000000	459661.000000	1775777643.480318
-4624.740000	-7627.230000	-5938.650000	23184.045000	15103.125000	7982.460000	-15364.170000	-722.295000	-4.360804	-4.741409	-3.349334	-5.311496	-10.187257	-0.254211	0.317909	-1.834062	-0.457800	3.799740	-8.286180	-0.700621	-0.032715	0.696043	-1.000000	-1.000000	-1.000000	-1.000000	-1.000000	-1.000000	-1.000000	56.000000	0.000000	-1.000000	-1.000000	459662.000000	1775777643.480332
-4620.105000	-7621.830000	-5934.015000	23188.680000	15113.385000	7990.695000	-15361.695000	-728.820000	-2.499060	-5.267566	-7.656763	-10.138015	-15.021764	-8.965674	0.105269	0.721182	-0.457800	3.799740	-8.286180	-0.700621	-0.032715	0.696043	-1.000000	-1.000000	-1.000000	-1.000000	-1.000000	-1.000000	-1.000000	56.000000	0.000000	-1.000000	-1.000000	459663.000000	1775777643.480342
-4624.470000	-7623.000000	-5935.815000	23190.435000	15120.450000	8008.065000	-15362.865000	-736.695000	1.147158	-2.737183	-8.653674	-10.844526	-15.238992	-14.649668	-0.500549	2.206998	-0.457800	3.799740	-8.286180	-0.700621	-0.032715	0.696043	-1.000000	-1.000000	-1.000000	-1.000000	-1.000000	-1.000000	-1.000000	56.000000	0.000000	-1.000000	-1.000000	459664.000000	1775777643.484970
-4624.065000	-7625.880000	-5935.455000	23196.015000	15121.395000	8005.905000	-15362.730000	-736.380000	4.231595	1.234509	-6.174636	-7.098649	-8.649087	-11.343362	-0.374665	1.769898	-0.457800	3.799740	-8.286180	-0.700621	-0.032715	0.696043	-1.000000	-1.000000	-1.000000	-1.000000	-1.000000	-1.000000	-1.000000	56.000000	0.000000	-1.000000	-1.000000	459665.000000	1775777643.484989
-4626.000000	-7631.685000	-5943.195000	23182.155000	15114.870000	8003.160000	-15364.980000	-736.965000	4.841984	3.890596	-2.116947	-1.148687	1.957229	-0.678143	0.523834	0.333320	-0.457800	3.799740	-8.286180	-0.700621	-0.032715	0.696043	-1.000000	-1.000000	-1.000000	-1.000000	-1.000000	-1.000000	-1.000000	56.000000	0.000000	-1.000000	-1.000000	459666.000000	1775777643.492308
-4621.725000	-7628.085000	-5938.020000	23186.070000	15117.345000	8006.130000	-15355.080000	-730.620000	3.121111	3.824784	1.306673	3.505267	10.705499	9.957907	1.635760	-0.355227	-0.457800	3.799740	-8.286180	-0.700621	-0.032715	0.696043	-1.000000	-1.000000	-1.000000	-1.000000	-1.000000	-1.000000	-1.000000	56.000000	0.000000	-1.000000	-1.000000	459667.000000	1775777643.492336
-4628.970000	-7634.880000	-5943.375000	23180.400000	15106.545000	7997.670000	-15355.170000	-735.975000	0.525694	1.812779	3.145273	4.986242	13.604014	14.599295	2.634162	0.435082	0.778260	2.792580	-10.636220	-0.696837	-0.035828	0.698912	-1.000000	-1.000000	-1.000000	-1.000000	-1.000000	-1.000000	-1.000000	56.000000	0.000000	-1.000000	-1.000000	459668.000000	1775777643.492366
-4624.290000	-7627.500000	-5935.455000	23185.980000	15113.790000	8005.590000	-15347.430000	-730.485000	-1.655863	-0.423532	3.670244	4.041324	10.623773	12.151481	3.225215	1.857539	0.778260	2.792580	-10.636220	-0.696837	-0.035828	0.698912	-1.000000	-1.000000	-1.000000	-1.000000	-1.000000	-1.000000	-1.000000	56.000000	0.000000	-1.000000	-1.000000	459669.000000	1775777643.492378
-4625.145000	-7625.745000	-5931.855000	23192.730000	15129.990000	8017.605000	-15343.470000	-729.630000	-2.666410	-1.452805	3.631937	2.611925	5.094777	5.824071	3.034367	2.717620	0.778260	2.792580	-10.636220	-0.696837	-0.035828	0.698912	-1.000000	-1.000000	-1.000000	-1.000000	-1.000000	-1.000000	-1.000000	56.000000	0.000000	-1.000000	-1.000000	459670.000000	1775777643.493550
-4628.970000	-7628.895000	-5934.600000	23192.190000	15134.400000	8023.410000	-15351.705000	-736.605000	-2.369645	-0.968463	3.426402	2.040736	1.055894	0.144326	1.747270	2.393642	0.778260	2.792580	-10.636220	-0.696837	-0.035828	0.698912	-1.000000	-1.000000	-1.000000	-1.000000	-1.000000	-1.000000	-1.000000	56.000000	0.000000	-1.000000	-1.000000	459671.000000	1775777643.493566
-4619.880000	-7621.200000	-5929.245000	23192.055000	15124.635000	8012.655000	-15351.885000	-728.460000	-1.253256	0.114384	2.697722	2.015428	-0.510652	-2.968030	-0.833078	0.875444	0.778260	2.792580	-10.636220	-0.696837	-0.035828	0.698912	-1.000000	-1.000000	-1.000000	-1.000000	-1.000000	-1.000000	-1.000000	56.000000	0.000000	-1.000000	-1.000000	459672.000000	1775777643.496179
-4624.155000	-7622.280000	-5928.210000	23193.630000	15123.420000	8010.720000	-15354.270000	-732.690000	0.188371	0.890700	1.254915	1.426047	-1.758693	-4.768665	-3.991187	-0.990419	0.778260	2.792580	-10.636220	-0.696837	-0.035828	0.698912	-1.000000	-1.000000	-1.000000	-1.000000	-1.000000	-1.000000	-1.000000	56.000000	0.000000	-1.000000	-1.000000	459673.000000	1775777643.496198
-4624.290000	-7619.715000	-5926.635000	23195.430000	15130.485000	8011.035000	-15356.565000	-734.355000	1.352968	1.019211	-0.443709	-0.006181	-3.960312	-6.437958	-6.090744	-2.255948	0.778260	2.792580	-10.636220	-0.696837	-0.035828	0.698912	-1.000000	-1.000000	-1.000000	-1.000000	-1.000000	-1.000000	-1.000000	56.000000	0.000000	-1.000000	-1.000000	459674.000000	1775777643.500384
-4614.255000	-7610.445000	-5922.630000	23197.005000	15132.240000	8006.940000	-15357.780000	-729.720000	1.735021	0.601085	-1.820743	-1.591409	-5.727676	-7.301726	-5.979185	-2.642846	0.778260	2.792580	-10.636220	-0.696837	-0.035828	0.698912	-1.000000	-1.000000	-1.000000	-1.000000	-1.000000	-1.000000	-1.000000	56.000000	0.000000	-1.000000	-1.000000	459675.000000	1775777643.500407
-4622.670000	-7616.970000	-5926.590000	23199.795000	15131.385000	8012.835000	-15351.120000	-734.985000	1.503416	0.027882	-2.556392	-2.525873	-5.501244	-6.249711	-3.607903	-2.169862	0.778260	2.792580	-10.636220	-0.696837	-0.035828	0.698912	-1.000000	-1.000000	-1.000000	-1.000000	-1.000000	-1.000000	-1.000000	56.000000	0.000000	-1.000000	-1.000000	459676.000000	1775777643.513371
-4610.385000	-7610.850000	-5925.195000	23205.555000	15133.365000	8018.955000	-15342.120000	-722.610000	0.934293	-0.648425	-2.754446	-2.400139	-3.514464	-2.996814	0.375781	-0.996666	0.778260	2.792580	-10.636220	-0.696837	-0.035828	0.698912	-1.000000	-1.000000	-1.000000	-1.000000	-1.000000	-1.000000	-1.000000	56.000000	0.000000	-1.000000	-1.000000	459677.000000	1775777643.513395
-4608.675000	-7610.580000	-5931.315000	23194.080000	15120.810000	8013.870000	-15343.335000	-718.830000	0.364699	-1.423286	-2.695230	-1.562221	-1.220396	1.445871	4.609321	0.727338	0.808780	1.312360	-8.988140	-0.694212	-0.041565	0.703062	-1.000000	-1.000000	-1.000000	-1.000000	-1.000000	-1.000000	-1.000000	56.000000	0.000000	-1.000000	-1.000000	459678.000000	1775777643.513421
-4616.370000	-7609.545000	-5925.735000	23197.320000	15123.150000	8011.935000	-15344.730000	-726.975000	-0.039858	-1.909822	-2.378647	-1.040738	0.020914	4.823747	6.979544	2.372348	0.808780	1.312360	-8.988140	-0.694212	-0.041565	0.703062	-1.000000	-1.000000	-1.000000	-1.000000	-1.000000	-1.000000	-1.000000	56.000000	0.000000	-1.000000	-1.000000	459679.000000	1775777643.513433
-4625.820000	-7613.820000	-5927.670000	23195.880000	15134.580000	8009.235000	-15350.715000	-735.480000	-1.034611	-1.966613	-1.479882	-1.204814	0.422764	5.360761	5.916244	2.366848	0.808780	1.312360	-8.988140	-0.694212	-0.041565	0.703062	-1.000000	-1.000000	-1.000000	-1.000000	-1.000000	-1.000000	-1.000000	56.000000	0.000000	-1.000000	-1.000000	459680.000000	1775777643.513543
-4624.920000	-7614.945000	-5934.870000	23184.720000	15133.455000	8008.470000	-15353.010000	-731.610000	-2.985870	-1.853784	-0.095455	-1.502685	1.415826	3.329029	1.860262	0.092945	0.808780	1.312360	-8.988140	-0.694212	-0.041565	0.703062	-1.000000	-1.000000	-1.000000	-1.000000	-1.000000	-1.000000	-1.000000	56.000000	0.000000	-1.000000	-1.000000	459681.000000	1775777643.513558
-4616.100000	-7608.645000	-5930.235000	23189.310000	15123.240000	8001.720000	-15348.690000	-723.060000	-4.361255	-1.528419	1.041651	-1.540575	2.945801	0.370816	-2.789649	-2.493801	0.808780	1.312360	-8.988140	-0.694212	-0.041565	0.703062	-1.000000	-1.000000	-1.000000	-1.000000	-1.000000	-1.000000	-1.000000	56.000000	0.000000	-1.000000	-1.000000	459682.000000	1775777643.516967
-4617.855000	-7610.625000	-5931.810000	23185.710000	15107.535000	7975.800000	-15358.275000	-728.100000	-3.249849	-0.560906	1.645816	-0.969819	2.963156	-2.434854	-5.454466	-2.955783	0.808780	1.312360	-8.988140	-0.694212	-0.041565	0.703062	-1.000000	-1.000000	-1.000000	-1.000000	-1.000000	-1.000000	-1.000000	56.000000	0.000000	-1.000000	-1.000000	459683.000000	1775777643.516988
-4615.245000	-7605.990000	-5923.620000	23193.855000	15100.200000	7959.690000	-15364.575000	-728.595000	0.078824	0.983193	2.115033	0.571976	0.287141	-5.169428	-5.491657	-1.298278	0.808780	1.312360	-8.988140	-0.694212	-0.041565	0.703062	-1.000000	-1.000000	-1.000000	-1.000000	-1.000000	-1.000000	-1.000000	56.000000	0.000000	-1.000000	-1.000000	459684.000000	1775777643.520873
-4609.530000	-7597.980000	-5916.915000	23198.985000	15116.220000	7975.035000	-15357.780000	-727.020000	3.539727	2.524355	2.817886	2.894474	-3.061568	-6.853610	-3.769405	0.685177	0.808780	1.312360	-8.988140	-0.694212	-0.041565	0.703062	-1.000000	-1.000000	-1.000000	-1.000000	-1.000000	-1.000000	-1.000000	56.000000	0.000000	-1.000000	-1.000000	459685.000000	1775777643.520897
-4624.245000	-7612.290000	-5929.380000	23196.915000	15154.245000	8025.570000	-15348.420000	-739.170000	5.125774	3.307554	3.310470	5.012808	-2.781963	-3.872502	-0.729057	1.569739	0.808780	1.312360	-8.988140	-0.694212	-0.041565	0.703062	-1.000000	-1.000000	-1.000000	-1.000000	-1.000000	-1.000000	-1.000000	56.000000	0.000000	-1.000000	-1.000000	459686.000000	1775777643.526268
-4621.410000	-7612.245000	-5928.705000	23199.210000	15154.200000	8024.895000	-15345.090000	-732.780000	3.799011	2.333244	2.299329	5.460598	3.056457	5.672510	3.275167	0.993945	0.808780	1.312360	-8.988140	-0.694212	-0.041565	0.703062	-1.000000	-1.000000	-1.000000	-1.000000	-1.000000	-1.000000	-1.000000	56.000000	0.000000	-1.000000	-1.000000	459687.000000	1775777643.526292
-4621.815000	-7610.355000	-5928.390000	23197.770000	15146.775000	8029.755000	-15344.730000	-731.385000	0.460088	-0.260557	-0.424398	3.571140	10.009305	16.375646	6.614796	-0.081138	0.518840	-0.091560	-6.805960	-0.696776	-0.044800	0.704039	-1.000000	-1.000000	-1.000000	-1.000000	-1.000000	-1.000000	-1.000000	56.000000	0.000000	-1.000000	-1.000000	459688.000000	1775777643.532151
-4623.570000	-7605.495000	-5920.200000	23208.705000	15141.060000	8044.110000	-15337.800000	-734.490000	-2.485761	-2.481327	-2.992677	0.370912	10.989246	19.720258	7.332551	-0.338602	0.518840	-0.091560	-6.805960	-0.696776	-0.044800	0.704039	-1.000000	-1.000000	-1.000000	-1.000000	-1.000000	-1.000000	-1.000000	56.000000	0.000000	-1.000000	-1.000000	459689.000000	1775777643.532176
-4626.090000	-7607.745000	-5922.540000	23199.930000	15109.695000	8006.715000	-15340.860000	-737.055000	-3.480147	-2.644231	-3.505708	-2.389049	3.494646	12.333059	5.006175	0.201718	0.518840	-0.091560	-6.805960	-0.696776	-0.044800	0.704039	-1.000000	-1.000000	-1.000000	-1.000000	-1.000000	-1.000000	-1.000000	56.000000	0.000000	-1.000000	-1.000000	459690.000000	1775777643.534999
-4621.635000	-7613.415000	-5931.180000	23186.160000	15113.520000	7998.570000	-15344.415000	-731.520000	-2.571280	-1.203979	-2.219158	-4.216482	-8.563045	-3.001033	0.690709	0.749392	0.518840	-0.091560	-6.805960	-0.696776	-0.044800	0.704039	-1.000000	-1.000000	-1.000000	-1.000000	-1.000000	-1.000000	-1.000000	56.000000	0.000000	-1.000000	-1.000000	459691.000000	1775777643.535016
-4624.290000	-7618.275000	-5932.170000	23187.510000	15120.765000	7999.020000	-15351.390000	-735.030000	-0.559527	0.085925	-0.947705	-5.661342	-17.436516	-18.965228	-4.078206	1.032897	0.518840	-0.091560	-6.805960	-0.696776	-0.044800	0.704039	-1.000000	-1.000000	-1.000000	-1.000000	-1.000000	-1.000000	-1.000000	56.000000	0.000000	-1.000000	-1.000000	459692.000000	1775777643.538970
-4621.680000	-7609.590000	-5919.030000	23202.540000	15132.510000	8016.930000	-15345.090000	-732.465000	1.478097	0.400792	-0.368887	-5.877807	-16.704718	-26.344275	-7.496037	1.050455	0.518840	-0.091560	-6.805960	-0.696776	-0.044800	0.704039	-1.000000	-1.000000	-1.000000	-1.000000	-1.000000	-1.000000	-1.000000	56.000000	0.000000	-1.000000	-1.000000	459693.000000	1775777643.538994
-4627.845000	-7615.080000	-5923.800000	23197.995000	15131.295000	8022.690000	-15346.755000	-736.875000	2.521511	0.461444	0.469713	-3.245036	-6.656618	-20.476396	-7.884077	0.682601	0.518840	-0.091560	-6.805960	-0.696776	-0.044800	0.704039	-1.000000	-1.000000	-1.000000	-1.000000	-1.000000	-1.000000	-1.000000	56.000000	0.000000	-1.000000	-1.000000	459694.000000	1775777643.540182
-4632.030000	-7621.785000	-5931.945000	23191.335000	15131.565000	8015.130000	-15349.590000	-740.205000	2.018181	0.706866	1.593831	1.259406	6.029529	-5.473985	-5.100185	-0.152591	0.518840	-0.091560	-6.805960	-0.696776	-0.044800	0.704039	-1.000000	-1.000000	-1.000000	-1.000000	-1.000000	-1.000000	-1.000000	56.000000	0.000000	-1.000000	-1.000000	459695.000000	1775777643.540199
-4627.575000	-7618.455000	-5931.000000	23188.320000	15134.310000	8030.655000	-15342.345000	-734.940000	0.372334	0.663783	1.699271	4.417867	14.061705	9.416318	-0.791707	-1.152423	0.518840	-0.091560	-6.805960	-0.696776	-0.044800	0.704039	-1.000000	-1.000000	-1.000000	-1.000000	-1.000000	-1.000000	-1.000000	56.000000	0.000000	-1.000000	-1.000000	459696.000000	1775777643.549139
-4627.575000	-7617.510000	-5926.095000	23192.190000	15132.285000	8012.970000	-15348.195000	-736.695000	-1.034524	0.388703	0.641844	4.570902	14.453672	17.087800	3.094360	-1.543043	0.518840	-0.091560	-6.805960	-0.696776	-0.044800	0.704039	-1.000000	-1.000000	-1.000000	-1.000000	-1.000000	-1.000000	-1.000000	56.000000	0.000000	-1.000000	-1.000000	459697.000000	1775777643.549163
-4620.555000	-7610.085000	-5919.030000	23199.885000	15128.280000	7996.950000	-15347.520000	-732.285000	-1.048029	0.605613	-0.104170	2.993829	8.752744	15.317046	5.125543	-0.899558	-1.342880	2.029580	-2.456860	-0.699583	-0.046936	0.701048	-1.000000	-1.000000	-1.000000	-1.000000	-1.000000	-1.000000	-1.000000	56.000000	0.000000	-1.000000	-1.000000	459698.000000	1775777643.549187
-4628.115000	-7614.810000	-5928.165000	23191.245000	15121.755000	8008.470000	-15353.730000	-741.420000	0.105574	1.436174	0.273259	1.568988	0.585855	6.580660	4.691886	0.198525	-1.342880	2.029580	-2.456860	-0.699583	-0.046936	0.701048	-1.000000	-1.000000	-1.000000	-1.000000	-1.000000	-1.000000	-1.000000	56.000000	0.000000	-1.000000	-1.000000	459699.000000	1775777643.549198
-4627.305000	-7610.895000	-5924.880000	23194.395000	15126.480000	8023.095000	-15350.715000	-743.490000	1.058162	2.025030	0.826658	0.605171	-6.277726	-2.456858	2.451178	0.628272	-1.342880	2.029580	-2.456860	-0.699583	-0.046936	0.701048	-1.000000	-1.000000	-1.000000	-1.000000	-1.000000	-1.000000	-1.000000	56.000000	0.000000	-1.000000	-1.000000	459700.000000	1775777643.557013
-4610.520000	-7603.470000	-5918.670000	23199.795000	15126.255000	8009.910000	-15343.020000	-734.940000	1.131418	1.741642	0.676407	-0.243220	-9.102029	-6.058268	0.132110	0.134877	-1.342880	2.029580	-2.456860	-0.699583	-0.046936	0.701048	-1.000000	-1.000000	-1.000000	-1.000000	-1.000000	-1.000000	-1.000000	56.000000	0.000000	-1.000000	-1.000000	459701.000000	1775777643.557038
-4619.565000	-7612.740000	-5925.330000	23193.990000	15118.560000	8017.110000	-15337.980000	-740.295000	1.020734	0.771128	0.135429	-0.808000	-7.530800	-4.412993	-0.600518	-0.270841	-1.342880	2.029580	-2.456860	-0.699583	-0.046936	0.701048	-1.000000	-1.000000	-1.000000	-1.000000	-1.000000	-1.000000	-1.000000	56.000000	0.000000	-1.000000	-1.000000	459702.000000	1775777643.557591
-4618.980000	-7610.130000	-5922.270000	23194.215000	15109.020000	8000.055000	-15342.660000	-739.395000	0.804640	-0.740737	-0.477574	-1.152863	-3.838873	-1.398366	0.238467	-0.021331	-1.342880	2.029580	-2.456860	-0.699583	-0.046936	0.701048	-1.000000	-1.000000	-1.000000	-1.000000	-1.000000	-1.000000	-1.000000	56.000000	0.000000	-1.000000	-1.000000	459703.000000	1775777643.557610
-4618.305000	-7607.880000	-5918.715000	23201.280000	15116.130000	7985.295000	-15345.720000	-738.765000	-0.202787	-2.409202	-1.007704	-1.409977	-0.536934	-0.331520	0.908032	0.424773	-1.342880	2.029580	-2.456860	-0.699583	-0.046936	0.701048	-1.000000	-1.000000	-1.000000	-1.000000	-1.000000	-1.000000	-1.000000	56.000000	0.000000	-1.000000	-1.000000	459704.000000	1775777643.560170
-4624.830000	-7611.885000	-5924.475000	23197.320000	15128.820000	8004.105000	-15346.170000	-744.165000	-1.815350	-3.295620	-1.131851	-1.218671	2.074405	-1.570643	0.061241	0.567390	-1.342880	2.029580	-2.456860	-0.699583	-0.046936	0.701048	-1.000000	-1.000000	-1.000000	-1.000000	-1.000000	-1.000000	-1.000000	56.000000	0.000000	-1.000000	-1.000000	459705.000000	1775777643.560192
-4627.530000	-7613.100000	-5926.950000	23192.955000	15138.630000	8018.595000	-15345.720000	-747.720000	-3.265964	-3.040691	-1.040839	-0.694888	4.948717	-1.941734	-1.766010	0.122665	-1.342880	2.029580	-2.456860	-0.699583	-0.046936	0.701048	-1.000000	-1.000000	-1.000000	-1.000000	-1.000000	-1.000000	-1.000000	56.000000	0.000000	-1.000000	-1.000000	459706.000000	1775777643.563740
-4621.590000	-7603.965000	-5919.120000	23200.605000	15138.675000	8004.105000	-15347.025000	-747.450000	-3.739950	-1.873270	-0.979558	-0.394148	7.603664	0.859629	-3.062983	-0.768794	-1.342880	2.029580	-2.456860	-0.699583	-0.046936	0.701048	-1.000000	-1.000000	-1.000000	-1.000000	-1.000000	-1.000000	-1.000000	56.000000	0.000000	-1.000000	-1.000000	459707.000000	1775777643.563761
-4619.340000	-7601.895000	-5917.590000	23202.540000	15139.800000	8010.000000	-15345.765000	-748.980000	-2.458022	0.113421	-0.449690	-0.105381	7.938448	4.469732	-2.927209	-1.371734	-3.769220	1.831200	0.549360	-0.703123	-0.051269	0.699095	-1.000000	-1.000000	-1.000000	-1.000000	-1.000000	-1.000000	-1.000000	56.000000	0.000000	-1.000000	-1.000000	459708.000000	1775777643.568735
-4621.590000	-7601.220000	-5914.080000	23205.825000	15128.910000	8008.830000	-15337.620000	-752.850000	0.293700	2.357634	0.823639	0.638753	4.528707	5.474352	-1.361631	-1.156875	-3.769220	1.831200	0.549360	-0.703123	-0.051269	0.699095	-1.000000	-1.000000	-1.000000	-1.000000	-1.000000	-1.000000	-1.000000	56.000000	0.000000	-1.000000	-1.000000	459709.000000	1775777643.568757
-4622.310000	-7596.990000	-5904.540000	23218.200000	15131.835000	7988.895000	-15346.845000	-759.690000	2.864352	3.658841	2.275361	1.712532	-1.669958	3.059321	0.890937	-0.470007	-3.769220	1.831200	0.549360	-0.703123	-0.051269	0.699095	-1.000000	-1.000000	-1.000000	-1.000000	-1.000000	-1.000000	-1.000000	56.000000	0.000000	-1.000000	-1.000000	459710.000000	1775777643.573330
-4623.615000	-7605.765000	-5916.780000	23207.400000	15131.340000	7986.330000	-15353.415000	-759.915000	3.738731	3.171314	2.955489	2.487228	-7.518699	-1.718781	2.244749	0.037535	-3.769220	1.831200	0.549360	-0.703123	-0.051269	0.699095	-1.000000	-1.000000	-1.000000	-1.000000	-1.000000	-1.000000	-1.000000	56.000000	0.000000	-1.000000	-1.000000	459711.000000	1775777643.573354
-4629.240000	-7616.070000	-5928.075000	23198.040000	15139.845000	8024.490000	-15346.980000	-760.635000	2.672567	0.729004	1.644139	1.705706	-9.723058	-5.626110	1.685947	0.329353	-3.769220	1.831200	0.549360	-0.703123	-0.051269	0.699095	-1.000000	-1.000000	-1.000000	-1.000000	-1.000000	-1.000000	-1.000000	56.000000	0.000000	-1.000000	-1.000000	459712.000000	1775777643.590357
-4629.195000	-7614.360000	-5929.695000	23190.930000	15134.175000	8025.255000	-15348.870000	-760.545000	0.473922	-2.821212	-1.873944	-1.352576	-7.354409	-4.472989	0.246630	0.817171	-3.769220	1.831200	0.549360	-0.703123	-0.051269	0.699095	-1.000000	-1.000000	-1.000000	-1.000000	-1.000000	-1.000000	-1.000000	56.000000	0.000000	-1.000000	-1.000000	459713.000000	1775777643.590383
-4622.490000	-7606.080000	-5925.465000	23194.305000	15140.025000	8016.660000	-15348.465000	-755.505000	-1.397023	-5.143916	-5.329302	-5.050664	-2.381763	1.164025	-0.506228	1.658388	-3.769220	1.831200	0.549360	-0.703123	-0.051269	0.699095	-1.000000	-1.000000	-1.000000	-1.000000	-1.000000	-1.000000	-1.000000	56.000000	0.000000	-1.000000	-1.000000	459714.000000	1775777643.590411
-4623.030000	-7606.440000	-5925.555000	23195.790000	15147.585000	8024.490000	-15339.240000	-753.345000	-1.634328	-4.135365	-5.774494	-6.385834	2.466680	5.687644	-0.098091	2.624598	-3.769220	1.831200	0.549360	-0.703123	-0.051269	0.699095	-1.000000	-1.000000	-1.000000	-1.000000	-1.000000	-1.000000	-1.000000	56.000000	0.000000	-1.000000	-1.000000	459715.000000	1775777643.590422
-4624.155000	-7608.195000	-5925.690000	23193.765000	15129.450000	8012.880000	-15336.090000	-751.725000	-0.385840	-0.421379	-2.685840	-4.006037	5.253195	5.253271	1.209578	3.169878	-3.769220	1.831200	0.549360	-0.703123	-0.051269	0.699095	-1.000000	-1.000000	-1.000000	-1.000000	-1.000000	-1.000000	-1.000000	56.000000	0.000000	-1.000000	-1.000000	459716.000000	1775777643.590437
-4622.445000	-7606.395000	-5922.450000	23198.805000	15121.080000	8004.060000	-15341.265000	-750.555000	0.969493	3.259311	1.856203	0.635268	4.569200	0.448774	2.461842	2.684875	-3.769220	1.831200	0.549360	-0.703123	-0.051269	0.699095	-1.000000	-1.000000	-1.000000	-1.000000	-1.000000	-1.000000	-1.000000	56.000000	0.000000	-1.000000	-1.000000	459717.000000	1775777643.590448
-4616.640000	-7600.005000	-5916.870000	23203.260000	15120.045000	7996.275000	-15343.515000	-745.605000	1.517883	4.930108	5.428381	5.031286	0.771177	-5.755841	2.213288	1.139437	-3.723440	1.022420	2.777320	-0.701964	-0.058227	0.698057	-1.000000	-1.000000	-1.000000	-1.000000	-1.000000	-1.000000	-1.000000	56.000000	0.000000	-1.000000	-1.000000	459718.000000	1775777643.613128
-4621.140000	-7602.570000	-5915.655000	23204.655000	15115.950000	7994.430000	-15340.365000	-749.430000	1.298159	4.476031	6.761897	7.383568	-3.197316	-9.792270	0.154863	-0.850356	-3.723440	1.022420	2.777320	-0.701964	-0.058227	0.698057	-1.000000	-1.000000	-1.000000	-1.000000	-1.000000	-1.000000	-1.000000	56.000000	0.000000	-1.000000	-1.000000	459719.000000	1775777643.613153
-4612.815000	-7592.850000	-5908.635000	23208.345000	15126.345000	8006.130000	-15334.605000	-743.040000	0.591755	2.712233	5.751435	6.975038	-4.238535	-9.021528	-2.154117	-2.579802	-3.723440	1.022420	2.777320	-0.701964	-0.058227	0.698057	-1.000000	-1.000000	-1.000000	-1.000000	-1.000000	-1.000000	-1.000000	56.000000	0.000000	-1.000000	-1.000000	459720.000000	1775777643.613213
-4612.140000	-7592.040000	-5909.805000	23210.550000	15139.575000	8019.180000	-15341.490000	-745.425000	-0.173372	0.687797	3.096098	4.244927	-1.283465	-3.031901	-3.062453	-3.484218	-3.723440	1.022420	2.777320	-0.701964	-0.058227	0.698057	-1.000000	-1.000000	-1.000000	-1.000000	-1.000000	-1.000000	-1.000000	56.000000	0.000000	-1.000000	-1.000000	459721.000000	1775777643.613229
-4613.535000	-7593.120000	-5911.065000	23209.380000	15138.360000	8011.170000	-15340.455000	-747.720000	-0.669074	-0.937265	-0.274902	0.452214	4.099056	5.411332	-2.580911	-3.430914	-3.723440	1.022420	2.777320	-0.701964	-0.058227	0.698057	-1.000000	-1.000000	-1.000000	-1.000000	-1.000000	-1.000000	-1.000000	56.000000	0.000000	-1.000000	-1.000000	459722.000000	1775777643.613250
-4616.505000	-7596.900000	-5914.980000	23203.485000	15126.480000	7984.260000	-15339.555000	-747.090000	-1.151589	-2.310007	-3.576941	-3.201405	7.986307	10.760539	-1.586906	-2.806156	-3.723440	1.022420	2.777320	-0.701964	-0.058227	0.698057	-1.000000	-1.000000	-1.000000	-1.000000	-1.000000	-1.000000	-1.000000	56.000000	0.000000	-1.000000	-1.000000	459723.000000	1775777643.613261
-4621.500000	-7598.250000	-5910.840000	23210.145000	15127.830000	7988.130000	-15334.155000	-747.810000	-1.957336	-3.627638	-5.892807	-5.767010	6.990043	8.932947	-0.404394	-1.887940	-3.723440	1.022420	2.777320	-0.701964	-0.058227	0.698057	-1.000000	-1.000000	-1.000000	-1.000000	-1.000000	-1.000000	-1.000000	56.000000	0.000000	-1.000000	-1.000000	459724.000000	1775777643.613276
-4626.090000	-7598.295000	-5904.765000	23217.795000	15135.255000	8012.205000	-15336.945000	-747.495000	-2.903306	-4.419495	-6.106358	-6.135415	1.861744	2.413086	0.919420	-0.710342	-3.723440	1.022420	2.777320	-0.701964	-0.058227	0.698057	-1.000000	-1.000000	-1.000000	-1.000000	-1.000000	-1.000000	-1.000000	56.000000	0.000000	-1.000000	-1.000000	459725.000000	1775777643.613287
-4613.220000	-7591.590000	-5909.670000	23205.780000	15129.180000	8014.860000	-15344.505000	-740.250000	-3.089698	-3.836583	-3.931706	-4.063321	-3.480946	-2.108250	1.733494	0.701361	-3.723440	1.022420	2.777320	-0.701964	-0.058227	0.698057	-1.000000	-1.000000	-1.000000	-1.000000	-1.000000	-1.000000	-1.000000	56.000000	0.000000	-1.000000	-1.000000	459726.000000	1775777643.613301
-4620.150000	-7598.025000	-5921.370000	23193.045000	15121.305000	7997.805000	-15344.865000	-745.695000	-1.540775	-1.668849	-0.962970	-1.500190	-6.360036	-2.013573	1.243907	2.139480	-3.723440	1.022420	2.777320	-0.701964	-0.058227	0.698057	-1.000000	-1.000000	-1.000000	-1.000000	-1.000000	-1.000000	-1.000000	56.000000	0.000000	-1.000000	-1.000000	459727.000000	1775777643.613311
-4609.530000	-7584.030000	-5907.825000	23207.535000	15134.670000	8011.035000	-15340.590000	-739.035000	1.346846	1.198316	0.886767	-0.345644	-6.484115	-0.384614	-0.096777	3.001051	-0.167860	-0.198380	5.661460	-0.702696	-0.062927	0.695555	-1.000000	-1.000000	-1.000000	-1.000000	-1.000000	-1.000000	-1.000000	56.000000	0.000000	-1.000000	-1.000000	459728.000000	1775777643.613325
-4613.490000	-7592.085000	-5918.040000	23197.005000	15130.935000	8023.185000	-15341.580000	-742.815000	3.972140	3.572827	1.582497	0.073402	-4.165042	0.314285	-0.848654	2.807690	-0.167860	-0.198380	5.661460	-0.702696	-0.062927	0.695555	-1.000000	-1.000000	-1.000000	-1.000000	-1.000000	-1.000000	-1.000000	56.000000	0.000000	-1.000000	-1.000000	459729.000000	1775777643.613335
-4614.210000	-7590.240000	-5913.495000	23201.550000	15133.770000	8025.390000	-15334.155000	-742.500000	4.842560	4.391637	1.900078	0.999583	-0.419439	0.608444	-0.254262	1.626045	-0.167860	-0.198380	5.661460	-0.702696	-0.062927	0.695555	-1.000000	-1.000000	-1.000000	-1.000000	-1.000000	-1.000000	-1.000000	56.000000	0.000000	-1.000000	-1.000000	459730.000000	1775777643.613348
-4607.640000	-7584.615000	-5906.295000	23209.155000	15138.810000	8015.580000	-15335.685000	-737.955000	3.533035	3.295441	2.189231	2.467242	2.904379	0.632167	1.210396	0.002091	-0.167860	-0.198380	5.661460	-0.702696	-0.062927	0.695555	-1.000000	-1.000000	-1.000000	-1.000000	-1.000000	-1.000000	-1.000000	56.000000	0.000000	-1.000000	-1.000000	459731.000000	1775777643.613359
-4603.635000	-7582.050000	-5901.570000	23212.935000	15138.540000	8012.025000	-15333.120000	-734.040000	1.179046	1.318964	2.766600	4.107781	4.534602	-0.773798	2.389689	-1.110141	-0.167860	-0.198380	5.661460	-0.702696	-0.062927	0.695555	-1.000000	-1.000000	-1.000000	-1.000000	-1.000000	-1.000000	-1.000000	56.000000	0.000000	-1.000000	-1.000000	459732.000000	1775777643.616163
-4616.730000	-7591.365000	-5908.230000	23205.105000	15125.175000	7998.480000	-15341.355000	-749.340000	-0.951199	-0.450907	3.267219	4.996048	3.914124	-3.796562	2.195153	-1.416630	-0.167860	-0.198380	5.661460	-0.702696	-0.062927	0.695555	-1.000000	-1.000000	-1.000000	-1.000000	-1.000000	-1.000000	-1.000000	56.000000	0.000000	-1.000000	-1.000000	459733.000000	1775777643.616181
-4604.895000	-7583.400000	-5904.180000	23207.535000	15125.445000	8010.675000	-15328.710000	-739.170000	-2.620659	-1.869803	2.571132	3.851521	1.043830	-6.597852	0.586165	-1.641020	-0.167860	-0.198380	5.661460	-0.702696	-0.062927	0.695555	-1.000000	-1.000000	-1.000000	-1.000000	-1.000000	-1.000000	-1.000000	56.000000	0.000000	-1.000000	-1.000000	459734.000000	1775777643.620191
-4600.170000	-7577.190000	-5897.385000	23213.790000	15125.040000	8012.925000	-15330.870000	-736.695000	-3.307834	-2.531155	0.607881	0.909362	-2.563812	-6.456482	-1.116988	-1.748286	-0.167860	-0.198380	5.661460	-0.702696	-0.062927	0.695555	-1.000000	-1.000000	-1.000000	-1.000000	-1.000000	-1.000000	-1.000000	56.000000	0.000000	-1.000000	-1.000000	459735.000000	1775777643.620209
-4605.480000	-7581.960000	-5899.455000	23215.545000	15136.785000	8013.420000	-15334.830000	-740.745000	-2.395651	-1.866997	-1.340344	-1.898184	-4.288610	-2.488457	-1.846759	-0.997612	-0.167860	-0.198380	5.661460	-0.702696	-0.062927	0.695555	-1.000000	-1.000000	-1.000000	-1.000000	-1.000000	-1.000000	-1.000000	56.000000	0.000000	-1.000000	-1.000000	459736.000000	1775777643.628634
-4608.720000	-7587.270000	-5906.655000	23209.110000	15139.845000	7994.430000	-15334.515000	-741.735000	-0.845861	-0.665244	-2.566786	-3.255546	-2.636454	2.658964	-1.933149	0.219570	-0.167860	-0.198380	5.661460	-0.702696	-0.062927	0.695555	-1.000000	-1.000000	-1.000000	-1.000000	-1.000000	-1.000000	-1.000000	56.000000	0.000000	-1.000000	-1.000000	459737.000000	1775777643.628659
-4613.535000	-7593.120000	-5914.530000	23198.265000	15126.030000	7984.035000	-15341.220000	-745.335000	-0.200357	-0.374246	-3.546286	-3.713616	0.941350	4.989527	-1.985299	0.848820	3.402980	0.473060	6.104000	-0.703917	-0.061462	0.695372	-1.000000	-1.000000	-1.000000	-1.000000	-1.000000	-1.000000	-1.000000	56.000000	0.000000	-1.000000	-1.000000	459738.000000	1775777643.633434
-4619.790000	-7596.945000	-5917.455000	23195.655000	15123.510000	8022.690000	-15340.545000	-751.095000	-0.778960	-1.246459	-4.495815	-4.232060	3.057311	3.978638	-2.041480	0.493484	3.402980	0.473060	6.104000	-0.703917	-0.061462	0.695372	-1.000000	-1.000000	-1.000000	-1.000000	-1.000000	-1.000000	-1.000000	56.000000	0.000000	-1.000000	-1.000000	459739.000000	1775777643.633460
-4611.870000	-7581.915000	-5897.205000	23215.095000	15130.755000	8031.780000	-15336.270000	-748.395000	-1.559849	-1.891564	-4.212685	-4.085905	2.219753	3.539385	-1.616808	-0.401971	3.402980	0.473060	6.104000	-0.703917	-0.061462	0.695372	-1.000000	-1.000000	-1.000000	-1.000000	-1.000000	-1.000000	-1.000000	56.000000	0.000000	-1.000000	-1.000000	459740.000000	1775777643.633489
-4614.660000	-7587.765000	-5907.870000	23203.440000	15130.845000	8008.785000	-15340.545000	-750.375000	-1.126148	-0.687431	-1.367144	-1.743674	0.249537	5.367861	-0.274528	-0.877071	3.402980	0.473060	6.104000	-0.703917	-0.061462	0.695372	-1.000000	-1.000000	-1.000000	-1.000000	-1.000000	-1.000000	-1.000000	56.000000	0.000000	-1.000000	-1.000000	459741.000000	1775777643.633501
-4625.460000	-7598.295000	-5917.545000	23198.040000	15137.775000	8022.735000	-15331.230000	-755.595000	0.556224	1.748834	2.601851	1.871428	-0.604381	5.877408	1.624334	-0.444806	3.402980	0.473060	6.104000	-0.703917	-0.061462	0.695372	-1.000000	-1.000000	-1.000000	-1.000000	-1.000000	-1.000000	-1.000000	56.000000	0.000000	-1.000000	-1.000000	459742.000000	1775777643.637486
-4624.380000	-7592.490000	-5908.815000	23204.160000	15129.810000	8025.795000	-15331.050000	-757.395000	1.935878	3.086391	4.639371	4.087376	-0.063340	2.769210	3.317355	0.364787	3.402980	0.473060	6.104000	-0.703917	-0.061462	0.695372	-1.000000	-1.000000	-1.000000	-1.000000	-1.000000	-1.000000	-1.000000	56.000000	0.000000	-1.000000	-1.000000	459743.000000	1775777643.637510
-4618.350000	-7589.115000	-5907.690000	23203.755000	15124.275000	8008.605000	-15338.520000	-753.435000	2.263072	2.667405	4.156819	4.110912	0.442949	-2.168679	3.938258	0.998233	3.402980	0.473060	6.104000	-0.703917	-0.061462	0.695372	-1.000000	-1.000000	-1.000000	-1.000000	-1.000000	-1.000000	-1.000000	56.000000	0.000000	-1.000000	-1.000000	459744.000000	1775777643.644030
-4612.680000	-7582.365000	-5901.030000	23214.780000	15140.610000	8012.340000	-15334.920000	-748.080000	2.422379	1.862723	2.844354	3.150585	0.009525	-6.727541	2.734828	1.647030	3.402980	0.473060	6.104000	-0.703917	-0.061462	0.695372	-1.000000	-1.000000	-1.000000	-1.000000	-1.000000	-1.000000	-1.000000	56.000000	0.000000	-1.000000	-1.000000	459745.000000	1775777643.644054
-4613.355000	-7583.490000	-5906.970000	23207.085000	15137.055000	8018.010000	-15332.355000	-749.025000	3.001363	1.614746	1.775466	2.226675	-0.384368	-9.044590	0.285276	2.481259	3.402980	0.473060	6.104000	-0.703917	-0.061462	0.695372	-1.000000	-1.000000	-1.000000	-1.000000	-1.000000	-1.000000	-1.000000	56.000000	0.000000	-1.000000	-1.000000	459746.000000	1775777643.654304
-4613.310000	-7584.435000	-5908.950000	23205.195000	15135.345000	8028.225000	-15326.415000	-746.145000	3.215953	1.424679	0.610191	1.091505	-0.004632	-7.374983	-1.650380	2.915489	3.402980	0.473060	6.104000	-0.703917	-0.061462	0.695372	-1.000000	-1.000000	-1.000000	-1.000000	-1.000000	-1.000000	-1.000000	56.000000	0.000000	-1.000000	-1.000000	459747.000000	1775777643.654331
-4611.915000	-7582.860000	-5906.430000	23212.800000	15139.755000	8022.780000	-15332.580000	-743.490000	2.118372	0.459780	-1.047050	-0.650474	0.391495	-2.208563	-2.085415	2.318596	4.013380	-0.686700	7.919940	-0.704161	-0.056091	0.698362	-1.000000	-1.000000	-1.000000	-1.000000	-1.000000	-1.000000	-1.000000	56.000000	0.000000	-1.000000	-1.000000	459748.000000	1775777643.654361
-4608.900000	-7579.170000	-5903.865000	23213.340000	15139.845000	8013.555000	-15333.570000	-739.215000	-0.057433	-1.105657	-2.496046	-2.161761	0.259008	3.070709	-1.680714	0.873691	4.013380	-0.686700	7.919940	-0.704161	-0.056091	0.698362	-1.000000	-1.000000	-1.000000	-1.000000	-1.000000	-1.000000	-1.000000	56.000000	0.000000	-1.000000	-1.000000	459749.000000	1775777643.654373
-4596.840000	-7562.205000	-5883.930000	23230.080000	15152.940000	8011.395000	-15327.540000	-730.980000	-1.973031	-2.017552	-2.417244	-2.222415	0.038271	5.024831	-1.334669	-0.598386	4.013380	-0.686700	7.919940	-0.704161	-0.056091	0.698362	-1.000000	-1.000000	-1.000000	-1.000000	-1.000000	-1.000000	-1.000000	56.000000	0.000000	-1.000000	-1.000000	459750.000000	1775777643.654387
-4607.955000	-7570.305000	-5890.320000	23225.445000	15146.055000	8008.065000	-15332.670000	-743.040000	-2.618342	-1.394858	-0.377892	-0.696087	0.217829	3.307612	-1.015147	-1.633550	4.013380	-0.686700	7.919940	-0.704161	-0.056091	0.698362	-1.000000	-1.000000	-1.000000	-1.000000	-1.000000	-1.000000	-1.000000	56.000000	0.000000	-1.000000	-1.000000	459751.000000	1775777643.654397
-4609.665000	-7573.905000	-5895.630000	23214.060000	15138.315000	8012.385000	-15332.805000	-743.805000	-2.616355	-0.332632	1.826672	0.750304	0.183397	0.377120	-0.595000	-2.738130	4.013380	-0.686700	7.919940	-0.704161	-0.056091	0.698362	-1.000000	-1.000000	-1.000000	-1.000000	-1.000000	-1.000000	-1.000000	56.000000	0.000000	-1.000000	-1.000000	459752.000000	1775777643.669000
-4609.755000	-7574.760000	-5897.115000	23208.210000	15134.760000	8021.745000	-15323.850000	-742.725000	-2.978467	-0.625234	1.693683	-0.065260	-1.113028	-0.988009	-0.116237	-4.086680	4.013380	-0.686700	7.919940	-0.704161	-0.056091	0.698362	-1.000000	-1.000000	-1.000000	-1.000000	-1.000000	-1.000000	-1.000000	56.000000	0.000000	-1.000000	-1.000000	459753.000000	1775777643.669025
-4614.795000	-7576.695000	-5897.160000	23214.780000	15123.645000	7999.245000	-15334.740000	-747.855000	-3.412887	-2.207991	-0.847112	-2.832174	-3.359629	-0.166713	0.513670	-4.677521	4.013380	-0.686700	7.919940	-0.704161	-0.056091	0.698362	-1.000000	-1.000000	-1.000000	-1.000000	-1.000000	-1.000000	-1.000000	56.000000	0.000000	-1.000000	-1.000000	459754.000000	1775777643.669054
-4610.475000	-7575.255000	-5899.995000	23207.985000	15108.705000	7970.175000	-15341.400000	-742.635000	-3.021664	-3.461742	-3.588994	-4.790691	-5.278625	0.240069	0.710885	-3.656361	4.013380	-0.686700	7.919940	-0.704161	-0.056091	0.698362	-1.000000	-1.000000	-1.000000	-1.000000	-1.000000	-1.000000	-1.000000	56.000000	0.000000	-1.000000	-1.000000	459755.000000	1775777643.669066
-4612.230000	-7575.120000	-5901.165000	23204.745000	15121.305000	7979.805000	-15333.660000	-740.700000	-1.386835	-3.088670	-4.589725	-4.181234	-5.532565	-1.978740	-0.046937	-1.088097	4.013380	-0.686700	7.919940	-0.704161	-0.056091	0.698362	-1.000000	-1.000000	-1.000000	-1.000000	-1.000000	-1.000000	-1.000000	56.000000	0.000000	-1.000000	-1.000000	459756.000000	1775777643.669081
-4625.145000	-7583.490000	-5907.870000	23202.720000	15152.625000	8028.135000	-15329.880000	-750.645000	0.803509	-1.231451	-3.528789	-1.655300	-2.235339	-3.584174	-0.674652	1.958622	4.013380	-0.686700	7.919940	-0.704161	-0.056091	0.698362	-1.000000	-1.000000	-1.000000	-1.000000	-1.000000	-1.000000	-1.000000	56.000000	0.000000	-1.000000	-1.000000	459757.000000	1775777643.669092
-4617.000000	-7578.675000	-5901.930000	23208.885000	15153.615000	8027.910000	-15331.770000	-741.330000	2.208706	0.867489	-1.225770	1.427498	5.154899	0.589308	0.021774	3.873865	2.136400	-0.793520	7.065380	-0.702879	-0.047363	0.699644	-1.000000	-1.000000	-1.000000	-1.000000	-1.000000	-1.000000	-1.000000	56.000000	0.000000	-1.000000	-1.000000	459758.000000	1775777643.669892
-4612.815000	-7575.705000	-5898.015000	23214.150000	15131.520000	7994.700000	-15334.380000	-738.180000	2.717138	2.436938	1.552497	4.280002	12.261805	8.198002	1.386565	4.216174	2.136400	-0.793520	7.065380	-0.702879	-0.047363	0.699644	-1.000000	-1.000000	-1.000000	-1.000000	-1.000000	-1.000000	-1.000000	56.000000	0.000000	-1.000000	-1.000000	459759.000000	1775777643.669909
-4608.450000	-7569.720000	-5891.265000	23224.230000	15147.585000	8023.365000	-15326.145000	-734.670000	3.285431	3.610739	4.297383	6.439452	12.887932	11.126873	2.090658	3.772210	2.136400	-0.793520	7.065380	-0.702879	-0.047363	0.699644	-1.000000	-1.000000	-1.000000	-1.000000	-1.000000	-1.000000	-1.000000	56.000000	0.000000	-1.000000	-1.000000	459760.000000	1775777643.680138
-4609.260000	-7569.270000	-5890.680000	23220.495000	15153.030000	8031.375000	-15332.355000	-737.100000	3.941764	4.366782	6.151893	7.174326	6.616863	7.051224	1.804640	2.891372	2.136400	-0.793520	7.065380	-0.702879	-0.047363	0.699644	-1.000000	-1.000000	-1.000000	-1.000000	-1.000000	-1.000000	-1.000000	56.000000	0.000000	-1.000000	-1.000000	459761.000000	1775777643.680165
-4611.780000	-7570.620000	-5891.310000	23218.920000	15144.345000	8023.635000	-15330.915000	-737.685000	3.621355	4.080369	6.020716	5.506852	-1.616629	0.419001	0.775700	1.276804	2.136400	-0.793520	7.065380	-0.702879	-0.047363	0.699644	-1.000000	-1.000000	-1.000000	-1.000000	-1.000000	-1.000000	-1.000000	56.000000	0.000000	-1.000000	-1.000000	459762.000000	1775777643.680194
-4609.080000	-7565.355000	-5884.155000	23230.260000	15143.130000	8023.455000	-15325.695000	-734.805000	1.702024	2.359790	3.638056	1.581660	-7.825648	-5.258861	-0.536339	-0.930065	2.136400	-0.793520	7.065380	-0.702879	-0.047363	0.699644	-1.000000	-1.000000	-1.000000	-1.000000	-1.000000	-1.000000	-1.000000	56.000000	0.000000	-1.000000	-1.000000	459763.000000	1775777643.680206
-4611.960000	-7570.260000	-5890.545000	23222.745000	15134.085000	8011.620000	-15331.995000	-738.810000	-1.098229	-0.224520	0.061613	-2.710891	-10.754145	-9.106042	-1.425607	-2.866490	2.136400	-0.793520	7.065380	-0.702879	-0.047363	0.699644	-1.000000	-1.000000	-1.000000	-1.000000	-1.000000	-1.000000	-1.000000	56.000000	0.000000	-1.000000	-1.000000	459764.000000	1775777643.683384
-4608.405000	-7568.820000	-5893.830000	23212.440000	15129.945000	8002.170000	-15332.265000	-736.470000	-3.389371	-2.680212	-3.408159	-5.841438	-10.471116	-10.917999	-1.748967	-3.768050	2.136400	-0.793520	7.065380	-0.702879	-0.047363	0.699644	-1.000000	-1.000000	-1.000000	-1.000000	-1.000000	-1.000000	-1.000000	56.000000	0.000000	-1.000000	-1.000000	459765.000000	1775777643.683406
-4605.840000	-7566.255000	-5891.265000	23213.835000	15136.155000	7997.985000	-15328.440000	-733.860000	-4.106125	-4.137012	-5.817686	-7.580647	-7.446188	-10.461144	-1.723821	-3.351336	2.136400	-0.793520	7.065380	-0.702879	-0.047363	0.699644	-1.000000	-1.000000	-1.000000	-1.000000	-1.000000	-1.000000	-1.000000	56.000000	0.000000	-1.000000	-1.000000	459766.000000	1775777643.690178
-4606.965000	-7568.280000	-5892.480000	23215.860000	15142.545000	8010.180000	-15324.795000	-735.120000	-3.089974	-4.041132	-6.253002	-7.420761	-2.174734	-7.119017	-1.111862	-1.789352	2.136400	-0.793520	7.065380	-0.702879	-0.047363	0.699644	-1.000000	-1.000000	-1.000000	-1.000000	-1.000000	-1.000000	-1.000000	56.000000	0.000000	-1.000000	-1.000000	459767.000000	1775777643.690204
-4607.145000	-7568.595000	-5891.085000	23215.770000	15143.895000	8019.720000	-15327.810000	-736.785000	-1.240932	-2.666978	-4.452277	-4.726362	4.062910	-0.569822	0.128818	0.090735	-2.227960	1.541260	6.348160	-0.699888	-0.038757	0.698729	-1.000000	-1.000000	-1.000000	-1.000000	-1.000000	-1.000000	-1.000000	56.000000	0.000000	-1.000000	-1.000000	459768.000000	1775777643.690230
-4602.555000	-7563.600000	-5884.920000	23223.960000	15157.620000	8032.455000	-15322.860000	-733.185000	0.358409	-0.805007	-1.190437	-0.151603	9.023999	7.642203	1.294503	1.362483	-2.227960	1.541260	6.348160	-0.699888	-0.038757	0.698729	-1.000000	-1.000000	-1.000000	-1.000000	-1.000000	-1.000000	-1.000000	56.000000	0.000000	-1.000000	-1.000000	459769.000000	1775777643.690242
-4603.725000	-7565.445000	-5888.340000	23222.295000	15154.020000	8028.585000	-15320.160000	-732.240000	1.298742	0.963304	2.220432	4.504356	10.843741	13.894144	1.807032	1.837473	-2.227960	1.541260	6.348160	-0.699888	-0.038757	0.698729	-1.000000	-1.000000	-1.000000	-1.000000	-1.000000	-1.000000	-1.000000	56.000000	0.000000	-1.000000	-1.000000	459770.000000	1775777643.698577
-4611.690000	-7572.195000	-5896.170000	23214.690000	15145.740000	8028.585000	-15325.650000	-739.575000	1.396290	2.006135	4.165874	7.071855	8.600648	14.553709	1.569200	1.661320	-2.227960	1.541260	6.348160	-0.699888	-0.038757	0.698729	-1.000000	-1.000000	-1.000000	-1.000000	-1.000000	-1.000000	-1.000000	56.000000	0.000000	-1.000000	-1.000000	459771.000000	1775777643.698601
-4604.715000	-7563.240000	-5888.205000	23220.720000	15142.320000	8013.330000	-15326.415000	-734.310000	0.569000	1.869955	3.720144	6.263362	2.658162	8.634756	0.494858	0.848026	-2.227960	1.541260	6.348160	-0.699888	-0.038757	0.698729	-1.000000	-1.000000	-1.000000	-1.000000	-1.000000	-1.000000	-1.000000	56.000000	0.000000	-1.000000	-1.000000	459772.000000	1775777643.698628
-4610.115000	-7567.155000	-5892.345000	23215.455000	15130.485000	8000.730000	-15333.525000	-741.870000	-0.505330	1.111097	1.804748	2.980424	-4.657199	-1.466850	-1.236624	-0.259440	-2.227960	1.541260	6.348160	-0.699888	-0.038757	0.698729	-1.000000	-1.000000	-1.000000	-1.000000	-1.000000	-1.000000	-1.000000	56.000000	0.000000	-1.000000	-1.000000	459773.000000	1775777643.698640
-4600.350000	-7558.335000	-5883.840000	23220.225000	15136.290000	8004.330000	-15331.320000	-734.670000	-0.846275	0.651072	0.145492	-0.582422	-9.943442	-11.028404	-2.827889	-1.019285	-2.227960	1.541260	6.348160	-0.699888	-0.038757	0.698729	-1.000000	-1.000000	-1.000000	-1.000000	-1.000000	-1.000000	-1.000000	56.000000	0.000000	-1.000000	-1.000000	459774.000000	1775777643.701086
-4594.185000	-7550.955000	-5873.715000	23229.360000	15145.020000	8005.860000	-15333.795000	-732.915000	0.047012	0.928287	-0.144845	-2.545319	-10.396103	-15.044779	-3.251850	-0.876167	-2.227960	1.541260	6.348160	-0.699888	-0.038757	0.698729	-1.000000	-1.000000	-1.000000	-1.000000	-1.000000	-1.000000	-1.000000	56.000000	0.000000	-1.000000	-1.000000	459775.000000	1775777643.701110
-4600.845000	-7555.770000	-5870.880000	23236.830000	15153.840000	8022.285000	-15328.305000	-738.720000	1.676965	1.644920	0.989453	-2.032273	-5.414926	-11.240977	-1.985845	0.100686	-2.227960	1.541260	6.348160	-0.699888	-0.038757	0.698729	-1.000000	-1.000000	-1.000000	-1.000000	-1.000000	-1.000000	-1.000000	56.000000	0.000000	-1.000000	-1.000000	459776.000000	1775777643.707085
-4606.245000	-7559.280000	-5873.220000	23239.980000	15160.140000	8026.335000	-15328.440000	-738.765000	2.345487	1.576719	2.197343	0.196281	2.430982	-1.714972	0.534438	0.900268	-2.227960	1.541260	6.348160	-0.699888	-0.038757	0.698729	-1.000000	-1.000000	-1.000000	-1.000000	-1.000000	-1.000000	-1.000000	56.000000	0.000000	-1.000000	-1.000000	459777.000000	1775777643.707114
-4613.895000	-7564.320000	-5882.580000	23228.730000	15146.775000	8009.910000	-15323.130000	-740.970000	0.766813	-0.212290	1.565240	1.867269	8.526045	7.874953	3.135585	0.733758	-5.005280	2.884140	5.051060	-0.698546	-0.031494	0.701170	-1.000000	-1.000000	-1.000000	-1.000000	-1.000000	-1.000000	-1.000000	56.000000	0.000000	-1.000000	-1.000000	459778.000000	1775777643.714184
-4599.900000	-7561.935000	-5891.355000	23214.285000	15134.310000	8004.600000	-15318.270000	-737.820000	-1.996650	-2.920219	-1.558348	0.714653	8.915671	11.563965	4.680984	-0.029812	-5.005280	2.884140	5.051060	-0.698546	-0.031494	0.701170	-1.000000	-1.000000	-1.000000	-1.000000	-1.000000	-1.000000	-1.000000	56.000000	0.000000	-1.000000	-1.000000	459779.000000	1775777643.714210
-4594.860000	-7557.300000	-5884.065000	23223.870000	15148.980000	8021.070000	-15313.770000	-730.890000	-3.168009	-4.495688	-5.473848	-3.072732	3.666596	8.186535	4.702281	-0.377992	-5.005280	2.884140	5.051060	-0.698546	-0.031494	0.701170	-1.000000	-1.000000	-1.000000	-1.000000	-1.000000	-1.000000	-1.000000	56.000000	0.000000	-1.000000	-1.000000	459780.000000	1775777643.714237
-4602.780000	-7560.540000	-5885.640000	23218.920000	15146.325000	8012.430000	-15315.930000	-733.635000	-1.539559	-3.603202	-7.106107	-6.259294	-2.616560	2.042917	3.231656	0.234423	-5.005280	2.884140	5.051060	-0.698546	-0.031494	0.701170	-1.000000	-1.000000	-1.000000	-1.000000	-1.000000	-1.000000	-1.000000	56.000000	0.000000	-1.000000	-1.000000	459781.000000	1775777643.714249
-4601.340000	-7556.040000	-5880.015000	23224.275000	15146.370000	8008.650000	-15315.255000	-732.825000	0.969417	-0.888539	-4.848157	-5.889274	-5.550406	-2.659194	0.548047	1.138262	-5.005280	2.884140	5.051060	-0.698546	-0.031494	0.701170	-1.000000	-1.000000	-1.000000	-1.000000	-1.000000	-1.000000	-1.000000	56.000000	0.000000	-1.000000	-1.000000	459782.000000	1775777643.721484
-4610.565000	-7563.510000	-5886.540000	23216.805000	15138.720000	8010.945000	-15327.495000	-745.515000	1.924865	1.825718	-0.087668	-2.199176	-4.779764	-4.841594	-2.762393	1.044728	-5.005280	2.884140	5.051060	-0.698546	-0.031494	0.701170	-1.000000	-1.000000	-1.000000	-1.000000	-1.000000	-1.000000	-1.000000	56.000000	0.000000	-1.000000	-1.000000	459783.000000	1775777643.721509
-4603.905000	-7559.460000	-5881.950000	23222.835000	15145.830000	8011.620000	-15326.865000	-740.925000	0.916040	3.067154	4.237714	2.312636	-2.355459	-4.735898	-5.790293	-0.524242	-5.005280	2.884140	5.051060	-0.698546	-0.031494	0.701170	-1.000000	-1.000000	-1.000000	-1.000000	-1.000000	-1.000000	-1.000000	56.000000	0.000000	-1.000000	-1.000000	459784.000000	1775777643.721537
-4601.790000	-7559.145000	-5881.140000	23226.570000	15153.570000	8015.220000	-15326.730000	-739.170000	-0.536176	2.686671	6.142086	5.473853	0.317189	-2.821482	-7.174828	-2.349172	-5.005280	2.884140	5.051060	-0.698546	-0.031494	0.701170	-1.000000	-1.000000	-1.000000	-1.000000	-1.000000	-1.000000	-1.000000	56.000000	0.000000	-1.000000	-1.000000	459785.000000	1775777643.721550
-4612.815000	-7563.870000	-5883.210000	23223.870000	15145.380000	8003.700000	-15332.310000	-747.630000	-1.026405	1.499006	5.482666	6.489121	2.655860	-0.308787	-5.870431	-2.806550	-5.005280	2.884140	5.051060	-0.698546	-0.031494	0.701170	-1.000000	-1.000000	-1.000000	-1.000000	-1.000000	-1.000000	-1.000000	56.000000	0.000000	-1.000000	-1.000000	459786.000000	1775777643.726734
-4608.450000	-7560.630000	-5883.120000	23219.415000	15131.835000	7988.130000	-15327.630000	-740.295000	-0.774771	0.199832	3.091961	5.196500	3.375209	0.892234	-2.347245	-1.723751	-5.005280	2.884140	5.051060	-0.698546	-0.031494	0.701170	-1.000000	-1.000000	-1.000000	-1.000000	-1.000000	-1.000000	-1.000000	56.000000	0.000000	-1.000000	-1.000000	459787.000000	1775777643.726760
-4599.675000	-7558.695000	-5881.770000	23223.960000	15140.430000	8003.250000	-15325.695000	-732.780000	-0.190620	-0.665727	0.177825	2.087804	1.595423	0.078269	1.926122	0.328802	-7.111160	2.212700	2.533160	-0.697752	-0.029053	0.702391	-1.000000	-1.000000	-1.000000	-1.000000	-1.000000	-1.000000	-1.000000	56.000000	0.000000	-1.000000	-1.000000	459788.000000	1775777643.731325
-4598.685000	-7556.265000	-5878.305000	23226.345000	15149.745000	8019.135000	-15329.115000	-732.060000	1.043222	-0.658579	-1.952581	-1.193912	-0.870933	-0.465391	5.376075	2.798554	-7.111160	2.212700	2.533160	-0.697752	-0.029053	0.702391	-1.000000	-1.000000	-1.000000	-1.000000	-1.000000	-1.000000	-1.000000	56.000000	0.000000	-1.000000	-1.000000	459789.000000	1775777643.731349
-4597.740000	-7554.465000	-5877.630000	23223.015000	15140.295000	8001.675000	-15323.940000	-729.180000	2.526849	0.052257	-2.561971	-3.049430	-1.500254	1.353928	6.709660	4.524293	-7.111160	2.212700	2.533160	-0.697752	-0.029053	0.702391	-1.000000	-1.000000	-1.000000	-1.000000	-1.000000	-1.000000	-1.000000	56.000000	0.000000	-1.000000	-1.000000	459790.000000	1775777643.739270
-4603.770000	-7560.855000	-5884.245000	23216.130000	15123.195000	7972.110000	-15333.255000	-738.180000	2.898113	0.661931	-2.048224	-3.424658	-0.780040	3.126860	5.555811	4.156025	-7.111160	2.212700	2.533160	-0.697752	-0.029053	0.702391	-1.000000	-1.000000	-1.000000	-1.000000	-1.000000	-1.000000	-1.000000	56.000000	0.000000	-1.000000	-1.000000	459791.000000	1775777643.739298
-4606.605000	-7556.265000	-5876.595000	23226.210000	15130.395000	7976.160000	-15335.415000	-744.030000	1.305547	0.424400	-1.370687	-3.034433	-0.826095	1.238632	2.457779	1.268386	-7.111160	2.212700	2.533160	-0.697752	-0.029053	0.702391	-1.000000	-1.000000	-1.000000	-1.000000	-1.000000	-1.000000	-1.000000	56.000000	0.000000	-1.000000	-1.000000	459792.000000	1775777643.739329
-4608.405000	-7556.265000	-5879.835000	23217.705000	15136.155000	8015.445000	-15323.805000	-749.565000	-1.568709	-0.440734	-0.835894	-2.033361	-1.397274	-2.268400	-1.083306	-3.017162	-7.111160	2.212700	2.533160	-0.697752	-0.029053	0.702391	-1.000000	-1.000000	-1.000000	-1.000000	-1.000000	-1.000000	-1.000000	56.000000	0.000000	-1.000000	-1.000000	459793.000000	1775777643.739342
-4619.340000	-7565.355000	-5883.795000	23216.895000	15135.750000	8030.520000	-15321.690000	-757.305000	-4.117818	-1.240658	-0.381705	-0.686366	-0.640422	-1.433030	-2.884056	-6.485638	-7.111160	2.212700	2.533160	-0.697752	-0.029053	0.702391	-1.000000	-1.000000	-1.000000	-1.000000	-1.000000	-1.000000	-1.000000	56.000000	0.000000	-1.000000	-1.000000	459794.000000	1775777643.740630
-4618.755000	-7561.620000	-5877.540000	23224.905000	15147.585000	8032.410000	-15321.645000	-756.225000	-5.162559	-1.780157	-0.132187	0.472917	1.720290	4.724197	-2.177259	-7.268314	-7.111160	2.212700	2.533160	-0.697752	-0.029053	0.702391	-1.000000	-1.000000	-1.000000	-1.000000	-1.000000	-1.000000	-1.000000	56.000000	0.000000	-1.000000	-1.000000	459795.000000	1775777643.740659
-4612.275000	-7562.385000	-5885.775000	23211.180000	15136.830000	8009.235000	-15324.570000	-753.390000	-4.066297	-1.830051	0.004623	1.287824	4.092127	9.763414	-0.514629	-4.742193	-7.111160	2.212700	2.533160	-0.697752	-0.029053	0.702391	-1.000000	-1.000000	-1.000000	-1.000000	-1.000000	-1.000000	-1.000000	56.000000	0.000000	-1.000000	-1.000000	459796.000000	1775777643.745053
-4606.605000	-7563.105000	-5889.780000	23207.220000	15130.485000	8000.505000	-15326.550000	-747.855000	-0.661624	-1.027548	-0.020577	1.296395	4.297562	7.120733	0.173072	0.274891	-7.111160	2.212700	2.533160	-0.697752	-0.029053	0.702391	-1.000000	-1.000000	-1.000000	-1.000000	-1.000000	-1.000000	-1.000000	56.000000	0.000000	-1.000000	-1.000000	459797.000000	1775777643.745079
-4604.490000	-7558.065000	-5882.985000	23217.210000	15134.085000	8004.960000	-15324.390000	-746.100000	3.861157	0.434573	-0.276854	0.400101	1.547364	-2.474425	-0.537694	5.656427	-3.204600	3.799740	2.304260	-0.692137	-0.029358	0.702269	-1.000000	-1.000000	-1.000000	-1.000000	-1.000000	-1.000000	-1.000000	56.000000	0.000000	-1.000000	-1.000000	459798.000000	1775777643.750638
-4605.120000	-7556.580000	-5878.755000	23221.890000	15123.780000	7988.445000	-15325.245000	-746.505000	7.070448	2.008044	-0.043712	0.010484	-2.401984	-12.086539	-1.617669	8.852051	-3.204600	3.799740	2.304260	-0.692137	-0.029358	0.702269	-1.000000	-1.000000	-1.000000	-1.000000	-1.000000	-1.000000	-1.000000	56.000000	0.000000	-1.000000	-1.000000	459799.000000	1775777643.750663
-4600.260000	-7554.060000	-5876.595000	23223.555000	15116.265000	7983.855000	-15319.260000	-740.925000	7.132572	3.086926	1.216793	1.139740	-5.300485	-15.883295	-1.865703	8.420661	-3.204600	3.799740	2.304260	-0.692137	-0.029358	0.702269	-1.000000	-1.000000	-1.000000	-1.000000	-1.000000	-1.000000	-1.000000	56.000000	0.000000	-1.000000	-1.000000	459800.000000	1775777643.753472
-4612.095000	-7564.770000	-5887.980000	23209.650000	15122.655000	8004.735000	-15325.605000	-750.555000	4.044463	2.917442	2.494539	2.490749	-5.989021	-12.362183	-0.995800	4.796859	-3.204600	3.799740	2.304260	-0.692137	-0.029358	0.702269	-1.000000	-1.000000	-1.000000	-1.000000	-1.000000	-1.000000	-1.000000	56.000000	0.000000	-1.000000	-1.000000	459801.000000	1775777643.753495
-4613.130000	-7562.340000	-5884.470000	23214.465000	15155.280000	8038.035000	-15322.230000	-749.340000	-0.875732	1.077931	2.187368	2.019496	-3.380458	-2.394185	0.230894	-0.427824	-3.204600	3.799740	2.304260	-0.692137	-0.029358	0.702269	-1.000000	-1.000000	-1.000000	-1.000000	-1.000000	-1.000000	-1.000000	56.000000	0.000000	-1.000000	-1.000000	459802.000000	1775777643.761817
-4607.190000	-7553.205000	-5874.480000	23223.015000	15155.280000	8032.545000	-15319.575000	-743.940000	-5.376971	-1.379392	0.481137	-0.062901	2.765585	10.482246	1.049109	-5.038583	-3.204600	3.799740	2.304260	-0.692137	-0.029358	0.702269	-1.000000	-1.000000	-1.000000	-1.000000	-1.000000	-1.000000	-1.000000	56.000000	0.000000	-1.000000	-1.000000	459803.000000	1775777643.761845
-4601.160000	-7547.040000	-5867.370000	23232.060000	15144.525000	8022.735000	-15311.745000	-737.775000	-6.890538	-2.340400	-0.617713	-1.396012	8.956711	19.022091	1.541467	-6.781420	-3.204600	3.799740	2.304260	-0.692137	-0.029358	0.702269	-1.000000	-1.000000	-1.000000	-1.000000	-1.000000	-1.000000	-1.000000	56.000000	0.000000	-1.000000	-1.000000	459804.000000	1775777643.762443
-4600.395000	-7546.815000	-5866.740000	23230.665000	15143.535000	8018.595000	-15311.340000	-738.270000	-4.617432	-1.079244	-0.061794	-0.712111	9.855780	17.130181	2.005982	-5.085545	-3.204600	3.799740	2.304260	-0.692137	-0.029358	0.702269	-1.000000	-1.000000	-1.000000	-1.000000	-1.000000	-1.000000	-1.000000	56.000000	0.000000	-1.000000	-1.000000	459805.000000	1775777643.762463
-4608.765000	-7557.660000	-5880.330000	23210.415000	15134.985000	8000.055000	-15323.670000	-744.930000	-0.615642	0.663420	0.739783	0.337961	4.138783	5.716117	1.885692	-1.827414	-3.204600	3.799740	2.304260	-0.692137	-0.029358	0.702269	-1.000000	-1.000000	-1.000000	-1.000000	-1.000000	-1.000000	-1.000000	56.000000	0.000000	-1.000000	-1.000000	459806.000000	1775777643.764107
-4601.115000	-7551.495000	-5873.400000	23221.800000	15141.510000	8003.430000	-15314.400000	-734.310000	2.195461	0.769266	-0.108978	-0.513264	-4.251705	-8.344029	0.398643	0.600598	-3.204600	3.799740	2.304260	-0.692137	-0.029358	0.702269	-1.000000	-1.000000	-1.000000	-1.000000	-1.000000	-1.000000	-1.000000	56.000000	0.000000	-1.000000	-1.000000	459807.000000	1775777643.764127
-4604.895000	-7555.545000	-5875.965000	23222.205000	15135.795000	8005.545000	-15314.310000	-737.505000	2.761555	-0.740759	-2.253304	-2.596327	-9.996594	-17.170652	-1.659592	1.538653	-1.861720	3.174080	0.457800	-0.695372	-0.031006	0.701902	-1.000000	-1.000000	-1.000000	-1.000000	-1.000000	-1.000000	-1.000000	56.000000	0.000000	-1.000000	-1.000000	459808.000000	1775777643.768843
-4603.680000	-7554.285000	-5874.525000	23220.270000	15137.505000	8011.080000	-15315.210000	-738.990000	1.848704	-2.236577	-3.695364	-3.409824	-10.389667	-16.462209	-2.645685	1.471925	-1.861720	3.174080	0.457800	-0.695372	-0.031006	0.701902	-1.000000	-1.000000	-1.000000	-1.000000	-1.000000	-1.000000	-1.000000	56.000000	0.000000	-1.000000	-1.000000	459809.000000	1775777643.768868
-4606.065000	-7553.295000	-5869.530000	23225.625000	15149.205000	8016.525000	-15315.390000	-741.555000	0.468701	-2.498294	-3.199191	-2.109350	-6.090828	-7.744989	-2.189671	0.672136	-1.861720	3.174080	0.457800	-0.695372	-0.031006	0.701902	-1.000000	-1.000000	-1.000000	-1.000000	-1.000000	-1.000000	-1.000000	56.000000	0.000000	-1.000000	-1.000000	459810.000000	1775777643.777818
-4612.815000	-7558.515000	-5875.695000	23219.415000	15143.580000	8015.670000	-15320.745000	-747.360000	-0.796278	-1.470099	-1.095004	0.247251	0.399000	3.373942	-1.127182	-0.600531	-1.861720	3.174080	0.457800	-0.695372	-0.031006	0.701902	-1.000000	-1.000000	-1.000000	-1.000000	-1.000000	-1.000000	-1.000000	56.000000	0.000000	-1.000000	-1.000000	459811.000000	1775777643.777844
-4611.240000	-7559.370000	-5878.395000	23215.095000	15130.350000	8006.580000	-15322.590000	-744.255000	-1.706121	-0.033202	1.079049	1.984299	5.514608	10.874667	-0.367453	-1.725148	-1.861720	3.174080	0.457800	-0.695372	-0.031006	0.701902	-1.000000	-1.000000	-1.000000	-1.000000	-1.000000	-1.000000	-1.000000	56.000000	0.000000	-1.000000	-1.000000	459812.000000	1775777643.777873
-4605.705000	-7556.715000	-5879.655000	23213.970000	15121.845000	7993.620000	-15323.265000	-739.080000	-1.783972	1.016881	1.926142	2.029285	6.228259	11.360884	-0.146708	-1.769408	-1.861720	3.174080	0.457800	-0.695372	-0.031006	0.701902	-1.000000	-1.000000	-1.000000	-1.000000	-1.000000	-1.000000	-1.000000	56.000000	0.000000	-1.000000	-1.000000	459813.000000	1775777643.777887
-4602.915000	-7551.270000	-5873.130000	23224.815000	15132.870000	7985.880000	-15325.020000	-739.080000	-0.489260	1.762241	1.598050	1.059038	3.026473	5.612968	-0.019826	-0.248597	-1.861720	3.174080	0.457800	-0.695372	-0.031006	0.701902	-1.000000	-1.000000	-1.000000	-1.000000	-1.000000	-1.000000	-1.000000	56.000000	0.000000	-1.000000	-1.000000	459814.000000	1775777643.780965
-4598.910000	-7544.340000	-5865.075000	23232.060000	15136.515000	7980.480000	-15326.280000	-734.895000	1.750363	2.625533	1.404921	0.842013	-0.265415	-2.147563	0.394990	2.031998	-1.861720	3.174080	0.457800	-0.695372	-0.031006	0.701902	-1.000000	-1.000000	-1.000000	-1.000000	-1.000000	-1.000000	-1.000000	56.000000	0.000000	-1.000000	-1.000000	459815.000000	1775777643.780990
-4599.765000	-7544.025000	-5865.120000	23226.750000	15127.830000	7970.805000	-15326.685000	-735.930000	3.542553	3.446887	2.084924	1.889721	-0.881005	-7.293653	1.025410	3.596960	-1.861720	3.174080	0.457800	-0.695372	-0.031006	0.701902	-1.000000	-1.000000	-1.000000	-1.000000	-1.000000	-1.000000	-1.000000	56.000000	0.000000	-1.000000	-1.000000	459816.000000	1775777643.790485
-4608.090000	-7553.160000	-5873.895000	23217.345000	15140.655000	8016.345000	-15324.705000	-744.345000	3.469272	3.183180	2.641440	2.453289	0.515647	-6.859574	1.628306	3.320639	-1.861720	3.174080	0.457800	-0.695372	-0.031006	0.701902	-1.000000	-1.000000	-1.000000	-1.000000	-1.000000	-1.000000	-1.000000	56.000000	0.000000	-1.000000	-1.000000	459817.000000	1775777643.790511
-4612.365000	-7559.595000	-5877.045000	23216.940000	15144.255000	8027.280000	-15325.245000	-750.015000	1.045357	0.816722	1.455242	0.798636	2.264190	0.019089	2.016225	0.921149	-1.236060	3.448760	-2.578940	-0.697691	-0.031616	0.700560	-1.000000	-1.000000	-1.000000	-1.000000	-1.000000	-1.000000	-1.000000	56.000000	0.000000	-1.000000	-1.000000	459818.000000	1775777643.790537
-4612.995000	-7562.970000	-5876.280000	23219.595000	15143.805000	8021.070000	-15320.565000	-749.790000	-2.531904	-3.059625	-1.393092	-2.235993	3.335441	9.643780	2.064616	-2.468248	-1.236060	3.448760	-2.578940	-0.697691	-0.031616	0.700560	-1.000000	-1.000000	-1.000000	-1.000000	-1.000000	-1.000000	-1.000000	56.000000	0.000000	-1.000000	-1.000000	459819.000000	1775777643.790548
-4608.000000	-7559.505000	-5872.185000	23225.310000	15144.390000	8025.210000	-15316.245000	-743.490000	-4.860655	-6.078114	-3.827977	-4.052123	2.849062	14.510950	1.832242	-4.538956	-1.236060	3.448760	-2.578940	-0.697691	-0.031616	0.700560	-1.000000	-1.000000	-1.000000	-1.000000	-1.000000	-1.000000	-1.000000	56.000000	0.000000	-1.000000	-1.000000	459820.000000	1775777643.799145
-4603.680000	-7556.130000	-5871.015000	23228.910000	15141.960000	8010.855000	-15323.490000	-744.165000	-4.180062	-5.955993	-3.933208	-3.069603	0.594699	10.280363	1.288372	-3.659646	-1.236060	3.448760	-2.578940	-0.697691	-0.031616	0.700560	-1.000000	-1.000000	-1.000000	-1.000000	-1.000000	-1.000000	-1.000000	56.000000	0.000000	-1.000000	-1.000000	459821.000000	1775777643.799174
-4592.475000	-7544.835000	-5862.060000	23234.760000	15148.170000	8013.105000	-15315.345000	-735.030000	-0.698987	-2.328831	-1.611339	0.002244	-2.351698	-0.621225	0.175729	-0.361027	-1.236060	3.448760	-2.578940	-0.697691	-0.031616	0.700560	-1.000000	-1.000000	-1.000000	-1.000000	-1.000000	-1.000000	-1.000000	57.000000	0.000000	-1.000000	-1.000000	459822.000000	1775777643.799204
-4600.755000	-7554.600000	-5872.725000	23218.695000	15132.015000	7995.645000	-15324.165000	-742.095000	3.473043	2.796893	1.513295	2.785197	-4.577373	-11.929373	-1.334076	3.208155	-1.236060	3.448760	-2.578940	-0.697691	-0.031616	0.700560	-1.000000	-1.000000	-1.000000	-1.000000	-1.000000	-1.000000	-1.000000	57.000000	0.000000	-1.000000	-1.000000	459823.000000	1775777643.799216
-4598.325000	-7551.270000	-5868.720000	23221.305000	15133.005000	7992.135000	-15325.605000	-739.305000	5.510732	6.153403	3.220808	2.949731	-5.608533	-18.176952	-2.763262	4.802513	-1.236060	3.448760	-2.578940	-0.697691	-0.031616	0.700560	-1.000000	-1.000000	-1.000000	-1.000000	-1.000000	-1.000000	-1.000000	57.000000	0.000000	-1.000000	-1.000000	459824.000000	1775777643.799740
-4606.425000	-7556.670000	-5868.540000	23226.210000	15136.380000	7997.535000	-15327.765000	-746.685000	3.992955	5.779090	2.617934	0.637717	-5.262260	-17.012236	-3.711312	3.520408	-1.236060	3.448760	-2.578940	-0.697691	-0.031616	0.700560	-1.000000	-1.000000	-1.000000	-1.000000	-1.000000	-1.000000	-1.000000	57.000000	0.000000	-1.000000	-1.000000	459825.000000	1775777643.799758
-4611.555000	-7557.255000	-5868.630000	23229.225000	15138.585000	8011.125000	-15326.370000	-751.005000	-0.098174	2.424221	0.753910	-1.578865	-2.989890	-8.899213	-3.611896	0.210425	-1.236060	3.448760	-2.578940	-0.697691	-0.031616	0.700560	-1.000000	-1.000000	-1.000000	-1.000000	-1.000000	-1.000000	-1.000000	57.000000	0.000000	-1.000000	-1.000000	459826.000000	1775777643.805072
-4610.025000	-7547.445000	-5857.965000	23238.270000	15135.120000	7984.305000	-15324.975000	-747.315000	-4.311076	-1.403047	-0.751396	-1.676552	0.742443	2.456679	-2.099695	-3.195792	-1.236060	3.448760	-2.578940	-0.697691	-0.031616	0.700560	-1.000000	-1.000000	-1.000000	-1.000000	-1.000000	-1.000000	-1.000000	57.000000	0.000000	-1.000000	-1.000000	459827.000000	1775777643.805098
-4606.965000	-7551.450000	-5862.105000	23236.245000	15143.400000	7990.155000	-15320.520000	-749.205000	-6.090221	-3.298300	-0.959873	0.114196	4.198659	10.923325	0.460675	-4.676517	-2.899400	4.089680	-2.258480	-0.698240	-0.031738	0.703123	-1.000000	-1.000000	-1.000000	-1.000000	-1.000000	-1.000000	-1.000000	57.000000	0.000000	-1.000000	-1.000000	459828.000000	1775777643.810813
-4604.040000	-7554.915000	-5873.940000	23221.485000	15136.380000	8012.385000	-15316.335000	-746.145000	-4.335101	-2.913215	-0.538926	1.670289	5.890203	13.339602	3.129740	-3.489902	-2.899400	4.089680	-2.258480	-0.698240	-0.031738	0.703123	-1.000000	-1.000000	-1.000000	-1.000000	-1.000000	-1.000000	-1.000000	57.000000	0.000000	-1.000000	-1.000000	459829.000000	1775777643.810837
-4601.700000	-7544.790000	-5865.795000	23230.620000	15136.740000	8006.625000	-15311.925000	-744.795000	-0.217569	-1.543043	-0.859332	1.040614	5.204266	11.710023	4.869991	-0.586914	-2.899400	4.089680	-2.258480	-0.698240	-0.031738	0.703123	-1.000000	-1.000000	-1.000000	-1.000000	-1.000000	-1.000000	-1.000000	57.000000	0.000000	-1.000000	-1.000000	459830.000000	1775777643.812181
-4611.780000	-7550.100000	-5868.945000	23229.855000	15123.735000	7987.770000	-15318.990000	-756.810000	3.596936	-0.104452	-1.698856	-1.057155	2.339508	7.966678	4.809464	2.125025	-2.899400	4.089680	-2.258480	-0.698240	-0.031738	0.703123	-1.000000	-1.000000	-1.000000	-1.000000	-1.000000	-1.000000	-1.000000	57.000000	0.000000	-1.000000	-1.000000	459831.000000	1775777643.812200
-4604.985000	-7548.795000	-5869.980000	23226.705000	15126.030000	7999.785000	-15317.820000	-744.750000	4.847959	0.889069	-1.847521	-2.426733	-1.539053	2.143445	2.574689	3.077353	-2.899400	4.089680	-2.258480	-0.698240	-0.031738	0.703123	-1.000000	-1.000000	-1.000000	-1.000000	-1.000000	-1.000000	-1.000000	57.000000	0.000000	-1.000000	-1.000000	459832.000000	1775777643.817292
-4600.890000	-7547.355000	-5871.195000	23225.220000	15142.455000	8028.675000	-15309.945000	-736.065000	3.599233	1.023860	-1.051438	-2.276807	-4.118222	-3.441671	-0.808372	2.689156	-2.899400	4.089680	-2.258480	-0.698240	-0.031738	0.703123	-1.000000	-1.000000	-1.000000	-1.000000	-1.000000	-1.000000	-1.000000	57.000000	0.000000	-1.000000	-1.000000	459833.000000	1775777643.817313
-4606.560000	-7549.560000	-5872.590000	23229.360000	15151.230000	8032.770000	-15312.555000	-743.175000	1.535978	0.488795	0.123340	-1.114216	-3.110879	-4.862695	-3.274800	2.309318	-2.899400	4.089680	-2.258480	-0.698240	-0.031738	0.703123	-1.000000	-1.000000	-1.000000	-1.000000	-1.000000	-1.000000	-1.000000	57.000000	0.000000	-1.000000	-1.000000	459834.000000	1775777643.823431
-4605.570000	-7549.200000	-5872.185000	23230.485000	15159.420000	8034.885000	-15316.830000	-742.635000	-0.327434	-0.242664	1.118665	0.530105	1.126333	-2.170145	-3.887806	1.753025	-2.899400	4.089680	-2.258480	-0.698240	-0.031738	0.703123	-1.000000	-1.000000	-1.000000	-1.000000	-1.000000	-1.000000	-1.000000	57.000000	0.000000	-1.000000	-1.000000	459835.000000	1775777643.823460
-4606.290000	-7552.305000	-5876.550000	23218.425000	15140.655000	8012.205000	-15318.090000	-741.645000	-1.755254	-0.847304	1.607346	1.878648	4.969838	0.098101	-3.377596	0.254372	-2.899400	4.089680	-2.258480	-0.698240	-0.031738	0.703123	-1.000000	-1.000000	-1.000000	-1.000000	-1.000000	-1.000000	-1.000000	57.000000	0.000000	-1.000000	-1.000000	459836.000000	1775777643.832348
-4604.040000	-7551.180000	-5873.625000	23220.495000	15134.805000	8001.045000	-15318.675000	-739.755000	-2.408605	-1.119776	1.514800	1.891715	4.448408	-1.992864	-2.523131	-1.666631	-2.899400	4.089680	-2.258480	-0.698240	-0.031738	0.703123	-1.000000	-1.000000	-1.000000	-1.000000	-1.000000	-1.000000	-1.000000	57.000000	0.000000	-1.000000	-1.000000	459837.000000	1775777643.832376
-4595.715000	-7541.865000	-5863.275000	23231.160000	15139.980000	8008.290000	-15313.770000	-732.150000	-1.910638	-0.742005	1.313528	0.866996	-0.575105	-7.357737	-1.318556	-2.735192	-7.752080	2.319520	-5.630940	-0.698790	-0.032043	0.701048	-1.000000	-1.000000	-1.000000	-1.000000	-1.000000	-1.000000	-1.000000	57.000000	0.000000	-1.000000	-1.000000	459838.000000	1775777643.832458
-4593.330000	-7538.265000	-5859.855000	23234.670000	15148.485000	8019.945000	-15314.400000	-731.115000	-0.278184	0.607718	1.730366	0.516003	-5.748650	-10.514078	0.410056	-2.230689	-7.752080	2.319520	-5.630940	-0.698790	-0.032043	0.701048	-1.000000	-1.000000	-1.000000	-1.000000	-1.000000	-1.000000	-1.000000	57.000000	0.000000	-1.000000	-1.000000	459839.000000	1775777643.832474
-4590.405000	-7534.215000	-5855.715000	23235.795000	15139.035000	8008.830000	-15311.070000	-727.965000	1.646822	2.450749	2.569087	1.458240	-6.989547	-7.588969	2.257009	-0.660459	-7.752080	2.319520	-5.630940	-0.698790	-0.032043	0.701048	-1.000000	-1.000000	-1.000000	-1.000000	-1.000000	-1.000000	-1.000000	57.000000	0.000000	-1.000000	-1.000000	459840.000000	1775777643.833516
-4594.410000	-7538.805000	-5857.920000	23236.560000	15120.135000	7988.355000	-15313.815000	-732.915000	2.496559	3.392925	2.634590	2.393589	-4.768871	-0.920102	3.358049	0.632218	-7.752080	2.319520	-5.630940	-0.698790	-0.032043	0.701048	-1.000000	-1.000000	-1.000000	-1.000000	-1.000000	-1.000000	-1.000000	57.000000	0.000000	-1.000000	-1.000000	459841.000000	1775777643.833533
-4604.715000	-7550.145000	-5868.360000	23225.850000	15132.105000	8006.805000	-15320.295000	-744.030000	1.295569	2.108830	0.859642	1.754416	-2.062899	4.469549	2.962911	0.413193	-7.752080	2.319520	-5.630940	-0.698790	-0.032043	0.701048	-1.000000	-1.000000	-1.000000	-1.000000	-1.000000	-1.000000	-1.000000	57.000000	0.000000	-1.000000	-1.000000	459842.000000	1775777643.836511
-4608.135000	-7550.550000	-5866.830000	23228.370000	15145.920000	8032.680000	-15315.030000	-743.445000	-1.728510	-1.360888	-2.590966	-0.775299	0.447428	7.486882	1.117481	-1.450932	-7.752080	2.319520	-5.630940	-0.698790	-0.032043	0.701048	-1.000000	-1.000000	-1.000000	-1.000000	-1.000000	-1.000000	-1.000000	57.000000	0.000000	-1.000000	-1.000000	459843.000000	1775777643.836527
-4600.485000	-7545.060000	-5862.555000	23233.365000	15142.050000	8013.870000	-15314.805000	-736.740000	-4.630793	-4.847132	-5.740711	-3.612645	3.771509	9.687373	-0.914259	-3.268723	-7.752080	2.319520	-5.630940	-0.698790	-0.032043	0.701048	-1.000000	-1.000000	-1.000000	-1.000000	-1.000000	-1.000000	-1.000000	57.000000	0.000000	-1.000000	-1.000000	459844.000000	1775777643.841089
-4605.480000	-7550.370000	-5868.945000	23226.255000	15134.040000	8006.445000	-15321.285000	-742.545000	-4.999326	-5.694557	-6.326779	-4.631260	6.681242	9.717459	-1.889662	-2.971990	-7.752080	2.319520	-5.630940	-0.698790	-0.032043	0.701048	-1.000000	-1.000000	-1.000000	-1.000000	-1.000000	-1.000000	-1.000000	57.000000	0.000000	-1.000000	-1.000000	459845.000000	1775777643.841111
-4598.280000	-7537.365000	-5854.545000	23244.120000	15151.905000	8013.735000	-15316.920000	-738.405000	-2.359592	-3.265698	-3.918130	-3.173009	6.882160	5.459277	-1.798291	-0.525446	-7.752080	2.319520	-5.630940	-0.698790	-0.032043	0.701048	-1.000000	-1.000000	-1.000000	-1.000000	-1.000000	-1.000000	-1.000000	57.000000	0.000000	-1.000000	-1.000000	459846.000000	1775777643.844258
-4600.395000	-7535.880000	-5854.545000	23244.885000	15154.470000	8006.310000	-15320.520000	-745.875000	1.619338	1.086876	0.327443	0.112135	4.675826	-1.249652	-1.114942	2.288475	-7.752080	2.319520	-5.630940	-0.698790	-0.032043	0.701048	-1.000000	-1.000000	-1.000000	-1.000000	-1.000000	-1.000000	-1.000000	57.000000	0.000000	-1.000000	-1.000000	459847.000000	1775777643.844274
-4599.315000	-7535.115000	-5853.465000	23246.100000	15157.305000	8012.790000	-15310.080000	-741.690000	4.710079	5.093821	4.408398	3.601639	1.910943	-6.532754	-0.032935	3.782587	-5.691980	6.622840	-3.433500	-0.697874	-0.034546	0.700316	-1.000000	-1.000000	-1.000000	-1.000000	-1.000000	-1.000000	-1.000000	57.000000	0.000000	-1.000000	-1.000000	459848.000000	1775777643.855198
-4598.505000	-7543.395000	-5866.020000	23236.110000	15148.845000	8010.585000	-15310.215000	-736.965000	5.472836	6.382089	5.941452	4.914325	-0.808326	-8.075280	1.361159	3.672109	-5.691980	6.622840	-3.433500	-0.697874	-0.034546	0.700316	-1.000000	-1.000000	-1.000000	-1.000000	-1.000000	-1.000000	-1.000000	57.000000	0.000000	-1.000000	-1.000000	459849.000000	1775777643.855224
-4593.240000	-7537.860000	-5862.690000	23237.235000	15143.985000	8018.595000	-15307.200000	-730.440000	4.043508	4.134664	3.872130	2.840899	-3.817033	-5.897014	2.580811	2.925290	-5.691980	6.622840	-3.433500	-0.697874	-0.034546	0.700316	-1.000000	-1.000000	-1.000000	-1.000000	-1.000000	-1.000000	-1.000000	57.000000	0.000000	-1.000000	-1.000000	459850.000000	1775777643.855253
-4597.065000	-7542.045000	-5870.070000	23227.335000	15133.005000	8016.390000	-15318.045000	-736.110000	1.616858	0.003714	-0.281929	-1.337267	-6.838295	-1.729493	2.591821	2.186025	-5.691980	6.622840	-3.433500	-0.697874	-0.034546	0.700316	-1.000000	-1.000000	-1.000000	-1.000000	-1.000000	-1.000000	-1.000000	57.000000	0.000000	-1.000000	-1.000000	459851.000000	1775777643.855266
-4595.535000	-7532.235000	-5854.635000	23244.210000	15147.945000	8005.275000	-15319.980000	-736.695000	-0.791919	-3.305368	-3.515962	-4.742905	-8.344076	1.841278	0.692161	0.988903	-5.691980	6.622840	-3.433500	-0.697874	-0.034546	0.700316	-1.000000	-1.000000	-1.000000	-1.000000	-1.000000	-1.000000	-1.000000	57.000000	0.000000	-1.000000	-1.000000	459852.000000	1775777643.869357
-4593.780000	-7528.995000	-5850.540000	23249.250000	15162.030000	8017.605000	-15313.185000	-734.310000	-2.561587	-3.986751	-3.496569	-4.727061	-6.172770	2.968053	-2.167119	-0.963379	-5.691980	6.622840	-3.433500	-0.697874	-0.034546	0.700316	-1.000000	-1.000000	-1.000000	-1.000000	-1.000000	-1.000000	-1.000000	57.000000	0.000000	-1.000000	-1.000000	459853.000000	1775777643.869385
-4598.730000	-7542.765000	-5869.485000	23224.995000	15137.820000	8014.545000	-15313.005000	-735.345000	-3.305209	-2.437506	-0.789884	-1.570925	-0.522206	2.188132	-3.731755	-2.841874	-5.691980	6.622840	-3.433500	-0.697874	-0.034546	0.700316	-1.000000	-1.000000	-1.000000	-1.000000	-1.000000	-1.000000	-1.000000	57.000000	0.000000	-1.000000	-1.000000	459854.000000	1775777643.869456
