Channel1	Channel2	Channel3	Channel4	Channel5	Channel6	Channel7	Channel8	FilteredChannel1	FilteredChannel2	FilteredChannel3	FilteredChannel4	FilteredChannel5	FilteredChannel6	FilteredChannel7	FilteredChannel8	GyroX	GyroY	GyroZ	AccX	AccY	AccZ	PPG1	PPG2	rawPPG1	rawPPG2	rawPPG3	Hr	Hrv	Battery	Trigger	PhysicalTrigger	AutoTrigger	NumMeasurements	Timestamp
-24234.795000	-8391.960000	7436.295000	22539.420000	14717.520000	-2648.970000	-7339.635000	9307.755000	0.228037	-2.309337	-6.232072	-8.046965	-19.287121	-11.440290	-0.196043	1.706171	1.373400	1.083460	-0.930860	-0.646788	-0.277160	0.697569	-1.000000	-1.000000	-1.000000	-1.000000	-1.000000	-1.000000	-1.000000	59.000000	0.000000	-1.000000	-1.000000	147923.000000	1775777019.970394
-24232.230000	-8386.920000	7446.555000	22551.570000	14734.575000	-2645.910000	-7342.245000	9307.170000	-1.230630	-1.017259	2.969850	6.620328	3.170968	0.149071	-4.197543	-1.310121	1.373400	1.083460	-0.930860	-0.646788	-0.277160	0.697569	-1.000000	-1.000000	-1.000000	-1.000000	-1.000000	-1.000000	-1.000000	59.000000	0.000000	-1.000000	-1.000000	147924.000000	1775777019.983877
-24244.695000	-8398.575000	7436.745000	22540.905000	14732.145000	-2639.115000	-7344.315000	9294.300000	-1.681661	1.255070	11.319611	18.523251	24.174384	12.011162	-6.406111	-3.356422	1.373400	1.083460	-0.930860	-0.646788	-0.277160	0.697569	-1.000000	-1.000000	-1.000000	-1.000000	-1.000000	-1.000000	-1.000000	59.000000	0.000000	-1.000000	-1.000000	147925.000000	1775777019.983902
-24236.190000	-8393.310000	7435.935000	22535.325000	14726.340000	-2623.230000	-7330.905000	9305.010000	-1.451018	2.610913	13.776319	20.895396	32.084764	17.970011	-5.269389	-3.961997	1.373400	1.083460	-0.930860	-0.646788	-0.277160	0.697569	-1.000000	-1.000000	-1.000000	-1.000000	-1.000000	-1.000000	-1.000000	59.000000	0.000000	-1.000000	-1.000000	147926.000000	1775777019.983932
-24228.045000	-8388.495000	7430.355000	22523.895000	14700.780000	-2641.950000	-7325.280000	9314.190000	-0.749202	2.064507	8.649344	12.221107	22.978552	15.789245	-0.874858	-2.780989	1.373400	1.083460	-0.930860	-0.646788	-0.277160	0.697569	-1.000000	-1.000000	-1.000000	-1.000000	-1.000000	-1.000000	-1.000000	59.000000	0.000000	-1.000000	-1.000000	147927.000000	1775777019.983943
-24220.845000	-8386.425000	7422.705000	22516.335000	14683.635000	-2656.440000	-7319.610000	9321.750000	0.887701	0.706032	-0.798314	-2.266301	2.319417	6.454603	4.719975	0.400490	1.373400	1.083460	-0.930860	-0.646788	-0.277160	0.697569	-1.000000	-1.000000	-1.000000	-1.000000	-1.000000	-1.000000	-1.000000	59.000000	0.000000	-1.000000	-1.000000	147928.000000	1775777019.983960
-24221.520000	-8388.855000	7420.905000	22515.345000	14682.645000	-2656.980000	-7318.980000	9319.095000	2.927403	-0.363996	-9.352275	-14.581327	-18.676435	-6.329984	8.317511	4.052537	1.373400	1.083460	-0.930860	-0.646788	-0.277160	0.697569	-1.000000	-1.000000	-1.000000	-1.000000	-1.000000	-1.000000	-1.000000	59.000000	0.000000	-1.000000	-1.000000	147929.000000	1775777019.983971
-24224.805000	-8389.845000	7426.890000	22524.705000	14699.610000	-2647.710000	-7324.020000	9313.965000	3.613164	-1.156316	-12.910373	-18.705392	-28.843526	-16.102140	7.675788	5.417632	1.373400	1.083460	-0.930860	-0.646788	-0.277160	0.697569	-1.000000	-1.000000	-1.000000	-1.000000	-1.000000	-1.000000	-1.000000	59.000000	0.000000	-1.000000	-1.000000	147930.000000	1775777019.989240
-24235.695000	-8398.170000	7427.655000	22531.095000	14709.060000	-2647.755000	-7339.995000	9302.355000	1.631424	-2.051468	-10.158874	-13.350958	-23.323562	-17.502519	2.709663	2.915358	1.373400	1.083460	-0.930860	-0.646788	-0.277160	0.697569	-1.000000	-1.000000	-1.000000	-1.000000	-1.000000	-1.000000	-1.000000	59.000000	0.000000	-1.000000	-1.000000	147931.000000	1775777019.989262
-24237.405000	-8397.360000	7433.370000	22539.330000	14725.845000	-2645.325000	-7344.765000	9300.195000	-2.470962	-3.022607	-3.117674	-2.217274	-6.453930	-10.699623	-4.523070	-2.328706	2.762060	1.022420	-0.732480	-0.645201	-0.275207	0.697447	-1.000000	-1.000000	-1.000000	-1.000000	-1.000000	-1.000000	-1.000000	59.000000	0.000000	-1.000000	-1.000000	147932.000000	1775777019.989288
-24237.180000	-8393.715000	7439.445000	22548.060000	14735.790000	-2647.440000	-7343.190000	9300.735000	-6.236904	-3.291255	4.397533	8.615028	11.801728	-0.664253	-10.272815	-6.997909	2.762060	1.022420	-0.732480	-0.645201	-0.275207	0.697447	-1.000000	-1.000000	-1.000000	-1.000000	-1.000000	-1.000000	-1.000000	59.000000	0.000000	-1.000000	-1.000000	147933.000000	1775777019.989299
-24225.885000	-8384.445000	7440.570000	22543.290000	14721.120000	-2647.395000	-7331.220000	9312.795000	-6.851709	-1.830922	9.122943	14.151821	22.029708	7.102179	-10.842842	-7.766854	2.762060	1.022420	-0.732480	-0.645201	-0.275207	0.697447	-1.000000	-1.000000	-1.000000	-1.000000	-1.000000	-1.000000	-1.000000	59.000000	0.000000	-1.000000	-1.000000	147934.000000	1775777019.992297
-24232.455000	-8393.040000	7418.250000	22506.705000	14678.370000	-2663.820000	-7332.165000	9307.305000	-3.523308	1.124296	9.096058	11.802827	19.036491	9.534650	-5.448031	-3.884988	2.762060	1.022420	-0.732480	-0.645201	-0.275207	0.697447	-1.000000	-1.000000	-1.000000	-1.000000	-1.000000	-1.000000	-1.000000	59.000000	0.000000	-1.000000	-1.000000	147935.000000	1775777019.992316
-24229.800000	-8392.545000	7412.895000	22496.895000	14661.360000	-2680.155000	-7329.465000	9312.075000	1.523207	3.578047	4.006708	2.097149	4.142970	6.368122	2.656062	2.015313	2.762060	1.022420	-0.732480	-0.645201	-0.275207	0.697447	-1.000000	-1.000000	-1.000000	-1.000000	-1.000000	-1.000000	-1.000000	59.000000	0.000000	-1.000000	-1.000000	147936.000000	1775777019.997109
-24229.530000	-8395.740000	7413.930000	22502.835000	14663.655000	-2686.770000	-7330.050000	9313.920000	5.136697	3.753147	-3.388034	-9.519278	-13.643544	-0.080509	8.678104	6.323953	2.762060	1.022420	-0.732480	-0.645201	-0.275207	0.697447	-1.000000	-1.000000	-1.000000	-1.000000	-1.000000	-1.000000	-1.000000	59.000000	0.000000	-1.000000	-1.000000	147937.000000	1775777019.997133
-24232.590000	-8404.065000	7405.695000	22502.430000	14676.570000	-2649.780000	-7323.885000	9311.535000	5.799393	1.719099	-8.373390	-15.100471	-22.417858	-4.881464	9.946657	7.192655	2.762060	1.022420	-0.732480	-0.645201	-0.275207	0.697447	-1.000000	-1.000000	-1.000000	-1.000000	-1.000000	-1.000000	-1.000000	59.000000	0.000000	-1.000000	-1.000000	147938.000000	1775777020.006315
-24225.615000	-8390.430000	7429.005000	22529.970000	14709.465000	-2614.545000	-7319.970000	9310.995000	3.986203	-0.940473	-7.904813	-10.670550	-16.059201	-2.732826	7.100333	4.822245	2.762060	1.022420	-0.732480	-0.645201	-0.275207	0.697447	-1.000000	-1.000000	-1.000000	-1.000000	-1.000000	-1.000000	-1.000000	59.000000	0.000000	-1.000000	-1.000000	147939.000000	1775777020.006350
-24237.540000	-8398.800000	7435.170000	22546.440000	14733.315000	-2628.855000	-7334.415000	9298.485000	1.140431	-2.236844	-2.069118	1.363690	1.827349	6.028223	2.238761	0.560528	2.762060	1.022420	-0.732480	-0.645201	-0.275207	0.697447	-1.000000	-1.000000	-1.000000	-1.000000	-1.000000	-1.000000	-1.000000	59.000000	0.000000	-1.000000	-1.000000	147940.000000	1775777020.006378
-24241.095000	-8404.065000	7431.210000	22553.280000	14754.780000	-2629.665000	-7339.275000	9298.260000	-1.698429	-1.744272	5.767102	14.203125	20.803528	13.341817	-3.116003	-3.850104	2.762060	1.022420	-0.732480	-0.645201	-0.275207	0.697447	-1.000000	-1.000000	-1.000000	-1.000000	-1.000000	-1.000000	-1.000000	59.000000	0.000000	-1.000000	-1.000000	147941.000000	1775777020.006390
-24241.545000	-8406.540000	7425.405000	22549.455000	14750.550000	-2622.690000	-7342.245000	9300.645000	-3.897444	-0.830497	10.256217	20.178653	29.893756	11.828674	-7.550610	-6.458458	-0.518840	1.709120	-0.228900	-0.650816	-0.271789	0.698118	-1.000000	-1.000000	-1.000000	-1.000000	-1.000000	-1.000000	-1.000000	59.000000	0.000000	-1.000000	-1.000000	147942.000000	1775777020.020345
-24231.465000	-8405.955000	7424.955000	22537.530000	14724.810000	-2636.595000	-7328.520000	9314.460000	-4.324549	-0.372793	8.369973	15.344960	23.298107	2.239139	-8.913220	-5.557547	-0.518840	1.709120	-0.228900	-0.650816	-0.271789	0.698118	-1.000000	-1.000000	-1.000000	-1.000000	-1.000000	-1.000000	-1.000000	59.000000	0.000000	-1.000000	-1.000000	147943.000000	1775777020.020372
-24231.735000	-8399.070000	7410.510000	22509.495000	14688.630000	-2657.250000	-7328.340000	9313.830000	-2.198876	0.110749	1.669427	1.700727	3.004523	-9.754155	-5.833501	-1.206743	-0.518840	1.709120	-0.228900	-0.650816	-0.271789	0.698118	-1.000000	-1.000000	-1.000000	-1.000000	-1.000000	-1.000000	-1.000000	59.000000	0.000000	-1.000000	-1.000000	147944.000000	1775777020.020398
-24232.230000	-8395.965000	7405.605000	22492.260000	14670.000000	-2672.505000	-7330.995000	9311.805000	1.346474	1.301617	-5.895719	-14.411132	-21.679334	-18.924160	0.095789	3.903764	-0.518840	1.709120	-0.228900	-0.650816	-0.271789	0.698118	-1.000000	-1.000000	-1.000000	-1.000000	-1.000000	-1.000000	-1.000000	59.000000	0.000000	-1.000000	-1.000000	147945.000000	1775777020.020407
-24232.365000	-8399.970000	7407.360000	22500.000000	14680.530000	-2674.845000	-7332.480000	9310.410000	3.907811	2.785038	-10.493946	-24.971714	-37.796677	-21.603426	5.079799	6.315126	-0.518840	1.709120	-0.228900	-0.650816	-0.271789	0.698118	-1.000000	-1.000000	-1.000000	-1.000000	-1.000000	-1.000000	-1.000000	59.000000	0.000000	-1.000000	-1.000000	147946.000000	1775777020.020418
-24238.980000	-8404.065000	7412.895000	22511.610000	14692.095000	-2661.345000	-7341.930000	9300.510000	3.914808	3.110235	-9.742370	-23.690084	-35.782936	-15.857229	6.320773	4.627131	-0.518840	1.709120	-0.228900	-0.650816	-0.271789	0.698118	-1.000000	-1.000000	-1.000000	-1.000000	-1.000000	-1.000000	-1.000000	59.000000	0.000000	-1.000000	-1.000000	147947.000000	1775777020.020428
-24230.520000	-8392.320000	7435.665000	22539.735000	14723.370000	-2633.850000	-7333.920000	9307.665000	1.724805	1.691236	-3.672979	-10.085481	-15.912438	-2.541350	3.941923	0.278168	-0.518840	1.709120	-0.228900	-0.650816	-0.271789	0.698118	-1.000000	-1.000000	-1.000000	-1.000000	-1.000000	-1.000000	-1.000000	59.000000	0.000000	-1.000000	-1.000000	147948.000000	1775777020.022819
-24234.030000	-8393.670000	7439.175000	22549.590000	14744.475000	-2620.710000	-7337.340000	9304.020000	-0.836953	-0.204437	5.090719	9.386035	11.856256	13.819712	0.424402	-3.677428	-0.518840	1.709120	-0.228900	-0.650816	-0.271789	0.698118	-1.000000	-1.000000	-1.000000	-1.000000	-1.000000	-1.000000	-1.000000	59.000000	0.000000	-1.000000	-1.000000	147949.000000	1775777020.022843
-24238.485000	-8397.450000	7430.985000	22538.610000	14738.085000	-2632.860000	-7348.185000	9297.495000	-2.321463	-1.374152	11.764295	24.363070	33.605292	25.527255	-2.013842	-5.095017	-0.518840	1.709120	-0.228900	-0.650816	-0.271789	0.698118	-1.000000	-1.000000	-1.000000	-1.000000	-1.000000	-1.000000	-1.000000	59.000000	0.000000	-1.000000	-1.000000	147950.000000	1775777020.038670
-24226.200000	-8386.380000	7432.920000	22535.145000	14730.345000	-2630.880000	-7334.595000	9309.780000	-2.483550	-1.818175	11.978282	26.512453	38.489678	25.742400	-2.841175	-3.931951	-0.518840	1.709120	-0.228900	-0.650816	-0.271789	0.698118	-1.000000	-1.000000	-1.000000	-1.000000	-1.000000	-1.000000	-1.000000	59.000000	0.000000	-1.000000	-1.000000	147951.000000	1775777020.038695
-24225.345000	-8388.855000	7422.480000	22514.130000	14689.395000	-2647.665000	-7325.325000	9313.695000	-1.314716	-1.620141	5.534327	15.130238	24.393119	14.019919	-1.760951	-0.904960	-4.440660	2.304260	-2.792580	-0.654783	-0.272094	0.694700	-1.000000	-1.000000	-1.000000	-1.000000	-1.000000	-1.000000	-1.000000	59.000000	0.000000	-1.000000	-1.000000	147952.000000	1775777020.038720
-24217.425000	-8383.590000	7424.640000	22514.355000	14683.860000	-2646.495000	-7313.400000	9322.650000	0.805082	-0.888134	-3.573153	-2.790010	-1.028603	-3.199340	1.325065	2.937201	-4.440660	2.304260	-2.792580	-0.654783	-0.272094	0.694700	-1.000000	-1.000000	-1.000000	-1.000000	-1.000000	-1.000000	-1.000000	59.000000	0.000000	-1.000000	-1.000000	147953.000000	1775777020.038732
-24218.910000	-8383.095000	7425.855000	22518.135000	14691.645000	-2650.635000	-7316.280000	9320.445000	2.631501	-0.143361	-10.266712	-17.290392	-23.943476	-17.164609	4.748782	5.765398	-4.440660	2.304260	-2.792580	-0.654783	-0.272094	0.694700	-1.000000	-1.000000	-1.000000	-1.000000	-1.000000	-1.000000	-1.000000	59.000000	0.000000	-1.000000	-1.000000	147954.000000	1775777020.038746
-24229.575000	-8392.905000	7424.100000	22517.370000	14697.405000	-2653.650000	-7327.215000	9308.565000	2.673937	-0.019659	-11.449657	-21.360627	-32.067938	-21.979238	5.533221	5.602360	-4.440660	2.304260	-2.792580	-0.654783	-0.272094	0.694700	-1.000000	-1.000000	-1.000000	-1.000000	-1.000000	-1.000000	-1.000000	59.000000	0.000000	-1.000000	-1.000000	147955.000000	1775777020.038756
-24241.230000	-8403.975000	7419.510000	22518.270000	14705.730000	-2648.880000	-7339.365000	9296.910000	0.100032	-1.138147	-7.666864	-14.907289	-22.849820	-17.219258	1.874560	1.643205	-4.440660	2.304260	-2.792580	-0.654783	-0.272094	0.694700	-1.000000	-1.000000	-1.000000	-1.000000	-1.000000	-1.000000	-1.000000	59.000000	0.000000	-1.000000	-1.000000	147956.000000	1775777020.038769
-24241.050000	-8400.870000	7429.275000	22537.665000	14725.710000	-2644.425000	-7343.280000	9294.840000	-4.039526	-3.161506	-1.765981	-3.059189	-3.688085	-6.615106	-4.706722	-4.395683	-4.440660	2.304260	-2.792580	-0.654783	-0.272094	0.694700	-1.000000	-1.000000	-1.000000	-1.000000	-1.000000	-1.000000	-1.000000	59.000000	0.000000	-1.000000	-1.000000	147957.000000	1775777020.038779
-24227.460000	-8387.190000	7445.295000	22553.280000	14738.445000	-2634.165000	-7333.875000	9306.675000	-6.568183	-3.948103	3.996718	8.614189	14.856771	4.814966	-9.812218	-8.520978	-4.440660	2.304260	-2.792580	-0.654783	-0.272094	0.694700	-1.000000	-1.000000	-1.000000	-1.000000	-1.000000	-1.000000	-1.000000	59.000000	0.000000	-1.000000	-1.000000	147958.000000	1775777020.054579
-24220.440000	-8385.300000	7437.780000	22536.180000	14718.375000	-2639.205000	-7331.175000	9314.460000	-4.626786	-1.499883	8.293487	15.672161	24.297998	12.687623	-9.484398	-7.310194	-4.440660	2.304260	-2.792580	-0.654783	-0.272094	0.694700	-1.000000	-1.000000	-1.000000	-1.000000	-1.000000	-1.000000	-1.000000	59.000000	0.000000	-1.000000	-1.000000	147959.000000	1775777020.054605
-24216.705000	-8387.820000	7422.840000	22515.660000	14703.075000	-2648.295000	-7327.530000	9319.950000	1.163432	3.099369	9.088605	14.462048	20.495999	14.188726	-3.662964	-1.115587	-4.440660	2.304260	-2.792580	-0.654783	-0.272094	0.694700	-1.000000	-1.000000	-1.000000	-1.000000	-1.000000	-1.000000	-1.000000	59.000000	0.000000	-1.000000	-1.000000	147960.000000	1775777020.054631
-24203.880000	-8378.280000	7422.660000	22510.845000	14695.380000	-2646.180000	-7314.165000	9334.080000	7.096954	6.563159	5.006179	4.914858	6.043253	9.272573	4.108819	6.211281	-4.440660	2.304260	-2.792580	-0.654783	-0.272094	0.694700	-1.000000	-1.000000	-1.000000	-1.000000	-1.000000	-1.000000	-1.000000	59.000000	0.000000	-1.000000	-1.000000	147961.000000	1775777020.054642
-24197.940000	-8368.245000	7434.720000	22519.935000	14659.785000	-2661.570000	-7306.965000	9337.320000	9.863272	7.097373	-1.513653	-7.008451	-10.851914	1.075602	9.976938	10.635473	-6.348160	1.281840	0.412020	-0.643004	-0.273254	0.696104	-1.000000	-1.000000	-1.000000	-1.000000	-1.000000	-1.000000	-1.000000	59.000000	0.000000	-1.000000	-1.000000	147962.000000	1775777020.054658
-24205.005000	-8370.225000	7441.155000	22530.150000	14675.130000	-2644.155000	-7308.180000	9328.455000	8.216304	5.203677	-5.587441	-13.223901	-21.747541	-5.959930	11.582620	9.918061	-6.348160	1.281840	0.412020	-0.643004	-0.273254	0.696104	-1.000000	-1.000000	-1.000000	-1.000000	-1.000000	-1.000000	-1.000000	59.000000	0.000000	-1.000000	-1.000000	147963.000000	1775777020.054669
-24211.935000	-8376.255000	7444.305000	22544.595000	14734.620000	-2611.710000	-7316.190000	9318.195000	2.520260	1.651157	-4.814204	-10.122536	-20.403822	-7.731442	8.105748	3.907751	-6.348160	1.281840	0.412020	-0.643004	-0.273254	0.696104	-1.000000	-1.000000	-1.000000	-1.000000	-1.000000	-1.000000	-1.000000	59.000000	0.000000	-1.000000	-1.000000	147964.000000	1775777020.054682
-24230.790000	-8394.930000	7436.520000	22546.080000	14743.305000	-2618.235000	-7335.180000	9301.050000	-5.365439	-3.227160	-1.228640	-0.807835	-5.394305	-2.971664	0.471452	-5.125158	-6.348160	1.281840	0.412020	-0.643004	-0.273254	0.696104	-1.000000	-1.000000	-1.000000	-1.000000	-1.000000	-1.000000	-1.000000	59.000000	0.000000	-1.000000	-1.000000	147965.000000	1775777020.054693
-24230.655000	-8392.815000	7443.855000	22556.970000	14760.495000	-2618.145000	-7335.225000	9304.110000	-12.234488	-8.312918	1.550640	8.119639	15.082707	3.946883	-8.338733	-12.919497	-6.348160	1.281840	0.412020	-0.643004	-0.273254	0.696104	-1.000000	-1.000000	-1.000000	-1.000000	-1.000000	-1.000000	-1.000000	59.000000	0.000000	-1.000000	-1.000000	147966.000000	1775777020.055707
-24211.215000	-8376.570000	7451.280000	22559.310000	14754.105000	-2619.270000	-7319.115000	9325.305000	-14.155249	-10.654877	2.108043	11.640020	27.481692	6.715759	-13.564027	-14.725406	-6.348160	1.281840	0.412020	-0.643004	-0.273254	0.696104	-1.000000	-1.000000	-1.000000	-1.000000	-1.000000	-1.000000	-1.000000	59.000000	0.000000	-1.000000	-1.000000	147967.000000	1775777020.055722
-24202.665000	-8370.990000	7445.745000	22544.370000	14720.265000	-2629.665000	-7311.330000	9335.565000	-8.667078	-7.433609	1.346469	8.531253	23.433052	3.296979	-11.356031	-8.238402	-6.348160	1.281840	0.412020	-0.643004	-0.273254	0.696104	-1.000000	-1.000000	-1.000000	-1.000000	-1.000000	-1.000000	-1.000000	59.000000	0.000000	-1.000000	-1.000000	147968.000000	1775777020.073999
-24212.160000	-8384.580000	7422.030000	22511.295000	14689.890000	-2643.075000	-7313.130000	9327.645000	1.719268	-0.030049	-0.361111	0.043352	4.407062	-3.800354	-2.821984	3.156859	-6.348160	1.281840	0.412020	-0.643004	-0.273254	0.696104	-1.000000	-1.000000	-1.000000	-1.000000	-1.000000	-1.000000	-1.000000	59.000000	0.000000	-1.000000	-1.000000	147969.000000	1775777020.074026
-24219.495000	-8393.445000	7406.595000	22489.335000	14677.965000	-2652.840000	-7311.600000	9322.155000	10.205548	6.137783	-3.647914	-10.912549	-19.372402	-10.486898	6.288845	11.918338	-6.348160	1.281840	0.412020	-0.643004	-0.273254	0.696104	-1.000000	-1.000000	-1.000000	-1.000000	-1.000000	-1.000000	-1.000000	59.000000	0.000000	-1.000000	-1.000000	147970.000000	1775777020.074056
-24217.155000	-8386.020000	7416.540000	22499.820000	14681.430000	-2655.900000	-7316.505000	9319.455000	11.813632	7.268671	-7.250352	-18.906982	-34.200555	-13.135008	10.590763	12.815726	-6.348160	1.281840	0.412020	-0.643004	-0.273254	0.696104	-1.000000	-1.000000	-1.000000	-1.000000	-1.000000	-1.000000	-1.000000	59.000000	0.000000	-1.000000	-1.000000	147971.000000	1775777020.074068
-24213.735000	-8381.655000	7433.280000	22525.875000	14703.615000	-2651.220000	-7318.980000	9319.005000	7.446304	4.694125	-7.223131	-17.465064	-31.164418	-9.931006	8.663432	6.845744	-1.175020	0.717220	3.677660	-0.644285	-0.275878	0.694395	-1.000000	-1.000000	-1.000000	-1.000000	-1.000000	-1.000000	-1.000000	59.000000	0.000000	-1.000000	-1.000000	147972.000000	1775777020.074082
-24221.970000	-8387.370000	7439.085000	22541.085000	14741.145000	-2610.945000	-7325.145000	9306.945000	1.355898	1.812450	-1.241100	-4.655571	-11.264561	-1.157782	2.751948	-1.212098	-1.175020	0.717220	3.677660	-0.644285	-0.275878	0.694395	-1.000000	-1.000000	-1.000000	-1.000000	-1.000000	-1.000000	-1.000000	59.000000	0.000000	-1.000000	-1.000000	147973.000000	1775777020.074093
-24217.560000	-8382.600000	7448.310000	22558.545000	14774.805000	-2582.955000	-7318.935000	9312.255000	-3.178199	0.150726	7.780245	13.339902	15.824365	11.118472	-3.303773	-7.030946	-1.175020	0.717220	3.677660	-0.644285	-0.275878	0.694395	-1.000000	-1.000000	-1.000000	-1.000000	-1.000000	-1.000000	-1.000000	59.000000	0.000000	-1.000000	-1.000000	147974.000000	1775777020.087059
-24224.175000	-8387.505000	7441.965000	22550.895000	14759.730000	-2597.445000	-7325.190000	9307.620000	-4.992536	-0.539576	13.930629	26.023055	36.333300	21.629913	-6.346720	-8.430672	-1.175020	0.717220	3.677660	-0.644285	-0.275878	0.694395	-1.000000	-1.000000	-1.000000	-1.000000	-1.000000	-1.000000	-1.000000	59.000000	0.000000	-1.000000	-1.000000	147975.000000	1775777020.087085
-24215.715000	-8382.015000	7438.995000	22536.945000	14733.270000	-2609.280000	-7317.720000	9315.630000	-4.284625	-0.785585	13.062205	25.667131	38.426920	22.703725	-5.536682	-5.517088	-1.175020	0.717220	3.677660	-0.644285	-0.275878	0.694395	-1.000000	-1.000000	-1.000000	-1.000000	-1.000000	-1.000000	-1.000000	59.000000	0.000000	-1.000000	-1.000000	147976.000000	1775777020.087111
-24202.305000	-8370.540000	7439.175000	22531.005000	14719.005000	-2618.505000	-7302.465000	9331.740000	-1.648681	-0.580731	5.632207	12.222715	19.936740	11.215587	-1.852274	0.031480	-1.175020	0.717220	3.677660	-0.644285	-0.275878	0.694395	-1.000000	-1.000000	-1.000000	-1.000000	-1.000000	-1.000000	-1.000000	59.000000	0.000000	-1.000000	-1.000000	147977.000000	1775777020.087123
-24199.920000	-8369.505000	7432.605000	22521.645000	14700.105000	-2632.005000	-7296.930000	9336.960000	2.084119	0.380114	-3.991169	-6.640357	-8.645734	-7.076359	3.094453	5.987977	-1.175020	0.717220	3.677660	-0.644285	-0.275878	0.694395	-1.000000	-1.000000	-1.000000	-1.000000	-1.000000	-1.000000	-1.000000	59.000000	0.000000	-1.000000	-1.000000	147978.000000	1775777020.087138
-24199.290000	-8368.020000	7433.460000	22521.060000	14690.160000	-2640.780000	-7294.725000	9337.320000	5.034362	1.490252	-10.972997	-20.915120	-31.570263	-22.236436	6.929066	9.632620	-1.175020	0.717220	3.677660	-0.644285	-0.275878	0.694395	-1.000000	-1.000000	-1.000000	-1.000000	-1.000000	-1.000000	-1.000000	59.000000	0.000000	-1.000000	-1.000000	147979.000000	1775777020.087148
-24186.780000	-8350.740000	7460.235000	22551.435000	14725.575000	-2623.860000	-7290.315000	9344.565000	5.342685	1.776241	-12.193870	-23.873538	-37.500890	-26.743832	7.335807	8.836789	-1.175020	0.717220	3.677660	-0.644285	-0.275878	0.694395	-1.000000	-1.000000	-1.000000	-1.000000	-1.000000	-1.000000	-1.000000	59.000000	0.000000	-1.000000	-1.000000	147980.000000	1775777020.087164
-24189.435000	-8350.515000	7474.410000	22571.235000	14763.600000	-2599.920000	-7297.965000	9339.795000	3.062640	1.319459	-6.806604	-14.429801	-23.702091	-18.342895	3.858400	3.931441	-1.175020	0.717220	3.677660	-0.644285	-0.275878	0.694395	-1.000000	-1.000000	-1.000000	-1.000000	-1.000000	-1.000000	-1.000000	59.000000	0.000000	-1.000000	-1.000000	147981.000000	1775777020.087174
-24220.350000	-8382.195000	7451.640000	22564.080000	14758.245000	-2610.765000	-7329.690000	9310.005000	-1.081083	-0.203046	1.837241	1.653248	2.222485	-1.412917	-2.469612	-3.220795	3.509800	-1.709120	3.891300	-0.648680	-0.277587	0.698118	-1.000000	-1.000000	-1.000000	-1.000000	-1.000000	-1.000000	-1.000000	59.000000	0.000000	-1.000000	-1.000000	147982.000000	1775777020.104414
-24212.205000	-8376.390000	7454.610000	22570.155000	14764.635000	-2611.215000	-7327.710000	9320.580000	-6.521723	-3.875077	7.119422	14.298308	24.911057	14.238706	-9.721713	-10.407516	3.509800	-1.709120	3.891300	-0.648680	-0.277587	0.698118	-1.000000	-1.000000	-1.000000	-1.000000	-1.000000	-1.000000	-1.000000	59.000000	0.000000	-1.000000	-1.000000	147983.000000	1775777020.104441
-24202.080000	-8370.675000	7450.740000	22556.835000	14740.830000	-2618.370000	-7314.660000	9333.045000	-10.433456	-7.976611	5.637456	16.531346	31.496122	20.165540	-13.854211	-13.859243	3.509800	-1.709120	3.891300	-0.648680	-0.277587	0.698118	-1.000000	-1.000000	-1.000000	-1.000000	-1.000000	-1.000000	-1.000000	59.000000	0.000000	-1.000000	-1.000000	147984.000000	1775777020.104479
-24197.850000	-8371.800000	7437.735000	22530.420000	14700.555000	-2644.020000	-7309.665000	9338.535000	-8.978991	-8.492098	-0.123324	8.393560	19.536786	14.828270	-10.742902	-10.234786	3.509800	-1.709120	3.891300	-0.648680	-0.277587	0.698118	-1.000000	-1.000000	-1.000000	-1.000000	-1.000000	-1.000000	-1.000000	59.000000	0.000000	-1.000000	-1.000000	147985.000000	1775777020.104492
-24199.335000	-8375.445000	7426.845000	22514.715000	14678.235000	-2665.935000	-7314.255000	9335.700000	-2.329694	-4.338250	-5.934010	-5.018007	-3.460609	2.373969	-1.322922	-1.201261	3.509800	-1.709120	3.891300	-0.648680	-0.277587	0.698118	-1.000000	-1.000000	-1.000000	-1.000000	-1.000000	-1.000000	-1.000000	59.000000	0.000000	-1.000000	-1.000000	147986.000000	1775777020.104509
-24206.040000	-8381.970000	7420.455000	22505.850000	14681.970000	-2647.575000	-7315.380000	9327.150000	4.978872	1.538917	-8.891279	-16.305357	-24.135926	-9.920266	8.423798	7.270952	3.509800	-1.709120	3.891300	-0.648680	-0.277587	0.698118	-1.000000	-1.000000	-1.000000	-1.000000	-1.000000	-1.000000	-1.000000	59.000000	0.000000	-1.000000	-1.000000	147987.000000	1775777020.104521
-24209.010000	-8380.890000	7432.470000	22526.730000	14719.185000	-2607.795000	-7308.945000	9325.440000	8.427116	5.656468	-7.424343	-18.748934	-29.741079	-13.743751	13.133842	10.237399	3.509800	-1.709120	3.891300	-0.648680	-0.277587	0.698118	-1.000000	-1.000000	-1.000000	-1.000000	-1.000000	-1.000000	-1.000000	59.000000	0.000000	-1.000000	-1.000000	147988.000000	1775777020.104534
-24202.575000	-8369.955000	7452.675000	22550.040000	14731.020000	-2601.540000	-7308.090000	9328.590000	7.096100	6.960224	-1.185802	-9.766174	-16.325017	-5.585708	11.850558	7.464797	3.509800	-1.709120	3.891300	-0.648680	-0.277587	0.698118	-1.000000	-1.000000	-1.000000	-1.000000	-1.000000	-1.000000	-1.000000	59.000000	0.000000	-1.000000	-1.000000	147989.000000	1775777020.104545
-24199.740000	-8367.345000	7458.345000	22565.340000	14751.495000	-2588.850000	-7309.170000	9329.220000	3.517650	6.624134	7.883405	6.770781	7.648975	8.513320	6.771412	2.438762	3.509800	-1.709120	3.891300	-0.648680	-0.277587	0.698118	-1.000000	-1.000000	-1.000000	-1.000000	-1.000000	-1.000000	-1.000000	59.000000	0.000000	-1.000000	-1.000000	147990.000000	1775777020.117656
-24204.240000	-8370.000000	7456.680000	22568.085000	14761.530000	-2599.245000	-7313.265000	9325.125000	0.461393	5.545167	15.001467	21.715464	27.555976	17.692886	0.554284	-1.440190	3.509800	-1.709120	3.891300	-0.648680	-0.277587	0.698118	-1.000000	-1.000000	-1.000000	-1.000000	-1.000000	-1.000000	-1.000000	59.000000	0.000000	-1.000000	-1.000000	147991.000000	1775777020.117682
-24214.320000	-8379.270000	7447.635000	22556.160000	14756.535000	-2599.785000	-7314.030000	9317.565000	-1.486868	3.223039	15.269529	26.119505	32.809363	15.425537	-4.729405	-3.200125	1.846460	-0.412020	2.365300	-0.657103	-0.277221	0.696837	-1.000000	-1.000000	-1.000000	-1.000000	-1.000000	-1.000000	-1.000000	59.000000	0.000000	-1.000000	-1.000000	147992.000000	1775777020.117709
-24200.235000	-8369.190000	7446.195000	22545.495000	14737.680000	-2593.080000	-7297.290000	9333.405000	-2.751820	-0.472848	7.812975	17.095553	21.588252	3.776794	-7.318926	-3.232469	1.846460	-0.412020	2.365300	-0.657103	-0.277221	0.696837	-1.000000	-1.000000	-1.000000	-1.000000	-1.000000	-1.000000	-1.000000	59.000000	0.000000	-1.000000	-1.000000	147993.000000	1775777020.117721
-24172.470000	-8346.195000	7457.535000	22549.320000	14727.240000	-2604.960000	-7271.505000	9363.060000	-2.300227	-3.434381	-2.982261	-0.147377	0.108629	-9.544711	-5.670815	-1.073669	1.846460	-0.412020	2.365300	-0.657103	-0.277221	0.696837	-1.000000	-1.000000	-1.000000	-1.000000	-1.000000	-1.000000	-1.000000	59.000000	0.000000	-1.000000	-1.000000	147994.000000	1775777020.117734
-24204.780000	-8381.295000	7416.315000	22503.330000	14673.330000	-2667.645000	-7307.820000	9332.460000	0.441035	-3.801852	-11.478524	-16.553746	-21.628374	-18.887555	-0.871696	2.944423	1.846460	-0.412020	2.365300	-0.657103	-0.277221	0.696837	-1.000000	-1.000000	-1.000000	-1.000000	-1.000000	-1.000000	-1.000000	59.000000	0.000000	-1.000000	-1.000000	147995.000000	1775777020.117745
-24196.995000	-8372.430000	7427.790000	22514.490000	14696.145000	-2642.850000	-7300.305000	9340.110000	2.493703	-3.251763	-15.355822	-25.609341	-34.681194	-23.007645	2.273719	5.180564	1.846460	-0.412020	2.365300	-0.657103	-0.277221	0.696837	-1.000000	-1.000000	-1.000000	-1.000000	-1.000000	-1.000000	-1.000000	59.000000	0.000000	-1.000000	-1.000000	147996.000000	1775777020.117759
-24201.810000	-8374.275000	7439.310000	22535.730000	14728.905000	-2615.580000	-7306.830000	9332.280000	1.155620	-3.647626	-13.927650	-23.944540	-32.405010	-19.429046	0.776627	2.781331	1.846460	-0.412020	2.365300	-0.657103	-0.277221	0.696837	-1.000000	-1.000000	-1.000000	-1.000000	-1.000000	-1.000000	-1.000000	59.000000	0.000000	-1.000000	-1.000000	147997.000000	1775777020.117769
-24202.215000	-8368.875000	7457.310000	22558.005000	14744.655000	-2612.745000	-7315.290000	9326.385000	-2.138840	-3.777120	-6.427640	-10.965662	-13.673645	-5.797710	-3.161989	-2.521580	1.846460	-0.412020	2.365300	-0.657103	-0.277221	0.696837	-1.000000	-1.000000	-1.000000	-1.000000	-1.000000	-1.000000	-1.000000	59.000000	0.000000	-1.000000	-1.000000	147998.000000	1775777020.120873
-24203.385000	-8368.020000	7461.450000	22562.235000	14752.260000	-2600.865000	-7315.605000	9324.045000	-4.478122	-2.104150	4.878056	7.950702	12.367027	12.673271	-5.944006	-7.077891	1.846460	-0.412020	2.365300	-0.657103	-0.277221	0.696837	-1.000000	-1.000000	-1.000000	-1.000000	-1.000000	-1.000000	-1.000000	59.000000	0.000000	-1.000000	-1.000000	147999.000000	1775777020.120893
-24207.255000	-8376.030000	7447.455000	22543.920000	14724.045000	-2607.705000	-7321.005000	9323.190000	-4.432661	0.760096	13.887490	22.325681	30.596978	25.651807	-5.629902	-8.283094	1.846460	-0.412020	2.365300	-0.657103	-0.277221	0.696837	-1.000000	-1.000000	-1.000000	-1.000000	-1.000000	-1.000000	-1.000000	59.000000	0.000000	-1.000000	-1.000000	148000.000000	1775777020.124268
-24207.390000	-8377.965000	7440.885000	22543.740000	14726.520000	-2614.410000	-7319.205000	9324.495000	-2.390644	2.817002	14.905032	23.873671	31.015113	26.217273	-2.328450	-5.552423	1.846460	-0.412020	2.365300	-0.657103	-0.277221	0.696837	-1.000000	-1.000000	-1.000000	-1.000000	-1.000000	-1.000000	-1.000000	59.000000	0.000000	-1.000000	-1.000000	148001.000000	1775777020.124285
-24199.335000	-8373.690000	7438.905000	22546.260000	14739.345000	-2624.760000	-7306.065000	9334.215000	0.532144	3.001150	7.631615	13.215955	16.204791	14.873297	2.558723	-0.210930	-2.563680	1.556520	0.000000	-0.657469	-0.275634	0.696043	-1.000000	-1.000000	-1.000000	-1.000000	-1.000000	-1.000000	-1.000000	59.000000	0.000000	-1.000000	-1.000000	148002.000000	1775777020.129119
-24198.075000	-8376.435000	7424.505000	22518.540000	14703.480000	-2634.120000	-7303.860000	9336.420000	3.458775	2.097472	-2.818311	-1.937244	-2.724020	-1.771555	7.394542	5.491473	-2.563680	1.556520	0.000000	-0.657469	-0.275634	0.696043	-1.000000	-1.000000	-1.000000	-1.000000	-1.000000	-1.000000	-1.000000	59.000000	0.000000	-1.000000	-1.000000	148003.000000	1775777020.129146
-24195.690000	-8373.105000	7429.680000	22519.440000	14697.810000	-2628.315000	-7297.560000	9338.130000	5.456922	1.230725	-10.517193	-14.067113	-16.844531	-15.270406	10.304871	9.125207	-2.563680	1.556520	0.000000	-0.657469	-0.275634	0.696043	-1.000000	-1.000000	-1.000000	-1.000000	-1.000000	-1.000000	-1.000000	59.000000	0.000000	-1.000000	-1.000000	148004.000000	1775777020.133205
-24202.665000	-8377.335000	7432.650000	22523.850000	14698.575000	-2630.250000	-7303.095000	9328.815000	5.428152	0.732295	-11.946578	-18.675985	-22.397466	-19.763827	9.604027	8.846512	-2.563680	1.556520	0.000000	-0.657469	-0.275634	0.696043	-1.000000	-1.000000	-1.000000	-1.000000	-1.000000	-1.000000	-1.000000	59.000000	0.000000	-1.000000	-1.000000	148005.000000	1775777020.133227
-24212.610000	-8384.445000	7437.510000	22536.945000	14726.970000	-2616.660000	-7316.595000	9316.305000	2.799778	0.198664	-7.015659	-14.170973	-17.934875	-14.583027	4.812003	4.335830	-2.563680	1.556520	0.000000	-0.657469	-0.275634	0.696043	-1.000000	-1.000000	-1.000000	-1.000000	-1.000000	-1.000000	-1.000000	59.000000	0.000000	-1.000000	-1.000000	148006.000000	1775777020.137102
-24225.075000	-8395.965000	7433.595000	22539.465000	14751.855000	-2609.955000	-7334.370000	9302.805000	-1.807544	-1.006599	0.929218	-3.082347	-4.676501	-3.633098	-2.925545	-2.743946	-2.563680	1.556520	0.000000	-0.657469	-0.275634	0.696043	-1.000000	-1.000000	-1.000000	-1.000000	-1.000000	-1.000000	-1.000000	59.000000	0.000000	-1.000000	-1.000000	148007.000000	1775777020.137126
-24224.400000	-8393.715000	7436.475000	22543.920000	14752.935000	-2614.095000	-7340.175000	9301.995000	-6.303584	-2.707575	7.261612	8.546122	11.522216	7.128144	-10.672136	-9.040589	-2.563680	1.556520	0.000000	-0.657469	-0.275634	0.696043	-1.000000	-1.000000	-1.000000	-1.000000	-1.000000	-1.000000	-1.000000	59.000000	0.000000	-1.000000	-1.000000	148008.000000	1775777020.141037
-24220.170000	-8391.510000	7430.445000	22531.860000	14727.555000	-2624.760000	-7337.655000	9307.395000	-7.835327	-3.431509	9.104520	14.655098	21.289330	12.257231	-14.379370	-10.899442	-2.563680	1.556520	0.000000	-0.657469	-0.275634	0.696043	-1.000000	-1.000000	-1.000000	-1.000000	-1.000000	-1.000000	-1.000000	59.000000	0.000000	-1.000000	-1.000000	148009.000000	1775777020.141052
-24215.175000	-8393.850000	7416.630000	22508.730000	14694.750000	-2642.580000	-7324.470000	9317.430000	-4.850625	-1.943597	6.251944	12.264150	17.525668	9.487617	-11.185063	-6.680069	-2.563680	1.556520	0.000000	-0.657469	-0.275634	0.696043	-1.000000	-1.000000	-1.000000	-1.000000	-1.000000	-1.000000	-1.000000	59.000000	0.000000	-1.000000	-1.000000	148010.000000	1775777020.144879
-24214.680000	-8397.270000	7404.345000	22493.385000	14675.805000	-2653.470000	-7318.440000	9320.445000	1.215781	0.996749	0.321724	2.772836	1.690862	1.045936	-1.880740	1.650339	-2.563680	1.556520	0.000000	-0.657469	-0.275634	0.696043	-1.000000	-1.000000	-1.000000	-1.000000	-1.000000	-1.000000	-1.000000	59.000000	0.000000	-1.000000	-1.000000	148011.000000	1775777020.144895
-24209.460000	-8389.395000	7413.660000	22506.165000	14679.135000	-2656.305000	-7321.185000	9322.785000	6.877004	3.544369	-5.540192	-7.957370	-15.971015	-7.626761	8.721551	9.439194	-4.639040	4.364360	-0.824040	-0.651671	-0.273132	0.693907	-1.000000	-1.000000	-1.000000	-1.000000	-1.000000	-1.000000	-1.000000	59.000000	0.000000	-1.000000	-1.000000	148012.000000	1775777020.153700
-24212.340000	-8391.780000	7413.390000	22502.610000	14681.835000	-2666.295000	-7324.200000	9317.430000	9.183215	4.678537	-7.618013	-12.754248	-23.688479	-11.355026	14.639878	12.360271	-4.639040	4.364360	-0.824040	-0.651671	-0.273132	0.693907	-1.000000	-1.000000	-1.000000	-1.000000	-1.000000	-1.000000	-1.000000	59.000000	0.000000	-1.000000	-1.000000	148013.000000	1775777020.153725
-24207.885000	-8384.625000	7434.990000	22535.730000	14727.690000	-2643.120000	-7327.080000	9319.320000	7.356883	4.341425	-4.279110	-8.456742	-16.271480	-8.186639	12.977200	9.151845	-4.639040	4.364360	-0.824040	-0.651671	-0.273132	0.693907	-1.000000	-1.000000	-1.000000	-1.000000	-1.000000	-1.000000	-1.000000	59.000000	0.000000	-1.000000	-1.000000	148014.000000	1775777020.153799
-24210.540000	-8385.255000	7439.670000	22545.945000	14753.610000	-2607.975000	-7327.755000	9317.745000	2.774608	2.883702	2.700641	2.376313	2.659869	0.967469	5.617235	2.143156	-4.639040	4.364360	-0.824040	-0.651671	-0.273132	0.693907	-1.000000	-1.000000	-1.000000	-1.000000	-1.000000	-1.000000	-1.000000	59.000000	0.000000	-1.000000	-1.000000	148015.000000	1775777020.153814
-24214.770000	-8386.695000	7437.960000	22540.185000	14755.680000	-2592.090000	-7321.995000	9316.440000	-2.322399	0.746154	9.005226	13.059094	22.574909	12.829161	-2.710248	-4.744725	-4.639040	4.364360	-0.824040	-0.651671	-0.273132	0.693907	-1.000000	-1.000000	-1.000000	-1.000000	-1.000000	-1.000000	-1.000000	59.000000	0.000000	-1.000000	-1.000000	148016.000000	1775777020.160405
-24218.235000	-8391.960000	7429.005000	22528.395000	14728.995000	-2603.340000	-7323.480000	9312.480000	-6.178537	-1.770459	10.165537	16.175603	30.799172	20.888334	-7.781389	-8.670055	-4.639040	4.364360	-0.824040	-0.651671	-0.273132	0.693907	-1.000000	-1.000000	-1.000000	-1.000000	-1.000000	-1.000000	-1.000000	59.000000	0.000000	-1.000000	-1.000000	148017.000000	1775777020.160429
-24204.240000	-8376.795000	7435.485000	22531.770000	14723.865000	-2607.165000	-7308.810000	9326.970000	-7.504253	-3.896162	5.110114	9.277810	21.120573	18.568123	-8.044845	-8.642118	-4.639040	4.364360	-0.824040	-0.651671	-0.273132	0.693907	-1.000000	-1.000000	-1.000000	-1.000000	-1.000000	-1.000000	-1.000000	59.000000	0.000000	-1.000000	-1.000000	148018.000000	1775777020.163723
-24193.440000	-8369.190000	7431.435000	22518.225000	14710.410000	-2617.695000	-7296.570000	9340.380000	-5.317485	-4.097568	-2.744167	-3.006569	-0.686501	5.503158	-4.323766	-4.793651	-4.639040	4.364360	-0.824040	-0.651671	-0.273132	0.693907	-1.000000	-1.000000	-1.000000	-1.000000	-1.000000	-1.000000	-1.000000	59.000000	0.000000	-1.000000	-1.000000	148019.000000	1775777020.163748
-24188.805000	-8367.165000	7427.520000	22509.450000	14691.150000	-2637.990000	-7294.815000	9345.735000	-0.283061	-1.873394	-8.805419	-13.627575	-21.813732	-11.688631	1.010629	1.347370	-4.639040	4.364360	-0.824040	-0.651671	-0.273132	0.693907	-1.000000	-1.000000	-1.000000	-1.000000	-1.000000	-1.000000	-1.000000	59.000000	0.000000	-1.000000	-1.000000	148020.000000	1775777020.166045
-24194.070000	-8369.370000	7430.130000	22521.375000	14702.805000	-2640.780000	-7303.230000	9337.770000	4.521744	0.919386	-10.641625	-17.699277	-31.738347	-24.548208	4.486786	6.322381	-4.639040	4.364360	-0.824040	-0.651671	-0.273132	0.693907	-1.000000	-1.000000	-1.000000	-1.000000	-1.000000	-1.000000	-1.000000	59.000000	0.000000	-1.000000	-1.000000	148021.000000	1775777020.166062
-24206.220000	-8379.090000	7432.155000	22532.490000	14717.565000	-2625.525000	-7314.075000	9321.660000	5.570854	1.717624	-8.190763	-13.452109	-26.478335	-26.911525	3.423586	6.491688	-3.296160	4.990020	-0.518840	-0.643126	-0.274230	0.692747	-1.000000	-1.000000	-1.000000	-1.000000	-1.000000	-1.000000	-1.000000	59.000000	0.000000	-1.000000	-1.000000	148022.000000	1775777020.168935
-24205.140000	-8376.795000	7444.575000	22553.820000	14739.525000	-2602.305000	-7313.085000	9321.165000	1.996518	-0.232415	-2.800529	-2.656212	-9.036663	-16.992648	-1.570959	1.309299	-3.296160	4.990020	-0.518840	-0.643126	-0.274230	0.692747	-1.000000	-1.000000	-1.000000	-1.000000	-1.000000	-1.000000	-1.000000	59.000000	0.000000	-1.000000	-1.000000	148023.000000	1775777020.168954
-24207.480000	-8379.180000	7456.095000	22569.660000	14757.480000	-2603.970000	-7322.805000	9317.880000	-3.375757	-3.152218	3.539348	9.743433	12.005401	0.750107	-6.821604	-5.512593	-3.296160	4.990020	-0.518840	-0.643126	-0.274230	0.692747	-1.000000	-1.000000	-1.000000	-1.000000	-1.000000	-1.000000	-1.000000	59.000000	0.000000	-1.000000	-1.000000	148024.000000	1775777020.176734
-24215.130000	-8386.155000	7444.305000	22554.315000	14756.985000	-2608.875000	-7332.030000	9310.860000	-6.725495	-4.659705	8.283399	17.513321	26.602204	16.728465	-8.963018	-9.217425	-3.296160	4.990020	-0.518840	-0.643126	-0.274230	0.692747	-1.000000	-1.000000	-1.000000	-1.000000	-1.000000	-1.000000	-1.000000	59.000000	0.000000	-1.000000	-1.000000	148025.000000	1775777020.176756
-24201.045000	-8367.345000	7438.230000	22532.130000	14745.285000	-2601.945000	-7311.150000	9327.645000	-6.200182	-3.609259	8.634482	15.628752	27.926683	22.669037	-6.808229	-7.634000	-3.296160	4.990020	-0.518840	-0.643126	-0.274230	0.692747	-1.000000	-1.000000	-1.000000	-1.000000	-1.000000	-1.000000	-1.000000	59.000000	0.000000	-1.000000	-1.000000	148026.000000	1775777020.193281
-24198.840000	-8375.040000	7421.805000	22509.135000	14709.060000	-2604.690000	-7300.080000	9333.720000	-2.045258	-0.141718	3.742405	3.853818	15.308357	17.537026	-0.512652	-1.442697	-3.296160	4.990020	-0.518840	-0.643126	-0.274230	0.692747	-1.000000	-1.000000	-1.000000	-1.000000	-1.000000	-1.000000	-1.000000	59.000000	0.000000	-1.000000	-1.000000	148027.000000	1775777020.193307
-24203.970000	-8385.390000	7409.970000	22492.980000	14670.585000	-2640.060000	-7306.650000	9330.210000	3.541999	3.704705	-3.941272	-11.672713	-5.727028	5.734188	7.566649	6.217731	-3.296160	4.990020	-0.518840	-0.643126	-0.274230	0.692747	-1.000000	-1.000000	-1.000000	-1.000000	-1.000000	-1.000000	-1.000000	59.000000	0.000000	-1.000000	-1.000000	148028.000000	1775777020.193336
-24199.290000	-8383.860000	7410.735000	22499.055000	14678.280000	-2643.300000	-7303.995000	9334.170000	7.200885	5.031162	-10.037478	-21.812344	-25.110558	-7.534347	12.651783	10.899729	-3.296160	4.990020	-0.518840	-0.643126	-0.274230	0.692747	-1.000000	-1.000000	-1.000000	-1.000000	-1.000000	-1.000000	-1.000000	59.000000	0.000000	-1.000000	-1.000000	148029.000000	1775777020.193348
-24201.315000	-8382.195000	7421.670000	22516.020000	14712.480000	-2630.070000	-7311.330000	9327.645000	7.134149	3.425185	-10.547691	-19.979638	-31.368786	-16.538854	11.438605	10.072214	-3.296160	4.990020	-0.518840	-0.643126	-0.274230	0.692747	-1.000000	-1.000000	-1.000000	-1.000000	-1.000000	-1.000000	-1.000000	59.000000	0.000000	-1.000000	-1.000000	148030.000000	1775777020.193362
-24200.865000	-8375.940000	7439.130000	22538.970000	14732.595000	-2616.570000	-7315.425000	9325.755000	4.106473	1.115501	-4.225025	-6.221012	-18.964050	-16.056700	4.816961	4.642077	-3.296160	4.990020	-0.518840	-0.643126	-0.274230	0.692747	-1.000000	-1.000000	-1.000000	-1.000000	-1.000000	-1.000000	-1.000000	59.000000	0.000000	-1.000000	-1.000000	148031.000000	1775777020.193372
-24203.115000	-8370.810000	7453.710000	22554.495000	14726.115000	-2611.170000	-7321.635000	9319.995000	0.038815	0.159358	6.173213	12.476882	5.033718	-6.161748	-3.479514	-2.335009	0.091560	2.594200	1.159760	-0.640868	-0.276183	0.692991	-1.000000	-1.000000	-1.000000	-1.000000	-1.000000	-1.000000	-1.000000	59.000000	0.000000	-1.000000	-1.000000	148032.000000	1775777020.193386
-24197.220000	-8365.185000	7461.315000	22564.710000	14743.665000	-2602.305000	-7318.890000	9323.685000	-3.161283	0.826698	15.122921	26.223783	25.441852	6.809952	-9.345499	-7.476680	0.091560	2.594200	1.159760	-0.640868	-0.276183	0.692991	-1.000000	-1.000000	-1.000000	-1.000000	-1.000000	-1.000000	-1.000000	59.000000	0.000000	-1.000000	-1.000000	148033.000000	1775777020.193396
-24189.165000	-8360.055000	7462.305000	22567.185000	14769.180000	-2598.165000	-7308.495000	9333.765000	-4.105273	1.976068	17.487834	28.017246	31.885838	15.360035	-10.092882	-8.433823	0.091560	2.594200	1.159760	-0.640868	-0.276183	0.692991	-1.000000	-1.000000	-1.000000	-1.000000	-1.000000	-1.000000	-1.000000	59.000000	0.000000	-1.000000	-1.000000	148034.000000	1775777020.193452
-24192.090000	-8370.225000	7436.790000	22528.035000	14703.660000	-2634.840000	-7312.545000	9334.170000	-2.677181	2.052918	11.204129	16.717721	23.414891	15.050591	-5.757053	-4.992424	0.091560	2.594200	1.159760	-0.640868	-0.276183	0.692991	-1.000000	-1.000000	-1.000000	-1.000000	-1.000000	-1.000000	-1.000000	59.000000	0.000000	-1.000000	-1.000000	148035.000000	1775777020.193466
-24190.245000	-8371.845000	7424.010000	22507.920000	14678.820000	-2647.890000	-7305.165000	9337.815000	-0.419176	0.024264	-1.778070	-3.462813	3.495676	5.587936	0.711384	0.474878	0.091560	2.594200	1.159760	-0.640868	-0.276183	0.692991	-1.000000	-1.000000	-1.000000	-1.000000	-1.000000	-1.000000	-1.000000	59.000000	0.000000	-1.000000	-1.000000	148036.000000	1775777020.198120
-24188.580000	-8369.730000	7423.020000	22507.155000	14700.780000	-2638.440000	-7295.085000	9342.270000	0.900871	-3.376557	-15.451438	-23.550663	-19.423998	-7.728824	5.844647	4.703910	0.091560	2.594200	1.159760	-0.640868	-0.276183	0.692991	-1.000000	-1.000000	-1.000000	-1.000000	-1.000000	-1.000000	-1.000000	59.000000	0.000000	-1.000000	-1.000000	148037.000000	1775777020.198158
-24201.315000	-8379.720000	7422.345000	22516.155000	14709.780000	-2612.790000	-7300.755000	9330.345000	0.600514	-5.976449	-22.312558	-32.794728	-31.773200	-15.518961	7.831713	5.669792	0.091560	2.594200	1.159760	-0.640868	-0.276183	0.692991	-1.000000	-1.000000	-1.000000	-1.000000	-1.000000	-1.000000	-1.000000	59.000000	0.000000	-1.000000	-1.000000	148038.000000	1775777020.200920
-24195.645000	-8371.080000	7442.145000	22541.085000	14728.770000	-2609.100000	-7304.670000	9331.155000	-1.006214	-6.206565	-18.330392	-25.610325	-25.680947	-11.997103	6.122480	3.125630	0.091560	2.594200	1.159760	-0.640868	-0.276183	0.692991	-1.000000	-1.000000	-1.000000	-1.000000	-1.000000	-1.000000	-1.000000	59.000000	0.000000	-1.000000	-1.000000	148039.000000	1775777020.200937
-24212.385000	-8385.480000	7436.880000	22545.540000	14757.165000	-2592.630000	-7315.245000	9317.115000	-2.835383	-4.042686	-5.694175	-5.927195	-5.828325	-0.345708	1.265374	-1.426229	0.091560	2.594200	1.159760	-0.640868	-0.276183	0.692991	-1.000000	-1.000000	-1.000000	-1.000000	-1.000000	-1.000000	-1.000000	59.000000	0.000000	-1.000000	-1.000000	148040.000000	1775777020.209417
-24217.470000	-8389.845000	7434.135000	22546.305000	14760.630000	-2592.495000	-7321.815000	9312.120000	-3.912765	-0.934078	8.341202	15.056503	15.747118	10.939289	-4.679350	-5.597393	0.091560	2.594200	1.159760	-0.640868	-0.276183	0.692991	-1.000000	-1.000000	-1.000000	-1.000000	-1.000000	-1.000000	-1.000000	59.000000	0.000000	-1.000000	-1.000000	148041.000000	1775777020.209443
-24211.890000	-8385.525000	7433.370000	22541.130000	14743.755000	-2616.030000	-7323.615000	9317.925000	-3.630620	1.537412	16.279052	26.145760	27.124395	14.576763	-8.829982	-7.208653	1.220800	0.427280	2.060100	-0.649412	-0.276122	0.691771	-1.000000	-1.000000	-1.000000	-1.000000	-1.000000	-1.000000	-1.000000	59.000000	0.000000	-1.000000	-1.000000	148042.000000	1775777020.209469
-24201.090000	-8382.780000	7423.380000	22521.330000	14723.505000	-2619.585000	-7316.550000	9329.040000	-1.120388	3.299673	15.379000	22.897822	22.285284	8.315396	-8.830138	-4.798002	1.220800	0.427280	2.060100	-0.649412	-0.276122	0.691771	-1.000000	-1.000000	-1.000000	-1.000000	-1.000000	-1.000000	-1.000000	59.000000	0.000000	-1.000000	-1.000000	148043.000000	1775777020.209481
-24201.765000	-8388.630000	7407.000000	22497.435000	14702.805000	-2622.375000	-7309.665000	9329.805000	3.475178	4.702189	7.773657	8.597318	4.603405	-3.487211	-4.204644	1.063198	1.220800	0.427280	2.060100	-0.649412	-0.276122	0.691771	-1.000000	-1.000000	-1.000000	-1.000000	-1.000000	-1.000000	-1.000000	59.000000	0.000000	-1.000000	-1.000000	148044.000000	1775777020.213145
-24208.515000	-8395.155000	7396.920000	22483.395000	14677.470000	-2633.715000	-7308.045000	9325.035000	7.608105	5.000603	-2.181841	-8.780184	-15.611213	-13.084815	2.900320	7.019336	1.220800	0.427280	2.060100	-0.649412	-0.276122	0.691771	-1.000000	-1.000000	-1.000000	-1.000000	-1.000000	-1.000000	-1.000000	59.000000	0.000000	-1.000000	-1.000000	148045.000000	1775777020.213170
-24217.740000	-8401.680000	7393.095000	22477.770000	14664.645000	-2648.295000	-7322.085000	9314.010000	8.051277	3.335166	-9.731126	-20.441414	-27.939566	-15.769950	8.409353	9.044482	1.220800	0.427280	2.060100	-0.649412	-0.276122	0.691771	-1.000000	-1.000000	-1.000000	-1.000000	-1.000000	-1.000000	-1.000000	59.000000	0.000000	-1.000000	-1.000000	148046.000000	1775777020.216865
-24221.790000	-8401.050000	7405.110000	22502.655000	14699.655000	-2641.410000	-7334.190000	9306.360000	4.039090	0.305761	-11.223920	-20.515700	-26.312660	-11.711957	8.725518	5.682419	1.220800	0.427280	2.060100	-0.649412	-0.276122	0.691771	-1.000000	-1.000000	-1.000000	-1.000000	-1.000000	-1.000000	-1.000000	59.000000	0.000000	-1.000000	-1.000000	148047.000000	1775777020.216884
-24219.045000	-8393.265000	7425.855000	22536.180000	14735.970000	-2620.215000	-7331.940000	9309.015000	-1.796444	-2.066057	-5.626849	-8.394457	-10.132663	-2.937906	3.826950	-0.674948	1.220800	0.427280	2.060100	-0.649412	-0.276122	0.691771	-1.000000	-1.000000	-1.000000	-1.000000	-1.000000	-1.000000	-1.000000	59.000000	0.000000	-1.000000	-1.000000	148048.000000	1775777020.221100
-24217.155000	-8390.340000	7431.345000	22539.015000	14739.075000	-2618.145000	-7330.680000	9312.120000	-5.610641	-2.035368	4.396270	10.087774	13.778698	7.900828	-2.271101	-5.580383	1.220800	0.427280	2.060100	-0.649412	-0.276122	0.691771	-1.000000	-1.000000	-1.000000	-1.000000	-1.000000	-1.000000	-1.000000	59.000000	0.000000	-1.000000	-1.000000	148049.000000	1775777020.221118
-24221.340000	-8392.905000	7428.735000	22536.360000	14737.095000	-2623.770000	-7340.490000	9304.335000	-5.539784	0.027693	12.915810	24.163852	32.140681	16.240810	-5.405732	-6.250127	1.220800	0.427280	2.060100	-0.649412	-0.276122	0.691771	-1.000000	-1.000000	-1.000000	-1.000000	-1.000000	-1.000000	-1.000000	59.000000	0.000000	-1.000000	-1.000000	148050.000000	1775777020.224245
-24214.410000	-8385.345000	7428.420000	22532.310000	14728.365000	-2620.170000	-7334.190000	9308.655000	-2.627384	2.085858	14.390344	25.080380	33.971372	17.493242	-4.673775	-3.448260	1.220800	0.427280	2.060100	-0.649412	-0.276122	0.691771	-1.000000	-1.000000	-1.000000	-1.000000	-1.000000	-1.000000	-1.000000	59.000000	0.000000	-1.000000	-1.000000	148051.000000	1775777020.224267
-24217.110000	-8388.180000	7415.955000	22509.315000	14697.675000	-2634.795000	-7332.165000	9306.675000	0.925760	2.623400	7.810596	12.459953	18.469877	10.998558	-1.460342	0.359145	0.396760	-2.060100	1.526000	-0.660032	-0.274047	0.693419	-1.000000	-1.000000	-1.000000	-1.000000	-1.000000	-1.000000	-1.000000	59.000000	0.000000	-1.000000	-1.000000	148052.000000	1775777020.228930
-24210.810000	-8382.690000	7415.775000	22504.410000	14685.030000	-2647.620000	-7325.730000	9314.775000	3.372131	1.516267	-3.028325	-6.503837	-5.799570	0.057789	2.459722	3.328460	0.396760	-2.060100	1.526000	-0.660032	-0.274047	0.693419	-1.000000	-1.000000	-1.000000	-1.000000	-1.000000	-1.000000	-1.000000	59.000000	0.000000	-1.000000	-1.000000	148053.000000	1775777020.228954
-24206.130000	-8383.050000	7415.280000	22504.770000	14669.910000	-2665.035000	-7320.645000	9322.245000	4.051338	-0.444352	-12.234057	-21.786969	-26.524872	-10.676093	5.425206	4.868468	0.396760	-2.060100	1.526000	-0.660032	-0.274047	0.693419	-1.000000	-1.000000	-1.000000	-1.000000	-1.000000	-1.000000	-1.000000	59.000000	0.000000	-1.000000	-1.000000	148054.000000	1775777020.232152
-24220.395000	-8402.265000	7399.215000	22495.365000	14669.415000	-2665.215000	-7329.555000	9309.735000	3.001836	-2.601470	-15.574104	-26.100971	-34.068363	-16.883249	6.051471	4.810071	0.396760	-2.060100	1.526000	-0.660032	-0.274047	0.693419	-1.000000	-1.000000	-1.000000	-1.000000	-1.000000	-1.000000	-1.000000	59.000000	0.000000	-1.000000	-1.000000	148055.000000	1775777020.232170
-24228.180000	-8409.735000	7402.230000	22507.335000	14699.430000	-2645.865000	-7341.255000	9299.655000	0.129891	-5.030005	-12.826448	-18.806892	-25.601382	-15.476879	3.431949	2.463521	0.396760	-2.060100	1.526000	-0.660032	-0.274047	0.693419	-1.000000	-1.000000	-1.000000	-1.000000	-1.000000	-1.000000	-1.000000	59.000000	0.000000	-1.000000	-1.000000	148056.000000	1775777020.236846
-24234.795000	-8413.245000	7406.955000	22519.620000	14717.160000	-2642.265000	-7352.460000	9292.815000	-3.917578	-7.109627	-6.131469	-4.528675	-5.259975	-6.279236	-1.969774	-2.111450	0.396760	-2.060100	1.526000	-0.660032	-0.274047	0.693419	-1.000000	-1.000000	-1.000000	-1.000000	-1.000000	-1.000000	-1.000000	59.000000	0.000000	-1.000000	-1.000000	148057.000000	1775777020.236868
-24240.690000	-8418.555000	7403.445000	22513.770000	14719.905000	-2635.965000	-7356.825000	9288.585000	-7.032325	-7.031252	1.980815	10.105292	17.178677	6.291856	-7.610041	-6.698788	0.396760	-2.060100	1.526000	-0.660032	-0.274047	0.693419	-1.000000	-1.000000	-1.000000	-1.000000	-1.000000	-1.000000	-1.000000	59.000000	0.000000	-1.000000	-1.000000	148058.000000	1775777020.240911
-24236.415000	-8419.680000	7393.545000	22496.760000	14705.730000	-2628.675000	-7346.790000	9295.785000	-7.086828	-3.869227	8.384583	18.353590	30.084400	15.515943	-9.921628	-8.256252	0.396760	-2.060100	1.526000	-0.660032	-0.274047	0.693419	-1.000000	-1.000000	-1.000000	-1.000000	-1.000000	-1.000000	-1.000000	59.000000	0.000000	-1.000000	-1.000000	148059.000000	1775777020.240934
-24233.130000	-8416.890000	7387.110000	22484.610000	14679.450000	-2641.230000	-7339.410000	9301.185000	-3.462011	1.368417	10.331671	16.478488	26.677627	16.946005	-6.693695	-5.248513	0.396760	-2.060100	1.526000	-0.660032	-0.274047	0.693419	-1.000000	-1.000000	-1.000000	-1.000000	-1.000000	-1.000000	-1.000000	59.000000	0.000000	-1.000000	-1.000000	148060.000000	1775777020.246327
-24227.055000	-8410.410000	7388.325000	22480.335000	14664.105000	-2654.055000	-7332.390000	9306.270000	2.459461	6.724078	7.739582	6.784451	9.458521	10.140001	0.843617	1.043670	0.396760	-2.060100	1.526000	-0.660032	-0.274047	0.693419	-1.000000	-1.000000	-1.000000	-1.000000	-1.000000	-1.000000	-1.000000	59.000000	0.000000	-1.000000	-1.000000	148061.000000	1775777020.246351
-24224.445000	-8407.755000	7386.840000	22475.610000	14664.510000	-2660.220000	-7331.670000	9307.215000	7.889995	10.303266	3.271228	-3.968654	-11.118659	-1.509069	8.417394	7.140089	-0.747740	-1.663340	-0.564620	-0.662413	-0.273437	0.695555	-1.000000	-1.000000	-1.000000	-1.000000	-1.000000	-1.000000	-1.000000	59.000000	0.000000	-1.000000	-1.000000	148062.000000	1775777020.249436
-24217.695000	-8397.540000	7405.155000	22496.805000	14684.400000	-2652.030000	-7328.925000	9310.095000	10.289964	10.887874	0.127830	-9.354052	-22.943974	-11.785845	11.740280	9.743273	-0.747740	-1.663340	-0.564620	-0.662413	-0.273437	0.695555	-1.000000	-1.000000	-1.000000	-1.000000	-1.000000	-1.000000	-1.000000	59.000000	0.000000	-1.000000	-1.000000	148063.000000	1775777020.249460
-24227.415000	-8391.600000	7438.095000	22540.680000	14714.235000	-2651.535000	-7347.060000	9294.345000	8.598844	8.484918	0.517576	-6.178366	-19.589093	-15.133041	9.052332	7.557477	-0.747740	-1.663340	-0.564620	-0.662413	-0.273437	0.695555	-1.000000	-1.000000	-1.000000	-1.000000	-1.000000	-1.000000	-1.000000	59.000000	0.000000	-1.000000	-1.000000	148064.000000	1775777020.252957
-24240.060000	-8402.625000	7431.660000	22542.570000	14731.875000	-2637.315000	-7355.295000	9283.410000	3.150990	3.837261	4.080992	3.833221	-4.027930	-10.401340	1.499790	1.369177	-0.747740	-1.663340	-0.564620	-0.662413	-0.273437	0.695555	-1.000000	-1.000000	-1.000000	-1.000000	-1.000000	-1.000000	-1.000000	59.000000	0.000000	-1.000000	-1.000000	148065.000000	1775777020.252978
-24233.625000	-8410.320000	7401.195000	22506.480000	14724.585000	-2613.915000	-7337.835000	9295.515000	-4.064517	-2.405445	6.125490	12.582286	13.158359	-0.666379	-6.848760	-5.785669	-0.747740	-1.663340	-0.564620	-0.662413	-0.273437	0.695555	-1.000000	-1.000000	-1.000000	-1.000000	-1.000000	-1.000000	-1.000000	59.000000	0.000000	-1.000000	-1.000000	148066.000000	1775777020.264414
-24220.980000	-8395.830000	7412.580000	22512.105000	14724.045000	-2619.585000	-7331.895000	9304.560000	-9.080458	-8.526464	1.802492	11.193734	20.754631	9.089411	-10.538161	-9.284860	-0.747740	-1.663340	-0.564620	-0.662413	-0.273437	0.695555	-1.000000	-1.000000	-1.000000	-1.000000	-1.000000	-1.000000	-1.000000	59.000000	0.000000	-1.000000	-1.000000	148067.000000	1775777020.264440
-24219.720000	-8398.350000	7404.165000	22499.955000	14701.545000	-2634.030000	-7329.015000	9308.925000	-8.664659	-11.352256	-7.006047	-0.219502	14.564614	13.337455	-7.413342	-6.669299	-0.747740	-1.663340	-0.564620	-0.662413	-0.273437	0.695555	-1.000000	-1.000000	-1.000000	-1.000000	-1.000000	-1.000000	-1.000000	59.000000	0.000000	-1.000000	-1.000000	148068.000000	1775777020.264465
-24208.515000	-8395.560000	7391.160000	22478.085000	14682.285000	-2634.120000	-7316.820000	9320.445000	-3.554188	-9.348212	-13.956598	-13.426669	-1.052338	9.125335	-0.475848	-0.080170	-0.747740	-1.663340	-0.564620	-0.662413	-0.273437	0.695555	-1.000000	-1.000000	-1.000000	-1.000000	-1.000000	-1.000000	-1.000000	59.000000	0.000000	-1.000000	-1.000000	148069.000000	1775777020.264477
-24214.455000	-8403.120000	7377.660000	22464.180000	14664.465000	-2651.805000	-7324.470000	9309.330000	2.428695	-4.420134	-15.399943	-20.991885	-17.276692	-0.862164	5.474901	5.844829	-0.747740	-1.663340	-0.564620	-0.662413	-0.273437	0.695555	-1.000000	-1.000000	-1.000000	-1.000000	-1.000000	-1.000000	-1.000000	59.000000	0.000000	-1.000000	-1.000000	148070.000000	1775777020.264491
-24214.455000	-8404.155000	7377.840000	22463.685000	14656.950000	-2660.715000	-7327.755000	9308.295000	5.486788	0.205752	-11.534871	-19.898436	-25.759242	-10.690541	7.008684	7.262713	-0.747740	-1.663340	-0.564620	-0.662413	-0.273437	0.695555	-1.000000	-1.000000	-1.000000	-1.000000	-1.000000	-1.000000	-1.000000	59.000000	0.000000	-1.000000	-1.000000	148071.000000	1775777020.264501
-24210.855000	-8394.300000	7398.585000	22485.780000	14668.785000	-2652.795000	-7328.340000	9308.790000	4.350889	2.865897	-3.628002	-10.306938	-22.224339	-15.226244	3.686601	3.676968	-2.670500	-0.518840	-0.549360	-0.652708	-0.274047	0.697203	-1.000000	-1.000000	-1.000000	-1.000000	-1.000000	-1.000000	-1.000000	59.000000	0.000000	-1.000000	-1.000000	148072.000000	1775777020.287691
-24217.965000	-8397.090000	7409.880000	22502.115000	14675.985000	-2659.230000	-7343.505000	9300.690000	0.671083	4.020603	6.751162	4.933950	-8.048820	-12.183471	-1.995062	-1.992287	-2.670500	-0.518840	-0.549360	-0.652708	-0.274047	0.697203	-1.000000	-1.000000	-1.000000	-1.000000	-1.000000	-1.000000	-1.000000	59.000000	0.000000	-1.000000	-1.000000	148073.000000	1775777020.287719
-24223.545000	-8397.945000	7421.580000	22525.785000	14713.785000	-2638.215000	-7345.215000	9300.600000	-3.165345	4.283399	16.341991	20.168139	10.727465	-3.147568	-6.873710	-6.312699	-2.670500	-0.518840	-0.549360	-0.652708	-0.274047	0.697203	-1.000000	-1.000000	-1.000000	-1.000000	-1.000000	-1.000000	-1.000000	59.000000	0.000000	-1.000000	-1.000000	148074.000000	1775777020.287746
-24228.180000	-8402.085000	7417.755000	22527.360000	14731.830000	-2637.180000	-7351.470000	9292.770000	-5.625670	3.427759	20.560239	28.658496	26.608550	7.592137	-8.701833	-7.500527	-2.670500	-0.518840	-0.549360	-0.652708	-0.274047	0.697203	-1.000000	-1.000000	-1.000000	-1.000000	-1.000000	-1.000000	-1.000000	59.000000	0.000000	-1.000000	-1.000000	148075.000000	1775777020.287758
-24214.365000	-8394.210000	7410.600000	22509.630000	14709.690000	-2650.230000	-7342.245000	9304.695000	-5.609468	1.607523	16.437321	25.593338	32.664513	14.873542	-6.486226	-5.406757	-2.670500	-0.518840	-0.549360	-0.652708	-0.274047	0.697203	-1.000000	-1.000000	-1.000000	-1.000000	-1.000000	-1.000000	-1.000000	59.000000	0.000000	-1.000000	-1.000000	148076.000000	1775777020.287772
-24208.155000	-8393.940000	7398.945000	22490.730000	14689.035000	-2639.970000	-7330.320000	9312.975000	-2.412250	-0.067059	5.056048	10.812924	24.244070	14.945156	-0.703479	-0.738656	-2.670500	-0.518840	-0.549360	-0.652708	-0.274047	0.697203	-1.000000	-1.000000	-1.000000	-1.000000	-1.000000	-1.000000	-1.000000	59.000000	0.000000	-1.000000	-1.000000	148077.000000	1775777020.287782
-24213.150000	-8399.475000	7390.035000	22478.535000	14663.700000	-2643.795000	-7332.300000	9309.105000	2.739726	-0.853796	-8.614588	-9.669024	3.398054	8.592192	6.410247	4.765946	-2.670500	-0.518840	-0.549360	-0.652708	-0.274047	0.697203	-1.000000	-1.000000	-1.000000	-1.000000	-1.000000	-1.000000	-1.000000	59.000000	0.000000	-1.000000	-1.000000	148078.000000	1775777020.287796
-24211.395000	-8395.965000	7390.620000	22477.095000	14655.690000	-2663.595000	-7330.995000	9312.885000	6.581472	-1.135387	-18.294466	-25.943228	-19.891525	-0.225179	11.172369	8.242106	-2.670500	-0.518840	-0.549360	-0.652708	-0.274047	0.697203	-1.000000	-1.000000	-1.000000	-1.000000	-1.000000	-1.000000	-1.000000	59.000000	0.000000	-1.000000	-1.000000	148079.000000	1775777020.287806
-24225.120000	-8407.485000	7386.300000	22481.280000	14685.480000	-2656.800000	-7334.100000	9305.595000	6.525949	-1.473384	-19.773098	-30.025829	-32.993634	-7.970140	10.809111	7.684067	-2.670500	-0.518840	-0.549360	-0.652708	-0.274047	0.697203	-1.000000	-1.000000	-1.000000	-1.000000	-1.000000	-1.000000	-1.000000	59.000000	0.000000	-1.000000	-1.000000	148080.000000	1775777020.287838
-24242.400000	-8420.445000	7384.410000	22487.085000	14705.820000	-2642.670000	-7342.965000	9287.685000	2.365700	-2.261604	-13.252501	-20.649537	-28.213806	-11.511056	5.524077	3.213458	-2.670500	-0.518840	-0.549360	-0.652708	-0.274047	0.697203	-1.000000	-1.000000	-1.000000	-1.000000	-1.000000	-1.000000	-1.000000	59.000000	0.000000	-1.000000	-1.000000	148081.000000	1775777020.287865
-24245.595000	-8416.395000	7404.975000	22513.725000	14726.745000	-2635.290000	-7357.050000	9278.820000	-3.809686	-3.371702	-2.376772	-3.115021	-8.471775	-8.768661	-2.198398	-3.411086	-3.815000	1.800680	0.885080	-0.641417	-0.275512	0.697264	-1.000000	-1.000000	-1.000000	-1.000000	-1.000000	-1.000000	-1.000000	59.000000	0.000000	-1.000000	-1.000000	148082.000000	1775777020.295812
-24234.255000	-8411.490000	7408.710000	22518.945000	14725.530000	-2636.235000	-7351.245000	9288.225000	-7.977904	-3.319379	8.638716	14.531278	14.056927	-1.561438	-8.916575	-8.794420	-3.815000	1.800680	0.885080	-0.641417	-0.275512	0.697264	-1.000000	-1.000000	-1.000000	-1.000000	-1.000000	-1.000000	-1.000000	59.000000	0.000000	-1.000000	-1.000000	148083.000000	1775777020.295836
-24215.670000	-8397.000000	7409.115000	22506.570000	14693.445000	-2648.340000	-7334.865000	9304.245000	-6.382333	-0.530088	15.865364	24.539008	25.849300	4.888092	-10.956921	-8.967082	-3.815000	1.800680	0.885080	-0.641417	-0.275512	0.697264	-1.000000	-1.000000	-1.000000	-1.000000	-1.000000	-1.000000	-1.000000	59.000000	0.000000	-1.000000	-1.000000	148084.000000	1775777020.295944
-24219.000000	-8400.240000	7396.380000	22485.330000	14669.415000	-2663.775000	-7336.935000	9303.930000	0.763203	4.311530	16.115452	22.029399	20.273190	6.057469	-6.718920	-2.957409	-3.815000	1.800680	0.885080	-0.641417	-0.275512	0.697264	-1.000000	-1.000000	-1.000000	-1.000000	-1.000000	-1.000000	-1.000000	59.000000	0.000000	-1.000000	-1.000000	148085.000000	1775777020.295959
-24215.490000	-8402.220000	7384.050000	22471.740000	14669.685000	-2647.170000	-7327.215000	9307.530000	8.490539	8.033252	8.951465	8.362295	2.187496	2.026902	1.081781	5.320139	-3.815000	1.800680	0.885080	-0.641417	-0.275512	0.697264	-1.000000	-1.000000	-1.000000	-1.000000	-1.000000	-1.000000	-1.000000	59.000000	0.000000	-1.000000	-1.000000	148086.000000	1775777020.296929
-24209.955000	-8397.810000	7387.110000	22473.900000	14667.930000	-2633.760000	-7316.235000	9315.720000	11.502144	7.787871	-2.012178	-8.464889	-15.345886	-2.317971	7.726643	10.503905	-3.815000	1.800680	0.885080	-0.641417	-0.275512	0.697264	-1.000000	-1.000000	-1.000000	-1.000000	-1.000000	-1.000000	-1.000000	59.000000	0.000000	-1.000000	-1.000000	148087.000000	1775777020.296945
-24215.805000	-8402.130000	7390.575000	22488.570000	14690.295000	-2627.820000	-7319.340000	9313.380000	8.447861	3.748055	-10.618277	-18.496287	-21.050213	-2.423832	10.164641	10.167920	-3.815000	1.800680	0.885080	-0.641417	-0.275512	0.697264	-1.000000	-1.000000	-1.000000	-1.000000	-1.000000	-1.000000	-1.000000	59.000000	0.000000	-1.000000	-1.000000	148088.000000	1775777020.300679
-24220.575000	-8402.355000	7402.185000	22509.900000	14716.845000	-2624.940000	-7331.580000	9305.505000	1.424267	-1.677523	-12.229856	-16.238154	-12.345490	1.190131	7.425573	5.081088	-3.815000	1.800680	0.885080	-0.641417	-0.275512	0.697264	-1.000000	-1.000000	-1.000000	-1.000000	-1.000000	-1.000000	-1.000000	59.000000	0.000000	-1.000000	-1.000000	148089.000000	1775777020.300702
-24214.770000	-8396.955000	7414.830000	22522.095000	14727.330000	-2632.905000	-7345.530000	9297.405000	-5.999052	-5.835111	-6.708156	-4.028564	4.623481	4.362855	0.302205	-2.412085	-3.815000	1.800680	0.885080	-0.641417	-0.275512	0.697264	-1.000000	-1.000000	-1.000000	-1.000000	-1.000000	-1.000000	-1.000000	59.000000	0.000000	-1.000000	-1.000000	148090.000000	1775777020.304945
-24225.615000	-8407.080000	7408.665000	22515.570000	14721.075000	-2651.265000	-7354.890000	9289.530000	-10.399732	-7.141244	1.855984	9.652582	18.934650	3.486101	-8.186939	-9.237212	-3.815000	1.800680	0.885080	-0.641417	-0.275512	0.697264	-1.000000	-1.000000	-1.000000	-1.000000	-1.000000	-1.000000	-1.000000	59.000000	0.000000	-1.000000	-1.000000	148091.000000	1775777020.304970
-24231.690000	-8408.790000	7407.000000	22516.920000	14714.280000	-2645.730000	-7350.705000	9292.410000	-10.603626	-5.979498	7.742475	16.008321	21.619304	-1.532183	-13.550192	-12.422792	-4.059160	3.219860	1.693860	-0.638914	-0.277160	0.695555	-1.000000	-1.000000	-1.000000	-1.000000	-1.000000	-1.000000	-1.000000	59.000000	0.000000	-1.000000	-1.000000	148092.000000	1775777020.309028
-24223.725000	-8402.445000	7402.455000	22504.185000	14709.240000	-2620.890000	-7334.370000	9299.880000	-7.547632	-3.582595	7.587724	11.912063	11.663085	-6.388774	-12.113246	-10.239734	-4.059160	3.219860	1.693860	-0.638914	-0.277160	0.695555	-1.000000	-1.000000	-1.000000	-1.000000	-1.000000	-1.000000	-1.000000	59.000000	0.000000	-1.000000	-1.000000	148093.000000	1775777020.309052
-24219.315000	-8403.435000	7388.235000	22480.785000	14679.540000	-2631.330000	-7324.245000	9306.495000	-2.339947	-0.544467	2.313725	0.596089	-4.543515	-6.320765	-3.649361	-3.313856	-4.059160	3.219860	1.693860	-0.638914	-0.277160	0.695555	-1.000000	-1.000000	-1.000000	-1.000000	-1.000000	-1.000000	-1.000000	59.000000	0.000000	-1.000000	-1.000000	148094.000000	1775777020.313925
-24225.975000	-8415.585000	7368.660000	22458.645000	14656.230000	-2646.180000	-7326.270000	9305.145000	3.488295	2.277029	-4.834472	-11.995964	-19.042394	-2.069777	7.429291	5.052661	-4.059160	3.219860	1.693860	-0.638914	-0.277160	0.695555	-1.000000	-1.000000	-1.000000	-1.000000	-1.000000	-1.000000	-1.000000	59.000000	0.000000	-1.000000	-1.000000	148095.000000	1775777020.313951
-24240.240000	-8431.605000	7357.275000	22451.535000	14649.930000	-2662.155000	-7338.195000	9292.545000	7.150121	3.122286	-10.531827	-19.988846	-26.011637	1.218735	14.337926	10.312869	-4.059160	3.219860	1.693860	-0.638914	-0.277160	0.695555	-1.000000	-1.000000	-1.000000	-1.000000	-1.000000	-1.000000	-1.000000	59.000000	0.000000	-1.000000	-1.000000	148096.000000	1775777020.318041
-24240.375000	-8428.950000	7369.695000	22465.575000	14665.995000	-2663.865000	-7350.030000	9283.590000	6.617722	1.369019	-11.726670	-18.972319	-22.087718	0.710511	12.751809	9.509121	-4.059160	3.219860	1.693860	-0.638914	-0.277160	0.695555	-1.000000	-1.000000	-1.000000	-1.000000	-1.000000	-1.000000	-1.000000	59.000000	0.000000	-1.000000	-1.000000	148097.000000	1775777020.318068
-24244.380000	-8425.440000	7386.345000	22489.740000	14696.325000	-2643.750000	-7357.770000	9274.635000	3.007756	-0.848237	-6.320682	-7.861567	-7.354692	-1.166883	4.024799	3.518004	-4.059160	3.219860	1.693860	-0.638914	-0.277160	0.695555	-1.000000	-1.000000	-1.000000	-1.000000	-1.000000	-1.000000	-1.000000	59.000000	0.000000	-1.000000	-1.000000	148098.000000	1775777020.320970
-24240.330000	-8414.190000	7408.485000	22520.520000	14732.460000	-2625.660000	-7357.995000	9274.680000	-0.509336	-0.623262	4.644910	9.562908	13.319948	0.031503	-6.006016	-3.523914	-4.059160	3.219860	1.693860	-0.638914	-0.277160	0.695555	-1.000000	-1.000000	-1.000000	-1.000000	-1.000000	-1.000000	-1.000000	59.000000	0.000000	-1.000000	-1.000000	148099.000000	1775777020.320997
-24238.125000	-8418.015000	7399.305000	22513.095000	14718.465000	-2633.130000	-7359.075000	9278.640000	-1.597506	2.443081	15.808312	25.110293	30.619055	5.077002	-11.364630	-7.162941	-4.059160	3.219860	1.693860	-0.638914	-0.277160	0.695555	-1.000000	-1.000000	-1.000000	-1.000000	-1.000000	-1.000000	-1.000000	59.000000	0.000000	-1.000000	-1.000000	148100.000000	1775777020.324991
-24224.445000	-8409.915000	7393.050000	22500.585000	14702.445000	-2631.330000	-7343.145000	9298.350000	0.035317	5.849216	19.990220	29.597886	34.283197	9.546743	-9.537381	-5.216519	-4.059160	3.219860	1.693860	-0.638914	-0.277160	0.695555	-1.000000	-1.000000	-1.000000	-1.000000	-1.000000	-1.000000	-1.000000	59.000000	0.000000	-1.000000	-1.000000	148101.000000	1775777020.325018
-24215.490000	-8405.280000	7384.500000	22475.340000	14659.830000	-2637.135000	-7328.520000	9311.670000	3.166032	6.969868	13.740085	18.943482	20.072466	8.879120	-1.928776	1.330391	-2.304260	2.929920	0.991900	-0.643187	-0.279907	0.694639	-1.000000	-1.000000	-1.000000	-1.000000	-1.000000	-1.000000	-1.000000	59.000000	0.000000	-1.000000	-1.000000	148102.000000	1775777020.329074
-24213.330000	-8405.415000	7378.830000	22467.825000	14646.330000	-2647.395000	-7327.395000	9313.740000	5.710846	5.129899	0.503556	-1.814139	-5.637384	2.784019	7.202344	8.569502	-2.304260	2.929920	0.991900	-0.643187	-0.279907	0.694639	-1.000000	-1.000000	-1.000000	-1.000000	-1.000000	-1.000000	-1.000000	59.000000	0.000000	-1.000000	-1.000000	148103.000000	1775777020.329103
-24217.020000	-8408.880000	7378.245000	22477.410000	14679.720000	-2650.860000	-7329.825000	9309.330000	5.454114	1.086383	-12.205031	-21.025560	-28.134783	-5.413316	12.460317	11.501463	-2.304260	2.929920	0.991900	-0.643187	-0.279907	0.694639	-1.000000	-1.000000	-1.000000	-1.000000	-1.000000	-1.000000	-1.000000	59.000000	0.000000	-1.000000	-1.000000	148104.000000	1775777020.332873
-24224.760000	-8412.120000	7383.555000	22482.180000	14685.030000	-2657.205000	-7335.270000	9300.105000	1.491995	-3.774196	-17.979551	-28.070553	-33.532041	-11.383316	10.570021	7.475865	-2.304260	2.929920	0.991900	-0.643187	-0.279907	0.694639	-1.000000	-1.000000	-1.000000	-1.000000	-1.000000	-1.000000	-1.000000	59.000000	0.000000	-1.000000	-1.000000	148105.000000	1775777020.332895
-24231.780000	-8414.685000	7394.310000	22500.180000	14704.830000	-2645.145000	-7344.450000	9292.320000	-4.770983	-7.679450	-14.748837	-20.342333	-19.714575	-12.050233	2.653858	-1.725190	-2.304260	2.929920	0.991900	-0.643187	-0.279907	0.694639	-1.000000	-1.000000	-1.000000	-1.000000	-1.000000	-1.000000	-1.000000	59.000000	0.000000	-1.000000	-1.000000	148106.000000	1775777020.337187
-24238.125000	-8419.365000	7398.225000	22507.380000	14709.555000	-2640.105000	-7355.520000	9282.870000	-10.285449	-9.132548	-5.192399	-3.762958	2.796034	-6.917569	-6.977815	-11.194363	-2.304260	2.929920	0.991900	-0.643187	-0.279907	0.694639	-1.000000	-1.000000	-1.000000	-1.000000	-1.000000	-1.000000	-1.000000	59.000000	0.000000	-1.000000	-1.000000	148107.000000	1775777020.337212
-24228.270000	-8407.980000	7408.845000	22514.895000	14707.755000	-2635.470000	-7351.425000	9291.420000	-11.949250	-7.472045	5.263282	12.121679	20.212472	1.492913	-13.498368	-15.902659	-2.304260	2.929920	0.991900	-0.643187	-0.279907	0.694639	-1.000000	-1.000000	-1.000000	-1.000000	-1.000000	-1.000000	-1.000000	59.000000	0.000000	-1.000000	-1.000000	148108.000000	1775777020.350429
-24222.375000	-8407.350000	7401.690000	22503.960000	14688.045000	-2651.625000	-7346.880000	9299.430000	-8.205890	-2.997760	11.557250	19.541491	23.925394	8.435916	-13.608454	-13.146403	-2.304260	2.929920	0.991900	-0.643187	-0.279907	0.694639	-1.000000	-1.000000	-1.000000	-1.000000	-1.000000	-1.000000	-1.000000	59.000000	0.000000	-1.000000	-1.000000	148109.000000	1775777020.350458
-24222.690000	-8409.375000	7392.555000	22495.995000	14678.640000	-2658.960000	-7340.715000	9300.330000	-0.519094	2.506652	11.082410	15.882012	13.875275	9.744545	-7.207379	-4.200415	-2.304260	2.929920	0.991900	-0.643187	-0.279907	0.694639	-1.000000	-1.000000	-1.000000	-1.000000	-1.000000	-1.000000	-1.000000	59.000000	0.000000	-1.000000	-1.000000	148110.000000	1775777020.350488
-24220.620000	-8414.190000	7375.275000	22485.330000	14680.980000	-2654.325000	-7337.250000	9299.295000	6.993784	6.177960	4.416837	4.359686	-2.349839	5.309124	2.271920	5.944684	-2.304260	2.929920	0.991900	-0.643187	-0.279907	0.694639	-1.000000	-1.000000	-1.000000	-1.000000	-1.000000	-1.000000	-1.000000	59.000000	0.000000	-1.000000	-1.000000	148111.000000	1775777020.350502
-24224.355000	-8425.935000	7353.720000	22455.270000	14660.280000	-2653.245000	-7335.540000	9299.925000	10.506657	6.084898	-5.076281	-8.639858	-14.980273	-0.707112	9.970788	11.987183	0.061040	2.624720	0.228900	-0.651121	-0.280273	0.694395	-1.000000	-1.000000	-1.000000	-1.000000	-1.000000	-1.000000	-1.000000	59.000000	0.000000	-1.000000	-1.000000	148112.000000	1775777020.350517
-24228.675000	-8430.255000	7363.845000	22455.495000	14650.560000	-2665.665000	-7341.030000	9295.650000	8.850336	2.601869	-12.470154	-17.361375	-18.844792	-4.258107	12.399286	11.781382	0.061040	2.624720	0.228900	-0.651121	-0.280273	0.694395	-1.000000	-1.000000	-1.000000	-1.000000	-1.000000	-1.000000	-1.000000	59.000000	0.000000	-1.000000	-1.000000	148113.000000	1775777020.350530
-24220.710000	-8405.415000	7390.800000	22484.295000	14687.370000	-2648.745000	-7340.760000	9300.510000	3.780386	-1.316403	-12.664844	-17.560945	-13.882585	-4.391631	9.043847	6.842886	0.061040	2.624720	0.228900	-0.651121	-0.280273	0.694395	-1.000000	-1.000000	-1.000000	-1.000000	-1.000000	-1.000000	-1.000000	59.000000	0.000000	-1.000000	-1.000000	148114.000000	1775777020.355927
-24229.395000	-8408.295000	7401.060000	22500.135000	14715.315000	-2637.855000	-7352.775000	9291.555000	-1.457465	-2.034956	-3.834128	-7.575504	-1.657530	-1.633208	2.181474	0.505260	0.061040	2.624720	0.228900	-0.651121	-0.280273	0.694395	-1.000000	-1.000000	-1.000000	-1.000000	-1.000000	-1.000000	-1.000000	59.000000	0.000000	-1.000000	-1.000000	148115.000000	1775777020.355953
-24233.580000	-8415.990000	7400.430000	22505.760000	14719.680000	-2637.495000	-7357.365000	9287.865000	-4.723703	0.532664	9.096951	8.195803	13.468840	2.747843	-4.856661	-4.519925	0.061040	2.624720	0.228900	-0.651121	-0.280273	0.694395	-1.000000	-1.000000	-1.000000	-1.000000	-1.000000	-1.000000	-1.000000	59.000000	0.000000	-1.000000	-1.000000	148116.000000	1775777020.357358
-24243.255000	-8427.195000	7383.555000	22489.245000	14707.305000	-2636.280000	-7359.390000	9281.250000	-5.899482	2.594187	17.135002	20.142745	23.010943	5.963936	-9.192548	-7.093837	0.061040	2.624720	0.228900	-0.651121	-0.280273	0.694395	-1.000000	-1.000000	-1.000000	-1.000000	-1.000000	-1.000000	-1.000000	59.000000	0.000000	-1.000000	-1.000000	148117.000000	1775777020.357383
-24234.435000	-8424.855000	7371.540000	22469.130000	14680.395000	-2644.830000	-7347.780000	9289.665000	-5.344618	1.459668	14.498427	20.293070	19.766288	5.431756	-8.972779	-6.863247	0.061040	2.624720	0.228900	-0.651121	-0.280273	0.694395	-1.000000	-1.000000	-1.000000	-1.000000	-1.000000	-1.000000	-1.000000	59.000000	0.000000	-1.000000	-1.000000	148118.000000	1775777020.360886
-24220.755000	-8413.830000	7371.765000	22462.155000	14655.780000	-2658.060000	-7332.840000	9304.110000	-2.690828	-1.372941	3.243676	8.572811	4.180992	0.865602	-3.955295	-3.615408	0.061040	2.624720	0.228900	-0.651121	-0.280273	0.694395	-1.000000	-1.000000	-1.000000	-1.000000	-1.000000	-1.000000	-1.000000	59.000000	0.000000	-1.000000	-1.000000	148119.000000	1775777020.360904
-24225.120000	-8415.945000	7367.040000	22457.970000	14640.660000	-2664.225000	-7335.270000	9298.080000	1.892677	-2.650943	-8.815107	-7.100728	-15.287219	-5.585753	3.589801	1.741001	0.061040	2.624720	0.228900	-0.651121	-0.280273	0.694395	-1.000000	-1.000000	-1.000000	-1.000000	-1.000000	-1.000000	-1.000000	59.000000	0.000000	-1.000000	-1.000000	148120.000000	1775777020.367923
-24216.930000	-8407.440000	7376.985000	22469.265000	14668.965000	-2643.165000	-7331.130000	9301.545000	6.171347	-1.289569	-14.485380	-16.921666	-27.000310	-9.896714	9.302645	6.273399	0.061040	2.624720	0.228900	-0.651121	-0.280273	0.694395	-1.000000	-1.000000	-1.000000	-1.000000	-1.000000	-1.000000	-1.000000	59.000000	0.000000	-1.000000	-1.000000	148121.000000	1775777020.367946
-24219.675000	-8410.140000	7384.545000	22483.935000	14686.245000	-2643.705000	-7337.880000	9299.655000	7.532043	1.194276	-11.504284	-15.713497	-23.060856	-8.443752	9.726633	7.180698	-0.946120	0.289940	-1.251320	-0.655333	-0.278625	0.695860	-1.000000	-1.000000	-1.000000	-1.000000	-1.000000	-1.000000	-1.000000	59.000000	0.000000	-1.000000	-1.000000	148122.000000	1775777020.378541
-24230.070000	-8420.175000	7385.985000	22490.325000	14691.330000	-2645.415000	-7346.925000	9293.130000	5.084007	2.497589	-2.768594	-5.402289	-5.512222	-1.882991	4.704710	4.192193	-0.946120	0.289940	-1.251320	-0.655333	-0.278625	0.695860	-1.000000	-1.000000	-1.000000	-1.000000	-1.000000	-1.000000	-1.000000	59.000000	0.000000	-1.000000	-1.000000	148123.000000	1775777020.378568
-24226.830000	-8410.815000	7404.660000	22511.835000	14712.795000	-2640.330000	-7351.065000	9293.535000	-0.105146	1.409456	6.313400	7.197200	14.685374	5.098270	-2.980524	-0.808469	-0.946120	0.289940	-1.251320	-0.655333	-0.278625	0.695860	-1.000000	-1.000000	-1.000000	-1.000000	-1.000000	-1.000000	-1.000000	59.000000	0.000000	-1.000000	-1.000000	148124.000000	1775777020.378597
-24215.535000	-8397.900000	7416.810000	22521.105000	14719.140000	-2626.695000	-7344.495000	9302.715000	-5.012498	-0.636870	11.736581	15.442143	26.528771	8.751494	-9.072141	-4.908771	-0.946120	0.289940	-1.251320	-0.655333	-0.278625	0.695860	-1.000000	-1.000000	-1.000000	-1.000000	-1.000000	-1.000000	-1.000000	59.000000	0.000000	-1.000000	-1.000000	148125.000000	1775777020.378610
-24214.905000	-8398.440000	7409.745000	22507.875000	14696.145000	-2643.435000	-7343.685000	9303.525000	-6.450414	-1.211510	11.986958	15.735310	24.991130	8.323280	-10.136242	-5.712852	-0.946120	0.289940	-1.251320	-0.655333	-0.278625	0.695860	-1.000000	-1.000000	-1.000000	-1.000000	-1.000000	-1.000000	-1.000000	59.000000	0.000000	-1.000000	-1.000000	148126.000000	1775777020.378624
-24238.665000	-8430.165000	7364.835000	22454.325000	14651.595000	-2667.105000	-7354.305000	9285.345000	-4.560072	-0.757594	6.154470	6.914636	10.643749	3.867904	-6.213484	-3.620311	-0.946120	0.289940	-1.251320	-0.655333	-0.278625	0.695860	-1.000000	-1.000000	-1.000000	-1.000000	-1.000000	-1.000000	-1.000000	59.000000	0.000000	-1.000000	-1.000000	148127.000000	1775777020.378635
-24241.905000	-8438.985000	7344.585000	22430.610000	14637.420000	-2665.260000	-7345.305000	9285.525000	-2.586395	-2.150893	-5.451481	-9.001799	-10.645626	-3.559369	-0.473396	-1.428388	-0.946120	0.289940	-1.251320	-0.655333	-0.278625	0.695860	-1.000000	-1.000000	-1.000000	-1.000000	-1.000000	-1.000000	-1.000000	59.000000	0.000000	-1.000000	-1.000000	148128.000000	1775777020.387075
-24242.040000	-8434.980000	7349.670000	22435.200000	14635.170000	-2676.555000	-7351.290000	9282.285000	-2.230146	-5.515359	-17.670617	-24.163896	-28.002405	-10.086057	4.080557	-0.716029	-0.946120	0.289940	-1.251320	-0.655333	-0.278625	0.695860	-1.000000	-1.000000	-1.000000	-1.000000	-1.000000	-1.000000	-1.000000	59.000000	0.000000	-1.000000	-1.000000	148129.000000	1775777020.387102
-24246.225000	-8434.395000	7359.795000	22450.770000	14650.965000	-2681.280000	-7356.465000	9275.355000	-1.991029	-6.994456	-21.758676	-27.785458	-31.035941	-11.654285	6.025872	-0.669508	-0.946120	0.289940	-1.251320	-0.655333	-0.278625	0.695860	-1.000000	-1.000000	-1.000000	-1.000000	-1.000000	-1.000000	-1.000000	59.000000	0.000000	-1.000000	-1.000000	148130.000000	1775777020.387130
-24258.105000	-8440.515000	7369.245000	22469.760000	14684.985000	-2644.695000	-7359.795000	9262.755000	-0.512601	-3.937151	-13.284059	-15.260167	-17.062175	-6.911800	5.080927	-0.431622	-0.946120	0.289940	-1.251320	-0.655333	-0.278625	0.695860	-1.000000	-1.000000	-1.000000	-1.000000	-1.000000	-1.000000	-1.000000	59.000000	0.000000	-1.000000	-1.000000	148131.000000	1775777020.387142
-24257.700000	-8437.725000	7380.450000	22488.165000	14704.560000	-2624.715000	-7367.220000	9263.205000	1.610389	2.016046	3.374589	7.235879	7.039194	3.239537	2.196915	-0.003149	-1.922760	-0.061040	-1.052940	-0.655821	-0.272033	0.695738	-1.000000	-1.000000	-1.000000	-1.000000	-1.000000	-1.000000	-1.000000	59.000000	0.000000	-1.000000	-1.000000	148132.000000	1775777020.388322
-24247.350000	-8430.345000	7383.645000	22488.840000	14710.680000	-2629.530000	-7365.150000	9275.850000	3.656811	7.518333	18.802929	27.240791	28.511323	14.495050	-0.843841	1.070062	-1.922760	-0.061040	-1.052940	-0.655821	-0.272033	0.695738	-1.000000	-1.000000	-1.000000	-1.000000	-1.000000	-1.000000	-1.000000	59.000000	0.000000	-1.000000	-1.000000	148133.000000	1775777020.388341
-24228.495000	-8417.295000	7385.580000	22480.020000	14710.050000	-2614.005000	-7347.420000	9292.860000	6.006666	10.603128	25.134822	33.963992	35.862481	19.840405	-2.048130	3.804434	-1.922760	-0.061040	-1.052940	-0.655821	-0.272033	0.695738	-1.000000	-1.000000	-1.000000	-1.000000	-1.000000	-1.000000	-1.000000	59.000000	0.000000	-1.000000	-1.000000	148134.000000	1775777020.392853
-24228.045000	-8418.330000	7373.385000	22465.800000	14682.735000	-2622.285000	-7337.205000	9296.865000	8.572116	10.754291	19.987887	24.267491	25.431231	15.482013	-0.110020	7.766469	-1.922760	-0.061040	-1.052940	-0.655821	-0.272033	0.695738	-1.000000	-1.000000	-1.000000	-1.000000	-1.000000	-1.000000	-1.000000	59.000000	0.000000	-1.000000	-1.000000	148135.000000	1775777020.392879
-24220.845000	-8411.580000	7374.375000	22458.195000	14659.740000	-2643.435000	-7334.820000	9302.040000	9.448141	7.867197	6.724697	3.967250	2.527850	3.331301	3.808618	10.203957	-1.922760	-0.061040	-1.052940	-0.655821	-0.272033	0.695738	-1.000000	-1.000000	-1.000000	-1.000000	-1.000000	-1.000000	-1.000000	59.000000	0.000000	-1.000000	-1.000000	148136.000000	1775777020.407444
-24228.630000	-8427.105000	7357.185000	22442.805000	14639.670000	-2646.945000	-7333.875000	9298.575000	6.571110	2.277511	-7.990329	-16.287873	-21.848700	-11.353953	6.293751	8.342561	-1.922760	-0.061040	-1.052940	-0.655821	-0.272033	0.695738	-1.000000	-1.000000	-1.000000	-1.000000	-1.000000	-1.000000	-1.000000	59.000000	0.000000	-1.000000	-1.000000	148137.000000	1775777020.407470
-24226.605000	-8423.955000	7363.215000	22454.685000	14653.575000	-2641.905000	-7330.185000	9301.680000	0.089145	-4.708077	-17.857634	-27.233642	-35.884108	-21.715495	4.876579	2.107242	-1.922760	-0.061040	-1.052940	-0.655821	-0.272033	0.695738	-1.000000	-1.000000	-1.000000	-1.000000	-1.000000	-1.000000	-1.000000	59.000000	0.000000	-1.000000	-1.000000	148138.000000	1775777020.407521
-24238.485000	-8424.810000	7377.390000	22473.585000	14688.810000	-2640.510000	-7346.340000	9284.580000	-7.467200	-10.475774	-19.155342	-24.666937	-32.091066	-22.359502	-0.078744	-5.925323	-1.922760	-0.061040	-1.052940	-0.655821	-0.272033	0.695738	-1.000000	-1.000000	-1.000000	-1.000000	-1.000000	-1.000000	-1.000000	59.000000	0.000000	-1.000000	-1.000000	148139.000000	1775777020.407534
-24233.355000	-8414.370000	7400.070000	22497.885000	14709.285000	-2614.860000	-7338.915000	9285.975000	-12.780444	-12.086474	-11.492696	-10.508539	-11.723771	-12.969224	-6.224025	-12.504252	-1.922760	-0.061040	-1.052940	-0.655821	-0.272033	0.695738	-1.000000	-1.000000	-1.000000	-1.000000	-1.000000	-1.000000	-1.000000	59.000000	0.000000	-1.000000	-1.000000	148140.000000	1775777020.407552
-24234.255000	-8411.625000	7407.180000	22509.540000	14721.075000	-2623.770000	-7349.715000	9282.645000	-13.405021	-8.560934	1.333660	7.809741	14.315094	1.573870	-10.454364	-14.924879	-1.922760	-0.061040	-1.052940	-0.655821	-0.272033	0.695738	-1.000000	-1.000000	-1.000000	-1.000000	-1.000000	-1.000000	-1.000000	59.000000	0.000000	-1.000000	-1.000000	148141.000000	1775777020.407567
-24240.825000	-8426.430000	7381.395000	22487.805000	14720.220000	-2633.895000	-7357.995000	9275.490000	-9.200716	-2.257297	11.854148	20.341801	31.626924	13.435264	-10.827656	-12.100204	-2.517900	0.793520	1.815940	-0.652220	-0.266479	0.696653	-1.000000	-1.000000	-1.000000	-1.000000	-1.000000	-1.000000	-1.000000	59.000000	0.000000	-1.000000	-1.000000	148142.000000	1775777020.414425
-24236.550000	-8427.735000	7368.480000	22468.635000	14688.855000	-2632.500000	-7342.605000	9285.930000	-2.544212	2.631935	13.101077	19.771107	31.211519	16.524744	-7.442105	-5.342453	-2.517900	0.793520	1.815940	-0.652220	-0.266479	0.696653	-1.000000	-1.000000	-1.000000	-1.000000	-1.000000	-1.000000	-1.000000	59.000000	0.000000	-1.000000	-1.000000	148143.000000	1775777020.414452
-24228.855000	-8417.205000	7378.875000	22477.770000	14680.710000	-2639.160000	-7339.365000	9293.130000	3.833604	4.125232	4.983271	7.105207	14.128174	11.065423	-1.174436	2.912661	-2.517900	0.793520	1.815940	-0.652220	-0.266479	0.696653	-1.000000	-1.000000	-1.000000	-1.000000	-1.000000	-1.000000	-1.000000	59.000000	0.000000	-1.000000	-1.000000	148144.000000	1775777020.414492
-24229.035000	-8425.485000	7357.320000	22447.665000	14668.155000	-2646.405000	-7337.700000	9294.435000	8.328798	3.634713	-5.458259	-8.692783	-9.323922	2.029463	6.011819	10.063686	-2.517900	0.793520	1.815940	-0.652220	-0.266479	0.696653	-1.000000	-1.000000	-1.000000	-1.000000	-1.000000	-1.000000	-1.000000	59.000000	0.000000	-1.000000	-1.000000	148145.000000	1775777020.414505
-24231.870000	-8430.840000	7354.260000	22443.435000	14659.920000	-2651.400000	-7340.265000	9292.050000	9.828458	2.648086	-11.535125	-18.774441	-26.189979	-5.545010	10.758607	13.378576	-2.517900	0.793520	1.815940	-0.652220	-0.266479	0.696653	-1.000000	-1.000000	-1.000000	-1.000000	-1.000000	-1.000000	-1.000000	59.000000	0.000000	-1.000000	-1.000000	148146.000000	1775777020.415767
-24238.215000	-8430.660000	7367.985000	22465.170000	14653.710000	-2674.710000	-7357.365000	9281.295000	7.705631	1.326753	-10.902963	-19.023018	-29.103917	-9.168536	10.385940	11.218178	-2.517900	0.793520	1.815940	-0.652220	-0.266479	0.696653	-1.000000	-1.000000	-1.000000	-1.000000	-1.000000	-1.000000	-1.000000	59.000000	0.000000	-1.000000	-1.000000	148147.000000	1775777020.415785
-24228.180000	-8418.465000	7382.070000	22475.385000	14665.320000	-2669.445000	-7353.855000	9288.630000	3.011619	0.266643	-4.019705	-9.321701	-18.820417	-8.894652	5.000982	4.659835	-2.517900	0.793520	1.815940	-0.652220	-0.266479	0.696653	-1.000000	-1.000000	-1.000000	-1.000000	-1.000000	-1.000000	-1.000000	59.000000	0.000000	-1.000000	-1.000000	148148.000000	1775777020.420875
-24235.290000	-8422.515000	7382.430000	22476.060000	14671.890000	-2659.455000	-7360.020000	9280.530000	-1.645708	0.483760	5.955508	5.584041	-1.396233	-5.190509	-2.069879	-2.692999	-2.517900	0.793520	1.815940	-0.652220	-0.266479	0.696653	-1.000000	-1.000000	-1.000000	-1.000000	-1.000000	-1.000000	-1.000000	59.000000	0.000000	-1.000000	-1.000000	148149.000000	1775777020.420901
-24235.695000	-8420.580000	7390.890000	22489.605000	14695.695000	-2627.145000	-7354.260000	9281.925000	-4.339601	1.590229	13.607448	17.589509	15.570856	1.953104	-6.594697	-7.367361	-2.517900	0.793520	1.815940	-0.652220	-0.266479	0.696653	-1.000000	-1.000000	-1.000000	-1.000000	-1.000000	-1.000000	-1.000000	59.000000	0.000000	-1.000000	-1.000000	148150.000000	1775777020.424819
-24234.165000	-8422.560000	7385.085000	22487.805000	14703.525000	-2624.310000	-7349.850000	9284.985000	-4.851282	2.070144	14.765869	20.970501	25.950645	10.881586	-6.440886	-8.019736	-2.517900	0.793520	1.815940	-0.652220	-0.266479	0.696653	-1.000000	-1.000000	-1.000000	-1.000000	-1.000000	-1.000000	-1.000000	59.000000	0.000000	-1.000000	-1.000000	148151.000000	1775777020.424836
-24233.085000	-8424.990000	7369.155000	22464.855000	14676.795000	-2637.945000	-7347.330000	9287.730000	-3.641547	1.098207	8.815924	14.840599	25.974143	16.589651	-2.451017	-5.178956	-2.166920	1.739640	3.830260	-0.646910	-0.266662	0.697691	-1.000000	-1.000000	-1.000000	-1.000000	-1.000000	-1.000000	-1.000000	59.000000	0.000000	-1.000000	-1.000000	148152.000000	1775777020.430046
-24227.055000	-8423.730000	7362.135000	22454.910000	14662.170000	-2639.115000	-7338.330000	9295.920000	-1.333964	-0.859275	-1.587341	1.975471	14.724668	13.952776	2.600892	-0.559358	-2.166920	1.739640	3.830260	-0.646910	-0.266662	0.697691	-1.000000	-1.000000	-1.000000	-1.000000	-1.000000	-1.000000	-1.000000	59.000000	0.000000	-1.000000	-1.000000	148153.000000	1775777020.430072
-24226.380000	-8425.620000	7360.290000	22456.215000	14666.355000	-2640.330000	-7332.615000	9299.970000	1.210647	-2.604113	-11.397284	-11.621121	-3.123119	3.501274	6.062066	3.748659	-2.166920	1.739640	3.830260	-0.646910	-0.266662	0.697691	-1.000000	-1.000000	-1.000000	-1.000000	-1.000000	-1.000000	-1.000000	59.000000	0.000000	-1.000000	-1.000000	148154.000000	1775777020.432263
-24242.220000	-8441.235000	7354.665000	22462.020000	14698.980000	-2629.980000	-7341.660000	9285.030000	2.658301	-3.460703	-15.659211	-18.791507	-17.397376	-8.331355	6.418190	5.727824	-2.166920	1.739640	3.830260	-0.646910	-0.266662	0.697691	-1.000000	-1.000000	-1.000000	-1.000000	-1.000000	-1.000000	-1.000000	59.000000	0.000000	-1.000000	-1.000000	148155.000000	1775777020.432286
-24230.610000	-8425.260000	7377.975000	22482.900000	14708.070000	-2628.270000	-7340.670000	9291.960000	1.950231	-3.453788	-12.365008	-15.749497	-19.596764	-14.798786	3.303674	4.149844	-2.166920	1.739640	3.830260	-0.646910	-0.266662	0.697691	-1.000000	-1.000000	-1.000000	-1.000000	-1.000000	-1.000000	-1.000000	59.000000	0.000000	-1.000000	-1.000000	148156.000000	1775777020.436822
-24227.820000	-8416.845000	7392.375000	22496.580000	14708.250000	-2623.320000	-7343.145000	9292.365000	0.117448	-1.911617	-2.833699	-4.435437	-10.492626	-13.644799	-1.848588	0.243771	-2.166920	1.739640	3.830260	-0.646910	-0.266662	0.697691	-1.000000	-1.000000	-1.000000	-1.000000	-1.000000	-1.000000	-1.000000	59.000000	0.000000	-1.000000	-1.000000	148157.000000	1775777020.436839
-24238.215000	-8425.755000	7386.435000	22494.915000	14709.060000	-2626.830000	-7355.430000	9281.745000	-0.956677	1.384682	8.401668	8.554407	1.245822	-7.462375	-6.452741	-3.269906	-2.166920	1.739640	3.830260	-0.646910	-0.266662	0.697691	-1.000000	-1.000000	-1.000000	-1.000000	-1.000000	-1.000000	-1.000000	59.000000	0.000000	-1.000000	-1.000000	148158.000000	1775777020.441942
-24245.055000	-8434.620000	7371.540000	22475.655000	14694.795000	-2635.335000	-7363.125000	9276.480000	-1.299216	4.096532	14.647922	15.337283	7.336615	-0.871663	-8.819729	-5.067626	-2.166920	1.739640	3.830260	-0.646910	-0.266662	0.697691	-1.000000	-1.000000	-1.000000	-1.000000	-1.000000	-1.000000	-1.000000	59.000000	0.000000	-1.000000	-1.000000	148159.000000	1775777020.441965
-24244.650000	-8436.240000	7361.820000	22460.445000	14678.820000	-2638.845000	-7362.945000	9276.660000	-1.784135	3.689047	11.726217	11.670619	5.140332	2.692711	-8.395252	-5.144764	-2.166920	1.739640	3.830260	-0.646910	-0.266662	0.697691	-1.000000	-1.000000	-1.000000	-1.000000	-1.000000	-1.000000	-1.000000	59.000000	0.000000	-1.000000	-1.000000	148160.000000	1775777020.451948
-24234.345000	-8426.070000	7367.220000	22466.025000	14672.655000	-2638.170000	-7347.555000	9287.370000	-1.838018	0.897221	2.074628	0.521395	-2.344408	2.905897	-4.779109	-3.262386	-2.166920	1.739640	3.830260	-0.646910	-0.266662	0.697691	-1.000000	-1.000000	-1.000000	-1.000000	-1.000000	-1.000000	-1.000000	59.000000	0.000000	-1.000000	-1.000000	148161.000000	1775777020.451974
-24225.750000	-8418.555000	7373.880000	22471.740000	14672.430000	-2639.655000	-7334.415000	9296.910000	-0.137551	-1.150316	-7.117306	-9.788846	-9.014116	1.817498	1.856807	0.742062	-1.297100	1.480220	4.288060	-0.643309	-0.268737	0.699339	-1.000000	-1.000000	-1.000000	-1.000000	-1.000000	-1.000000	-1.000000	59.000000	0.000000	-1.000000	-1.000000	148162.000000	1775777020.451999
-24219.720000	-8415.630000	7374.510000	22468.410000	14685.255000	-2627.820000	-7329.555000	9303.570000	3.180831	-0.607556	-10.116198	-12.582496	-9.641726	1.551790	9.313046	5.662750	-1.297100	1.480220	4.288060	-0.643309	-0.268737	0.699339	-1.000000	-1.000000	-1.000000	-1.000000	-1.000000	-1.000000	-1.000000	59.000000	0.000000	-1.000000	-1.000000	148163.000000	1775777020.452010
-24224.760000	-8418.645000	7380.360000	22482.270000	14695.470000	-2633.940000	-7337.520000	9296.820000	5.903564	1.312745	-6.638817	-7.554541	-3.142680	2.744135	13.462019	8.767173	-1.297100	1.480220	4.288060	-0.643309	-0.268737	0.699339	-1.000000	-1.000000	-1.000000	-1.000000	-1.000000	-1.000000	-1.000000	59.000000	0.000000	-1.000000	-1.000000	148164.000000	1775777020.452586
-24230.745000	-8423.100000	7380.135000	22483.305000	14698.890000	-2638.080000	-7349.715000	9288.000000	5.454009	2.049501	-0.393519	1.077521	6.803107	4.054749	10.977114	7.463476	-1.297100	1.480220	4.288060	-0.643309	-0.268737	0.699339	-1.000000	-1.000000	-1.000000	-1.000000	-1.000000	-1.000000	-1.000000	59.000000	0.000000	-1.000000	-1.000000	148165.000000	1775777020.452602
-24228.720000	-8419.455000	7382.520000	22478.715000	14702.895000	-2634.480000	-7352.280000	9289.710000	1.424263	0.503164	4.510691	8.135021	14.217107	3.706332	2.475125	1.799093	-1.297100	1.480220	4.288060	-0.643309	-0.268737	0.699339	-1.000000	-1.000000	-1.000000	-1.000000	-1.000000	-1.000000	-1.000000	59.000000	0.000000	-1.000000	-1.000000	148166.000000	1775777020.456174
-24231.780000	-8422.470000	7381.935000	22479.975000	14698.755000	-2629.755000	-7350.570000	9288.270000	-3.746485	-2.094727	5.894320	9.992711	14.898263	1.813290	-7.175802	-4.887372	-1.297100	1.480220	4.288060	-0.643309	-0.268737	0.699339	-1.000000	-1.000000	-1.000000	-1.000000	-1.000000	-1.000000	-1.000000	59.000000	0.000000	-1.000000	-1.000000	148167.000000	1775777020.456192
-24227.145000	-8421.570000	7376.445000	22471.605000	14660.640000	-2631.780000	-7341.165000	9297.270000	-6.906117	-3.835912	3.886596	6.439094	8.120150	-0.138903	-12.231995	-8.516368	-1.297100	1.480220	4.288060	-0.643309	-0.268737	0.699339	-1.000000	-1.000000	-1.000000	-1.000000	-1.000000	-1.000000	-1.000000	59.000000	0.000000	-1.000000	-1.000000	148168.000000	1775777020.460187
-24224.130000	-8419.995000	7370.055000	22462.875000	14648.175000	-2648.970000	-7339.860000	9302.220000	-6.466937	-3.761390	-0.043258	0.030893	-3.844045	-1.659078	-10.247836	-7.226684	-1.297100	1.480220	4.288060	-0.643309	-0.268737	0.699339	-1.000000	-1.000000	-1.000000	-1.000000	-1.000000	-1.000000	-1.000000	59.000000	0.000000	-1.000000	-1.000000	148169.000000	1775777020.460214
-24221.295000	-8418.915000	7368.210000	22461.165000	14678.505000	-2641.320000	-7340.895000	9303.615000	-3.021652	-2.036809	-3.934195	-5.928290	-14.720821	-3.222182	-3.529391	-2.345987	-1.297100	1.480220	4.288060	-0.643309	-0.268737	0.699339	-1.000000	-1.000000	-1.000000	-1.000000	-1.000000	-1.000000	-1.000000	59.000000	0.000000	-1.000000	-1.000000	148170.000000	1775777020.613952
-24225.255000	-8422.020000	7369.875000	22462.560000	14664.015000	-2635.605000	-7342.515000	9297.135000	1.193017	0.314434	-5.826385	-8.597428	-16.864817	-4.075717	3.150987	2.629779	-1.297100	1.480220	4.288060	-0.643309	-0.268737	0.699339	-1.000000	-1.000000	-1.000000	-1.000000	-1.000000	-1.000000	-1.000000	59.000000	0.000000	-1.000000	-1.000000	148171.000000	1775777020.613979
-24234.255000	-8427.195000	7370.010000	22463.055000	14657.535000	-2643.165000	-7349.535000	9284.940000	3.600700	1.900779	-4.686768	-6.792553	-9.323101	-2.895170	6.189367	4.402700	-0.808780	0.717220	3.021480	-0.646544	-0.272094	0.699339	-1.000000	-1.000000	-1.000000	-1.000000	-1.000000	-1.000000	-1.000000	59.000000	0.000000	-1.000000	-1.000000	148172.000000	1775777020.614007
-24232.185000	-8420.580000	7380.405000	22477.635000	14708.430000	-2632.590000	-7356.105000	9280.800000	3.058400	2.069861	-1.045579	-1.554642	2.298328	-0.154761	4.871988	2.156236	-0.808780	0.717220	3.021480	-0.646544	-0.272094	0.699339	-1.000000	-1.000000	-1.000000	-1.000000	-1.000000	-1.000000	-1.000000	59.000000	0.000000	-1.000000	-1.000000	148173.000000	1775777020.614019
-24214.455000	-8397.045000	7411.455000	22507.380000	14728.095000	-2617.920000	-7349.220000	9289.755000	1.128101	1.941519	3.951092	5.181093	13.465761	2.881183	1.157489	-1.660964	-0.808780	0.717220	3.021480	-0.646544	-0.272094	0.699339	-1.000000	-1.000000	-1.000000	-1.000000	-1.000000	-1.000000	-1.000000	59.000000	0.000000	-1.000000	-1.000000	148174.000000	1775777020.614188
-24215.040000	-8402.175000	7403.265000	22497.300000	14710.095000	-2628.900000	-7347.105000	9296.010000	0.534260	2.997236	8.809598	11.031614	20.450311	5.223532	-1.726760	-3.248728	-0.808780	0.717220	3.021480	-0.646544	-0.272094	0.699339	-1.000000	-1.000000	-1.000000	-1.000000	-1.000000	-1.000000	-1.000000	59.000000	0.000000	-1.000000	-1.000000	148175.000000	1775777020.614203
-24216.345000	-8411.355000	7385.670000	22481.550000	14713.605000	-2636.730000	-7346.970000	9297.720000	1.663912	4.085224	10.197104	12.119670	18.269719	5.125363	-1.875734	-1.068566	-0.808780	0.717220	3.021480	-0.646544	-0.272094	0.699339	-1.000000	-1.000000	-1.000000	-1.000000	-1.000000	-1.000000	-1.000000	59.000000	0.000000	-1.000000	-1.000000	148176.000000	1775777020.614228
-24205.680000	-8404.920000	7383.285000	22477.230000	14710.005000	-2626.920000	-7326.495000	9311.625000	2.599058	2.671187	5.156304	5.819097	6.351873	1.757467	0.303804	3.090334	-0.808780	0.717220	3.021480	-0.646544	-0.272094	0.699339	-1.000000	-1.000000	-1.000000	-1.000000	-1.000000	-1.000000	-1.000000	59.000000	0.000000	-1.000000	-1.000000	148177.000000	1775777020.614239
-24201.585000	-8405.415000	7376.490000	22467.330000	14675.220000	-2627.280000	-7314.975000	9319.545000	2.253295	-1.066209	-4.247407	-5.042743	-9.523987	-2.595375	3.588056	6.522819	-0.808780	0.717220	3.021480	-0.646544	-0.272094	0.699339	-1.000000	-1.000000	-1.000000	-1.000000	-1.000000	-1.000000	-1.000000	59.000000	0.000000	-1.000000	-1.000000	148178.000000	1775777020.614253
-24213.195000	-8420.535000	7361.730000	22452.480000	14658.345000	-2633.040000	-7326.180000	9309.375000	0.726262	-4.805402	-12.357469	-14.247754	-22.659516	-5.057435	6.062609	7.185750	-0.808780	0.717220	3.021480	-0.646544	-0.272094	0.699339	-1.000000	-1.000000	-1.000000	-1.000000	-1.000000	-1.000000	-1.000000	59.000000	0.000000	-1.000000	-1.000000	148179.000000	1775777020.614264
-24217.920000	-8424.990000	7361.595000	22453.830000	14673.960000	-2645.865000	-7337.520000	9302.040000	-2.012451	-7.146410	-15.022536	-17.215059	-27.731333	-5.306541	4.875786	3.831303	-0.808780	0.717220	3.021480	-0.646544	-0.272094	0.699339	-1.000000	-1.000000	-1.000000	-1.000000	-1.000000	-1.000000	-1.000000	59.000000	0.000000	-1.000000	-1.000000	148180.000000	1775777020.614277
-24216.390000	-8417.025000	7377.165000	22473.045000	14688.720000	-2651.220000	-7339.230000	9302.310000	-5.217938	-7.327350	-11.020080	-12.432890	-21.011643	-4.668695	-0.812473	-2.596030	-0.808780	0.717220	3.021480	-0.646544	-0.272094	0.699339	-1.000000	-1.000000	-1.000000	-1.000000	-1.000000	-1.000000	-1.000000	59.000000	0.000000	-1.000000	-1.000000	148181.000000	1775777020.614288
-24214.185000	-8407.440000	7394.130000	22496.805000	14712.705000	-2623.140000	-7335.720000	9304.830000	-6.775823	-4.313016	-1.395340	-1.076877	-3.810564	-3.155974	-7.622036	-8.447341	-0.503580	0.686700	0.732480	-0.651304	-0.273010	0.698118	-1.000000	-1.000000	-1.000000	-1.000000	-1.000000	-1.000000	-1.000000	59.000000	0.000000	-1.000000	-1.000000	148182.000000	1775777020.614300
-24219.000000	-8408.340000	7394.625000	22498.920000	14720.895000	-2603.610000	-7329.690000	9300.060000	-5.277479	1.464087	9.994174	12.309646	16.126571	1.012191	-10.679324	-10.236432	-0.503580	0.686700	0.732480	-0.651304	-0.273010	0.698118	-1.000000	-1.000000	-1.000000	-1.000000	-1.000000	-1.000000	-1.000000	59.000000	0.000000	-1.000000	-1.000000	148183.000000	1775777020.614311
-24220.620000	-8408.970000	7392.555000	22495.455000	14722.110000	-2588.490000	-7325.820000	9295.920000	-1.648212	7.010521	17.189556	20.605995	28.778907	7.817883	-7.916912	-7.586500	-0.503580	0.686700	0.732480	-0.651304	-0.273010	0.698118	-1.000000	-1.000000	-1.000000	-1.000000	-1.000000	-1.000000	-1.000000	59.000000	0.000000	-1.000000	-1.000000	148184.000000	1775777020.614324
-24215.085000	-8405.415000	7390.935000	22487.220000	14704.830000	-2596.365000	-7329.015000	9298.170000	2.123192	9.125679	16.072489	18.640527	27.704572	13.120247	-1.452102	-2.659017	-0.503580	0.686700	0.732480	-0.651304	-0.273010	0.698118	-1.000000	-1.000000	-1.000000	-1.000000	-1.000000	-1.000000	-1.000000	59.000000	0.000000	-1.000000	-1.000000	148185.000000	1775777020.614335
-24201.045000	-8396.595000	7390.935000	22482.765000	14696.370000	-2614.365000	-7323.795000	9307.530000	5.046199	7.295602	7.670356	7.424766	13.689853	11.635668	4.591850	2.409453	-0.503580	0.686700	0.732480	-0.651304	-0.273010	0.698118	-1.000000	-1.000000	-1.000000	-1.000000	-1.000000	-1.000000	-1.000000	59.000000	0.000000	-1.000000	-1.000000	148186.000000	1775777020.614348
-24199.380000	-8398.350000	7386.345000	22476.555000	14688.990000	-2606.715000	-7315.965000	9312.390000	7.020183	3.401817	-3.054869	-6.666095	-5.633415	2.398702	7.531825	6.512049	-0.503580	0.686700	0.732480	-0.651304	-0.273010	0.698118	-1.000000	-1.000000	-1.000000	-1.000000	-1.000000	-1.000000	-1.000000	59.000000	0.000000	-1.000000	-1.000000	148187.000000	1775777020.614358
-24200.145000	-8395.020000	7392.735000	22484.835000	14677.515000	-2609.055000	-7315.695000	9313.470000	7.341171	-0.601578	-10.881419	-16.314748	-20.533098	-9.145148	7.258237	8.723557	-0.503580	0.686700	0.732480	-0.651304	-0.273010	0.698118	-1.000000	-1.000000	-1.000000	-1.000000	-1.000000	-1.000000	-1.000000	59.000000	0.000000	-1.000000	-1.000000	148188.000000	1775777020.614371
-24196.230000	-8387.910000	7403.985000	22494.375000	14688.135000	-2617.695000	-7324.830000	9308.430000	5.076171	-3.527435	-12.697027	-17.185375	-24.767400	-16.035082	4.569819	7.971937	-0.503580	0.686700	0.732480	-0.651304	-0.273010	0.698118	-1.000000	-1.000000	-1.000000	-1.000000	-1.000000	-1.000000	-1.000000	59.000000	0.000000	-1.000000	-1.000000	148189.000000	1775777020.614382
-24204.015000	-8393.265000	7403.805000	22495.050000	14713.110000	-2612.025000	-7331.265000	9299.610000	0.635911	-4.778673	-8.557864	-9.939460	-17.331947	-15.485617	0.148950	3.947216	-0.503580	0.686700	0.732480	-0.651304	-0.273010	0.698118	-1.000000	-1.000000	-1.000000	-1.000000	-1.000000	-1.000000	-1.000000	59.000000	0.000000	-1.000000	-1.000000	148190.000000	1775777020.614395
-24210.720000	-8403.120000	7396.470000	22492.800000	14706.360000	-2601.135000	-7329.510000	9299.745000	-4.431803	-4.880018	-1.901823	0.295738	-2.276892	-8.733889	-4.534229	-1.941414	-0.503580	0.686700	0.732480	-0.651304	-0.273010	0.698118	-1.000000	-1.000000	-1.000000	-1.000000	-1.000000	-1.000000	-1.000000	59.000000	0.000000	-1.000000	-1.000000	148191.000000	1775777020.614405
-24216.975000	-8410.815000	7386.165000	22487.310000	14710.545000	-2605.275000	-7333.065000	9296.775000	-8.402301	-4.984001	2.667562	7.531304	12.162043	0.921540	-7.153829	-6.829845	-0.671440	0.259420	-1.068200	-0.654661	-0.272887	0.696531	-1.000000	-1.000000	-1.000000	-1.000000	-1.000000	-1.000000	-1.000000	59.000000	0.000000	-1.000000	-1.000000	148192.000000	1775777020.614418
-24215.850000	-8412.885000	7382.025000	22483.305000	14705.730000	-2621.160000	-7333.830000	9299.925000	-9.663131	-5.163479	2.957338	8.824783	18.466093	8.684855	-6.391206	-8.234988	-0.671440	0.259420	-1.068200	-0.654661	-0.272887	0.696531	-1.000000	-1.000000	-1.000000	-1.000000	-1.000000	-1.000000	-1.000000	59.000000	0.000000	-1.000000	-1.000000	148193.000000	1775777020.614428
-24201.540000	-8405.100000	7381.440000	22477.140000	14699.160000	-2609.235000	-7319.385000	9314.505000	-7.069266	-4.074128	0.503113	5.239548	14.819002	10.861518	-2.711692	-5.480993	-0.671440	0.259420	-1.068200	-0.654661	-0.272887	0.696531	-1.000000	-1.000000	-1.000000	-1.000000	-1.000000	-1.000000	-1.000000	59.000000	0.000000	-1.000000	-1.000000	148194.000000	1775777020.614440
-24212.295000	-8417.745000	7365.375000	22461.075000	14685.345000	-2623.095000	-7327.620000	9307.080000	-1.161001	-0.870498	-1.753430	-0.168750	4.691419	7.916896	2.290913	0.007688	-0.671440	0.259420	-1.068200	-0.654661	-0.272887	0.696531	-1.000000	-1.000000	-1.000000	-1.000000	-1.000000	-1.000000	-1.000000	59.000000	0.000000	-1.000000	-1.000000	148195.000000	1775777020.614451
-24213.105000	-8418.195000	7365.330000	22460.895000	14682.555000	-2626.605000	-7330.005000	9303.120000	4.936907	3.069761	-2.323195	-4.578693	-6.262479	2.830870	6.025362	4.858384	-0.671440	0.259420	-1.068200	-0.654661	-0.272887	0.696531	-1.000000	-1.000000	-1.000000	-1.000000	-1.000000	-1.000000	-1.000000	59.000000	0.000000	-1.000000	-1.000000	148196.000000	1775777020.614464
-24210.720000	-8408.115000	7382.745000	22481.280000	14696.505000	-2617.380000	-7322.940000	9306.450000	7.872929	5.801308	-0.768976	-5.558840	-12.552153	-1.573483	6.472954	6.103385	-0.671440	0.259420	-1.068200	-0.654661	-0.272887	0.696531	-1.000000	-1.000000	-1.000000	-1.000000	-1.000000	-1.000000	-1.000000	59.000000	0.000000	-1.000000	-1.000000	148197.000000	1775777020.614475
-24205.320000	-8401.545000	7393.410000	22490.370000	14705.865000	-2611.035000	-7323.930000	9308.655000	7.178844	7.081320	3.257353	-1.620720	-11.018998	-3.040812	4.196147	3.936557	-0.671440	0.259420	-1.068200	-0.654661	-0.272887	0.696531	-1.000000	-1.000000	-1.000000	-1.000000	-1.000000	-1.000000	-1.000000	59.000000	0.000000	-1.000000	-1.000000	148198.000000	1775777020.614488
-24206.355000	-8402.670000	7393.545000	22490.820000	14715.630000	-2602.755000	-7324.335000	9307.800000	4.582086	7.243265	8.302188	5.310093	-3.005340	-1.045318	1.095718	0.714104	-0.671440	0.259420	-1.068200	-0.654661	-0.272887	0.696531	-1.000000	-1.000000	-1.000000	-1.000000	-1.000000	-1.000000	-1.000000	59.000000	0.000000	-1.000000	-1.000000	148199.000000	1775777020.614498
-24211.035000	-8405.235000	7390.980000	22490.685000	14714.775000	-2607.660000	-7329.330000	9303.165000	1.540427	5.712458	10.725155	10.244568	6.170096	2.321462	-1.629012	-1.785147	-0.671440	0.259420	-1.068200	-0.654661	-0.272887	0.696531	-1.000000	-1.000000	-1.000000	-1.000000	-1.000000	-1.000000	-1.000000	59.000000	0.000000	-1.000000	-1.000000	148200.000000	1775777020.614511
-24199.065000	-8394.660000	7396.470000	22493.700000	14707.125000	-2612.340000	-7320.195000	9314.190000	-1.168073	2.289926	8.070181	9.578575	10.773674	3.859570	-3.363091	-2.921525	-0.671440	0.259420	-1.068200	-0.654661	-0.272887	0.696531	-1.000000	-1.000000	-1.000000	-1.000000	-1.000000	-1.000000	-1.000000	59.000000	0.000000	-1.000000	-1.000000	148201.000000	1775777020.614522
-24193.395000	-8392.995000	7391.520000	22482.495000	14695.065000	-2621.205000	-7324.065000	9312.930000	-2.533830	-1.567233	1.540443	3.764798	8.187732	1.830215	-3.550703	-2.426900	-1.129240	0.976640	-2.044840	-0.650084	-0.272399	0.695738	-1.000000	-1.000000	-1.000000	-1.000000	-1.000000	-1.000000	-1.000000	59.000000	0.000000	-1.000000	-1.000000	148202.000000	1775777020.614534
-24186.195000	-8388.630000	7392.735000	22481.280000	14701.905000	-2606.715000	-7317.540000	9316.485000	-1.957274	-4.099884	-5.480840	-4.065392	0.535924	-2.351666	-2.252327	-0.717265	-1.129240	0.976640	-2.044840	-0.650084	-0.272399	0.695738	-1.000000	-1.000000	-1.000000	-1.000000	-1.000000	-1.000000	-1.000000	59.000000	0.000000	-1.000000	-1.000000	148203.000000	1775777020.614544
-24191.505000	-8393.895000	7390.845000	22480.155000	14701.005000	-2603.295000	-7314.705000	9313.830000	-0.459422	-4.948504	-9.968943	-10.144658	-6.749310	-5.098107	-0.262042	0.914919	-1.129240	0.976640	-2.044840	-0.650084	-0.272399	0.695738	-1.000000	-1.000000	-1.000000	-1.000000	-1.000000	-1.000000	-1.000000	59.000000	0.000000	-1.000000	-1.000000	148204.000000	1775777020.614557
-24202.530000	-8405.145000	7379.730000	22470.660000	14693.220000	-2604.915000	-7326.630000	9301.320000	-0.121020	-5.073420	-10.713529	-11.859644	-9.413222	-4.308618	1.267907	1.133454	-1.129240	0.976640	-2.044840	-0.650084	-0.272399	0.695738	-1.000000	-1.000000	-1.000000	-1.000000	-1.000000	-1.000000	-1.000000	59.000000	0.000000	-1.000000	-1.000000	148205.000000	1775777020.614568
-24190.515000	-8393.805000	7391.790000	22480.875000	14706.270000	-2596.635000	-7323.615000	9309.735000	-1.786439	-5.150014	-8.260811	-8.991373	-7.095739	-1.218555	1.215979	-0.343150	-1.129240	0.976640	-2.044840	-0.650084	-0.272399	0.695738	-1.000000	-1.000000	-1.000000	-1.000000	-1.000000	-1.000000	-1.000000	59.000000	0.000000	-1.000000	-1.000000	148206.000000	1775777020.614580
-24188.805000	-8389.530000	7400.700000	22491.360000	14711.040000	-2605.320000	-7328.295000	9311.265000	-3.620279	-4.217764	-3.407703	-2.830324	-1.667839	1.631654	-0.278756	-1.969147	-1.129240	0.976640	-2.044840	-0.650084	-0.272399	0.695738	-1.000000	-1.000000	-1.000000	-1.000000	-1.000000	-1.000000	-1.000000	59.000000	0.000000	-1.000000	-1.000000	148207.000000	1775777020.614590
-24200.010000	-8400.825000	7392.330000	22486.905000	14700.915000	-2614.905000	-7330.590000	9301.860000	-3.627985	-1.526541	2.567974	4.403333	4.082468	2.266555	-1.826177	-2.082406	-1.129240	0.976640	-2.044840	-0.650084	-0.272399	0.695738	-1.000000	-1.000000	-1.000000	-1.000000	-1.000000	-1.000000	-1.000000	59.000000	0.000000	-1.000000	-1.000000	148208.000000	1775777020.614603
-24198.165000	-8400.285000	7389.630000	22479.345000	14694.570000	-2621.070000	-7331.715000	9301.680000	-2.246428	1.433517	6.830136	9.225920	6.812285	0.169888	-2.306870	-1.026550	-1.129240	0.976640	-2.044840	-0.650084	-0.272399	0.695738	-1.000000	-1.000000	-1.000000	-1.000000	-1.000000	-1.000000	-1.000000	59.000000	0.000000	-1.000000	-1.000000	148209.000000	1775777020.614613
-24187.140000	-8389.440000	7396.650000	22483.305000	14691.105000	-2635.920000	-7335.180000	9310.005000	-0.476173	3.130400	7.277556	9.074980	5.051429	-3.219114	-1.506861	0.236824	-1.129240	0.976640	-2.044840	-0.650084	-0.272399	0.695738	-1.000000	-1.000000	-1.000000	-1.000000	-1.000000	-1.000000	-1.000000	59.000000	0.000000	-1.000000	-1.000000	148210.000000	1775777020.614625
-24193.305000	-8397.540000	7387.335000	22471.155000	14672.160000	-2634.210000	-7329.735000	9307.935000	1.615365	3.755758	4.658328	4.700306	0.394189	-5.542890	0.159306	1.629106	-1.129240	0.976640	-2.044840	-0.650084	-0.272399	0.695738	-1.000000	-1.000000	-1.000000	-1.000000	-1.000000	-1.000000	-1.000000	59.000000	0.000000	-1.000000	-1.000000	148211.000000	1775777020.614636
-24208.020000	-8411.805000	7371.540000	22459.455000	14665.860000	-2625.120000	-7328.880000	9295.605000	3.133283	3.280402	0.655979	-1.234985	-4.439129	-4.707050	2.123422	2.648167	0.183120	1.571780	-0.824040	-0.644102	-0.271789	0.695128	-1.000000	-1.000000	-1.000000	-1.000000	-1.000000	-1.000000	-1.000000	59.000000	0.000000	-1.000000	-1.000000	148212.000000	1775777020.614650
-24205.140000	-8407.980000	7374.375000	22467.870000	14685.480000	-2611.935000	-7324.830000	9296.190000	2.573402	1.180270	-3.455359	-5.993729	-6.590319	0.081438	3.759144	2.113927	0.183120	1.571780	-0.824040	-0.644102	-0.271789	0.695128	-1.000000	-1.000000	-1.000000	-1.000000	-1.000000	-1.000000	-1.000000	59.000000	0.000000	-1.000000	-1.000000	148213.000000	1775777020.614661
-24197.895000	-8397.135000	7393.230000	22486.230000	14695.875000	-2613.690000	-7328.655000	9301.635000	0.607977	-1.206385	-5.451241	-6.771679	-3.648559	6.881979	4.279417	0.301557	0.183120	1.571780	-0.824040	-0.644102	-0.271789	0.695128	-1.000000	-1.000000	-1.000000	-1.000000	-1.000000	-1.000000	-1.000000	59.000000	0.000000	-1.000000	-1.000000	148214.000000	1775777020.614682
-24204.015000	-8404.245000	7387.245000	22482.180000	14709.825000	-2612.880000	-7333.380000	9299.205000	-0.489036	-1.611935	-3.295917	-2.549281	3.682063	11.496191	3.041217	-0.981223	0.183120	1.571780	-0.824040	-0.644102	-0.271789	0.695128	-1.000000	-1.000000	-1.000000	-1.000000	-1.000000	-1.000000	-1.000000	59.000000	0.000000	-1.000000	-1.000000	148215.000000	1775777020.614694
-24205.680000	-8409.330000	7375.095000	22466.205000	14698.755000	-2604.420000	-7331.355000	9298.305000	-0.075041	-0.185893	1.307213	3.319329	10.671402	10.908986	0.280413	-0.848817	0.183120	1.571780	-0.824040	-0.644102	-0.271789	0.695128	-1.000000	-1.000000	-1.000000	-1.000000	-1.000000	-1.000000	-1.000000	59.000000	0.000000	-1.000000	-1.000000	148216.000000	1775777020.614708
-24205.905000	-8406.180000	7382.610000	22477.590000	14697.720000	-2602.710000	-7330.320000	9297.000000	0.724143	1.060352	4.258186	5.930207	11.969015	5.836942	-2.523904	-0.023607	0.183120	1.571780	-0.824040	-0.644102	-0.271789	0.695128	-1.000000	-1.000000	-1.000000	-1.000000	-1.000000	-1.000000	-1.000000	59.000000	0.000000	-1.000000	-1.000000	148217.000000	1775777020.614718
-24199.155000	-8403.480000	7379.775000	22469.310000	14694.210000	-2598.705000	-7323.030000	9302.805000	1.188759	1.290281	3.978914	4.166602	6.205263	-0.690364	-3.643366	0.654334	0.183120	1.571780	-0.824040	-0.644102	-0.271789	0.695128	-1.000000	-1.000000	-1.000000	-1.000000	-1.000000	-1.000000	-1.000000	59.000000	0.000000	-1.000000	-1.000000	148218.000000	1775777020.614732
-24183.675000	-8390.205000	7389.810000	22475.070000	14691.465000	-2601.540000	-7315.065000	9316.665000	1.765266	1.310132	2.063079	0.512744	-2.991188	-5.996064	-2.400396	1.297625	0.183120	1.571780	-0.824040	-0.644102	-0.271789	0.695128	-1.000000	-1.000000	-1.000000	-1.000000	-1.000000	-1.000000	-1.000000	59.000000	0.000000	-1.000000	-1.000000	148219.000000	1775777020.614742
-24185.205000	-8394.210000	7386.615000	22472.550000	14676.300000	-2624.085000	-7322.355000	9314.910000	2.859255	1.818752	0.458658	-2.371914	-10.615852	-9.217539	0.195228	2.263796	0.183120	1.571780	-0.824040	-0.644102	-0.271789	0.695128	-1.000000	-1.000000	-1.000000	-1.000000	-1.000000	-1.000000	-1.000000	59.000000	0.000000	-1.000000	-1.000000	148220.000000	1775777020.614756
-24186.240000	-8393.175000	7392.195000	22480.695000	14680.395000	-2637.900000	-7327.305000	9312.120000	3.404782	2.125416	-0.229204	-3.149170	-13.657783	-11.072327	1.817004	2.714630	0.183120	1.571780	-0.824040	-0.644102	-0.271789	0.695128	-1.000000	-1.000000	-1.000000	-1.000000	-1.000000	-1.000000	-1.000000	59.000000	0.000000	-1.000000	-1.000000	148221.000000	1775777020.614766
-24182.550000	-8385.660000	7403.355000	22496.175000	14702.445000	-2627.055000	-7320.330000	9317.160000	1.943087	1.236542	-0.246873	-1.632533	-10.923001	-11.339056	1.098041	1.428084	-0.442540	1.419180	0.625660	-0.643492	-0.271789	0.695677	-1.000000	-1.000000	-1.000000	-1.000000	-1.000000	-1.000000	-1.000000	59.000000	0.000000	-1.000000	-1.000000	148222.000000	1775777020.614779
-24185.520000	-8391.825000	7393.050000	22482.630000	14715.675000	-2592.810000	-7310.520000	9317.745000	-1.255057	-0.610895	-0.008000	1.128413	-2.714233	-7.372846	-0.599416	-1.179007	-0.442540	1.419180	0.625660	-0.643492	-0.271789	0.695677	-1.000000	-1.000000	-1.000000	-1.000000	-1.000000	-1.000000	-1.000000	59.000000	0.000000	-1.000000	-1.000000	148223.000000	1775777020.614789
-24187.095000	-8392.815000	7395.840000	22489.560000	14711.310000	-2583.855000	-7313.040000	9316.305000	-4.556192	-2.652681	-0.395292	2.766217	7.405949	2.325434	-1.136592	-3.533419	-0.442540	1.419180	0.625660	-0.643492	-0.271789	0.695677	-1.000000	-1.000000	-1.000000	-1.000000	-1.000000	-1.000000	-1.000000	59.000000	0.000000	-1.000000	-1.000000	148224.000000	1775777020.614802
-24192.405000	-8396.955000	7390.935000	22483.845000	14702.220000	-2589.030000	-7321.815000	9309.285000	-6.529353	-4.319322	-1.883599	1.748705	13.274572	13.469093	-0.565068	-4.729045	-0.442540	1.419180	0.625660	-0.643492	-0.271789	0.695677	-1.000000	-1.000000	-1.000000	-1.000000	-1.000000	-1.000000	-1.000000	59.000000	0.000000	-1.000000	-1.000000	148225.000000	1775777020.614812
-24186.645000	-8391.690000	7392.195000	22478.760000	14689.755000	-2590.155000	-7317.765000	9314.010000	-6.414472	-4.863688	-3.596738	-1.150305	10.910882	18.380040	-0.439202	-4.696350	-0.442540	1.419180	0.625660	-0.643492	-0.271789	0.695677	-1.000000	-1.000000	-1.000000	-1.000000	-1.000000	-1.000000	-1.000000	59.000000	0.000000	-1.000000	-1.000000	148226.000000	1775777020.614825
-24185.340000	-8392.230000	7389.630000	22474.980000	14689.485000	-2588.715000	-7311.555000	9317.700000	-4.019755	-3.617578	-4.241137	-4.162994	2.075995	13.563360	-0.958885	-3.290927	-0.442540	1.419180	0.625660	-0.643492	-0.271789	0.695677	-1.000000	-1.000000	-1.000000	-1.000000	-1.000000	-1.000000	-1.000000	59.000000	0.000000	-1.000000	-1.000000	148227.000000	1775777020.614835
-24177.465000	-8384.490000	7397.460000	22484.745000	14701.275000	-2595.735000	-7307.370000	9326.880000	0.024018	-0.758380	-3.118191	-5.454936	-6.947064	2.407523	-0.854608	-0.394908	-0.442540	1.419180	0.625660	-0.643492	-0.271789	0.695677	-1.000000	-1.000000	-1.000000	-1.000000	-1.000000	-1.000000	-1.000000	59.000000	0.000000	-1.000000	-1.000000	148228.000000	1775777020.614848
-24174.945000	-8389.080000	7391.700000	22484.295000	14704.830000	-2595.870000	-7304.175000	9328.320000	4.201898	2.493816	-0.522653	-3.796245	-10.203113	-8.740350	0.407823	3.189146	-0.442540	1.419180	0.625660	-0.643492	-0.271789	0.695677	-1.000000	-1.000000	-1.000000	-1.000000	-1.000000	-1.000000	-1.000000	59.000000	0.000000	-1.000000	-1.000000	148229.000000	1775777020.614858
-24175.665000	-8391.870000	7385.130000	22484.610000	14693.985000	-2587.545000	-7296.705000	9329.130000	6.685451	4.385497	2.045832	0.076590	-6.875832	-14.695176	2.024214	5.687590	-0.442540	1.419180	0.625660	-0.643492	-0.271789	0.695677	-1.000000	-1.000000	-1.000000	-1.000000	-1.000000	-1.000000	-1.000000	59.000000	0.000000	-1.000000	-1.000000	148230.000000	1775777020.614871
-24178.140000	-8386.650000	7398.090000	22499.055000	14706.495000	-2595.330000	-7304.175000	9323.505000	6.211435	3.961340	3.185050	3.996365	-0.895792	-13.564141	2.780849	5.481051	-0.442540	1.419180	0.625660	-0.643492	-0.271789	0.695677	-1.000000	-1.000000	-1.000000	-1.000000	-1.000000	-1.000000	-1.000000	59.000000	0.000000	-1.000000	-1.000000	148231.000000	1775777020.614881
-24187.455000	-8388.990000	7411.095000	22513.500000	14729.580000	-2605.230000	-7316.460000	9313.155000	2.846998	2.007824	3.464805	6.643616	4.312407	-7.648156	1.546734	2.265757	-0.885080	0.152600	1.953280	-0.647948	-0.271911	0.697325	-1.000000	-1.000000	-1.000000	-1.000000	-1.000000	-1.000000	-1.000000	59.000000	0.000000	-1.000000	-1.000000	148232.000000	1775777020.614894
-24196.365000	-8383.320000	7405.695000	22498.785000	14723.145000	-2598.615000	-7320.510000	9306.495000	-2.036833	0.045761	3.987982	7.354589	7.753259	-1.118727	-1.826302	-2.638108	-0.885080	0.152600	1.953280	-0.647948	-0.271911	0.697325	-1.000000	-1.000000	-1.000000	-1.000000	-1.000000	-1.000000	-1.000000	59.000000	0.000000	-1.000000	-1.000000	148233.000000	1775777020.614904
-24180.975000	-8369.685000	7412.175000	22493.745000	14701.950000	-2602.035000	-7306.515000	9325.530000	-5.960855	-0.734329	4.037412	4.799382	7.853712	3.658493	-5.153962	-6.339223	-0.885080	0.152600	1.953280	-0.647948	-0.271911	0.697325	-1.000000	-1.000000	-1.000000	-1.000000	-1.000000	-1.000000	-1.000000	59.000000	0.000000	-1.000000	-1.000000	148234.000000	1775777020.614916
-24182.775000	-8375.220000	7407.675000	22491.495000	14689.485000	-2627.055000	-7314.165000	9326.295000	-6.241365	-0.028575	2.367380	-1.037391	2.747437	5.862503	-5.394104	-5.817830	-0.885080	0.152600	1.953280	-0.647948	-0.271911	0.697325	-1.000000	-1.000000	-1.000000	-1.000000	-1.000000	-1.000000	-1.000000	59.000000	0.000000	-1.000000	-1.000000	148235.000000	1775777020.614927
-24178.770000	-8375.265000	7410.870000	22498.740000	14701.410000	-2607.030000	-7306.785000	9331.875000	-2.574841	0.878105	-0.810302	-6.997538	-5.417000	5.241697	-2.123591	-1.091177	-0.885080	0.152600	1.953280	-0.647948	-0.271911	0.697325	-1.000000	-1.000000	-1.000000	-1.000000	-1.000000	-1.000000	-1.000000	59.000000	0.000000	-1.000000	-1.000000	148236.000000	1775777020.614940
-24185.115000	-8390.745000	7394.130000	22487.985000	14708.880000	-2578.320000	-7307.010000	9319.185000	2.231806	0.130756	-4.297653	-9.422801	-10.546427	4.133042	2.339566	4.151339	-0.885080	0.152600	1.953280	-0.647948	-0.271911	0.697325	-1.000000	-1.000000	-1.000000	-1.000000	-1.000000	-1.000000	-1.000000	59.000000	0.000000	-1.000000	-1.000000	148237.000000	1775777020.614950
