Channel1	Channel2	Channel3	Channel4	Channel5	Channel6	Channel7	Channel8	FilteredChannel1	FilteredChannel2	FilteredChannel3	FilteredChannel4	FilteredChannel5	FilteredChannel6	FilteredChannel7	FilteredChannel8	GyroX	GyroY	GyroZ	AccX	AccY	AccZ	PPG1	PPG2	rawPPG1	rawPPG2	rawPPG3	Hr	Hrv	Battery	Trigger	PhysicalTrigger	AutoTrigger	NumMeasurements	Timestamp
-24457.050000	-21629.565000	5050.035000	282823.920000	301103.370000	282156.255000	-27055.890000	-45976.455000	0.800683	0.091648	-2.391052	-5.294943	4.680374	-19.543081	0.134790	2.397104	2.731540	1.800680	-0.076300	-0.727842	0.070190	0.664671	-1.000000	-1.000000	-1.000000	-1.000000	-1.000000	-1.000000	-1.000000	52.000000	0.000000	-1.000000	-1.000000	649831.000000	1775788213.342614
-24462.810000	-21635.370000	5045.085000	282826.080000	301100.625000	282154.050000	-27049.905000	-45979.830000	6.420750	7.752125	7.458664	9.436790	11.998943	1.347944	-2.044151	4.386311	2.731540	1.800680	-0.076300	-0.727842	0.070190	0.664671	-1.000000	-1.000000	-1.000000	-1.000000	-1.000000	-1.000000	-1.000000	52.000000	0.000000	-1.000000	-1.000000	649832.000000	1775788213.342641
-24467.175000	-21641.220000	5038.110000	282829.410000	301107.960000	282155.130000	-27045.630000	-45983.610000	8.428874	11.136770	13.040139	18.417697	13.137239	16.491160	-3.035299	3.597831	2.731540	1.800680	-0.076300	-0.727842	0.070190	0.664671	-1.000000	-1.000000	-1.000000	-1.000000	-1.000000	-1.000000	-1.000000	52.000000	0.000000	-1.000000	-1.000000	649833.000000	1775788213.342666
-24465.465000	-21639.285000	5040.270000	282829.185000	301106.475000	282154.590000	-27048.555000	-45984.555000	5.670867	8.625916	11.689855	20.647430	10.910224	23.331505	-2.234760	0.173278	2.731540	1.800680	-0.076300	-0.727842	0.070190	0.664671	-1.000000	-1.000000	-1.000000	-1.000000	-1.000000	-1.000000	-1.000000	52.000000	0.000000	-1.000000	-1.000000	649834.000000	1775788213.342678
-24465.420000	-21639.465000	5039.955000	282827.430000	301106.025000	282154.230000	-27050.895000	-45985.905000	0.458267	2.636871	5.426575	17.024783	7.424380	22.508798	-0.605555	-3.713688	2.731540	1.800680	-0.076300	-0.727842	0.070190	0.664671	-1.000000	-1.000000	-1.000000	-1.000000	-1.000000	-1.000000	-1.000000	52.000000	0.000000	-1.000000	-1.000000	649835.000000	1775788213.342692
-24461.235000	-21635.685000	5040.405000	282798.180000	301034.700000	282126.150000	-27056.970000	-45982.890000	-3.776203	-2.847175	-1.390949	9.240420	2.395522	16.001544	0.285674	-5.720467	2.731540	1.800680	-0.076300	-0.727842	0.070190	0.664671	-1.000000	-1.000000	-1.000000	-1.000000	-1.000000	-1.000000	-1.000000	52.000000	0.000000	-1.000000	-1.000000	649836.000000	1775788213.342703
-24458.490000	-21629.340000	5049.270000	282798.270000	301103.595000	282127.230000	-27063.315000	-45989.100000	-5.031806	-5.192585	-5.387692	-0.596397	-4.325658	6.141000	-0.227731	-4.988116	2.731540	1.800680	-0.076300	-0.727842	0.070190	0.664671	-1.000000	-1.000000	-1.000000	-1.000000	-1.000000	-1.000000	-1.000000	52.000000	0.000000	-1.000000	-1.000000	649837.000000	1775788213.342716
-24462.765000	-21632.535000	5047.695000	282814.020000	301127.985000	282142.440000	-27063.765000	-45996.480000	-3.614935	-4.241538	-5.549723	-8.517437	-7.172618	-3.030915	-1.510103	-2.624705	2.731540	1.800680	-0.076300	-0.727842	0.070190	0.664671	-1.000000	-1.000000	-1.000000	-1.000000	-1.000000	-1.000000	-1.000000	52.000000	0.000000	-1.000000	-1.000000	649838.000000	1775788213.342726
-24466.140000	-21635.505000	5044.860000	282814.830000	301114.575000	282140.370000	-27058.005000	-45998.190000	-1.449413	-1.924704	-3.285910	-10.035882	-1.250550	-6.879701	-2.048967	-0.440568	2.731540	1.800680	-0.076300	-0.727842	0.070190	0.664671	-1.000000	-1.000000	-1.000000	-1.000000	-1.000000	-1.000000	-1.000000	52.000000	0.000000	-1.000000	-1.000000	649839.000000	1775788213.347690
-24464.880000	-21631.680000	5049.720000	282816.495000	301105.215000	282137.850000	-27053.730000	-45996.165000	-0.186421	-0.334647	-0.953419	-4.976543	7.686696	-4.821189	-0.646890	0.912609	2.731540	1.800680	-0.076300	-0.727842	0.070190	0.664671	-1.000000	-1.000000	-1.000000	-1.000000	-1.000000	-1.000000	-1.000000	52.000000	0.000000	-1.000000	-1.000000	649840.000000	1775788213.347712
-24457.905000	-21621.960000	5060.340000	282820.500000	301099.770000	282139.335000	-27050.220000	-45988.740000	0.210231	0.240009	0.468598	2.155761	10.181383	-0.601578	2.293318	2.099395	1.892240	-0.442540	0.045780	-0.725889	0.069397	0.667357	-1.000000	-1.000000	-1.000000	-1.000000	-1.000000	-1.000000	-1.000000	52.000000	0.000000	-1.000000	-1.000000	649841.000000	1775788213.356356
-24454.845000	-21623.715000	5055.930000	282796.965000	301034.025000	282115.845000	-27041.535000	-45976.230000	0.772266	0.706905	1.334218	6.295215	3.137023	1.724314	5.049351	3.854905	1.892240	-0.442540	0.045780	-0.725889	0.069397	0.667357	-1.000000	-1.000000	-1.000000	-1.000000	-1.000000	-1.000000	-1.000000	52.000000	0.000000	-1.000000	-1.000000	649842.000000	1775788213.356380
-24459.840000	-21637.125000	5040.630000	282801.825000	301106.880000	282122.190000	-27039.510000	-45974.475000	1.696461	0.940490	1.258933	4.978630	-8.642716	0.491063	6.061832	5.851351	1.892240	-0.442540	0.045780	-0.725889	0.069397	0.667357	-1.000000	-1.000000	-1.000000	-1.000000	-1.000000	-1.000000	-1.000000	52.000000	0.000000	-1.000000	-1.000000	649843.000000	1775788213.356421
-24460.020000	-21639.645000	5034.735000	282795.480000	301065.435000	282117.375000	-27048.645000	-45978.840000	1.979788	-0.179963	-0.741548	-0.057046	-15.236553	-2.587917	4.507042	6.395947	1.892240	-0.442540	0.045780	-0.725889	0.069397	0.667357	-1.000000	-1.000000	-1.000000	-1.000000	-1.000000	-1.000000	-1.000000	52.000000	0.000000	-1.000000	-1.000000	649844.000000	1775788213.356434
-24463.260000	-21641.085000	5034.690000	282791.745000	301102.695000	282116.205000	-27053.325000	-45986.670000	0.949061	-2.402649	-3.838228	-4.645076	-11.094375	-4.306749	0.361753	3.768947	1.892240	-0.442540	0.045780	-0.725889	0.069397	0.667357	-1.000000	-1.000000	-1.000000	-1.000000	-1.000000	-1.000000	-1.000000	52.000000	0.000000	-1.000000	-1.000000	649845.000000	1775788213.360598
-24462.225000	-21638.835000	5040.450000	282811.410000	301134.330000	282135.015000	-27055.170000	-45989.820000	-0.804499	-3.736706	-5.255549	-5.678207	0.747022	-2.935078	-4.849772	-1.681587	1.892240	-0.442540	0.045780	-0.725889	0.069397	0.667357	-1.000000	-1.000000	-1.000000	-1.000000	-1.000000	-1.000000	-1.000000	52.000000	0.000000	-1.000000	-1.000000	649846.000000	1775788213.360618
-24450.930000	-21625.155000	5051.385000	282788.280000	301040.730000	282107.520000	-27052.155000	-45980.820000	-1.870680	-2.449366	-2.948642	-2.813176	12.151404	0.706119	-8.299345	-7.019633	1.892240	-0.442540	0.045780	-0.725889	0.069397	0.667357	-1.000000	-1.000000	-1.000000	-1.000000	-1.000000	-1.000000	-1.000000	52.000000	0.000000	-1.000000	-1.000000	649847.000000	1775788213.361967
-24451.020000	-21623.220000	5053.725000	282794.535000	301100.265000	282110.625000	-27045.000000	-45979.245000	-1.158483	1.397062	2.340718	1.194579	14.084967	3.465202	-7.786774	-8.783888	1.892240	-0.442540	0.045780	-0.725889	0.069397	0.667357	-1.000000	-1.000000	-1.000000	-1.000000	-1.000000	-1.000000	-1.000000	52.000000	0.000000	-1.000000	-1.000000	649848.000000	1775788213.361983
-24465.690000	-21638.475000	5040.270000	282818.160000	301133.115000	282131.730000	-27046.125000	-45991.530000	0.496850	5.276355	7.123317	3.797615	7.392675	3.547875	-3.497957	-6.300026	1.892240	-0.442540	0.045780	-0.725889	0.069397	0.667357	-1.000000	-1.000000	-1.000000	-1.000000	-1.000000	-1.000000	-1.000000	52.000000	0.000000	-1.000000	-1.000000	649849.000000	1775788213.366079
-24469.470000	-21641.985000	5037.660000	282820.005000	301109.445000	282132.225000	-27047.340000	-45995.580000	0.805097	5.752363	7.668389	5.385648	1.448484	2.858324	1.920494	-2.264785	1.892240	-0.442540	0.045780	-0.725889	0.069397	0.667357	-1.000000	-1.000000	-1.000000	-1.000000	-1.000000	-1.000000	-1.000000	52.000000	0.000000	-1.000000	-1.000000	649850.000000	1775788213.366097
-24466.230000	-21639.420000	5040.585000	282821.130000	301110.885000	282134.430000	-27042.030000	-45989.415000	-0.815723	2.262038	3.648531	6.196896	-0.926128	2.915346	5.464075	0.731889	0.366240	-1.571780	-0.305200	-0.726194	0.072388	0.671019	-1.000000	-1.000000	-1.000000	-1.000000	-1.000000	-1.000000	-1.000000	52.000000	0.000000	-1.000000	-1.000000	649851.000000	1775788213.369505
-24467.265000	-21641.400000	5038.200000	282818.160000	301104.810000	282132.585000	-27043.425000	-45988.740000	-2.366241	-2.162285	-1.626067	4.736502	-3.271578	2.560346	5.996136	2.557958	0.366240	-1.571780	-0.305200	-0.726194	0.072388	0.671019	-1.000000	-1.000000	-1.000000	-1.000000	-1.000000	-1.000000	-1.000000	52.000000	0.000000	-1.000000	-1.000000	649852.000000	1775788213.369526
-24466.050000	-21638.655000	5041.305000	282813.930000	301109.265000	282130.380000	-27047.205000	-45991.395000	-2.030173	-4.356400	-4.752330	0.402312	-6.592416	0.511942	4.070106	3.846404	0.366240	-1.571780	-0.305200	-0.726194	0.072388	0.671019	-1.000000	-1.000000	-1.000000	-1.000000	-1.000000	-1.000000	-1.000000	52.000000	0.000000	-1.000000	-1.000000	649853.000000	1775788213.384821
-24461.190000	-21631.950000	5047.875000	282809.115000	301102.155000	282125.070000	-27051.885000	-45991.485000	0.099035	-3.381189	-4.522290	-5.208401	-8.845099	-2.883990	0.764427	4.329210	0.366240	-1.571780	-0.305200	-0.726194	0.072388	0.671019	-1.000000	-1.000000	-1.000000	-1.000000	-1.000000	-1.000000	-1.000000	52.000000	0.000000	-1.000000	-1.000000	649854.000000	1775788213.384845
-24453.945000	-21622.725000	5058.090000	282809.790000	301103.280000	282123.945000	-27060.255000	-45991.395000	2.847184	-0.123702	-1.580590	-9.360799	-8.340363	-6.057230	-2.701458	3.599200	0.366240	-1.571780	-0.305200	-0.726194	0.072388	0.671019	-1.000000	-1.000000	-1.000000	-1.000000	-1.000000	-1.000000	-1.000000	52.000000	0.000000	-1.000000	-1.000000	649855.000000	1775788213.386009
-24452.505000	-21621.375000	5060.520000	282809.835000	301102.560000	282122.280000	-27061.875000	-45992.205000	4.904510	3.519788	2.277656	-9.868244	-5.121031	-7.293764	-5.089066	1.955382	0.366240	-1.571780	-0.305200	-0.726194	0.072388	0.671019	-1.000000	-1.000000	-1.000000	-1.000000	-1.000000	-1.000000	-1.000000	52.000000	0.000000	-1.000000	-1.000000	649856.000000	1775788213.386028
-24457.365000	-21628.530000	5051.655000	282812.130000	301100.445000	282120.570000	-27052.470000	-45992.430000	5.023816	5.202975	4.550042	-6.427438	-0.503202	-5.841830	-5.174557	0.102898	0.366240	-1.571780	-0.305200	-0.726194	0.072388	0.671019	-1.000000	-1.000000	-1.000000	-1.000000	-1.000000	-1.000000	-1.000000	52.000000	0.000000	-1.000000	-1.000000	649857.000000	1775788213.386050
-24457.590000	-21629.610000	5048.505000	282815.910000	301104.225000	282122.505000	-27042.750000	-45988.695000	2.620085	3.451472	3.334487	-0.702318	3.761898	-2.341048	-2.192429	-1.257585	0.366240	-1.571780	-0.305200	-0.726194	0.072388	0.671019	-1.000000	-1.000000	-1.000000	-1.000000	-1.000000	-1.000000	-1.000000	52.000000	0.000000	-1.000000	-1.000000	649858.000000	1775788213.386062
-24457.860000	-21628.935000	5049.720000	282815.685000	301107.780000	282122.460000	-27044.055000	-45988.920000	-1.305204	-0.779793	-0.740461	4.754193	6.467530	1.742892	2.804694	-1.672031	0.366240	-1.571780	-0.305200	-0.726194	0.072388	0.671019	-1.000000	-1.000000	-1.000000	-1.000000	-1.000000	-1.000000	-1.000000	52.000000	0.000000	-1.000000	-1.000000	649859.000000	1775788213.386096
-24460.020000	-21629.520000	5049.945000	282815.145000	301106.880000	282123.135000	-27049.725000	-45993.195000	-4.662537	-4.692532	-4.713755	7.719959	7.216337	4.885699	6.661825	-1.361162	0.366240	-1.571780	-0.305200	-0.726194	0.072388	0.671019	-1.000000	-1.000000	-1.000000	-1.000000	-1.000000	-1.000000	-1.000000	52.000000	0.000000	-1.000000	-1.000000	649860.000000	1775788213.386108
-24453.585000	-21624.165000	5052.375000	282786.075000	301031.910000	282095.955000	-27044.055000	-45986.040000	-5.793531	-5.974164	-5.944355	6.787102	4.646071	5.590954	6.702708	-0.938499	-0.045780	-1.480220	0.259420	-0.721800	0.075744	0.673094	-1.000000	-1.000000	-1.000000	-1.000000	-1.000000	-1.000000	-1.000000	52.000000	0.000000	-1.000000	-1.000000	649861.000000	1775788213.406971
-24458.985000	-21629.205000	5047.470000	282788.280000	301102.110000	282100.140000	-27045.810000	-45990.630000	-4.377690	-4.288542	-4.101649	1.994358	-1.675639	3.045087	3.300410	-0.590332	-0.045780	-1.480220	0.259420	-0.721800	0.075744	0.673094	-1.000000	-1.000000	-1.000000	-1.000000	-1.000000	-1.000000	-1.000000	52.000000	0.000000	-1.000000	-1.000000	649862.000000	1775788213.406996
-24457.680000	-21627.585000	5051.295000	282805.515000	301126.095000	282115.620000	-27044.910000	-45991.215000	-1.569899	-1.149638	-0.801531	-3.437037	-5.592290	-0.692789	-1.058386	-0.340814	-0.045780	-1.480220	0.259420	-0.721800	0.075744	0.673094	-1.000000	-1.000000	-1.000000	-1.000000	-1.000000	-1.000000	-1.000000	52.000000	0.000000	-1.000000	-1.000000	649863.000000	1775788213.407022
-24457.950000	-21627.990000	5048.460000	282779.280000	301037.130000	282085.650000	-27045.540000	-45990.405000	0.989616	1.554014	2.107377	-5.239655	-2.405063	-2.300245	-4.184910	-0.341565	-0.045780	-1.480220	0.259420	-0.721800	0.075744	0.673094	-1.000000	-1.000000	-1.000000	-1.000000	-1.000000	-1.000000	-1.000000	52.000000	0.000000	-1.000000	-1.000000	649864.000000	1775788213.407033
-24469.425000	-21640.140000	5036.265000	282793.230000	301114.305000	282096.810000	-27051.075000	-46000.305000	2.222960	2.683118	3.368352	-3.070632	2.379979	-1.620556	-5.254398	-0.598928	-0.045780	-1.480220	0.259420	-0.721800	0.075744	0.673094	-1.000000	-1.000000	-1.000000	-1.000000	-1.000000	-1.000000	-1.000000	52.000000	0.000000	-1.000000	-1.000000	649865.000000	1775788213.407047
-24468.255000	-21639.735000	5038.695000	282810.150000	301115.655000	282110.040000	-27051.885000	-46001.430000	1.781530	1.928787	2.518079	0.962441	4.783936	0.049180	-4.649479	-1.106014	-0.045780	-1.480220	0.259420	-0.721800	0.075744	0.673094	-1.000000	-1.000000	-1.000000	-1.000000	-1.000000	-1.000000	-1.000000	52.000000	0.000000	-1.000000	-1.000000	649866.000000	1775788213.407057
-24464.295000	-21633.975000	5044.095000	282809.610000	301104.765000	282108.195000	-27051.750000	-45999.405000	0.529101	0.326499	0.718106	5.457533	6.498799	2.620066	-3.050944	-1.495765	-0.045780	-1.480220	0.259420	-0.721800	0.075744	0.673094	-1.000000	-1.000000	-1.000000	-1.000000	-1.000000	-1.000000	-1.000000	52.000000	0.000000	-1.000000	-1.000000	649867.000000	1775788213.407070
-24458.580000	-21627.180000	5048.910000	282784.635000	301037.265000	282083.445000	-27049.455000	-45994.590000	0.160592	-0.148905	0.039508	7.879154	5.023081	4.585304	-0.843665	-0.880403	-0.045780	-1.480220	0.259420	-0.721800	0.075744	0.673094	-1.000000	-1.000000	-1.000000	-1.000000	-1.000000	-1.000000	-1.000000	52.000000	0.000000	-1.000000	-1.000000	649868.000000	1775788213.407080
-24462.180000	-21629.970000	5047.785000	282792.645000	301118.265000	282093.120000	-27051.525000	-45999.810000	1.246701	1.191976	1.087972	5.367810	-2.069162	3.334108	1.518220	0.910269	-0.045780	-1.480220	0.259420	-0.721800	0.075744	0.673094	-1.000000	-1.000000	-1.000000	-1.000000	-1.000000	-1.000000	-1.000000	52.000000	0.000000	-1.000000	-1.000000	649869.000000	1775788213.407093
-24460.785000	-21630.195000	5047.605000	282783.600000	301077.450000	282085.920000	-27046.440000	-45996.615000	2.546727	2.851021	2.449715	-0.928869	-8.767562	-0.605121	3.319660	2.714854	-0.045780	-1.480220	0.259420	-0.721800	0.075744	0.673094	-1.000000	-1.000000	-1.000000	-1.000000	-1.000000	-1.000000	-1.000000	52.000000	0.000000	-1.000000	-1.000000	649870.000000	1775788213.407103
-24461.280000	-21632.400000	5043.780000	282770.955000	301090.635000	282074.535000	-27046.080000	-45995.130000	2.629237	2.961576	2.434756	-6.860785	-9.066390	-4.233916	4.068388	3.369236	-0.412020	0.289940	1.526000	-0.716063	0.074951	0.676329	-1.000000	-1.000000	-1.000000	-1.000000	-1.000000	-1.000000	-1.000000	52.000000	0.000000	-1.000000	-1.000000	649871.000000	1775788213.413316
-24465.240000	-21638.070000	5039.685000	282794.310000	301139.100000	282095.820000	-27049.545000	-46000.485000	1.234572	1.089275	0.600202	-9.123655	-3.641398	-5.378038	3.592474	2.653656	-0.412020	0.289940	1.526000	-0.716063	0.074951	0.676329	-1.000000	-1.000000	-1.000000	-1.000000	-1.000000	-1.000000	-1.000000	52.000000	0.000000	-1.000000	-1.000000	649872.000000	1775788213.413345
-24462.405000	-21635.955000	5041.530000	282797.370000	301120.920000	282095.145000	-27047.340000	-45998.145000	-0.881629	-1.713413	-2.045320	-6.129319	4.584234	-3.067910	1.940123	0.913516	-0.412020	0.289940	1.526000	-0.716063	0.074951	0.676329	-1.000000	-1.000000	-1.000000	-1.000000	-1.000000	-1.000000	-1.000000	52.000000	0.000000	-1.000000	-1.000000	649873.000000	1775788213.418564
-24462.990000	-21634.920000	5042.385000	282800.835000	301112.910000	282094.605000	-27053.955000	-46000.845000	-2.520733	-3.685860	-3.769035	0.760362	10.492790	1.568154	-0.351786	-1.084924	-0.412020	0.289940	1.526000	-0.716063	0.074951	0.676329	-1.000000	-1.000000	-1.000000	-1.000000	-1.000000	-1.000000	-1.000000	52.000000	0.000000	-1.000000	-1.000000	649874.000000	1775788213.418587
-24464.970000	-21636.135000	5041.080000	282804.210000	301117.860000	282097.260000	-27056.970000	-46003.770000	-2.884112	-3.635486	-3.502851	7.140545	8.929359	5.246021	-2.506579	-2.484011	-0.412020	0.289940	1.526000	-0.716063	0.074951	0.676329	-1.000000	-1.000000	-1.000000	-1.000000	-1.000000	-1.000000	-1.000000	52.000000	0.000000	-1.000000	-1.000000	649875.000000	1775788213.424598
-24466.545000	-21639.510000	5036.895000	282803.355000	301115.610000	282096.405000	-27054.495000	-46004.355000	-2.171602	-1.948489	-1.752784	9.208347	1.104500	5.639704	-3.770590	-2.918664	-0.412020	0.289940	1.526000	-0.716063	0.074951	0.676329	-1.000000	-1.000000	-1.000000	-1.000000	-1.000000	-1.000000	-1.000000	52.000000	0.000000	-1.000000	-1.000000	649876.000000	1775788213.424622
-24462.405000	-21634.515000	5041.710000	282800.790000	301117.410000	282095.145000	-27055.080000	-46001.565000	-0.983699	0.105249	0.200906	6.280235	-7.119247	2.966859	-3.443679	-2.335495	-0.412020	0.289940	1.526000	-0.716063	0.074951	0.676329	-1.000000	-1.000000	-1.000000	-1.000000	-1.000000	-1.000000	-1.000000	52.000000	0.000000	-1.000000	-1.000000	649877.000000	1775788213.424646
-24463.350000	-21632.130000	5044.320000	282796.245000	301114.755000	282092.355000	-27061.470000	-46006.920000	0.338574	1.755007	1.693455	0.318549	-11.097813	-1.048188	-1.678241	-0.940426	-0.412020	0.289940	1.526000	-0.716063	0.074951	0.676329	-1.000000	-1.000000	-1.000000	-1.000000	-1.000000	-1.000000	-1.000000	52.000000	0.000000	-1.000000	-1.000000	649878.000000	1775788213.424663
-24464.295000	-21631.905000	5045.625000	282769.380000	301049.010000	282063.915000	-27069.570000	-46017.990000	1.434036	2.774889	2.670677	-6.028868	-10.959825	-4.925087	0.176467	0.333088	-0.412020	0.289940	1.526000	-0.716063	0.074951	0.676329	-1.000000	-1.000000	-1.000000	-1.000000	-1.000000	-1.000000	-1.000000	52.000000	0.000000	-1.000000	-1.000000	649879.000000	1775788213.426287
-24468.345000	-21635.955000	5043.420000	282774.330000	301119.795000	282068.010000	-27069.390000	-46025.955000	1.739705	2.792909	2.878786	-10.680704	-9.053204	-7.968787	0.941249	0.338864	-0.412020	0.289940	1.526000	-0.716063	0.074951	0.676329	-1.000000	-1.000000	-1.000000	-1.000000	-1.000000	-1.000000	-1.000000	52.000000	0.000000	-1.000000	-1.000000	649880.000000	1775788213.426306
-24475.500000	-21642.120000	5037.885000	282791.340000	301144.545000	282082.590000	-27067.185000	-46031.310000	0.916104	1.426491	1.877979	-11.142628	-3.276670	-8.449049	0.935761	-0.865256	0.244160	1.144500	1.190280	-0.714842	0.071960	0.679930	-1.000000	-1.000000	-1.000000	-1.000000	-1.000000	-1.000000	-1.000000	52.000000	0.000000	-1.000000	-1.000000	649881.000000	1775788213.431914
-24472.080000	-21631.815000	5047.560000	282791.115000	301115.205000	282078.945000	-27065.745000	-46027.710000	-0.626371	-0.767202	-0.052460	-5.617654	7.837895	-4.352703	1.274822	-1.756256	0.244160	1.144500	1.190280	-0.714842	0.071960	0.679930	-1.000000	-1.000000	-1.000000	-1.000000	-1.000000	-1.000000	-1.000000	52.000000	0.000000	-1.000000	-1.000000	649882.000000	1775788213.432454
-24463.935000	-21620.655000	5060.610000	282799.665000	301122.720000	282085.830000	-27048.645000	-46016.145000	-1.520749	-1.942608	-1.339000	3.602943	17.021938	2.913892	2.553782	-0.589807	0.244160	1.144500	1.190280	-0.714842	0.071960	0.679930	-1.000000	-1.000000	-1.000000	-1.000000	-1.000000	-1.000000	-1.000000	52.000000	0.000000	-1.000000	-1.000000	649883.000000	1775788213.434967
-24458.175000	-21621.825000	5058.855000	282798.495000	301112.685000	282084.660000	-27041.895000	-46005.390000	-0.499299	-0.849455	-0.693015	11.202733	16.585365	9.103676	4.572293	3.048255	0.244160	1.144500	1.190280	-0.714842	0.071960	0.679930	-1.000000	-1.000000	-1.000000	-1.000000	-1.000000	-1.000000	-1.000000	52.000000	0.000000	-1.000000	-1.000000	649884.000000	1775788213.434991
-24453.675000	-21627.315000	5049.855000	282798.090000	301119.120000	282085.875000	-27048.780000	-46001.610000	2.024339	1.150452	0.703871	13.152495	7.504007	10.949812	5.907377	7.368810	0.244160	1.144500	1.190280	-0.714842	0.071960	0.679930	-1.000000	-1.000000	-1.000000	-1.000000	-1.000000	-1.000000	-1.000000	52.000000	0.000000	-1.000000	-1.000000	649885.000000	1775788213.437637
-24449.355000	-21625.695000	5049.045000	282791.160000	301114.755000	282081.915000	-27046.755000	-46002.330000	4.173952	1.624532	0.484767	8.891612	-3.624585	7.947945	4.459610	9.244836	0.244160	1.144500	1.190280	-0.714842	0.071960	0.679930	-1.000000	-1.000000	-1.000000	-1.000000	-1.000000	-1.000000	-1.000000	52.000000	0.000000	-1.000000	-1.000000	649886.000000	1775788213.437656
-24454.215000	-21629.205000	5044.590000	282787.155000	301122.855000	282078.720000	-27047.025000	-46011.555000	4.200974	-0.004733	-1.738607	0.961810	-10.698170	1.941026	0.011998	6.505083	0.244160	1.144500	1.190280	-0.714842	0.071960	0.679930	-1.000000	-1.000000	-1.000000	-1.000000	-1.000000	-1.000000	-1.000000	52.000000	0.000000	-1.000000	-1.000000	649887.000000	1775788213.441729
-24453.315000	-21624.120000	5051.655000	282784.680000	301116.510000	282074.490000	-27048.960000	-46016.055000	1.639356	-2.244039	-3.994748	-6.649810	-11.435229	-4.226074	-5.118510	-0.286285	0.244160	1.144500	1.190280	-0.714842	0.071960	0.679930	-1.000000	-1.000000	-1.000000	-1.000000	-1.000000	-1.000000	-1.000000	52.000000	0.000000	-1.000000	-1.000000	649888.000000	1775788213.441750
-24460.245000	-21630.735000	5046.255000	282785.310000	301122.270000	282073.995000	-27050.715000	-46026.180000	-2.395369	-3.384433	-4.212474	-10.530531	-7.419694	-8.064273	-8.332864	-7.986399	0.244160	1.144500	1.190280	-0.714842	0.071960	0.679930	-1.000000	-1.000000	-1.000000	-1.000000	-1.000000	-1.000000	-1.000000	52.000000	0.000000	-1.000000	-1.000000	649889.000000	1775788213.451092
-24466.455000	-21638.880000	5037.390000	282786.570000	301120.110000	282071.745000	-27049.770000	-46033.110000	-6.023545	-3.114795	-2.375791	-9.410932	-1.852881	-8.363237	-8.413987	-12.922330	0.244160	1.144500	1.190280	-0.714842	0.071960	0.679930	-1.000000	-1.000000	-1.000000	-1.000000	-1.000000	-1.000000	-1.000000	52.000000	0.000000	-1.000000	-1.000000	649890.000000	1775788213.451119
-24459.480000	-21631.545000	5044.455000	282792.330000	301120.245000	282073.545000	-27049.005000	-46031.895000	-7.546131	-2.107227	-0.047048	-4.450100	2.581227	-5.524328	-5.625741	-12.898874	0.839300	0.778260	2.014320	-0.717711	0.071594	0.680906	-1.000000	-1.000000	-1.000000	-1.000000	-1.000000	-1.000000	-1.000000	52.000000	0.000000	-1.000000	-1.000000	649891.000000	1775788213.451197
-24452.145000	-21624.345000	5049.720000	282772.575000	301059.315000	282052.800000	-27048.780000	-46028.790000	-5.755765	-0.359963	2.000792	1.360217	3.478874	-1.478982	-1.315668	-7.814406	0.839300	0.778260	2.014320	-0.717711	0.071594	0.680906	-1.000000	-1.000000	-1.000000	-1.000000	-1.000000	-1.000000	-1.000000	52.000000	0.000000	-1.000000	-1.000000	649892.000000	1775788213.451212
-24451.605000	-21623.895000	5050.485000	282769.110000	301099.905000	282050.370000	-27050.895000	-46032.480000	-0.976134	2.313136	3.871977	4.551319	-0.005636	1.245914	2.678788	0.215701	0.839300	0.778260	2.014320	-0.717711	0.071594	0.680906	-1.000000	-1.000000	-1.000000	-1.000000	-1.000000	-1.000000	-1.000000	52.000000	0.000000	-1.000000	-1.000000	649893.000000	1775788213.458411
-24463.485000	-21638.880000	5035.770000	282788.415000	301146.750000	282071.520000	-27053.190000	-46044.540000	4.054604	4.485269	4.741372	4.327710	-2.666814	2.232494	4.849602	7.312242	0.839300	0.778260	2.014320	-0.717711	0.071594	0.680906	-1.000000	-1.000000	-1.000000	-1.000000	-1.000000	-1.000000	-1.000000	52.000000	0.000000	-1.000000	-1.000000	649894.000000	1775788213.458435
-24466.590000	-21645.180000	5027.310000	282785.985000	301134.105000	282070.125000	-27046.890000	-46045.710000	5.995862	3.926591	3.121575	3.316755	1.833961	3.570620	4.876917	10.095141	0.839300	0.778260	2.014320	-0.717711	0.071594	0.680906	-1.000000	-1.000000	-1.000000	-1.000000	-1.000000	-1.000000	-1.000000	52.000000	0.000000	-1.000000	-1.000000	649895.000000	1775788213.458460
-24465.870000	-21644.955000	5026.230000	282766.275000	301068.090000	282046.140000	-27047.340000	-46045.935000	4.124228	0.572159	-0.741966	2.969779	9.035488	5.409691	3.688031	8.301229	0.839300	0.778260	2.014320	-0.717711	0.071594	0.680906	-1.000000	-1.000000	-1.000000	-1.000000	-1.000000	-1.000000	-1.000000	52.000000	0.000000	-1.000000	-1.000000	649896.000000	1775788213.458471
-24466.680000	-21642.615000	5030.910000	282771.810000	301102.920000	282039.345000	-27052.425000	-46052.055000	0.760712	-2.828816	-4.116976	1.805085	8.699484	4.777275	2.172211	4.336134	0.839300	0.778260	2.014320	-0.717711	0.071594	0.680906	-1.000000	-1.000000	-1.000000	-1.000000	-1.000000	-1.000000	-1.000000	52.000000	0.000000	-1.000000	-1.000000	649897.000000	1775788213.461525
-24473.655000	-21646.125000	5029.245000	282794.670000	301147.470000	282060.765000	-27053.370000	-46063.170000	-1.583114	-3.646539	-4.357717	-0.163096	1.583688	1.099066	0.428351	0.413007	0.839300	0.778260	2.014320	-0.717711	0.071594	0.680906	-1.000000	-1.000000	-1.000000	-1.000000	-1.000000	-1.000000	-1.000000	52.000000	0.000000	-1.000000	-1.000000	649898.000000	1775788213.461542
-24469.290000	-21637.665000	5038.155000	282801.195000	301130.370000	282063.330000	-27049.995000	-46062.765000	-2.120478	-1.652941	-1.374188	-0.366769	-2.705988	-1.815005	-1.290343	-2.520406	0.839300	0.778260	2.014320	-0.717711	0.071594	0.680906	-1.000000	-1.000000	-1.000000	-1.000000	-1.000000	-1.000000	-1.000000	52.000000	0.000000	-1.000000	-1.000000	649899.000000	1775788213.478955
-24467.715000	-21634.920000	5040.810000	282802.005000	301117.860000	282062.340000	-27053.640000	-46063.755000	-1.110084	1.695812	2.849445	1.736186	-1.733208	-1.319266	-2.227391	-3.779983	0.839300	0.778260	2.014320	-0.717711	0.071594	0.680906	-1.000000	-1.000000	-1.000000	-1.000000	-1.000000	-1.000000	-1.000000	52.000000	0.000000	-1.000000	-1.000000	649900.000000	1775788213.478979
-24466.005000	-21633.030000	5044.365000	282803.535000	301119.255000	282064.050000	-27054.765000	-46064.115000	0.808632	4.531738	5.920134	3.372601	-0.892687	0.893791	-2.125664	-2.933563	0.061040	2.945180	2.762060	-0.721312	0.071289	0.678648	-1.000000	-1.000000	-1.000000	-1.000000	-1.000000	-1.000000	-1.000000	52.000000	0.000000	-1.000000	-1.000000	649901.000000	1775788213.479002
-24463.980000	-21632.715000	5044.455000	282798.720000	301112.910000	282061.530000	-27048.555000	-46058.895000	2.576242	5.271563	6.202459	2.069795	-2.996196	1.940468	-1.309463	-0.526687	0.061040	2.945180	2.762060	-0.721312	0.071289	0.678648	-1.000000	-1.000000	-1.000000	-1.000000	-1.000000	-1.000000	-1.000000	52.000000	0.000000	-1.000000	-1.000000	649902.000000	1775788213.479012
-24463.755000	-21632.895000	5043.420000	282793.905000	301118.940000	282060.090000	-27045.675000	-46054.440000	3.205771	3.458205	3.540970	-2.009217	-5.919549	0.742579	0.037071	2.260874	0.061040	2.945180	2.762060	-0.721312	0.071289	0.678648	-1.000000	-1.000000	-1.000000	-1.000000	-1.000000	-1.000000	-1.000000	52.000000	0.000000	-1.000000	-1.000000	649903.000000	1775788213.479025
-24460.875000	-21628.395000	5048.730000	282789.450000	301117.410000	282055.770000	-27053.595000	-46052.505000	2.410515	0.125778	-0.664838	-6.666599	-6.595707	-1.890245	1.416446	4.206312	0.061040	2.945180	2.762060	-0.721312	0.071289	0.678648	-1.000000	-1.000000	-1.000000	-1.000000	-1.000000	-1.000000	-1.000000	52.000000	0.000000	-1.000000	-1.000000	649904.000000	1775788213.479034
-24451.605000	-21620.205000	5057.235000	282789.540000	301119.435000	282053.655000	-27055.170000	-46042.200000	0.841125	-2.776472	-4.099074	-9.233276	-4.040746	-4.345319	1.697560	4.493017	0.061040	2.945180	2.762060	-0.721312	0.071289	0.678648	-1.000000	-1.000000	-1.000000	-1.000000	-1.000000	-1.000000	-1.000000	52.000000	0.000000	-1.000000	-1.000000	649905.000000	1775788213.480896
-24458.130000	-21627.720000	5049.405000	282788.865000	301117.905000	282050.055000	-27056.385000	-46045.215000	-0.565240	-3.904369	-5.206293	-8.120085	0.248562	-5.294818	0.479930	3.098864	0.061040	2.945180	2.762060	-0.721312	0.071289	0.678648	-1.000000	-1.000000	-1.000000	-1.000000	-1.000000	-1.000000	-1.000000	52.000000	0.000000	-1.000000	-1.000000	649906.000000	1775788213.480915
-24461.100000	-21630.690000	5046.435000	282793.410000	301121.280000	282049.695000	-27052.425000	-46045.395000	-1.758470	-3.734887	-4.578112	-3.668324	3.968243	-4.288475	-1.110772	0.403226	0.061040	2.945180	2.762060	-0.721312	0.071289	0.678648	-1.000000	-1.000000	-1.000000	-1.000000	-1.000000	-1.000000	-1.000000	52.000000	0.000000	-1.000000	-1.000000	649907.000000	1775788213.484266
-24461.820000	-21632.670000	5041.485000	282769.695000	301045.995000	282023.505000	-27051.390000	-46043.685000	-3.101617	-3.435354	-3.729464	1.746258	4.361997	-2.210436	-1.613883	-2.910888	0.061040	2.945180	2.762060	-0.721312	0.071289	0.678648	-1.000000	-1.000000	-1.000000	-1.000000	-1.000000	-1.000000	-1.000000	52.000000	0.000000	-1.000000	-1.000000	649908.000000	1775788213.484290
-24468.030000	-21638.205000	5037.930000	282783.015000	301134.285000	282037.950000	-27052.290000	-46048.905000	-4.209678	-3.224055	-3.168024	5.150254	0.694861	-0.514926	-0.718375	-5.644702	0.061040	2.945180	2.762060	-0.721312	0.071289	0.678648	-1.000000	-1.000000	-1.000000	-1.000000	-1.000000	-1.000000	-1.000000	52.000000	0.000000	-1.000000	-1.000000	649909.000000	1775788213.486330
-24467.985000	-21637.530000	5040.135000	282797.730000	301138.695000	282054.150000	-27051.525000	-46049.355000	-4.342190	-2.603117	-2.320872	6.168777	-1.163207	1.275777	0.646169	-6.794308	0.061040	2.945180	2.762060	-0.721312	0.071289	0.678648	-1.000000	-1.000000	-1.000000	-1.000000	-1.000000	-1.000000	-1.000000	52.000000	0.000000	-1.000000	-1.000000	649910.000000	1775788213.486353
-24461.370000	-21631.995000	5042.745000	282766.005000	301044.330000	282023.325000	-27051.795000	-46041.255000	-2.971884	-1.029739	-0.461437	6.143561	2.013273	4.108448	1.435808	-5.874849	-1.693860	2.990960	2.548420	-0.722654	0.070129	0.676390	-1.000000	-1.000000	-1.000000	-1.000000	-1.000000	-1.000000	-1.000000	52.000000	0.000000	-1.000000	-1.000000	649911.000000	1775788213.489180
-24459.120000	-21628.755000	5045.715000	282755.160000	301062.915000	282009.960000	-27050.265000	-46038.375000	-0.030603	1.635489	2.368821	4.218910	2.860369	5.563451	1.328776	-2.821167	-1.693860	2.990960	2.548420	-0.722654	0.070129	0.676390	-1.000000	-1.000000	-1.000000	-1.000000	-1.000000	-1.000000	-1.000000	52.000000	0.000000	-1.000000	-1.000000	649912.000000	1775788213.489199
-24459.255000	-21627.270000	5049.810000	282784.185000	301129.695000	282026.610000	-27049.770000	-46039.410000	3.425866	4.521553	5.121881	0.166121	-1.047633	3.444340	0.653941	1.295976	-1.693860	2.990960	2.548420	-0.722654	0.070129	0.676390	-1.000000	-1.000000	-1.000000	-1.000000	-1.000000	-1.000000	-1.000000	52.000000	0.000000	-1.000000	-1.000000	649913.000000	1775788213.493624
-24464.430000	-21631.050000	5047.425000	282800.655000	301138.695000	282041.010000	-27055.845000	-46044.000000	5.442038	5.983087	6.411416	-2.021552	-0.867211	0.611821	-0.206384	4.294845	-1.693860	2.990960	2.548420	-0.722654	0.070129	0.676390	-1.000000	-1.000000	-1.000000	-1.000000	-1.000000	-1.000000	-1.000000	52.000000	0.000000	-1.000000	-1.000000	649914.000000	1775788213.493639
-24459.570000	-21626.730000	5051.070000	282805.245000	301121.910000	282040.875000	-27053.865000	-46039.545000	4.828393	4.978772	5.422116	0.572971	6.257198	0.795930	-1.108108	4.682142	-1.693860	2.990960	2.548420	-0.722654	0.070129	0.676390	-1.000000	-1.000000	-1.000000	-1.000000	-1.000000	-1.000000	-1.000000	52.000000	0.000000	-1.000000	-1.000000	649915.000000	1775788213.502397
-24460.290000	-21627.630000	5049.765000	282808.395000	301114.530000	282040.245000	-27053.280000	-46037.430000	2.321059	2.117631	2.552703	5.062679	11.529416	3.158023	-1.695558	3.031051	-1.693860	2.990960	2.548420	-0.722654	0.070129	0.676390	-1.000000	-1.000000	-1.000000	-1.000000	-1.000000	-1.000000	-1.000000	52.000000	0.000000	-1.000000	-1.000000	649916.000000	1775788213.502420
-24464.745000	-21634.290000	5042.925000	282809.970000	301121.145000	282041.865000	-27053.055000	-46037.835000	-0.458115	-1.137283	-1.009534	6.490349	7.877659	4.179664	-1.463451	0.996649	-1.693860	2.990960	2.548420	-0.722654	0.070129	0.676390	-1.000000	-1.000000	-1.000000	-1.000000	-1.000000	-1.000000	-1.000000	52.000000	0.000000	-1.000000	-1.000000	649917.000000	1775788213.503030
-24463.125000	-21635.010000	5041.620000	282808.170000	301120.560000	282042.045000	-27047.655000	-46034.190000	-2.481206	-3.744600	-4.161459	2.991984	-2.057472	2.164441	-0.376582	-0.366373	-1.693860	2.990960	2.548420	-0.722654	0.070129	0.676390	-1.000000	-1.000000	-1.000000	-1.000000	-1.000000	-1.000000	-1.000000	52.000000	0.000000	-1.000000	-1.000000	649918.000000	1775788213.503047
-24466.455000	-21637.710000	5038.605000	282806.415000	301123.170000	282041.325000	-27054.045000	-46038.780000	-3.324835	-5.032190	-5.932375	-3.490656	-11.009048	-1.770305	0.982414	-0.951701	-1.693860	2.990960	2.548420	-0.722654	0.070129	0.676390	-1.000000	-1.000000	-1.000000	-1.000000	-1.000000	-1.000000	-1.000000	52.000000	0.000000	-1.000000	-1.000000	649919.000000	1775788213.506491
-24467.265000	-21636.405000	5038.065000	282775.815000	301053.465000	282010.770000	-27057.690000	-46043.865000	-2.966310	-4.532995	-5.623428	-9.872216	-15.375702	-5.939680	1.581346	-1.286753	-1.693860	2.990960	2.548420	-0.722654	0.070129	0.676390	-1.000000	-1.000000	-1.000000	-1.000000	-1.000000	-1.000000	-1.000000	52.000000	0.000000	-1.000000	-1.000000	649920.000000	1775788213.506514
-24473.745000	-21641.580000	5035.455000	282782.610000	301132.530000	282017.610000	-27063.405000	-46055.025000	-1.893768	-2.482662	-3.391288	-13.930141	-15.412042	-9.358498	0.737153	-2.024909	-3.204600	3.158820	2.334780	-0.722471	0.069458	0.673155	-1.000000	-1.000000	-1.000000	-1.000000	-1.000000	-1.000000	-1.000000	52.000000	0.000000	-1.000000	-1.000000	649921.000000	1775788213.511851
-24472.755000	-21637.665000	5041.710000	282800.115000	301145.400000	282033.855000	-27065.610000	-46057.635000	-0.742951	0.154154	-0.143815	-13.249868	-8.932380	-9.962110	-1.023515	-3.140532	-3.204600	3.158820	2.334780	-0.722471	0.069458	0.673155	-1.000000	-1.000000	-1.000000	-1.000000	-1.000000	-1.000000	-1.000000	52.000000	0.000000	-1.000000	-1.000000	649922.000000	1775788213.511875
-24466.905000	-21628.620000	5051.250000	282805.830000	301132.170000	282035.745000	-27058.545000	-46050.300000	0.390568	2.592933	3.234739	-6.064163	4.390095	-5.396935	-2.200575	-3.451155	-3.204600	3.158820	2.334780	-0.722471	0.069458	0.673155	-1.000000	-1.000000	-1.000000	-1.000000	-1.000000	-1.000000	-1.000000	52.000000	0.000000	-1.000000	-1.000000	649923.000000	1775788213.514704
-24468.615000	-21630.780000	5048.685000	282811.185000	301126.410000	282038.490000	-27052.965000	-46046.520000	1.773104	4.483821	5.901644	5.061341	16.146836	2.823817	-1.405401	-1.523631	-3.204600	3.158820	2.334780	-0.722471	0.069458	0.673155	-1.000000	-1.000000	-1.000000	-1.000000	-1.000000	-1.000000	-1.000000	52.000000	0.000000	-1.000000	-1.000000	649924.000000	1775788213.514729
-24460.965000	-21626.955000	5052.420000	282814.605000	301122.855000	282040.605000	-27046.845000	-46034.955000	3.150164	5.161772	6.637902	14.078871	17.687862	9.772094	1.328313	2.544705	-3.204600	3.158820	2.334780	-0.722471	0.069458	0.673155	-1.000000	-1.000000	-1.000000	-1.000000	-1.000000	-1.000000	-1.000000	52.000000	0.000000	-1.000000	-1.000000	649925.000000	1775788213.519051
-24462.630000	-21634.965000	5043.420000	282817.170000	301120.560000	282043.530000	-27052.605000	-46033.965000	3.824076	3.878920	4.612940	16.427773	9.290137	11.726400	4.146227	6.764368	-3.204600	3.158820	2.334780	-0.722471	0.069458	0.673155	-1.000000	-1.000000	-1.000000	-1.000000	-1.000000	-1.000000	-1.000000	52.000000	0.000000	-1.000000	-1.000000	649926.000000	1775788213.519075
-24464.070000	-21635.415000	5043.330000	282818.655000	301127.220000	282047.445000	-27059.310000	-46038.555000	3.185478	0.742989	0.370458	11.788261	-2.175723	8.540470	4.603247	8.434927	-3.204600	3.158820	2.334780	-0.722471	0.069458	0.673155	-1.000000	-1.000000	-1.000000	-1.000000	-1.000000	-1.000000	-1.000000	52.000000	0.000000	-1.000000	-1.000000	649927.000000	1775788213.522205
-24460.380000	-21626.775000	5052.105000	282814.830000	301120.380000	282045.330000	-27057.555000	-46037.565000	1.182661	-2.749264	-3.972181	3.192531	-9.811992	2.616493	1.891450	5.995601	-3.204600	3.158820	2.334780	-0.722471	0.069458	0.673155	-1.000000	-1.000000	-1.000000	-1.000000	-1.000000	-1.000000	-1.000000	52.000000	0.000000	-1.000000	-1.000000	649928.000000	1775788213.522224
-24464.655000	-21631.995000	5046.660000	282813.795000	301127.805000	282044.520000	-27056.970000	-46039.275000	-1.338172	-4.522207	-5.939383	-5.369276	-10.949115	-3.268238	-2.105795	0.551696	-3.204600	3.158820	2.334780	-0.722471	0.069458	0.673155	-1.000000	-1.000000	-1.000000	-1.000000	-1.000000	-1.000000	-1.000000	52.000000	0.000000	-1.000000	-1.000000	649929.000000	1775788213.529652
-24466.545000	-21636.540000	5040.945000	282813.030000	301121.325000	282041.955000	-27059.130000	-46039.770000	-3.353939	-4.078220	-5.091711	-10.747975	-7.063285	-7.220004	-4.671628	-4.929173	-3.204600	3.158820	2.334780	-0.722471	0.069458	0.673155	-1.000000	-1.000000	-1.000000	-1.000000	-1.000000	-1.000000	-1.000000	52.000000	0.000000	-1.000000	-1.000000	649930.000000	1775788213.529679
-24464.385000	-21636.225000	5041.530000	282817.215000	301126.500000	282042.630000	-27062.595000	-46039.545000	-4.246991	-2.636161	-3.009395	-11.436182	-1.427880	-8.375219	-4.730029	-7.880163	0.305200	2.670500	2.990960	-0.722471	0.069092	0.671934	-1.000000	-1.000000	-1.000000	-1.000000	-1.000000	-1.000000	-1.000000	52.000000	0.000000	-1.000000	-1.000000	649931.000000	1775788213.529704
-24460.695000	-21631.095000	5046.345000	282821.580000	301124.385000	282043.035000	-27059.940000	-46036.215000	-3.596619	-1.059458	-0.862995	-7.797098	3.098449	-6.784427	-2.951904	-7.372170	0.305200	2.670500	2.990960	-0.722471	0.069092	0.671934	-1.000000	-1.000000	-1.000000	-1.000000	-1.000000	-1.000000	-1.000000	52.000000	0.000000	-1.000000	-1.000000	649932.000000	1775788213.529716
-24465.375000	-21634.875000	5044.770000	282824.910000	301122.540000	282044.430000	-27058.680000	-46040.850000	-1.587949	0.598309	1.209608	-1.806706	5.124709	-3.307716	-0.407118	-4.219492	0.305200	2.670500	2.990960	-0.722471	0.069092	0.671934	-1.000000	-1.000000	-1.000000	-1.000000	-1.000000	-1.000000	-1.000000	52.000000	0.000000	-1.000000	-1.000000	649933.000000	1775788213.535246
-24466.140000	-21633.795000	5042.835000	282805.785000	301061.205000	282020.220000	-27053.190000	-46037.970000	0.599725	1.998046	2.855028	3.413544	3.529167	0.210466	2.092205	-0.352782	0.305200	2.670500	2.990960	-0.722471	0.069092	0.671934	-1.000000	-1.000000	-1.000000	-1.000000	-1.000000	-1.000000	-1.000000	52.000000	0.000000	-1.000000	-1.000000	649934.000000	1775788213.535271
-24458.445000	-21627.495000	5048.100000	282815.865000	301113.720000	282023.280000	-27047.115000	-46026.855000	1.936273	2.669597	3.445638	5.212952	-1.459918	1.707193	3.969677	2.744936	0.305200	2.670500	2.990960	-0.722471	0.069092	0.671934	-1.000000	-1.000000	-1.000000	-1.000000	-1.000000	-1.000000	-1.000000	52.000000	0.000000	-1.000000	-1.000000	649935.000000	1775788213.538666
-24458.895000	-21631.545000	5044.590000	282818.970000	301105.485000	282030.795000	-27047.520000	-46024.470000	2.500892	2.629590	2.937613	3.957261	-4.900360	1.424031	4.726824	4.789972	0.305200	2.670500	2.990960	-0.722471	0.069092	0.671934	-1.000000	-1.000000	-1.000000	-1.000000	-1.000000	-1.000000	-1.000000	52.000000	0.000000	-1.000000	-1.000000	649936.000000	1775788213.538684
-24465.645000	-21639.105000	5035.185000	282796.785000	301080.060000	282008.970000	-27047.610000	-46029.870000	2.439205	1.761717	1.512766	1.820085	-2.780810	1.345930	3.850063	5.445907	0.305200	2.670500	2.990960	-0.722471	0.069092	0.671934	-1.000000	-1.000000	-1.000000	-1.000000	-1.000000	-1.000000	-1.000000	52.000000	0.000000	-1.000000	-1.000000	649937.000000	1775788213.547590
-24464.340000	-21636.045000	5040.225000	282798.900000	301084.830000	282008.475000	-27049.500000	-46032.345000	1.390471	-0.074890	-0.602548	-0.397770	1.721353	1.730125	1.309473	3.893521	0.305200	2.670500	2.990960	-0.722471	0.069092	0.671934	-1.000000	-1.000000	-1.000000	-1.000000	-1.000000	-1.000000	-1.000000	52.000000	0.000000	-1.000000	-1.000000	649938.000000	1775788213.547611
-24463.215000	-21633.255000	5044.995000	282813.930000	301140.720000	282021.435000	-27053.190000	-46034.460000	-0.328978	-1.921826	-2.250571	-1.950893	5.347364	2.039611	-2.020397	0.355162	0.305200	2.670500	2.990960	-0.722471	0.069092	0.671934	-1.000000	-1.000000	-1.000000	-1.000000	-1.000000	-1.000000	-1.000000	52.000000	0.000000	-1.000000	-1.000000	649939.000000	1775788213.547634
-24471.045000	-21640.590000	5038.155000	282831.930000	301145.985000	282036.420000	-27052.200000	-46040.220000	-1.720956	-2.519199	-2.229240	-0.773574	9.442909	3.277313	-4.737584	-3.457265	0.305200	2.670500	2.990960	-0.722471	0.069092	0.671934	-1.000000	-1.000000	-1.000000	-1.000000	-1.000000	-1.000000	-1.000000	52.000000	0.000000	-1.000000	-1.000000	649940.000000	1775788213.547645
-24471.315000	-21642.570000	5033.700000	282836.385000	301130.055000	282037.140000	-27047.205000	-46037.745000	-2.335992	-1.956329	-1.096590	3.479376	12.913263	5.843055	-5.498927	-5.646140	3.494540	1.602300	3.418240	-0.723204	0.068237	0.673033	-1.000000	-1.000000	-1.000000	-1.000000	-1.000000	-1.000000	-1.000000	52.000000	0.000000	-1.000000	-1.000000	649941.000000	1775788213.549517
-24465.105000	-21635.460000	5039.010000	282821.940000	301074.615000	282020.895000	-27047.520000	-46032.615000	-2.051432	-0.940457	-0.159152	7.324243	9.523512	7.235839	-3.795918	-5.079971	3.494540	1.602300	3.418240	-0.723204	0.068237	0.673033	-1.000000	-1.000000	-1.000000	-1.000000	-1.000000	-1.000000	-1.000000	52.000000	0.000000	-1.000000	-1.000000	649942.000000	1775788213.549534
-24463.530000	-21634.200000	5039.685000	282811.140000	301092.570000	282010.635000	-27049.320000	-46032.345000	-0.595021	0.460485	0.426759	6.268274	-3.309331	4.253365	-0.661163	-1.923539	3.494540	1.602300	3.418240	-0.723204	0.068237	0.673033	-1.000000	-1.000000	-1.000000	-1.000000	-1.000000	-1.000000	-1.000000	52.000000	0.000000	-1.000000	-1.000000	649943.000000	1775788213.553681
-24470.820000	-21640.725000	5035.995000	282833.010000	301154.355000	282036.060000	-27058.275000	-46044.045000	1.454866	1.947009	1.003054	0.154291	-16.623335	-2.287840	1.854119	1.869581	3.494540	1.602300	3.418240	-0.723204	0.068237	0.673033	-1.000000	-1.000000	-1.000000	-1.000000	-1.000000	-1.000000	-1.000000	52.000000	0.000000	-1.000000	-1.000000	649944.000000	1775788213.553706
-24467.445000	-21634.695000	5043.060000	282831.300000	301133.655000	282035.160000	-27061.470000	-46045.080000	2.610763	2.543301	1.403276	-5.974622	-18.083201	-7.240105	2.279468	3.712371	3.494540	1.602300	3.418240	-0.723204	0.068237	0.673033	-1.000000	-1.000000	-1.000000	-1.000000	-1.000000	-1.000000	-1.000000	52.000000	0.000000	-1.000000	-1.000000	649945.000000	1775788213.559002
-24463.215000	-21629.745000	5048.505000	282827.970000	301125.645000	282030.120000	-27058.365000	-46039.635000	2.310354	2.063445	1.608613	-7.869170	-7.851915	-7.310484	1.027654	3.000489	3.494540	1.602300	3.418240	-0.723204	0.068237	0.673033	-1.000000	-1.000000	-1.000000	-1.000000	-1.000000	-1.000000	-1.000000	52.000000	0.000000	-1.000000	-1.000000	649946.000000	1775788213.559024
-24461.415000	-21629.295000	5049.405000	282829.410000	301129.920000	282027.510000	-27051.570000	-46035.225000	1.404857	1.293383	1.811173	-5.960455	3.177687	-4.360093	0.032497	1.557902	3.494540	1.602300	3.418240	-0.723204	0.068237	0.673033	-1.000000	-1.000000	-1.000000	-1.000000	-1.000000	-1.000000	-1.000000	52.000000	0.000000	-1.000000	-1.000000	649947.000000	1775788213.567528
-24463.890000	-21632.535000	5045.535000	282830.625000	301124.925000	282026.295000	-27051.660000	-46036.035000	0.604741	0.520550	1.574933	-2.706027	7.563817	-1.634365	0.675131	1.056836	3.494540	1.602300	3.418240	-0.723204	0.068237	0.673033	-1.000000	-1.000000	-1.000000	-1.000000	-1.000000	-1.000000	-1.000000	52.000000	0.000000	-1.000000	-1.000000	649948.000000	1775788213.567544
-24461.865000	-21632.355000	5043.330000	282813.120000	301063.995000	282005.730000	-27051.345000	-46032.975000	-0.173206	-0.595130	0.217759	-0.108389	4.502966	-0.685409	2.307567	1.343682	3.494540	1.602300	3.418240	-0.723204	0.068237	0.673033	-1.000000	-1.000000	-1.000000	-1.000000	-1.000000	-1.000000	-1.000000	52.000000	0.000000	-1.000000	-1.000000	649949.000000	1775788213.567561
-24460.785000	-21630.645000	5045.085000	282815.190000	301112.730000	282007.305000	-27054.765000	-46033.875000	-0.987424	-1.911263	-1.962569	0.629920	-3.017945	-1.496627	3.142047	1.397064	3.494540	1.602300	3.418240	-0.723204	0.068237	0.673033	-1.000000	-1.000000	-1.000000	-1.000000	-1.000000	-1.000000	-1.000000	52.000000	0.000000	-1.000000	-1.000000	649950.000000	1775788213.567568
-24460.740000	-21628.755000	5050.260000	282835.620000	301146.075000	282028.455000	-27060.705000	-46036.755000	-1.535167	-2.632090	-3.531960	0.426443	-7.163068	-2.078522	2.043079	0.573395	3.998120	0.015260	3.845520	-0.723509	0.069641	0.674315	-1.000000	-1.000000	-1.000000	-1.000000	-1.000000	-1.000000	-1.000000	52.000000	0.000000	-1.000000	-1.000000	649951.000000	1775788213.582508
-24455.475000	-21622.950000	5055.255000	282815.325000	301068.270000	282008.880000	-27058.815000	-46030.905000	-1.529516	-2.132769	-3.177887	1.334245	-2.903423	-0.092276	-0.567673	-0.934461	3.998120	0.015260	3.845520	-0.723509	0.069641	0.674315	-1.000000	-1.000000	-1.000000	-1.000000	-1.000000	-1.000000	-1.000000	52.000000	0.000000	-1.000000	-1.000000	649952.000000	1775788213.582525
-24457.275000	-21625.965000	5051.700000	282801.510000	301094.640000	281997.090000	-27051.795000	-46031.400000	-0.945952	-0.628926	-1.103971	2.621148	3.621962	3.135823	-2.852240	-2.165667	3.998120	0.015260	3.845520	-0.723509	0.069641	0.674315	-1.000000	-1.000000	-1.000000	-1.000000	-1.000000	-1.000000	-1.000000	52.000000	0.000000	-1.000000	-1.000000	649953.000000	1775788213.582550
-24471.900000	-21641.220000	5036.985000	282823.695000	301160.880000	282019.095000	-27050.670000	-46043.955000	-0.457899	0.547334	0.763103	2.318462	6.930353	4.601070	-3.032778	-2.607874	3.998120	0.015260	3.845520	-0.723509	0.069641	0.674315	-1.000000	-1.000000	-1.000000	-1.000000	-1.000000	-1.000000	-1.000000	52.000000	0.000000	-1.000000	-1.000000	649954.000000	1775788213.582556
-24465.015000	-21633.705000	5044.995000	282823.605000	301134.960000	282015.720000	-27052.110000	-46040.220000	-0.914203	0.135640	0.714280	1.529815	9.809640	4.459713	-1.228650	-2.741916	3.998120	0.015260	3.845520	-0.723509	0.069641	0.674315	-1.000000	-1.000000	-1.000000	-1.000000	-1.000000	-1.000000	-1.000000	52.000000	0.000000	-1.000000	-1.000000	649955.000000	1775788213.582566
-24465.555000	-21634.470000	5044.500000	282823.560000	301130.055000	282013.110000	-27052.740000	-46041.885000	-1.695286	-1.086240	-0.502298	2.012809	11.907401	4.043759	0.780724	-2.611113	3.998120	0.015260	3.845520	-0.723509	0.069641	0.674315	-1.000000	-1.000000	-1.000000	-1.000000	-1.000000	-1.000000	-1.000000	52.000000	0.000000	-1.000000	-1.000000	649956.000000	1775788213.582572
-24463.530000	-21632.895000	5044.680000	282819.195000	301103.235000	282003.750000	-27052.290000	-46039.545000	-1.341757	-1.265812	-0.913300	2.788485	7.796065	2.771937	1.529889	-1.561947	3.998120	0.015260	3.845520	-0.723509	0.069641	0.674315	-1.000000	-1.000000	-1.000000	-1.000000	-1.000000	-1.000000	-1.000000	52.000000	0.000000	-1.000000	-1.000000	649957.000000	1775788213.582579
-24461.685000	-21630.465000	5045.130000	282800.565000	301068.045000	281981.745000	-27057.600000	-46038.195000	0.385051	0.097836	0.042265	1.756918	-3.784289	-0.442561	0.859876	0.469710	3.998120	0.015260	3.845520	-0.723509	0.069641	0.674315	-1.000000	-1.000000	-1.000000	-1.000000	-1.000000	-1.000000	-1.000000	52.000000	0.000000	-1.000000	-1.000000	649958.000000	1775788213.582584
-24465.330000	-21633.165000	5045.625000	282829.905000	301159.755000	282011.130000	-27061.245000	-46044.270000	2.355006	1.987974	1.498201	-1.141442	-15.706367	-4.552007	-0.628197	2.541114	3.998120	0.015260	3.845520	-0.723509	0.069641	0.674315	-1.000000	-1.000000	-1.000000	-1.000000	-1.000000	-1.000000	-1.000000	52.000000	0.000000	-1.000000	-1.000000	649959.000000	1775788213.585542
-24465.555000	-21633.345000	5044.005000	282829.365000	301130.370000	282011.670000	-27058.545000	-46043.865000	3.195121	3.016520	2.406164	-3.008070	-17.178689	-5.931585	-2.003674	3.387878	3.998120	0.015260	3.845520	-0.723509	0.069641	0.674315	-1.000000	-1.000000	-1.000000	-1.000000	-1.000000	-1.000000	-1.000000	52.000000	0.000000	-1.000000	-1.000000	649960.000000	1775788213.585561
-24467.715000	-21635.325000	5041.980000	282822.435000	301133.520000	282006.945000	-27056.295000	-46045.170000	2.392469	2.490721	2.179710	-1.973531	-6.870854	-2.814903	-2.183822	2.620791	2.929920	0.717220	3.418240	-0.721861	0.075805	0.674925	-1.000000	-1.000000	-1.000000	-1.000000	-1.000000	-1.000000	-1.000000	52.000000	0.000000	-1.000000	-1.000000	649961.000000	1775788213.589518
-24469.290000	-21637.665000	5039.955000	282819.285000	301134.375000	282004.830000	-27056.520000	-46046.655000	0.570551	0.797691	0.918399	-0.074771	5.168808	1.760659	-0.798122	1.007072	2.929920	0.717220	3.418240	-0.721861	0.075805	0.674925	-1.000000	-1.000000	-1.000000	-1.000000	-1.000000	-1.000000	-1.000000	52.000000	0.000000	-1.000000	-1.000000	649962.000000	1775788213.589529
-24464.430000	-21634.965000	5043.285000	282819.060000	301133.385000	282001.860000	-27051.570000	-46041.885000	-1.096396	-1.033303	-0.610030	0.228706	10.540960	3.926916	1.342483	-0.367706	2.929920	0.717220	3.418240	-0.721861	0.075805	0.674925	-1.000000	-1.000000	-1.000000	-1.000000	-1.000000	-1.000000	-1.000000	52.000000	0.000000	-1.000000	-1.000000	649963.000000	1775788213.597840
-24469.065000	-21639.870000	5036.850000	282797.685000	301074.300000	281977.425000	-27053.370000	-46044.000000	-1.690014	-2.043359	-1.534321	-1.302282	7.363809	2.381719	3.000025	-0.807762	2.929920	0.717220	3.418240	-0.721861	0.075805	0.674925	-1.000000	-1.000000	-1.000000	-1.000000	-1.000000	-1.000000	-1.000000	52.000000	0.000000	-1.000000	-1.000000	649964.000000	1775788213.597863
-24472.575000	-21644.595000	5031.630000	282799.485000	301122.720000	281976.480000	-27059.445000	-46049.175000	-1.342088	-2.096543	-1.764004	-3.661061	-1.554400	-1.882980	3.158899	-0.550411	2.929920	0.717220	3.418240	-0.721861	0.075805	0.674925	-1.000000	-1.000000	-1.000000	-1.000000	-1.000000	-1.000000	-1.000000	52.000000	0.000000	-1.000000	-1.000000	649965.000000	1775788213.603147
-24470.820000	-21641.760000	5035.050000	282820.365000	301154.490000	281995.245000	-27060.615000	-46051.470000	-0.828601	-1.636619	-1.661562	-4.599644	-7.831498	-5.513600	1.472132	-0.491599	2.929920	0.717220	3.418240	-0.721861	0.075805	0.674925	-1.000000	-1.000000	-1.000000	-1.000000	-1.000000	-1.000000	-1.000000	52.000000	0.000000	-1.000000	-1.000000	649966.000000	1775788213.603169
-24470.280000	-21638.745000	5039.595000	282822.840000	301144.500000	281996.685000	-27066.915000	-46059.930000	-0.382502	-0.713303	-0.989423	-1.673516	-4.470920	-4.597558	-1.235894	-1.089949	2.929920	0.717220	3.418240	-0.721861	0.075805	0.674925	-1.000000	-1.000000	-1.000000	-1.000000	-1.000000	-1.000000	-1.000000	52.000000	0.000000	-1.000000	-1.000000	649967.000000	1775788213.618184
-24469.740000	-21636.720000	5043.510000	282821.130000	301134.420000	281994.390000	-27068.670000	-46064.835000	0.219241	0.803720	0.646321	4.082631	4.453111	0.754153	-3.473588	-2.048666	2.929920	0.717220	3.418240	-0.721861	0.075805	0.674925	-1.000000	-1.000000	-1.000000	-1.000000	-1.000000	-1.000000	-1.000000	52.000000	0.000000	-1.000000	-1.000000	649968.000000	1775788213.618208
-24466.815000	-21631.950000	5049.765000	282818.430000	301139.505000	281993.265000	-27066.690000	-46060.740000	0.957732	2.467961	2.764452	8.257318	9.418116	6.132023	-4.022368	-2.514667	2.929920	0.717220	3.418240	-0.721861	0.075805	0.674925	-1.000000	-1.000000	-1.000000	-1.000000	-1.000000	-1.000000	-1.000000	52.000000	0.000000	-1.000000	-1.000000	649969.000000	1775788213.618230
-24469.245000	-21632.040000	5050.530000	282812.490000	301133.520000	281988.540000	-27061.920000	-46057.320000	1.505136	3.438969	4.190793	7.607582	6.796160	7.581314	-2.391926	-1.443501	2.929920	0.717220	3.418240	-0.721861	0.075805	0.674925	-1.000000	-1.000000	-1.000000	-1.000000	-1.000000	-1.000000	-1.000000	52.000000	0.000000	-1.000000	-1.000000	649970.000000	1775788213.618242
-24466.275000	-21628.395000	5055.570000	282808.485000	301130.280000	281983.275000	-27046.620000	-46049.040000	1.485832	3.106289	3.953834	2.618880	-0.255228	4.546349	1.042241	1.364105	1.297100	1.419180	3.052000	-0.719969	0.081238	0.676085	-1.000000	-1.000000	-1.000000	-1.000000	-1.000000	-1.000000	-1.000000	52.000000	0.000000	-1.000000	-1.000000	649971.000000	1775788213.618253
-24456.960000	-21623.130000	5056.605000	282779.910000	301053.600000	281951.955000	-27036.090000	-46031.760000	1.033106	1.620125	2.016438	-4.001719	-8.134245	-1.248342	5.154359	4.939633	1.297100	1.419180	3.052000	-0.719969	0.081238	0.676085	-1.000000	-1.000000	-1.000000	-1.000000	-1.000000	-1.000000	-1.000000	52.000000	0.000000	-1.000000	-1.000000	649972.000000	1775788213.618263
-24458.490000	-21629.790000	5050.395000	282795.930000	301143.195000	281965.185000	-27045.540000	-46032.030000	0.715767	-0.338953	-0.899482	-9.250714	-13.938870	-7.211918	7.831805	7.679351	1.297100	1.419180	3.052000	-0.719969	0.081238	0.676085	-1.000000	-1.000000	-1.000000	-1.000000	-1.000000	-1.000000	-1.000000	52.000000	0.000000	-1.000000	-1.000000	649973.000000	1775788213.618273
-24461.415000	-21633.210000	5047.650000	282812.760000	301150.485000	281979.000000	-27054.990000	-46040.265000	0.427518	-2.406938	-3.963630	-9.732656	-11.599093	-9.488306	6.451278	7.474476	1.297100	1.419180	3.052000	-0.719969	0.081238	0.676085	-1.000000	-1.000000	-1.000000	-1.000000	-1.000000	-1.000000	-1.000000	52.000000	0.000000	-1.000000	-1.000000	649974.000000	1775788213.618280
-24461.055000	-21629.430000	5051.700000	282815.370000	301143.015000	281980.710000	-27056.925000	-46044.315000	-0.498115	-4.194318	-6.078352	-3.766061	0.948550	-5.344019	0.560902	3.000769	1.297100	1.419180	3.052000	-0.719969	0.081238	0.676085	-1.000000	-1.000000	-1.000000	-1.000000	-1.000000	-1.000000	-1.000000	52.000000	0.000000	-1.000000	-1.000000	649975.000000	1775788213.635121
-24467.085000	-21635.775000	5044.770000	282813.435000	301135.320000	281980.395000	-27057.735000	-46049.805000	-2.049366	-4.802999	-6.100758	5.177838	14.334092	2.793425	-6.563349	-4.193369	1.297100	1.419180	3.052000	-0.719969	0.081238	0.676085	-1.000000	-1.000000	-1.000000	-1.000000	-1.000000	-1.000000	-1.000000	52.000000	0.000000	-1.000000	-1.000000	649976.000000	1775788213.635147
-24469.380000	-21639.510000	5040.270000	282812.130000	301142.115000	281980.440000	-27058.095000	-46050.705000	-3.493366	-3.893049	-4.123994	10.887792	18.113064	9.181149	-10.515090	-10.286729	1.297100	1.419180	3.052000	-0.719969	0.081238	0.676085	-1.000000	-1.000000	-1.000000	-1.000000	-1.000000	-1.000000	-1.000000	52.000000	0.000000	-1.000000	-1.000000	649977.000000	1775788213.635170
-24466.365000	-21636.810000	5041.710000	282801.735000	301116.690000	281967.300000	-27059.805000	-46048.905000	-3.921756	-2.005378	-1.336590	9.907538	10.941988	9.869943	-9.342799	-11.970171	1.297100	1.419180	3.052000	-0.719969	0.081238	0.676085	-1.000000	-1.000000	-1.000000	-1.000000	-1.000000	-1.000000	-1.000000	52.000000	0.000000	-1.000000	-1.000000	649978.000000	1775788213.635181
-24464.115000	-21635.370000	5041.080000	282780.675000	301076.055000	281852.235000	-27062.865000	-46049.490000	-2.630098	0.379744	1.377268	3.081498	-2.462878	2.876370	-4.410402	-8.509112	1.297100	1.419180	3.052000	-0.719969	0.081238	0.676085	-1.000000	-1.000000	-1.000000	-1.000000	-1.000000	-1.000000	-1.000000	52.000000	0.000000	-1.000000	-1.000000	649979.000000	1775788213.635195
-24470.730000	-21639.330000	5039.820000	282801.060000	301152.735000	281865.645000	-27069.930000	-46060.830000	0.004001	2.742042	3.559691	-5.464964	-14.506720	-11.249839	1.170693	-2.176746	1.297100	1.419180	3.052000	-0.719969	0.081238	0.676085	-1.000000	-1.000000	-1.000000	-1.000000	-1.000000	-1.000000	-1.000000	52.000000	0.000000	-1.000000	-1.000000	649980.000000	1775788213.635205
-24471.675000	-21639.330000	5039.055000	282783.825000	301069.080000	282093.705000	-27067.590000	-46062.540000	2.377530	4.133017	4.695322	-10.344911	-17.426781	-19.529567	4.820991	3.369445	-0.747740	1.327620	3.113040	-0.719359	0.082458	0.677916	-1.000000	-1.000000	-1.000000	-1.000000	-1.000000	-1.000000	-1.000000	52.000000	0.000000	-1.000000	-1.000000	649981.000000	1775788213.635218
-24475.545000	-21640.365000	5038.920000	282791.610000	301070.115000	282225.915000	-27070.290000	-46067.220000	3.163798	3.957415	4.486909	-9.098428	-11.871840	-1.023515	5.901973	5.919166	-0.747740	1.327620	3.113040	-0.719359	0.082458	0.677916	-1.000000	-1.000000	-1.000000	-1.000000	-1.000000	-1.000000	-1.000000	52.000000	0.000000	-1.000000	-1.000000	649982.000000	1775788213.635227
-24467.310000	-21630.825000	5044.770000	282769.875000	301007.970000	282195.810000	-27062.415000	-46056.060000	2.563469	2.738861	3.289209	-3.930528	-5.654748	40.374040	5.324070	5.951080	-0.747740	1.327620	3.113040	-0.719359	0.082458	0.677916	-1.000000	-1.000000	-1.000000	-1.000000	-1.000000	-1.000000	-1.000000	52.000000	0.000000	-1.000000	-1.000000	649983.000000	1775788213.635683
-24474.510000	-21641.400000	5036.310000	282806.595000	301104.720000	282227.265000	-27053.820000	-46056.330000	1.677145	1.414828	1.735316	1.794172	-1.233309	67.838589	4.417816	5.276369	-0.747740	1.327620	3.113040	-0.719359	0.082458	0.677916	-1.000000	-1.000000	-1.000000	-1.000000	-1.000000	-1.000000	-1.000000	52.000000	0.000000	-1.000000	-1.000000	649984.000000	1775788213.635697
-24468.165000	-21639.690000	5036.670000	282795.525000	301064.580000	282217.770000	-27047.880000	-46046.430000	1.084090	0.107962	-0.001124	6.657238	6.002724	52.033699	3.943215	4.917018	-0.747740	1.327620	3.113040	-0.719359	0.082458	0.677916	-1.000000	-1.000000	-1.000000	-1.000000	-1.000000	-1.000000	-1.000000	52.000000	0.000000	-1.000000	-1.000000	649985.000000	1775788213.643404
-24465.015000	-21636.090000	5043.285000	282821.040000	301134.105000	282244.635000	-27052.020000	-46048.005000	0.801865	-1.258909	-1.646218	9.969501	17.108452	0.594020	3.337211	4.473815	-0.747740	1.327620	3.113040	-0.719359	0.082458	0.677916	-1.000000	-1.000000	-1.000000	-1.000000	-1.000000	-1.000000	-1.000000	52.000000	0.000000	-1.000000	-1.000000	649986.000000	1775788213.643427
-24465.825000	-21634.650000	5045.445000	282818.880000	301109.580000	282241.935000	-27057.645000	-46051.560000	0.758419	-2.010447	-2.273097	10.559677	26.014644	-54.730295	1.258890	2.908241	-0.747740	1.327620	3.113040	-0.719359	0.082458	0.677916	-1.000000	-1.000000	-1.000000	-1.000000	-1.000000	-1.000000	-1.000000	52.000000	0.000000	-1.000000	-1.000000	649987.000000	1775788213.643452
-24471.045000	-21638.475000	5041.395000	282815.055000	301101.525000	282236.940000	-27067.725000	-46058.535000	0.444813	-1.760715	-1.609356	7.544942	25.284343	-85.427890	-2.729134	-0.391580	-0.747740	1.327620	3.113040	-0.719359	0.082458	0.677916	-1.000000	-1.000000	-1.000000	-1.000000	-1.000000	-1.000000	-1.000000	52.000000	0.000000	-1.000000	-1.000000	649988.000000	1775788213.643462
-24477.840000	-21646.440000	5032.935000	282814.425000	301108.410000	282234.105000	-27063.405000	-46062.720000	-0.802326	-1.256748	-0.831284	1.104020	12.318868	-81.906367	-7.085333	-4.674693	-0.747740	1.327620	3.113040	-0.719359	0.082458	0.677916	-1.000000	-1.000000	-1.000000	-1.000000	-1.000000	-1.000000	-1.000000	52.000000	0.000000	-1.000000	-1.000000	649989.000000	1775788213.647433
-24486.120000	-21655.080000	5024.295000	282815.370000	301107.735000	282232.035000	-27058.545000	-46069.785000	-2.894453	-1.495085	-1.245578	-6.488165	-6.782936	-52.024824	-8.956692	-8.042290	-0.747740	1.327620	3.113040	-0.719359	0.082458	0.677916	-1.000000	-1.000000	-1.000000	-1.000000	-1.000000	-1.000000	-1.000000	52.000000	0.000000	-1.000000	-1.000000	649990.000000	1775788213.647453
-24479.550000	-21646.665000	5033.880000	282820.860000	301107.420000	282233.250000	-27058.095000	-46067.580000	-4.601286	-2.255568	-2.491818	-11.576336	-21.880770	-11.635576	-6.622359	-8.713467	-0.503580	2.243220	1.388660	-0.716246	0.082031	0.678770	-1.000000	-1.000000	-1.000000	-1.000000	-1.000000	-1.000000	-1.000000	52.000000	0.000000	-1.000000	-1.000000	649991.000000	1775788213.649587
-24474.015000	-21639.870000	5040.405000	282821.310000	301089.195000	282232.890000	-27061.065000	-46066.095000	-4.107107	-1.873913	-2.507941	-11.807864	-27.205026	23.935536	-1.423417	-6.009871	-0.503580	2.243220	1.388660	-0.716246	0.082031	0.678770	-1.000000	-1.000000	-1.000000	-1.000000	-1.000000	-1.000000	-1.000000	52.000000	0.000000	-1.000000	-1.000000	649992.000000	1775788213.649612
-24468.345000	-21633.030000	5047.785000	282820.275000	301090.680000	282232.485000	-27061.245000	-46063.170000	-0.757355	0.750922	0.049992	-7.752753	-23.311047	45.009296	3.431616	-0.819642	-0.503580	2.243220	1.388660	-0.716246	0.082031	0.678770	-1.000000	-1.000000	-1.000000	-1.000000	-1.000000	-1.000000	-1.000000	52.000000	0.000000	-1.000000	-1.000000	649993.000000	1775788213.657627
-24471.630000	-21637.395000	5043.825000	282816.180000	301096.845000	282230.280000	-27063.585000	-46065.600000	3.697092	4.285164	3.811129	-2.184603	-13.566195	49.030616	5.627626	4.565763	-0.503580	2.243220	1.388660	-0.716246	0.082031	0.678770	-1.000000	-1.000000	-1.000000	-1.000000	-1.000000	-1.000000	-1.000000	52.000000	0.000000	-1.000000	-1.000000	649994.000000	1775788213.657644
-24470.415000	-21636.990000	5044.320000	282811.320000	301105.440000	282226.455000	-27059.175000	-46062.315000	6.330155	5.970543	5.847755	2.065304	-1.268151	39.326055	5.024874	7.713271	-0.503580	2.243220	1.388660	-0.716246	0.082031	0.678770	-1.000000	-1.000000	-1.000000	-1.000000	-1.000000	-1.000000	-1.000000	52.000000	0.000000	-1.000000	-1.000000	649995.000000	1775788213.657665
-24471.495000	-21638.610000	5042.520000	282807.180000	301107.330000	282221.685000	-27059.220000	-46062.630000	5.571959	4.356757	4.521843	3.725080	10.109393	22.374781	3.016693	7.604165	-0.503580	2.243220	1.388660	-0.716246	0.082031	0.678770	-1.000000	-1.000000	-1.000000	-1.000000	-1.000000	-1.000000	-1.000000	52.000000	0.000000	-1.000000	-1.000000	649996.000000	1775788213.657676
-24470.910000	-21638.250000	5041.305000	282791.970000	301062.825000	282203.730000	-27060.120000	-46061.460000	2.230715	0.496984	0.736145	3.078748	16.097143	4.710395	1.004082	4.926486	-0.503580	2.243220	1.388660	-0.716246	0.082031	0.678770	-1.000000	-1.000000	-1.000000	-1.000000	-1.000000	-1.000000	-1.000000	52.000000	0.000000	-1.000000	-1.000000	649997.000000	1775788213.665474
-24464.025000	-21631.995000	5044.680000	282769.470000	301044.105000	282177.495000	-27055.665000	-46054.170000	-1.474231	-3.168622	-3.152941	0.815441	13.006823	-9.440582	-0.405105	1.336222	-0.503580	2.243220	1.388660	-0.716246	0.082031	0.678770	-1.000000	-1.000000	-1.000000	-1.000000	-1.000000	-1.000000	-1.000000	52.000000	0.000000	-1.000000	-1.000000	649998.000000	1775788213.665498
-24468.975000	-21636.405000	5044.005000	282803.130000	301138.335000	282208.005000	-27057.915000	-46061.640000	-3.612177	-4.719556	-5.072799	-1.417817	4.494391	-17.375477	-1.097080	-1.613851	-0.503580	2.243220	1.388660	-0.716246	0.082031	0.678770	-1.000000	-1.000000	-1.000000	-1.000000	-1.000000	-1.000000	-1.000000	52.000000	0.000000	-1.000000	-1.000000	649999.000000	1775788213.671366
-24473.475000	-21641.265000	5040.225000	282807.990000	301113.495000	282211.155000	-27057.015000	-46065.195000	-3.944486	-4.154192	-4.541866	-0.342158	0.817149	-16.424199	-1.278550	-3.540156	-0.503580	2.243220	1.388660	-0.716246	0.082031	0.678770	-1.000000	-1.000000	-1.000000	-1.000000	-1.000000	-1.000000	-1.000000	52.000000	0.000000	-1.000000	-1.000000	650000.000000	1775788213.671383
-24474.105000	-21641.265000	5039.775000	282807.045000	301105.035000	282211.020000	-27057.420000	-46065.960000	-3.443841	-2.785320	-2.631408	4.796795	4.391373	-7.346789	-1.297711	-4.734007	-0.915600	2.289000	0.885080	-0.715757	0.083252	0.678526	-1.000000	-1.000000	-1.000000	-1.000000	-1.000000	-1.000000	-1.000000	52.000000	0.000000	-1.000000	-1.000000	650001.000000	1775788213.671404
-24474.240000	-21642.120000	5038.020000	282803.715000	301103.280000	282208.905000	-27059.355000	-46066.005000	-2.632332	-1.436910	-0.620130	9.652254	6.930235	3.577196	-1.303372	-4.933892	-0.915600	2.289000	0.885080	-0.715757	0.083252	0.678526	-1.000000	-1.000000	-1.000000	-1.000000	-1.000000	-1.000000	-1.000000	52.000000	0.000000	-1.000000	-1.000000	650002.000000	1775788213.671415
-24468.705000	-21636.945000	5043.330000	282798.405000	301106.430000	282205.080000	-27060.165000	-46062.540000	-1.262870	-0.021388	0.968815	9.536726	3.094225	9.627719	-1.285226	-3.616331	-0.915600	2.289000	0.885080	-0.715757	0.083252	0.678526	-1.000000	-1.000000	-1.000000	-1.000000	-1.000000	-1.000000	-1.000000	52.000000	0.000000	-1.000000	-1.000000	650003.000000	1775788213.673946
-24476.985000	-21643.920000	5037.795000	282792.825000	301105.530000	282199.365000	-27072.720000	-46078.245000	0.637785	1.507963	2.107185	3.950889	-4.335701	8.542689	-1.352540	-1.230518	-0.915600	2.289000	0.885080	-0.715757	0.083252	0.678526	-1.000000	-1.000000	-1.000000	-1.000000	-1.000000	-1.000000	-1.000000	52.000000	0.000000	-1.000000	-1.000000	650004.000000	1775788213.673957
-24479.730000	-21645.225000	5037.255000	282791.925000	301112.820000	282197.250000	-27077.040000	-46085.265000	2.094281	2.492390	2.548666	-3.789878	-10.011461	2.588984	-1.760796	0.557279	-0.915600	2.289000	0.885080	-0.715757	0.083252	0.678526	-1.000000	-1.000000	-1.000000	-1.000000	-1.000000	-1.000000	-1.000000	52.000000	0.000000	-1.000000	-1.000000	650005.000000	1775788213.680971
-24480.675000	-21645.945000	5036.130000	282791.745000	301107.510000	282194.910000	-27071.235000	-46085.445000	2.203358	2.316910	2.037902	-9.343446	-10.873654	-3.921537	-2.077332	0.759087	-0.915600	2.289000	0.885080	-0.715757	0.083252	0.678526	-1.000000	-1.000000	-1.000000	-1.000000	-1.000000	-1.000000	-1.000000	52.000000	0.000000	-1.000000	-1.000000	650006.000000	1775788213.680996
-24481.215000	-21643.470000	5038.695000	282796.515000	301113.180000	282195.630000	-27064.800000	-46083.420000	1.329599	1.382110	0.985137	-10.069815	-7.448218	-7.445824	-0.973204	0.474433	-0.915600	2.289000	0.885080	-0.715757	0.083252	0.678526	-1.000000	-1.000000	-1.000000	-1.000000	-1.000000	-1.000000	-1.000000	52.000000	0.000000	-1.000000	-1.000000	650007.000000	1775788213.685714
-24471.450000	-21632.715000	5048.820000	282797.820000	301102.920000	282194.505000	-27053.055000	-46069.560000	0.672017	0.790916	0.342202	-6.220286	-2.403315	-6.851156	2.162594	1.475217	-0.915600	2.289000	0.885080	-0.715757	0.083252	0.678526	-1.000000	-1.000000	-1.000000	-1.000000	-1.000000	-1.000000	-1.000000	52.000000	0.000000	-1.000000	-1.000000	650008.000000	1775788213.685738
-24462.945000	-21628.305000	5053.005000	282798.180000	301104.405000	282194.010000	-27045.540000	-46053.720000	1.230710	1.307631	0.800822	-0.382518	1.572593	-3.358676	6.101793	4.387303	-0.915600	2.289000	0.885080	-0.715757	0.083252	0.678526	-1.000000	-1.000000	-1.000000	-1.000000	-1.000000	-1.000000	-1.000000	52.000000	0.000000	-1.000000	-1.000000	650009.000000	1775788213.686987
-24466.815000	-21638.700000	5042.295000	282793.545000	301099.410000	282190.725000	-27050.085000	-46055.340000	2.705112	2.192951	1.663259	4.193315	3.273329	0.684261	8.329076	7.800059	-0.915600	2.289000	0.885080	-0.715757	0.083252	0.678526	-1.000000	-1.000000	-1.000000	-1.000000	-1.000000	-1.000000	-1.000000	52.000000	0.000000	-1.000000	-1.000000	650010.000000	1775788213.687006
-24462.000000	-21632.805000	5045.040000	282763.485000	301039.920000	282162.330000	-27051.570000	-46052.595000	3.396111	1.710387	1.219905	4.983074	2.130359	2.813088	6.652475	8.713911	1.205540	2.426340	0.320460	-0.714415	0.085693	0.676756	-1.000000	-1.000000	-1.000000	-1.000000	-1.000000	-1.000000	-1.000000	52.000000	0.000000	-1.000000	-1.000000	650011.000000	1775788213.690925
-24458.715000	-21626.595000	5052.375000	282766.680000	301107.915000	282166.380000	-27055.845000	-46053.540000	2.180958	-0.315072	-0.740335	1.487809	-1.149318	1.686950	1.185756	5.247936	1.205540	2.426340	0.320460	-0.714415	0.085693	0.676756	-1.000000	-1.000000	-1.000000	-1.000000	-1.000000	-1.000000	-1.000000	52.000000	0.000000	-1.000000	-1.000000	650012.000000	1775788213.690941
-24458.040000	-21624.390000	5056.830000	282781.755000	301127.265000	282179.610000	-27057.600000	-46055.880000	-0.311955	-2.154662	-2.365685	-2.999147	-1.287402	-0.743587	-5.378397	-1.373727	1.205540	2.426340	0.320460	-0.714415	0.085693	0.676756	-1.000000	-1.000000	-1.000000	-1.000000	-1.000000	-1.000000	-1.000000	52.000000	0.000000	-1.000000	-1.000000	650013.000000	1775788213.694271
-24464.835000	-21632.040000	5048.595000	282778.380000	301110.210000	282174.030000	-27058.140000	-46062.270000	-2.925948	-2.783364	-2.454109	-3.698715	5.152182	-0.820851	-9.695902	-8.048597	1.205540	2.426340	0.320460	-0.714415	0.085693	0.676756	-1.000000	-1.000000	-1.000000	-1.000000	-1.000000	-1.000000	-1.000000	52.000000	0.000000	-1.000000	-1.000000	650014.000000	1775788213.694288
-24468.750000	-21636.495000	5043.465000	282780.720000	301112.820000	282173.985000	-27057.240000	-46065.510000	-5.019657	-2.884761	-1.922579	0.098301	12.127775	1.930427	-9.831559	-11.995302	1.205540	2.426340	0.320460	-0.714415	0.085693	0.676756	-1.000000	-1.000000	-1.000000	-1.000000	-1.000000	-1.000000	-1.000000	52.000000	0.000000	-1.000000	-1.000000	650015.000000	1775788213.699148
-24469.740000	-21637.530000	5041.935000	282783.150000	301099.320000	282173.400000	-27058.050000	-46067.670000	-6.063970	-3.150922	-1.964077	4.857321	11.827052	4.703988	-6.136371	-11.842722	1.205540	2.426340	0.320460	-0.714415	0.085693	0.676756	-1.000000	-1.000000	-1.000000	-1.000000	-1.000000	-1.000000	-1.000000	52.000000	0.000000	-1.000000	-1.000000	650016.000000	1775788213.699166
-24468.345000	-21635.415000	5045.895000	282784.005000	301103.865000	282174.030000	-27059.310000	-46068.165000	-5.332243	-3.048166	-2.194303	7.153367	3.751584	5.224957	-0.768567	-7.847211	1.205540	2.426340	0.320460	-0.714415	0.085693	0.676756	-1.000000	-1.000000	-1.000000	-1.000000	-1.000000	-1.000000	-1.000000	52.000000	0.000000	-1.000000	-1.000000	650017.000000	1775788213.704770
-24469.965000	-21636.225000	5045.850000	282781.080000	301105.215000	282172.230000	-27063.180000	-46072.350000	-2.647728	-1.723644	-1.419300	5.865786	-6.399451	3.329943	3.692388	-1.741578	1.205540	2.426340	0.320460	-0.714415	0.085693	0.676756	-1.000000	-1.000000	-1.000000	-1.000000	-1.000000	-1.000000	-1.000000	52.000000	0.000000	-1.000000	-1.000000	650018.000000	1775788213.704793
-24477.660000	-21643.380000	5038.515000	282778.290000	301116.600000	282170.520000	-27068.580000	-46080.180000	0.855706	0.520549	0.424587	1.855808	-12.180191	0.179033	5.563560	3.884758	1.205540	2.426340	0.320460	-0.714415	0.085693	0.676756	-1.000000	-1.000000	-1.000000	-1.000000	-1.000000	-1.000000	-1.000000	52.000000	0.000000	-1.000000	-1.000000	650019.000000	1775788213.705342
-24475.005000	-21640.005000	5043.105000	282772.485000	301115.610000	282165.660000	-27068.130000	-46079.010000	3.448962	2.418016	2.130679	-2.948244	-10.989073	-2.846689	4.761121	6.975908	1.205540	2.426340	0.320460	-0.714415	0.085693	0.676756	-1.000000	-1.000000	-1.000000	-1.000000	-1.000000	-1.000000	-1.000000	52.000000	0.000000	-1.000000	-1.000000	650020.000000	1775788213.705355
-24475.725000	-21640.455000	5043.330000	282767.310000	301110.300000	282159.675000	-27067.185000	-46079.730000	4.405574	3.261821	2.912857	-6.582896	-5.213233	-4.837803	2.675387	7.298208	0.412020	2.838360	-0.473060	-0.715880	0.085815	0.674864	-1.000000	-1.000000	-1.000000	-1.000000	-1.000000	-1.000000	-1.000000	52.000000	0.000000	-1.000000	-1.000000	650021.000000	1775788213.710684
-24473.880000	-21639.825000	5043.240000	282766.140000	301109.940000	282156.120000	-27064.215000	-46075.545000	4.189255	3.256319	2.902294	-7.760564	0.528964	-5.437089	1.028727	6.055923	0.412020	2.838360	-0.473060	-0.715880	0.085815	0.674864	-1.000000	-1.000000	-1.000000	-1.000000	-1.000000	-1.000000	-1.000000	52.000000	0.000000	-1.000000	-1.000000	650022.000000	1775788213.710702
-24472.890000	-21638.385000	5046.570000	282768.750000	301114.080000	282156.030000	-27060.795000	-46074.420000	3.422784	2.725004	2.358710	-6.051605	3.448201	-4.517423	0.631404	4.466189	0.412020	2.838360	-0.473060	-0.715880	0.085815	0.674864	-1.000000	-1.000000	-1.000000	-1.000000	-1.000000	-1.000000	-1.000000	52.000000	0.000000	-1.000000	-1.000000	650023.000000	1775788213.716548
-24479.685000	-21646.170000	5039.820000	282772.350000	301115.115000	282156.435000	-27061.020000	-46079.055000	2.264485	1.714782	1.379601	-1.996704	3.806259	-2.151836	1.085354	2.851628	0.412020	2.838360	-0.473060	-0.715880	0.085815	0.674864	-1.000000	-1.000000	-1.000000	-1.000000	-1.000000	-1.000000	-1.000000	52.000000	0.000000	-1.000000	-1.000000	650024.000000	1775788213.716569
-24477.840000	-21645.765000	5039.100000	282771.900000	301110.930000	282154.005000	-27059.670000	-46077.390000	0.590673	0.140693	-0.064811	2.787247	2.919421	0.974993	1.359578	0.884827	0.412020	2.838360	-0.473060	-0.715880	0.085815	0.674864	-1.000000	-1.000000	-1.000000	-1.000000	-1.000000	-1.000000	-1.000000	52.000000	0.000000	-1.000000	-1.000000	650025.000000	1775788213.725497
-24475.230000	-21643.425000	5039.010000	282765.960000	301096.305000	282148.065000	-27062.820000	-46077.255000	-1.172729	-1.526620	-1.680732	6.037701	1.274152	3.489009	0.694060	-1.323428	0.412020	2.838360	-0.473060	-0.715880	0.085815	0.674864	-1.000000	-1.000000	-1.000000	-1.000000	-1.000000	-1.000000	-1.000000	52.000000	0.000000	-1.000000	-1.000000	650026.000000	1775788213.725514
-24468.300000	-21637.665000	5042.835000	282742.470000	301042.530000	282116.835000	-27060.570000	-46071.540000	-1.969427	-2.171858	-2.572600	5.756379	-2.029647	3.661075	-0.831109	-2.906747	0.412020	2.838360	-0.473060	-0.715880	0.085815	0.674864	-1.000000	-1.000000	-1.000000	-1.000000	-1.000000	-1.000000	-1.000000	52.000000	0.000000	-1.000000	-1.000000	650027.000000	1775788213.725579
-24471.630000	-21641.130000	5041.980000	282763.665000	301141.755000	282138.525000	-27065.970000	-46078.020000	-1.364999	-1.316517	-2.081787	2.070134	-5.642472	1.093718	-2.464875	-3.248775	0.412020	2.838360	-0.473060	-0.715880	0.085815	0.674864	-1.000000	-1.000000	-1.000000	-1.000000	-1.000000	-1.000000	-1.000000	52.000000	0.000000	-1.000000	-1.000000	650028.000000	1775788213.725592
-24467.670000	-21635.865000	5046.795000	282765.735000	301128.030000	282140.100000	-27066.915000	-46077.660000	-0.200543	0.198251	-0.527287	-1.584083	-3.458030	-1.346278	-3.476460	-2.757495	0.412020	2.838360	-0.473060	-0.715880	0.085815	0.674864	-1.000000	-1.000000	-1.000000	-1.000000	-1.000000	-1.000000	-1.000000	52.000000	0.000000	-1.000000	-1.000000	650029.000000	1775788213.726779
-24462.855000	-21628.665000	5054.220000	282761.235000	301113.810000	282133.620000	-27066.600000	-46074.330000	0.524741	1.377074	1.292340	-2.047958	5.483582	-0.693893	-3.467704	-2.074982	0.412020	2.838360	-0.473060	-0.715880	0.085815	0.674864	-1.000000	-1.000000	-1.000000	-1.000000	-1.000000	-1.000000	-1.000000	52.000000	0.000000	-1.000000	-1.000000	650030.000000	1775788213.726793
-24466.680000	-21629.880000	5054.130000	282760.650000	301116.195000	282130.155000	-27063.405000	-46076.895000	0.541599	1.898461	2.676185	-0.184196	12.297842	1.910989	-2.245043	-1.252145	-0.076300	1.602300	-2.456860	-0.719297	0.084961	0.675291	-1.000000	-1.000000	-1.000000	-1.000000	-1.000000	-1.000000	-1.000000	52.000000	0.000000	-1.000000	-1.000000	650031.000000	1775788213.729124
-24472.665000	-21634.920000	5050.350000	282760.155000	301111.020000	282125.205000	-27062.685000	-46080.225000	-0.262143	1.424169	2.814244	1.344957	10.358145	3.395375	-0.052520	-0.385866	-0.076300	1.602300	-2.456860	-0.719297	0.084961	0.675291	-1.000000	-1.000000	-1.000000	-1.000000	-1.000000	-1.000000	-1.000000	52.000000	0.000000	-1.000000	-1.000000	650032.000000	1775788213.729144
-24474.240000	-21639.690000	5044.725000	282751.470000	301091.670000	282115.305000	-27054.720000	-46076.490000	-1.851760	-0.413409	1.085030	1.188369	1.516974	2.361735	2.335825	0.190274	-0.076300	1.602300	-2.456860	-0.719297	0.084961	0.675291	-1.000000	-1.000000	-1.000000	-1.000000	-1.000000	-1.000000	-1.000000	52.000000	0.000000	-1.000000	-1.000000	650033.000000	1775788213.736637
-24469.335000	-21638.385000	5045.400000	282746.295000	301099.770000	282110.355000	-27057.195000	-46071.990000	-3.245272	-2.952861	-1.930582	-0.550588	-8.453296	-0.513794	3.994192	0.647165	-0.076300	1.602300	-2.456860	-0.719297	0.084961	0.675291	-1.000000	-1.000000	-1.000000	-1.000000	-1.000000	-1.000000	-1.000000	52.000000	0.000000	-1.000000	-1.000000	650034.000000	1775788213.736654
-24466.770000	-21636.225000	5047.785000	282752.775000	301129.335000	282117.645000	-27056.745000	-46070.865000	-3.004776	-4.478704	-4.358619	-2.605693	-13.222345	-3.168751	4.087139	1.371321	-0.076300	1.602300	-2.456860	-0.719297	0.084961	0.675291	-1.000000	-1.000000	-1.000000	-1.000000	-1.000000	-1.000000	-1.000000	52.000000	0.000000	-1.000000	-1.000000	650035.000000	1775788213.739373
-24471.090000	-21639.375000	5044.905000	282745.170000	301120.875000	282112.020000	-27059.400000	-46077.840000	-0.943710	-3.788779	-4.560488	-3.245186	-9.401887	-3.533512	2.325669	1.948069	-0.076300	1.602300	-2.456860	-0.719297	0.084961	0.675291	-1.000000	-1.000000	-1.000000	-1.000000	-1.000000	-1.000000	-1.000000	52.000000	0.000000	-1.000000	-1.000000	650036.000000	1775788213.739390
-24473.700000	-21643.920000	5039.055000	282739.050000	301126.815000	282107.250000	-27058.320000	-46079.820000	1.405538	-1.475435	-2.719325	-2.139645	-0.318439	-1.600697	-0.510956	1.417755	-0.076300	1.602300	-2.456860	-0.719297	0.084961	0.675291	-1.000000	-1.000000	-1.000000	-1.000000	-1.000000	-1.000000	-1.000000	52.000000	0.000000	-1.000000	-1.000000	650037.000000	1775788213.741661
-24473.835000	-21646.665000	5034.105000	282735.360000	301125.645000	282101.895000	-27053.145000	-46076.355000	2.465977	0.806137	-0.448054	-0.536697	7.097202	0.667456	-2.859946	-0.205975	-0.076300	1.602300	-2.456860	-0.719297	0.084961	0.675291	-1.000000	-1.000000	-1.000000	-1.000000	-1.000000	-1.000000	-1.000000	52.000000	0.000000	-1.000000	-1.000000	650038.000000	1775788213.741676
-24473.025000	-21645.270000	5035.680000	282732.210000	301124.295000	282095.595000	-27055.755000	-46076.580000	2.105257	2.054720	1.049318	0.581394	8.761754	1.593018	-3.482226	-1.610236	-0.076300	1.602300	-2.456860	-0.719297	0.084961	0.675291	-1.000000	-1.000000	-1.000000	-1.000000	-1.000000	-1.000000	-1.000000	52.000000	0.000000	-1.000000	-1.000000	650039.000000	1775788213.766262
-24473.520000	-21644.955000	5036.760000	282733.155000	301126.545000	282093.705000	-27058.950000	-46080.180000	1.205372	2.461204	1.888464	1.251709	5.205101	1.038774	-2.561489	-1.813665	-0.076300	1.602300	-2.456860	-0.719297	0.084961	0.675291	-1.000000	-1.000000	-1.000000	-1.000000	-1.000000	-1.000000	-1.000000	52.000000	0.000000	-1.000000	-1.000000	650040.000000	1775788213.766287
-24471.675000	-21643.065000	5039.235000	282736.980000	301127.760000	282094.920000	-27056.205000	-46080.180000	0.532906	2.579900	2.667997	1.963380	-0.285373	0.084003	-1.223096	-1.117148	-1.526000	0.427280	-3.265640	-0.719114	0.083496	0.676268	-1.000000	-1.000000	-1.000000	-1.000000	-1.000000	-1.000000	-1.000000	52.000000	0.000000	-1.000000	-1.000000	650041.000000	1775788213.766313
-24473.970000	-21645.630000	5037.480000	282735.810000	301124.250000	282094.470000	-27059.130000	-46085.985000	0.272222	2.523292	3.374325	2.883406	-4.425563	-0.088128	-0.156690	-0.328818	-1.526000	0.427280	-3.265640	-0.719114	0.083496	0.676268	-1.000000	-1.000000	-1.000000	-1.000000	-1.000000	-1.000000	-1.000000	52.000000	0.000000	-1.000000	-1.000000	650042.000000	1775788213.766367
-24479.415000	-21649.275000	5036.040000	282732.255000	301124.610000	282091.680000	-27069.615000	-46098.315000	0.056899	1.923151	3.355762	3.366422	-5.833456	0.662353	0.337539	-0.158336	-1.526000	0.427280	-3.265640	-0.719114	0.083496	0.676268	-1.000000	-1.000000	-1.000000	-1.000000	-1.000000	-1.000000	-1.000000	52.000000	0.000000	-1.000000	-1.000000	650043.000000	1775788213.766384
-24482.610000	-21649.635000	5035.365000	282728.070000	301127.940000	282090.555000	-27077.310000	-46103.985000	-0.585657	0.563228	2.164231	2.505445	-4.733492	1.460899	-0.126570	-0.939018	-1.526000	0.427280	-3.265640	-0.719114	0.083496	0.676268	-1.000000	-1.000000	-1.000000	-1.000000	-1.000000	-1.000000	-1.000000	52.000000	0.000000	-1.000000	-1.000000	650044.000000	1775788213.766395
-24478.380000	-21642.930000	5040.720000	282723.660000	301129.965000	282087.765000	-27073.440000	-46097.955000	-1.409190	-0.912500	0.291830	0.232174	-1.979679	1.478596	-1.160821	-1.818971	-1.526000	0.427280	-3.265640	-0.719114	0.083496	0.676268	-1.000000	-1.000000	-1.000000	-1.000000	-1.000000	-1.000000	-1.000000	52.000000	0.000000	-1.000000	-1.000000	650045.000000	1775788213.769564
-24471.270000	-21632.895000	5050.305000	282718.665000	301118.715000	282081.330000	-27065.610000	-46087.380000	-1.353786	-1.248514	-0.995627	-2.465237	0.980812	0.533098	-1.153488	-0.958609	-1.526000	0.427280	-3.265640	-0.719114	0.083496	0.676268	-1.000000	-1.000000	-1.000000	-1.000000	-1.000000	-1.000000	-1.000000	52.000000	0.000000	-1.000000	-1.000000	650046.000000	1775788213.769581
-24461.595000	-21624.570000	5058.585000	282717.990000	301122.900000	282079.485000	-27058.050000	-46073.340000	0.325906	0.147347	-0.737284	-4.235980	2.517999	-0.999622	1.099502	2.522937	-1.526000	0.427280	-3.265640	-0.719114	0.083496	0.676268	-1.000000	-1.000000	-1.000000	-1.000000	-1.000000	-1.000000	-1.000000	52.000000	0.000000	-1.000000	-1.000000	650047.000000	1775788213.769600
-24455.790000	-21626.190000	5056.020000	282716.910000	301110.705000	282075.795000	-27055.710000	-46062.900000	3.007858	2.195339	0.545043	-4.138546	2.150990	-2.321863	4.651944	7.180259	-1.526000	0.427280	-3.265640	-0.719114	0.083496	0.676268	-1.000000	-1.000000	-1.000000	-1.000000	-1.000000	-1.000000	-1.000000	52.000000	0.000000	-1.000000	-1.000000	650048.000000	1775788213.769610
-24457.545000	-21630.915000	5049.360000	282702.735000	301047.525000	282050.955000	-27057.780000	-46064.520000	4.829564	2.715434	0.956327	-2.442394	-0.463153	-3.067521	6.892077	9.901163	-1.526000	0.427280	-3.265640	-0.719114	0.083496	0.676268	-1.000000	-1.000000	-1.000000	-1.000000	-1.000000	-1.000000	-1.000000	52.000000	0.000000	-1.000000	-1.000000	650049.000000	1775788213.769623
-24468.120000	-21638.655000	5043.870000	282724.515000	301127.310000	282064.140000	-27056.655000	-46075.185000	3.835103	0.385132	-0.896611	-0.152714	-4.395258	-3.427547	5.809872	7.835778	-1.526000	0.427280	-3.265640	-0.719114	0.083496	0.676268	-1.000000	-1.000000	-1.000000	-1.000000	-1.000000	-1.000000	-1.000000	52.000000	0.000000	-1.000000	-1.000000	650050.000000	1775788213.769633
-24476.760000	-21647.025000	5038.020000	282733.560000	301131.810000	282076.830000	-27060.750000	-46083.420000	-0.451265	-3.931999	-4.269970	2.685676	-3.905164	-2.340380	1.689735	0.651283	-3.067260	0.412020	-2.929920	-0.720640	0.085022	0.676146	-1.000000	-1.000000	-1.000000	-1.000000	-1.000000	-1.000000	-1.000000	52.000000	0.000000	-1.000000	-1.000000	650051.000000	1775788213.772799
-24480.990000	-21650.895000	5033.970000	282730.095000	301122.135000	282076.020000	-27065.655000	-46089.315000	-6.071365	-7.754275	-6.897839	5.864412	3.986989	1.445496	-3.418498	-8.469795	-3.067260	0.412020	-2.929920	-0.720640	0.085022	0.676146	-1.000000	-1.000000	-1.000000	-1.000000	-1.000000	-1.000000	-1.000000	52.000000	0.000000	-1.000000	-1.000000	650052.000000	1775788213.772816
-24477.705000	-21646.260000	5037.750000	282727.395000	301126.410000	282075.390000	-27064.665000	-46088.910000	-9.532459	-8.505750	-6.768744	7.160304	12.397839	6.108368	-7.195406	-14.586955	-3.067260	0.412020	-2.929920	-0.720640	0.085022	0.676146	-1.000000	-1.000000	-1.000000	-1.000000	-1.000000	-1.000000	-1.000000	52.000000	0.000000	-1.000000	-1.000000	650053.000000	1775788213.782876
-24478.155000	-21646.080000	5038.470000	282725.190000	301118.535000	282071.925000	-27066.465000	-46091.385000	-8.343406	-5.112128	-3.356703	4.648200	13.423657	8.030395	-8.027507	-14.365096	-3.067260	0.412020	-2.929920	-0.720640	0.085022	0.676146	-1.000000	-1.000000	-1.000000	-1.000000	-1.000000	-1.000000	-1.000000	52.000000	0.000000	-1.000000	-1.000000	650054.000000	1775788213.782897
-24478.290000	-21644.640000	5040.135000	282724.155000	301113.945000	282068.820000	-27063.990000	-46092.420000	-3.044597	0.980546	1.939112	-0.662542	6.290127	5.601497	-5.699270	-8.217565	-3.067260	0.412020	-2.929920	-0.720640	0.085022	0.676146	-1.000000	-1.000000	-1.000000	-1.000000	-1.000000	-1.000000	-1.000000	52.000000	0.000000	-1.000000	-1.000000	650055.000000	1775788213.782922
-24481.530000	-21648.015000	5034.735000	282724.965000	301117.410000	282067.335000	-27066.555000	-46095.075000	3.273827	6.589571	6.448732	-5.738432	-4.159613	0.303289	-1.509185	0.380385	-3.067260	0.412020	-2.929920	-0.720640	0.085022	0.676146	-1.000000	-1.000000	-1.000000	-1.000000	-1.000000	-1.000000	-1.000000	52.000000	0.000000	-1.000000	-1.000000	650056.000000	1775788213.782933
-24472.755000	-21639.645000	5043.645000	282730.095000	301122.360000	282068.415000	-27064.890000	-46086.750000	7.545218	9.142680	8.088040	-7.871558	-11.665509	-4.772359	2.539950	7.592839	-3.067260	0.412020	-2.929920	-0.720640	0.085022	0.676146	-1.000000	-1.000000	-1.000000	-1.000000	-1.000000	-1.000000	-1.000000	52.000000	0.000000	-1.000000	-1.000000	650057.000000	1775788213.782947
-24469.695000	-21631.995000	5052.780000	282733.785000	301120.380000	282070.125000	-27070.740000	-46087.515000	8.735196	8.417640	6.988649	-6.212349	-12.687416	-7.051196	4.812317	11.322959	-3.067260	0.412020	-2.929920	-0.720640	0.085022	0.676146	-1.000000	-1.000000	-1.000000	-1.000000	-1.000000	-1.000000	-1.000000	52.000000	0.000000	-1.000000	-1.000000	650058.000000	1775788213.782957
-24469.380000	-21631.185000	5054.175000	282733.110000	301117.410000	282070.350000	-27069.525000	-46088.145000	7.357111	5.786849	4.701762	-2.100083	-8.291325	-5.901068	4.731053	11.125978	-3.067260	0.412020	-2.929920	-0.720640	0.085022	0.676146	-1.000000	-1.000000	-1.000000	-1.000000	-1.000000	-1.000000	-1.000000	52.000000	0.000000	-1.000000	-1.000000	650059.000000	1775788213.799659
-24474.285000	-21638.610000	5044.860000	282729.555000	301113.315000	282067.830000	-27067.140000	-46091.565000	4.071185	2.181064	1.899187	1.827118	-2.256386	-2.674640	3.026649	7.514585	-3.067260	0.412020	-2.929920	-0.720640	0.085022	0.676146	-1.000000	-1.000000	-1.000000	-1.000000	-1.000000	-1.000000	-1.000000	52.000000	0.000000	-1.000000	-1.000000	650060.000000	1775788213.799685
-24477.885000	-21646.215000	5035.770000	282726.810000	301129.740000	282069.225000	-27063.540000	-46092.420000	-0.406780	-2.227592	-1.865665	3.442185	2.520825	0.540914	1.199408	1.981619	-2.075360	-0.656180	-2.762060	-0.724119	0.085876	0.675902	-1.000000	-1.000000	-1.000000	-1.000000	-1.000000	-1.000000	-1.000000	52.000000	0.000000	-1.000000	-1.000000	650061.000000	1775788213.799749
-24478.065000	-21648.690000	5032.620000	282721.185000	301126.410000	282065.220000	-27055.800000	-46089.090000	-4.712873	-6.642785	-6.201921	2.430312	5.480997	2.353719	0.369812	-3.195957	-2.075360	-0.656180	-2.762060	-0.724119	0.085876	0.675902	-1.000000	-1.000000	-1.000000	-1.000000	-1.000000	-1.000000	-1.000000	52.000000	0.000000	-1.000000	-1.000000	650062.000000	1775788213.799761
-24472.980000	-21640.365000	5042.565000	282718.485000	301120.470000	282059.460000	-27055.980000	-46086.300000	-6.999199	-9.013698	-8.866354	0.051833	6.504475	2.390764	0.576450	-5.941391	-2.075360	-0.656180	-2.762060	-0.724119	0.085876	0.675902	-1.000000	-1.000000	-1.000000	-1.000000	-1.000000	-1.000000	-1.000000	52.000000	0.000000	-1.000000	-1.000000	650063.000000	1775788213.799778
-24470.730000	-21635.145000	5047.560000	282717.675000	301121.865000	282056.355000	-27063.720000	-46087.695000	-6.106899	-7.430806	-7.450435	-1.915064	5.014334	1.032762	0.708966	-5.650490	-2.075360	-0.656180	-2.762060	-0.724119	0.085876	0.675902	-1.000000	-1.000000	-1.000000	-1.000000	-1.000000	-1.000000	-1.000000	52.000000	0.000000	-1.000000	-1.000000	650064.000000	1775788213.799790
-24476.265000	-21640.995000	5042.430000	282721.680000	301125.060000	282057.075000	-27065.610000	-46096.830000	-2.806555	-2.445487	-2.281814	-2.128696	1.718699	-0.624769	-0.500266	-3.644619	-2.075360	-0.656180	-2.762060	-0.724119	0.085876	0.675902	-1.000000	-1.000000	-1.000000	-1.000000	-1.000000	-1.000000	-1.000000	52.000000	0.000000	-1.000000	-1.000000	650065.000000	1775788213.801033
-24487.830000	-21653.235000	5030.460000	282723.705000	301121.505000	282057.030000	-27075.780000	-46115.280000	0.403012	2.566228	3.073660	-0.357013	-1.402994	-1.291198	-2.975183	-2.208636	-2.075360	-0.656180	-2.762060	-0.724119	0.085876	0.675902	-1.000000	-1.000000	-1.000000	-1.000000	-1.000000	-1.000000	-1.000000	52.000000	0.000000	-1.000000	-1.000000	650066.000000	1775788213.801051
-24485.445000	-21650.445000	5033.655000	282725.910000	301128.210000	282058.830000	-27072.405000	-46114.110000	1.501250	4.438087	5.150485	2.345823	-2.950875	-0.479430	-5.212838	-2.499448	-2.075360	-0.656180	-2.762060	-0.724119	0.085876	0.675902	-1.000000	-1.000000	-1.000000	-1.000000	-1.000000	-1.000000	-1.000000	52.000000	0.000000	-1.000000	-1.000000	650067.000000	1775788213.803243
-24484.050000	-21646.215000	5037.795000	282725.145000	301124.925000	282059.595000	-27067.905000	-46110.195000	0.945460	3.339860	3.953839	4.283241	-2.716431	1.198611	-5.324512	-3.023197	-2.075360	-0.656180	-2.762060	-0.724119	0.085876	0.675902	-1.000000	-1.000000	-1.000000	-1.000000	-1.000000	-1.000000	-1.000000	52.000000	0.000000	-1.000000	-1.000000	650068.000000	1775788213.803260
-24480.090000	-21637.710000	5046.480000	282720.735000	301116.420000	282056.130000	-27060.435000	-46102.545000	0.665492	1.896327	2.135873	4.168716	-1.606468	2.549495	-2.391561	-1.278268	-2.075360	-0.656180	-2.762060	-0.724119	0.085876	0.675902	-1.000000	-1.000000	-1.000000	-1.000000	-1.000000	-1.000000	-1.000000	52.000000	0.000000	-1.000000	-1.000000	650069.000000	1775788213.809400
-24473.520000	-21630.780000	5054.355000	282716.550000	301114.170000	282053.385000	-27055.350000	-46090.710000	1.699339	1.978203	1.759053	1.842709	-0.995178	2.541461	2.481155	3.210771	-2.075360	-0.656180	-2.762060	-0.724119	0.085876	0.675902	-1.000000	-1.000000	-1.000000	-1.000000	-1.000000	-1.000000	-1.000000	52.000000	0.000000	-1.000000	-1.000000	650070.000000	1775788213.809421
-24471.090000	-21636.180000	5046.975000	282716.370000	301123.800000	282052.080000	-27056.610000	-46081.080000	3.478562	3.040097	2.477802	-1.530714	-0.993386	1.063568	6.622598	8.379009	-3.586100	-0.106820	-2.334780	-0.723997	0.083557	0.673704	-1.000000	-1.000000	-1.000000	-1.000000	-1.000000	-1.000000	-1.000000	52.000000	0.000000	-1.000000	-1.000000	650071.000000	1775788213.819013
-24466.590000	-21637.170000	5044.590000	282715.830000	301120.965000	282049.335000	-27060.930000	-46079.370000	4.586858	3.015593	2.239190	-4.052531	-0.398727	-0.964596	7.482421	11.171244	-3.586100	-0.106820	-2.334780	-0.723997	0.083557	0.673704	-1.000000	-1.000000	-1.000000	-1.000000	-1.000000	-1.000000	-1.000000	52.000000	0.000000	-1.000000	-1.000000	650072.000000	1775788213.819035
-24470.820000	-21638.520000	5043.420000	282715.965000	301116.555000	282046.995000	-27062.415000	-46085.805000	3.849616	0.784103	-0.121154	-4.402548	1.029461	-2.420911	4.414934	9.272580	-3.586100	-0.106820	-2.334780	-0.723997	0.083557	0.673704	-1.000000	-1.000000	-1.000000	-1.000000	-1.000000	-1.000000	-1.000000	52.000000	0.000000	-1.000000	-1.000000	650073.000000	1775788213.819103
-24475.365000	-21642.120000	5038.695000	282708.180000	301084.875000	282035.565000	-27059.040000	-46089.270000	1.015914	-2.630168	-3.471597	-2.820510	1.506609	-2.901263	-0.662884	2.660089	-3.586100	-0.106820	-2.334780	-0.723997	0.083557	0.673704	-1.000000	-1.000000	-1.000000	-1.000000	-1.000000	-1.000000	-1.000000	52.000000	0.000000	-1.000000	-1.000000	650074.000000	1775788213.819118
-24470.370000	-21640.095000	5031.720000	282636.360000	300873.285000	281948.175000	-27050.310000	-46080.090000	-2.850598	-5.244831	-5.893571	-1.968223	-4.347601	-4.244377	-4.530154	-5.614748	-3.586100	-0.106820	-2.334780	-0.723997	0.083557	0.673704	-1.000000	-1.000000	-1.000000	-1.000000	-1.000000	-1.000000	-1.000000	52.000000	0.000000	-1.000000	-1.000000	650075.000000	1775788213.819137
-24470.550000	-21642.480000	5026.860000	282679.740000	301033.215000	281862.765000	-27056.970000	-46081.395000	-5.619899	-5.649942	-6.353311	-4.138873	-18.005660	-10.437644	-5.214044	-11.067493	-3.586100	-0.106820	-2.334780	-0.723997	0.083557	0.673704	-1.000000	-1.000000	-1.000000	-1.000000	-1.000000	-1.000000	-1.000000	52.000000	0.000000	-1.000000	-1.000000	650076.000000	1775788213.819146
-24482.880000	-21650.895000	5028.120000	282827.340000	301235.445000	281943.900000	-27072.405000	-46100.655000	-6.009273	-3.948363	-4.715043	-3.004859	-20.123033	-18.975066	-3.773243	-11.673420	-3.586100	-0.106820	-2.334780	-0.723997	0.083557	0.673704	-1.000000	-1.000000	-1.000000	-1.000000	-1.000000	-1.000000	-1.000000	52.000000	0.000000	-1.000000	-1.000000	650077.000000	1775788213.826703
-24487.290000	-21655.215000	5025.420000	282822.525000	301110.390000	282190.905000	-27074.475000	-46106.550000	-4.785249	-1.569568	-1.397708	10.680412	7.725853	-12.440023	-2.701241	-9.176886	-3.586100	-0.106820	-2.334780	-0.723997	0.083557	0.673704	-1.000000	-1.000000	-1.000000	-1.000000	-1.000000	-1.000000	-1.000000	52.000000	0.000000	-1.000000	-1.000000	650078.000000	1775788213.826720
-24487.875000	-21656.070000	5023.665000	282815.505000	301071.870000	282295.665000	-27075.105000	-46107.225000	-3.075255	0.305212	2.451885	29.365126	43.292092	24.326541	-2.566527	-5.735360	-3.586100	-0.106820	-2.334780	-0.723997	0.083557	0.673704	-1.000000	-1.000000	-1.000000	-1.000000	-1.000000	-1.000000	-1.000000	52.000000	0.000000	-1.000000	-1.000000	650079.000000	1775788213.826741
-24480.225000	-21647.070000	5030.730000	282790.845000	301005.585000	282269.205000	-27069.930000	-46101.330000	-0.796106	1.820072	5.427300	32.691793	47.778590	72.937130	-1.778885	-1.534212	-3.586100	-0.106820	-2.334780	-0.723997	0.083557	0.673704	-1.000000	-1.000000	-1.000000	-1.000000	-1.000000	-1.000000	-1.000000	52.000000	0.000000	-1.000000	-1.000000	650080.000000	1775788213.826751
-24483.780000	-21648.195000	5032.485000	282807.045000	301087.485000	282283.020000	-27070.965000	-46108.170000	2.320616	3.585658	6.835603	12.836724	16.641609	89.564653	0.741407	3.484143	-5.417300	0.778260	-2.945180	-0.724119	0.080932	0.669432	-1.000000	-1.000000	-1.000000	-1.000000	-1.000000	-1.000000	-1.000000	52.000000	0.000000	-1.000000	-1.000000	650081.000000	1775788213.831016
-24483.060000	-21646.170000	5036.940000	282822.795000	301088.655000	282295.530000	-27068.040000	-46108.080000	5.256091	5.186278	6.604349	-17.144349	-20.406708	52.070008	4.076343	7.797928	-5.417300	0.778260	-2.945180	-0.724119	0.080932	0.669432	-1.000000	-1.000000	-1.000000	-1.000000	-1.000000	-1.000000	-1.000000	52.000000	0.000000	-1.000000	-1.000000	650082.000000	1775788213.831033
-24481.710000	-21644.055000	5038.920000	282826.845000	301077.495000	282296.880000	-27070.020000	-46106.775000	6.432290	5.447475	4.842004	-37.784131	-36.488516	-18.693427	6.278183	9.533164	-5.417300	0.778260	-2.945180	-0.724119	0.080932	0.669432	-1.000000	-1.000000	-1.000000	-1.000000	-1.000000	-1.000000	-1.000000	52.000000	0.000000	-1.000000	-1.000000	650083.000000	1775788213.834594
-24485.445000	-21647.880000	5035.860000	282819.915000	301053.375000	282290.040000	-27070.830000	-46108.305000	5.281255	3.810524	1.868607	-39.732032	-30.076726	-82.657305	6.023643	8.297838	-5.417300	0.778260	-2.945180	-0.724119	0.080932	0.669432	-1.000000	-1.000000	-1.000000	-1.000000	-1.000000	-1.000000	-1.000000	52.000000	0.000000	-1.000000	-1.000000	650084.000000	1775788213.834616
-24490.260000	-21653.595000	5029.200000	282794.850000	301018.095000	282266.820000	-27066.600000	-46108.755000	2.325638	0.618870	-1.830163	-27.321026	-15.419347	-111.061145	3.519525	5.012872	-5.417300	0.778260	-2.945180	-0.724119	0.080932	0.669432	-1.000000	-1.000000	-1.000000	-1.000000	-1.000000	-1.000000	-1.000000	52.000000	0.000000	-1.000000	-1.000000	650085.000000	1775788213.839663
-24496.470000	-21659.580000	5024.970000	282814.560000	301109.895000	282289.410000	-27068.670000	-46116.405000	-1.376518	-3.168923	-5.474083	-10.340314	-2.705100	-97.730698	0.233992	0.917584	-5.417300	0.778260	-2.945180	-0.724119	0.080932	0.669432	-1.000000	-1.000000	-1.000000	-1.000000	-1.000000	-1.000000	-1.000000	52.000000	0.000000	-1.000000	-1.000000	650086.000000	1775788213.839680
-24498.810000	-21663.360000	5019.840000	282816.585000	301097.925000	282292.470000	-27067.950000	-46119.060000	-4.459182	-6.128698	-7.842354	4.875731	8.580216	-53.915271	-2.392712	-2.910684	-5.417300	0.778260	-2.945180	-0.724119	0.080932	0.669432	-1.000000	-1.000000	-1.000000	-1.000000	-1.000000	-1.000000	-1.000000	52.000000	0.000000	-1.000000	-1.000000	650087.000000	1775788213.843706
-24495.390000	-21659.175000	5023.530000	282814.695000	301081.680000	282288.825000	-27067.230000	-46118.025000	-5.548723	-6.801837	-7.729897	16.000877	18.472107	0.221348	-3.714012	-5.414238	-5.417300	0.778260	-2.945180	-0.724119	0.080932	0.669432	-1.000000	-1.000000	-1.000000	-1.000000	-1.000000	-1.000000	-1.000000	52.000000	0.000000	-1.000000	-1.000000	650088.000000	1775788213.843723
-24485.670000	-21649.680000	5032.845000	282813.345000	301077.045000	282285.135000	-27072.855000	-46113.345000	-3.813107	-4.357813	-4.579772	21.260346	20.529670	43.684159	-3.780747	-5.572024	-5.417300	0.778260	-2.945180	-0.724119	0.080932	0.669432	-1.000000	-1.000000	-1.000000	-1.000000	-1.000000	-1.000000	-1.000000	52.000000	0.000000	-1.000000	-1.000000	650089.000000	1775788213.849434
-24482.790000	-21647.655000	5034.105000	282818.295000	301078.125000	282287.475000	-27082.080000	-46112.985000	0.241037	0.537243	0.820689	19.944146	12.022462	63.720923	-3.288485	-3.267344	-5.417300	0.778260	-2.945180	-0.724119	0.080932	0.669432	-1.000000	-1.000000	-1.000000	-1.000000	-1.000000	-1.000000	-1.000000	52.000000	0.000000	-1.000000	-1.000000	650090.000000	1775788213.849459
-24482.655000	-21648.375000	5032.575000	282819.330000	301071.780000	282287.070000	-27080.145000	-46112.355000	4.422507	5.376637	5.963999	13.867884	-1.382621	59.973813	-2.866327	0.143341	-5.829320	-0.564620	-2.319520	-0.725218	0.080932	0.666807	-1.000000	-1.000000	-1.000000	-1.000000	-1.000000	-1.000000	-1.000000	52.000000	0.000000	-1.000000	-1.000000	650091.000000	1775788213.855532
-24475.230000	-21640.860000	5037.390000	282794.805000	301002.030000	282262.275000	-27076.410000	-46105.065000	6.271502	7.468314	8.137531	5.667571	-13.189224	40.404873	-2.063804	2.838002	-5.829320	-0.564620	-2.319520	-0.725218	0.080932	0.666807	-1.000000	-1.000000	-1.000000	-1.000000	-1.000000	-1.000000	-1.000000	52.000000	0.000000	-1.000000	-1.000000	650092.000000	1775788213.855551
-24471.090000	-21635.100000	5044.635000	282800.295000	301073.310000	282269.025000	-27073.710000	-46101.960000	5.126604	6.226877	6.779022	-2.727345	-19.719864	15.200577	-0.056657	3.941970	-5.829320	-0.564620	-2.319520	-0.725218	0.080932	0.666807	-1.000000	-1.000000	-1.000000	-1.000000	-1.000000	-1.000000	-1.000000	52.000000	0.000000	-1.000000	-1.000000	650093.000000	1775788213.866850
-24474.195000	-21636.315000	5045.175000	282799.305000	301050.810000	282269.835000	-27066.555000	-46103.445000	2.018367	2.967890	3.445366	-8.857424	-16.948258	-6.056017	2.887151	3.433338	-5.829320	-0.564620	-2.319520	-0.725218	0.080932	0.666807	-1.000000	-1.000000	-1.000000	-1.000000	-1.000000	-1.000000	-1.000000	52.000000	0.000000	-1.000000	-1.000000	650094.000000	1775788213.866875
-24473.610000	-21636.765000	5043.645000	282780.720000	301041.855000	282252.285000	-27063.495000	-46101.780000	-1.755263	-0.880829	-0.213762	-10.520601	-5.043610	-17.325522	5.454548	1.531499	-5.829320	-0.564620	-2.319520	-0.725218	0.080932	0.666807	-1.000000	-1.000000	-1.000000	-1.000000	-1.000000	-1.000000	-1.000000	52.000000	0.000000	-1.000000	-1.000000	650095.000000	1775788213.866901
-24487.740000	-21651.705000	5031.135000	282804.255000	301111.380000	282276.180000	-27076.500000	-46121.130000	-5.198977	-4.537351	-3.574134	-7.868148	9.191178	-18.320033	5.982180	-1.414083	-5.829320	-0.564620	-2.319520	-0.725218	0.080932	0.666807	-1.000000	-1.000000	-1.000000	-1.000000	-1.000000	-1.000000	-1.000000	52.000000	0.000000	-1.000000	-1.000000	650096.000000	1775788213.866913
-24489.135000	-21652.920000	5028.390000	282804.345000	301091.580000	282273.885000	-27079.695000	-46128.195000	-7.573928	-7.469011	-6.433664	-2.168315	20.040018	-12.046957	3.325496	-4.949916	-5.829320	-0.564620	-2.319520	-0.725218	0.080932	0.666807	-1.000000	-1.000000	-1.000000	-1.000000	-1.000000	-1.000000	-1.000000	52.000000	0.000000	-1.000000	-1.000000	650097.000000	1775788213.866971
-24483.645000	-21646.170000	5033.745000	282795.075000	301050.945000	282260.745000	-27079.920000	-46123.965000	-7.864930	-8.454506	-7.793866	4.299865	22.649674	-3.155573	-1.524327	-7.652886	-5.829320	-0.564620	-2.319520	-0.725218	0.080932	0.666807	-1.000000	-1.000000	-1.000000	-1.000000	-1.000000	-1.000000	-1.000000	52.000000	0.000000	-1.000000	-1.000000	650098.000000	1775788213.866986
-24478.515000	-21639.330000	5040.360000	282779.955000	301030.020000	282242.205000	-27079.740000	-46116.270000	-4.996541	-5.956536	-6.103752	7.606358	12.463267	2.638978	-5.553165	-7.048213	-5.829320	-0.564620	-2.319520	-0.725218	0.080932	0.666807	-1.000000	-1.000000	-1.000000	-1.000000	-1.000000	-1.000000	-1.000000	52.000000	0.000000	-1.000000	-1.000000	650099.000000	1775788213.867004
-24483.870000	-21643.425000	5039.775000	282808.980000	301108.770000	282271.905000	-27072.675000	-46114.830000	0.336371	-0.423028	-1.365903	6.069171	-5.105030	3.063760	-6.247122	-2.232537	-5.829320	-0.564620	-2.319520	-0.725218	0.080932	0.666807	-1.000000	-1.000000	-1.000000	-1.000000	-1.000000	-1.000000	-1.000000	52.000000	0.000000	-1.000000	-1.000000	650100.000000	1775788213.867015
-24485.805000	-21649.275000	5033.880000	282807.720000	301078.800000	282270.960000	-27059.850000	-46105.380000	5.255059	4.991621	3.864583	2.736883	-16.079612	1.513956	-3.189759	4.513355	-4.364360	-3.143560	-2.105880	-0.725645	0.078491	0.665098	-1.000000	-1.000000	-1.000000	-1.000000	-1.000000	-1.000000	-1.000000	52.000000	0.000000	-1.000000	-1.000000	650101.000000	1775788213.877086
-24484.815000	-21653.415000	5027.580000	282802.410000	301076.280000	282266.325000	-27058.725000	-46099.845000	7.191606	7.048197	6.372919	0.709034	-14.672156	1.438621	1.940091	9.668841	-4.364360	-3.143560	-2.105880	-0.725645	0.078491	0.665098	-1.000000	-1.000000	-1.000000	-1.000000	-1.000000	-1.000000	-1.000000	52.000000	0.000000	-1.000000	-1.000000	650102.000000	1775788213.877107
-24487.920000	-21656.520000	5024.205000	282802.005000	301091.580000	282268.440000	-27058.815000	-46105.920000	5.910299	5.191651	5.011837	-0.494758	-7.144490	2.124954	6.001382	10.744646	-4.364360	-3.143560	-2.105880	-0.725645	0.078491	0.665098	-1.000000	-1.000000	-1.000000	-1.000000	-1.000000	-1.000000	-1.000000	52.000000	0.000000	-1.000000	-1.000000	650103.000000	1775788213.877129
-24489.720000	-21656.295000	5025.105000	282798.765000	301084.605000	282264.840000	-27063.270000	-46111.455000	2.833332	1.487334	1.446724	-2.185611	-0.249540	1.669565	6.295182	6.995202	-4.364360	-3.143560	-2.105880	-0.725645	0.078491	0.665098	-1.000000	-1.000000	-1.000000	-1.000000	-1.000000	-1.000000	-1.000000	52.000000	0.000000	-1.000000	-1.000000	650104.000000	1775788213.877140
-24479.730000	-21645.360000	5036.535000	282799.170000	301086.945000	282263.355000	-27068.715000	-46107.180000	-0.169982	-1.234029	-1.326149	-4.061440	3.367389	-0.187297	2.563766	0.075131	-4.364360	-3.143560	-2.105880	-0.725645	0.078491	0.665098	-1.000000	-1.000000	-1.000000	-1.000000	-1.000000	-1.000000	-1.000000	52.000000	0.000000	-1.000000	-1.000000	650105.000000	1775788213.878412
-24482.295000	-21648.330000	5033.070000	282798.945000	301082.265000	282260.295000	-27075.915000	-46112.490000	-1.571139	-1.343197	-1.392773	-4.946153	3.399801	-2.461932	-3.041205	-6.396725	-4.364360	-3.143560	-2.105880	-0.725645	0.078491	0.665098	-1.000000	-1.000000	-1.000000	-1.000000	-1.000000	-1.000000	-1.000000	52.000000	0.000000	-1.000000	-1.000000	650106.000000	1775788213.878430
-24482.925000	-21651.570000	5029.020000	282802.275000	301084.110000	282261.105000	-27075.330000	-46113.165000	-1.337918	0.279888	0.374452	-4.040860	1.260891	-3.882360	-7.455866	-9.461863	-4.364360	-3.143560	-2.105880	-0.725645	0.078491	0.665098	-1.000000	-1.000000	-1.000000	-1.000000	-1.000000	-1.000000	-1.000000	52.000000	0.000000	-1.000000	-1.000000	650107.000000	1775788213.884695
-24485.850000	-21651.885000	5029.560000	282805.605000	301083.795000	282261.735000	-27079.740000	-46118.070000	-0.784650	1.372589	1.567970	-1.517510	-0.942356	-3.622153	-8.379708	-8.598580	-4.364360	-3.143560	-2.105880	-0.725645	0.078491	0.665098	-1.000000	-1.000000	-1.000000	-1.000000	-1.000000	-1.000000	-1.000000	52.000000	0.000000	-1.000000	-1.000000	650108.000000	1775788213.884718
-24490.080000	-21654.990000	5026.005000	282804.795000	301084.065000	282261.105000	-27084.375000	-46121.040000	-0.954755	0.807636	1.025060	1.521277	-1.745143	-1.788495	-5.628302	-5.158248	-4.364360	-3.143560	-2.105880	-0.725645	0.078491	0.665098	-1.000000	-1.000000	-1.000000	-1.000000	-1.000000	-1.000000	-1.000000	52.000000	0.000000	-1.000000	-1.000000	650109.000000	1775788213.886821
-24479.505000	-21644.460000	5032.755000	282777.345000	301015.980000	282234.195000	-27075.465000	-46107.855000	-1.588983	-0.620814	-0.484949	3.086791	-2.191664	0.145268	-0.826290	-0.758776	-4.364360	-3.143560	-2.105880	-0.725645	0.078491	0.665098	-1.000000	-1.000000	-1.000000	-1.000000	-1.000000	-1.000000	-1.000000	52.000000	0.000000	-1.000000	-1.000000	650110.000000	1775788213.886845
-24473.070000	-21637.260000	5041.845000	282782.025000	301085.505000	282241.485000	-27072.090000	-46102.410000	-1.382050	-1.206121	-1.318394	1.583560	-3.757585	0.386434	4.226735	3.743947	-2.044840	-5.005280	-3.204600	-0.723448	0.072937	0.664122	-1.000000	-1.000000	-1.000000	-1.000000	-1.000000	-1.000000	-1.000000	52.000000	0.000000	-1.000000	-1.000000	650111.000000	1775788213.897431
-24470.820000	-21636.450000	5042.610000	282767.175000	301029.030000	282227.985000	-27066.465000	-46098.315000	0.312033	-0.191403	-0.522371	-1.842391	-4.003536	-0.744141	8.047566	7.433015	-2.044840	-5.005280	-3.204600	-0.723448	0.072937	0.664122	-1.000000	-1.000000	-1.000000	-1.000000	-1.000000	-1.000000	-1.000000	52.000000	0.000000	-1.000000	-1.000000	650112.000000	1775788213.897452
-24471.045000	-21635.280000	5044.545000	282776.445000	301092.165000	282237.300000	-27060.840000	-46098.180000	2.282916	1.256030	1.050369	-4.022173	-0.202747	-1.168097	9.374652	8.707253	-2.044840	-5.005280	-3.204600	-0.723448	0.072937	0.664122	-1.000000	-1.000000	-1.000000	-1.000000	-1.000000	-1.000000	-1.000000	52.000000	0.000000	-1.000000	-1.000000	650113.000000	1775788213.897474
-24479.460000	-21641.670000	5040.135000	282791.745000	301102.380000	282250.485000	-27067.005000	-46110.330000	2.606391	1.372059	1.643867	-2.490740	7.163986	0.710090	7.600724	6.354402	-2.044840	-5.005280	-3.204600	-0.723448	0.072937	0.664122	-1.000000	-1.000000	-1.000000	-1.000000	-1.000000	-1.000000	-1.000000	52.000000	0.000000	-1.000000	-1.000000	650114.000000	1775788213.897484
-24479.055000	-21640.365000	5043.195000	282796.110000	301090.995000	282250.980000	-27066.780000	-46112.265000	0.563621	-0.389089	0.463117	2.779867	14.713091	4.698838	3.058872	0.795403	-2.044840	-5.005280	-3.204600	-0.723448	0.072937	0.664122	-1.000000	-1.000000	-1.000000	-1.000000	-1.000000	-1.000000	-1.000000	52.000000	0.000000	-1.000000	-1.000000	650115.000000	1775788213.898496
-24481.305000	-21641.355000	5043.735000	282798.720000	301082.310000	282250.035000	-27068.985000	-46115.640000	-2.545239	-2.855452	-1.619701	8.622935	16.126514	8.204616	-2.665629	-5.445154	-2.044840	-5.005280	-3.204600	-0.723448	0.072937	0.664122	-1.000000	-1.000000	-1.000000	-1.000000	-1.000000	-1.000000	-1.000000	52.000000	0.000000	-1.000000	-1.000000	650116.000000	1775788213.898510
-24486.795000	-21646.665000	5039.685000	282801.510000	301089.555000	282252.195000	-27073.215000	-46120.995000	-4.617281	-4.322143	-3.136872	10.843041	8.291392	8.196129	-7.222604	-9.146634	-2.044840	-5.005280	-3.204600	-0.723448	0.072937	0.664122	-1.000000	-1.000000	-1.000000	-1.000000	-1.000000	-1.000000	-1.000000	52.000000	0.000000	-1.000000	-1.000000	650117.000000	1775788213.902981
-24489.360000	-21651.615000	5033.745000	282800.340000	301083.525000	282252.510000	-27070.110000	-46121.040000	-4.622641	-4.148560	-3.528527	7.769342	-4.231009	4.234135	-8.880206	-8.739074	-2.044840	-5.005280	-3.204600	-0.723448	0.072937	0.664122	-1.000000	-1.000000	-1.000000	-1.000000	-1.000000	-1.000000	-1.000000	52.000000	0.000000	-1.000000	-1.000000	650118.000000	1775788213.903000
-24489.405000	-21654.180000	5028.660000	282797.955000	301092.255000	282251.835000	-27070.830000	-46119.870000	-2.804416	-2.764699	-3.153387	1.016049	-14.037701	-1.507560	-7.214376	-4.822891	-2.044840	-5.005280	-3.204600	-0.723448	0.072937	0.664122	-1.000000	-1.000000	-1.000000	-1.000000	-1.000000	-1.000000	-1.000000	52.000000	0.000000	-1.000000	-1.000000	650119.000000	1775788213.905625
-24485.715000	-21650.580000	5031.405000	282792.105000	301087.980000	282246.525000	-27071.820000	-46117.980000	0.124658	-0.654822	-2.227650	-6.214247	-16.693738	-6.393182	-3.229728	0.714092	-2.044840	-5.005280	-3.204600	-0.723448	0.072937	0.664122	-1.000000	-1.000000	-1.000000	-1.000000	-1.000000	-1.000000	-1.000000	52.000000	0.000000	-1.000000	-1.000000	650120.000000	1775788213.905643
-24483.645000	-21648.195000	5032.440000	282790.665000	301089.780000	282244.095000	-27074.070000	-46118.430000	3.279616	1.938620	-0.479087	-10.983389	-12.522663	-8.856903	1.053164	5.555280	1.968540	-4.837420	-2.960440	-0.722960	0.069275	0.666746	-1.000000	-1.000000	-1.000000	-1.000000	-1.000000	-1.000000	-1.000000	52.000000	0.000000	-1.000000	-1.000000	650121.000000	1775788213.913242
-24478.470000	-21643.110000	5037.525000	282789.990000	301082.985000	282239.865000	-27079.245000	-46117.170000	5.632037	4.522183	2.094716	-11.636466	-5.131481	-8.549734	3.763792	7.870752	1.968540	-4.837420	-2.960440	-0.722960	0.069275	0.666746	-1.000000	-1.000000	-1.000000	-1.000000	-1.000000	-1.000000	-1.000000	52.000000	0.000000	-1.000000	-1.000000	650122.000000	1775788213.913268
-24478.515000	-21643.785000	5037.255000	282793.545000	301090.905000	282239.370000	-27078.615000	-46117.755000	6.299510	6.126536	4.637913	-8.166678	1.661837	-5.948476	4.201649	7.120219	1.968540	-4.837420	-2.960440	-0.722960	0.069275	0.666746	-1.000000	-1.000000	-1.000000	-1.000000	-1.000000	-1.000000	-1.000000	52.000000	0.000000	-1.000000	-1.000000	650123.000000	1775788213.913851
-24481.530000	-21646.440000	5033.610000	282798.045000	301090.545000	282240.630000	-27071.595000	-46118.205000	4.836723	5.730832	5.752838	-2.086787	5.991731	-1.986471	3.203241	4.098855	1.968540	-4.837420	-2.960440	-0.722960	0.069275	0.666746	-1.000000	-1.000000	-1.000000	-1.000000	-1.000000	-1.000000	-1.000000	52.000000	0.000000	-1.000000	-1.000000	650124.000000	1775788213.913873
-24479.505000	-21642.615000	5038.830000	282798.405000	301081.320000	282240.045000	-27072.765000	-46116.810000	1.580652	3.167275	4.612049	4.149740	7.466062	2.176938	2.248553	0.332906	1.968540	-4.837420	-2.960440	-0.722960	0.069275	0.666746	-1.000000	-1.000000	-1.000000	-1.000000	-1.000000	-1.000000	-1.000000	52.000000	0.000000	-1.000000	-1.000000	650125.000000	1775788213.918508
-24479.100000	-21641.175000	5041.395000	282796.830000	301079.385000	282237.975000	-27076.995000	-46121.940000	-2.090527	-0.320031	1.958621	8.026013	6.076110	5.244006	1.743611	-2.745780	1.968540	-4.837420	-2.960440	-0.722960	0.069275	0.666746	-1.000000	-1.000000	-1.000000	-1.000000	-1.000000	-1.000000	-1.000000	52.000000	0.000000	-1.000000	-1.000000	650126.000000	1775788213.918533
-24481.305000	-21641.895000	5041.665000	282795.975000	301087.935000	282238.560000	-27083.970000	-46129.995000	-4.571406	-3.041844	-0.647384	8.158074	2.951901	6.242628	0.838412	-4.578732	1.968540	-4.837420	-2.960440	-0.722960	0.069275	0.666746	-1.000000	-1.000000	-1.000000	-1.000000	-1.000000	-1.000000	-1.000000	52.000000	0.000000	-1.000000	-1.000000	650127.000000	1775788213.922659
-24480.675000	-21640.320000	5043.195000	282789.180000	301086.360000	282233.925000	-27087.345000	-46130.355000	-5.162504	-4.184404	-2.310465	4.993979	0.362335	5.096792	-0.998671	-5.267565	1.968540	-4.837420	-2.960440	-0.722960	0.069275	0.666746	-1.000000	-1.000000	-1.000000	-1.000000	-1.000000	-1.000000	-1.000000	52.000000	0.000000	-1.000000	-1.000000	650128.000000	1775788213.922684
-24482.970000	-21641.715000	5041.485000	282787.110000	301090.410000	282231.765000	-27087.255000	-46128.330000	-4.128838	-3.883028	-3.000925	0.315887	-0.430332	2.514700	-2.960587	-4.615085	1.968540	-4.837420	-2.960440	-0.722960	0.069275	0.666746	-1.000000	-1.000000	-1.000000	-1.000000	-1.000000	-1.000000	-1.000000	52.000000	0.000000	-1.000000	-1.000000	650129.000000	1775788213.928487
-24478.515000	-21637.260000	5046.705000	282784.590000	301084.380000	282227.445000	-27076.590000	-46117.980000	-2.133102	-2.649365	-2.937394	-3.682338	-0.086017	-0.430887	-3.413651	-2.153160	1.968540	-4.837420	-2.960440	-0.722960	0.069275	0.666746	-1.000000	-1.000000	-1.000000	-1.000000	-1.000000	-1.000000	-1.000000	52.000000	0.000000	-1.000000	-1.000000	650130.000000	1775788213.928511
-24474.375000	-21637.395000	5046.840000	282785.895000	301088.745000	282225.735000	-27062.640000	-46105.830000	0.246525	-0.987842	-2.211385	-5.297221	0.107275	-2.654899	-1.196898	1.957563	4.562740	-4.364360	-3.067260	-0.721983	0.067932	0.673521	-1.000000	-1.000000	-1.000000	-1.000000	-1.000000	-1.000000	-1.000000	52.000000	0.000000	-1.000000	-1.000000	650131.000000	1775788213.933024
-24483.240000	-21654.810000	5027.760000	282788.325000	301087.620000	282223.350000	-27063.765000	-46109.790000	2.289612	0.250977	-1.393235	-4.065073	-0.317532	-3.448787	2.912748	6.137216	4.562740	-4.364360	-3.067260	-0.721983	0.067932	0.673521	-1.000000	-1.000000	-1.000000	-1.000000	-1.000000	-1.000000	-1.000000	52.000000	0.000000	-1.000000	-1.000000	650132.000000	1775788213.933048
-24483.870000	-21654.765000	5027.220000	282793.005000	301092.480000	282225.870000	-27074.835000	-46116.540000	2.903410	0.012739	-1.583886	-0.841587	-0.874934	-2.680313	5.798249	7.598297	4.562740	-4.364360	-3.067260	-0.721983	0.067932	0.673521	-1.000000	-1.000000	-1.000000	-1.000000	-1.000000	-1.000000	-1.000000	52.000000	0.000000	-1.000000	-1.000000	650133.000000	1775788213.936359
-24481.890000	-21647.610000	5035.545000	282792.870000	301083.120000	282225.915000	-27078.120000	-46119.870000	1.826076	-1.137323	-2.367436	2.675556	-1.156967	-0.763052	4.489717	4.632733	4.562740	-4.364360	-3.067260	-0.721983	0.067932	0.673521	-1.000000	-1.000000	-1.000000	-1.000000	-1.000000	-1.000000	-1.000000	52.000000	0.000000	-1.000000	-1.000000	650134.000000	1775788213.936377
-24487.290000	-21650.895000	5033.790000	282792.780000	301091.580000	282227.085000	-27079.155000	-46126.935000	0.156268	-1.151243	-1.715192	4.684931	-1.267893	1.422693	-0.511259	-1.344692	4.562740	-4.364360	-3.067260	-0.721983	0.067932	0.673521	-1.000000	-1.000000	-1.000000	-1.000000	-1.000000	-1.000000	-1.000000	52.000000	0.000000	-1.000000	-1.000000	650135.000000	1775788213.943550
-24488.730000	-21650.715000	5034.555000	282789.135000	301092.390000	282224.880000	-27083.295000	-46129.995000	-1.051900	0.611983	0.941831	4.189957	-1.075502	2.819892	-5.663406	-6.914580	4.562740	-4.364360	-3.067260	-0.721983	0.067932	0.673521	-1.000000	-1.000000	-1.000000	-1.000000	-1.000000	-1.000000	-1.000000	52.000000	0.000000	-1.000000	-1.000000	650136.000000	1775788213.943573
-24485.805000	-21646.800000	5038.155000	282785.085000	301090.185000	282221.145000	-27084.645000	-46128.195000	-1.397129	2.844885	3.956783	1.516343	-0.354092	2.702634	-7.822593	-9.114223	4.562740	-4.364360	-3.067260	-0.721983	0.067932	0.673521	-1.000000	-1.000000	-1.000000	-1.000000	-1.000000	-1.000000	-1.000000	52.000000	0.000000	-1.000000	-1.000000	650137.000000	1775788213.943601
-24480.540000	-21642.030000	5042.565000	282783.825000	301088.205000	282216.870000	-27082.845000	-46123.470000	-0.644894	4.270968	5.633679	-1.908936	0.370111	1.076894	-6.187555	-6.854348	4.562740	-4.364360	-3.067260	-0.721983	0.067932	0.673521	-1.000000	-1.000000	-1.000000	-1.000000	-1.000000	-1.000000	-1.000000	52.000000	0.000000	-1.000000	-1.000000	650138.000000	1775788213.943612
-24476.220000	-21640.545000	5041.935000	282784.995000	301091.985000	282215.520000	-27081.180000	-46118.880000	1.081533	4.431037	5.355050	-4.258021	0.510532	-1.203757	-1.906666	-1.292302	4.562740	-4.364360	-3.067260	-0.721983	0.067932	0.673521	-1.000000	-1.000000	-1.000000	-1.000000	-1.000000	-1.000000	-1.000000	52.000000	0.000000	-1.000000	-1.000000	650139.000000	1775788213.949412
-24476.130000	-21641.985000	5039.640000	282787.335000	301085.190000	282214.440000	-27079.650000	-46117.620000	2.860782	3.214312	3.223398	-4.289023	0.182663	-2.834852	2.903656	4.752903	4.562740	-4.364360	-3.067260	-0.721983	0.067932	0.673521	-1.000000	-1.000000	-1.000000	-1.000000	-1.000000	-1.000000	-1.000000	52.000000	0.000000	-1.000000	-1.000000	650140.000000	1775788213.949439
