Channel1	Channel2	Channel3	Channel4	Channel5	Channel6	Channel7	Channel8	FilteredChannel1	FilteredChannel2	FilteredChannel3	FilteredChannel4	FilteredChannel5	FilteredChannel6	FilteredChannel7	FilteredChannel8	GyroX	GyroY	GyroZ	AccX	AccY	AccZ	PPG1	PPG2	rawPPG1	rawPPG2	rawPPG3	Hr	Hrv	Battery	Trigger	PhysicalTrigger	AutoTrigger	NumMeasurements	Timestamp
-17536.230000	-13153.545000	10154.205000	279579.285000	302720.715000	290095.425000	-7777.170000	-20820.060000	-5.110715	-6.420146	-5.960003	12.592497	-19.374423	14.471590	4.002359	-2.475217	-1.648080	3.357200	-1.312360	-0.682432	0.028686	0.715147	-1.000000	-1.000000	-1.000000	-1.000000	-1.000000	-1.000000	-1.000000	53.000000	0.000000	-1.000000	-1.000000	291281.000000	1775787496.000329
-17550.855000	-13170.555000	10141.065000	279604.935000	302803.740000	290115.990000	-7778.790000	-20831.130000	-5.759637	-8.744641	-10.675511	-12.313148	-48.879706	-7.638530	2.598547	-3.503371	-1.648080	3.357200	-1.312360	-0.682432	0.028686	0.715147	-1.000000	-1.000000	-1.000000	-1.000000	-1.000000	-1.000000	-1.000000	53.000000	0.000000	-1.000000	-1.000000	291282.000000	1775787496.000503
-17546.715000	-13164.840000	10147.185000	279606.780000	302780.430000	290118.645000	-7782.480000	-20830.725000	-5.392787	-8.913930	-11.995929	-28.481377	-47.076784	-23.539828	0.676309	-3.897867	-1.648080	3.357200	-1.312360	-0.682432	0.028686	0.715147	-1.000000	-1.000000	-1.000000	-1.000000	-1.000000	-1.000000	-1.000000	53.000000	0.000000	-1.000000	-1.000000	291283.000000	1775787496.008124
-17559.045000	-13175.865000	10136.745000	279605.565000	302779.485000	290114.370000	-7787.430000	-20840.940000	-4.104203	-6.288127	-8.617514	-28.606597	-21.034271	-25.955211	-2.110369	-4.110049	-1.648080	3.357200	-1.312360	-0.682432	0.028686	0.715147	-1.000000	-1.000000	-1.000000	-1.000000	-1.000000	-1.000000	-1.000000	53.000000	0.000000	-1.000000	-1.000000	291284.000000	1775787496.008150
-17562.735000	-13178.925000	10134.360000	279606.465000	302776.425000	290111.895000	-7790.355000	-20844.765000	-1.907340	-1.325210	-1.779720	-16.777527	6.908321	-17.536268	-5.321237	-3.927667	-1.648080	3.357200	-1.312360	-0.682432	0.028686	0.715147	-1.000000	-1.000000	-1.000000	-1.000000	-1.000000	-1.000000	-1.000000	53.000000	0.000000	-1.000000	-1.000000	291285.000000	1775787496.008179
-17559.855000	-13178.430000	10132.830000	279592.650000	302724.000000	290095.920000	-7790.580000	-20841.615000	0.779039	4.072230	5.295534	-2.363329	20.033316	-5.961449	-7.396966	-2.831638	-1.648080	3.357200	-1.312360	-0.682432	0.028686	0.715147	-1.000000	-1.000000	-1.000000	-1.000000	-1.000000	-1.000000	-1.000000	53.000000	0.000000	-1.000000	-1.000000	291286.000000	1775787496.008190
-17560.755000	-13179.015000	10131.165000	279584.460000	302746.455000	290087.910000	-7794.900000	-20844.270000	3.624005	8.092600	9.887269	7.102053	15.760283	2.388197	-6.977411	-0.422762	-1.648080	3.357200	-1.312360	-0.682432	0.028686	0.715147	-1.000000	-1.000000	-1.000000	-1.000000	-1.000000	-1.000000	-1.000000	53.000000	0.000000	-1.000000	-1.000000	291287.000000	1775787496.008204
-17565.750000	-13181.895000	10132.065000	279613.125000	302810.310000	290113.020000	-7794.000000	-20848.140000	5.951638	9.696370	10.968519	9.878686	4.741082	6.045229	-4.098770	2.668704	-1.648080	3.357200	-1.312360	-0.682432	0.028686	0.715147	-1.000000	-1.000000	-1.000000	-1.000000	-1.000000	-1.000000	-1.000000	53.000000	0.000000	-1.000000	-1.000000	291288.000000	1775787496.008214
-17562.465000	-13178.430000	10135.125000	279610.380000	302780.205000	290114.550000	-7788.645000	-20843.865000	6.669426	8.600559	9.041229	9.432622	0.319446	7.846401	0.102602	4.982983	-1.648080	3.357200	-1.312360	-0.682432	0.028686	0.715147	-1.000000	-1.000000	-1.000000	-1.000000	-1.000000	-1.000000	-1.000000	53.000000	0.000000	-1.000000	-1.000000	291289.000000	1775787496.011446
-17560.620000	-13176.225000	10135.755000	279601.200000	302768.685000	290108.835000	-7792.380000	-20842.920000	5.523491	5.580406	5.482612	8.459328	3.363911	9.573474	4.166104	5.715159	-1.648080	3.357200	-1.312360	-0.682432	0.028686	0.715147	-1.000000	-1.000000	-1.000000	-1.000000	-1.000000	-1.000000	-1.000000	53.000000	0.000000	-1.000000	-1.000000	291290.000000	1775787496.011466
-17561.385000	-13176.270000	10136.925000	279603.270000	302785.200000	290108.610000	-7796.430000	-20844.810000	3.273035	1.980659	1.607379	6.160926	5.529757	9.522975	6.459574	4.936616	-0.305200	3.143560	-1.052940	-0.681944	0.028137	0.713926	-1.000000	-1.000000	-1.000000	-1.000000	-1.000000	-1.000000	-1.000000	53.000000	0.000000	-1.000000	-1.000000	291291.000000	1775787496.021572
-17551.665000	-13167.135000	10146.195000	279600.795000	302775.075000	290103.480000	-7792.920000	-20837.475000	0.875866	-1.076884	-1.591959	1.997634	3.112307	6.124534	6.031595	3.063064	-0.305200	3.143560	-1.052940	-0.681944	0.028137	0.713926	-1.000000	-1.000000	-1.000000	-1.000000	-1.000000	-1.000000	-1.000000	53.000000	0.000000	-1.000000	-1.000000	291292.000000	1775787496.021598
-17550.990000	-13165.245000	10148.310000	279602.820000	302779.170000	290101.860000	-7799.940000	-20843.730000	-0.855771	-2.859508	-3.353567	-2.402521	-1.594318	0.459800	3.523471	0.764817	-0.305200	3.143560	-1.052940	-0.681944	0.028137	0.713926	-1.000000	-1.000000	-1.000000	-1.000000	-1.000000	-1.000000	-1.000000	53.000000	0.000000	-1.000000	-1.000000	291293.000000	1775787496.021624
-17566.335000	-13177.575000	10138.680000	279606.510000	302782.905000	290101.680000	-7811.865000	-20864.385000	-2.043280	-3.598733	-3.883180	-4.978234	-5.399024	-4.799541	0.162579	-1.834906	-0.305200	3.143560	-1.052940	-0.681944	0.028137	0.713926	-1.000000	-1.000000	-1.000000	-1.000000	-1.000000	-1.000000	-1.000000	53.000000	0.000000	-1.000000	-1.000000	291294.000000	1775787496.021634
-17566.830000	-13174.605000	10142.910000	279607.185000	302771.700000	290101.230000	-7806.825000	-20865.105000	-3.709697	-4.374862	-4.271398	-4.827973	-6.483568	-7.314953	-2.986514	-5.008791	-0.305200	3.143560	-1.052940	-0.681944	0.028137	0.713926	-1.000000	-1.000000	-1.000000	-1.000000	-1.000000	-1.000000	-1.000000	53.000000	0.000000	-1.000000	-1.000000	291295.000000	1775787496.025126
-17565.345000	-13171.230000	10143.810000	279575.730000	302690.070000	290074.680000	-7807.770000	-20861.505000	-5.625543	-5.183989	-4.711732	-3.265688	-6.698553	-6.911531	-4.463512	-7.387035	-0.305200	3.143560	-1.052940	-0.681944	0.028137	0.713926	-1.000000	-1.000000	-1.000000	-1.000000	-1.000000	-1.000000	-1.000000	53.000000	0.000000	-1.000000	-1.000000	291296.000000	1775787496.025154
-17561.700000	-13166.145000	10149.210000	279593.505000	302788.035000	290088.630000	-7803.990000	-20853.585000	-5.912024	-4.652365	-4.213228	-2.525455	-7.893818	-5.185240	-3.257032	-6.407265	-0.305200	3.143560	-1.052940	-0.681944	0.028137	0.713926	-1.000000	-1.000000	-1.000000	-1.000000	-1.000000	-1.000000	-1.000000	53.000000	0.000000	-1.000000	-1.000000	291297.000000	1775787496.035841
-17554.995000	-13164.345000	10150.380000	279603.945000	302787.495000	290100.105000	-7801.965000	-20841.030000	-3.399289	-2.174794	-2.250459	-2.054743	-5.032877	-2.422078	-0.083187	-1.360350	-0.305200	3.143560	-1.052940	-0.681944	0.028137	0.713926	-1.000000	-1.000000	-1.000000	-1.000000	-1.000000	-1.000000	-1.000000	53.000000	0.000000	-1.000000	-1.000000	291298.000000	1775787496.035864
-17551.530000	-13168.350000	10145.250000	279601.785000	302782.320000	290097.945000	-7802.955000	-20836.215000	1.013288	1.010416	0.306567	0.389159	5.340360	2.087558	3.117268	5.456589	-0.305200	3.143560	-1.052940	-0.681944	0.028137	0.713926	-1.000000	-1.000000	-1.000000	-1.000000	-1.000000	-1.000000	-1.000000	53.000000	0.000000	-1.000000	-1.000000	291299.000000	1775787496.035891
-17545.185000	-13161.375000	10150.380000	279600.930000	302777.145000	290094.705000	-7798.680000	-20833.245000	5.102511	3.075209	2.001435	4.093012	15.710182	6.659308	4.590674	10.196691	-0.305200	3.143560	-1.052940	-0.681944	0.028137	0.713926	-1.000000	-1.000000	-1.000000	-1.000000	-1.000000	-1.000000	-1.000000	53.000000	0.000000	-1.000000	-1.000000	291300.000000	1775787496.035902
-17550.090000	-13163.535000	10148.985000	279601.560000	302777.640000	290092.635000	-7798.095000	-20838.690000	6.759200	3.342959	2.310315	6.118506	17.166028	8.169018	3.876878	9.925347	-0.595140	3.006220	-0.976640	-0.682921	0.027222	0.711912	-1.000000	-1.000000	-1.000000	-1.000000	-1.000000	-1.000000	-1.000000	53.000000	0.000000	-1.000000	-1.000000	291301.000000	1775787496.035915
-17552.880000	-13166.505000	10146.555000	279605.295000	302781.240000	290091.735000	-7803.720000	-20842.335000	5.021546	2.212701	1.674705	5.117439	9.311754	5.643383	1.596032	4.495959	-0.595140	3.006220	-0.976640	-0.682921	0.027222	0.711912	-1.000000	-1.000000	-1.000000	-1.000000	-1.000000	-1.000000	-1.000000	53.000000	0.000000	-1.000000	-1.000000	291302.000000	1775787496.035925
-17548.605000	-13162.725000	10150.425000	279606.735000	302773.950000	290091.645000	-7798.545000	-20839.320000	0.797391	0.375625	0.670616	2.145956	-1.982144	0.919253	-1.272214	-3.230012	-0.595140	3.006220	-0.976640	-0.682921	0.027222	0.711912	-1.000000	-1.000000	-1.000000	-1.000000	-1.000000	-1.000000	-1.000000	53.000000	0.000000	-1.000000	-1.000000	291303.000000	1775787496.040165
-17560.710000	-13178.430000	10133.010000	279604.980000	302775.705000	290090.250000	-7796.475000	-20847.960000	-3.591152	-1.458928	-0.387558	-1.016182	-10.665917	-3.280438	-3.403923	-9.223976	-0.595140	3.006220	-0.976640	-0.682921	0.027222	0.711912	-1.000000	-1.000000	-1.000000	-1.000000	-1.000000	-1.000000	-1.000000	53.000000	0.000000	-1.000000	-1.000000	291304.000000	1775787496.040192
-17561.790000	-13180.320000	10129.680000	279607.680000	302787.810000	290093.805000	-7792.965000	-20847.780000	-6.318398	-2.998732	-1.683456	-3.224882	-13.438214	-5.167084	-3.712400	-11.059087	-0.595140	3.006220	-0.976640	-0.682921	0.027222	0.711912	-1.000000	-1.000000	-1.000000	-1.000000	-1.000000	-1.000000	-1.000000	53.000000	0.000000	-1.000000	-1.000000	291305.000000	1775787496.044080
-17565.615000	-13183.470000	10129.005000	279603.405000	302783.625000	290091.870000	-7793.280000	-20851.515000	-6.711993	-3.879806	-2.935269	-4.094460	-10.062868	-4.479396	-2.354625	-8.780184	-0.595140	3.006220	-0.976640	-0.682921	0.027222	0.711912	-1.000000	-1.000000	-1.000000	-1.000000	-1.000000	-1.000000	-1.000000	53.000000	0.000000	-1.000000	-1.000000	291306.000000	1775787496.044103
-17567.145000	-13185.540000	10127.655000	279600.255000	302785.785000	290089.710000	-7798.365000	-20853.450000	-4.774863	-3.286436	-2.876688	-3.869019	-3.413667	-2.302413	-0.627198	-3.977840	-0.595140	3.006220	-0.976640	-0.682921	0.027222	0.711912	-1.000000	-1.000000	-1.000000	-1.000000	-1.000000	-1.000000	-1.000000	53.000000	0.000000	-1.000000	-1.000000	291307.000000	1775787496.048101
-17565.840000	-13182.390000	10131.795000	279599.130000	302781.645000	290085.705000	-7806.105000	-20855.700000	-1.225002	-0.953520	-0.797366	-3.060893	2.414456	-0.255691	0.035507	1.197422	-0.595140	3.006220	-0.976640	-0.682921	0.027222	0.711912	-1.000000	-1.000000	-1.000000	-1.000000	-1.000000	-1.000000	-1.000000	53.000000	0.000000	-1.000000	-1.000000	291308.000000	1775787496.048123
-17561.115000	-13176.630000	10136.385000	279598.950000	302784.255000	290083.545000	-7800.435000	-20852.325000	2.755784	2.444368	2.588272	-1.864870	5.016802	0.663814	-0.620522	5.057819	-0.595140	3.006220	-0.976640	-0.682921	0.027222	0.711912	-1.000000	-1.000000	-1.000000	-1.000000	-1.000000	-1.000000	-1.000000	53.000000	0.000000	-1.000000	-1.000000	291309.000000	1775787496.057332
-17556.795000	-13170.330000	10143.270000	279598.680000	302779.800000	290079.855000	-7803.585000	-20850.570000	6.011526	5.733190	5.786351	-0.270220	4.493956	0.535235	-1.325928	6.985203	-0.595140	3.006220	-0.976640	-0.682921	0.027222	0.711912	-1.000000	-1.000000	-1.000000	-1.000000	-1.000000	-1.000000	-1.000000	53.000000	0.000000	-1.000000	-1.000000	291310.000000	1775787496.057356
-17558.325000	-13172.130000	10141.875000	279604.260000	302782.860000	290081.115000	-7809.120000	-20853.045000	7.486206	7.481996	7.242231	1.561729	2.368760	0.101528	-1.009201	7.001381	-0.228900	1.770160	-1.251320	-0.686583	0.030151	0.712339	-1.000000	-1.000000	-1.000000	-1.000000	-1.000000	-1.000000	-1.000000	53.000000	0.000000	-1.000000	-1.000000	291311.000000	1775787496.057383
-17551.440000	-13165.020000	10148.715000	279605.610000	302778.720000	290081.655000	-7803.765000	-20844.945000	6.551052	6.612234	6.046391	3.275318	0.265209	0.142415	0.105823	5.394251	-0.228900	1.770160	-1.251320	-0.686583	0.030151	0.712339	-1.000000	-1.000000	-1.000000	-1.000000	-1.000000	-1.000000	-1.000000	53.000000	0.000000	-1.000000	-1.000000	291312.000000	1775787496.057395
-17546.490000	-13158.180000	10154.970000	279604.395000	302769.810000	290082.330000	-7809.120000	-20843.280000	3.742774	3.496431	2.748301	4.226971	-1.092169	0.902294	1.407641	2.971948	-0.228900	1.770160	-1.251320	-0.686583	0.030151	0.712339	-1.000000	-1.000000	-1.000000	-1.000000	-1.000000	-1.000000	-1.000000	53.000000	0.000000	-1.000000	-1.000000	291313.000000	1775787496.066626
-17561.070000	-13176.540000	10134.405000	279600.930000	302775.885000	290081.385000	-7801.020000	-20851.740000	0.150486	-0.606347	-1.392162	3.652603	-1.751170	1.877283	2.470252	0.443246	-0.228900	1.770160	-1.251320	-0.686583	0.030151	0.712339	-1.000000	-1.000000	-1.000000	-1.000000	-1.000000	-1.000000	-1.000000	53.000000	0.000000	-1.000000	-1.000000	291314.000000	1775787496.066650
-17569.890000	-13187.520000	10123.920000	279597.600000	302790.915000	290078.550000	-7795.890000	-20856.555000	-3.848181	-5.169892	-5.912652	1.423967	-1.203384	2.237383	3.168203	-2.269801	-0.228900	1.770160	-1.251320	-0.686583	0.030151	0.712339	-1.000000	-1.000000	-1.000000	-1.000000	-1.000000	-1.000000	-1.000000	53.000000	0.000000	-1.000000	-1.000000	291315.000000	1775787496.068502
-17567.055000	-13181.805000	10131.120000	279594.945000	302786.145000	290073.870000	-7801.470000	-20858.490000	-7.535743	-9.271210	-9.800724	-1.539963	1.073677	1.463676	3.377578	-4.961355	-0.228900	1.770160	-1.251320	-0.686583	0.030151	0.712339	-1.000000	-1.000000	-1.000000	-1.000000	-1.000000	-1.000000	-1.000000	53.000000	0.000000	-1.000000	-1.000000	291316.000000	1775787496.068518
-17569.530000	-13182.840000	10131.390000	279594.945000	302790.735000	290071.035000	-7805.385000	-20863.440000	-8.875316	-10.377088	-10.361034	-3.755934	3.699754	-0.245499	2.388266	-6.478799	-0.228900	1.770160	-1.251320	-0.686583	0.030151	0.712339	-1.000000	-1.000000	-1.000000	-1.000000	-1.000000	-1.000000	-1.000000	53.000000	0.000000	-1.000000	-1.000000	291317.000000	1775787496.068606
-17563.950000	-13176.045000	10138.680000	279597.465000	302787.405000	290069.370000	-7801.155000	-20858.670000	-6.451421	-6.850476	-6.070009	-4.054856	4.420184	-1.988334	-0.023766	-5.760955	-0.228900	1.770160	-1.251320	-0.686583	0.030151	0.712339	-1.000000	-1.000000	-1.000000	-1.000000	-1.000000	-1.000000	-1.000000	53.000000	0.000000	-1.000000	-1.000000	291318.000000	1775787496.068620
-17563.185000	-13174.155000	10140.390000	279602.775000	302782.455000	290071.035000	-7799.265000	-20857.590000	-1.149858	-0.100549	1.231753	-2.217177	2.412698	-2.687680	-2.513054	-2.724048	-0.228900	1.770160	-1.251320	-0.686583	0.030151	0.712339	-1.000000	-1.000000	-1.000000	-1.000000	-1.000000	-1.000000	-1.000000	53.000000	0.000000	-1.000000	-1.000000	291319.000000	1775787496.080237
-17566.830000	-13179.375000	10134.090000	279602.280000	302778.405000	290069.865000	-7794.405000	-20858.895000	4.364356	6.352689	7.622772	0.819725	-1.380738	-1.865453	-3.421238	1.449118	-0.228900	1.770160	-1.251320	-0.686583	0.030151	0.712339	-1.000000	-1.000000	-1.000000	-1.000000	-1.000000	-1.000000	-1.000000	53.000000	0.000000	-1.000000	-1.000000	291320.000000	1775787496.080261
-17566.740000	-13180.725000	10131.885000	279602.370000	302786.055000	290070.990000	-7795.125000	-20858.895000	7.326603	9.174606	9.724496	3.316900	-4.800010	-0.036254	-2.437312	4.735581	-0.106820	1.892240	-0.183120	-0.688475	0.031433	0.711485	-1.000000	-1.000000	-1.000000	-1.000000	-1.000000	-1.000000	-1.000000	53.000000	0.000000	-1.000000	-1.000000	291321.000000	1775787496.080395
-17559.990000	-13172.265000	10142.685000	279604.440000	302786.280000	290074.365000	-7799.040000	-20854.845000	6.871574	7.632721	7.222166	3.908931	-5.616200	1.794171	-0.738522	5.763805	-0.106820	1.892240	-0.183120	-0.688475	0.031433	0.711485	-1.000000	-1.000000	-1.000000	-1.000000	-1.000000	-1.000000	-1.000000	53.000000	0.000000	-1.000000	-1.000000	291322.000000	1775787496.080408
-17545.545000	-13157.460000	10157.175000	279594.630000	302755.950000	290067.165000	-7797.555000	-20844.315000	4.583479	4.106556	3.116175	2.421322	-3.959968	2.740005	0.234730	4.863980	-0.106820	1.892240	-0.183120	-0.688475	0.031433	0.711485	-1.000000	-1.000000	-1.000000	-1.000000	-1.000000	-1.000000	-1.000000	53.000000	0.000000	-1.000000	-1.000000	291323.000000	1775787496.080427
-17535.420000	-13145.580000	10166.400000	279561.645000	302692.635000	290038.050000	-7813.215000	-20842.155000	2.721906	1.634663	0.661675	-1.000377	-3.539566	1.702079	-0.117797	3.301180	-0.106820	1.892240	-0.183120	-0.688475	0.031433	0.711485	-1.000000	-1.000000	-1.000000	-1.000000	-1.000000	-1.000000	-1.000000	53.000000	0.000000	-1.000000	-1.000000	291324.000000	1775787496.080438
-17546.625000	-13158.855000	10156.320000	279588.645000	302808.825000	290056.680000	-7804.710000	-20848.095000	1.666030	0.733439	0.096755	-5.347850	-5.076519	-1.534198	-1.386769	1.545627	-0.106820	1.892240	-0.183120	-0.688475	0.031433	0.711485	-1.000000	-1.000000	-1.000000	-1.000000	-1.000000	-1.000000	-1.000000	53.000000	0.000000	-1.000000	-1.000000	291325.000000	1775787496.087508
-17567.730000	-13186.665000	10126.845000	279593.280000	302801.490000	290059.470000	-7794.450000	-20857.140000	-0.632376	-1.215224	-1.426004	-6.967332	-1.360431	-4.152385	-1.946103	-1.036786	-0.106820	1.892240	-0.183120	-0.688475	0.031433	0.711485	-1.000000	-1.000000	-1.000000	-1.000000	-1.000000	-1.000000	-1.000000	53.000000	0.000000	-1.000000	-1.000000	291326.000000	1775787496.087531
-17560.845000	-13179.240000	10131.660000	279598.365000	302792.085000	290061.585000	-7795.260000	-20851.695000	-5.346963	-6.019325	-5.877932	-3.076944	9.997078	-3.009279	-0.260088	-4.364564	-0.106820	1.892240	-0.183120	-0.688475	0.031433	0.711485	-1.000000	-1.000000	-1.000000	-1.000000	-1.000000	-1.000000	-1.000000	53.000000	0.000000	-1.000000	-1.000000	291327.000000	1775787496.088997
-17558.145000	-13176.270000	10134.000000	279601.380000	302785.065000	290062.125000	-7793.190000	-20851.020000	-9.684366	-10.688433	-10.515040	3.906073	18.805058	1.117349	2.775140	-6.587968	-0.106820	1.892240	-0.183120	-0.688475	0.031433	0.711485	-1.000000	-1.000000	-1.000000	-1.000000	-1.000000	-1.000000	-1.000000	53.000000	0.000000	-1.000000	-1.000000	291328.000000	1775787496.089014
-17563.365000	-13180.815000	10131.075000	279601.605000	302787.585000	290061.765000	-7798.680000	-20859.570000	-9.779991	-10.588545	-10.627088	8.970819	16.142692	4.829240	4.593676	-6.115819	-0.106820	1.892240	-0.183120	-0.688475	0.031433	0.711485	-1.000000	-1.000000	-1.000000	-1.000000	-1.000000	-1.000000	-1.000000	53.000000	0.000000	-1.000000	-1.000000	291329.000000	1775787496.098400
-17564.400000	-13181.715000	10130.670000	279600.300000	302783.085000	290062.530000	-7800.030000	-20862.495000	-5.362663	-5.194857	-5.259380	9.056332	4.087340	5.674753	3.629995	-3.605242	-0.106820	1.892240	-0.183120	-0.688475	0.031433	0.711485	-1.000000	-1.000000	-1.000000	-1.000000	-1.000000	-1.000000	-1.000000	53.000000	0.000000	-1.000000	-1.000000	291330.000000	1775787496.098425
-17568.405000	-13184.595000	10130.670000	279597.870000	302789.430000	290062.485000	-7799.670000	-20866.815000	0.645785	2.057493	2.394913	4.503337	-9.102969	3.550406	0.533937	-0.773573	-0.106820	2.456860	-1.266580	-0.684813	0.029907	0.710631	-1.000000	-1.000000	-1.000000	-1.000000	-1.000000	-1.000000	-1.000000	53.000000	0.000000	-1.000000	-1.000000	291331.000000	1775787496.098452
-17565.840000	-13181.805000	10132.380000	279593.730000	302788.080000	290058.705000	-7799.040000	-20864.430000	5.296503	7.513449	8.457965	-1.954791	-16.327127	-0.028678	-2.563474	1.470130	-0.106820	2.456860	-1.266580	-0.684813	0.029907	0.710631	-1.000000	-1.000000	-1.000000	-1.000000	-1.000000	-1.000000	-1.000000	53.000000	0.000000	-1.000000	-1.000000	291332.000000	1775787496.098465
-17562.195000	-13179.105000	10134.720000	279591.030000	302787.405000	290054.565000	-7784.640000	-20854.935000	7.388903	9.545889	10.775875	-7.178483	-15.488009	-3.388048	-3.623255	3.306214	-0.106820	2.456860	-1.266580	-0.684813	0.029907	0.710631	-1.000000	-1.000000	-1.000000	-1.000000	-1.000000	-1.000000	-1.000000	53.000000	0.000000	-1.000000	-1.000000	291333.000000	1775787496.100228
-17571.015000	-13187.700000	10126.080000	279592.650000	302795.370000	290052.855000	-7784.145000	-20861.370000	7.069432	8.315548	9.149514	-9.073991	-8.981712	-5.390787	-1.948335	4.954677	-0.106820	2.456860	-1.266580	-0.684813	0.029907	0.710631	-1.000000	-1.000000	-1.000000	-1.000000	-1.000000	-1.000000	-1.000000	53.000000	0.000000	-1.000000	-1.000000	291334.000000	1775787496.100245
-17581.905000	-13198.275000	10114.560000	279594.360000	302795.280000	290050.020000	-7796.115000	-20873.655000	4.538630	4.478139	4.406422	-7.154267	-0.748641	-5.469429	0.831577	5.353799	-0.106820	2.456860	-1.266580	-0.684813	0.029907	0.710631	-1.000000	-1.000000	-1.000000	-1.000000	-1.000000	-1.000000	-1.000000	53.000000	0.000000	-1.000000	-1.000000	291335.000000	1775787496.104289
-17573.715000	-13187.565000	10126.395000	279597.915000	302789.745000	290051.010000	-7799.400000	-20872.080000	0.531801	-0.559239	-1.519268	-2.558861	5.615830	-3.702854	1.793798	3.249872	-0.106820	2.456860	-1.266580	-0.684813	0.029907	0.710631	-1.000000	-1.000000	-1.000000	-1.000000	-1.000000	-1.000000	-1.000000	53.000000	0.000000	-1.000000	-1.000000	291336.000000	1775787496.104314
-17578.755000	-13190.535000	10122.795000	279600.210000	302796.180000	290053.035000	-7805.250000	-20882.295000	-2.817881	-4.171440	-5.528461	2.541814	7.959226	-0.752889	-0.065170	-0.551669	-0.106820	2.456860	-1.266580	-0.684813	0.029907	0.710631	-1.000000	-1.000000	-1.000000	-1.000000	-1.000000	-1.000000	-1.000000	53.000000	0.000000	-1.000000	-1.000000	291337.000000	1775787496.109541
-17578.260000	-13189.905000	10122.705000	279599.805000	302792.445000	290053.485000	-7797.915000	-20880.855000	-3.770734	-4.651234	-5.807293	5.977762	6.601357	2.361559	-2.753588	-3.792729	-0.106820	2.456860	-1.266580	-0.684813	0.029907	0.710631	-1.000000	-1.000000	-1.000000	-1.000000	-1.000000	-1.000000	-1.000000	53.000000	0.000000	-1.000000	-1.000000	291338.000000	1775787496.109565
-17581.095000	-13189.545000	10125.045000	279599.220000	302793.120000	290054.520000	-7798.050000	-20881.125000	-2.598773	-2.760440	-3.341690	6.499616	3.418220	4.503143	-3.518358	-4.699976	-0.106820	2.456860	-1.266580	-0.684813	0.029907	0.710631	-1.000000	-1.000000	-1.000000	-1.000000	-1.000000	-1.000000	-1.000000	53.000000	0.000000	-1.000000	-1.000000	291339.000000	1775787496.121794
-17569.125000	-13176.900000	10135.035000	279566.370000	302708.070000	290026.215000	-7794.990000	-20868.255000	-0.455145	-0.111855	-0.038668	3.731910	-1.294415	4.403541	-1.485187	-2.691656	-0.106820	2.456860	-1.266580	-0.684813	0.029907	0.710631	-1.000000	-1.000000	-1.000000	-1.000000	-1.000000	-1.000000	-1.000000	53.000000	0.000000	-1.000000	-1.000000	291340.000000	1775787496.121819
-17560.980000	-13174.920000	10135.170000	279572.760000	302792.895000	290029.590000	-7792.695000	-20855.430000	2.002658	2.316650	2.783109	-1.681817	-7.234817	1.349214	1.891364	1.593837	-1.480220	2.914660	-0.717220	-0.684691	0.029114	0.710264	-1.000000	-1.000000	-1.000000	-1.000000	-1.000000	-1.000000	-1.000000	53.000000	0.000000	-1.000000	-1.000000	291341.000000	1775787496.121844
-17561.385000	-13184.865000	10124.280000	279589.635000	302817.780000	290041.830000	-7795.800000	-20853.270000	4.109030	3.485786	3.860270	-6.347354	-8.157170	-2.603741	4.395733	6.193733	-1.480220	2.914660	-0.717220	-0.684691	0.029114	0.710264	-1.000000	-1.000000	-1.000000	-1.000000	-1.000000	-1.000000	-1.000000	53.000000	0.000000	-1.000000	-1.000000	291342.000000	1775787496.121855
-17559.540000	-13182.750000	10126.935000	279590.670000	302798.745000	290040.255000	-7792.020000	-20853.765000	4.536416	2.230848	2.246654	-5.898948	0.704770	-3.643431	4.637353	8.211263	-1.480220	2.914660	-0.717220	-0.684691	0.029114	0.710264	-1.000000	-1.000000	-1.000000	-1.000000	-1.000000	-1.000000	-1.000000	53.000000	0.000000	-1.000000	-1.000000	291343.000000	1775787496.121869
-17563.770000	-13182.345000	10128.645000	279595.035000	302796.000000	290040.570000	-7796.700000	-20860.200000	2.423768	-0.928495	-1.049608	-0.343991	11.879223	-0.915729	2.742631	5.698249	-1.480220	2.914660	-0.717220	-0.684691	0.029114	0.710264	-1.000000	-1.000000	-1.000000	-1.000000	-1.000000	-1.000000	-1.000000	53.000000	0.000000	-1.000000	-1.000000	291344.000000	1775787496.121879
-17569.215000	-13184.955000	10126.890000	279596.880000	302795.640000	290041.020000	-7800.975000	-20866.275000	-1.581387	-3.814975	-3.596705	5.863019	14.771291	2.806409	-0.206248	-0.595608	-1.480220	2.914660	-0.717220	-0.684691	0.029114	0.710264	-1.000000	-1.000000	-1.000000	-1.000000	-1.000000	-1.000000	-1.000000	53.000000	0.000000	-1.000000	-1.000000	291345.000000	1775787496.126567
-17571.330000	-13186.845000	10124.550000	279596.025000	302790.870000	290040.120000	-7796.160000	-20866.275000	-5.689810	-4.842434	-4.043879	8.505313	7.784899	4.647871	-2.889444	-7.486232	-1.480220	2.914660	-0.717220	-0.684691	0.029114	0.710264	-1.000000	-1.000000	-1.000000	-1.000000	-1.000000	-1.000000	-1.000000	53.000000	0.000000	-1.000000	-1.000000	291346.000000	1775787496.126585
-17572.905000	-13186.890000	10125.180000	279594.675000	302791.725000	290039.220000	-7800.480000	-20869.920000	-7.859784	-3.901037	-2.775136	6.366777	-3.245128	3.722014	-4.042502	-11.313700	-1.480220	2.914660	-0.717220	-0.684691	0.029114	0.710264	-1.000000	-1.000000	-1.000000	-1.000000	-1.000000	-1.000000	-1.000000	53.000000	0.000000	-1.000000	-1.000000	291347.000000	1775787496.127211
-17564.265000	-13175.100000	10139.220000	279593.145000	302796.675000	290039.130000	-7807.590000	-20867.220000	-6.768726	-1.485299	-0.521532	1.102483	-11.418150	0.952891	-3.444267	-10.259968	-1.480220	2.914660	-0.717220	-0.684691	0.029114	0.710264	-1.000000	-1.000000	-1.000000	-1.000000	-1.000000	-1.000000	-1.000000	53.000000	0.000000	-1.000000	-1.000000	291348.000000	1775787496.127227
-17561.250000	-13173.705000	10138.185000	279588.330000	302789.745000	290034.225000	-7804.215000	-20862.855000	-2.558185	1.804014	2.249864	-4.374287	-13.083712	-2.038959	-2.002479	-5.091474	-1.480220	2.914660	-0.717220	-0.684691	0.029114	0.710264	-1.000000	-1.000000	-1.000000	-1.000000	-1.000000	-1.000000	-1.000000	53.000000	0.000000	-1.000000	-1.000000	291349.000000	1775787496.131879
-17558.685000	-13170.375000	10142.280000	279587.430000	302786.595000	290031.570000	-7799.670000	-20861.505000	2.886281	4.730660	4.481975	-7.687181	-9.224033	-4.060738	-0.254137	1.709074	-1.480220	2.914660	-0.717220	-0.684691	0.029114	0.710264	-1.000000	-1.000000	-1.000000	-1.000000	-1.000000	-1.000000	-1.000000	53.000000	0.000000	-1.000000	-1.000000	291350.000000	1775787496.131894
-17567.595000	-13178.880000	10134.630000	279589.635000	302791.770000	290030.265000	-7806.105000	-20871.990000	6.630969	5.539640	4.638932	-7.751859	-3.200202	-4.602970	1.666951	6.947376	-0.091560	2.441600	-1.113980	-0.687376	0.028870	0.711302	-1.000000	-1.000000	-1.000000	-1.000000	-1.000000	-1.000000	-1.000000	53.000000	0.000000	-1.000000	-1.000000	291351.000000	1775787496.140687
-17566.920000	-13179.105000	10133.550000	279592.155000	302789.250000	290028.150000	-7804.080000	-20870.100000	6.603667	3.353489	2.146832	-4.784217	2.308639	-3.622877	3.005972	8.219995	-0.091560	2.441600	-1.113980	-0.687376	0.028870	0.711302	-1.000000	-1.000000	-1.000000	-1.000000	-1.000000	-1.000000	-1.000000	53.000000	0.000000	-1.000000	-1.000000	291352.000000	1775787496.140710
-17563.005000	-13177.665000	10134.585000	279594.765000	302791.680000	290028.780000	-7803.045000	-20864.565000	3.395279	-0.648674	-1.735878	-0.195770	5.873771	-1.542658	3.089361	5.845780	-0.091560	2.441600	-1.113980	-0.687376	0.028870	0.711302	-1.000000	-1.000000	-1.000000	-1.000000	-1.000000	-1.000000	-1.000000	53.000000	0.000000	-1.000000	-1.000000	291353.000000	1775787496.140736
-17570.160000	-13188.150000	10120.725000	279562.320000	302707.170000	289999.080000	-7798.545000	-20868.570000	-0.459636	-4.118934	-4.896760	3.371144	5.450390	0.354278	2.268283	2.329367	-0.091560	2.441600	-1.113980	-0.687376	0.028870	0.711302	-1.000000	-1.000000	-1.000000	-1.000000	-1.000000	-1.000000	-1.000000	53.000000	0.000000	-1.000000	-1.000000	291354.000000	1775787496.140746
-17577.315000	-13194.945000	10111.275000	279529.695000	302694.840000	289968.210000	-7798.545000	-20874.645000	-3.168457	-5.742746	-6.331931	2.713283	-1.228147	-0.110878	1.288540	-0.513118	-0.091560	2.441600	-1.113980	-0.687376	0.028870	0.711302	-1.000000	-1.000000	-1.000000	-1.000000	-1.000000	-1.000000	-1.000000	53.000000	0.000000	-1.000000	-1.000000	291355.000000	1775787496.147219
-17563.275000	-13173.705000	10136.520000	279547.515000	302781.420000	289982.880000	-7802.055000	-20869.245000	-4.140298	-5.087408	-5.587533	-2.098288	-9.062869	-3.075549	0.349887	-2.327421	-0.091560	2.441600	-1.113980	-0.687376	0.028870	0.711302	-1.000000	-1.000000	-1.000000	-1.000000	-1.000000	-1.000000	-1.000000	53.000000	0.000000	-1.000000	-1.000000	291356.000000	1775787496.147244
-17578.395000	-13188.420000	10124.730000	279583.560000	302855.985000	290017.170000	-7804.395000	-20879.865000	-3.112633	-1.886636	-1.909703	-4.926110	-5.058318	-3.842883	-0.839412	-3.057997	-0.091560	2.441600	-1.113980	-0.687376	0.028870	0.711302	-1.000000	-1.000000	-1.000000	-1.000000	-1.000000	-1.000000	-1.000000	53.000000	0.000000	-1.000000	-1.000000	291357.000000	1775787496.147269
-17587.980000	-13200.570000	10111.545000	279584.685000	302822.370000	290019.555000	-7806.240000	-20884.275000	-1.172082	2.056939	3.093039	0.047917	13.643339	2.091744	-2.242184	-2.979051	-0.091560	2.441600	-1.113980	-0.687376	0.028870	0.711302	-1.000000	-1.000000	-1.000000	-1.000000	-1.000000	-1.000000	-1.000000	53.000000	0.000000	-1.000000	-1.000000	291358.000000	1775787496.147281
-17579.970000	-13195.845000	10114.020000	279583.830000	302805.720000	290017.350000	-7804.305000	-20875.635000	0.015071	3.775099	5.735476	9.869269	30.181630	11.631880	-3.154604	-2.387765	-0.091560	2.441600	-1.113980	-0.687376	0.028870	0.711302	-1.000000	-1.000000	-1.000000	-1.000000	-1.000000	-1.000000	-1.000000	53.000000	0.000000	-1.000000	-1.000000	291359.000000	1775787496.159428
-17572.905000	-13190.625000	10119.195000	279582.570000	302794.695000	290013.210000	-7800.840000	-20870.010000	0.809943	3.121395	4.993552	15.796841	26.794944	16.594747	-2.765764	-0.768092	-0.091560	2.441600	-1.113980	-0.687376	0.028870	0.711302	-1.000000	-1.000000	-1.000000	-1.000000	-1.000000	-1.000000	-1.000000	53.000000	0.000000	-1.000000	-1.000000	291360.000000	1775787496.159450
-17574.300000	-13190.085000	10121.130000	279588.870000	302806.485000	290015.370000	-7804.260000	-20873.475000	2.393155	2.255002	3.057350	12.931657	4.716218	12.546153	-1.055001	1.905314	0.930860	2.945180	-0.427280	-0.687315	0.029297	0.712401	-1.000000	-1.000000	-1.000000	-1.000000	-1.000000	-1.000000	-1.000000	53.000000	0.000000	-1.000000	-1.000000	291361.000000	1775787496.159477
-17569.125000	-13183.695000	10127.880000	279575.145000	302751.090000	290002.590000	-7803.900000	-20870.460000	4.224725	2.295470	1.879632	3.363521	-20.874506	1.961307	0.921098	4.076408	0.930860	2.945180	-0.427280	-0.687315	0.029297	0.712401	-1.000000	-1.000000	-1.000000	-1.000000	-1.000000	-1.000000	-1.000000	53.000000	0.000000	-1.000000	-1.000000	291362.000000	1775787496.159486
-17570.835000	-13187.385000	10122.210000	279557.460000	302749.560000	289988.055000	-7800.300000	-20872.035000	4.791320	2.643896	1.534340	-7.912501	-36.924526	-9.581717	2.084089	4.221506	0.930860	2.945180	-0.427280	-0.687315	0.029297	0.712401	-1.000000	-1.000000	-1.000000	-1.000000	-1.000000	-1.000000	-1.000000	53.000000	0.000000	-1.000000	-1.000000	291363.000000	1775787496.160784
-17576.460000	-13191.480000	10120.680000	279585.945000	302835.825000	290013.795000	-7798.140000	-20878.065000	3.236154	2.059288	0.861931	-15.886595	-36.247281	-16.748582	2.313597	2.209934	0.930860	2.945180	-0.427280	-0.687315	0.029297	0.712401	-1.000000	-1.000000	-1.000000	-1.000000	-1.000000	-1.000000	-1.000000	53.000000	0.000000	-1.000000	-1.000000	291364.000000	1775787496.160807
-17573.670000	-13186.395000	10126.665000	279583.875000	302804.370000	290015.865000	-7801.695000	-20876.895000	-0.056826	0.055676	-0.758217	-16.260043	-17.234806	-15.734977	1.903185	-0.962329	0.930860	2.945180	-0.427280	-0.687315	0.029297	0.712401	-1.000000	-1.000000	-1.000000	-1.000000	-1.000000	-1.000000	-1.000000	53.000000	0.000000	-1.000000	-1.000000	291365.000000	1775787496.167073
-17572.590000	-13187.475000	10123.785000	279580.275000	302794.650000	290012.535000	-7800.165000	-20873.970000	-3.390405	-2.301167	-2.485398	-9.019193	9.394621	-7.340891	0.919923	-3.577122	0.930860	2.945180	-0.427280	-0.687315	0.029297	0.712401	-1.000000	-1.000000	-1.000000	-1.000000	-1.000000	-1.000000	-1.000000	53.000000	0.000000	-1.000000	-1.000000	291366.000000	1775787496.167100
-17576.595000	-13192.965000	10117.530000	279581.760000	302802.615000	290011.005000	-7798.140000	-20876.130000	-5.003544	-3.692826	-3.438264	0.527101	26.489474	2.546140	-0.350469	-4.173668	0.930860	2.945180	-0.427280	-0.687315	0.029297	0.712401	-1.000000	-1.000000	-1.000000	-1.000000	-1.000000	-1.000000	-1.000000	53.000000	0.000000	-1.000000	-1.000000	291367.000000	1775787496.169846
-17571.870000	-13185.225000	10129.320000	279581.985000	302794.155000	290007.585000	-7797.420000	-20874.645000	-4.478719	-3.747063	-3.449165	6.986289	26.830818	8.199475	-1.241659	-2.768529	0.930860	2.945180	-0.427280	-0.687315	0.029297	0.712401	-1.000000	-1.000000	-1.000000	-1.000000	-1.000000	-1.000000	-1.000000	53.000000	0.000000	-1.000000	-1.000000	291368.000000	1775787496.169863
-17573.085000	-13185.720000	10129.500000	279585.810000	302794.560000	290008.575000	-7799.805000	-20876.625000	-2.452498	-2.506912	-2.240496	8.636757	15.284279	8.107411	-1.439509	-0.565771	0.930860	2.945180	-0.427280	-0.687315	0.029297	0.712401	-1.000000	-1.000000	-1.000000	-1.000000	-1.000000	-1.000000	-1.000000	53.000000	0.000000	-1.000000	-1.000000	291369.000000	1775787496.184624
-17578.305000	-13192.155000	10121.400000	279587.745000	302798.205000	290009.295000	-7803.180000	-20881.080000	-0.073640	-0.541429	-0.165944	6.727465	0.886674	4.438363	-1.301734	1.106640	0.930860	2.945180	-0.427280	-0.687315	0.029297	0.712401	-1.000000	-1.000000	-1.000000	-1.000000	-1.000000	-1.000000	-1.000000	53.000000	0.000000	-1.000000	-1.000000	291370.000000	1775787496.184647
-17575.650000	-13188.555000	10124.730000	279587.925000	302798.295000	290009.295000	-7798.725000	-20878.200000	1.451623	0.938001	1.286026	3.401334	-8.979424	0.404850	-1.163829	1.576254	0.564620	1.800680	0.259420	-0.687681	0.028625	0.711973	-1.000000	-1.000000	-1.000000	-1.000000	-1.000000	-1.000000	-1.000000	53.000000	0.000000	-1.000000	-1.000000	291371.000000	1775787496.184672
-17570.655000	-13184.640000	10126.350000	279557.010000	302719.275000	289982.250000	-7793.730000	-20872.440000	1.923901	1.475816	1.407662	-0.328283	-13.001660	-2.454623	-0.694018	1.325542	0.564620	1.800680	0.259420	-0.687681	0.028625	0.711973	-1.000000	-1.000000	-1.000000	-1.000000	-1.000000	-1.000000	-1.000000	53.000000	0.000000	-1.000000	-1.000000	291372.000000	1775787496.184682
-17572.995000	-13186.755000	10125.180000	279570.645000	302819.805000	289994.355000	-7801.290000	-20877.345000	1.997546	1.592235	0.902443	-4.331680	-13.287895	-4.377590	0.324704	1.214409	0.564620	1.800680	0.259420	-0.687681	0.028625	0.711973	-1.000000	-1.000000	-1.000000	-1.000000	-1.000000	-1.000000	-1.000000	53.000000	0.000000	-1.000000	-1.000000	291373.000000	1775787496.184695
-17573.445000	-13185.315000	10128.960000	279578.700000	302819.085000	290001.420000	-7814.160000	-20887.425000	1.859065	1.518883	0.512903	-6.691174	-7.604111	-4.637431	0.876202	0.996083	0.564620	1.800680	0.259420	-0.687681	0.028625	0.711973	-1.000000	-1.000000	-1.000000	-1.000000	-1.000000	-1.000000	-1.000000	53.000000	0.000000	-1.000000	-1.000000	291374.000000	1775787496.184704
-17562.240000	-13169.475000	10146.105000	279576.990000	302802.750000	289999.305000	-7820.055000	-20884.590000	1.410608	1.375034	0.767164	-4.879647	4.551890	-1.929324	-0.222588	-0.090608	0.564620	1.800680	0.259420	-0.687681	0.028625	0.711973	-1.000000	-1.000000	-1.000000	-1.000000	-1.000000	-1.000000	-1.000000	53.000000	0.000000	-1.000000	-1.000000	291375.000000	1775787496.184716
-17555.040000	-13159.080000	10156.770000	279579.015000	302800.500000	289998.270000	-7815.870000	-20877.165000	1.177488	1.829033	2.156481	0.167283	14.410909	2.466197	-2.192071	-1.373180	0.564620	1.800680	0.259420	-0.687681	0.028625	0.711973	-1.000000	-1.000000	-1.000000	-1.000000	-1.000000	-1.000000	-1.000000	53.000000	0.000000	-1.000000	-1.000000	291376.000000	1775787496.184725
-17560.080000	-13164.795000	10150.650000	279573.255000	302769.360000	289988.190000	-7808.355000	-20875.725000	1.358039	2.744992	3.866596	4.755604	13.658993	5.342402	-2.593942	-1.272528	0.564620	1.800680	0.259420	-0.687681	0.028625	0.711973	-1.000000	-1.000000	-1.000000	-1.000000	-1.000000	-1.000000	-1.000000	53.000000	0.000000	-1.000000	-1.000000	291377.000000	1775787496.189009
-17569.980000	-13180.770000	10131.705000	279546.795000	302728.320000	289964.385000	-7792.875000	-20872.980000	0.759070	2.111731	3.275163	5.624715	2.412568	4.360040	0.138132	0.394520	0.564620	1.800680	0.259420	-0.687681	0.028625	0.711973	-1.000000	-1.000000	-1.000000	-1.000000	-1.000000	-1.000000	-1.000000	53.000000	0.000000	-1.000000	-1.000000	291378.000000	1775787496.189034
-17587.305000	-13209.570000	10099.800000	279577.935000	302850.360000	289990.530000	-7796.250000	-20879.820000	-1.910330	-2.064458	-1.750021	2.491593	-10.376107	0.222905	4.826587	2.058170	0.564620	1.800680	0.259420	-0.687681	0.028625	0.711973	-1.000000	-1.000000	-1.000000	-1.000000	-1.000000	-1.000000	-1.000000	53.000000	0.000000	-1.000000	-1.000000	291379.000000	1775787496.196589
-17589.375000	-13215.915000	10092.510000	279581.400000	302824.170000	289995.795000	-7794.270000	-20882.925000	-5.964280	-8.800251	-9.773526	-0.785445	-11.803444	-2.825167	8.040230	2.020305	0.564620	1.800680	0.259420	-0.687681	0.028625	0.711973	-1.000000	-1.000000	-1.000000	-1.000000	-1.000000	-1.000000	-1.000000	53.000000	0.000000	-1.000000	-1.000000	291380.000000	1775787496.196607
-17582.265000	-13202.685000	10107.630000	279578.970000	302811.885000	289996.920000	-7800.615000	-20884.590000	-8.370484	-13.264792	-15.080558	-0.738391	-0.785002	-1.567371	6.957665	0.082722	0.305200	2.456860	-0.549360	-0.684935	0.029175	0.710997	-1.000000	-1.000000	-1.000000	-1.000000	-1.000000	-1.000000	-1.000000	53.000000	0.000000	-1.000000	-1.000000	291381.000000	1775787496.197285
-17581.995000	-13200.120000	10111.005000	279575.460000	302806.980000	289994.490000	-7807.365000	-20888.190000	-6.254176	-10.423623	-11.920366	1.237842	9.470164	2.132468	1.712682	-2.326418	0.305200	2.456860	-0.549360	-0.684935	0.029175	0.710997	-1.000000	-1.000000	-1.000000	-1.000000	-1.000000	-1.000000	-1.000000	53.000000	0.000000	-1.000000	-1.000000	291382.000000	1775787496.197299
-17578.260000	-13197.195000	10112.040000	279575.415000	302810.580000	289991.655000	-7798.590000	-20882.430000	-0.076702	-0.573231	-0.743026	1.894182	9.478099	4.208414	-4.756723	-3.470724	0.305200	2.456860	-0.549360	-0.684935	0.029175	0.710997	-1.000000	-1.000000	-1.000000	-1.000000	-1.000000	-1.000000	-1.000000	53.000000	0.000000	-1.000000	-1.000000	291383.000000	1775787496.203262
-17576.955000	-13195.845000	10112.265000	279556.560000	302752.665000	289970.055000	-7795.710000	-20878.605000	6.651977	10.473314	11.671722	-0.012964	0.644066	2.449468	-8.520695	-2.416390	0.305200	2.456860	-0.549360	-0.684935	0.029175	0.710997	-1.000000	-1.000000	-1.000000	-1.000000	-1.000000	-1.000000	-1.000000	53.000000	0.000000	-1.000000	-1.000000	291384.000000	1775787496.203277
-17574.030000	-13191.030000	10116.675000	279547.020000	302770.755000	289957.995000	-7795.575000	-20877.525000	10.401567	16.621284	18.364555	-3.773861	-10.990629	-2.679364	-7.611697	0.367028	0.305200	2.456860	-0.549360	-0.684935	0.029175	0.710997	-1.000000	-1.000000	-1.000000	-1.000000	-1.000000	-1.000000	-1.000000	53.000000	0.000000	-1.000000	-1.000000	291385.000000	1775787496.203982
-17583.615000	-13200.570000	10109.385000	279577.890000	302840.730000	289981.080000	-7796.970000	-20884.455000	9.582380	15.386712	16.808974	-6.689518	-16.487407	-7.769728	-3.512654	2.984345	0.305200	2.456860	-0.549360	-0.684935	0.029175	0.710997	-1.000000	-1.000000	-1.000000	-1.000000	-1.000000	-1.000000	-1.000000	53.000000	0.000000	-1.000000	-1.000000	291386.000000	1775787496.204000
-17583.705000	-13202.055000	10107.450000	279581.265000	302818.455000	289985.580000	-7797.105000	-20883.960000	4.778202	8.049217	8.834440	-5.011940	-8.811068	-7.963680	0.736677	3.519838	0.305200	2.456860	-0.549360	-0.684935	0.029175	0.710997	-1.000000	-1.000000	-1.000000	-1.000000	-1.000000	-1.000000	-1.000000	53.000000	0.000000	-1.000000	-1.000000	291387.000000	1775787496.208051
-17578.620000	-13196.835000	10112.355000	279579.780000	302804.505000	289986.660000	-7803.360000	-20884.230000	-1.410157	-1.442689	-1.194745	1.295262	6.503098	-2.091536	2.995184	1.836290	0.305200	2.456860	-0.549360	-0.684935	0.029175	0.710997	-1.000000	-1.000000	-1.000000	-1.000000	-1.000000	-1.000000	-1.000000	53.000000	0.000000	-1.000000	-1.000000	291388.000000	1775787496.208071
-17573.355000	-13190.940000	10119.060000	279578.385000	302805.045000	289987.245000	-7804.665000	-20881.935000	-5.558469	-8.300550	-8.446543	7.292450	15.970542	5.476849	2.812157	-0.476515	0.305200	2.456860	-0.549360	-0.684935	0.029175	0.710997	-1.000000	-1.000000	-1.000000	-1.000000	-1.000000	-1.000000	-1.000000	53.000000	0.000000	-1.000000	-1.000000	291389.000000	1775787496.211238
-17572.725000	-13188.510000	10122.930000	279571.365000	302802.660000	289982.745000	-7805.340000	-20883.780000	-5.924621	-9.842067	-10.242868	8.368625	13.645550	9.416308	1.203470	-1.835604	0.305200	2.456860	-0.549360	-0.684935	0.029175	0.710997	-1.000000	-1.000000	-1.000000	-1.000000	-1.000000	-1.000000	-1.000000	53.000000	0.000000	-1.000000	-1.000000	291390.000000	1775787496.211258
-17572.905000	-13185.495000	10127.565000	279570.690000	302805.630000	289980.180000	-7807.680000	-20885.085000	-3.572437	-6.932799	-7.365763	4.158748	4.087896	7.704337	-0.261612	-1.886149	-1.663340	2.395820	0.625660	-0.684752	0.029175	0.711363	-1.000000	-1.000000	-1.000000	-1.000000	-1.000000	-1.000000	-1.000000	53.000000	0.000000	-1.000000	-1.000000	291391.000000	1775787496.215365
-17567.595000	-13178.025000	10135.980000	279568.665000	302799.330000	289975.725000	-7803.315000	-20879.595000	-0.772253	-2.376302	-2.624458	-2.136113	-5.211062	2.050420	-0.590011	-1.111225	-1.663340	2.395820	0.625660	-0.684752	0.029175	0.711363	-1.000000	-1.000000	-1.000000	-1.000000	-1.000000	-1.000000	-1.000000	53.000000	0.000000	-1.000000	-1.000000	291392.000000	1775787496.215397
-17567.100000	-13175.640000	10138.455000	279570.510000	302802.795000	289974.285000	-7805.340000	-20879.280000	1.028952	1.400558	1.364007	-6.581079	-9.672841	-3.998608	0.258844	0.049014	-1.663340	2.395820	0.625660	-0.684752	0.029175	0.711363	-1.000000	-1.000000	-1.000000	-1.000000	-1.000000	-1.000000	-1.000000	53.000000	0.000000	-1.000000	-1.000000	291393.000000	1775787496.219266
-17572.455000	-13184.145000	10128.645000	279573.075000	302801.490000	289972.980000	-7810.920000	-20882.205000	1.395579	2.944768	2.886811	-7.046518	-8.694076	-7.398431	1.403882	1.085510	-1.663340	2.395820	0.625660	-0.684752	0.029175	0.711363	-1.000000	-1.000000	-1.000000	-1.000000	-1.000000	-1.000000	-1.000000	53.000000	0.000000	-1.000000	-1.000000	291394.000000	1775787496.219281
-17575.470000	-13191.120000	10120.860000	279575.460000	302807.205000	289973.205000	-7808.130000	-20881.890000	0.330135	1.620593	1.199891	-3.948880	-4.162720	-7.011185	1.733157	1.303804	-1.663340	2.395820	0.625660	-0.684752	0.029175	0.711363	-1.000000	-1.000000	-1.000000	-1.000000	-1.000000	-1.000000	-1.000000	53.000000	0.000000	-1.000000	-1.000000	291395.000000	1775787496.225437
-17579.700000	-13193.820000	10118.610000	279575.055000	302801.445000	289973.970000	-7810.020000	-20886.345000	-1.544655	-1.710860	-2.625138	0.511316	1.095774	-3.690362	1.102969	0.506323	-1.663340	2.395820	0.625660	-0.684752	0.029175	0.711363	-1.000000	-1.000000	-1.000000	-1.000000	-1.000000	-1.000000	-1.000000	53.000000	0.000000	-1.000000	-1.000000	291396.000000	1775787496.225456
-17560.395000	-13168.170000	10146.555000	279577.080000	302794.380000	289975.815000	-7814.745000	-20875.860000	-2.649803	-4.171301	-5.255336	3.871831	4.388795	0.625097	0.111236	-0.603578	-1.663340	2.395820	0.625660	-0.684752	0.029175	0.711363	-1.000000	-1.000000	-1.000000	-1.000000	-1.000000	-1.000000	-1.000000	53.000000	0.000000	-1.000000	-1.000000	291397.000000	1775787496.227320
-17557.920000	-13163.985000	10150.425000	279558.630000	302746.095000	289959.885000	-7816.680000	-20876.940000	-1.308790	-2.739122	-3.376151	4.505550	3.573988	3.738762	-0.854738	-0.906361	-1.663340	2.395820	0.625660	-0.684752	0.029175	0.711363	-1.000000	-1.000000	-1.000000	-1.000000	-1.000000	-1.000000	-1.000000	53.000000	0.000000	-1.000000	-1.000000	291398.000000	1775787496.227341
-17576.370000	-13190.985000	10117.980000	279537.660000	302763.060000	289939.635000	-7803.630000	-20884.770000	1.690701	1.584277	1.675470	1.716848	-1.355500	3.676612	-1.271891	-0.296999	-1.663340	2.395820	0.625660	-0.684752	0.029175	0.711363	-1.000000	-1.000000	-1.000000	-1.000000	-1.000000	-1.000000	-1.000000	53.000000	0.000000	-1.000000	-1.000000	291399.000000	1775787496.231603
-17585.055000	-13204.935000	10103.535000	279565.335000	302845.185000	289960.920000	-7798.185000	-20888.820000	2.908335	3.667265	4.052462	-2.852664	-4.513135	0.702920	-0.274811	-0.028593	-1.663340	2.395820	0.625660	-0.684752	0.029175	0.711363	-1.000000	-1.000000	-1.000000	-1.000000	-1.000000	-1.000000	-1.000000	53.000000	0.000000	-1.000000	-1.000000	291400.000000	1775787496.231619
-17585.010000	-13204.170000	10105.650000	279567.540000	302820.435000	289963.305000	-7801.110000	-20889.450000	0.668689	0.841508	0.959441	-4.698570	1.144811	-1.533226	1.839306	-0.792190	-1.449700	1.297100	-0.503580	-0.687498	0.029297	0.711363	-1.000000	-1.000000	-1.000000	-1.000000	-1.000000	-1.000000	-1.000000	53.000000	0.000000	-1.000000	-1.000000	291401.000000	1775787496.237705
-17583.570000	-13199.805000	10109.160000	279568.260000	302806.080000	289961.100000	-7812.495000	-20891.520000	-2.605274	-3.494404	-3.599738	-1.404631	11.466604	-0.236823	2.918441	-1.734101	-1.449700	1.297100	-0.503580	-0.687498	0.029297	0.711363	-1.000000	-1.000000	-1.000000	-1.000000	-1.000000	-1.000000	-1.000000	53.000000	0.000000	-1.000000	-1.000000	291402.000000	1775787496.237720
-17584.515000	-13198.995000	10111.410000	279573.120000	302809.770000	289964.295000	-7818.480000	-20894.580000	-3.608947	-4.483374	-4.333502	4.102662	14.788199	3.009143	1.105059	-1.782237	-1.449700	1.297100	-0.503580	-0.687498	0.029297	0.711363	-1.000000	-1.000000	-1.000000	-1.000000	-1.000000	-1.000000	-1.000000	53.000000	0.000000	-1.000000	-1.000000	291403.000000	1775787496.239202
-17601.705000	-13220.505000	10090.440000	279574.560000	302818.725000	289966.770000	-7805.655000	-20903.400000	-1.883747	-1.473125	-0.724741	7.458319	7.533601	5.066712	-2.522836	-0.930788	-1.449700	1.297100	-0.503580	-0.687498	0.029297	0.711363	-1.000000	-1.000000	-1.000000	-1.000000	-1.000000	-1.000000	-1.000000	53.000000	0.000000	-1.000000	-1.000000	291404.000000	1775787496.239217
-17602.875000	-13220.280000	10090.890000	279572.040000	302814.045000	289965.780000	-7805.520000	-20903.940000	0.386833	2.158209	3.434199	6.697946	-3.899710	4.516120	-4.608838	0.061028	-1.449700	1.297100	-0.503580	-0.687498	0.029297	0.711363	-1.000000	-1.000000	-1.000000	-1.000000	-1.000000	-1.000000	-1.000000	53.000000	0.000000	-1.000000	-1.000000	291405.000000	1775787496.242909
-17586.540000	-13200.390000	10110.150000	279566.235000	302805.495000	289963.260000	-7806.870000	-20893.905000	1.919403	4.164959	5.503208	2.411543	-12.425019	1.721160	-3.385159	1.025805	-1.449700	1.297100	-0.503580	-0.687498	0.029297	0.711363	-1.000000	-1.000000	-1.000000	-1.000000	-1.000000	-1.000000	-1.000000	53.000000	0.000000	-1.000000	-1.000000	291406.000000	1775787496.242926
-17579.925000	-13191.750000	10118.835000	279563.355000	302806.485000	289961.415000	-7804.935000	-20888.820000	3.712925	5.668646	6.476410	-3.229241	-15.189404	-2.003825	-0.319770	2.590604	-1.449700	1.297100	-0.503580	-0.687498	0.029297	0.711363	-1.000000	-1.000000	-1.000000	-1.000000	-1.000000	-1.000000	-1.000000	53.000000	0.000000	-1.000000	-1.000000	291407.000000	1775787496.246861
-17580.690000	-13193.190000	10115.910000	279534.285000	302727.960000	289932.525000	-7802.640000	-20888.415000	6.036303	7.361191	7.268402	-8.006419	-13.826726	-5.513886	2.271886	4.554266	-1.449700	1.297100	-0.503580	-0.687498	0.029297	0.711363	-1.000000	-1.000000	-1.000000	-1.000000	-1.000000	-1.000000	-1.000000	53.000000	0.000000	-1.000000	-1.000000	291408.000000	1775787496.246873
-17583.120000	-13196.070000	10113.030000	279544.500000	302816.835000	289937.205000	-7801.245000	-20890.530000	6.862699	7.278929	6.315026	-10.542697	-10.749761	-8.235947	3.277600	5.313693	-1.449700	1.297100	-0.503580	-0.687498	0.029297	0.711363	-1.000000	-1.000000	-1.000000	-1.000000	-1.000000	-1.000000	-1.000000	53.000000	0.000000	-1.000000	-1.000000	291409.000000	1775787496.251894
-17584.380000	-13195.620000	10116.000000	279564.165000	302827.680000	289951.380000	-7812.225000	-20895.930000	4.424048	3.712202	2.328144	-8.999851	-3.246956	-8.481166	2.529719	3.498703	-1.449700	1.297100	-0.503580	-0.687498	0.029297	0.711363	-1.000000	-1.000000	-1.000000	-1.000000	-1.000000	-1.000000	-1.000000	53.000000	0.000000	-1.000000	-1.000000	291410.000000	1775787496.251915
-17583.345000	-13193.505000	10119.150000	279568.980000	302813.235000	289955.295000	-7812.225000	-20900.205000	-0.493522	-2.135407	-3.208630	-2.077321	10.019952	-4.132930	0.283768	-0.548015	-1.297100	1.022420	0.259420	-0.688719	0.030456	0.711302	-1.000000	-1.000000	-1.000000	-1.000000	-1.000000	-1.000000	-1.000000	53.000000	0.000000	-1.000000	-1.000000	291411.000000	1775787496.256402
-17588.520000	-13197.960000	10114.515000	279568.260000	302809.770000	289954.620000	-7816.230000	-20908.890000	-5.340715	-7.273540	-7.486608	7.306976	20.787848	3.477803	-2.377070	-4.992699	-1.297100	1.022420	0.259420	-0.688719	0.030456	0.711302	-1.000000	-1.000000	-1.000000	-1.000000	-1.000000	-1.000000	-1.000000	53.000000	0.000000	-1.000000	-1.000000	291412.000000	1775787496.256417
-17584.830000	-13193.595000	10118.115000	279568.170000	302809.095000	289956.195000	-7813.845000	-20904.345000	-7.905066	-9.460318	-8.891120	13.267782	20.527307	9.720382	-3.794747	-7.639042	-1.297100	1.022420	0.259420	-0.688719	0.030456	0.711302	-1.000000	-1.000000	-1.000000	-1.000000	-1.000000	-1.000000	-1.000000	53.000000	0.000000	-1.000000	-1.000000	291413.000000	1775787496.259667
-17582.985000	-13191.300000	10117.035000	279535.815000	302724.360000	289929.915000	-7812.270000	-20897.640000	-7.285070	-8.116935	-7.422032	11.772007	8.641260	10.566697	-2.992283	-6.834841	-1.297100	1.022420	0.259420	-0.688719	0.030456	0.711302	-1.000000	-1.000000	-1.000000	-1.000000	-1.000000	-1.000000	-1.000000	53.000000	0.000000	-1.000000	-1.000000	291414.000000	1775787496.259685
-17583.255000	-13190.400000	10119.240000	279550.080000	302826.555000	289942.605000	-7812.090000	-20894.580000	-4.034427	-4.158266	-4.049841	3.455133	-8.149880	5.455669	-0.401039	-2.526426	-1.297100	1.022420	0.259420	-0.688719	0.030456	0.711302	-1.000000	-1.000000	-1.000000	-1.000000	-1.000000	-1.000000	-1.000000	53.000000	0.000000	-1.000000	-1.000000	291415.000000	1775787496.266384
-17573.760000	-13184.415000	10126.530000	279561.735000	302820.480000	289952.685000	-7809.345000	-20881.755000	0.213414	0.508526	-0.091782	-5.823099	-17.106463	-1.590472	2.483933	3.272601	-1.297100	1.022420	0.259420	-0.688719	0.030456	0.711302	-1.000000	-1.000000	-1.000000	-1.000000	-1.000000	-1.000000	-1.000000	53.000000	0.000000	-1.000000	-1.000000	291416.000000	1775787496.266400
-17569.350000	-13184.595000	10125.270000	279561.960000	302806.575000	289951.200000	-7809.480000	-20879.055000	3.882187	4.050073	3.292018	-9.422060	-11.603375	-5.277017	4.184975	7.792485	-1.297100	1.022420	0.259420	-0.688719	0.030456	0.711302	-1.000000	-1.000000	-1.000000	-1.000000	-1.000000	-1.000000	-1.000000	53.000000	0.000000	-1.000000	-1.000000	291417.000000	1775787496.276424
-17582.310000	-13197.330000	10111.725000	279556.110000	302782.635000	289941.120000	-7813.620000	-20892.690000	5.624475	5.141498	4.803929	-6.445007	-0.275116	-4.565394	3.961657	8.665177	-1.297100	1.022420	0.259420	-0.688719	0.030456	0.711302	-1.000000	-1.000000	-1.000000	-1.000000	-1.000000	-1.000000	-1.000000	53.000000	0.000000	-1.000000	-1.000000	291418.000000	1775787496.276457
-17590.815000	-13208.670000	10096.965000	279527.535000	302723.100000	289912.590000	-7808.310000	-20896.830000	4.143842	3.064394	3.199118	-1.717243	4.218552	-2.896146	2.044035	4.762357	-1.297100	1.022420	0.259420	-0.688719	0.030456	0.711302	-1.000000	-1.000000	-1.000000	-1.000000	-1.000000	-1.000000	-1.000000	53.000000	0.000000	-1.000000	-1.000000	291419.000000	1775787496.276481
-17588.070000	-13205.070000	10102.635000	279555.930000	302841.270000	289935.360000	-7803.630000	-20893.770000	-0.097603	-1.083412	-0.818079	0.449077	0.352007	-2.987407	-0.252241	-2.083473	-1.297100	1.022420	0.259420	-0.688719	0.030456	0.711302	-1.000000	-1.000000	-1.000000	-1.000000	-1.000000	-1.000000	-1.000000	53.000000	0.000000	-1.000000	-1.000000	291420.000000	1775787496.276493
-17583.930000	-13196.205000	10112.850000	279566.955000	302825.700000	289946.880000	-7809.750000	-20895.570000	-4.037635	-4.035777	-3.805699	1.070215	-1.287053	-2.940027	-1.636670	-7.631810	0.671440	0.885080	0.289940	-0.688414	0.030640	0.710020	-1.000000	-1.000000	-1.000000	-1.000000	-1.000000	-1.000000	-1.000000	53.000000	0.000000	-1.000000	-1.000000	291421.000000	1775787496.279703
-17579.745000	-13190.130000	10121.670000	279564.885000	302804.820000	289948.545000	-7808.985000	-20894.265000	-4.664286	-3.029133	-2.577336	3.040519	4.730851	0.224309	-2.126277	-8.822377	0.671440	0.885080	0.289940	-0.688414	0.030640	0.710020	-1.000000	-1.000000	-1.000000	-1.000000	-1.000000	-1.000000	-1.000000	53.000000	0.000000	-1.000000	-1.000000	291422.000000	1775787496.279720
-17582.850000	-13194.270000	10116.810000	279560.745000	302807.475000	289947.780000	-7808.040000	-20896.290000	-1.885291	1.211289	2.154238	5.412475	10.217312	5.145469	-2.253760	-5.826890	0.671440	0.885080	0.289940	-0.688414	0.030640	0.710020	-1.000000	-1.000000	-1.000000	-1.000000	-1.000000	-1.000000	-1.000000	53.000000	0.000000	-1.000000	-1.000000	291423.000000	1775787496.279740
-17574.840000	-13184.190000	10126.215000	279557.955000	302808.195000	289946.295000	-7817.715000	-20894.040000	1.920721	5.293690	6.500446	5.145302	7.898844	7.757266	-2.179913	-0.970092	0.671440	0.885080	0.289940	-0.688414	0.030640	0.710020	-1.000000	-1.000000	-1.000000	-1.000000	-1.000000	-1.000000	-1.000000	53.000000	0.000000	-1.000000	-1.000000	291424.000000	1775787496.279749
-17563.680000	-13172.220000	10138.905000	279555.795000	302797.485000	289941.885000	-7815.105000	-20885.895000	4.645454	6.850671	7.668621	1.570462	-0.189699	5.918267	-2.009673	3.412386	0.671440	0.885080	0.289940	-0.688414	0.030640	0.710020	-1.000000	-1.000000	-1.000000	-1.000000	-1.000000	-1.000000	-1.000000	53.000000	0.000000	-1.000000	-1.000000	291425.000000	1775787496.284050
-17576.415000	-13189.005000	10119.915000	279553.590000	302800.860000	289934.145000	-7815.690000	-20893.590000	5.387451	5.566436	5.460001	-3.160495	-8.312412	0.680993	-1.560273	5.945564	0.671440	0.885080	0.289940	-0.688414	0.030640	0.710020	-1.000000	-1.000000	-1.000000	-1.000000	-1.000000	-1.000000	-1.000000	53.000000	0.000000	-1.000000	-1.000000	291426.000000	1775787496.284068
-17594.685000	-13210.245000	10097.730000	279559.035000	302820.480000	289933.830000	-7823.610000	-20910.870000	3.179906	1.193727	0.076852	-6.193197	-11.636855	-5.050193	-0.566719	5.534572	0.671440	0.885080	0.289940	-0.688414	0.030640	0.710020	-1.000000	-1.000000	-1.000000	-1.000000	-1.000000	-1.000000	-1.000000	53.000000	0.000000	-1.000000	-1.000000	291427.000000	1775787496.290346
-17596.575000	-13211.820000	10096.875000	279559.485000	302817.735000	289933.560000	-7819.245000	-20911.590000	-2.046861	-5.642970	-7.390036	-5.895305	-8.284710	-8.247140	0.628483	1.880745	0.671440	0.885080	0.289940	-0.688414	0.030640	0.710020	-1.000000	-1.000000	-1.000000	-1.000000	-1.000000	-1.000000	-1.000000	53.000000	0.000000	-1.000000	-1.000000	291428.000000	1775787496.290368
-17593.965000	-13208.490000	10100.610000	279559.260000	302815.710000	289934.145000	-7813.845000	-20908.890000	-7.327310	-11.227952	-12.869240	-2.815217	-1.039709	-7.391118	1.785360	-2.760458	0.671440	0.885080	0.289940	-0.688414	0.030640	0.710020	-1.000000	-1.000000	-1.000000	-1.000000	-1.000000	-1.000000	-1.000000	53.000000	0.000000	-1.000000	-1.000000	291429.000000	1775787496.292188
-17591.670000	-13208.355000	10097.145000	279529.920000	302734.485000	289908.360000	-7810.875000	-20905.425000	-8.600593	-11.259029	-12.132963	0.379388	3.416159	-3.765997	3.060201	-4.836512	0.671440	0.885080	0.289940	-0.688414	0.030640	0.710020	-1.000000	-1.000000	-1.000000	-1.000000	-1.000000	-1.000000	-1.000000	53.000000	0.000000	-1.000000	-1.000000	291430.000000	1775787496.292203
-17591.715000	-13204.395000	10103.175000	279541.215000	302828.085000	289919.385000	-7814.880000	-20907.495000	-4.767741	-5.249820	-5.212853	1.096829	1.488461	-0.272235	3.961873	-3.020794	0.625660	1.220800	-0.366240	-0.686583	0.030517	0.710569	-1.000000	-1.000000	-1.000000	-1.000000	-1.000000	-1.000000	-1.000000	53.000000	0.000000	-1.000000	-1.000000	291431.000000	1775787496.323728
-17597.475000	-13208.220000	10101.735000	279552.870000	302835.825000	289931.310000	-7817.445000	-20913.030000	1.446984	3.185786	3.949377	0.253631	-0.486954	2.232273	3.384738	0.726397	0.625660	1.220800	-0.366240	-0.686583	0.030517	0.710569	-1.000000	-1.000000	-1.000000	-1.000000	-1.000000	-1.000000	-1.000000	53.000000	0.000000	-1.000000	-1.000000	291432.000000	1775787496.323754
-17592.345000	-13203.315000	10106.730000	279552.645000	302823.900000	289929.510000	-7816.095000	-20908.755000	6.222755	9.479686	10.812692	0.963944	3.984872	4.922615	1.077444	3.493849	0.625660	1.220800	-0.366240	-0.686583	0.030517	0.710569	-1.000000	-1.000000	-1.000000	-1.000000	-1.000000	-1.000000	-1.000000	53.000000	0.000000	-1.000000	-1.000000	291433.000000	1775787496.323785
-17594.010000	-13203.810000	10106.100000	279551.160000	302819.310000	289924.560000	-7817.355000	-20910.825000	7.640247	11.143197	12.764698	3.565854	10.074356	7.243050	-1.740181	4.033647	0.625660	1.220800	-0.366240	-0.686583	0.030517	0.710569	-1.000000	-1.000000	-1.000000	-1.000000	-1.000000	-1.000000	-1.000000	53.000000	0.000000	-1.000000	-1.000000	291434.000000	1775787496.323798
-17595.765000	-13206.330000	10103.535000	279553.050000	302816.340000	289922.670000	-7816.275000	-20911.365000	6.023166	8.430234	9.786060	5.479136	9.923610	7.007300	-3.519358	2.829512	0.625660	1.220800	-0.366240	-0.686583	0.030517	0.710569	-1.000000	-1.000000	-1.000000	-1.000000	-1.000000	-1.000000	-1.000000	53.000000	0.000000	-1.000000	-1.000000	291435.000000	1775787496.323814
-17589.825000	-13200.120000	10110.285000	279558.630000	302816.070000	289926.540000	-7815.195000	-20904.165000	2.778628	3.304304	3.864651	4.965308	2.930284	3.745953	-3.556935	0.988284	0.625660	1.220800	-0.366240	-0.686583	0.030517	0.710569	-1.000000	-1.000000	-1.000000	-1.000000	-1.000000	-1.000000	-1.000000	53.000000	0.000000	-1.000000	-1.000000	291436.000000	1775787496.323826
-17590.545000	-13200.210000	10109.475000	279559.485000	302818.095000	289927.260000	-7814.880000	-20907.090000	-0.357365	-1.646283	-2.040759	2.529734	-5.750263	-0.550598	-2.157141	-0.408816	0.625660	1.220800	-0.366240	-0.686583	0.030517	0.710569	-1.000000	-1.000000	-1.000000	-1.000000	-1.000000	-1.000000	-1.000000	53.000000	0.000000	-1.000000	-1.000000	291437.000000	1775787496.324263
-17593.245000	-13204.035000	10105.380000	279557.280000	302819.400000	289926.045000	-7813.530000	-20909.340000	-2.339820	-4.679983	-5.796966	-0.498527	-10.762996	-3.628614	-0.238540	-1.121903	0.625660	1.220800	-0.366240	-0.686583	0.030517	0.710569	-1.000000	-1.000000	-1.000000	-1.000000	-1.000000	-1.000000	-1.000000	53.000000	0.000000	-1.000000	-1.000000	291438.000000	1775787496.324279
-17590.455000	-13203.720000	10104.705000	279551.160000	302813.415000	289922.535000	-7808.535000	-20904.570000	-3.206966	-5.680934	-7.094845	-3.287813	-10.246461	-4.753254	1.354396	-1.573739	0.625660	1.220800	-0.366240	-0.686583	0.030517	0.710569	-1.000000	-1.000000	-1.000000	-1.000000	-1.000000	-1.000000	-1.000000	53.000000	0.000000	-1.000000	-1.000000	291439.000000	1775787496.324298
-17594.280000	-13211.415000	10095.345000	279548.370000	302822.370000	289920.960000	-7808.310000	-20905.155000	-3.269914	-5.324675	-6.632402	-5.395975	-5.812429	-4.443522	2.244935	-1.774300	0.625660	1.220800	-0.366240	-0.686583	0.030517	0.710569	-1.000000	-1.000000	-1.000000	-1.000000	-1.000000	-1.000000	-1.000000	53.000000	0.000000	-1.000000	-1.000000	291440.000000	1775787496.324310
-17598.150000	-13216.320000	10090.890000	279546.660000	302823.585000	289917.630000	-7812.360000	-20907.990000	-2.848267	-4.333343	-5.261507	-6.218188	-0.092651	-3.407771	2.177872	-1.578574	-1.617560	1.022420	0.213640	-0.686461	0.030090	0.712156	-1.000000	-1.000000	-1.000000	-1.000000	-1.000000	-1.000000	-1.000000	53.000000	0.000000	-1.000000	-1.000000	291441.000000	1775787496.324325
-17597.970000	-13217.535000	10087.020000	279531.360000	302779.125000	289898.910000	-7818.300000	-20911.140000	-2.265737	-3.084730	-3.486860	-5.431952	3.878680	-2.369575	0.867834	-1.313525	-1.617560	1.022420	0.213640	-0.686461	0.030090	0.712156	-1.000000	-1.000000	-1.000000	-1.000000	-1.000000	-1.000000	-1.000000	53.000000	0.000000	-1.000000	-1.000000	291442.000000	1775787496.324336
-17588.520000	-13203.405000	10101.690000	279517.185000	302776.830000	289882.935000	-7819.380000	-20913.210000	-1.290901	-1.130793	-1.002538	-3.822909	3.153662	-2.259630	-1.352102	-1.288790	-1.617560	1.022420	0.213640	-0.686461	0.030090	0.712156	-1.000000	-1.000000	-1.000000	-1.000000	-1.000000	-1.000000	-1.000000	53.000000	0.000000	-1.000000	-1.000000	291443.000000	1775787496.324350
-17590.815000	-13202.595000	10106.640000	279549.315000	302847.840000	289905.705000	-7821.000000	-20917.440000	0.507499	2.095122	2.741017	-1.693141	0.123004	-2.583116	-3.229902	-1.354727	-1.617560	1.022420	0.213640	-0.686461	0.030090	0.712156	-1.000000	-1.000000	-1.000000	-1.000000	-1.000000	-1.000000	-1.000000	53.000000	0.000000	-1.000000	-1.000000	291444.000000	1775787496.324361
-17590.950000	-13203.045000	10106.820000	279553.410000	302828.175000	289911.240000	-7819.515000	-20913.570000	2.504090	5.565938	6.839999	2.434773	1.654990	-0.675252	-3.476523	-1.079354	-1.617560	1.022420	0.213640	-0.686461	0.030090	0.712156	-1.000000	-1.000000	-1.000000	-1.000000	-1.000000	-1.000000	-1.000000	53.000000	0.000000	-1.000000	-1.000000	291445.000000	1775787496.325842
-17592.030000	-13202.955000	10106.640000	279554.400000	302819.760000	289913.670000	-7817.085000	-20911.320000	3.326220	6.989211	8.803920	8.269252	7.668984	4.419149	-1.782487	-0.024398	-1.617560	1.022420	0.213640	-0.686461	0.030090	0.712156	-1.000000	-1.000000	-1.000000	-1.000000	-1.000000	-1.000000	-1.000000	53.000000	0.000000	-1.000000	-1.000000	291446.000000	1775787496.325864
-17578.980000	-13188.195000	10122.480000	279554.310000	302812.740000	289915.875000	-7808.940000	-20897.865000	2.663395	5.502257	7.268338	11.920567	10.322210	9.512859	1.141406	1.943460	-1.617560	1.022420	0.213640	-0.686461	0.030090	0.712156	-1.000000	-1.000000	-1.000000	-1.000000	-1.000000	-1.000000	-1.000000	53.000000	0.000000	-1.000000	-1.000000	291447.000000	1775787496.337576
-17575.920000	-13190.355000	10120.005000	279550.170000	302810.805000	289914.615000	-7809.660000	-20893.005000	1.638373	2.516160	3.479319	10.107581	5.536508	10.693067	4.004816	4.347598	-1.617560	1.022420	0.213640	-0.686461	0.030090	0.712156	-1.000000	-1.000000	-1.000000	-1.000000	-1.000000	-1.000000	-1.000000	53.000000	0.000000	-1.000000	-1.000000	291448.000000	1775787496.337597
-17582.085000	-13199.940000	10109.790000	279546.120000	302816.880000	289910.430000	-7814.520000	-20899.710000	0.908304	-0.662529	-0.919995	3.368225	-3.043710	6.844682	5.207810	5.731914	-1.617560	1.022420	0.213640	-0.686461	0.030090	0.712156	-1.000000	-1.000000	-1.000000	-1.000000	-1.000000	-1.000000	-1.000000	53.000000	0.000000	-1.000000	-1.000000	291449.000000	1775787496.337620
-17586.675000	-13203.315000	10106.010000	279546.345000	302822.775000	289906.335000	-7813.620000	-20903.895000	-0.313558	-3.964933	-5.354313	-4.772300	-9.169827	-0.155669	3.745577	4.267141	-1.617560	1.022420	0.213640	-0.686461	0.030090	0.712156	-1.000000	-1.000000	-1.000000	-1.000000	-1.000000	-1.000000	-1.000000	53.000000	0.000000	-1.000000	-1.000000	291450.000000	1775787496.337631
-17588.025000	-13203.675000	10106.370000	279545.310000	302816.745000	289902.105000	-7811.190000	-20904.390000	-2.513804	-6.812765	-8.802854	-10.260414	-9.583161	-6.978285	0.454044	-0.106950	-0.595140	0.885080	-0.427280	-0.686583	0.030701	0.713316	-1.000000	-1.000000	-1.000000	-1.000000	-1.000000	-1.000000	-1.000000	53.000000	0.000000	-1.000000	-1.000000	291451.000000	1775787496.337644
-17591.220000	-13207.995000	10101.240000	279547.470000	302814.630000	289899.675000	-7814.475000	-20907.000000	-4.628281	-7.687124	-9.534233	-10.888559	-5.787260	-10.711408	-2.614880	-4.988874	-0.595140	0.885080	-0.427280	-0.686583	0.030701	0.713316	-1.000000	-1.000000	-1.000000	-1.000000	-1.000000	-1.000000	-1.000000	53.000000	0.000000	-1.000000	-1.000000	291452.000000	1775787496.337654
-17581.905000	-13196.925000	10112.445000	279552.915000	302823.315000	289901.925000	-7815.465000	-20902.185000	-4.996620	-5.643991	-6.759114	-7.076837	-1.101861	-10.089722	-4.112369	-7.513316	-0.595140	0.885080	-0.427280	-0.686583	0.030701	0.713316	-1.000000	-1.000000	-1.000000	-1.000000	-1.000000	-1.000000	-1.000000	53.000000	0.000000	-1.000000	-1.000000	291453.000000	1775787496.340284
-17584.515000	-13199.715000	10108.980000	279552.060000	302823.765000	289902.375000	-7815.015000	-20903.985000	-2.844178	-1.153068	-1.348525	-1.112169	2.570154	-5.747649	-3.916971	-6.430708	-0.595140	0.885080	-0.427280	-0.686583	0.030701	0.713316	-1.000000	-1.000000	-1.000000	-1.000000	-1.000000	-1.000000	-1.000000	53.000000	0.000000	-1.000000	-1.000000	291454.000000	1775787496.340306
-17596.665000	-13212.675000	10096.020000	279550.305000	302825.430000	289902.690000	-7817.265000	-20913.930000	0.545703	3.536355	4.076543	4.016645	4.618144	0.168030	-2.514404	-2.910667	-0.595140	0.885080	-0.427280	-0.686583	0.030701	0.713316	-1.000000	-1.000000	-1.000000	-1.000000	-1.000000	-1.000000	-1.000000	53.000000	0.000000	-1.000000	-1.000000	291455.000000	1775787496.355553
-17592.930000	-13207.275000	10101.780000	279544.725000	302818.905000	289900.035000	-7815.780000	-20911.815000	2.730321	5.653323	6.576843	6.035558	4.619677	4.992184	-0.628236	0.549711	-0.595140	0.885080	-0.427280	-0.686583	0.030701	0.713316	-1.000000	-1.000000	-1.000000	-1.000000	-1.000000	-1.000000	-1.000000	53.000000	0.000000	-1.000000	-1.000000	291456.000000	1775787496.355580
-17589.420000	-13204.800000	10103.580000	279533.610000	302807.070000	289890.855000	-7814.070000	-20909.475000	2.967461	4.817961	5.794964	4.439448	2.387300	6.756502	1.109340	2.596144	-0.595140	0.885080	-0.427280	-0.686583	0.030701	0.713316	-1.000000	-1.000000	-1.000000	-1.000000	-1.000000	-1.000000	-1.000000	53.000000	0.000000	-1.000000	-1.000000	291457.000000	1775787496.355606
-17589.555000	-13205.070000	10101.330000	279507.690000	302740.380000	289864.125000	-7817.400000	-20911.005000	2.487167	2.918890	3.667259	0.147415	-2.489773	4.653604	2.272211	3.530986	-0.595140	0.885080	-0.427280	-0.686583	0.030701	0.713316	-1.000000	-1.000000	-1.000000	-1.000000	-1.000000	-1.000000	-1.000000	53.000000	0.000000	-1.000000	-1.000000	291458.000000	1775787496.355618
-17586.990000	-13202.955000	10101.510000	279485.370000	302745.870000	289840.500000	-7816.815000	-20908.890000	2.212201	1.416455	1.669757	-5.287998	-9.635625	-0.837044	2.497133	3.787140	-0.595140	0.885080	-0.427280	-0.686583	0.030701	0.713316	-1.000000	-1.000000	-1.000000	-1.000000	-1.000000	-1.000000	-1.000000	53.000000	0.000000	-1.000000	-1.000000	291459.000000	1775787496.355632
-17592.570000	-13207.005000	10100.970000	279534.645000	302876.055000	289878.300000	-7817.715000	-20914.020000	1.916604	0.446807	0.159623	-8.433147	-12.085171	-6.318120	1.778823	3.309539	-0.595140	0.885080	-0.427280	-0.686583	0.030701	0.713316	-1.000000	-1.000000	-1.000000	-1.000000	-1.000000	-1.000000	-1.000000	53.000000	0.000000	-1.000000	-1.000000	291460.000000	1775787496.355643
-17590.995000	-13205.025000	10104.210000	279548.505000	302844.375000	289891.485000	-7816.140000	-20913.030000	1.028719	-0.398498	-0.791040	-4.353362	-0.710959	-5.906418	0.656632	1.994701	-2.868880	1.129240	0.106820	-0.684935	0.032104	0.712156	-1.000000	-1.000000	-1.000000	-1.000000	-1.000000	-1.000000	-1.000000	53.000000	0.000000	-1.000000	-1.000000	291461.000000	1775787496.367429
-17588.790000	-13200.930000	10108.665000	279549.360000	302826.195000	289893.690000	-7813.890000	-20911.230000	-0.346120	-1.145805	-1.032205	6.672989	18.246313	2.042944	-0.181726	0.255127	-2.868880	1.129240	0.106820	-0.684935	0.032104	0.712156	-1.000000	-1.000000	-1.000000	-1.000000	-1.000000	-1.000000	-1.000000	53.000000	0.000000	-1.000000	-1.000000	291462.000000	1775787496.367451
-17594.235000	-13207.365000	10101.465000	279550.080000	302824.980000	289896.435000	-7813.755000	-20915.595000	-1.490294	-1.478525	-0.732640	16.547663	26.580785	11.410580	-0.390611	-1.132543	-2.868880	1.129240	0.106820	-0.684935	0.032104	0.712156	-1.000000	-1.000000	-1.000000	-1.000000	-1.000000	-1.000000	-1.000000	53.000000	0.000000	-1.000000	-1.000000	291463.000000	1775787496.367673
-17596.980000	-13211.595000	10096.290000	279546.570000	302820.975000	289896.480000	-7814.430000	-20918.430000	-2.111976	-1.611314	-0.750375	17.433913	16.812945	14.738006	-0.205707	-1.887239	-2.868880	1.129240	0.106820	-0.684935	0.032104	0.712156	-1.000000	-1.000000	-1.000000	-1.000000	-1.000000	-1.000000	-1.000000	53.000000	0.000000	-1.000000	-1.000000	291464.000000	1775787496.367686
-17598.690000	-13213.575000	10093.860000	279543.645000	302827.860000	289895.220000	-7821.225000	-20921.400000	-2.343106	-1.964768	-1.675343	8.657725	-2.469535	9.844848	-0.250746	-2.218185	-2.868880	1.129240	0.106820	-0.684935	0.032104	0.712156	-1.000000	-1.000000	-1.000000	-1.000000	-1.000000	-1.000000	-1.000000	53.000000	0.000000	-1.000000	-1.000000	291465.000000	1775787496.367712
-17592.570000	-13208.445000	10099.755000	279540.630000	302823.270000	289891.170000	-7819.605000	-20915.685000	-1.960015	-2.122309	-2.684144	-4.326590	-18.327077	-0.051185	-0.890381	-2.046596	-2.868880	1.129240	0.106820	-0.684935	0.032104	0.712156	-1.000000	-1.000000	-1.000000	-1.000000	-1.000000	-1.000000	-1.000000	53.000000	0.000000	-1.000000	-1.000000	291466.000000	1775787496.367722
-17595.900000	-13214.745000	10093.680000	279540.315000	302827.095000	289887.435000	-7818.030000	-20917.395000	-0.645874	-1.343793	-2.436385	-14.603426	-23.353797	-9.689627	-1.603404	-1.026169	-2.868880	1.129240	0.106820	-0.684935	0.032104	0.712156	-1.000000	-1.000000	-1.000000	-1.000000	-1.000000	-1.000000	-1.000000	53.000000	0.000000	-1.000000	-1.000000	291467.000000	1775787496.373452
-17600.490000	-13218.525000	10090.395000	279541.890000	302828.715000	289885.005000	-7824.195000	-20925.315000	1.010750	0.070712	-0.931387	-17.807834	-17.854731	-14.931305	-1.590619	0.442905	-2.868880	1.129240	0.106820	-0.684935	0.032104	0.712156	-1.000000	-1.000000	-1.000000	-1.000000	-1.000000	-1.000000	-1.000000	53.000000	0.000000	-1.000000	-1.000000	291468.000000	1775787496.373475
-17592.480000	-13204.170000	10105.875000	279543.645000	302818.095000	289883.520000	-7831.530000	-20925.270000	1.975580	1.373152	0.945244	-13.676767	-7.018362	-14.281068	-1.028692	1.207678	-2.868880	1.129240	0.106820	-0.684935	0.032104	0.712156	-1.000000	-1.000000	-1.000000	-1.000000	-1.000000	-1.000000	-1.000000	53.000000	0.000000	-1.000000	-1.000000	291469.000000	1775787496.373498
-17583.120000	-13191.480000	10118.205000	279547.110000	302819.400000	289885.770000	-7832.340000	-20920.725000	2.319783	2.874014	3.133090	-5.219890	2.959921	-8.830892	-0.643637	0.983775	-2.868880	1.129240	0.106820	-0.684935	0.032104	0.712156	-1.000000	-1.000000	-1.000000	-1.000000	-1.000000	-1.000000	-1.000000	53.000000	0.000000	-1.000000	-1.000000	291470.000000	1775787496.373514
-17583.480000	-13191.435000	10117.620000	279548.640000	302817.645000	289888.470000	-7824.555000	-20919.375000	2.707555	4.786945	5.455229	3.406180	8.469264	-1.197948	-0.252607	0.717100	-3.204600	1.541260	0.824040	-0.684080	0.030517	0.710692	-1.000000	-1.000000	-1.000000	-1.000000	-1.000000	-1.000000	-1.000000	53.000000	0.000000	-1.000000	-1.000000	291471.000000	1775787496.374784
-17586.630000	-13193.730000	10114.065000	279532.980000	302773.410000	289875.690000	-7824.150000	-20918.655000	2.688021	5.537689	6.113421	8.617571	8.695103	5.449804	0.973215	1.018811	-3.204600	1.541260	0.824040	-0.684080	0.030517	0.710692	-1.000000	-1.000000	-1.000000	-1.000000	-1.000000	-1.000000	-1.000000	53.000000	0.000000	-1.000000	-1.000000	291472.000000	1775787496.374801
-17580.330000	-13186.980000	10120.905000	279507.780000	302761.260000	289853.730000	-7811.415000	-20909.070000	1.362699	3.505310	3.589688	8.174820	3.916877	8.058001	3.055355	1.609610	-3.204600	1.541260	0.824040	-0.684080	0.030517	0.710692	-1.000000	-1.000000	-1.000000	-1.000000	-1.000000	-1.000000	-1.000000	53.000000	0.000000	-1.000000	-1.000000	291473.000000	1775787496.386564
-17574.525000	-13181.625000	10129.590000	279530.460000	302829.300000	289870.425000	-7813.350000	-20906.415000	-0.771468	-0.488103	-0.855245	3.081729	-1.631564	5.928594	4.936160	2.100821	-3.204600	1.541260	0.824040	-0.684080	0.030517	0.710692	-1.000000	-1.000000	-1.000000	-1.000000	-1.000000	-1.000000	-1.000000	53.000000	0.000000	-1.000000	-1.000000	291474.000000	1775787496.386590
-17580.870000	-13196.655000	10108.980000	279502.155000	302751.765000	289845.000000	-7804.170000	-20906.955000	-2.437491	-4.347926	-4.775069	-2.113154	-1.759289	1.919061	5.282229	2.046986	-3.204600	1.541260	0.824040	-0.684080	0.030517	0.710692	-1.000000	-1.000000	-1.000000	-1.000000	-1.000000	-1.000000	-1.000000	53.000000	0.000000	-1.000000	-1.000000	291475.000000	1775787496.386614
-17604.945000	-13220.955000	10087.065000	279529.020000	302859.450000	289864.845000	-7814.295000	-20926.440000	-3.739437	-7.487686	-7.751586	-3.614460	3.709229	-0.658986	3.346664	0.536067	-3.204600	1.541260	0.824040	-0.684080	0.030517	0.710692	-1.000000	-1.000000	-1.000000	-1.000000	-1.000000	-1.000000	-1.000000	53.000000	0.000000	-1.000000	-1.000000	291476.000000	1775787496.386634
-17605.305000	-13223.385000	10083.690000	279540.495000	302840.370000	289873.620000	-7812.090000	-20924.820000	-5.595528	-10.095481	-10.230789	-0.561757	11.369790	-0.133010	-0.552995	-2.842955	-3.204600	1.541260	0.824040	-0.684080	0.030517	0.710692	-1.000000	-1.000000	-1.000000	-1.000000	-1.000000	-1.000000	-1.000000	53.000000	0.000000	-1.000000	-1.000000	291477.000000	1775787496.387965
-17606.790000	-13226.490000	10079.055000	279535.635000	302804.640000	289867.140000	-7807.905000	-20925.900000	-6.996336	-10.584268	-10.613802	5.252708	16.179880	3.082542	-4.756477	-6.344353	-3.204600	1.541260	0.824040	-0.684080	0.030517	0.710692	-1.000000	-1.000000	-1.000000	-1.000000	-1.000000	-1.000000	-1.000000	53.000000	0.000000	-1.000000	-1.000000	291478.000000	1775787496.387985
-17598.915000	-13217.445000	10088.370000	279532.530000	302809.005000	289863.360000	-7812.630000	-20924.325000	-5.437143	-6.680725	-6.623313	9.294935	11.231285	5.808484	-7.037967	-7.109448	-3.204600	1.541260	0.824040	-0.684080	0.030517	0.710692	-1.000000	-1.000000	-1.000000	-1.000000	-1.000000	-1.000000	-1.000000	53.000000	0.000000	-1.000000	-1.000000	291479.000000	1775787496.395447
-17605.530000	-13222.485000	10085.580000	279540.405000	302835.555000	289871.595000	-7812.540000	-20929.905000	-0.360284	1.265543	1.432771	8.043804	-2.250101	5.142216	-6.556360	-4.269546	-3.204600	1.541260	0.824040	-0.684080	0.030517	0.710692	-1.000000	-1.000000	-1.000000	-1.000000	-1.000000	-1.000000	-1.000000	53.000000	0.000000	-1.000000	-1.000000	291480.000000	1775787496.395470
-17613.315000	-13230.405000	10075.455000	279540.810000	302839.380000	289874.070000	-7816.455000	-20936.430000	5.463963	9.421111	9.811225	2.567004	-13.863786	1.719155	-4.190165	0.214909	-2.884140	1.541260	1.358140	-0.685179	0.028809	0.710386	-1.000000	-1.000000	-1.000000	-1.000000	-1.000000	-1.000000	-1.000000	53.000000	0.000000	-1.000000	-1.000000	291481.000000	1775787496.398918
-17597.880000	-13209.840000	10098.540000	279538.200000	302829.930000	289872.855000	-7819.065000	-20926.080000	8.742755	13.702884	14.310843	-3.589468	-16.665356	-1.981478	-1.317488	3.859646	-2.884140	1.541260	1.358140	-0.685179	0.028809	0.710386	-1.000000	-1.000000	-1.000000	-1.000000	-1.000000	-1.000000	-1.000000	53.000000	0.000000	-1.000000	-1.000000	291482.000000	1775787496.398937
-17593.560000	-13207.590000	10101.240000	279529.470000	302805.585000	289862.685000	-7818.615000	-20925.405000	8.959891	13.406793	14.076322	-7.925556	-12.928975	-4.632542	1.066865	5.864365	-2.884140	1.541260	1.358140	-0.685179	0.028809	0.710386	-1.000000	-1.000000	-1.000000	-1.000000	-1.000000	-1.000000	-1.000000	53.000000	0.000000	-1.000000	-1.000000	291483.000000	1775787496.398958
-17602.650000	-13219.740000	10085.130000	279496.980000	302751.360000	289829.790000	-7823.745000	-20936.565000	7.136899	9.741955	10.232990	-10.215073	-9.272788	-6.805807	2.587768	6.201321	-2.884140	1.541260	1.358140	-0.685179	0.028809	0.710386	-1.000000	-1.000000	-1.000000	-1.000000	-1.000000	-1.000000	-1.000000	53.000000	0.000000	-1.000000	-1.000000	291484.000000	1775787496.398968
-17605.665000	-13221.180000	10084.680000	279528.480000	302866.650000	289851.525000	-7827.795000	-20938.455000	3.432971	3.352454	3.313834	-10.634151	-7.223605	-8.799227	3.110751	4.371741	-2.884140	1.541260	1.358140	-0.685179	0.028809	0.710386	-1.000000	-1.000000	-1.000000	-1.000000	-1.000000	-1.000000	-1.000000	53.000000	0.000000	-1.000000	-1.000000	291485.000000	1775787496.403272
-17599.860000	-13210.245000	10097.595000	279537.345000	302838.435000	289858.410000	-7824.555000	-20932.515000	-1.527563	-3.987322	-4.673787	-7.235420	-0.606637	-8.097377	2.753372	0.925575	-2.884140	1.541260	1.358140	-0.685179	0.028809	0.710386	-1.000000	-1.000000	-1.000000	-1.000000	-1.000000	-1.000000	-1.000000	53.000000	0.000000	-1.000000	-1.000000	291486.000000	1775787496.403291
-17604.450000	-13216.455000	10089.900000	279539.730000	302835.060000	289861.605000	-7813.665000	-20930.400000	-5.592825	-8.933511	-9.861704	0.888968	11.386660	-2.441687	2.365428	-1.937222	-2.884140	1.541260	1.358140	-0.685179	0.028809	0.710386	-1.000000	-1.000000	-1.000000	-1.000000	-1.000000	-1.000000	-1.000000	53.000000	0.000000	-1.000000	-1.000000	291487.000000	1775787496.407324
-17603.820000	-13220.325000	10085.850000	279538.740000	302827.005000	289862.730000	-7811.910000	-20924.640000	-7.068669	-9.849389	-10.507191	9.649016	19.114568	5.694383	2.815222	-2.555414	-2.884140	1.541260	1.358140	-0.685179	0.028809	0.710386	-1.000000	-1.000000	-1.000000	-1.000000	-1.000000	-1.000000	-1.000000	53.000000	0.000000	-1.000000	-1.000000	291488.000000	1775787496.407349
-17590.815000	-13210.155000	10095.480000	279536.760000	302826.150000	289862.235000	-7813.215000	-20913.930000	-5.735099	-7.639002	-7.861467	13.463553	15.918412	11.246230	3.545040	-1.069586	-2.884140	1.541260	1.358140	-0.685179	0.028809	0.710386	-1.000000	-1.000000	-1.000000	-1.000000	-1.000000	-1.000000	-1.000000	53.000000	0.000000	-1.000000	-1.000000	291489.000000	1775787496.411789
-17589.240000	-13205.430000	10100.655000	279530.370000	302825.610000	289856.520000	-7809.120000	-20913.480000	-2.200779	-3.560623	-3.460674	10.358250	4.900517	11.135154	3.083048	1.194185	-2.884140	1.541260	1.358140	-0.685179	0.028809	0.710386	-1.000000	-1.000000	-1.000000	-1.000000	-1.000000	-1.000000	-1.000000	53.000000	0.000000	-1.000000	-1.000000	291490.000000	1775787496.411815
-17591.670000	-13205.745000	10102.455000	279529.785000	302829.930000	289854.495000	-7806.015000	-20916.315000	1.796616	1.071499	1.382989	2.672089	-6.335226	5.869052	1.047272	2.370770	0.183120	1.663340	1.144500	-0.687437	0.026611	0.711607	-1.000000	-1.000000	-1.000000	-1.000000	-1.000000	-1.000000	-1.000000	53.000000	0.000000	-1.000000	-1.000000	291491.000000	1775787496.417386
-17591.805000	-13206.195000	10101.420000	279528.120000	302827.860000	289849.680000	-7808.040000	-20917.575000	3.858737	4.303628	4.819392	-5.103564	-11.977674	-1.398457	-1.589606	1.151371	0.183120	1.663340	1.144500	-0.687437	0.026611	0.711607	-1.000000	-1.000000	-1.000000	-1.000000	-1.000000	-1.000000	-1.000000	53.000000	0.000000	-1.000000	-1.000000	291492.000000	1775787496.417431
-17594.145000	-13210.290000	10095.975000	279531.495000	302832.495000	289847.880000	-7808.850000	-20919.960000	2.989110	4.686977	5.300661	-9.166940	-10.898043	-7.046313	-3.797631	-1.941316	0.183120	1.663340	1.144500	-0.687437	0.026611	0.711607	-1.000000	-1.000000	-1.000000	-1.000000	-1.000000	-1.000000	-1.000000	53.000000	0.000000	-1.000000	-1.000000	291493.000000	1775787496.419845
-17601.165000	-13217.445000	10089.090000	279536.130000	302827.320000	289849.005000	-7812.180000	-20926.440000	0.149406	2.340192	2.732436	-8.228457	-5.659823	-8.858590	-5.038660	-5.045574	0.183120	1.663340	1.144500	-0.687437	0.026611	0.711607	-1.000000	-1.000000	-1.000000	-1.000000	-1.000000	-1.000000	-1.000000	53.000000	0.000000	-1.000000	-1.000000	291494.000000	1775787496.419864
-17593.920000	-13208.490000	10097.370000	279538.785000	302820.705000	289850.985000	-7814.790000	-20923.110000	-2.755522	-1.055371	-1.148460	-3.628507	-0.104744	-6.643616	-5.108413	-6.428873	0.183120	1.663340	1.144500	-0.687437	0.026611	0.711607	-1.000000	-1.000000	-1.000000	-1.000000	-1.000000	-1.000000	-1.000000	53.000000	0.000000	-1.000000	-1.000000	291495.000000	1775787496.425809
-17595.405000	-13210.020000	10095.030000	279538.335000	302823.405000	289850.805000	-7824.555000	-20925.180000	-3.834894	-3.084432	-3.636949	1.703105	3.045353	-1.990646	-4.183522	-5.234027	0.183120	1.663340	1.144500	-0.687437	0.026611	0.711607	-1.000000	-1.000000	-1.000000	-1.000000	-1.000000	-1.000000	-1.000000	53.000000	0.000000	-1.000000	-1.000000	291496.000000	1775787496.425832
-17599.770000	-13215.960000	10089.675000	279537.075000	302831.055000	289850.715000	-7824.105000	-20927.430000	-2.586742	-2.689581	-3.437091	4.936576	3.773649	2.614555	-2.693685	-1.945695	0.183120	1.663340	1.144500	-0.687437	0.026611	0.711607	-1.000000	-1.000000	-1.000000	-1.000000	-1.000000	-1.000000	-1.000000	53.000000	0.000000	-1.000000	-1.000000	291497.000000	1775787496.427156
-17602.695000	-13220.370000	10086.120000	279534.150000	302835.645000	289848.330000	-7819.920000	-20929.590000	-0.370036	-1.093420	-1.658745	4.861477	3.769645	5.123494	-0.678520	1.744685	0.183120	1.663340	1.144500	-0.687437	0.026611	0.711607	-1.000000	-1.000000	-1.000000	-1.000000	-1.000000	-1.000000	-1.000000	53.000000	0.000000	-1.000000	-1.000000	291498.000000	1775787496.427172
-17599.365000	-13216.185000	10090.575000	279530.505000	302832.585000	289842.705000	-7817.130000	-20928.690000	1.324642	0.209120	0.149160	2.197665	3.859571	4.793674	2.087969	4.236359	0.183120	1.663340	1.144500	-0.687437	0.026611	0.711607	-1.000000	-1.000000	-1.000000	-1.000000	-1.000000	-1.000000	-1.000000	53.000000	0.000000	-1.000000	-1.000000	291499.000000	1775787496.433543
-17599.140000	-13214.430000	10093.095000	279527.760000	302833.665000	289837.935000	-7810.425000	-20928.465000	2.215155	1.106373	1.618194	-1.229299	3.326371	2.215143	5.117986	5.010818	0.183120	1.663340	1.144500	-0.687437	0.026611	0.711607	-1.000000	-1.000000	-1.000000	-1.000000	-1.000000	-1.000000	-1.000000	53.000000	0.000000	-1.000000	-1.000000	291500.000000	1775787496.433567
-17607.870000	-13226.445000	10079.460000	279528.705000	302843.970000	289835.010000	-7809.075000	-20933.955000	2.427488	1.789496	2.606786	-3.546018	1.731408	-1.073322	7.147279	4.303658	3.128300	2.090620	-0.839300	-0.687254	0.025818	0.712156	-1.000000	-1.000000	-1.000000	-1.000000	-1.000000	-1.000000	-1.000000	53.000000	0.000000	-1.000000	-1.000000	291501.000000	1775787496.445032
-17610.345000	-13227.615000	10078.785000	279531.180000	302835.510000	289833.525000	-7817.715000	-20938.005000	1.696526	1.660214	2.318267	-3.618990	-0.226117	-3.302770	6.798771	2.448222	3.128300	2.090620	-0.839300	-0.687254	0.025818	0.712156	-1.000000	-1.000000	-1.000000	-1.000000	-1.000000	-1.000000	-1.000000	53.000000	0.000000	-1.000000	-1.000000	291502.000000	1775787496.445055
-17604.990000	-13219.425000	10088.415000	279534.015000	302838.795000	289834.515000	-7815.420000	-20933.685000	0.293349	0.711161	0.891552	-1.532912	-1.975082	-3.401201	3.539481	0.125231	3.128300	2.090620	-0.839300	-0.687254	0.025818	0.712156	-1.000000	-1.000000	-1.000000	-1.000000	-1.000000	-1.000000	-1.000000	53.000000	0.000000	-1.000000	-1.000000	291503.000000	1775787496.445148
-17612.190000	-13227.390000	10081.035000	279533.835000	302839.830000	289834.155000	-7819.605000	-20939.985000	-0.690702	0.083252	-0.129928	1.434102	-3.262889	-1.523730	-1.303782	-1.550660	3.128300	2.090620	-0.839300	-0.687254	0.025818	0.712156	-1.000000	-1.000000	-1.000000	-1.000000	-1.000000	-1.000000	-1.000000	53.000000	0.000000	-1.000000	-1.000000	291504.000000	1775787496.445162
-17615.070000	-13232.295000	10075.140000	279534.870000	302844.060000	289835.820000	-7820.505000	-20942.190000	-0.840823	0.088217	-0.228517	3.567571	-3.515851	1.157701	-5.303371	-2.081631	3.128300	2.090620	-0.839300	-0.687254	0.025818	0.712156	-1.000000	-1.000000	-1.000000	-1.000000	-1.000000	-1.000000	-1.000000	53.000000	0.000000	-1.000000	-1.000000	291505.000000	1775787496.445180
-17610.840000	-13227.345000	10079.820000	279531.765000	302840.370000	289836.000000	-7823.565000	-20940.165000	-0.557430	0.059859	-0.229105	3.771458	-2.525216	3.239539	-6.805583	-1.767764	3.128300	2.090620	-0.839300	-0.687254	0.025818	0.712156	-1.000000	-1.000000	-1.000000	-1.000000	-1.000000	-1.000000	-1.000000	53.000000	0.000000	-1.000000	-1.000000	291506.000000	1775787496.445190
-17601.120000	-13217.670000	10087.695000	279510.570000	302787.675000	289816.290000	-7821.450000	-20934.900000	0.239243	0.195694	-0.154134	1.732434	-1.946211	3.479891	-5.600462	-0.768340	3.128300	2.090620	-0.839300	-0.687254	0.025818	0.712156	-1.000000	-1.000000	-1.000000	-1.000000	-1.000000	-1.000000	-1.000000	53.000000	0.000000	-1.000000	-1.000000	291507.000000	1775787496.462545
-17596.305000	-13211.595000	10092.420000	279490.140000	302787.630000	289795.590000	-7820.595000	-20933.640000	1.843021	1.261324	0.717404	-2.428649	-4.123586	0.871203	-2.510049	0.824288	3.128300	2.090620	-0.839300	-0.687254	0.025818	0.712156	-1.000000	-1.000000	-1.000000	-1.000000	-1.000000	-1.000000	-1.000000	53.000000	0.000000	-1.000000	-1.000000	291508.000000	1775787496.462568
-17599.770000	-13216.545000	10090.035000	279521.910000	302875.380000	289819.170000	-7814.880000	-20932.650000	3.426487	2.730502	2.056685	-6.578541	-5.823017	-3.413434	1.185937	2.308253	3.128300	2.090620	-0.839300	-0.687254	0.025818	0.712156	-1.000000	-1.000000	-1.000000	-1.000000	-1.000000	-1.000000	-1.000000	53.000000	0.000000	-1.000000	-1.000000	291509.000000	1775787496.462591
-17606.610000	-13224.915000	10080.360000	279527.265000	302848.380000	289822.680000	-7816.815000	-20936.835000	3.213086	2.690784	2.253996	-6.259668	0.016280	-5.156277	4.142207	2.623064	3.128300	2.090620	-0.839300	-0.687254	0.025818	0.712156	-1.000000	-1.000000	-1.000000	-1.000000	-1.000000	-1.000000	-1.000000	53.000000	0.000000	-1.000000	-1.000000	291510.000000	1775787496.462601
-17610.930000	-13229.145000	10076.445000	279531.090000	302843.205000	289824.165000	-7816.905000	-20939.940000	0.375343	0.014729	0.165746	-0.009834	11.132168	-1.848581	5.209020	1.238376	0.488320	2.105880	0.015260	-0.683897	0.029358	0.711607	-1.000000	-1.000000	-1.000000	-1.000000	-1.000000	-1.000000	-1.000000	53.000000	0.000000	-1.000000	-1.000000	291511.000000	1775787496.462614
-17611.200000	-13226.805000	10080.180000	279532.980000	302844.555000	289825.425000	-7819.020000	-20941.470000	-3.673057	-3.889455	-3.148126	7.677996	16.735499	3.820055	3.974439	-1.249990	0.488320	2.105880	0.015260	-0.683897	0.029358	0.711607	-1.000000	-1.000000	-1.000000	-1.000000	-1.000000	-1.000000	-1.000000	53.000000	0.000000	-1.000000	-1.000000	291512.000000	1775787496.462623
-17601.300000	-13214.475000	10093.680000	279534.375000	302838.660000	289827.360000	-7819.380000	-20936.430000	-6.112382	-5.942013	-4.854292	11.185287	11.798313	7.390164	1.187330	-3.285812	0.488320	2.105880	0.015260	-0.683897	0.029358	0.711607	-1.000000	-1.000000	-1.000000	-1.000000	-1.000000	-1.000000	-1.000000	53.000000	0.000000	-1.000000	-1.000000	291513.000000	1775787496.462634
-17605.575000	-13218.345000	10091.295000	279531.495000	302840.505000	289825.335000	-7816.320000	-20938.230000	-5.083506	-4.265780	-3.120737	8.560991	0.525744	6.743393	-1.611004	-3.480068	0.488320	2.105880	0.015260	-0.683897	0.029358	0.711607	-1.000000	-1.000000	-1.000000	-1.000000	-1.000000	-1.000000	-1.000000	53.000000	0.000000	-1.000000	-1.000000	291514.000000	1775787496.462643
-17605.530000	-13217.985000	10090.710000	279526.095000	302835.105000	289820.565000	-7825.905000	-20941.830000	-1.512552	-0.223720	0.671281	1.668839	-9.912586	2.586049	-3.198725	-1.942484	0.488320	2.105880	0.015260	-0.683897	0.029358	0.711607	-1.000000	-1.000000	-1.000000	-1.000000	-1.000000	-1.000000	-1.000000	53.000000	0.000000	-1.000000	-1.000000	291515.000000	1775787496.466404
-17596.620000	-13205.700000	10102.545000	279521.325000	302823.765000	289814.940000	-7829.595000	-20938.590000	2.140823	3.326215	3.628620	-5.880350	-14.816226	-2.870858	-3.576339	0.009437	0.488320	2.105880	0.015260	-0.683897	0.029358	0.711607	-1.000000	-1.000000	-1.000000	-1.000000	-1.000000	-1.000000	-1.000000	53.000000	0.000000	-1.000000	-1.000000	291516.000000	1775787496.466422
-17596.440000	-13206.195000	10103.355000	279523.080000	302836.950000	289814.355000	-7826.715000	-20935.485000	4.362946	4.948639	4.453216	-10.654786	-13.410102	-7.138506	-3.184359	1.462587	0.488320	2.105880	0.015260	-0.683897	0.029358	0.711607	-1.000000	-1.000000	-1.000000	-1.000000	-1.000000	-1.000000	-1.000000	53.000000	0.000000	-1.000000	-1.000000	291517.000000	1775787496.470618
-17594.865000	-13208.670000	10098.630000	279522.630000	302831.550000	289809.540000	-7827.525000	-20931.930000	4.734995	4.437432	3.287079	-10.724372	-7.186420	-8.422713	-1.892200	2.359754	0.488320	2.105880	0.015260	-0.683897	0.029358	0.711607	-1.000000	-1.000000	-1.000000	-1.000000	-1.000000	-1.000000	-1.000000	53.000000	0.000000	-1.000000	-1.000000	291518.000000	1775787496.470635
-17594.145000	-13209.165000	10096.335000	279527.805000	302836.455000	289810.845000	-7821.360000	-20930.400000	3.299784	1.923857	0.466168	-6.438454	0.949124	-6.429452	0.363604	2.730404	0.488320	2.105880	0.015260	-0.683897	0.029358	0.711607	-1.000000	-1.000000	-1.000000	-1.000000	-1.000000	-1.000000	-1.000000	53.000000	0.000000	-1.000000	-1.000000	291519.000000	1775787496.488611
-17603.190000	-13221.225000	10082.880000	279530.145000	302838.525000	289810.890000	-7815.555000	-20935.440000	0.568831	-1.769493	-3.226042	-0.048855	7.520438	-2.276162	3.007195	2.262913	0.488320	2.105880	0.015260	-0.683897	0.029358	0.711607	-1.000000	-1.000000	-1.000000	-1.000000	-1.000000	-1.000000	-1.000000	53.000000	0.000000	-1.000000	-1.000000	291520.000000	1775787496.488634
-17606.520000	-13225.725000	10077.345000	279505.170000	302765.130000	289787.760000	-7816.140000	-20938.410000	-2.663185	-5.315748	-6.487607	5.086702	9.033068	1.847656	4.997152	0.629406	-0.015260	2.609460	0.228900	-0.681395	0.033996	0.710692	-1.000000	-1.000000	-1.000000	-1.000000	-1.000000	-1.000000	-1.000000	53.000000	0.000000	-1.000000	-1.000000	291521.000000	1775787496.488658
-17601.795000	-13221.405000	10082.205000	279504.045000	302825.655000	289787.445000	-7815.240000	-20935.305000	-5.108756	-7.109178	-7.672136	5.989922	4.204720	3.565723	5.158057	-1.671890	-0.015260	2.609460	0.228900	-0.681395	0.033996	0.710692	-1.000000	-1.000000	-1.000000	-1.000000	-1.000000	-1.000000	-1.000000	53.000000	0.000000	-1.000000	-1.000000	291522.000000	1775787496.488667
-17613.630000	-13233.825000	10072.170000	279522.360000	302873.355000	289805.355000	-7816.455000	-20943.180000	-5.430641	-5.948812	-5.582416	3.306323	-0.561460	3.054562	3.065517	-3.375622	-0.015260	2.609460	0.228900	-0.681395	0.033996	0.710692	-1.000000	-1.000000	-1.000000	-1.000000	-1.000000	-1.000000	-1.000000	53.000000	0.000000	-1.000000	-1.000000	291523.000000	1775787496.488679
-17614.575000	-13233.105000	10074.510000	279520.695000	302849.100000	289803.960000	-7823.205000	-20946.555000	-3.719898	-2.460645	-1.000884	1.091861	2.291117	3.060177	-0.503466	-3.781782	-0.015260	2.609460	0.228900	-0.681395	0.033996	0.710692	-1.000000	-1.000000	-1.000000	-1.000000	-1.000000	-1.000000	-1.000000	53.000000	0.000000	-1.000000	-1.000000	291524.000000	1775787496.488688
-17609.445000	-13224.825000	10084.140000	279515.790000	302826.285000	289797.210000	-7825.320000	-20946.510000	-1.017293	1.720370	4.042306	1.387391	8.445710	4.415692	-4.139316	-3.033471	-0.015260	2.609460	0.228900	-0.681395	0.033996	0.710692	-1.000000	-1.000000	-1.000000	-1.000000	-1.000000	-1.000000	-1.000000	53.000000	0.000000	-1.000000	-1.000000	291525.000000	1775787496.488698
-17615.295000	-13231.890000	10073.700000	279485.325000	302761.530000	289764.495000	-7830.630000	-20956.680000	1.926743	5.397519	7.806946	1.831809	6.799536	4.336465	-6.397764	-1.519632	-0.015260	2.609460	0.228900	-0.681395	0.033996	0.710692	-1.000000	-1.000000	-1.000000	-1.000000	-1.000000	-1.000000	-1.000000	53.000000	0.000000	-1.000000	-1.000000	291526.000000	1775787496.488707
-17618.535000	-13236.210000	10067.220000	279487.800000	302802.120000	289759.140000	-7834.365000	-20962.890000	4.140416	7.232111	8.602263	-0.395074	-4.985679	0.314815	-6.401588	0.016011	-0.015260	2.609460	0.228900	-0.681395	0.033996	0.710692	-1.000000	-1.000000	-1.000000	-1.000000	-1.000000	-1.000000	-1.000000	53.000000	0.000000	-1.000000	-1.000000	291527.000000	1775787496.489995
-17618.490000	-13234.770000	10071.270000	279502.605000	302853.330000	289771.650000	-7830.135000	-20961.000000	4.624422	6.225547	5.804037	-3.843662	-15.446698	-5.429791	-4.162318	1.012344	-0.015260	2.609460	0.228900	-0.681395	0.033996	0.710692	-1.000000	-1.000000	-1.000000	-1.000000	-1.000000	-1.000000	-1.000000	53.000000	0.000000	-1.000000	-1.000000	291528.000000	1775787496.490019
-17612.595000	-13226.760000	10079.280000	279499.860000	302790.285000	289767.195000	-7824.150000	-20953.215000	3.621834	3.335335	1.462607	-4.295979	-13.319348	-7.561038	-0.253258	1.988580	-0.015260	2.609460	0.228900	-0.681395	0.033996	0.710692	-1.000000	-1.000000	-1.000000	-1.000000	-1.000000	-1.000000	-1.000000	53.000000	0.000000	-1.000000	-1.000000	291529.000000	1775787496.494766
-17599.365000	-13215.915000	10080.630000	279387.270000	302537.385000	289665.270000	-7817.580000	-20936.790000	2.538595	0.864205	-1.468343	-2.716570	-7.304546	-5.845193	4.248246	3.899871	-0.015260	2.609460	0.228900	-0.681395	0.033996	0.710692	-1.000000	-1.000000	-1.000000	-1.000000	-1.000000	-1.000000	-1.000000	53.000000	0.000000	-1.000000	-1.000000	291530.000000	1775787496.494792
-17614.350000	-13233.375000	10070.280000	279476.730000	302941.980000	289743.930000	-7820.460000	-20944.440000	2.097831	-0.203582	-2.277133	-3.788712	-8.328155	-4.739406	7.558856	6.366433	-1.388660	2.960440	0.320460	-0.688658	0.036011	0.711363	-1.000000	-1.000000	-1.000000	-1.000000	-1.000000	-1.000000	-1.000000	53.000000	0.000000	-1.000000	-1.000000	291531.000000	1775787496.495888
-17612.685000	-13235.940000	10069.245000	279517.005000	302915.250000	289783.575000	-7823.655000	-20944.980000	1.172272	-1.299246	-2.501072	-3.443010	0.367159	-1.779024	7.795621	7.066012	-1.388660	2.960440	0.320460	-0.688658	0.036011	0.711363	-1.000000	-1.000000	-1.000000	-1.000000	-1.000000	-1.000000	-1.000000	53.000000	0.000000	-1.000000	-1.000000	291532.000000	1775787496.495904
-17613.540000	-13232.790000	10073.025000	279513.945000	302859.270000	289781.820000	-7826.400000	-20947.995000	-1.138027	-3.446219	-3.082861	5.663797	28.597410	8.499248	4.464528	4.143068	-1.388660	2.960440	0.320460	-0.688658	0.036011	0.711363	-1.000000	-1.000000	-1.000000	-1.000000	-1.000000	-1.000000	-1.000000	53.000000	0.000000	-1.000000	-1.000000	291533.000000	1775787496.499448
-17600.625000	-13215.420000	10091.925000	279512.235000	302840.280000	289777.320000	-7820.730000	-20937.420000	-3.467276	-4.876642	-2.896554	18.134582	48.136499	20.491005	-0.639174	-1.154470	-1.388660	2.960440	0.320460	-0.688658	0.036011	0.711363	-1.000000	-1.000000	-1.000000	-1.000000	-1.000000	-1.000000	-1.000000	53.000000	0.000000	-1.000000	-1.000000	291534.000000	1775787496.499467
-17600.850000	-13217.220000	10090.845000	279514.935000	302839.785000	289777.095000	-7822.845000	-20937.690000	-3.794396	-3.416284	-0.682427	21.855188	34.498972	22.895974	-4.614545	-5.516717	-1.388660	2.960440	0.320460	-0.688658	0.036011	0.711363	-1.000000	-1.000000	-1.000000	-1.000000	-1.000000	-1.000000	-1.000000	53.000000	0.000000	-1.000000	-1.000000	291535.000000	1775787496.503024
-17611.515000	-13227.210000	10080.900000	279515.925000	302838.795000	289777.050000	-7824.465000	-20948.130000	-2.238646	-0.055757	2.219409	12.874800	-2.461730	12.483985	-5.826156	-7.033738	-1.388660	2.960440	0.320460	-0.688658	0.036011	0.711363	-1.000000	-1.000000	-1.000000	-1.000000	-1.000000	-1.000000	-1.000000	53.000000	0.000000	-1.000000	-1.000000	291536.000000	1775787496.503040
-17612.865000	-13229.370000	10078.155000	279519.345000	302848.110000	289779.435000	-7825.095000	-20952.090000	-0.930302	1.926384	2.813782	-2.901297	-36.565067	-4.261327	-4.693916	-6.507171	-1.388660	2.960440	0.320460	-0.688658	0.036011	0.711363	-1.000000	-1.000000	-1.000000	-1.000000	-1.000000	-1.000000	-1.000000	53.000000	0.000000	-1.000000	-1.000000	291537.000000	1775787496.516886
-17604.450000	-13219.020000	10091.070000	279519.165000	302839.560000	289780.020000	-7832.880000	-20950.065000	-0.869671	1.264101	0.534169	-16.529356	-49.346048	-18.018525	-2.613666	-5.169523	-1.388660	2.960440	0.320460	-0.688658	0.036011	0.711363	-1.000000	-1.000000	-1.000000	-1.000000	-1.000000	-1.000000	-1.000000	53.000000	0.000000	-1.000000	-1.000000	291538.000000	1775787496.516906
-17612.730000	-13231.620000	10075.185000	279516.645000	302850.405000	289779.525000	-7827.165000	-20953.665000	-0.985170	-0.386286	-2.240888	-22.255085	-39.044157	-23.027173	-0.731175	-3.089126	-1.388660	2.960440	0.320460	-0.688658	0.036011	0.711363	-1.000000	-1.000000	-1.000000	-1.000000	-1.000000	-1.000000	-1.000000	53.000000	0.000000	-1.000000	-1.000000	291539.000000	1775787496.516931
-17620.965000	-13239.090000	10066.005000	279513.360000	302848.920000	289775.970000	-7827.975000	-20958.615000	-0.681011	-1.690266	-3.949208	-19.579428	-15.680078	-19.181589	0.758719	-0.362282	-1.388660	2.960440	0.320460	-0.688658	0.036011	0.711363	-1.000000	-1.000000	-1.000000	-1.000000	-1.000000	-1.000000	-1.000000	53.000000	0.000000	-1.000000	-1.000000	291540.000000	1775787496.516940
-17610.615000	-13225.905000	10080.405000	279511.290000	302840.055000	289772.325000	-7830.945000	-20951.640000	-0.326384	-2.329726	-4.422547	-11.621987	7.754060	-10.310954	2.009193	2.289853	-3.494540	0.778260	-0.457800	-0.693480	0.033386	0.710997	-1.000000	-1.000000	-1.000000	-1.000000	-1.000000	-1.000000	-1.000000	53.000000	0.000000	-1.000000	-1.000000	291541.000000	1775787496.516951
-17614.395000	-13231.890000	10074.510000	279510.480000	302848.020000	289768.680000	-7825.410000	-20951.505000	0.351281	-1.559541	-2.957985	-2.350350	21.875084	-1.034174	2.768503	4.382314	-3.494540	0.778260	-0.457800	-0.693480	0.033386	0.710997	-1.000000	-1.000000	-1.000000	-1.000000	-1.000000	-1.000000	-1.000000	53.000000	0.000000	-1.000000	-1.000000	291542.000000	1775787496.516960
-17612.730000	-13231.035000	10075.860000	279511.020000	302844.105000	289765.845000	-7822.530000	-20950.380000	1.598456	0.597790	0.343016	5.256463	24.355301	5.565969	2.946906	5.596635	-3.494540	0.778260	-0.457800	-0.693480	0.033386	0.710997	-1.000000	-1.000000	-1.000000	-1.000000	-1.000000	-1.000000	-1.000000	53.000000	0.000000	-1.000000	-1.000000	291543.000000	1775787496.520054
-17612.640000	-13231.530000	10075.095000	279514.710000	302844.870000	289764.810000	-7831.710000	-20955.645000	2.701236	2.662467	3.605309	9.783404	18.442616	8.585587	2.544811	5.308666	-3.494540	0.778260	-0.457800	-0.693480	0.033386	0.710997	-1.000000	-1.000000	-1.000000	-1.000000	-1.000000	-1.000000	-1.000000	53.000000	0.000000	-1.000000	-1.000000	291544.000000	1775787496.520078
-17616.645000	-13236.930000	10069.020000	279517.140000	302851.890000	289764.990000	-7831.215000	-20958.030000	2.832788	3.325506	5.009488	11.130025	9.189293	8.714825	1.178177	3.166843	-3.494540	0.778260	-0.457800	-0.693480	0.033386	0.710997	-1.000000	-1.000000	-1.000000	-1.000000	-1.000000	-1.000000	-1.000000	53.000000	0.000000	-1.000000	-1.000000	291545.000000	1775787496.525270
-17617.095000	-13238.100000	10063.485000	279460.485000	302677.695000	289711.530000	-7828.515000	-20957.490000	1.738636	2.304707	3.923845	8.829647	-2.054061	6.267821	-0.875969	-0.091974	-3.494540	0.778260	-0.457800	-0.693480	0.033386	0.710997	-1.000000	-1.000000	-1.000000	-1.000000	-1.000000	-1.000000	-1.000000	53.000000	0.000000	-1.000000	-1.000000	291546.000000	1775787496.525293
-17598.285000	-13219.020000	10073.340000	279346.410000	302508.900000	289602.135000	-7823.475000	-20941.965000	0.281873	0.692245	1.292658	-0.005270	-20.944962	-1.165219	-2.227344	-2.566287	-3.494540	0.778260	-0.457800	-0.693480	0.033386	0.710997	-1.000000	-1.000000	-1.000000	-1.000000	-1.000000	-1.000000	-1.000000	53.000000	0.000000	-1.000000	-1.000000	291547.000000	1775787496.532544
-17594.820000	-13211.550000	10084.815000	279367.695000	302736.105000	289615.500000	-7824.645000	-20939.805000	0.077220	0.461250	-0.540026	-15.159027	-42.068414	-13.920603	-1.930726	-2.520727	-3.494540	0.778260	-0.457800	-0.693480	0.033386	0.710997	-1.000000	-1.000000	-1.000000	-1.000000	-1.000000	-1.000000	-1.000000	53.000000	0.000000	-1.000000	-1.000000	291548.000000	1775787496.532565
-17617.005000	-13231.935000	10075.680000	279485.460000	303007.230000	289728.090000	-7817.490000	-20955.330000	0.833006	1.582110	-0.197874	-23.358213	-33.239076	-20.484087	-0.462912	-0.696042	-3.494540	0.778260	-0.457800	-0.693480	0.033386	0.710997	-1.000000	-1.000000	-1.000000	-1.000000	-1.000000	-1.000000	-1.000000	53.000000	0.000000	-1.000000	-1.000000	291549.000000	1775787496.532589
-17624.880000	-13245.930000	10059.345000	279503.820000	302904.180000	289750.005000	-7819.380000	-20959.785000	-0.126619	1.064342	0.589897	-8.494620	22.792943	-5.967094	1.039693	0.002780	-3.494540	0.778260	-0.457800	-0.693480	0.033386	0.710997	-1.000000	-1.000000	-1.000000	-1.000000	-1.000000	-1.000000	-1.000000	53.000000	0.000000	-1.000000	-1.000000	291550.000000	1775787496.532600
-17620.650000	-13240.530000	10064.835000	279504.630000	302862.600000	289748.970000	-7821.135000	-20958.165000	-3.544511	-2.598192	-0.583004	23.670804	84.071840	24.623878	1.564920	-1.644178	-2.685760	2.136400	-1.266580	-0.687987	0.032165	0.709410	-1.000000	-1.000000	-1.000000	-1.000000	-1.000000	-1.000000	-1.000000	53.000000	0.000000	-1.000000	-1.000000	291551.000000	1775787496.538319
-17614.485000	-13230.135000	10076.535000	279506.295000	302844.960000	289746.540000	-7830.180000	-20958.840000	-6.235738	-6.257530	-2.787999	47.570910	92.596429	47.127988	0.530467	-3.649247	-2.685760	2.136400	-1.266580	-0.687987	0.032165	0.709410	-1.000000	-1.000000	-1.000000	-1.000000	-1.000000	-1.000000	-1.000000	53.000000	0.000000	-1.000000	-1.000000	291552.000000	1775787496.538343
-17604.855000	-13218.030000	10089.360000	279510.165000	302848.920000	289748.385000	-7831.890000	-20954.205000	-4.911580	-5.669550	-2.824088	44.905557	40.665019	43.729000	-1.733706	-3.618124	-2.685760	2.136400	-1.266580	-0.687987	0.032165	0.709410	-1.000000	-1.000000	-1.000000	-1.000000	-1.000000	-1.000000	-1.000000	53.000000	0.000000	-1.000000	-1.000000	291553.000000	1775787496.538920
-17613.495000	-13227.345000	10081.035000	279511.020000	302853.330000	289749.375000	-7831.440000	-20959.560000	-0.014698	-0.670467	0.123029	18.640953	-31.807761	17.308474	-3.769591	-1.248791	-2.685760	2.136400	-1.266580	-0.687987	0.032165	0.709410	-1.000000	-1.000000	-1.000000	-1.000000	-1.000000	-1.000000	-1.000000	53.000000	0.000000	-1.000000	-1.000000	291554.000000	1775787496.538939
-17624.205000	-13240.305000	10066.680000	279508.905000	302851.305000	289749.105000	-7831.800000	-20965.995000	4.549144	4.351492	2.916332	-14.711968	-80.719106	-15.602462	-3.935488	1.651843	-2.685760	2.136400	-1.266580	-0.687987	0.032165	0.709410	-1.000000	-1.000000	-1.000000	-1.000000	-1.000000	-1.000000	-1.000000	53.000000	0.000000	-1.000000	-1.000000	291555.000000	1775787496.543605
-17620.650000	-13238.505000	10066.770000	279503.775000	302852.115000	289746.090000	-7829.055000	-20962.170000	5.359919	5.177413	2.232612	-38.751034	-86.807166	-38.619251	-1.842015	3.113435	-2.685760	2.136400	-1.266580	-0.687987	0.032165	0.709410	-1.000000	-1.000000	-1.000000	-1.000000	-1.000000	-1.000000	-1.000000	53.000000	0.000000	-1.000000	-1.000000	291556.000000	1775787496.543628
-17614.035000	-13230.270000	10075.140000	279502.200000	302854.365000	289744.380000	-7829.820000	-20959.155000	2.976335	2.257239	-1.151784	-45.425790	-57.685297	-44.098070	1.390190	2.992835	-2.685760	2.136400	-1.266580	-0.687987	0.032165	0.709410	-1.000000	-1.000000	-1.000000	-1.000000	-1.000000	-1.000000	-1.000000	53.000000	0.000000	-1.000000	-1.000000	291557.000000	1775787496.551524
-17612.190000	-13228.245000	10078.335000	279500.085000	302849.505000	289740.060000	-7828.290000	-20960.325000	0.489576	-0.680429	-3.484169	-35.880174	-14.540584	-33.934079	4.044010	2.363928	-2.685760	2.136400	-1.266580	-0.687987	0.032165	0.709410	-1.000000	-1.000000	-1.000000	-1.000000	-1.000000	-1.000000	-1.000000	53.000000	0.000000	-1.000000	-1.000000	291558.000000	1775787496.551548
-17618.130000	-13231.440000	10074.690000	279500.535000	302858.235000	289735.290000	-7848.540000	-20975.535000	-0.434433	-1.364328	-2.717835	-17.056352	22.206010	-15.689239	4.551812	1.461699	-2.685760	2.136400	-1.266580	-0.687987	0.032165	0.709410	-1.000000	-1.000000	-1.000000	-1.000000	-1.000000	-1.000000	-1.000000	53.000000	0.000000	-1.000000	-1.000000	291559.000000	1775787496.552748
-17613.405000	-13225.590000	10082.025000	279503.055000	302852.340000	289733.445000	-7850.070000	-20973.555000	-0.444992	-0.438540	-0.056569	2.698129	41.350206	2.328922	2.188301	-0.274163	-2.685760	2.136400	-1.266580	-0.687987	0.032165	0.709410	-1.000000	-1.000000	-1.000000	-1.000000	-1.000000	-1.000000	-1.000000	53.000000	0.000000	-1.000000	-1.000000	291560.000000	1775787496.552764
-17624.520000	-13239.180000	10068.795000	279504.315000	302855.085000	289732.320000	-7839.270000	-20974.545000	-0.625297	0.416029	2.172507	17.032981	41.854902	14.639393	-1.436038	-2.294709	-0.350980	1.938020	-0.534100	-0.686033	0.029297	0.708311	-1.000000	-1.000000	-1.000000	-1.000000	-1.000000	-1.000000	-1.000000	53.000000	0.000000	-1.000000	-1.000000	291561.000000	1775787496.555702
-17623.980000	-13240.215000	10066.230000	279502.830000	302851.710000	289730.655000	-7823.295000	-20965.365000	-1.405814	-0.030454	2.291971	22.988489	29.420870	19.543911	-2.754300	-2.861630	-0.350980	1.938020	-0.534100	-0.686033	0.029297	0.708311	-1.000000	-1.000000	-1.000000	-1.000000	-1.000000	-1.000000	-1.000000	53.000000	0.000000	-1.000000	-1.000000	291562.000000	1775787496.555726
-17613.135000	-13232.970000	10071.720000	279505.395000	302856.840000	289734.075000	-7816.005000	-20951.685000	-2.129927	-1.449127	0.459031	20.914874	12.332122	18.188186	0.033325	-0.856950	-0.350980	1.938020	-0.534100	-0.686033	0.029297	0.708311	-1.000000	-1.000000	-1.000000	-1.000000	-1.000000	-1.000000	-1.000000	53.000000	0.000000	-1.000000	-1.000000	291563.000000	1775787496.568405
-17617.680000	-13239.765000	10065.735000	279501.390000	302855.220000	289731.825000	-7832.295000	-20959.110000	-1.539124	-2.158845	-1.383245	13.580687	-2.256655	13.095895	4.306586	2.780677	-0.350980	1.938020	-0.534100	-0.686033	0.029297	0.708311	-1.000000	-1.000000	-1.000000	-1.000000	-1.000000	-1.000000	-1.000000	53.000000	0.000000	-1.000000	-1.000000	291564.000000	1775787496.568428
-17619.840000	-13242.285000	10063.980000	279496.170000	302863.005000	289728.000000	-7832.790000	-20963.430000	0.199549	-1.479830	-1.850962	4.494814	-10.530824	6.665963	5.378595	5.066830	-0.350980	1.938020	-0.534100	-0.686033	0.029297	0.708311	-1.000000	-1.000000	-1.000000	-1.000000	-1.000000	-1.000000	-1.000000	53.000000	0.000000	-1.000000	-1.000000	291565.000000	1775787496.568453
-17613.045000	-13232.790000	10074.420000	279491.580000	302859.810000	289721.745000	-7826.715000	-20958.390000	1.633892	-0.078629	-0.956577	-3.469895	-12.240721	0.438619	1.837777	3.777680	-0.350980	1.938020	-0.534100	-0.686033	0.029297	0.708311	-1.000000	-1.000000	-1.000000	-1.000000	-1.000000	-1.000000	-1.000000	53.000000	0.000000	-1.000000	-1.000000	291566.000000	1775787496.568464
-17614.395000	-13234.905000	10072.935000	279489.645000	302857.965000	289718.145000	-7824.150000	-20957.265000	2.088489	1.556065	0.920918	-8.384561	-9.706726	-4.541864	-3.091070	0.025042	-0.350980	1.938020	-0.534100	-0.686033	0.029297	0.708311	-1.000000	-1.000000	-1.000000	-1.000000	-1.000000	-1.000000	-1.000000	53.000000	0.000000	-1.000000	-1.000000	291567.000000	1775787496.568477
-17620.470000	-13240.305000	10067.040000	279489.735000	302857.425000	289714.500000	-7831.395000	-20963.880000	1.599659	2.774032	2.726392	-9.351274	-5.952140	-7.349190	-5.862998	-3.502500	-0.350980	1.938020	-0.534100	-0.686033	0.029297	0.708311	-1.000000	-1.000000	-1.000000	-1.000000	-1.000000	-1.000000	-1.000000	53.000000	0.000000	-1.000000	-1.000000	291568.000000	1775787496.568487
-17618.940000	-13235.580000	10073.790000	279493.020000	302856.165000	289714.455000	-7842.060000	-20968.560000	0.217038	2.641495	3.035929	-6.713894	-2.830272	-7.427527	-6.003031	-5.407557	-0.350980	1.938020	-0.534100	-0.686033	0.029297	0.708311	-1.000000	-1.000000	-1.000000	-1.000000	-1.000000	-1.000000	-1.000000	53.000000	0.000000	-1.000000	-1.000000	291569.000000	1775787496.574088
-17618.850000	-13238.730000	10068.615000	279490.635000	302851.485000	289710.765000	-7835.625000	-20966.625000	-1.406246	1.252948	1.715114	-2.053970	-0.805167	-5.079053	-4.757598	-5.546659	-0.350980	1.938020	-0.534100	-0.686033	0.029297	0.708311	-1.000000	-1.000000	-1.000000	-1.000000	-1.000000	-1.000000	-1.000000	53.000000	0.000000	-1.000000	-1.000000	291570.000000	1775787496.574112
-17630.955000	-13255.200000	10050.750000	279491.130000	302864.220000	289710.990000	-7825.410000	-20972.835000	-2.417094	-0.719152	-0.591304	2.334597	0.511799	-1.526673	-2.381980	-4.038280	1.907500	1.541260	-0.854560	-0.685972	0.027222	0.709471	-1.000000	-1.000000	-1.000000	-1.000000	-1.000000	-1.000000	-1.000000	53.000000	0.000000	-1.000000	-1.000000	291571.000000	1775787496.582628
-17629.515000	-13251.105000	10055.565000	279489.150000	302860.845000	289711.035000	-7822.935000	-20973.510000	-2.725468	-2.884774	-3.347083	4.626582	1.894982	1.765174	1.424517	-1.463026	1.907500	1.541260	-0.854560	-0.685972	0.027222	0.709471	-1.000000	-1.000000	-1.000000	-1.000000	-1.000000	-1.000000	-1.000000	53.000000	0.000000	-1.000000	-1.000000	291572.000000	1775787496.582652
-17621.235000	-13238.910000	10068.255000	279485.325000	302860.305000	289708.110000	-7822.440000	-20967.885000	-2.162139	-3.943227	-4.836938	4.323315	3.265729	3.765964	5.388230	1.318360	1.907500	1.541260	-0.854560	-0.685972	0.027222	0.709471	-1.000000	-1.000000	-1.000000	-1.000000	-1.000000	-1.000000	-1.000000	53.000000	0.000000	-1.000000	-1.000000	291573.000000	1775787496.582675
-17621.640000	-13239.630000	10065.960000	279481.320000	302859.585000	289702.620000	-7829.640000	-20970.180000	-0.187003	-2.233775	-3.068432	2.095938	3.574464	3.946298	7.028565	3.726070	1.907500	1.541260	-0.854560	-0.685972	0.027222	0.709471	-1.000000	-1.000000	-1.000000	-1.000000	-1.000000	-1.000000	-1.000000	53.000000	0.000000	-1.000000	-1.000000	291574.000000	1775787496.582686
-17619.120000	-13234.905000	10071.945000	279481.275000	302861.610000	289699.245000	-7838.820000	-20971.935000	2.609098	1.575595	1.197236	-0.684087	2.425538	2.384147	4.873367	5.069256	1.907500	1.541260	-0.854560	-0.685972	0.027222	0.709471	-1.000000	-1.000000	-1.000000	-1.000000	-1.000000	-1.000000	-1.000000	53.000000	0.000000	-1.000000	-1.000000	291575.000000	1775787496.589104
-17612.055000	-13228.290000	10078.020000	279478.530000	302856.345000	289694.160000	-7836.030000	-20965.680000	4.647399	4.911727	5.096852	-2.549717	0.502470	-0.050692	-0.029419	4.772154	1.907500	1.541260	-0.854560	-0.685972	0.027222	0.709471	-1.000000	-1.000000	-1.000000	-1.000000	-1.000000	-1.000000	-1.000000	53.000000	0.000000	-1.000000	-1.000000	291576.000000	1775787496.589130
-17616.915000	-13236.840000	10068.570000	279482.670000	302859.855000	289693.620000	-7827.660000	-20963.295000	4.858494	5.737219	6.336585	-2.686601	-1.293529	-2.072175	-4.359767	3.272358	1.907500	1.541260	-0.854560	-0.685972	0.027222	0.709471	-1.000000	-1.000000	-1.000000	-1.000000	-1.000000	-1.000000	-1.000000	53.000000	0.000000	-1.000000	-1.000000	291577.000000	1775787496.594189
-17616.780000	-13237.920000	10066.860000	279483.525000	302856.570000	289691.055000	-7827.390000	-20961.270000	2.992451	3.394484	4.070523	-1.209652	-2.263235	-2.698421	-5.139597	1.498844	1.907500	1.541260	-0.854560	-0.685972	0.027222	0.709471	-1.000000	-1.000000	-1.000000	-1.000000	-1.000000	-1.000000	-1.000000	53.000000	0.000000	-1.000000	-1.000000	291578.000000	1775787496.594214
-17617.365000	-13235.490000	10070.145000	279483.030000	302860.260000	289690.650000	-7839.630000	-20968.245000	-0.289664	-0.960366	-0.515916	0.934106	-2.103832	-1.791784	-2.696671	-0.251763	1.907500	1.541260	-0.854560	-0.685972	0.027222	0.709471	-1.000000	-1.000000	-1.000000	-1.000000	-1.000000	-1.000000	-1.000000	53.000000	0.000000	-1.000000	-1.000000	291579.000000	1775787496.594240
-17608.680000	-13223.565000	10085.265000	279481.410000	302856.660000	289690.515000	-7843.365000	-20965.905000	-3.271503	-4.494848	-4.276889	2.389210	-1.082578	-0.021670	-0.053557	-2.127663	1.907500	1.541260	-0.854560	-0.685972	0.027222	0.709471	-1.000000	-1.000000	-1.000000	-1.000000	-1.000000	-1.000000	-1.000000	53.000000	0.000000	-1.000000	-1.000000	291580.000000	1775787496.594292
-17610.570000	-13225.365000	10085.670000	279477.495000	302855.985000	289688.040000	-7839.765000	-20966.625000	-4.293859	-4.932815	-4.606745	2.258396	0.091387	1.635230	0.824972	-3.723709	0.854560	1.281840	-0.671440	-0.686400	0.028076	0.711424	-1.000000	-1.000000	-1.000000	-1.000000	-1.000000	-1.000000	-1.000000	53.000000	0.000000	-1.000000	-1.000000	291581.000000	1775787496.601354
-17612.865000	-13229.370000	10080.630000	279470.925000	302856.480000	289681.965000	-7824.465000	-20963.430000	-3.325743	-2.809565	-2.133023	0.593717	0.787154	2.284150	0.949403	-4.127966	0.854560	1.281840	-0.671440	-0.686400	0.028076	0.711424	-1.000000	-1.000000	-1.000000	-1.000000	-1.000000	-1.000000	-1.000000	53.000000	0.000000	-1.000000	-1.000000	291582.000000	1775787496.601375
-17618.265000	-13236.570000	10070.910000	279465.030000	302857.515000	289673.235000	-7824.105000	-20966.355000	-1.834976	-0.691443	0.012425	-1.786081	0.964778	1.420108	2.111318	-3.011753	0.854560	1.281840	-0.671440	-0.686400	0.028076	0.711424	-1.000000	-1.000000	-1.000000	-1.000000	-1.000000	-1.000000	-1.000000	53.000000	0.000000	-1.000000	-1.000000	291583.000000	1775787496.601424
-17622.585000	-13240.665000	10065.060000	279456.345000	302841.270000	289661.310000	-7828.515000	-20970.630000	-1.104452	-0.344784	-0.365122	-3.758816	0.648942	-0.757845	3.847916	-1.160412	0.854560	1.281840	-0.671440	-0.686400	0.028076	0.711424	-1.000000	-1.000000	-1.000000	-1.000000	-1.000000	-1.000000	-1.000000	53.000000	0.000000	-1.000000	-1.000000	291584.000000	1775787496.601442
-17622.360000	-13241.655000	10061.910000	279432.945000	302802.885000	289635.840000	-7828.695000	-20969.820000	-1.130386	-1.312323	-2.544464	-4.753095	-1.145798	-3.581365	3.957071	0.291634	0.854560	1.281840	-0.671440	-0.686400	0.028076	0.711424	-1.000000	-1.000000	-1.000000	-1.000000	-1.000000	-1.000000	-1.000000	53.000000	0.000000	-1.000000	-1.000000	291585.000000	1775787496.621806
-17616.015000	-13235.310000	10070.595000	279463.140000	302896.350000	289658.745000	-7828.920000	-20964.330000	-0.841816	-1.762467	-3.880194	-4.296537	-3.309798	-5.578491	1.582992	1.094481	0.854560	1.281840	-0.671440	-0.686400	0.028076	0.711424	-1.000000	-1.000000	-1.000000	-1.000000	-1.000000	-1.000000	-1.000000	53.000000	0.000000	-1.000000	-1.000000	291586.000000	1775787496.621830
-17615.025000	-13234.095000	10073.115000	279466.110000	302874.885000	289663.650000	-7830.315000	-20965.635000	0.671483	-0.344874	-2.261802	-0.904401	-0.766217	-4.051698	-1.869425	1.755316	0.854560	1.281840	-0.671440	-0.686400	0.028076	0.711424	-1.000000	-1.000000	-1.000000	-1.000000	-1.000000	-1.000000	-1.000000	53.000000	0.000000	-1.000000	-1.000000	291587.000000	1775787496.621856
-17620.020000	-13238.010000	10070.190000	279467.640000	302872.860000	289666.485000	-7832.880000	-20970.945000	2.819320	2.347934	1.775093	5.240527	6.575461	1.823242	-4.457761	2.218764	0.854560	1.281840	-0.671440	-0.686400	0.028076	0.711424	-1.000000	-1.000000	-1.000000	-1.000000	-1.000000	-1.000000	-1.000000	53.000000	0.000000	-1.000000	-1.000000	291588.000000	1775787496.621870
-17623.755000	-13239.855000	10068.480000	279464.220000	302870.430000	289664.730000	-7842.780000	-20976.930000	3.846439	4.262757	5.393552	10.231368	10.933956	8.446979	-5.301669	1.710508	0.854560	1.281840	-0.671440	-0.686400	0.028076	0.711424	-1.000000	-1.000000	-1.000000	-1.000000	-1.000000	-1.000000	-1.000000	53.000000	0.000000	-1.000000	-1.000000	291589.000000	1775787496.621883
-17616.060000	-13229.235000	10079.775000	279459.990000	302868.675000	289660.860000	-7847.865000	-20973.330000	2.941173	4.212234	6.418195	10.161150	7.446870	11.036450	-4.748149	0.136703	0.854560	1.281840	-0.671440	-0.686400	0.028076	0.711424	-1.000000	-1.000000	-1.000000	-1.000000	-1.000000	-1.000000	-1.000000	53.000000	0.000000	-1.000000	-1.000000	291590.000000	1775787496.621893
