Channel1	Channel2	Channel3	Channel4	Channel5	Channel6	Channel7	Channel8	FilteredChannel1	FilteredChannel2	FilteredChannel3	FilteredChannel4	FilteredChannel5	FilteredChannel6	FilteredChannel7	FilteredChannel8	GyroX	GyroY	GyroZ	AccX	AccY	AccZ	PPG1	PPG2	rawPPG1	rawPPG2	rawPPG3	Hr	Hrv	Battery	Trigger	PhysicalTrigger	AutoTrigger	NumMeasurements	Timestamp
-20942.055000	-11896.155000	12533.220000	290386.710000	300465.675000	297720.045000	-8794.440000	-1700.415000	12.974838	10.954952	6.071471	-26.043219	-26.192690	-26.040196	-1.245749	0.386790	-4.501700	0.717220	-2.578940	-0.578001	-0.042663	0.810789	-1.000000	-1.000000	-1.000000	-1.000000	-1.000000	-1.000000	-1.000000	53.000000	0.000000	-1.000000	-1.000000	196795.000000	1775787307.093573
-20939.355000	-11895.345000	12531.285000	290399.850000	300478.905000	297732.825000	-8799.615000	-1701.495000	9.521239	6.915944	2.346684	-26.070589	-26.162500	-25.894436	0.405108	2.080845	-4.501700	0.717220	-2.578940	-0.578001	-0.042663	0.810789	-1.000000	-1.000000	-1.000000	-1.000000	-1.000000	-1.000000	-1.000000	53.000000	0.000000	-1.000000	-1.000000	196796.000000	1775787307.093593
-20935.080000	-11894.265000	12537.495000	290470.635000	300550.320000	297803.655000	-8807.715000	-1698.480000	1.286693	-0.975870	-2.871500	-13.490380	-13.480905	-13.255887	0.585562	1.919055	-4.501700	0.717220	-2.578940	-0.578001	-0.042663	0.810789	-1.000000	-1.000000	-1.000000	-1.000000	-1.000000	-1.000000	-1.000000	53.000000	0.000000	-1.000000	-1.000000	196797.000000	1775787307.093736
-20933.730000	-11890.125000	12546.585000	290441.790000	300520.935000	297773.460000	-8808.435000	-1694.790000	-6.745889	-8.109078	-6.445729	8.510185	8.631776	8.650062	-0.768849	0.572595	-4.501700	0.717220	-2.578940	-0.578001	-0.042663	0.810789	-1.000000	-1.000000	-1.000000	-1.000000	-1.000000	-1.000000	-1.000000	53.000000	0.000000	-1.000000	-1.000000	196798.000000	1775787307.093747
-20940.345000	-11894.310000	12540.600000	290444.175000	300523.050000	297775.260000	-8809.470000	-1696.320000	-11.000908	-11.005361	-6.311447	27.814004	27.985927	27.735180	-2.569041	-0.714299	-4.501700	0.717220	-2.578940	-0.578001	-0.042663	0.810789	-1.000000	-1.000000	-1.000000	-1.000000	-1.000000	-1.000000	-1.000000	53.000000	0.000000	-1.000000	-1.000000	196799.000000	1775787307.093869
-20952.675000	-11901.600000	12534.345000	290442.735000	300521.970000	297773.955000	-8808.615000	-1702.800000	-11.232410	-9.528292	-3.702354	31.974696	32.086791	31.668415	-3.106132	-1.537559	-4.501700	0.717220	-2.578940	-0.578001	-0.042663	0.810789	-1.000000	-1.000000	-1.000000	-1.000000	-1.000000	-1.000000	-1.000000	53.000000	0.000000	-1.000000	-1.000000	196800.000000	1775787307.093879
-20943.990000	-11899.215000	12534.030000	290445.480000	300524.760000	297776.790000	-8811.360000	-1708.560000	-8.880113	-5.771616	-1.312332	20.089247	20.095978	19.729860	-1.732631	-2.326529	-3.570840	4.242280	-0.640920	-0.564574	-0.042847	0.807066	-1.000000	-1.000000	-1.000000	-1.000000	-1.000000	-1.000000	-1.000000	53.000000	0.000000	-1.000000	-1.000000	196801.000000	1775787307.104731
-20947.545000	-11904.885000	12530.205000	290441.205000	300520.755000	297772.380000	-8812.395000	-1709.955000	-4.769780	-1.655052	-0.293058	1.192424	1.147461	1.032916	0.681172	-3.157189	-3.570840	4.242280	-0.640920	-0.564574	-0.042847	0.807066	-1.000000	-1.000000	-1.000000	-1.000000	-1.000000	-1.000000	-1.000000	53.000000	0.000000	-1.000000	-1.000000	196802.000000	1775787307.104754
-20946.195000	-11894.355000	12540.060000	290446.290000	300526.065000	297777.780000	-8810.145000	-1708.290000	0.409016	1.955520	0.124028	-14.525163	-14.540739	-14.349169	2.788819	-3.220207	-3.570840	4.242280	-0.640920	-0.564574	-0.042847	0.807066	-1.000000	-1.000000	-1.000000	-1.000000	-1.000000	-1.000000	-1.000000	53.000000	0.000000	-1.000000	-1.000000	196803.000000	1775787307.167265
-20939.355000	-11893.770000	12538.665000	290444.805000	300524.445000	297775.980000	-8809.920000	-1704.780000	5.205033	4.865266	1.113522	-21.162467	-21.113478	-20.713613	3.850799	-1.679411	-3.570840	4.242280	-0.640920	-0.564574	-0.042847	0.807066	-1.000000	-1.000000	-1.000000	-1.000000	-1.000000	-1.000000	-1.000000	53.000000	0.000000	-1.000000	-1.000000	196804.000000	1775787307.167288
-20931.525000	-11888.910000	12545.685000	290403.675000	300482.370000	297733.860000	-8804.115000	-1691.415000	8.377500	6.770383	2.789152	-19.200387	-19.141212	-18.701899	3.855724	1.430791	-3.570840	4.242280	-0.640920	-0.564574	-0.042847	0.807066	-1.000000	-1.000000	-1.000000	-1.000000	-1.000000	-1.000000	-1.000000	53.000000	0.000000	-1.000000	-1.000000	196805.000000	1775787307.167317
-20940.345000	-11897.820000	12533.985000	290416.275000	300494.430000	297745.335000	-8813.520000	-1695.645000	9.140722	6.803946	3.943378	-13.338379	-13.393680	-13.077221	2.959639	4.940080	-3.570840	4.242280	-0.640920	-0.564574	-0.042847	0.807066	-1.000000	-1.000000	-1.000000	-1.000000	-1.000000	-1.000000	-1.000000	53.000000	0.000000	-1.000000	-1.000000	196806.000000	1775787307.167327
-20958.120000	-11911.365000	12524.850000	290466.720000	300545.235000	297795.555000	-8816.805000	-1711.170000	6.506294	4.085009	3.011678	-5.549555	-5.785571	-5.705926	1.041923	6.434943	-3.570840	4.242280	-0.640920	-0.564574	-0.042847	0.807066	-1.000000	-1.000000	-1.000000	-1.000000	-1.000000	-1.000000	-1.000000	53.000000	0.000000	-1.000000	-1.000000	196807.000000	1775787307.167340
-20958.750000	-11912.085000	12522.645000	290453.490000	300531.780000	297782.055000	-8813.655000	-1715.130000	0.556993	-0.925328	-0.222983	5.332835	5.021429	4.838973	-1.537443	3.894142	-3.570840	4.242280	-0.640920	-0.564574	-0.042847	0.807066	-1.000000	-1.000000	-1.000000	-1.000000	-1.000000	-1.000000	-1.000000	53.000000	0.000000	-1.000000	-1.000000	196808.000000	1775787307.167348
-20954.340000	-11906.595000	12527.640000	290449.170000	300527.955000	297778.005000	-8816.535000	-1717.290000	-5.688253	-5.502085	-3.613265	15.799399	15.620529	15.274166	-3.403902	-1.513579	-3.570840	4.242280	-0.640920	-0.564574	-0.042847	0.807066	-1.000000	-1.000000	-1.000000	-1.000000	-1.000000	-1.000000	-1.000000	53.000000	0.000000	-1.000000	-1.000000	196809.000000	1775787307.167358
-20952.225000	-11902.410000	12532.320000	290446.020000	300524.985000	297774.810000	-8817.120000	-1719.540000	-8.120457	-6.444658	-4.346532	18.752725	18.855432	18.520194	-3.536112	-6.031976	-3.570840	4.242280	-0.640920	-0.564574	-0.042847	0.807066	-1.000000	-1.000000	-1.000000	-1.000000	-1.000000	-1.000000	-1.000000	53.000000	0.000000	-1.000000	-1.000000	196810.000000	1775787307.167368
-20961.135000	-11909.295000	12528.720000	290448.450000	300527.910000	297777.735000	-8807.220000	-1720.395000	-5.665755	-3.342592	-1.824532	12.335386	12.720048	12.540418	-2.020736	-6.866224	-2.639980	4.852680	-1.190280	-0.563475	-0.049194	0.803037	-1.000000	-1.000000	-1.000000	-1.000000	-1.000000	-1.000000	-1.000000	53.000000	0.000000	-1.000000	-1.000000	196811.000000	1775787307.167377
-20978.055000	-11921.625000	12523.230000	290454.210000	300533.895000	297783.405000	-8796.195000	-1713.600000	-1.282589	0.820568	1.705213	1.504404	2.032770	2.056120	0.720383	-3.891614	-2.639980	4.852680	-1.190280	-0.563475	-0.049194	0.803037	-1.000000	-1.000000	-1.000000	-1.000000	-1.000000	-1.000000	-1.000000	53.000000	0.000000	-1.000000	-1.000000	196812.000000	1775787307.167385
-20970.315000	-11923.065000	12517.425000	290454.570000	300533.850000	297783.135000	-8797.545000	-1704.105000	1.554077	2.745497	3.410803	-7.258716	-6.799539	-6.627572	3.755792	1.253990	-2.639980	4.852680	-1.190280	-0.563475	-0.049194	0.803037	-1.000000	-1.000000	-1.000000	-1.000000	-1.000000	-1.000000	-1.000000	53.000000	0.000000	-1.000000	-1.000000	196813.000000	1775787307.167393
-20955.195000	-11925.945000	12503.655000	290452.725000	300531.240000	297780.165000	-8812.215000	-1702.845000	2.726271	1.976437	2.205277	-10.642983	-10.470572	-10.264394	4.931096	6.217618	-2.639980	4.852680	-1.190280	-0.563475	-0.049194	0.803037	-1.000000	-1.000000	-1.000000	-1.000000	-1.000000	-1.000000	-1.000000	53.000000	0.000000	-1.000000	-1.000000	196814.000000	1775787307.167400
-20949.210000	-11917.260000	12506.940000	290450.385000	300528.675000	297776.880000	-8824.770000	-1711.665000	4.326947	0.596832	-0.786107	-9.307259	-9.548793	-9.422784	2.247031	8.365949	-2.639980	4.852680	-1.190280	-0.563475	-0.049194	0.803037	-1.000000	-1.000000	-1.000000	-1.000000	-1.000000	-1.000000	-1.000000	53.000000	0.000000	-1.000000	-1.000000	196815.000000	1775787307.167409
-20951.055000	-11913.390000	12513.285000	290446.875000	300525.075000	297772.965000	-8826.120000	-1718.955000	6.453239	0.686171	-2.897120	-5.732578	-6.318513	-6.340265	-3.398425	5.991515	-2.639980	4.852680	-1.190280	-0.563475	-0.049194	0.803037	-1.000000	-1.000000	-1.000000	-1.000000	-1.000000	-1.000000	-1.000000	53.000000	0.000000	-1.000000	-1.000000	196816.000000	1775787307.167418
-20952.090000	-11906.550000	12525.030000	290445.525000	300523.995000	297771.660000	-8815.770000	-1715.085000	6.750441	2.462798	-1.811007	-2.073057	-2.736694	-2.888823	-7.877185	0.196880	-2.639980	4.852680	-1.190280	-0.563475	-0.049194	0.803037	-1.000000	-1.000000	-1.000000	-1.000000	-1.000000	-1.000000	-1.000000	53.000000	0.000000	-1.000000	-1.000000	196817.000000	1775787307.167430
-20952.855000	-11905.425000	12527.010000	290445.840000	300525.165000	297772.380000	-8810.505000	-1713.555000	3.704983	4.344384	2.166893	0.708973	0.297546	0.112510	-7.272838	-5.291529	-2.639980	4.852680	-1.190280	-0.563475	-0.049194	0.803037	-1.000000	-1.000000	-1.000000	-1.000000	-1.000000	-1.000000	-1.000000	53.000000	0.000000	-1.000000	-1.000000	196818.000000	1775787307.167439
-20943.675000	-11893.770000	12540.015000	290442.960000	300522.645000	297769.680000	-8803.665000	-1701.855000	-1.325976	4.651154	6.269070	2.531993	2.592213	2.481568	-1.582367	-7.029516	-2.639980	4.852680	-1.190280	-0.563475	-0.049194	0.803037	-1.000000	-1.000000	-1.000000	-1.000000	-1.000000	-1.000000	-1.000000	53.000000	0.000000	-1.000000	-1.000000	196819.000000	1775787307.167451
-20943.720000	-11900.790000	12530.880000	290442.510000	300521.970000	297769.185000	-8798.670000	-1696.590000	-5.379015	2.895082	7.572886	3.461815	3.964924	3.990981	5.473083	-4.315525	-2.639980	4.852680	-1.190280	-0.563475	-0.049194	0.803037	-1.000000	-1.000000	-1.000000	-1.000000	-1.000000	-1.000000	-1.000000	53.000000	0.000000	-1.000000	-1.000000	196820.000000	1775787307.167460
-20949.435000	-11907.855000	12524.895000	290444.445000	300523.860000	297770.580000	-8802.720000	-1699.110000	-6.769812	-0.658579	4.613433	3.590100	4.253048	4.420467	9.580432	0.532257	-1.815940	1.434440	-1.464960	-0.555602	-0.051514	0.801878	-1.000000	-1.000000	-1.000000	-1.000000	-1.000000	-1.000000	-1.000000	53.000000	0.000000	-1.000000	-1.000000	196821.000000	1775787307.167471
-20938.815000	-11896.245000	12534.975000	290441.250000	300520.350000	297766.575000	-8803.080000	-1695.780000	-5.887537	-4.907771	-1.486187	3.140876	3.603804	3.840982	8.505063	3.977373	-1.815940	1.434440	-1.464960	-0.555602	-0.051514	0.801878	-1.000000	-1.000000	-1.000000	-1.000000	-1.000000	-1.000000	-1.000000	53.000000	0.000000	-1.000000	-1.000000	196822.000000	1775787307.167481
-20934.045000	-11891.070000	12540.285000	290438.865000	300517.425000	297763.245000	-8806.005000	-1695.015000	-3.464027	-7.367451	-6.920201	2.193317	2.231959	2.410379	3.159682	4.129486	-1.815940	1.434440	-1.464960	-0.555602	-0.051514	0.801878	-1.000000	-1.000000	-1.000000	-1.000000	-1.000000	-1.000000	-1.000000	53.000000	0.000000	-1.000000	-1.000000	196823.000000	1775787307.167492
-20940.120000	-11897.910000	12534.030000	290441.250000	300519.720000	297765.090000	-8808.570000	-1698.975000	-0.333532	-6.419305	-8.522882	0.854774	0.472975	0.494281	-3.312364	1.624868	-1.815940	1.434440	-1.464960	-0.555602	-0.051514	0.801878	-1.000000	-1.000000	-1.000000	-1.000000	-1.000000	-1.000000	-1.000000	53.000000	0.000000	-1.000000	-1.000000	196824.000000	1775787307.167502
-20948.175000	-11904.975000	12528.225000	290445.030000	300523.815000	297768.690000	-8812.035000	-1704.555000	1.734304	-3.504698	-6.729029	-0.274202	-0.864279	-1.005074	-7.781094	-1.853942	-1.815940	1.434440	-1.464960	-0.555602	-0.051514	0.801878	-1.000000	-1.000000	-1.000000	-1.000000	-1.000000	-1.000000	-1.000000	53.000000	0.000000	-1.000000	-1.000000	196825.000000	1775787307.167513
-20947.500000	-11903.355000	12528.855000	290444.400000	300523.455000	297768.105000	-8813.610000	-1706.130000	1.483162	-1.073899	-3.882138	-0.601631	-1.086614	-1.311187	-8.701775	-4.697383	-1.815940	1.434440	-1.464960	-0.555602	-0.051514	0.801878	-1.000000	-1.000000	-1.000000	-1.000000	-1.000000	-1.000000	-1.000000	53.000000	0.000000	-1.000000	-1.000000	196826.000000	1775787307.167521
-20946.825000	-11902.680000	12530.205000	290441.970000	300521.430000	297766.350000	-8811.045000	-1705.410000	-0.128880	0.255388	-1.265423	-0.386742	-0.521585	-0.705646	-6.250327	-5.587776	-1.815940	1.434440	-1.464960	-0.555602	-0.051514	0.801878	-1.000000	-1.000000	-1.000000	-1.000000	-1.000000	-1.000000	-1.000000	53.000000	0.000000	-1.000000	-1.000000	196827.000000	1775787307.167532
-20944.170000	-11899.575000	12534.165000	290439.540000	300519.405000	297764.055000	-8809.740000	-1703.205000	-1.027133	1.338494	1.163916	-0.432700	-0.165322	-0.191708	-1.734944	-3.935294	-1.815940	1.434440	-1.464960	-0.555602	-0.051514	0.801878	-1.000000	-1.000000	-1.000000	-1.000000	-1.000000	-1.000000	-1.000000	53.000000	0.000000	-1.000000	-1.000000	196828.000000	1775787307.167542
-20949.750000	-11904.840000	12528.405000	290442.645000	300522.285000	297766.620000	-8809.515000	-1709.055000	-0.317451	2.583579	3.327988	-0.987691	-0.468837	-0.309873	2.940203	-0.528968	-1.815940	1.434440	-1.464960	-0.555602	-0.051514	0.801878	-1.000000	-1.000000	-1.000000	-1.000000	-1.000000	-1.000000	-1.000000	53.000000	0.000000	-1.000000	-1.000000	196829.000000	1775787307.167552
-20954.250000	-11909.250000	12524.805000	290443.635000	300522.870000	297767.070000	-8811.630000	-1713.240000	1.051092	3.284994	4.364789	-1.426101	-0.932587	-0.681264	5.885530	2.655901	-1.815940	1.434440	-1.464960	-0.555602	-0.051514	0.801878	-1.000000	-1.000000	-1.000000	-1.000000	-1.000000	-1.000000	-1.000000	53.000000	0.000000	-1.000000	-1.000000	196830.000000	1775787307.167562
-20958.165000	-11910.240000	12527.100000	290443.770000	300522.285000	297766.395000	-8809.875000	-1712.070000	1.669141	2.704013	3.684802	-1.151586	-0.954813	-0.746189	6.143607	4.033132	4.196500	-0.213640	1.922760	-0.552916	-0.050232	0.803709	-1.000000	-1.000000	-1.000000	-1.000000	-1.000000	-1.000000	-1.000000	53.000000	0.000000	-1.000000	-1.000000	196831.000000	1775787307.167873
-20970.315000	-11915.865000	12529.035000	290444.985000	300523.500000	297767.160000	-8801.640000	-1709.820000	1.017339	1.134848	2.042818	-0.320242	-0.537188	-0.458065	4.349157	3.715548	4.196500	-0.213640	1.922760	-0.552916	-0.050232	0.803709	-1.000000	-1.000000	-1.000000	-1.000000	-1.000000	-1.000000	-1.000000	53.000000	0.000000	-1.000000	-1.000000	196832.000000	1775787307.167887
-20958.255000	-11914.605000	12525.660000	290446.830000	300525.480000	297768.825000	-8810.460000	-1712.880000	-0.215319	-0.446494	0.643502	0.529325	0.021047	-0.049895	1.929704	2.751405	4.196500	-0.213640	1.922760	-0.552916	-0.050232	0.803709	-1.000000	-1.000000	-1.000000	-1.000000	-1.000000	-1.000000	-1.000000	53.000000	0.000000	-1.000000	-1.000000	196833.000000	1775787307.167901
-20937.375000	-11895.345000	12533.805000	290441.610000	300520.170000	297764.235000	-8820.810000	-1717.200000	-0.072270	-0.792982	-0.020171	0.917995	0.408402	0.237171	-0.624589	1.630714	4.196500	-0.213640	1.922760	-0.552916	-0.050232	0.803709	-1.000000	-1.000000	-1.000000	-1.000000	-1.000000	-1.000000	-1.000000	53.000000	0.000000	-1.000000	-1.000000	196834.000000	1775787307.167907
-20938.455000	-11894.085000	12531.960000	290443.230000	300522.105000	297766.485000	-8805.510000	-1718.190000	2.723451	0.970019	0.014197	0.556444	0.311084	0.168513	-3.132162	0.280761	4.196500	-0.213640	1.922760	-0.552916	-0.050232	0.803709	-1.000000	-1.000000	-1.000000	-1.000000	-1.000000	-1.000000	-1.000000	53.000000	0.000000	-1.000000	-1.000000	196835.000000	1775787307.167915
-20947.725000	-11897.280000	12537.270000	290360.610000	300439.125000	297683.280000	-8805.015000	-1717.380000	5.906202	3.592019	0.393771	-1.731279	-1.621318	-1.612954	-4.115161	-1.015755	4.196500	-0.213640	1.922760	-0.552916	-0.050232	0.803709	-1.000000	-1.000000	-1.000000	-1.000000	-1.000000	-1.000000	-1.000000	53.000000	0.000000	-1.000000	-1.000000	196836.000000	1775787307.167920
-20950.290000	-11899.395000	12530.655000	290204.955000	300279.870000	297524.745000	-8800.155000	-1716.120000	5.563516	4.219458	0.467292	-10.261225	-9.965433	-9.804835	-2.528235	-1.583583	4.196500	-0.213640	1.922760	-0.552916	-0.050232	0.803709	-1.000000	-1.000000	-1.000000	-1.000000	-1.000000	-1.000000	-1.000000	53.000000	0.000000	-1.000000	-1.000000	196837.000000	1775787307.167927
-20953.710000	-11908.440000	12524.445000	290496.870000	300574.800000	297819.045000	-8800.245000	-1714.455000	0.913965	1.484011	-0.407290	-20.826207	-20.661287	-20.458418	0.384771	-1.111063	4.196500	-0.213640	1.922760	-0.552916	-0.050232	0.803709	-1.000000	-1.000000	-1.000000	-1.000000	-1.000000	-1.000000	-1.000000	53.000000	0.000000	-1.000000	-1.000000	196838.000000	1775787307.167933
-20936.430000	-11897.775000	12530.430000	290427.480000	300505.050000	297748.980000	-8814.015000	-1711.665000	-4.680575	-3.036412	-2.079663	-13.443950	-13.479857	-13.386599	2.203822	0.035429	4.196500	-0.213640	1.922760	-0.552916	-0.050232	0.803709	-1.000000	-1.000000	-1.000000	-1.000000	-1.000000	-1.000000	-1.000000	53.000000	0.000000	-1.000000	-1.000000	196839.000000	1775787307.168512
-20934.540000	-11910.195000	12509.145000	290224.620000	300298.860000	297542.970000	-8826.120000	-1720.035000	-6.985839	-6.316913	-3.544049	12.177468	12.132356	12.006439	1.129989	0.972934	4.196500	-0.213640	1.922760	-0.552916	-0.050232	0.803709	-1.000000	-1.000000	-1.000000	-1.000000	-1.000000	-1.000000	-1.000000	53.000000	0.000000	-1.000000	-1.000000	196840.000000	1775787307.168518
-20932.020000	-11903.310000	12519.450000	290410.155000	300485.250000	297729.450000	-8816.130000	-1713.195000	-4.880113	-6.610969	-4.068310	27.827632	27.818918	27.506245	-2.140687	0.900176	5.661460	-4.425400	2.151660	-0.570189	-0.051697	0.805784	-1.000000	-1.000000	-1.000000	-1.000000	-1.000000	-1.000000	-1.000000	53.000000	0.000000	-1.000000	-1.000000	196841.000000	1775787307.176976
-20942.145000	-11900.340000	12533.895000	290511.270000	300589.155000	297833.310000	-8799.975000	-1698.255000	-1.081673	-4.120815	-2.791393	26.949234	26.956234	26.617261	-4.035044	0.329950	5.661460	-4.425400	2.151660	-0.570189	-0.051697	0.805784	-1.000000	-1.000000	-1.000000	-1.000000	-1.000000	-1.000000	-1.000000	53.000000	0.000000	-1.000000	-1.000000	196842.000000	1775787307.176994
-20952.765000	-11906.145000	12532.545000	290468.205000	300546.855000	297791.235000	-8799.165000	-1704.915000	0.825869	-0.173357	0.970614	26.316517	26.556989	26.353820	-1.735486	0.471320	5.661460	-4.425400	2.151660	-0.570189	-0.051697	0.805784	-1.000000	-1.000000	-1.000000	-1.000000	-1.000000	-1.000000	-1.000000	53.000000	0.000000	-1.000000	-1.000000	196843.000000	1775787307.177012
-20947.770000	-11910.690000	12520.800000	290393.055000	300471.255000	297716.040000	-8807.040000	-1716.930000	-0.233070	3.056315	5.201114	24.011397	24.674692	24.684946	3.023954	0.715080	5.661460	-4.425400	2.151660	-0.570189	-0.051697	0.805784	-1.000000	-1.000000	-1.000000	-1.000000	-1.000000	-1.000000	-1.000000	53.000000	0.000000	-1.000000	-1.000000	196844.000000	1775787307.177019
-20940.255000	-11901.735000	12525.120000	290349.135000	300426.255000	297671.220000	-8805.915000	-1717.335000	-1.950363	4.101970	6.424879	4.930444	5.763662	5.971864	5.832600	-0.638130	5.661460	-4.425400	2.151660	-0.570189	-0.051697	0.805784	-1.000000	-1.000000	-1.000000	-1.000000	-1.000000	-1.000000	-1.000000	53.000000	0.000000	-1.000000	-1.000000	196845.000000	1775787307.181048
-20943.405000	-11900.565000	12530.205000	290453.580000	300531.960000	297776.610000	-8804.565000	-1717.380000	-1.560483	3.595520	4.030504	-26.351986	-25.887180	-25.582259	4.621153	-3.184880	5.661460	-4.425400	2.151660	-0.570189	-0.051697	0.805784	-1.000000	-1.000000	-1.000000	-1.000000	-1.000000	-1.000000	-1.000000	53.000000	0.000000	-1.000000	-1.000000	196846.000000	1775787307.181058
-20950.605000	-11907.315000	12525.300000	290466.720000	300545.550000	297790.110000	-8806.545000	-1717.920000	0.756875	2.637530	0.412445	-44.996904	-45.193050	-44.950537	0.939170	-4.639827	5.661460	-4.425400	2.151660	-0.570189	-0.051697	0.805784	-1.000000	-1.000000	-1.000000	-1.000000	-1.000000	-1.000000	-1.000000	53.000000	0.000000	-1.000000	-1.000000	196847.000000	1775787307.192628
-20947.005000	-11905.335000	12525.615000	290442.870000	300520.935000	297765.495000	-8796.960000	-1709.640000	2.740767	1.284241	-2.347345	-36.792928	-37.499855	-37.448062	-2.439721	-3.482993	5.661460	-4.425400	2.151660	-0.570189	-0.051697	0.805784	-1.000000	-1.000000	-1.000000	-1.000000	-1.000000	-1.000000	-1.000000	53.000000	0.000000	-1.000000	-1.000000	196848.000000	1775787307.192647
-20950.200000	-11907.630000	12524.895000	290445.255000	300523.500000	297767.655000	-8788.455000	-1705.815000	3.132544	-0.436177	-3.631450	-13.213227	-14.097920	-14.254439	-3.447401	-0.015034	5.661460	-4.425400	2.151660	-0.570189	-0.051697	0.805784	-1.000000	-1.000000	-1.000000	-1.000000	-1.000000	-1.000000	-1.000000	53.000000	0.000000	-1.000000	-1.000000	196849.000000	1775787307.194664
-20952.720000	-11901.555000	12537.090000	290424.825000	300503.205000	297747.585000	-8787.780000	-1701.630000	2.239346	-1.753506	-3.268904	6.609651	5.833263	5.554648	-1.836446	4.003673	5.661460	-4.425400	2.151660	-0.570189	-0.051697	0.805784	-1.000000	-1.000000	-1.000000	-1.000000	-1.000000	-1.000000	-1.000000	53.000000	0.000000	-1.000000	-1.000000	196850.000000	1775787307.194679
-20942.190000	-11902.140000	12532.770000	290379.240000	300457.620000	297701.775000	-8794.395000	-1696.410000	0.995694	-1.903467	-1.378436	12.912024	12.437487	12.170913	0.428751	6.426986	2.517900	-3.143560	1.205540	-0.573668	-0.047424	0.807127	-1.000000	-1.000000	-1.000000	-1.000000	-1.000000	-1.000000	-1.000000	53.000000	0.000000	-1.000000	-1.000000	196851.000000	1775787307.197345
-20934.900000	-11904.120000	12529.530000	290462.670000	300541.995000	297786.375000	-8797.995000	-1691.775000	0.596686	-1.043271	0.798661	8.368451	8.285508	8.147979	0.906218	6.164337	2.517900	-3.143560	1.205540	-0.573668	-0.047424	0.807127	-1.000000	-1.000000	-1.000000	-1.000000	-1.000000	-1.000000	-1.000000	53.000000	0.000000	-1.000000	-1.000000	196852.000000	1775787307.197358
-20927.925000	-11897.190000	12532.230000	290446.515000	300526.155000	297770.490000	-8801.685000	-1695.780000	1.513476	-0.013790	1.628470	4.126500	4.424204	4.464819	-0.903295	3.490062	2.517900	-3.143560	1.205540	-0.573668	-0.047424	0.807127	-1.000000	-1.000000	-1.000000	-1.000000	-1.000000	-1.000000	-1.000000	53.000000	0.000000	-1.000000	-1.000000	196853.000000	1775787307.198809
-20936.070000	-11898.945000	12530.205000	290431.260000	300510.630000	297754.740000	-8806.230000	-1705.455000	2.517184	0.688223	0.895390	6.127989	6.680734	6.863886	-3.376681	-0.763070	2.517900	-3.143560	1.205540	-0.573668	-0.047424	0.807127	-1.000000	-1.000000	-1.000000	-1.000000	-1.000000	-1.000000	-1.000000	53.000000	0.000000	-1.000000	-1.000000	196854.000000	1775787307.198822
-20928.690000	-11893.410000	12530.745000	290369.205000	300447.045000	297691.425000	-8801.595000	-1703.475000	1.829812	0.991799	-0.383259	7.995582	8.532964	8.763215	-4.432737	-5.318261	2.517900	-3.143560	1.205540	-0.573668	-0.047424	0.807127	-1.000000	-1.000000	-1.000000	-1.000000	-1.000000	-1.000000	-1.000000	53.000000	0.000000	-1.000000	-1.000000	196855.000000	1775787307.207337
-20943.180000	-11908.485000	12518.820000	290455.830000	300534.030000	297778.005000	-8803.530000	-1710.360000	-0.889336	0.636692	-1.446900	4.025902	4.237921	4.419753	-2.988229	-8.232178	2.517900	-3.143560	1.205540	-0.573668	-0.047424	0.807127	-1.000000	-1.000000	-1.000000	-1.000000	-1.000000	-1.000000	-1.000000	53.000000	0.000000	-1.000000	-1.000000	196856.000000	1775787307.207355
-20949.840000	-11911.230000	12519.135000	290463.660000	300541.860000	297785.475000	-8808.165000	-1716.615000	-4.576317	-0.821956	-2.204474	-0.075998	-0.288232	-0.219148	0.213811	-8.159260	2.517900	-3.143560	1.205540	-0.573668	-0.047424	0.807127	-1.000000	-1.000000	-1.000000	-1.000000	-1.000000	-1.000000	-1.000000	53.000000	0.000000	-1.000000	-1.000000	196857.000000	1775787307.207375
-20945.340000	-11905.650000	12525.480000	290444.535000	300522.600000	297766.035000	-8811.630000	-1719.090000	-7.435706	-2.791210	-2.263646	1.820306	1.387611	1.315892	3.103734	-5.431250	2.517900	-3.143560	1.205540	-0.573668	-0.047424	0.807127	-1.000000	-1.000000	-1.000000	-1.000000	-1.000000	-1.000000	-1.000000	53.000000	0.000000	-1.000000	-1.000000	196858.000000	1775787307.207386
-20949.930000	-11911.455000	12518.820000	290443.275000	300521.880000	297765.225000	-8818.470000	-1725.525000	-7.425837	-3.490896	-0.958086	5.273933	4.938568	4.759352	4.065763	-1.375085	2.517900	-3.143560	1.205540	-0.573668	-0.047424	0.807127	-1.000000	-1.000000	-1.000000	-1.000000	-1.000000	-1.000000	-1.000000	53.000000	0.000000	-1.000000	-1.000000	196859.000000	1775787307.218133
-20932.335000	-11896.740000	12534.300000	290397.420000	300475.755000	297719.370000	-8814.600000	-1714.545000	-3.765334	-1.891871	1.450803	3.005357	2.976775	2.790492	3.114004	2.768228	2.517900	-3.143560	1.205540	-0.573668	-0.047424	0.807127	-1.000000	-1.000000	-1.000000	-1.000000	-1.000000	-1.000000	-1.000000	53.000000	0.000000	-1.000000	-1.000000	196860.000000	1775787307.218230
-20924.595000	-11889.585000	12539.970000	290377.170000	300455.280000	297698.805000	-8806.905000	-1705.860000	2.441474	1.585202	4.117337	-6.166331	-5.894186	-5.971405	1.752039	6.469388	-0.412020	1.922760	-1.205540	-0.582579	-0.044739	0.810118	-1.000000	-1.000000	-1.000000	-1.000000	-1.000000	-1.000000	-1.000000	53.000000	0.000000	-1.000000	-1.000000	196861.000000	1775787307.218250
-20940.885000	-11893.950000	12542.580000	290460.060000	300539.295000	297782.505000	-8799.255000	-1704.555000	8.179321	5.245982	6.033629	-15.114759	-14.707735	-14.629842	1.594002	9.220231	-0.412020	1.922760	-1.205540	-0.582579	-0.044739	0.810118	-1.000000	-1.000000	-1.000000	-1.000000	-1.000000	-1.000000	-1.000000	53.000000	0.000000	-1.000000	-1.000000	196862.000000	1775787307.218260
-20950.335000	-11898.810000	12539.340000	290447.775000	300526.830000	297769.995000	-8798.130000	-1704.510000	9.388236	6.434567	5.774528	-13.206277	-12.823389	-12.652822	2.648115	9.641821	-0.412020	1.922760	-1.205540	-0.582579	-0.044739	0.810118	-1.000000	-1.000000	-1.000000	-1.000000	-1.000000	-1.000000	-1.000000	53.000000	0.000000	-1.000000	-1.000000	196863.000000	1775787307.218737
-20949.030000	-11917.620000	12515.040000	290375.595000	300453.435000	297696.015000	-8801.100000	-1710.945000	4.838327	3.471574	2.216187	-1.226043	-0.984859	-0.838528	3.224632	6.572604	-0.412020	1.922760	-1.205540	-0.582579	-0.044739	0.810118	-1.000000	-1.000000	-1.000000	-1.000000	-1.000000	-1.000000	-1.000000	53.000000	0.000000	-1.000000	-1.000000	196864.000000	1775787307.218750
-20932.605000	-11903.940000	12521.970000	290426.625000	300504.420000	297746.595000	-8797.140000	-1702.485000	-1.620020	-2.289014	-3.962494	8.239532	8.209632	8.235370	1.833133	0.838317	-0.412020	1.922760	-1.205540	-0.582579	-0.044739	0.810118	-1.000000	-1.000000	-1.000000	-1.000000	-1.000000	-1.000000	-1.000000	53.000000	0.000000	-1.000000	-1.000000	196865.000000	1775787307.274671
-20934.720000	-11907.045000	12517.155000	290455.560000	300533.895000	297775.755000	-8801.505000	-1706.670000	-4.838891	-6.783182	-9.347881	10.205262	9.872555	9.750462	-1.202698	-4.804275	-0.412020	1.922760	-1.205540	-0.582579	-0.044739	0.810118	-1.000000	-1.000000	-1.000000	-1.000000	-1.000000	-1.000000	-1.000000	53.000000	0.000000	-1.000000	-1.000000	196866.000000	1775787307.274695
-20933.280000	-11901.690000	12525.255000	290412.765000	300490.830000	297732.285000	-8805.600000	-1708.020000	-3.571396	-6.816436	-10.108901	9.298855	8.838297	8.626694	-4.391063	-7.928459	-0.412020	1.922760	-1.205540	-0.582579	-0.044739	0.810118	-1.000000	-1.000000	-1.000000	-1.000000	-1.000000	-1.000000	-1.000000	53.000000	0.000000	-1.000000	-1.000000	196867.000000	1775787307.274720
-20925.405000	-11890.260000	12538.215000	290411.910000	300490.155000	297731.250000	-8801.505000	-1704.960000	-0.363127	-2.691588	-5.311910	6.366645	6.030418	5.834153	-6.288990	-7.955082	-0.412020	1.922760	-1.205540	-0.582579	-0.044739	0.810118	-1.000000	-1.000000	-1.000000	-1.000000	-1.000000	-1.000000	-1.000000	53.000000	0.000000	-1.000000	-1.000000	196868.000000	1775787307.274728
-20932.155000	-11899.395000	12529.800000	290457.180000	300537.180000	297778.140000	-8798.130000	-1706.805000	2.002162	2.770080	2.438326	0.876231	0.836051	0.745704	-5.820938	-5.553865	-0.412020	1.922760	-1.205540	-0.582579	-0.044739	0.810118	-1.000000	-1.000000	-1.000000	-1.000000	-1.000000	-1.000000	-1.000000	53.000000	0.000000	-1.000000	-1.000000	196869.000000	1775787307.274738
-20941.695000	-11909.745000	12522.105000	290442.420000	300522.420000	297762.930000	-8802.270000	-1713.825000	1.926665	5.863266	8.288441	-3.043257	-2.727995	-2.673184	-3.035463	-2.166804	-0.412020	1.922760	-1.205540	-0.582579	-0.044739	0.810118	-1.000000	-1.000000	-1.000000	-1.000000	-1.000000	-1.000000	-1.000000	53.000000	0.000000	-1.000000	-1.000000	196870.000000	1775787307.274746
-20942.190000	-11909.340000	12523.320000	290438.955000	300518.730000	297758.745000	-8813.250000	-1718.235000	-0.655619	4.475188	8.694857	-3.341730	-2.786295	-2.617177	0.252348	0.452816	-6.500760	2.334780	-4.440660	-0.583311	-0.044922	0.813474	-1.000000	-1.000000	-1.000000	-1.000000	-1.000000	-1.000000	-1.000000	53.000000	0.000000	-1.000000	-1.000000	196871.000000	1775787307.274755
-20954.205000	-11909.295000	12525.480000	290440.530000	300519.945000	297759.330000	-8807.310000	-1715.715000	-3.969250	0.249141	4.558538	-2.858446	-2.371887	-2.179039	2.043967	1.587525	-6.500760	2.334780	-4.440660	-0.583311	-0.044922	0.813474	-1.000000	-1.000000	-1.000000	-1.000000	-1.000000	-1.000000	-1.000000	53.000000	0.000000	-1.000000	-1.000000	196872.000000	1775787307.274762
-20955.735000	-11907.540000	12527.460000	290441.025000	300520.305000	297759.150000	-8792.145000	-1710.855000	-5.832525	-3.205176	-0.356027	-3.483668	-3.378290	-3.259184	2.579566	2.063303	-6.500760	2.334780	-4.440660	-0.583311	-0.044922	0.813474	-1.000000	-1.000000	-1.000000	-1.000000	-1.000000	-1.000000	-1.000000	53.000000	0.000000	-1.000000	-1.000000	196873.000000	1775787307.274771
-20940.975000	-11903.265000	12525.795000	290438.460000	300517.920000	297755.820000	-8806.905000	-1720.710000	-4.777168	-3.660044	-3.183064	-4.389817	-4.747906	-4.754510	3.237735	2.704855	-6.500760	2.334780	-4.440660	-0.583311	-0.044922	0.813474	-1.000000	-1.000000	-1.000000	-1.000000	-1.000000	-1.000000	-1.000000	53.000000	0.000000	-1.000000	-1.000000	196874.000000	1775787307.274779
-20929.185000	-11894.085000	12532.320000	290434.635000	300514.095000	297751.770000	-8806.365000	-1720.170000	-0.235488	-1.250261	-3.390559	-4.455367	-5.082634	-5.200728	3.543293	3.014997	-6.500760	2.334780	-4.440660	-0.583311	-0.044922	0.813474	-1.000000	-1.000000	-1.000000	-1.000000	-1.000000	-1.000000	-1.000000	53.000000	0.000000	-1.000000	-1.000000	196875.000000	1775787307.274789
-20930.805000	-11898.090000	12530.250000	290435.895000	300515.580000	297752.895000	-8797.410000	-1712.520000	6.113294	2.219632	-1.897580	-3.350771	-3.928318	-4.074738	2.451625	2.492676	-6.500760	2.334780	-4.440660	-0.583311	-0.044922	0.813474	-1.000000	-1.000000	-1.000000	-1.000000	-1.000000	-1.000000	-1.000000	53.000000	0.000000	-1.000000	-1.000000	196876.000000	1775787307.274796
-20928.600000	-11903.220000	12522.555000	290437.695000	300518.010000	297755.190000	-8798.760000	-1710.315000	10.329299	4.186811	-0.270272	-1.209782	-1.482077	-1.539897	0.756215	1.825618	-6.500760	2.334780	-4.440660	-0.583311	-0.044922	0.813474	-1.000000	-1.000000	-1.000000	-1.000000	-1.000000	-1.000000	-1.000000	53.000000	0.000000	-1.000000	-1.000000	196877.000000	1775787307.274805
-20921.445000	-11896.605000	12531.420000	290436.480000	300517.290000	297754.515000	-8800.380000	-1707.660000	9.620373	3.203020	0.256424	1.470548	1.601076	1.711944	-0.461300	1.597403	-6.500760	2.334780	-4.440660	-0.583311	-0.044922	0.813474	-1.000000	-1.000000	-1.000000	-1.000000	-1.000000	-1.000000	-1.000000	53.000000	0.000000	-1.000000	-1.000000	196878.000000	1775787307.274813
-20919.870000	-11894.355000	12535.335000	290432.610000	300513.060000	297750.150000	-8811.765000	-1710.765000	4.780356	0.425222	0.079173	3.638091	4.082845	4.358631	-1.454996	1.311914	-6.500760	2.334780	-4.440660	-0.583311	-0.044922	0.813474	-1.000000	-1.000000	-1.000000	-1.000000	-1.000000	-1.000000	-1.000000	53.000000	0.000000	-1.000000	-1.000000	196879.000000	1775787307.274824
-20938.815000	-11911.770000	12517.335000	290440.575000	300520.530000	297757.260000	-8807.085000	-1715.490000	-1.682741	-2.217951	-0.026544	4.418423	4.921668	5.267702	-2.689582	0.139087	-6.500760	2.334780	-4.440660	-0.583311	-0.044922	0.813474	-1.000000	-1.000000	-1.000000	-1.000000	-1.000000	-1.000000	-1.000000	53.000000	0.000000	-1.000000	-1.000000	196880.000000	1775787307.274858
-20955.375000	-11919.015000	12511.440000	290446.380000	300526.155000	297762.030000	-8808.930000	-1723.320000	-8.097056	-4.335365	-0.720756	4.111065	4.380598	4.637316	-3.490276	-2.108226	-4.196500	3.921820	-1.312360	-0.562743	-0.042908	0.812681	-1.000000	-1.000000	-1.000000	-1.000000	-1.000000	-1.000000	-1.000000	53.000000	0.000000	-1.000000	-1.000000	196881.000000	1775787307.274882
-20946.105000	-11912.580000	12516.030000	290442.645000	300522.060000	297757.845000	-8810.280000	-1724.805000	-12.706011	-5.690074	-2.238809	3.404757	3.300834	3.323317	-2.863998	-4.559755	-4.196500	3.921820	-1.312360	-0.562743	-0.042908	0.812681	-1.000000	-1.000000	-1.000000	-1.000000	-1.000000	-1.000000	-1.000000	53.000000	0.000000	-1.000000	-1.000000	196882.000000	1775787307.274891
-20947.770000	-11909.925000	12522.015000	290441.970000	300521.385000	297757.035000	-8813.745000	-1731.375000	-12.658337	-4.802354	-2.760487	2.119305	1.730057	1.500006	-1.017119	-5.758941	-4.196500	3.921820	-1.312360	-0.562743	-0.042908	0.812681	-1.000000	-1.000000	-1.000000	-1.000000	-1.000000	-1.000000	-1.000000	53.000000	0.000000	-1.000000	-1.000000	196883.000000	1775787307.274901
-20955.285000	-11909.925000	12527.370000	290443.680000	300523.230000	297758.835000	-8813.610000	-1735.020000	-7.046853	-1.074233	-0.694112	-0.003031	-0.439626	-0.785638	0.958366	-4.864906	-4.196500	3.921820	-1.312360	-0.562743	-0.042908	0.812681	-1.000000	-1.000000	-1.000000	-1.000000	-1.000000	-1.000000	-1.000000	53.000000	0.000000	-1.000000	-1.000000	196884.000000	1775787307.274908
-20963.340000	-11909.520000	12531.735000	290444.175000	300524.085000	297759.690000	-8806.365000	-1733.265000	0.946936	3.631167	3.113180	-2.225277	-2.461865	-2.734300	2.394810	-2.156658	-4.196500	3.921820	-1.312360	-0.562743	-0.042908	0.812681	-1.000000	-1.000000	-1.000000	-1.000000	-1.000000	-1.000000	-1.000000	53.000000	0.000000	-1.000000	-1.000000	196885.000000	1775787307.274918
-20948.040000	-11901.780000	12533.310000	290440.485000	300520.620000	297756.360000	-8796.690000	-1721.565000	7.310489	6.785234	6.169212	-3.558305	-3.462614	-3.538820	3.503529	1.674515	-4.196500	3.921820	-1.312360	-0.562743	-0.042908	0.812681	-1.000000	-1.000000	-1.000000	-1.000000	-1.000000	-1.000000	-1.000000	53.000000	0.000000	-1.000000	-1.000000	196886.000000	1775787307.274925
-20931.930000	-11898.405000	12532.320000	290438.145000	300518.505000	297754.065000	-8798.850000	-1710.990000	10.927429	7.326518	6.395439	-3.761939	-3.374171	-3.250025	4.383935	5.908015	-4.196500	3.921820	-1.312360	-0.562743	-0.042908	0.812681	-1.000000	-1.000000	-1.000000	-1.000000	-1.000000	-1.000000	-1.000000	53.000000	0.000000	-1.000000	-1.000000	196887.000000	1775787307.274935
-20921.760000	-11891.880000	12535.605000	290436.705000	300517.065000	297752.355000	-8792.550000	-1698.975000	12.549349	5.663250	3.546417	-3.125026	-2.625206	-2.404112	4.251795	9.346930	-4.196500	3.921820	-1.312360	-0.562743	-0.042908	0.812681	-1.000000	-1.000000	-1.000000	-1.000000	-1.000000	-1.000000	-1.000000	53.000000	0.000000	-1.000000	-1.000000	196888.000000	1775787307.274942
-20922.255000	-11894.895000	12531.285000	290434.635000	300514.455000	297749.700000	-8790.615000	-1698.480000	11.835838	2.637271	-0.826775	-1.920146	-1.539438	-1.366293	2.522927	10.257036	-4.196500	3.921820	-1.312360	-0.562743	-0.042908	0.812681	-1.000000	-1.000000	-1.000000	-1.000000	-1.000000	-1.000000	-1.000000	53.000000	0.000000	-1.000000	-1.000000	196889.000000	1775787307.274951
-20931.480000	-11900.565000	12528.180000	290438.910000	300517.920000	297752.670000	-8794.125000	-1707.480000	7.364719	-1.127752	-4.752107	-0.308318	-0.239679	-0.214101	-0.354847	7.132619	-4.196500	3.921820	-1.312360	-0.562743	-0.042908	0.812681	-1.000000	-1.000000	-1.000000	-1.000000	-1.000000	-1.000000	-1.000000	53.000000	0.000000	-1.000000	-1.000000	196890.000000	1775787307.274959
-20928.510000	-11895.255000	12535.245000	290440.575000	300519.540000	297754.155000	-8800.065000	-1709.370000	-0.723898	-4.843644	-6.750404	1.562790	1.254548	1.118517	-3.568397	0.128424	1.556520	5.814060	2.105880	-0.552733	-0.047790	0.811888	-1.000000	-1.000000	-1.000000	-1.000000	-1.000000	-1.000000	-1.000000	53.000000	0.000000	-1.000000	-1.000000	196891.000000	1775787307.276856
-20925.765000	-11892.870000	12536.010000	290391.075000	300469.545000	297704.250000	-8800.785000	-1709.685000	-9.179365	-6.975905	-5.958713	2.367511	1.807854	1.578913	-6.209373	-7.891512	1.556520	5.814060	2.105880	-0.552733	-0.047790	0.811888	-1.000000	-1.000000	-1.000000	-1.000000	-1.000000	-1.000000	-1.000000	53.000000	0.000000	-1.000000	-1.000000	196892.000000	1775787307.276876
-20932.290000	-11899.890000	12526.650000	290402.280000	300480.660000	297715.860000	-8802.945000	-1715.940000	-13.898809	-6.479647	-3.004123	0.128415	-0.426200	-0.616553	-7.138199	-12.940091	1.556520	5.814060	2.105880	-0.552733	-0.047790	0.811888	-1.000000	-1.000000	-1.000000	-1.000000	-1.000000	-1.000000	-1.000000	53.000000	0.000000	-1.000000	-1.000000	196893.000000	1775787307.278110
-20943.540000	-11910.420000	12518.730000	290469.330000	300549.285000	297784.620000	-8816.715000	-1730.160000	-13.546937	-4.316914	-0.139330	-2.325981	-2.605582	-2.626555	-5.904689	-13.153312	1.556520	5.814060	2.105880	-0.552733	-0.047790	0.811888	-1.000000	-1.000000	-1.000000	-1.000000	-1.000000	-1.000000	-1.000000	53.000000	0.000000	-1.000000	-1.000000	196894.000000	1775787307.278128
-20946.240000	-11912.445000	12518.460000	290451.690000	300531.780000	297766.980000	-8813.520000	-1735.245000	-9.715445	-2.269744	0.970042	1.079605	1.267905	1.447682	-3.291598	-9.600543	1.556520	5.814060	2.105880	-0.552733	-0.047790	0.811888	-1.000000	-1.000000	-1.000000	-1.000000	-1.000000	-1.000000	-1.000000	53.000000	0.000000	-1.000000	-1.000000	196895.000000	1775787307.282023
-20948.895000	-11913.345000	12518.145000	290441.610000	300521.340000	297756.270000	-8810.010000	-1736.280000	-4.389574	-0.787114	0.868592	8.552482	9.182255	9.450797	-0.029825	-4.161189	1.556520	5.814060	2.105880	-0.552733	-0.047790	0.811888	-1.000000	-1.000000	-1.000000	-1.000000	-1.000000	-1.000000	-1.000000	53.000000	0.000000	-1.000000	-1.000000	196896.000000	1775787307.282041
-20945.430000	-11908.710000	12523.860000	290444.895000	300523.995000	297759.150000	-8806.680000	-1729.080000	1.259141	0.946408	1.149553	11.429023	12.177585	12.361968	3.655892	2.016993	1.556520	5.814060	2.105880	-0.552733	-0.047790	0.811888	-1.000000	-1.000000	-1.000000	-1.000000	-1.000000	-1.000000	-1.000000	53.000000	0.000000	-1.000000	-1.000000	196897.000000	1775787307.285435
-20932.830000	-11898.630000	12532.950000	290438.595000	300517.335000	297752.220000	-8796.735000	-1710.855000	6.537114	3.543803	2.678128	6.138824	6.576244	6.575770	7.059601	8.248920	1.556520	5.814060	2.105880	-0.552733	-0.047790	0.811888	-1.000000	-1.000000	-1.000000	-1.000000	-1.000000	-1.000000	-1.000000	53.000000	0.000000	-1.000000	-1.000000	196898.000000	1775787307.285455
-20939.985000	-11908.350000	12523.050000	290446.695000	300525.300000	297759.825000	-8805.870000	-1717.245000	10.492746	6.275706	4.696090	-3.162680	-3.268111	-3.442802	8.773087	13.198259	1.556520	5.814060	2.105880	-0.552733	-0.047790	0.811888	-1.000000	-1.000000	-1.000000	-1.000000	-1.000000	-1.000000	-1.000000	53.000000	0.000000	-1.000000	-1.000000	196899.000000	1775787307.292868
-20947.950000	-11915.775000	12514.005000	290444.085000	300522.780000	297757.350000	-8817.345000	-1733.670000	11.288488	6.981929	4.991057	-10.293224	-10.835780	-11.108224	7.168820	14.035907	1.556520	5.814060	2.105880	-0.552733	-0.047790	0.811888	-1.000000	-1.000000	-1.000000	-1.000000	-1.000000	-1.000000	-1.000000	53.000000	0.000000	-1.000000	-1.000000	196900.000000	1775787307.292893
-20947.680000	-11913.345000	12515.535000	290450.430000	300529.485000	297763.920000	-8817.570000	-1735.650000	7.744294	4.323953	2.249041	-11.770369	-12.409854	-12.673750	2.010763	8.696886	1.663340	3.052000	1.938020	-0.563353	-0.052551	0.810301	-1.000000	-1.000000	-1.000000	-1.000000	-1.000000	-1.000000	-1.000000	53.000000	0.000000	-1.000000	-1.000000	196901.000000	1775787307.294160
-20936.025000	-11897.370000	12532.680000	290438.010000	300517.335000	297751.905000	-8811.045000	-1725.615000	1.756780	0.163666	-1.578121	-8.280971	-8.668571	-8.820308	-3.964366	-0.358931	1.663340	3.052000	1.938020	-0.563353	-0.052551	0.810301	-1.000000	-1.000000	-1.000000	-1.000000	-1.000000	-1.000000	-1.000000	53.000000	0.000000	-1.000000	-1.000000	196902.000000	1775787307.294176
-20929.635000	-11891.205000	12539.700000	290438.145000	300517.920000	297752.220000	-8800.830000	-1712.385000	-2.811401	-2.080119	-2.990358	-3.116122	-3.081823	-3.068942	-6.782599	-7.229784	1.663340	3.052000	1.938020	-0.563353	-0.052551	0.810301	-1.000000	-1.000000	-1.000000	-1.000000	-1.000000	-1.000000	-1.000000	53.000000	0.000000	-1.000000	-1.000000	196903.000000	1775787307.308710
-20937.330000	-11905.380000	12524.895000	290439.810000	300519.315000	297753.525000	-8797.005000	-1706.625000	-4.057412	-1.625576	-1.377087	0.973275	1.358395	1.507116	-4.848449	-8.033258	1.663340	3.052000	1.938020	-0.563353	-0.052551	0.810301	-1.000000	-1.000000	-1.000000	-1.000000	-1.000000	-1.000000	-1.000000	53.000000	0.000000	-1.000000	-1.000000	196904.000000	1775787307.308734
-20943.180000	-11918.340000	12512.475000	290444.850000	300524.085000	297757.980000	-8802.630000	-1711.215000	-3.529490	-1.224553	0.024200	3.498424	3.981071	4.174898	-0.365412	-4.147508	1.663340	3.052000	1.938020	-0.563353	-0.052551	0.810301	-1.000000	-1.000000	-1.000000	-1.000000	-1.000000	-1.000000	-1.000000	53.000000	0.000000	-1.000000	-1.000000	196905.000000	1775787307.308760
-20943.765000	-11915.865000	12513.105000	290423.205000	300501.720000	297735.435000	-8809.155000	-1718.370000	-3.427828	-3.009227	-1.373681	4.629335	4.915922	5.058895	2.696253	-0.211391	1.663340	3.052000	1.938020	-0.563353	-0.052551	0.810301	-1.000000	-1.000000	-1.000000	-1.000000	-1.000000	-1.000000	-1.000000	53.000000	0.000000	-1.000000	-1.000000	196906.000000	1775787307.308772
-20940.390000	-11912.220000	12513.690000	290384.910000	300462.165000	297695.565000	-8808.435000	-1719.900000	-3.809440	-5.322064	-4.082773	3.099715	3.000233	3.040529	2.198222	0.456589	1.663340	3.052000	1.938020	-0.563353	-0.052551	0.810301	-1.000000	-1.000000	-1.000000	-1.000000	-1.000000	-1.000000	-1.000000	53.000000	0.000000	-1.000000	-1.000000	196907.000000	1775787307.309192
-20938.005000	-11908.845000	12518.595000	290411.595000	300489.030000	297721.935000	-8804.520000	-1716.570000	-3.276424	-5.089104	-4.798255	-1.281279	-1.761573	-1.822064	-0.522007	-1.586635	1.663340	3.052000	1.938020	-0.563353	-0.052551	0.810301	-1.000000	-1.000000	-1.000000	-1.000000	-1.000000	-1.000000	-1.000000	53.000000	0.000000	-1.000000	-1.000000	196908.000000	1775787307.309210
-20941.560000	-11911.365000	12517.605000	290443.545000	300521.565000	297753.930000	-8803.935000	-1719.540000	-1.291454	-1.703464	-2.234847	-3.703525	-4.318680	-4.449174	-2.580126	-3.505202	1.663340	3.052000	1.938020	-0.563353	-0.052551	0.810301	-1.000000	-1.000000	-1.000000	-1.000000	-1.000000	-1.000000	-1.000000	53.000000	0.000000	-1.000000	-1.000000	196909.000000	1775787307.311490
-20942.190000	-11911.815000	12517.920000	290399.985000	300478.185000	297710.820000	-8803.305000	-1721.160000	1.078408	2.584120	1.973964	-0.036468	-0.402391	-0.550481	-2.478223	-3.445090	1.663340	3.052000	1.938020	-0.563353	-0.052551	0.810301	-1.000000	-1.000000	-1.000000	-1.000000	-1.000000	-1.000000	-1.000000	53.000000	0.000000	-1.000000	-1.000000	196910.000000	1775787307.311510
-20943.405000	-11912.130000	12518.505000	290439.585000	300518.370000	297750.915000	-8804.250000	-1724.445000	2.479909	5.159484	5.153144	6.196959	6.341857	6.263322	-0.837851	-1.672866	-2.456860	0.839300	-0.442540	-0.567137	-0.050049	0.805357	-1.000000	-1.000000	-1.000000	-1.000000	-1.000000	-1.000000	-1.000000	53.000000	0.000000	-1.000000	-1.000000	196911.000000	1775787307.321278
-20941.335000	-11909.385000	12521.880000	290463.480000	300542.985000	297774.900000	-8807.895000	-1725.210000	2.568623	5.126480	5.824818	10.277086	10.907496	10.967863	0.813183	0.565045	-2.456860	0.839300	-0.442540	-0.567137	-0.050049	0.805357	-1.000000	-1.000000	-1.000000	-1.000000	-1.000000	-1.000000	-1.000000	53.000000	0.000000	-1.000000	-1.000000	196912.000000	1775787307.321301
-20937.870000	-11904.705000	12526.650000	290450.475000	300529.845000	297761.445000	-8810.595000	-1725.075000	1.967788	3.382818	4.353460	11.315506	12.163850	12.330450	1.347988	2.304887	-2.456860	0.839300	-0.442540	-0.567137	-0.050049	0.805357	-1.000000	-1.000000	-1.000000	-1.000000	-1.000000	-1.000000	-1.000000	53.000000	0.000000	-1.000000	-1.000000	196913.000000	1775787307.321326
-20939.670000	-11908.665000	12520.935000	290387.970000	300465.945000	297697.320000	-8809.560000	-1725.435000	1.374216	1.271288	1.883246	7.033608	7.703141	7.867827	0.754101	3.219480	-2.456860	0.839300	-0.442540	-0.567137	-0.050049	0.805357	-1.000000	-1.000000	-1.000000	-1.000000	-1.000000	-1.000000	-1.000000	53.000000	0.000000	-1.000000	-1.000000	196914.000000	1775787307.321337
-20944.395000	-11913.660000	12516.435000	290431.485000	300509.190000	297740.205000	-8813.025000	-1727.460000	0.763678	-0.700855	-0.914218	-4.061096	-3.940029	-3.858464	-0.111973	3.288820	-2.456860	0.839300	-0.442540	-0.567137	-0.050049	0.805357	-1.000000	-1.000000	-1.000000	-1.000000	-1.000000	-1.000000	-1.000000	53.000000	0.000000	-1.000000	-1.000000	196915.000000	1775787307.325095
-20941.470000	-11911.050000	12519.270000	290407.005000	300484.395000	297715.185000	-8815.725000	-1727.055000	-0.198889	-2.505211	-3.534442	-15.556480	-16.092754	-16.103934	-0.562915	2.583000	-2.456860	0.839300	-0.442540	-0.567137	-0.050049	0.805357	-1.000000	-1.000000	-1.000000	-1.000000	-1.000000	-1.000000	-1.000000	53.000000	0.000000	-1.000000	-1.000000	196916.000000	1775787307.325121
-20939.445000	-11912.085000	12519.225000	290426.040000	300503.655000	297734.175000	-8815.455000	-1726.650000	-1.153376	-3.580453	-4.910264	-18.867765	-19.795845	-19.858986	-0.501811	1.415467	-2.456860	0.839300	-0.442540	-0.567137	-0.050049	0.805357	-1.000000	-1.000000	-1.000000	-1.000000	-1.000000	-1.000000	-1.000000	53.000000	0.000000	-1.000000	-1.000000	196917.000000	1775787307.327798
-20953.440000	-11927.745000	12503.700000	290471.355000	300550.680000	297780.705000	-8823.735000	-1739.205000	-1.620926	-3.570653	-4.537414	-11.495133	-12.310753	-12.377088	-0.153279	0.053926	-2.456860	0.839300	-0.442540	-0.567137	-0.050049	0.805357	-1.000000	-1.000000	-1.000000	-1.000000	-1.000000	-1.000000	-1.000000	53.000000	0.000000	-1.000000	-1.000000	196918.000000	1775787307.327823
-20953.980000	-11926.080000	12505.185000	290455.695000	300535.470000	297765.405000	-8826.660000	-1744.245000	-1.958806	-3.059727	-3.293151	2.810715	2.576662	2.533117	0.052350	-1.623054	-2.456860	0.839300	-0.442540	-0.567137	-0.050049	0.805357	-1.000000	-1.000000	-1.000000	-1.000000	-1.000000	-1.000000	-1.000000	53.000000	0.000000	-1.000000	-1.000000	196919.000000	1775787307.332825
-20961.495000	-11930.895000	12499.920000	290453.580000	300533.310000	297762.975000	-8829.990000	-1753.470000	-2.402918	-2.302894	-1.905051	15.109866	15.589745	15.578511	-0.082398	-3.425151	-2.456860	0.839300	-0.442540	-0.567137	-0.050049	0.805357	-1.000000	-1.000000	-1.000000	-1.000000	-1.000000	-1.000000	-1.000000	53.000000	0.000000	-1.000000	-1.000000	196920.000000	1775787307.332848
-20947.905000	-11912.895000	12519.585000	290441.430000	300520.800000	297750.195000	-8820.945000	-1738.755000	-2.120024	-0.526322	0.131276	16.966791	17.837392	17.862411	-0.005086	-4.099240	-3.799740	0.030520	0.534100	-0.565306	-0.045837	0.802488	-1.000000	-1.000000	-1.000000	-1.000000	-1.000000	-1.000000	-1.000000	53.000000	0.000000	-1.000000	-1.000000	196921.000000	1775787307.387445
-20923.785000	-11887.875000	12543.030000	290384.235000	300462.480000	297691.155000	-8812.755000	-1716.885000	0.325101	3.242458	3.835873	7.074250	7.771575	7.814460	1.171214	-1.782418	-3.799740	0.030520	0.534100	-0.565306	-0.045837	0.802488	-1.000000	-1.000000	-1.000000	-1.000000	-1.000000	-1.000000	-1.000000	53.000000	0.000000	-1.000000	-1.000000	196922.000000	1775787307.387467
-20920.590000	-11884.230000	12548.250000	290443.005000	300521.340000	297749.655000	-8813.295000	-1713.780000	5.104992	8.422645	8.779733	-8.055517	-7.962498	-7.948129	3.320692	3.717163	-3.799740	0.030520	0.534100	-0.565306	-0.045837	0.802488	-1.000000	-1.000000	-1.000000	-1.000000	-1.000000	-1.000000	-1.000000	53.000000	0.000000	-1.000000	-1.000000	196923.000000	1775787307.387498
-20934.945000	-11901.690000	12531.735000	290453.805000	300532.275000	297760.230000	-8805.465000	-1718.100000	9.020645	11.304974	11.425071	-16.604034	-17.138860	-17.185815	4.872578	8.926509	-3.799740	0.030520	0.534100	-0.565306	-0.045837	0.802488	-1.000000	-1.000000	-1.000000	-1.000000	-1.000000	-1.000000	-1.000000	53.000000	0.000000	-1.000000	-1.000000	196924.000000	1775787307.387508
-20930.850000	-11896.695000	12538.620000	290444.085000	300522.735000	297750.375000	-8800.560000	-1714.320000	7.823438	7.905902	7.966174	-11.758141	-12.553554	-12.640012	4.488950	9.379622	-3.799740	0.030520	0.534100	-0.565306	-0.045837	0.802488	-1.000000	-1.000000	-1.000000	-1.000000	-1.000000	-1.000000	-1.000000	53.000000	0.000000	-1.000000	-1.000000	196925.000000	1775787307.387520
-20935.170000	-11905.695000	12526.830000	290447.910000	300527.010000	297754.380000	-8791.380000	-1713.735000	1.376227	-0.915145	-0.783216	0.550833	-0.033575	-0.099217	2.376755	4.326218	-3.799740	0.030520	0.534100	-0.565306	-0.045837	0.802488	-1.000000	-1.000000	-1.000000	-1.000000	-1.000000	-1.000000	-1.000000	53.000000	0.000000	-1.000000	-1.000000	196926.000000	1775787307.387529
-20950.155000	-11927.340000	12502.080000	290453.715000	300533.175000	297760.770000	-8800.020000	-1730.115000	-6.440003	-10.348389	-10.368963	10.095364	10.009402	10.024404	-0.556059	-3.286321	-3.799740	0.030520	0.534100	-0.565306	-0.045837	0.802488	-1.000000	-1.000000	-1.000000	-1.000000	-1.000000	-1.000000	-1.000000	53.000000	0.000000	-1.000000	-1.000000	196927.000000	1775787307.387541
-20960.505000	-11938.050000	12491.325000	290454.345000	300533.985000	297761.535000	-8823.240000	-1754.550000	-11.936161	-16.301874	-16.898733	12.244438	12.647436	12.779104	-4.192940	-10.416862	-3.799740	0.030520	0.534100	-0.565306	-0.045837	0.802488	-1.000000	-1.000000	-1.000000	-1.000000	-1.000000	-1.000000	-1.000000	53.000000	0.000000	-1.000000	-1.000000	196928.000000	1775787307.387550
-20955.780000	-11930.535000	12498.480000	290453.445000	300533.085000	297760.230000	-8821.080000	-1755.270000	-13.045868	-16.422414	-17.620285	8.085798	8.727720	8.954780	-8.447714	-14.959284	-3.799740	0.030520	0.534100	-0.565306	-0.045837	0.802488	-1.000000	-1.000000	-1.000000	-1.000000	-1.000000	-1.000000	-1.000000	53.000000	0.000000	-1.000000	-1.000000	196929.000000	1775787307.387561
-20935.215000	-11902.725000	12530.970000	290443.320000	300522.600000	297749.655000	-8804.385000	-1735.245000	-8.579710	-9.348423	-10.488815	0.951525	1.497094	1.723483	-10.801439	-14.186772	-3.799740	0.030520	0.534100	-0.565306	-0.045837	0.802488	-1.000000	-1.000000	-1.000000	-1.000000	-1.000000	-1.000000	-1.000000	53.000000	0.000000	-1.000000	-1.000000	196930.000000	1775787307.387570
-20938.635000	-11897.145000	12545.370000	290443.860000	300522.465000	297748.935000	-8791.965000	-1720.080000	0.588229	3.520176	3.521470	-5.806767	-5.619562	-5.512397	-7.705650	-6.074694	-3.097780	-0.671440	0.350980	-0.572203	-0.043640	0.801512	-1.000000	-1.000000	-1.000000	-1.000000	-1.000000	-1.000000	-1.000000	53.000000	0.000000	-1.000000	-1.000000	196931.000000	1775787307.387581
-20949.120000	-11910.915000	12529.755000	290445.930000	300524.040000	297750.105000	-8786.970000	-1705.005000	9.799440	15.971285	17.859134	-9.452759	-9.711914	-9.793705	0.582900	6.969727	-3.097780	-0.671440	0.350980	-0.572203	-0.043640	0.801512	-1.000000	-1.000000	-1.000000	-1.000000	-1.000000	-1.000000	-1.000000	53.000000	0.000000	-1.000000	-1.000000	196932.000000	1775787307.387590
-20935.755000	-11914.875000	12515.805000	290444.490000	300522.915000	297748.755000	-8791.290000	-1701.585000	13.653404	20.252650	23.251897	-8.628456	-9.205360	-9.458646	9.022385	18.234696	-3.097780	-0.671440	0.350980	-0.572203	-0.043640	0.801512	-1.000000	-1.000000	-1.000000	-1.000000	-1.000000	-1.000000	-1.000000	53.000000	0.000000	-1.000000	-1.000000	196933.000000	1775787307.387601
-20920.095000	-11902.500000	12523.050000	290440.305000	300518.865000	297744.750000	-8809.695000	-1711.845000	11.453918	14.302705	16.034578	-4.394560	-4.986302	-5.300562	11.835290	21.143658	-3.097780	-0.671440	0.350980	-0.572203	-0.043640	0.801512	-1.000000	-1.000000	-1.000000	-1.000000	-1.000000	-1.000000	-1.000000	53.000000	0.000000	-1.000000	-1.000000	196934.000000	1775787307.387609
-20927.430000	-11909.925000	12517.740000	290444.535000	300523.545000	297749.385000	-8813.475000	-1715.400000	6.430039	3.280291	1.832655	0.632951	0.343121	0.122862	7.074710	13.660057	-3.097780	-0.671440	0.350980	-0.572203	-0.043640	0.801512	-1.000000	-1.000000	-1.000000	-1.000000	-1.000000	-1.000000	-1.000000	53.000000	0.000000	-1.000000	-1.000000	196935.000000	1775787307.387621
-20930.940000	-11908.080000	12519.900000	290444.490000	300524.175000	297750.195000	-8806.410000	-1715.310000	0.818906	-6.345224	-10.373924	4.396515	4.564516	4.549230	-1.544156	-0.071983	-3.097780	-0.671440	0.350980	-0.572203	-0.043640	0.801512	-1.000000	-1.000000	-1.000000	-1.000000	-1.000000	-1.000000	-1.000000	53.000000	0.000000	-1.000000	-1.000000	196936.000000	1775787307.387629
-20925.540000	-11903.490000	12523.140000	290444.310000	300523.995000	297749.970000	-8792.910000	-1714.005000	-4.590045	-11.109136	-15.158162	6.060397	6.614012	6.810045	-7.414608	-12.445962	-3.097780	-0.671440	0.350980	-0.572203	-0.043640	0.801512	-1.000000	-1.000000	-1.000000	-1.000000	-1.000000	-1.000000	-1.000000	53.000000	0.000000	-1.000000	-1.000000	196937.000000	1775787307.387640
-20938.590000	-11918.430000	12509.460000	290452.410000	300531.735000	297757.485000	-8783.145000	-1719.495000	-8.554935	-10.786245	-12.536287	5.703518	6.374529	6.681566	-6.568825	-17.768055	-3.097780	-0.671440	0.350980	-0.572203	-0.043640	0.801512	-1.000000	-1.000000	-1.000000	-1.000000	-1.000000	-1.000000	-1.000000	53.000000	0.000000	-1.000000	-1.000000	196938.000000	1775787307.387649
-20951.100000	-11924.415000	12508.290000	290455.560000	300534.345000	297759.735000	-8796.825000	-1732.275000	-10.271806	-7.689778	-6.355220	4.182445	4.626143	4.884661	-0.900369	-15.524024	-3.097780	-0.671440	0.350980	-0.572203	-0.043640	0.801512	-1.000000	-1.000000	-1.000000	-1.000000	-1.000000	-1.000000	-1.000000	53.000000	0.000000	-1.000000	-1.000000	196939.000000	1775787307.387660
-20968.245000	-11932.290000	12508.020000	290457.585000	300535.830000	297760.815000	-8808.345000	-1745.370000	-10.131806	-4.427335	-0.522729	2.358180	2.336001	2.407751	3.785377	-9.237204	-3.097780	-0.671440	0.350980	-0.572203	-0.043640	0.801512	-1.000000	-1.000000	-1.000000	-1.000000	-1.000000	-1.000000	-1.000000	53.000000	0.000000	-1.000000	-1.000000	196940.000000	1775787307.387668
-20964.330000	-11936.205000	12506.355000	290458.755000	300536.685000	297761.760000	-8813.430000	-1745.640000	-8.282351	-1.818637	3.426769	0.440686	-0.046087	-0.197484	3.442003	-2.657671	0.061040	-1.007160	-0.778260	-0.575438	-0.044922	0.802915	-1.000000	-1.000000	-1.000000	-1.000000	-1.000000	-1.000000	-1.000000	53.000000	0.000000	-1.000000	-1.000000	196941.000000	1775787307.387679
-20941.740000	-11916.990000	12517.335000	290453.670000	300532.050000	297756.810000	-8812.980000	-1732.455000	-3.577109	0.968986	5.657050	-1.648466	-2.353508	-2.638032	-0.653308	3.041109	0.061040	-1.007160	-0.778260	-0.575438	-0.044922	0.802915	-1.000000	-1.000000	-1.000000	-1.000000	-1.000000	-1.000000	-1.000000	53.000000	0.000000	-1.000000	-1.000000	196942.000000	1775787307.387688
-20923.380000	-11901.465000	12525.705000	290445.930000	300524.760000	297749.295000	-8807.580000	-1723.365000	4.818124	5.193697	6.903316	-3.882808	-4.434361	-4.705629	-4.081287	8.449143	0.061040	-1.007160	-0.778260	-0.575438	-0.044922	0.802915	-1.000000	-1.000000	-1.000000	-1.000000	-1.000000	-1.000000	-1.000000	53.000000	0.000000	-1.000000	-1.000000	196943.000000	1775787307.387699
-20927.340000	-11905.155000	12521.565000	290445.660000	300525.030000	297750.105000	-8806.590000	-1720.800000	14.201116	10.135782	7.300766	-5.781699	-5.882464	-6.023176	-3.764817	13.012075	0.061040	-1.007160	-0.778260	-0.575438	-0.044922	0.802915	-1.000000	-1.000000	-1.000000	-1.000000	-1.000000	-1.000000	-1.000000	53.000000	0.000000	-1.000000	-1.000000	196944.000000	1775787307.387707
-20918.520000	-11905.605000	12518.730000	290444.490000	300524.085000	297749.160000	-8814.105000	-1717.065000	18.857893	12.284653	5.798908	-6.230971	-5.827778	-5.774491	-0.340469	14.424789	0.061040	-1.007160	-0.778260	-0.575438	-0.044922	0.802915	-1.000000	-1.000000	-1.000000	-1.000000	-1.000000	-1.000000	-1.000000	53.000000	0.000000	-1.000000	-1.000000	196945.000000	1775787307.387718
-20917.395000	-11904.795000	12521.070000	290443.545000	300522.915000	297747.855000	-8815.095000	-1721.025000	15.375473	8.954663	1.894461	-4.426102	-3.737975	-3.506846	3.089399	11.017545	0.061040	-1.007160	-0.778260	-0.575438	-0.044922	0.802915	-1.000000	-1.000000	-1.000000	-1.000000	-1.000000	-1.000000	-1.000000	53.000000	0.000000	-1.000000	-1.000000	196946.000000	1775787307.387727
-20935.215000	-11917.665000	12510.855000	290448.900000	300527.685000	297752.760000	-8807.040000	-1731.690000	5.260413	1.240585	-3.043471	-0.805251	-0.203232	0.094532	4.399374	3.419533	0.061040	-1.007160	-0.778260	-0.575438	-0.044922	0.802915	-1.000000	-1.000000	-1.000000	-1.000000	-1.000000	-1.000000	-1.000000	53.000000	0.000000	-1.000000	-1.000000	196947.000000	1775787307.387738
-20942.415000	-11919.375000	12512.205000	290450.970000	300529.260000	297753.570000	-8799.255000	-1725.795000	-7.259358	-7.302660	-6.954188	3.298635	3.491369	3.703581	4.067683	-5.529644	0.061040	-1.007160	-0.778260	-0.575438	-0.044922	0.802915	-1.000000	-1.000000	-1.000000	-1.000000	-1.000000	-1.000000	-1.000000	53.000000	0.000000	-1.000000	-1.000000	196948.000000	1775787307.387746
-20947.905000	-11915.280000	12518.775000	290450.295000	300528.810000	297752.805000	-8797.365000	-1723.635000	-17.147205	-12.745784	-8.129391	6.267575	5.962160	5.966209	3.379914	-11.733707	0.061040	-1.007160	-0.778260	-0.575438	-0.044922	0.802915	-1.000000	-1.000000	-1.000000	-1.000000	-1.000000	-1.000000	-1.000000	53.000000	0.000000	-1.000000	-1.000000	196949.000000	1775787307.397696
-20936.520000	-11911.320000	12513.510000	290390.985000	300468.915000	297692.910000	-8810.145000	-1732.545000	-19.918916	-12.423577	-5.902677	5.741522	5.127487	4.899011	2.226904	-12.566646	0.061040	-1.007160	-0.778260	-0.575438	-0.044922	0.802915	-1.000000	-1.000000	-1.000000	-1.000000	-1.000000	-1.000000	-1.000000	53.000000	0.000000	-1.000000	-1.000000	196950.000000	1775787307.397719
-20937.150000	-11911.815000	12513.510000	290420.595000	300498.570000	297722.655000	-8816.355000	-1737.945000	-14.131485	-6.784403	-1.654498	0.450934	-0.154745	-0.498096	-0.465434	-9.037501	2.121140	0.366240	-1.129240	-0.573485	-0.048035	0.805479	-1.000000	-1.000000	-1.000000	-1.000000	-1.000000	-1.000000	-1.000000	53.000000	0.000000	-1.000000	-1.000000	196951.000000	1775787307.397742
-20936.745000	-11908.710000	12522.555000	290476.395000	300555.720000	297779.760000	-8815.545000	-1736.550000	-2.980837	0.783479	2.351508	-4.465908	-4.784678	-5.049102	-4.326645	-3.981268	2.121140	0.366240	-1.129240	-0.573485	-0.048035	0.805479	-1.000000	-1.000000	-1.000000	-1.000000	-1.000000	-1.000000	-1.000000	53.000000	0.000000	-1.000000	-1.000000	196952.000000	1775787307.397752
-20934.990000	-11907.585000	12522.960000	290449.035000	300528.630000	297752.760000	-8810.235000	-1733.445000	7.639290	6.537541	4.935332	-1.898059	-1.760357	-1.809313	-6.852490	0.786955	2.121140	0.366240	-1.129240	-0.573485	-0.048035	0.805479	-1.000000	-1.000000	-1.000000	-1.000000	-1.000000	-1.000000	-1.000000	53.000000	0.000000	-1.000000	-1.000000	196953.000000	1775787307.402068
-20935.305000	-11908.800000	12517.650000	290439.045000	300518.505000	297742.590000	-8806.005000	-1732.365000	13.212495	8.489723	5.601374	5.373536	5.933879	6.105901	-5.814781	4.623394	2.121140	0.366240	-1.129240	-0.573485	-0.048035	0.805479	-1.000000	-1.000000	-1.000000	-1.000000	-1.000000	-1.000000	-1.000000	53.000000	0.000000	-1.000000	-1.000000	196954.000000	1775787307.402093
-20930.895000	-11901.105000	12524.310000	290377.170000	300455.280000	297679.680000	-8799.255000	-1728.180000	12.748662	6.860531	4.104877	7.192849	7.870674	8.165413	-1.509751	7.003763	2.121140	0.366240	-1.129240	-0.573485	-0.048035	0.805479	-1.000000	-1.000000	-1.000000	-1.000000	-1.000000	-1.000000	-1.000000	53.000000	0.000000	-1.000000	-1.000000	196955.000000	1775787307.402120
-20928.645000	-11894.535000	12533.580000	290422.620000	300500.145000	297724.095000	-8799.120000	-1722.960000	8.180804	3.570494	1.501439	-0.173022	0.188333	0.473203	3.545994	7.508749	2.121140	0.366240	-1.129240	-0.573485	-0.048035	0.805479	-1.000000	-1.000000	-1.000000	-1.000000	-1.000000	-1.000000	-1.000000	53.000000	0.000000	-1.000000	-1.000000	196956.000000	1775787307.402131
-20915.235000	-11880.090000	12545.280000	290337.795000	300414.105000	297637.515000	-8797.770000	-1712.295000	2.649821	0.883009	-0.229700	-10.330297	-10.555448	-10.407889	6.475682	6.352857	2.121140	0.366240	-1.129240	-0.573485	-0.048035	0.805479	-1.000000	-1.000000	-1.000000	-1.000000	-1.000000	-1.000000	-1.000000	53.000000	0.000000	-1.000000	-1.000000	196957.000000	1775787307.409853
-20919.870000	-11889.630000	12535.875000	290446.020000	300523.545000	297746.820000	-8791.605000	-1710.855000	-1.417829	-0.387963	-0.472950	-14.543927	-15.250485	-15.324807	5.999680	4.189758	2.121140	0.366240	-1.129240	-0.573485	-0.048035	0.805479	-1.000000	-1.000000	-1.000000	-1.000000	-1.000000	-1.000000	-1.000000	53.000000	0.000000	-1.000000	-1.000000	196958.000000	1775787307.409878
-20932.470000	-11906.055000	12521.835000	290481.480000	300560.400000	297783.405000	-8800.875000	-1719.945000	-3.879003	-1.706206	-0.973812	-6.365574	-7.081616	-7.355907	2.883650	1.195864	2.121140	0.366240	-1.129240	-0.573485	-0.048035	0.805479	-1.000000	-1.000000	-1.000000	-1.000000	-1.000000	-1.000000	-1.000000	53.000000	0.000000	-1.000000	-1.000000	196959.000000	1775787307.409906
-20935.800000	-11910.420000	12518.820000	290453.220000	300532.770000	297755.730000	-8802.450000	-1725.390000	-6.023891	-4.711372	-3.411419	12.066512	11.890857	11.549957	-1.351807	-2.861727	2.121140	0.366240	-1.129240	-0.573485	-0.048035	0.805479	-1.000000	-1.000000	-1.000000	-1.000000	-1.000000	-1.000000	-1.000000	53.000000	0.000000	-1.000000	-1.000000	196960.000000	1775787307.409918
-20931.255000	-11903.805000	12526.110000	290443.005000	300522.690000	297746.190000	-8802.900000	-1723.905000	-7.714445	-8.027695	-6.399454	25.837571	26.401090	26.169130	-5.060644	-7.079217	2.044840	0.228900	-0.961380	-0.569701	-0.047912	0.810545	-1.000000	-1.000000	-1.000000	-1.000000	-1.000000	-1.000000	-1.000000	53.000000	0.000000	-1.000000	-1.000000	196961.000000	1775787307.418352
-20926.395000	-11902.545000	12525.705000	290444.310000	300523.770000	297747.270000	-8797.185000	-1719.225000	-7.089196	-8.245861	-6.731197	22.285295	23.268091	23.279107	-6.479655	-9.105763	2.044840	0.228900	-0.961380	-0.569701	-0.047912	0.810545	-1.000000	-1.000000	-1.000000	-1.000000	-1.000000	-1.000000	-1.000000	53.000000	0.000000	-1.000000	-1.000000	196962.000000	1775787307.418373
-20925.225000	-11903.580000	12524.445000	290450.160000	300529.845000	297752.940000	-8797.860000	-1719.720000	-3.322128	-4.135628	-3.351929	4.750324	5.572004	5.828484	-4.803016	-7.310313	2.044840	0.228900	-0.961380	-0.569701	-0.047912	0.810545	-1.000000	-1.000000	-1.000000	-1.000000	-1.000000	-1.000000	-1.000000	53.000000	0.000000	-1.000000	-1.000000	196963.000000	1775787307.421222
-20924.775000	-11903.535000	12523.725000	290444.175000	300523.455000	297746.055000	-8809.785000	-1725.075000	1.877454	1.969694	1.617780	-13.926554	-13.700818	-13.360423	-1.347526	-2.718811	2.044840	0.228900	-0.961380	-0.569701	-0.047912	0.810545	-1.000000	-1.000000	-1.000000	-1.000000	-1.000000	-1.000000	-1.000000	53.000000	0.000000	-1.000000	-1.000000	196964.000000	1775787307.421244
-20933.955000	-11907.765000	12520.575000	290452.230000	300530.880000	297753.165000	-8806.140000	-1729.440000	5.562657	6.604870	5.280843	-23.621317	-24.075563	-23.871517	1.420492	1.794129	2.044840	0.228900	-0.961380	-0.569701	-0.047912	0.810545	-1.000000	-1.000000	-1.000000	-1.000000	-1.000000	-1.000000	-1.000000	53.000000	0.000000	-1.000000	-1.000000	196965.000000	1775787307.421265
-20948.805000	-11914.065000	12518.685000	290440.395000	300519.045000	297741.150000	-8805.960000	-1740.105000	5.555078	7.650425	6.105197	-21.943628	-22.856080	-22.904383	2.461625	3.904718	2.044840	0.228900	-0.961380	-0.569701	-0.047912	0.810545	-1.000000	-1.000000	-1.000000	-1.000000	-1.000000	-1.000000	-1.000000	53.000000	0.000000	-1.000000	-1.000000	196966.000000	1775787307.421282
-20941.065000	-11911.095000	12515.580000	290377.170000	300454.965000	297677.160000	-8803.980000	-1737.180000	2.155889	5.291956	4.362518	-13.912167	-14.907637	-15.146845	2.575658	3.360391	2.044840	0.228900	-0.961380	-0.569701	-0.047912	0.810545	-1.000000	-1.000000	-1.000000	-1.000000	-1.000000	-1.000000	-1.000000	53.000000	0.000000	-1.000000	-1.000000	196967.000000	1775787307.427670
-20950.020000	-11923.380000	12506.490000	290465.775000	300545.010000	297766.980000	-8803.755000	-1738.665000	-1.698780	1.453816	1.336426	-5.552789	-6.257841	-6.514091	2.585282	1.821144	2.044840	0.228900	-0.961380	-0.569701	-0.047912	0.810545	-1.000000	-1.000000	-1.000000	-1.000000	-1.000000	-1.000000	-1.000000	53.000000	0.000000	-1.000000	-1.000000	196968.000000	1775787307.427693
-20950.650000	-11927.565000	12502.575000	290465.460000	300545.190000	297767.700000	-8797.095000	-1731.420000	-3.277400	-2.006549	-1.673887	3.871615	3.734443	3.623053	2.613864	1.227937	2.044840	0.228900	-0.961380	-0.569701	-0.047912	0.810545	-1.000000	-1.000000	-1.000000	-1.000000	-1.000000	-1.000000	-1.000000	53.000000	0.000000	-1.000000	-1.000000	196969.000000	1775787307.435717
-20952.945000	-11926.170000	12503.565000	290453.670000	300533.670000	297755.955000	-8809.470000	-1729.845000	-2.234175	-3.958506	-3.492563	15.156781	15.664453	15.765773	2.281233	2.169604	2.044840	0.228900	-0.961380	-0.569701	-0.047912	0.810545	-1.000000	-1.000000	-1.000000	-1.000000	-1.000000	-1.000000	-1.000000	53.000000	0.000000	-1.000000	-1.000000	196970.000000	1775787307.435740
-20955.015000	-11917.080000	12515.985000	290445.795000	300525.795000	297747.855000	-8817.795000	-1731.240000	0.196196	-3.465359	-2.981553	21.523546	22.452404	22.708241	0.756363	3.583791	-1.266580	-0.061040	-0.396760	-0.565611	-0.046081	0.811399	-1.000000	-1.000000	-1.000000	-1.000000	-1.000000	-1.000000	-1.000000	53.000000	0.000000	-1.000000	-1.000000	196971.000000	1775787307.694940
-20944.845000	-11922.705000	12505.590000	290383.875000	300462.480000	297684.270000	-8822.790000	-1738.620000	2.679006	-0.573412	-0.138826	16.210780	17.103821	17.357320	-2.128282	3.653106	-1.266580	-0.061040	-0.396760	-0.565611	-0.046081	0.811399	-1.000000	-1.000000	-1.000000	-1.000000	-1.000000	-1.000000	-1.000000	53.000000	0.000000	-1.000000	-1.000000	196972.000000	1775787307.694966
-20928.060000	-11904.525000	12518.730000	290440.935000	300519.180000	297740.565000	-8808.255000	-1728.450000	4.800280	3.091052	3.156178	1.428148	1.824943	1.921392	-4.527165	1.657500	-1.266580	-0.061040	-0.396760	-0.565611	-0.046081	0.811399	-1.000000	-1.000000	-1.000000	-1.000000	-1.000000	-1.000000	-1.000000	53.000000	0.000000	-1.000000	-1.000000	196973.000000	1775787307.694993
-20921.895000	-11893.095000	12534.840000	290464.020000	300543.030000	297764.100000	-8789.400000	-1714.995000	6.564945	5.935067	5.223229	-11.062015	-11.330005	-11.450074	-3.599470	-0.788968	-1.266580	-0.061040	-0.396760	-0.565611	-0.046081	0.811399	-1.000000	-1.000000	-1.000000	-1.000000	-1.000000	-1.000000	-1.000000	53.000000	0.000000	-1.000000	-1.000000	196974.000000	1775787307.695004
-20930.130000	-11899.440000	12533.985000	290449.170000	300528.495000	297749.430000	-8786.385000	-1718.235000	6.760569	6.933132	5.841035	-11.490167	-12.157392	-12.434013	1.245594	-1.624802	-1.266580	-0.061040	-0.396760	-0.565611	-0.046081	0.811399	-1.000000	-1.000000	-1.000000	-1.000000	-1.000000	-1.000000	-1.000000	53.000000	0.000000	-1.000000	-1.000000	196975.000000	1775787307.695018
-20960.910000	-11925.495000	12511.035000	290453.805000	300533.220000	297754.515000	-8805.105000	-1744.380000	3.071000	4.390838	4.173735	-3.196549	-3.786899	-4.070593	6.296251	-1.601129	-1.266580	-0.061040	-0.396760	-0.565611	-0.046081	0.811399	-1.000000	-1.000000	-1.000000	-1.000000	-1.000000	-1.000000	-1.000000	53.000000	0.000000	-1.000000	-1.000000	196976.000000	1775787307.695028
-20950.335000	-11931.435000	12502.125000	290454.165000	300534.435000	297755.820000	-8815.635000	-1746.630000	-4.687745	-2.485617	-1.081600	4.198340	4.014194	3.890320	6.404814	-3.233452	-1.266580	-0.061040	-0.396760	-0.565611	-0.046081	0.811399	-1.000000	-1.000000	-1.000000	-1.000000	-1.000000	-1.000000	-1.000000	53.000000	0.000000	-1.000000	-1.000000	196977.000000	1775787307.695041
-20932.785000	-11913.390000	12513.735000	290447.190000	300527.685000	297748.980000	-8804.295000	-1736.325000	-11.675763	-10.160785	-8.016139	5.642558	5.904508	6.021110	0.885337	-6.055438	-1.266580	-0.061040	-0.396760	-0.565611	-0.046081	0.811399	-1.000000	-1.000000	-1.000000	-1.000000	-1.000000	-1.000000	-1.000000	53.000000	0.000000	-1.000000	-1.000000	196978.000000	1775787307.695051
-20919.420000	-11895.075000	12522.420000	290442.060000	300522.105000	297743.355000	-8792.640000	-1729.350000	-11.697281	-12.239811	-11.404161	1.755346	2.259115	2.549920	-5.157846	-6.339513	-1.266580	-0.061040	-0.396760	-0.565611	-0.046081	0.811399	-1.000000	-1.000000	-1.000000	-1.000000	-1.000000	-1.000000	-1.000000	53.000000	0.000000	-1.000000	-1.000000	196979.000000	1775787307.695064
-20910.015000	-11893.095000	12526.110000	290439.720000	300519.630000	297740.700000	-8785.350000	-1712.520000	-4.103853	-6.165138	-8.099673	-3.960704	-3.542833	-3.240971	-6.448526	-1.962970	-1.266580	-0.061040	-0.396760	-0.565611	-0.046081	0.811399	-1.000000	-1.000000	-1.000000	-1.000000	-1.000000	-1.000000	-1.000000	53.000000	0.000000	-1.000000	-1.000000	196980.000000	1775787307.695074
-20919.015000	-11900.565000	12528.270000	290441.700000	300521.385000	297742.140000	-8784.540000	-1708.155000	5.377615	3.403701	-0.424852	-7.595071	-7.521557	-7.363169	-2.756864	5.084388	-2.716280	2.456860	-0.045780	-0.563170	-0.046814	0.808470	-1.000000	-1.000000	-1.000000	-1.000000	-1.000000	-1.000000	-1.000000	53.000000	0.000000	-1.000000	-1.000000	196981.000000	1775787307.695086
-20939.445000	-11918.835000	12512.655000	290448.405000	300527.955000	297748.350000	-8800.740000	-1729.440000	9.609540	8.923270	6.188007	-6.904151	-7.212540	-7.270930	1.724156	9.984384	-2.716280	2.456860	-0.045780	-0.563170	-0.046814	0.808470	-1.000000	-1.000000	-1.000000	-1.000000	-1.000000	-1.000000	-1.000000	53.000000	0.000000	-1.000000	-1.000000	196982.000000	1775787307.695096
-20947.995000	-11924.460000	12506.670000	290453.805000	300533.400000	297753.615000	-8805.780000	-1735.785000	5.582805	6.704495	7.529572	-2.280501	-2.796221	-3.041640	2.715081	8.438703	-2.716280	2.456860	-0.045780	-0.563170	-0.046814	0.808470	-1.000000	-1.000000	-1.000000	-1.000000	-1.000000	-1.000000	-1.000000	53.000000	0.000000	-1.000000	-1.000000	196983.000000	1775787307.695108
-20945.610000	-11915.055000	12512.610000	290450.835000	300530.610000	297750.690000	-8803.980000	-1735.650000	-3.073845	-0.239230	3.800113	3.559643	3.099828	2.781797	-0.146458	1.015625	-2.716280	2.456860	-0.045780	-0.563170	-0.046814	0.808470	-1.000000	-1.000000	-1.000000	-1.000000	-1.000000	-1.000000	-1.000000	53.000000	0.000000	-1.000000	-1.000000	196984.000000	1775787307.695118
-20921.850000	-11893.185000	12527.190000	290444.445000	300524.445000	297744.795000	-8798.220000	-1726.560000	-8.900231	-5.104973	-0.663266	7.080889	6.888405	6.647099	-3.354644	-6.651328	-2.716280	2.456860	-0.045780	-0.563170	-0.046814	0.808470	-1.000000	-1.000000	-1.000000	-1.000000	-1.000000	-1.000000	-1.000000	53.000000	0.000000	-1.000000	-1.000000	196985.000000	1775787307.695131
-20913.165000	-11891.385000	12530.205000	290445.345000	300526.020000	297746.460000	-8796.285000	-1714.590000	-6.821377	-3.623042	-1.761749	6.379002	6.529536	6.484839	-3.542911	-8.954374	-2.716280	2.456860	-0.045780	-0.563170	-0.046814	0.808470	-1.000000	-1.000000	-1.000000	-1.000000	-1.000000	-1.000000	-1.000000	53.000000	0.000000	-1.000000	-1.000000	196986.000000	1775787307.695140
-20917.350000	-11901.690000	12521.925000	290445.525000	300526.605000	297747.000000	-8800.470000	-1712.700000	1.316297	1.902561	0.315651	2.627306	3.058935	3.237787	-0.663956	-4.872521	-2.716280	2.456860	-0.045780	-0.563170	-0.046814	0.808470	-1.000000	-1.000000	-1.000000	-1.000000	-1.000000	-1.000000	-1.000000	53.000000	0.000000	-1.000000	-1.000000	196987.000000	1775787307.695153
-20925.540000	-11910.870000	12513.690000	290446.290000	300527.280000	297747.585000	-8796.330000	-1718.640000	8.483847	5.391851	1.994329	-1.295728	-0.751705	-0.439876	2.763024	1.705659	-2.716280	2.456860	-0.045780	-0.563170	-0.046814	0.808470	-1.000000	-1.000000	-1.000000	-1.000000	-1.000000	-1.000000	-1.000000	53.000000	0.000000	-1.000000	-1.000000	196988.000000	1775787307.695162
-20931.975000	-11914.110000	12509.865000	290447.595000	300528.225000	297747.990000	-8805.015000	-1731.645000	9.119665	3.518579	0.746142	-3.277455	-2.855556	-2.574223	4.400346	5.438930	-2.716280	2.456860	-0.045780	-0.563170	-0.046814	0.808470	-1.000000	-1.000000	-1.000000	-1.000000	-1.000000	-1.000000	-1.000000	53.000000	0.000000	-1.000000	-1.000000	196989.000000	1775787307.695174
-20928.960000	-11905.470000	12520.710000	290447.685000	300527.730000	297747.180000	-8809.065000	-1735.965000	3.585836	-1.496937	-2.229857	-2.982908	-2.895805	-2.796678	3.433012	3.862636	-2.716280	2.456860	-0.045780	-0.563170	-0.046814	0.808470	-1.000000	-1.000000	-1.000000	-1.000000	-1.000000	-1.000000	-1.000000	53.000000	0.000000	-1.000000	-1.000000	196990.000000	1775787307.695184
-20933.955000	-11904.975000	12522.645000	290449.305000	300529.260000	297748.575000	-8807.940000	-1743.075000	-3.389185	-4.969160	-3.699901	-1.358209	-1.677520	-1.813802	0.680743	-1.069339	-1.648080	4.150720	1.052940	-0.562865	-0.049682	0.809263	-1.000000	-1.000000	-1.000000	-1.000000	-1.000000	-1.000000	-1.000000	53.000000	0.000000	-1.000000	-1.000000	196991.000000	1775787307.695775
-20929.455000	-11897.370000	12530.160000	290445.975000	300526.110000	297745.560000	-8800.470000	-1738.440000	-7.309341	-4.370912	-2.061321	0.295748	-0.290224	-0.574374	-1.707136	-5.175811	-1.648080	4.150720	1.052940	-0.562865	-0.049682	0.809263	-1.000000	-1.000000	-1.000000	-1.000000	-1.000000	-1.000000	-1.000000	53.000000	0.000000	-1.000000	-1.000000	196992.000000	1775787307.695792
-20922.705000	-11893.275000	12533.220000	290442.195000	300522.735000	297742.410000	-8787.825000	-1724.490000	-6.527136	-0.686812	1.398134	0.974156	0.417921	0.165339	-1.705558	-5.152961	-1.648080	4.150720	1.052940	-0.562865	-0.049682	0.809263	-1.000000	-1.000000	-1.000000	-1.000000	-1.000000	-1.000000	-1.000000	53.000000	0.000000	-1.000000	-1.000000	196993.000000	1775787307.695812
-20930.580000	-11908.485000	12518.595000	290447.955000	300529.395000	297748.845000	-8784.945000	-1722.645000	-2.325739	3.017820	3.878954	0.559852	0.328105	0.257917	0.800889	-0.601834	-1.648080	4.150720	1.052940	-0.562865	-0.049682	0.809263	-1.000000	-1.000000	-1.000000	-1.000000	-1.000000	-1.000000	-1.000000	53.000000	0.000000	-1.000000	-1.000000	196994.000000	1775787307.695824
-20932.875000	-11914.020000	12511.395000	290450.205000	300531.780000	297751.455000	-8795.070000	-1726.290000	2.052674	3.663348	3.004539	0.004560	0.229492	0.365608	3.437376	5.333238	-1.648080	4.150720	1.052940	-0.562865	-0.049682	0.809263	-1.000000	-1.000000	-1.000000	-1.000000	-1.000000	-1.000000	-1.000000	53.000000	0.000000	-1.000000	-1.000000	196995.000000	1775787307.695837
-20934.720000	-11912.535000	12513.690000	290447.325000	300528.630000	297748.125000	-8806.410000	-1733.895000	3.920001	0.861290	-0.888918	0.107441	0.666837	0.914452	3.064441	8.156499	-1.648080	4.150720	1.052940	-0.562865	-0.049682	0.809263	-1.000000	-1.000000	-1.000000	-1.000000	-1.000000	-1.000000	-1.000000	53.000000	0.000000	-1.000000	-1.000000	196996.000000	1775787307.695848
-20925.315000	-11898.315000	12531.060000	290441.520000	300522.735000	297741.780000	-8809.290000	-1730.520000	3.292179	-2.309282	-4.252989	0.398940	0.971235	1.188041	-1.000486	5.938878	-1.648080	4.150720	1.052940	-0.562865	-0.049682	0.809263	-1.000000	-1.000000	-1.000000	-1.000000	-1.000000	-1.000000	-1.000000	53.000000	0.000000	-1.000000	-1.000000	196997.000000	1775787307.695860
-20936.970000	-11912.760000	12515.400000	290446.380000	300527.280000	297745.605000	-8814.150000	-1740.915000	1.818403	-2.793184	-3.978053	0.117828	0.388345	0.442352	-5.961842	0.575111	-1.648080	4.150720	1.052940	-0.562865	-0.049682	0.809263	-1.000000	-1.000000	-1.000000	-1.000000	-1.000000	-1.000000	-1.000000	53.000000	0.000000	-1.000000	-1.000000	196998.000000	1775787307.695870
-20945.655000	-11923.245000	12505.095000	290450.430000	300530.970000	297749.340000	-8803.575000	-1745.055000	0.209242	-1.216393	-1.234571	-0.360964	-0.516379	-0.682626	-7.998474	-4.669306	-1.648080	4.150720	1.052940	-0.562865	-0.049682	0.809263	-1.000000	-1.000000	-1.000000	-1.000000	-1.000000	-1.000000	-1.000000	53.000000	0.000000	-1.000000	-1.000000	196999.000000	1775787307.695989
-20942.505000	-11914.515000	12513.960000	290447.460000	300527.955000	297746.505000	-8812.035000	-1743.885000	-1.612467	-0.016378	0.787710	-0.232035	-0.712508	-1.015713	-5.439858	-7.399831	-1.648080	4.150720	1.052940	-0.562865	-0.049682	0.809263	-1.000000	-1.000000	-1.000000	-1.000000	-1.000000	-1.000000	-1.000000	53.000000	0.000000	-1.000000	-1.000000	197000.000000	1775787307.696004
-20936.430000	-11911.230000	12515.175000	290446.200000	300527.190000	297745.605000	-8805.195000	-1736.505000	-2.636352	0.547079	1.474799	0.289926	-0.260197	-0.510603	0.012453	-6.420116	0.640920	2.411080	0.106820	-0.571349	-0.052185	0.813108	-1.000000	-1.000000	-1.000000	-1.000000	-1.000000	-1.000000	-1.000000	53.000000	0.000000	-1.000000	-1.000000	197001.000000	1775787307.696022
-20939.580000	-11919.870000	12505.635000	290446.605000	300528.405000	297746.910000	-8790.840000	-1730.475000	-1.655090	1.417493	1.860813	0.437806	0.113445	0.069332	5.390543	-2.058802	0.640920	2.411080	0.106820	-0.571349	-0.052185	0.813108	-1.000000	-1.000000	-1.000000	-1.000000	-1.000000	-1.000000	-1.000000	53.000000	0.000000	-1.000000	-1.000000	197002.000000	1775787307.696032
-20939.805000	-11923.290000	12501.630000	290445.525000	300527.595000	297746.460000	-8791.920000	-1730.070000	0.673129	2.078605	1.807079	0.056215	0.147135	0.333573	8.803249	3.475793	0.640920	2.411080	0.106820	-0.571349	-0.052185	0.813108	-1.000000	-1.000000	-1.000000	-1.000000	-1.000000	-1.000000	-1.000000	53.000000	0.000000	-1.000000	-1.000000	197003.000000	1775787307.696046
-20944.170000	-11927.655000	12497.085000	290445.885000	300528.090000	297746.685000	-8803.980000	-1741.410000	2.441563	1.532931	0.801338	-0.451513	0.014982	0.343798	8.820647	6.891326	0.640920	2.411080	0.106820	-0.571349	-0.052185	0.813108	-1.000000	-1.000000	-1.000000	-1.000000	-1.000000	-1.000000	-1.000000	53.000000	0.000000	-1.000000	-1.000000	197004.000000	1775787307.696057
-20938.185000	-11922.975000	12501.630000	290445.435000	300527.370000	297745.695000	-8801.820000	-1739.430000	2.581611	0.156939	-0.499884	-0.688290	-0.106511	0.209271	4.672874	6.019342	0.640920	2.411080	0.106820	-0.571349	-0.052185	0.813108	-1.000000	-1.000000	-1.000000	-1.000000	-1.000000	-1.000000	-1.000000	53.000000	0.000000	-1.000000	-1.000000	197005.000000	1775787307.696070
-20943.000000	-11926.395000	12497.760000	290447.955000	300529.485000	297747.585000	-8801.820000	-1744.020000	1.523952	-0.755380	-0.896401	-0.484153	-0.113692	0.031303	-1.738114	1.775528	0.640920	2.411080	0.106820	-0.571349	-0.052185	0.813108	-1.000000	-1.000000	-1.000000	-1.000000	-1.000000	-1.000000	-1.000000	53.000000	0.000000	-1.000000	-1.000000	197006.000000	1775787307.696079
-20946.195000	-11918.655000	12510.405000	290445.570000	300526.605000	297744.390000	-8802.135000	-1746.090000	0.069018	-0.466170	0.095363	0.048531	-0.001012	-0.099514	-6.736446	-2.833559	0.640920	2.411080	0.106820	-0.571349	-0.052185	0.813108	-1.000000	-1.000000	-1.000000	-1.000000	-1.000000	-1.000000	-1.000000	53.000000	0.000000	-1.000000	-1.000000	197007.000000	1775787307.696092
-20942.010000	-11914.920000	12514.455000	290443.770000	300524.985000	297742.455000	-8807.580000	-1747.305000	-1.258534	0.830191	2.104664	0.481389	0.032711	-0.261513	-8.120517	-5.332108	0.640920	2.411080	0.106820	-0.571349	-0.052185	0.813108	-1.000000	-1.000000	-1.000000	-1.000000	-1.000000	-1.000000	-1.000000	53.000000	0.000000	-1.000000	-1.000000	197008.000000	1775787307.696102
-20937.105000	-11909.745000	12517.155000	290442.735000	300524.040000	297741.690000	-8808.795000	-1742.715000	-1.740296	2.371138	4.028540	0.412572	-0.194503	-0.548616	-6.303953	-4.855432	0.640920	2.411080	0.106820	-0.571349	-0.052185	0.813108	-1.000000	-1.000000	-1.000000	-1.000000	-1.000000	-1.000000	-1.000000	53.000000	0.000000	-1.000000	-1.000000	197009.000000	1775787307.696115
-20933.055000	-11902.995000	12521.250000	290440.620000	300522.465000	297740.160000	-8810.820000	-1742.040000	-0.864604	3.210893	4.390496	-0.085774	-0.527698	-0.776590	-2.947726	-1.977717	0.640920	2.411080	0.106820	-0.571349	-0.052185	0.813108	-1.000000	-1.000000	-1.000000	-1.000000	-1.000000	-1.000000	-1.000000	53.000000	0.000000	-1.000000	-1.000000	197010.000000	1775787307.696125
-20930.400000	-11899.980000	12527.730000	290438.730000	300521.475000	297739.395000	-8800.380000	-1734.390000	0.821061	2.785447	2.672591	-0.617172	-0.658531	-0.683096	0.646525	1.749144	0.183120	0.335720	-1.266580	-0.573546	-0.052429	0.812986	-1.000000	-1.000000	-1.000000	-1.000000	-1.000000	-1.000000	-1.000000	53.000000	0.000000	-1.000000	-1.000000	197011.000000	1775787307.696138
-20946.645000	-11909.430000	12523.410000	290443.050000	300525.705000	297743.760000	-8790.480000	-1733.040000	1.744321	0.897759	-0.326041	-0.746869	-0.353279	-0.141311	4.045715	4.624373	0.183120	0.335720	-1.266580	-0.573546	-0.052429	0.812986	-1.000000	-1.000000	-1.000000	-1.000000	-1.000000	-1.000000	-1.000000	53.000000	0.000000	-1.000000	-1.000000	197012.000000	1775787307.696148
-20940.165000	-11913.570000	12517.065000	290445.480000	300528.270000	297745.920000	-8796.690000	-1738.620000	0.593208	-2.399113	-3.650142	-0.117934	0.512544	0.856022	6.633389	5.325913	0.183120	0.335720	-1.266580	-0.573546	-0.052429	0.812986	-1.000000	-1.000000	-1.000000	-1.000000	-1.000000	-1.000000	-1.000000	53.000000	0.000000	-1.000000	-1.000000	197013.000000	1775787307.696161
-20920.725000	-11895.840000	12527.280000	290440.980000	300523.095000	297740.565000	-8801.955000	-1737.315000	-1.458396	-5.676364	-6.315283	1.019207	1.549325	1.845873	6.766612	3.342224	0.183120	0.335720	-1.266580	-0.573546	-0.052429	0.812986	-1.000000	-1.000000	-1.000000	-1.000000	-1.000000	-1.000000	-1.000000	53.000000	0.000000	-1.000000	-1.000000	197014.000000	1775787307.696171
-20918.745000	-11896.695000	12524.130000	290440.845000	300522.960000	297739.710000	-8801.550000	-1731.870000	-1.591355	-6.315338	-6.900633	1.674321	1.819865	1.907702	3.541692	-0.184187	0.183120	0.335720	-1.266580	-0.573546	-0.052429	0.812986	-1.000000	-1.000000	-1.000000	-1.000000	-1.000000	-1.000000	-1.000000	53.000000	0.000000	-1.000000	-1.000000	197015.000000	1775787307.696183
-20941.245000	-11917.755000	12511.260000	290446.695000	300528.945000	297745.515000	-8805.465000	-1735.515000	0.154613	-4.006647	-5.147990	1.332682	1.034538	0.856130	-1.440844	-3.078877	0.183120	0.335720	-1.266580	-0.573546	-0.052429	0.812986	-1.000000	-1.000000	-1.000000	-1.000000	-1.000000	-1.000000	-1.000000	53.000000	0.000000	-1.000000	-1.000000	197016.000000	1775787307.696194
-20950.650000	-11923.155000	12509.550000	290447.865000	300530.160000	297747.000000	-8800.290000	-1737.720000	0.397790	-1.703514	-2.692953	0.620254	0.072159	-0.281057	-5.307247	-4.203975	0.183120	0.335720	-1.266580	-0.573546	-0.052429	0.812986	-1.000000	-1.000000	-1.000000	-1.000000	-1.000000	-1.000000	-1.000000	53.000000	0.000000	-1.000000	-1.000000	197017.000000	1775787307.696206
-20945.880000	-11929.410000	12500.550000	290449.260000	300531.960000	297748.755000	-8803.935000	-1745.505000	-2.233581	-1.348271	-0.886139	0.202410	-0.292485	-0.614689	-6.161253	-4.002458	0.183120	0.335720	-1.266580	-0.573546	-0.052429	0.812986	-1.000000	-1.000000	-1.000000	-1.000000	-1.000000	-1.000000	-1.000000	53.000000	0.000000	-1.000000	-1.000000	197018.000000	1775787307.696216
-20941.200000	-11925.855000	12497.040000	290447.370000	300530.655000	297747.585000	-8806.185000	-1754.640000	-4.723825	-1.600367	0.300960	-0.047048	-0.251163	-0.354856	-4.234730	-3.425917	0.183120	0.335720	-1.266580	-0.573546	-0.052429	0.812986	-1.000000	-1.000000	-1.000000	-1.000000	-1.000000	-1.000000	-1.000000	53.000000	0.000000	-1.000000	-1.000000	197019.000000	1775787307.696228
-20940.795000	-11919.375000	12503.745000	290448.855000	300532.320000	297749.475000	-8815.815000	-1767.555000	-3.803347	-0.177533	1.580182	-0.519701	-0.359350	-0.192448	-1.421296	-3.078950	0.183120	0.335720	-1.266580	-0.573546	-0.052429	0.812986	-1.000000	-1.000000	-1.000000	-1.000000	-1.000000	-1.000000	-1.000000	53.000000	0.000000	-1.000000	-1.000000	197020.000000	1775787307.696238
-20935.395000	-11909.880000	12518.550000	290445.300000	300528.180000	297745.695000	-8817.390000	-1763.370000	0.323303	3.561132	3.853034	-1.235414	-0.835178	-0.479689	0.463416	-2.663641	0.457800	2.975700	-0.228900	-0.565306	-0.048645	0.809995	-1.000000	-1.000000	-1.000000	-1.000000	-1.000000	-1.000000	-1.000000	53.000000	0.000000	-1.000000	-1.000000	197021.000000	1775787307.696250
-20937.690000	-11911.005000	12517.155000	290442.780000	300525.210000	297742.860000	-8813.565000	-1755.090000	4.862319	7.875253	7.028505	-1.936214	-1.567017	-1.168623	1.186777	-0.876840	0.457800	2.975700	-0.228900	-0.565306	-0.048645	0.809995	-1.000000	-1.000000	-1.000000	-1.000000	-1.000000	-1.000000	-1.000000	53.000000	0.000000	-1.000000	-1.000000	197022.000000	1775787307.696260
-20926.980000	-11900.385000	12529.755000	290439.090000	300520.890000	297738.360000	-8791.740000	-1727.730000	7.205459	9.967105	9.234485	-2.362197	-2.278488	-1.988019	2.157250	3.456848	0.457800	2.975700	-0.228900	-0.565306	-0.048645	0.809995	-1.000000	-1.000000	-1.000000	-1.000000	-1.000000	-1.000000	-1.000000	53.000000	0.000000	-1.000000	-1.000000	197023.000000	1775787307.696272
-20932.245000	-11909.340000	12524.445000	290441.250000	300523.095000	297740.205000	-8788.455000	-1716.615000	6.533063	8.214857	8.431215	-2.197628	-2.465285	-2.403524	4.561693	9.616262	0.457800	2.975700	-0.228900	-0.565306	-0.048645	0.809995	-1.000000	-1.000000	-1.000000	-1.000000	-1.000000	-1.000000	-1.000000	53.000000	0.000000	-1.000000	-1.000000	197024.000000	1775787307.696282
-20942.190000	-11930.220000	12502.845000	290446.155000	300528.585000	297745.965000	-8796.555000	-1726.020000	3.234831	2.605128	3.746120	-1.048011	-1.489012	-1.696314	6.946929	13.946813	0.457800	2.975700	-0.228900	-0.565306	-0.048645	0.809995	-1.000000	-1.000000	-1.000000	-1.000000	-1.000000	-1.000000	-1.000000	53.000000	0.000000	-1.000000	-1.000000	197025.000000	1775787307.696295
-20937.510000	-11936.250000	12491.010000	290450.520000	300533.445000	297751.095000	-8809.785000	-1737.765000	-1.605269	-5.432253	-4.203537	1.126861	0.828486	0.444841	5.965290	11.800162	0.457800	2.975700	-0.228900	-0.565306	-0.048645	0.809995	-1.000000	-1.000000	-1.000000	-1.000000	-1.000000	-1.000000	-1.000000	53.000000	0.000000	-1.000000	-1.000000	197026.000000	1775787307.696305
-20926.170000	-11909.430000	12512.385000	290443.500000	300526.425000	297744.660000	-8807.220000	-1735.470000	-5.487822	-11.782805	-11.784100	3.346870	3.421714	3.059702	0.550139	2.459269	0.457800	2.975700	-0.228900	-0.565306	-0.048645	0.809995	-1.000000	-1.000000	-1.000000	-1.000000	-1.000000	-1.000000	-1.000000	53.000000	0.000000	-1.000000	-1.000000	197027.000000	1775787307.696317
-20926.890000	-11902.590000	12521.520000	290440.755000	300523.950000	297742.320000	-8799.795000	-1730.610000	-5.907216	-11.385487	-13.379853	3.931734	4.358123	4.199263	-5.926989	-8.855114	0.457800	2.975700	-0.228900	-0.565306	-0.048645	0.809995	-1.000000	-1.000000	-1.000000	-1.000000	-1.000000	-1.000000	-1.000000	53.000000	0.000000	-1.000000	-1.000000	197028.000000	1775787307.696327
-20927.070000	-11908.620000	12518.730000	290439.135000	300522.330000	297740.610000	-8790.345000	-1724.490000	-3.170498	-4.068961	-7.217259	2.209811	2.754098	2.839440	-8.670617	-15.293699	0.457800	2.975700	-0.228900	-0.565306	-0.048645	0.809995	-1.000000	-1.000000	-1.000000	-1.000000	-1.000000	-1.000000	-1.000000	53.000000	0.000000	-1.000000	-1.000000	197029.000000	1775787307.696340
-20938.590000	-11916.675000	12513.060000	290441.610000	300524.625000	297742.995000	-8794.980000	-1732.320000	-0.110655	4.195723	1.951745	-0.550794	-0.163476	0.048610	-6.131728	-14.107112	0.457800	2.975700	-0.228900	-0.565306	-0.048645	0.809995	-1.000000	-1.000000	-1.000000	-1.000000	-1.000000	-1.000000	-1.000000	53.000000	0.000000	-1.000000	-1.000000	197030.000000	1775787307.696349
-20943.090000	-11923.965000	12503.835000	290444.805000	300527.280000	297745.785000	-8804.340000	-1742.040000	0.774802	7.404965	7.620545	-2.330261	-2.279239	-2.106957	-1.238815	-8.025602	-2.273740	4.059160	1.266580	-0.568236	-0.047180	0.811766	-1.000000	-1.000000	-1.000000	-1.000000	-1.000000	-1.000000	-1.000000	53.000000	0.000000	-1.000000	-1.000000	197031.000000	1775787307.696362
-20933.955000	-11918.340000	12504.870000	290444.895000	300526.920000	297744.750000	-8810.730000	-1743.705000	-0.353529	4.795745	7.183656	-2.134789	-2.449989	-2.424130	1.840496	-1.699791	-2.273740	4.059160	1.266580	-0.568236	-0.047180	0.811766	-1.000000	-1.000000	-1.000000	-1.000000	-1.000000	-1.000000	-1.000000	53.000000	0.000000	-1.000000	-1.000000	197032.000000	1775787307.696372
-20932.200000	-11913.345000	12510.855000	290445.030000	300527.010000	297744.840000	-8806.725000	-1742.265000	-1.098556	0.215579	3.015385	-0.615691	-1.173879	-1.320284	1.742622	2.467936	-2.273740	4.059160	1.266580	-0.568236	-0.047180	0.811766	-1.000000	-1.000000	-1.000000	-1.000000	-1.000000	-1.000000	-1.000000	53.000000	0.000000	-1.000000	-1.000000	197033.000000	1775787307.696384
-20944.935000	-11921.625000	12509.100000	290446.785000	300528.945000	297747.045000	-8794.980000	-1741.140000	-0.157060	-2.443729	-0.718159	0.855521	0.293585	0.036936	0.586916	4.779122	-2.273740	4.059160	1.266580	-0.568236	-0.047180	0.811766	-1.000000	-1.000000	-1.000000	-1.000000	-1.000000	-1.000000	-1.000000	53.000000	0.000000	-1.000000	-1.000000	197034.000000	1775787307.696400
-20944.935000	-11921.625000	12509.100000	290446.785000	300528.945000	297747.045000	-8794.980000	-1741.140000	1.149903	-2.524933	-1.924579	1.428262	1.113482	0.889384	0.937311	6.060228	-2.273740	4.059160	1.266580	-0.568236	-0.047180	0.811766	-1.000000	-1.000000	-1.000000	-1.000000	-1.000000	-1.000000	-1.000000	53.000000	0.000000	-1.000000	-1.000000	197035.000000	1775787307.701693
-20944.935000	-11921.625000	12509.100000	290446.785000	300528.945000	297747.045000	-8794.980000	-1741.140000	1.467859	-1.382902	-1.212385	1.044888	1.102573	1.043152	2.735827	6.387738	-2.273740	4.059160	1.266580	-0.568236	-0.047180	0.811766	-1.000000	-1.000000	-1.000000	-1.000000	-1.000000	-1.000000	-1.000000	53.000000	0.000000	-1.000000	-1.000000	197036.000000	1775787307.701710
-20944.935000	-11921.625000	12509.100000	290446.785000	300528.945000	297747.045000	-8794.980000	-1741.140000	1.151424	-0.054222	-0.031130	0.101869	0.470505	0.602341	3.884973	5.476710	-2.273740	4.059160	1.266580	-0.568236	-0.047180	0.811766	-1.000000	-1.000000	-1.000000	-1.000000	-1.000000	-1.000000	-1.000000	53.000000	0.000000	-1.000000	-1.000000	197037.000000	1775787307.701718
-20944.935000	-11921.625000	12509.100000	290446.785000	300528.945000	297747.045000	-8794.980000	-1741.140000	1.009113	1.023239	0.663393	-0.852812	-0.361621	-0.116124	2.998654	3.409827	-2.273740	4.059160	1.266580	-0.568236	-0.047180	0.811766	-1.000000	-1.000000	-1.000000	-1.000000	-1.000000	-1.000000	-1.000000	53.000000	0.000000	-1.000000	-1.000000	197038.000000	1775787307.701725
-20944.935000	-11921.625000	12509.100000	290446.785000	300528.945000	297747.045000	-8794.980000	-1741.140000	1.191519	1.607743	0.643581	-1.380068	-0.966714	-0.722463	0.517338	0.801565	-2.273740	4.059160	1.266580	-0.568236	-0.047180	0.811766	-1.000000	-1.000000	-1.000000	-1.000000	-1.000000	-1.000000	-1.000000	53.000000	0.000000	-1.000000	-1.000000	197039.000000	1775787307.701733
-20944.935000	-11921.625000	12509.100000	290446.785000	300528.945000	297747.045000	-8794.980000	-1741.140000	1.359295	1.612750	0.169765	-1.327399	-1.115872	-0.960324	-2.121280	-1.525369	-2.273740	4.059160	1.266580	-0.568236	-0.047180	0.811766	-1.000000	-1.000000	-1.000000	-1.000000	-1.000000	-1.000000	-1.000000	53.000000	0.000000	-1.000000	-1.000000	197040.000000	1775787307.701740
-20944.935000	-11921.625000	12509.100000	290446.785000	300528.945000	297747.045000	-8794.980000	-1741.140000	1.169640	1.132558	-0.363529	-0.823897	-0.833471	-0.796698	-3.648178	-2.945439	-2.273740	4.059160	1.266580	-0.568236	-0.047180	0.811766	-1.000000	-1.000000	-1.000000	-1.000000	-1.000000	-1.000000	-1.000000	53.000000	0.000000	-1.000000	-1.000000	197041.000000	1775787307.701747
-20944.935000	-11921.625000	12509.100000	290446.785000	300528.945000	297747.045000	-8794.980000	-1741.140000	0.561916	0.401837	-0.676243	-0.148070	-0.316749	-0.376949	-3.605345	-3.253578	-2.273740	4.059160	1.266580	-0.568236	-0.047180	0.811766	-1.000000	-1.000000	-1.000000	-1.000000	-1.000000	-1.000000	-1.000000	53.000000	0.000000	-1.000000	-1.000000	197042.000000	1775787307.701754
-20944.935000	-11921.625000	12509.100000	290446.785000	300528.945000	297747.045000	-8794.980000	-1741.140000	-0.251446	-0.306391	-0.686334	0.428162	0.196409	0.087965	-2.336453	-2.648565	-2.273740	4.059160	1.266580	-0.568236	-0.047180	0.811766	-1.000000	-1.000000	-1.000000	-1.000000	-1.000000	-1.000000	-1.000000	53.000000	0.000000	-1.000000	-1.000000	197043.000000	1775787307.701761
-20944.935000	-11921.625000	12509.100000	290446.785000	300528.945000	297747.045000	-8794.980000	-1741.140000	-0.959467	-0.784774	-0.469222	0.742760	0.534086	0.426443	-0.594973	-1.558590	-2.273740	4.059160	1.266580	-0.568236	-0.047180	0.811766	-1.000000	-1.000000	-1.000000	-1.000000	-1.000000	-1.000000	-1.000000	53.000000	0.000000	-1.000000	-1.000000	197044.000000	1775787307.701768
-20944.935000	-11921.625000	12509.100000	290446.785000	300528.945000	297747.045000	-8794.980000	-1741.140000	-1.330798	-0.948631	-0.166914	0.769701	0.635124	0.560492	0.895430	-0.432253	-2.273740	4.059160	1.266580	-0.568236	-0.047180	0.811766	-1.000000	-1.000000	-1.000000	-1.000000	-1.000000	-1.000000	-1.000000	53.000000	0.000000	-1.000000	-1.000000	197045.000000	1775787307.701775
-20944.935000	-11921.625000	12509.100000	290446.785000	300528.945000	297747.045000	-8794.980000	-1741.140000	-1.301670	-0.833117	0.093221	0.585093	0.536185	0.505095	1.715105	0.412218	-2.273740	4.059160	1.266580	-0.568236	-0.047180	0.811766	-1.000000	-1.000000	-1.000000	-1.000000	-1.000000	-1.000000	-1.000000	53.000000	0.000000	-1.000000	-1.000000	197046.000000	1775787307.701782
-20944.935000	-11921.625000	12509.100000	290446.785000	300528.945000	297747.045000	-8794.980000	-1741.140000	-0.962710	-0.548292	0.241454	0.307900	0.327123	0.332885	1.805358	0.843845	-2.273740	4.059160	1.266580	-0.568236	-0.047180	0.811766	-1.000000	-1.000000	-1.000000	-1.000000	-1.000000	-1.000000	-1.000000	53.000000	0.000000	-1.000000	-1.000000	197047.000000	1775787307.701788
-20944.935000	-11921.625000	12509.100000	290446.785000	300528.945000	297747.045000	-8794.980000	-1741.140000	-0.485091	-0.221693	0.269833	0.046403	0.103038	0.130285	1.368108	0.894871	-2.273740	4.059160	1.266580	-0.568236	-0.047180	0.811766	-1.000000	-1.000000	-1.000000	-1.000000	-1.000000	-1.000000	-1.000000	53.000000	0.000000	-1.000000	-1.000000	197048.000000	1775787307.701795
-20944.935000	-11921.625000	12509.100000	290446.785000	300528.945000	297747.045000	-8794.980000	-1741.140000	-0.037692	0.046881	0.212098	-0.132660	-0.068412	-0.035620	0.706779	0.693208	-2.273740	4.059160	1.266580	-0.568236	-0.047180	0.811766	-1.000000	-1.000000	-1.000000	-1.000000	-1.000000	-1.000000	-1.000000	53.000000	0.000000	-1.000000	-1.000000	197049.000000	1775787307.701802
-20944.935000	-11921.625000	12509.100000	290446.785000	300528.945000	297747.045000	-8794.980000	-1741.140000	0.268852	0.206718	0.116737	-0.210087	-0.158680	-0.131744	0.089738	0.389760	-2.273740	4.059160	1.266580	-0.568236	-0.047180	0.811766	-1.000000	-1.000000	-1.000000	-1.000000	-1.000000	-1.000000	-1.000000	53.000000	0.000000	-1.000000	-1.000000	197050.000000	1775787307.701809
-20944.935000	-11921.625000	12509.100000	290446.785000	300528.945000	297747.045000	-8794.980000	-1741.140000	0.399466	0.254700	0.025600	-0.202751	-0.172989	-0.157113	-0.323589	0.105945	-2.273740	4.059160	1.266580	-0.568236	-0.047180	0.811766	-1.000000	-1.000000	-1.000000	-1.000000	-1.000000	-1.000000	-1.000000	53.000000	0.000000	-1.000000	-1.000000	197051.000000	1775787307.701816
-20944.935000	-11921.625000	12509.100000	290446.785000	300528.945000	297747.045000	-8794.980000	-1741.140000	0.380730	0.219562	-0.036794	-0.145135	-0.136265	-0.131378	-0.492656	-0.089817	-2.273740	4.059160	1.266580	-0.568236	-0.047180	0.811766	-1.000000	-1.000000	-1.000000	-1.000000	-1.000000	-1.000000	-1.000000	53.000000	0.000000	-1.000000	-1.000000	197052.000000	1775787307.701822
-20944.935000	-11921.625000	12509.100000	290446.785000	300528.945000	297747.045000	-8794.980000	-1741.140000	0.271772	0.142123	-0.064053	-0.072526	-0.078309	-0.081230	-0.463501	-0.180728	-2.273740	4.059160	1.266580	-0.568236	-0.047180	0.811766	-1.000000	-1.000000	-1.000000	-1.000000	-1.000000	-1.000000	-1.000000	53.000000	0.000000	-1.000000	-1.000000	197053.000000	1775787307.701829
-20944.935000	-11921.625000	12509.100000	290446.785000	300528.945000	297747.045000	-8794.980000	-1741.140000	0.135284	0.059212	-0.062618	-0.010497	-0.023230	-0.029873	-0.321587	-0.185653	-2.273740	4.059160	1.266580	-0.568236	-0.047180	0.811766	-1.000000	-1.000000	-1.000000	-1.000000	-1.000000	-1.000000	-1.000000	53.000000	0.000000	-1.000000	-1.000000	197054.000000	1775787307.701836
-20944.935000	-11921.625000	12509.100000	290446.785000	300528.945000	297747.045000	-8794.980000	-1741.140000	0.018051	-0.005172	-0.044630	0.028559	0.015264	0.008327	-0.150966	-0.139269	-2.273740	4.059160	1.266580	-0.568236	-0.047180	0.811766	-1.000000	-1.000000	-1.000000	-1.000000	-1.000000	-1.000000	-1.000000	53.000000	0.000000	-1.000000	-1.000000	197055.000000	1775787307.701843
-20944.935000	-11921.625000	12509.100000	290446.785000	300528.945000	297747.045000	-8794.980000	-1741.140000	-0.056420	-0.041557	-0.021987	0.043631	0.033608	0.028438	-0.010162	-0.075805	-2.273740	4.059160	1.266580	-0.568236	-0.047180	0.811766	-1.000000	-1.000000	-1.000000	-1.000000	-1.000000	-1.000000	-1.000000	53.000000	0.000000	-1.000000	-1.000000	197056.000000	1775787307.701849
-20944.935000	-11921.625000	12509.100000	290446.785000	300528.945000	297747.045000	-8794.980000	-1741.140000	-0.085556	-0.051854	-0.002952	0.040720	0.035259	0.032540	0.074515	-0.019672	-2.273740	4.059160	1.266580	-0.568236	-0.047180	0.811766	-1.000000	-1.000000	-1.000000	-1.000000	-1.000000	-1.000000	-1.000000	53.000000	0.000000	-1.000000	-1.000000	197057.000000	1775787307.701856
-20944.935000	-11921.625000	12509.100000	290446.785000	300528.945000	297747.045000	-8794.980000	-1741.140000	-0.080164	-0.044225	0.008725	0.028240	0.026822	0.026257	0.103340	0.017171	-2.273740	4.059160	1.266580	-0.568236	-0.047180	0.811766	-1.000000	-1.000000	-1.000000	-1.000000	-1.000000	-1.000000	-1.000000	53.000000	0.000000	-1.000000	-1.000000	197058.000000	1775787307.701863
-20944.935000	-11921.625000	12509.100000	290446.785000	300528.945000	297747.045000	-8794.980000	-1741.140000	-0.056024	-0.028269	0.012973	0.013656	0.014880	0.015702	0.092050	0.033207	-2.273740	4.059160	1.266580	-0.568236	-0.047180	0.811766	-1.000000	-1.000000	-1.000000	-1.000000	-1.000000	-1.000000	-1.000000	53.000000	0.000000	-1.000000	-1.000000	197059.000000	1775787307.701869
-20944.935000	-11921.625000	12509.100000	290446.785000	300528.945000	297747.045000	-8794.980000	-1741.140000	-0.027464	-0.011781	0.011842	0.001809	0.004167	0.005559	0.060873	0.033263	-2.273740	4.059160	1.266580	-0.568236	-0.047180	0.811766	-1.000000	-1.000000	-1.000000	-1.000000	-1.000000	-1.000000	-1.000000	53.000000	0.000000	-1.000000	-1.000000	197060.000000	1775787307.701876
-20944.935000	-11921.625000	12509.100000	290446.785000	300528.945000	297747.045000	-8794.980000	-1741.140000	-0.003992	0.000622	0.008000	-0.005304	-0.002961	-0.001615	0.026898	0.024408	-2.273740	4.059160	1.266580	-0.568236	-0.047180	0.811766	-1.000000	-1.000000	-1.000000	-1.000000	-1.000000	-1.000000	-1.000000	53.000000	0.000000	-1.000000	-1.000000	197061.000000	1775787307.701883
-20944.935000	-11921.625000	12509.100000	290446.785000	300528.945000	297747.045000	-8794.980000	-1741.140000	0.010308	0.007415	0.003703	-0.007849	-0.006153	-0.005182	0.000604	0.013015	-2.273740	4.059160	1.266580	-0.568236	-0.047180	0.811766	-1.000000	-1.000000	-1.000000	-1.000000	-1.000000	-1.000000	-1.000000	53.000000	0.000000	-1.000000	-1.000000	197062.000000	1775787307.701890
-20944.935000	-11921.625000	12509.100000	290446.785000	300528.945000	297747.045000	-8794.980000	-1741.140000	0.015595	0.009248	0.000337	-0.007167	-0.006290	-0.005770	-0.014216	0.003307	-2.273740	4.059160	1.266580	-0.568236	-0.047180	0.811766	-1.000000	-1.000000	-1.000000	-1.000000	-1.000000	-1.000000	-1.000000	53.000000	0.000000	-1.000000	-1.000000	197063.000000	1775787307.701897
-20944.935000	-11921.625000	12509.100000	290446.785000	300528.945000	297747.045000	-8794.980000	-1741.140000	0.014404	0.007826	-0.001587	-0.004883	-0.004695	-0.004545	-0.018602	-0.002848	-2.273740	4.059160	1.266580	-0.568236	-0.047180	0.811766	-1.000000	-1.000000	-1.000000	-1.000000	-1.000000	-1.000000	-1.000000	53.000000	0.000000	-1.000000	-1.000000	197064.000000	1775787307.701903
-20944.935000	-11921.625000	12509.100000	290446.785000	300528.945000	297747.045000	-8794.980000	-1741.140000	0.009917	0.004981	-0.002190	-0.002336	-0.002576	-0.002649	-0.016009	-0.005395	-2.273740	4.059160	1.266580	-0.568236	-0.047180	0.811766	-1.000000	-1.000000	-1.000000	-1.000000	-1.000000	-1.000000	-1.000000	53.000000	0.000000	-1.000000	-1.000000	197065.000000	1775787307.701910
-20944.935000	-11921.625000	12509.100000	290446.785000	300528.945000	297747.045000	-8794.980000	-1741.140000	0.004806	0.002114	-0.001903	-0.000333	-0.000743	-0.000898	-0.010273	-0.005290	-2.273740	4.059160	1.266580	-0.568236	-0.047180	0.811766	-1.000000	-1.000000	-1.000000	-1.000000	-1.000000	-1.000000	-1.000000	53.000000	0.000000	-1.000000	-1.000000	197066.000000	1775787307.701917
-20944.935000	-11921.625000	12509.100000	290446.785000	300528.945000	297747.045000	-8794.980000	-1741.140000	0.000727	0.000004	-0.001210	0.000831	0.000437	0.000300	-0.004376	-0.003778	-2.273740	4.059160	1.266580	-0.568236	-0.047180	0.811766	-1.000000	-1.000000	-1.000000	-1.000000	-1.000000	-1.000000	-1.000000	53.000000	0.000000	-1.000000	-1.000000	197067.000000	1775787307.701924
-20944.935000	-11921.625000	12509.100000	290446.785000	300528.945000	297747.045000	-8794.980000	-1741.140000	-0.001687	-0.001125	-0.000488	0.001223	0.000942	0.000871	0.000001	-0.001918	-2.273740	4.059160	1.266580	-0.568236	-0.047180	0.811766	-1.000000	-1.000000	-1.000000	-1.000000	-1.000000	-1.000000	-1.000000	53.000000	0.000000	-1.000000	-1.000000	197068.000000	1775787307.701931
-20944.935000	-11921.625000	12509.100000	290446.785000	300528.945000	297747.045000	-8794.980000	-1741.140000	-0.002539	-0.001416	0.000051	0.001092	0.000944	0.000948	0.002357	-0.000377	-2.273740	4.059160	1.266580	-0.568236	-0.047180	0.811766	-1.000000	-1.000000	-1.000000	-1.000000	-1.000000	-1.000000	-1.000000	53.000000	0.000000	-1.000000	-1.000000	197069.000000	1775787307.701938
-20944.935000	-11921.625000	12509.100000	290446.785000	300528.945000	297747.045000	-8794.980000	-1741.140000	-0.002312	-0.001176	0.000343	0.000714	0.000675	0.000736	0.002975	0.000573	-2.273740	4.059160	1.266580	-0.568236	-0.047180	0.811766	-1.000000	-1.000000	-1.000000	-1.000000	-1.000000	-1.000000	-1.000000	53.000000	0.000000	-1.000000	-1.000000	197070.000000	1775787307.701944
-20944.935000	-11921.625000	12509.100000	290446.785000	300528.945000	297747.045000	-8794.980000	-1741.140000	-0.001560	-0.000713	0.000422	0.000307	0.000332	0.000426	0.002486	0.000949	-2.273740	4.059160	1.266580	-0.568236	-0.047180	0.811766	-1.000000	-1.000000	-1.000000	-1.000000	-1.000000	-1.000000	-1.000000	53.000000	0.000000	-1.000000	-1.000000	197071.000000	1775787307.701951
-20944.935000	-11921.625000	12509.100000	290446.785000	300528.945000	297747.045000	-8794.980000	-1741.140000	-0.000728	-0.000255	0.000366	-0.000006	0.000044	0.000148	0.001535	0.000917	-2.273740	4.059160	1.266580	-0.568236	-0.047180	0.811766	-1.000000	-1.000000	-1.000000	-1.000000	-1.000000	-1.000000	-1.000000	53.000000	0.000000	-1.000000	-1.000000	197072.000000	1775787307.701958
-20944.935000	-11921.625000	12509.100000	290446.785000	300528.945000	297747.045000	-8794.980000	-1741.140000	-0.000079	0.000075	0.000252	-0.000182	-0.000137	-0.000037	0.000596	0.000676	-2.273740	4.059160	1.266580	-0.568236	-0.047180	0.811766	-1.000000	-1.000000	-1.000000	-1.000000	-1.000000	-1.000000	-1.000000	53.000000	0.000000	-1.000000	-1.000000	197073.000000	1775787307.701965
-20944.935000	-11921.625000	12509.100000	290446.785000	300528.945000	297747.045000	-8794.980000	-1741.140000	0.000296	0.000248	0.000139	-0.000239	-0.000211	-0.000123	-0.000079	0.000390	-2.273740	4.059160	1.266580	-0.568236	-0.047180	0.811766	-1.000000	-1.000000	-1.000000	-1.000000	-1.000000	-1.000000	-1.000000	53.000000	0.000000	-1.000000	-1.000000	197074.000000	1775787307.701972
-20944.935000	-11921.625000	12509.100000	290446.785000	300528.945000	297747.045000	-8794.980000	-1741.140000	0.000423	0.000290	0.000057	-0.000215	-0.000208	-0.000132	-0.000430	0.000158	-2.273740	4.059160	1.266580	-0.568236	-0.047180	0.811766	-1.000000	-1.000000	-1.000000	-1.000000	-1.000000	-1.000000	-1.000000	53.000000	0.000000	-1.000000	-1.000000	197075.000000	1775787307.701978
-20944.935000	-11921.625000	12509.100000	290446.785000	300528.945000	297747.045000	-8794.980000	-1741.140000	0.000383	0.000251	0.000014	-0.000156	-0.000165	-0.000098	-0.000512	0.000018	-2.273740	4.059160	1.266580	-0.568236	-0.047180	0.811766	-1.000000	-1.000000	-1.000000	-1.000000	-1.000000	-1.000000	-1.000000	53.000000	0.000000	-1.000000	-1.000000	197076.000000	1775787307.701985
-20944.935000	-11921.625000	12509.100000	290446.785000	300528.945000	297747.045000	-8794.980000	-1741.140000	0.000265	0.000180	0.000004	-0.000095	-0.000112	-0.000051	-0.000428	-0.000036	-2.273740	4.059160	1.266580	-0.568236	-0.047180	0.811766	-1.000000	-1.000000	-1.000000	-1.000000	-1.000000	-1.000000	-1.000000	53.000000	0.000000	-1.000000	-1.000000	197077.000000	1775787307.701992
-20944.935000	-11921.625000	12509.100000	290446.785000	300528.945000	297747.045000	-8794.980000	-1741.140000	0.000138	0.000110	0.000013	-0.000048	-0.000069	-0.000010	-0.000280	-0.000030	-2.273740	4.059160	1.266580	-0.568236	-0.047180	0.811766	-1.000000	-1.000000	-1.000000	-1.000000	-1.000000	-1.000000	-1.000000	53.000000	0.000000	-1.000000	-1.000000	197078.000000	1775787307.701999
-20944.935000	-11921.625000	12509.100000	290446.785000	300528.945000	297747.045000	-8794.980000	-1741.140000	0.000040	0.000061	0.000030	-0.000022	-0.000042	0.000017	-0.000139	0.000006	-2.273740	4.059160	1.266580	-0.568236	-0.047180	0.811766	-1.000000	-1.000000	-1.000000	-1.000000	-1.000000	-1.000000	-1.000000	53.000000	0.000000	-1.000000	-1.000000	197079.000000	1775787307.702006
-20944.935000	-11921.625000	12509.100000	290446.785000	300528.945000	297747.045000	-8794.980000	-1741.140000	-0.000015	0.000035	0.000046	-0.000014	-0.000031	0.000030	-0.000039	0.000047	-2.273740	4.059160	1.266580	-0.568236	-0.047180	0.811766	-1.000000	-1.000000	-1.000000	-1.000000	-1.000000	-1.000000	-1.000000	53.000000	0.000000	-1.000000	-1.000000	197080.000000	1775787307.702013
-20944.935000	-11921.625000	12509.100000	290446.785000	300528.945000	297747.045000	-8794.980000	-1741.140000	-0.000033	0.000028	0.000057	-0.000017	-0.000031	0.000030	0.000011	0.000079	-2.273740	4.059160	1.266580	-0.568236	-0.047180	0.811766	-1.000000	-1.000000	-1.000000	-1.000000	-1.000000	-1.000000	-1.000000	53.000000	0.000000	-1.000000	-1.000000	197081.000000	1775787307.702020
-20944.935000	-11921.625000	12509.100000	290446.785000	300528.945000	297747.045000	-8794.980000	-1741.140000	-0.000027	0.000034	0.000063	-0.000025	-0.000037	0.000025	0.000022	0.000098	-2.273740	4.059160	1.266580	-0.568236	-0.047180	0.811766	-1.000000	-1.000000	-1.000000	-1.000000	-1.000000	-1.000000	-1.000000	53.000000	0.000000	-1.000000	-1.000000	197082.000000	1775787307.702027
-20944.935000	-11921.625000	12509.100000	290446.785000	300528.945000	297747.045000	-8794.980000	-1741.140000	-0.000009	0.000044	0.000063	-0.000034	-0.000044	0.000018	0.000009	0.000104	-2.273740	4.059160	1.266580	-0.568236	-0.047180	0.811766	-1.000000	-1.000000	-1.000000	-1.000000	-1.000000	-1.000000	-1.000000	53.000000	0.000000	-1.000000	-1.000000	197083.000000	1775787307.702033
-20944.935000	-11921.625000	12509.100000	290446.785000	300528.945000	297747.045000	-8794.980000	-1741.140000	0.000009	0.000053	0.000061	-0.000040	-0.000050	0.000012	-0.000013	0.000102	-2.273740	4.059160	1.266580	-0.568236	-0.047180	0.811766	-1.000000	-1.000000	-1.000000	-1.000000	-1.000000	-1.000000	-1.000000	53.000000	0.000000	-1.000000	-1.000000	197084.000000	1775787307.702040
-20944.935000	-11921.625000	12509.100000	290446.785000	300528.945000	297747.045000	-8794.980000	-1741.140000	0.000023	0.000060	0.000058	-0.000043	-0.000053	0.000008	-0.000033	0.000096	-2.273740	4.059160	1.266580	-0.568236	-0.047180	0.811766	-1.000000	-1.000000	-1.000000	-1.000000	-1.000000	-1.000000	-1.000000	53.000000	0.000000	-1.000000	-1.000000	197085.000000	1775787307.702047
-20944.935000	-11921.625000	12509.100000	290446.785000	300528.945000	297747.045000	-8794.980000	-1741.140000	0.000030	0.000063	0.000056	-0.000044	-0.000054	0.000006	-0.000046	0.000090	-2.273740	4.059160	1.266580	-0.568236	-0.047180	0.811766	-1.000000	-1.000000	-1.000000	-1.000000	-1.000000	-1.000000	-1.000000	53.000000	0.000000	-1.000000	-1.000000	197086.000000	1775787307.702053
-20944.935000	-11921.625000	12509.100000	290446.785000	300528.945000	297747.045000	-8794.980000	-1741.140000	0.000033	0.000063	0.000054	-0.000043	-0.000054	0.000006	-0.000053	0.000084	-2.273740	4.059160	1.266580	-0.568236	-0.047180	0.811766	-1.000000	-1.000000	-1.000000	-1.000000	-1.000000	-1.000000	-1.000000	53.000000	0.000000	-1.000000	-1.000000	197087.000000	1775787307.702060
-20944.935000	-11921.625000	12509.100000	290446.785000	300528.945000	297747.045000	-8794.980000	-1741.140000	0.000031	0.000062	0.000052	-0.000042	-0.000052	0.000007	-0.000053	0.000081	-2.273740	4.059160	1.266580	-0.568236	-0.047180	0.811766	-1.000000	-1.000000	-1.000000	-1.000000	-1.000000	-1.000000	-1.000000	53.000000	0.000000	-1.000000	-1.000000	197088.000000	1775787307.702067
-20944.935000	-11921.625000	12509.100000	290446.785000	300528.945000	297747.045000	-8794.980000	-1741.140000	0.000029	0.000060	0.000052	-0.000040	-0.000051	0.000008	-0.000051	0.000079	-2.273740	4.059160	1.266580	-0.568236	-0.047180	0.811766	-1.000000	-1.000000	-1.000000	-1.000000	-1.000000	-1.000000	-1.000000	53.000000	0.000000	-1.000000	-1.000000	197089.000000	1775787307.702074
-20944.935000	-11921.625000	12509.100000	290446.785000	300528.945000	297747.045000	-8794.980000	-1741.140000	0.000026	0.000058	0.000051	-0.000039	-0.000050	0.000008	-0.000048	0.000079	-2.273740	4.059160	1.266580	-0.568236	-0.047180	0.811766	-1.000000	-1.000000	-1.000000	-1.000000	-1.000000	-1.000000	-1.000000	53.000000	0.000000	-1.000000	-1.000000	197090.000000	1775787307.702081
-20944.935000	-11921.625000	12509.100000	290446.785000	300528.945000	297747.045000	-8794.980000	-1741.140000	0.000024	0.000056	0.000051	-0.000038	-0.000049	0.000009	-0.000045	0.000079	-2.273740	4.059160	1.266580	-0.568236	-0.047180	0.811766	-1.000000	-1.000000	-1.000000	-1.000000	-1.000000	-1.000000	-1.000000	53.000000	0.000000	-1.000000	-1.000000	197091.000000	1775787307.702103
-20944.935000	-11921.625000	12509.100000	290446.785000	300528.945000	297747.045000	-8794.980000	-1741.140000	0.000022	0.000056	0.000051	-0.000038	-0.000048	0.000009	-0.000042	0.000079	-2.273740	4.059160	1.266580	-0.568236	-0.047180	0.811766	-1.000000	-1.000000	-1.000000	-1.000000	-1.000000	-1.000000	-1.000000	53.000000	0.000000	-1.000000	-1.000000	197092.000000	1775787307.702112
-20944.935000	-11921.625000	12509.100000	290446.785000	300528.945000	297747.045000	-8794.980000	-1741.140000	0.000022	0.000055	0.000051	-0.000037	-0.000048	0.000009	-0.000041	0.000079	-2.273740	4.059160	1.266580	-0.568236	-0.047180	0.811766	-1.000000	-1.000000	-1.000000	-1.000000	-1.000000	-1.000000	-1.000000	53.000000	0.000000	-1.000000	-1.000000	197093.000000	1775787307.702120
-20944.935000	-11921.625000	12509.100000	290446.785000	300528.945000	297747.045000	-8794.980000	-1741.140000	0.000022	0.000055	0.000051	-0.000037	-0.000048	0.000009	-0.000040	0.000078	-2.273740	4.059160	1.266580	-0.568236	-0.047180	0.811766	-1.000000	-1.000000	-1.000000	-1.000000	-1.000000	-1.000000	-1.000000	53.000000	0.000000	-1.000000	-1.000000	197094.000000	1775787307.702127
-20944.935000	-11921.625000	12509.100000	290446.785000	300528.945000	297747.045000	-8794.980000	-1741.140000	0.000022	0.000054	0.000050	-0.000037	-0.000047	0.000008	-0.000040	0.000078	-2.273740	4.059160	1.266580	-0.568236	-0.047180	0.811766	-1.000000	-1.000000	-1.000000	-1.000000	-1.000000	-1.000000	-1.000000	53.000000	0.000000	-1.000000	-1.000000	197095.000000	1775787307.702135
-20944.935000	-11921.625000	12509.100000	290446.785000	300528.945000	297747.045000	-8794.980000	-1741.140000	0.000022	0.000054	0.000050	-0.000037	-0.000047	0.000008	-0.000041	0.000077	-2.273740	4.059160	1.266580	-0.568236	-0.047180	0.811766	-1.000000	-1.000000	-1.000000	-1.000000	-1.000000	-1.000000	-1.000000	53.000000	0.000000	-1.000000	-1.000000	197096.000000	1775787307.702142
-20944.935000	-11921.625000	12509.100000	290446.785000	300528.945000	297747.045000	-8794.980000	-1741.140000	0.000022	0.000054	0.000049	-0.000037	-0.000047	0.000008	-0.000041	0.000076	-2.273740	4.059160	1.266580	-0.568236	-0.047180	0.811766	-1.000000	-1.000000	-1.000000	-1.000000	-1.000000	-1.000000	-1.000000	53.000000	0.000000	-1.000000	-1.000000	197097.000000	1775787307.702149
-20944.935000	-11921.625000	12509.100000	290446.785000	300528.945000	297747.045000	-8794.980000	-1741.140000	0.000022	0.000053	0.000049	-0.000036	-0.000046	0.000008	-0.000040	0.000076	-2.273740	4.059160	1.266580	-0.568236	-0.047180	0.811766	-1.000000	-1.000000	-1.000000	-1.000000	-1.000000	-1.000000	-1.000000	53.000000	0.000000	-1.000000	-1.000000	197098.000000	1775787307.702156
-20944.935000	-11921.625000	12509.100000	290446.785000	300528.945000	297747.045000	-8794.980000	-1741.140000	0.000022	0.000053	0.000049	-0.000036	-0.000046	0.000008	-0.000040	0.000075	-2.273740	4.059160	1.266580	-0.568236	-0.047180	0.811766	-1.000000	-1.000000	-1.000000	-1.000000	-1.000000	-1.000000	-1.000000	53.000000	0.000000	-1.000000	-1.000000	197099.000000	1775787307.702163
-20944.935000	-11921.625000	12509.100000	290446.785000	300528.945000	297747.045000	-8794.980000	-1741.140000	0.000022	0.000053	0.000048	-0.000036	-0.000046	0.000008	-0.000040	0.000074	-2.273740	4.059160	1.266580	-0.568236	-0.047180	0.811766	-1.000000	-1.000000	-1.000000	-1.000000	-1.000000	-1.000000	-1.000000	53.000000	0.000000	-1.000000	-1.000000	197100.000000	1775787307.702170
-20944.935000	-11921.625000	12509.100000	290446.785000	300528.945000	297747.045000	-8794.980000	-1741.140000	0.000022	0.000052	0.000048	-0.000035	-0.000045	0.000008	-0.000040	0.000074	-2.273740	4.059160	1.266580	-0.568236	-0.047180	0.811766	-1.000000	-1.000000	-1.000000	-1.000000	-1.000000	-1.000000	-1.000000	53.000000	0.000000	-1.000000	-1.000000	197101.000000	1775787307.702183
-20944.935000	-11921.625000	12509.100000	290446.785000	300528.945000	297747.045000	-8794.980000	-1741.140000	0.000022	0.000052	0.000047	-0.000035	-0.000045	0.000008	-0.000039	0.000073	-2.273740	4.059160	1.266580	-0.568236	-0.047180	0.811766	-1.000000	-1.000000	-1.000000	-1.000000	-1.000000	-1.000000	-1.000000	53.000000	0.000000	-1.000000	-1.000000	197102.000000	1775787307.702190
-20944.935000	-11921.625000	12509.100000	290446.785000	300528.945000	297747.045000	-8794.980000	-1741.140000	0.000021	0.000051	0.000047	-0.000035	-0.000044	0.000007	-0.000039	0.000072	-2.273740	4.059160	1.266580	-0.568236	-0.047180	0.811766	-1.000000	-1.000000	-1.000000	-1.000000	-1.000000	-1.000000	-1.000000	53.000000	0.000000	-1.000000	-1.000000	197103.000000	1775787307.702197
-20944.935000	-11921.625000	12509.100000	290446.785000	300528.945000	297747.045000	-8794.980000	-1741.140000	0.000021	0.000051	0.000046	-0.000034	-0.000044	0.000007	-0.000038	0.000072	-2.273740	4.059160	1.266580	-0.568236	-0.047180	0.811766	-1.000000	-1.000000	-1.000000	-1.000000	-1.000000	-1.000000	-1.000000	53.000000	0.000000	-1.000000	-1.000000	197104.000000	1775787307.702204
