Channel1	Channel2	Channel3	Channel4	Channel5	Channel6	Channel7	Channel8	FilteredChannel1	FilteredChannel2	FilteredChannel3	FilteredChannel4	FilteredChannel5	FilteredChannel6	FilteredChannel7	FilteredChannel8	GyroX	GyroY	GyroZ	AccX	AccY	AccZ	PPG1	PPG2	rawPPG1	rawPPG2	rawPPG3	Hr	Hrv	Battery	Trigger	PhysicalTrigger	AutoTrigger	NumMeasurements	Timestamp
1127.205000	-36223.155000	44751.060000	36348.975000	51038.235000	16436.475000	-22938.750000	-50873.220000	2.981613	2.538149	5.103602	-0.308797	-2.096204	35.179180	7.867511	7.421983	11.460260	0.549360	1.876980	-0.873838	-0.227233	0.431578	-1.000000	-1.000000	-1.000000	-1.000000	-1.000000	-1.000000	-1.000000	60.000000	0.000000	-1.000000	-1.000000	567561.000000	1775766009.168765
1120.455000	-36230.805000	44742.195000	36344.070000	51035.985000	16429.410000	-22930.740000	-50875.155000	7.958985	6.754836	9.635157	5.436859	0.619629	28.530969	5.127497	10.982278	11.460260	0.549360	1.876980	-0.873838	-0.227233	0.431578	-1.000000	-1.000000	-1.000000	-1.000000	-1.000000	-1.000000	-1.000000	60.000000	0.000000	-1.000000	-1.000000	567562.000000	1775766009.171309
1113.795000	-36235.170000	44738.055000	36341.595000	51032.385000	16433.685000	-22927.905000	-50879.970000	9.767277	7.905690	9.822791	8.279772	2.778687	7.665628	2.172245	11.346788	11.460260	0.549360	1.876980	-0.873838	-0.227233	0.431578	-1.000000	-1.000000	-1.000000	-1.000000	-1.000000	-1.000000	-1.000000	60.000000	0.000000	-1.000000	-1.000000	567563.000000	1775766009.171335
1118.655000	-36231.885000	44739.045000	36338.130000	51023.385000	16415.730000	-22929.975000	-50877.720000	7.045315	4.970967	5.295742	6.589891	2.512048	-14.035416	0.553933	7.825615	11.460260	0.549360	1.876980	-0.873838	-0.227233	0.431578	-1.000000	-1.000000	-1.000000	-1.000000	-1.000000	-1.000000	-1.000000	60.000000	0.000000	-1.000000	-1.000000	567564.000000	1775766009.176675
1125.945000	-36224.415000	44747.370000	36343.620000	51027.660000	16416.450000	-22931.055000	-50872.590000	1.994170	0.398577	-0.682673	2.091833	0.080598	-25.923420	-0.350479	2.087710	11.460260	0.549360	1.876980	-0.873838	-0.227233	0.431578	-1.000000	-1.000000	-1.000000	-1.000000	-1.000000	-1.000000	-1.000000	60.000000	0.000000	-1.000000	-1.000000	567565.000000	1775766009.176698
1126.710000	-36222.345000	44750.430000	36348.345000	51034.275000	16421.445000	-22931.280000	-50873.535000	-1.935538	-2.589257	-4.285406	-1.950719	-2.269263	-24.947630	-1.508857	-2.956241	11.460260	0.549360	1.876980	-0.873838	-0.227233	0.431578	-1.000000	-1.000000	-1.000000	-1.000000	-1.000000	-1.000000	-1.000000	60.000000	0.000000	-1.000000	-1.000000	567566.000000	1775766009.184805
1125.450000	-36223.470000	44748.405000	36346.725000	51033.915000	16424.055000	-22931.730000	-50875.965000	-3.353530	-2.972898	-4.329841	-3.417232	-2.387663	-13.990386	-2.865718	-5.630676	11.460260	0.549360	1.876980	-0.873838	-0.227233	0.431578	-1.000000	-1.000000	-1.000000	-1.000000	-1.000000	-1.000000	-1.000000	60.000000	0.000000	-1.000000	-1.000000	567567.000000	1775766009.184830
1122.885000	-36225.180000	44745.345000	36339.795000	51022.485000	16436.520000	-22939.965000	-50882.220000	-3.225180	-2.060426	-2.551003	-2.798529	-0.645914	0.754637	-3.833156	-6.203410	11.460260	0.549360	1.876980	-0.873838	-0.227233	0.431578	-1.000000	-1.000000	-1.000000	-1.000000	-1.000000	-1.000000	-1.000000	60.000000	0.000000	-1.000000	-1.000000	567568.000000	1775766009.184857
1124.685000	-36224.370000	44746.695000	36342.360000	51027.255000	16447.275000	-22938.255000	-50879.880000	-2.848141	-1.417846	-1.155570	-1.879327	0.801889	12.980903	-4.072492	-5.570915	11.460260	0.549360	1.876980	-0.873838	-0.227233	0.431578	-1.000000	-1.000000	-1.000000	-1.000000	-1.000000	-1.000000	-1.000000	60.000000	0.000000	-1.000000	-1.000000	567569.000000	1775766009.184869
1131.615000	-36217.755000	44753.310000	36352.620000	51032.025000	16395.750000	-22938.570000	-50874.480000	-2.398456	-1.302114	-0.686118	-1.242091	1.084759	17.730508	-3.306856	-3.952712	10.468360	1.953280	2.838360	-0.868894	-0.219543	0.434630	-1.000000	-1.000000	-1.000000	-1.000000	-1.000000	-1.000000	-1.000000	60.000000	0.000000	-1.000000	-1.000000	567570.000000	1775766009.187057
1130.715000	-36218.430000	44751.735000	36354.285000	51030.135000	16387.380000	-22939.335000	-50876.415000	-1.384208	-1.025326	-0.383637	-0.143377	1.040330	12.112760	-1.412810	-1.284224	10.468360	1.953280	2.838360	-0.868894	-0.219543	0.434630	-1.000000	-1.000000	-1.000000	-1.000000	-1.000000	-1.000000	-1.000000	60.000000	0.000000	-1.000000	-1.000000	567571.000000	1775766009.187077
1129.275000	-36219.195000	44751.060000	36354.105000	51036.300000	16484.625000	-22932.945000	-50876.820000	-0.008673	-0.369011	0.096888	1.421488	1.228039	1.170567	1.126074	1.594163	10.468360	1.953280	2.838360	-0.868894	-0.219543	0.434630	-1.000000	-1.000000	-1.000000	-1.000000	-1.000000	-1.000000	-1.000000	60.000000	0.000000	-1.000000	-1.000000	567572.000000	1775766009.190120
1126.125000	-36224.145000	44742.960000	36341.505000	51030.405000	16507.620000	-22935.825000	-50879.610000	0.773780	0.042091	0.198721	2.033641	1.347767	-2.744113	3.426587	3.279299	10.468360	1.953280	2.838360	-0.868894	-0.219543	0.434630	-1.000000	-1.000000	-1.000000	-1.000000	-1.000000	-1.000000	-1.000000	60.000000	0.000000	-1.000000	-1.000000	567573.000000	1775766009.190140
1134.720000	-36216.900000	44750.520000	36341.325000	51020.910000	16363.620000	-22946.355000	-50872.050000	0.627512	-0.155197	-0.390046	0.541023	0.660143	1.714973	4.301974	3.270775	10.468360	1.953280	2.838360	-0.868894	-0.219543	0.434630	-1.000000	-1.000000	-1.000000	-1.000000	-1.000000	-1.000000	-1.000000	60.000000	0.000000	-1.000000	-1.000000	567574.000000	1775766009.195196
1134.855000	-36217.575000	44753.220000	36348.705000	51027.210000	16344.225000	-22945.050000	-50871.465000	0.332600	-0.377696	-0.843779	-2.018580	-1.089956	-0.319298	2.904223	2.356061	10.468360	1.953280	2.838360	-0.868894	-0.219543	0.434630	-1.000000	-1.000000	-1.000000	-1.000000	-1.000000	-1.000000	-1.000000	60.000000	0.000000	-1.000000	-1.000000	567575.000000	1775766009.195224
1141.740000	-36206.820000	44765.865000	36364.950000	51043.050000	16366.770000	-22932.765000	-50868.675000	0.616045	0.129615	-0.031671	-2.864672	-2.374819	-14.296212	0.345411	1.448907	10.468360	1.953280	2.838360	-0.868894	-0.219543	0.434630	-1.000000	-1.000000	-1.000000	-1.000000	-1.000000	-1.000000	-1.000000	60.000000	0.000000	-1.000000	-1.000000	567576.000000	1775766009.198391
1138.365000	-36210.870000	44760.060000	36358.065000	51032.610000	16364.835000	-22930.335000	-50872.680000	1.228444	1.305294	1.886175	-0.650120	-1.475974	-25.220396	-0.927921	0.630176	10.468360	1.953280	2.838360	-0.868894	-0.219543	0.434630	-1.000000	-1.000000	-1.000000	-1.000000	-1.000000	-1.000000	-1.000000	60.000000	0.000000	-1.000000	-1.000000	567577.000000	1775766009.198410
1131.480000	-36219.375000	44751.960000	36351.675000	51032.655000	16415.730000	-22940.550000	-50880.015000	1.176581	1.960956	3.032104	2.421387	0.616996	-18.789363	-0.326261	-0.591422	10.468360	1.953280	2.838360	-0.868894	-0.219543	0.434630	-1.000000	-1.000000	-1.000000	-1.000000	-1.000000	-1.000000	-1.000000	60.000000	0.000000	-1.000000	-1.000000	567578.000000	1775766009.206561
1124.955000	-36227.115000	44743.815000	36345.600000	51033.060000	16443.630000	-22947.705000	-50884.605000	-0.326171	0.728666	1.545107	3.011734	1.597051	3.788792	0.133563	-2.424173	10.468360	1.953280	2.838360	-0.868894	-0.219543	0.434630	-1.000000	-1.000000	-1.000000	-1.000000	-1.000000	-1.000000	-1.000000	60.000000	0.000000	-1.000000	-1.000000	567579.000000	1775766009.206586
1122.210000	-36230.085000	44740.980000	36342.585000	51027.705000	16443.630000	-22945.455000	-50885.505000	-2.743232	-2.108107	-2.102865	0.463102	0.820293	28.975676	-1.019567	-4.094693	4.761120	1.968540	3.235120	-0.867429	-0.208496	0.438414	-1.000000	-1.000000	-1.000000	-1.000000	-1.000000	-1.000000	-1.000000	60.000000	0.000000	-1.000000	-1.000000	567580.000000	1775766009.211836
1126.215000	-36225.630000	44745.705000	36347.985000	51036.345000	16462.755000	-22933.980000	-50881.230000	-4.258766	-4.356740	-5.166862	-2.830208	-0.678640	40.922181	-2.474435	-4.187218	4.761120	1.968540	3.235120	-0.867429	-0.208496	0.438414	-1.000000	-1.000000	-1.000000	-1.000000	-1.000000	-1.000000	-1.000000	60.000000	0.000000	-1.000000	-1.000000	567581.000000	1775766009.211860
1133.820000	-36218.835000	44753.445000	36353.340000	51036.705000	16456.860000	-22932.540000	-50875.830000	-3.184008	-3.775965	-4.946034	-3.896624	-1.411571	32.847451	-2.002536	-1.906344	4.761120	1.968540	3.235120	-0.867429	-0.208496	0.438414	-1.000000	-1.000000	-1.000000	-1.000000	-1.000000	-1.000000	-1.000000	60.000000	0.000000	-1.000000	-1.000000	567582.000000	1775766009.211889
1134.630000	-36217.305000	44755.785000	36355.410000	51036.480000	16460.685000	-22937.940000	-50876.955000	0.438141	-0.172185	-1.108715	-1.763200	-0.774951	10.208477	0.338512	1.902029	4.761120	1.968540	3.235120	-0.867429	-0.208496	0.438414	-1.000000	-1.000000	-1.000000	-1.000000	-1.000000	-1.000000	-1.000000	60.000000	0.000000	-1.000000	-1.000000	567583.000000	1775766009.211901
1132.470000	-36219.915000	44751.960000	36350.145000	51031.755000	16440.120000	-22939.470000	-50878.710000	4.415302	4.143568	3.800062	1.768175	0.314928	-15.448845	2.228920	5.002721	4.761120	1.968540	3.235120	-0.867429	-0.208496	0.438414	-1.000000	-1.000000	-1.000000	-1.000000	-1.000000	-1.000000	-1.000000	60.000000	0.000000	-1.000000	-1.000000	567584.000000	1775766009.214368
1132.020000	-36220.050000	44752.590000	36350.100000	51027.255000	16350.840000	-22940.955000	-50878.170000	6.086076	6.240326	6.423937	3.890252	0.558899	-35.170241	2.021096	5.515753	4.761120	1.968540	3.235120	-0.867429	-0.208496	0.438414	-1.000000	-1.000000	-1.000000	-1.000000	-1.000000	-1.000000	-1.000000	60.000000	0.000000	-1.000000	-1.000000	567585.000000	1775766009.214389
1139.535000	-36211.905000	44761.635000	36360.090000	51032.880000	16345.485000	-22940.325000	-50872.500000	4.713803	5.156281	5.570251	3.546126	-0.206679	-45.582717	0.255449	3.543677	4.761120	1.968540	3.235120	-0.867429	-0.208496	0.438414	-1.000000	-1.000000	-1.000000	-1.000000	-1.000000	-1.000000	-1.000000	60.000000	0.000000	-1.000000	-1.000000	567586.000000	1775766009.218525
1141.470000	-36210.375000	44763.030000	36360.585000	51041.340000	16460.595000	-22939.155000	-50872.095000	1.831440	2.341635	2.762406	1.984187	-0.707769	-41.283175	-1.426080	0.768696	4.761120	1.968540	3.235120	-0.867429	-0.208496	0.438414	-1.000000	-1.000000	-1.000000	-1.000000	-1.000000	-1.000000	-1.000000	60.000000	0.000000	-1.000000	-1.000000	567587.000000	1775766009.218546
1138.995000	-36212.490000	44761.095000	36357.255000	51042.420000	16494.300000	-22942.980000	-50878.800000	-0.790534	-0.421849	-0.103807	0.495408	0.209441	-15.264957	-1.933395	-1.481090	4.761120	1.968540	3.235120	-0.867429	-0.208496	0.438414	-1.000000	-1.000000	-1.000000	-1.000000	-1.000000	-1.000000	-1.000000	60.000000	0.000000	-1.000000	-1.000000	567588.000000	1775766009.223836
1125.000000	-36225.945000	44749.125000	36350.955000	51039.405000	16435.530000	-22945.545000	-50892.030000	-2.842424	-2.738389	-2.565424	-0.989927	1.854211	23.373788	-1.429981	-3.284293	4.761120	1.968540	3.235120	-0.867429	-0.208496	0.438414	-1.000000	-1.000000	-1.000000	-1.000000	-1.000000	-1.000000	-1.000000	60.000000	0.000000	-1.000000	-1.000000	567589.000000	1775766009.223857
1125.360000	-36229.365000	44745.885000	36351.135000	51042.420000	16432.695000	-22934.790000	-50886.180000	-4.740089	-4.948266	-4.873044	-2.722187	2.488784	48.594328	-0.454151	-4.865563	-0.030520	0.946120	2.197440	-0.869260	-0.202758	0.440795	-1.000000	-1.000000	-1.000000	-1.000000	-1.000000	-1.000000	-1.000000	60.000000	0.000000	-1.000000	-1.000000	567590.000000	1775766009.227345
1128.420000	-36230.625000	44742.555000	36348.210000	51042.420000	16447.095000	-22928.715000	-50879.205000	-5.794365	-6.461707	-6.458216	-4.019251	1.471722	44.594535	1.062170	-5.027537	-0.030520	0.946120	2.197440	-0.869260	-0.202758	0.440795	-1.000000	-1.000000	-1.000000	-1.000000	-1.000000	-1.000000	-1.000000	60.000000	0.000000	-1.000000	-1.000000	567591.000000	1775766009.227367
1131.255000	-36226.305000	44745.345000	36348.750000	51039.945000	16480.395000	-22934.070000	-50878.755000	-4.540164	-5.780853	-6.001327	-3.917580	-0.440515	20.539391	2.824024	-2.496050	-0.030520	0.946120	2.197440	-0.869260	-0.202758	0.440795	-1.000000	-1.000000	-1.000000	-1.000000	-1.000000	-1.000000	-1.000000	60.000000	0.000000	-1.000000	-1.000000	567592.000000	1775766009.231207
1131.525000	-36221.535000	44752.275000	36356.580000	51042.870000	16452.315000	-22948.335000	-50883.120000	-0.917809	-2.248378	-2.822381	-2.068726	-2.169492	-4.548854	3.145646	1.621843	-0.030520	0.946120	2.197440	-0.869260	-0.202758	0.440795	-1.000000	-1.000000	-1.000000	-1.000000	-1.000000	-1.000000	-1.000000	60.000000	0.000000	-1.000000	-1.000000	567593.000000	1775766009.231234
1132.740000	-36217.260000	44758.260000	36366.165000	51049.260000	16437.420000	-22954.320000	-50884.785000	3.213146	2.899467	2.246492	1.207220	-2.757365	-20.358454	0.631471	4.549068	-0.030520	0.946120	2.197440	-0.869260	-0.202758	0.440795	-1.000000	-1.000000	-1.000000	-1.000000	-1.000000	-1.000000	-1.000000	60.000000	0.000000	-1.000000	-1.000000	567594.000000	1775766009.241435
1136.520000	-36215.415000	44761.770000	36373.410000	51053.490000	16443.045000	-22951.665000	-50883.525000	5.763163	7.182271	7.027485	4.857226	-1.704577	-26.293530	-3.406576	4.695585	-0.030520	0.946120	2.197440	-0.869260	-0.202758	0.440795	-1.000000	-1.000000	-1.000000	-1.000000	-1.000000	-1.000000	-1.000000	60.000000	0.000000	-1.000000	-1.000000	567595.000000	1775766009.241454
1132.065000	-36224.415000	44755.380000	36370.755000	51042.915000	16427.655000	-22950.990000	-50888.430000	5.796077	8.281961	8.985283	7.022663	0.169241	-23.922594	-5.686937	2.663550	-0.030520	0.946120	2.197440	-0.869260	-0.202758	0.440795	-1.000000	-1.000000	-1.000000	-1.000000	-1.000000	-1.000000	-1.000000	60.000000	0.000000	-1.000000	-1.000000	567596.000000	1775766009.241477
1132.920000	-36232.830000	44743.050000	36360.855000	51033.735000	16426.395000	-22952.205000	-50887.395000	3.557470	5.262613	6.573305	5.816883	0.892615	-15.417708	-4.309848	0.000902	-0.030520	0.946120	2.197440	-0.869260	-0.202758	0.440795	-1.000000	-1.000000	-1.000000	-1.000000	-1.000000	-1.000000	-1.000000	60.000000	0.000000	-1.000000	-1.000000	567597.000000	1775766009.241486
1135.260000	-36232.470000	44732.250000	36328.635000	51014.520000	16433.505000	-22948.830000	-50889.915000	0.267098	-0.478579	0.395021	0.475576	-0.816660	-4.102045	-0.318089	-1.957304	-0.030520	0.946120	2.197440	-0.869260	-0.202758	0.440795	-1.000000	-1.000000	-1.000000	-1.000000	-1.000000	-1.000000	-1.000000	60.000000	0.000000	-1.000000	-1.000000	567598.000000	1775766009.242050
1131.570000	-36230.355000	44734.680000	36321.345000	51012.630000	16449.705000	-22948.290000	-50895.990000	-2.456832	-5.531335	-6.414557	-7.510241	-4.005660	7.162137	3.821721	-2.654869	-0.030520	0.946120	2.197440	-0.869260	-0.202758	0.440795	-1.000000	-1.000000	-1.000000	-1.000000	-1.000000	-1.000000	-1.000000	60.000000	0.000000	-1.000000	-1.000000	567599.000000	1775766009.242070
1124.640000	-36226.395000	44748.855000	36349.695000	51033.915000	16470.360000	-22949.235000	-50898.285000	-3.856263	-6.883452	-9.497571	-13.180208	-5.430490	16.315896	6.052502	-2.410462	5.447820	1.037680	0.289940	-0.866331	-0.205566	0.442870	-1.000000	-1.000000	-1.000000	-1.000000	-1.000000	-1.000000	-1.000000	60.000000	0.000000	-1.000000	-1.000000	567600.000000	1775766009.248793
1125.450000	-36214.785000	44764.020000	36367.560000	51042.105000	16423.065000	-22947.660000	-50889.240000	-4.131860	-4.014024	-6.239984	-10.560368	-1.961823	20.300422	5.568465	-1.487144	5.447820	1.037680	0.289940	-0.866331	-0.205566	0.442870	-1.000000	-1.000000	-1.000000	-1.000000	-1.000000	-1.000000	-1.000000	60.000000	0.000000	-1.000000	-1.000000	567601.000000	1775766009.248820
1137.195000	-36205.020000	44773.290000	36377.190000	51045.165000	16381.980000	-22950.765000	-50874.120000	-3.169410	1.303905	1.756610	0.628252	5.399782	14.694259	2.959897	0.575168	5.447820	1.037680	0.289940	-0.866331	-0.205566	0.442870	-1.000000	-1.000000	-1.000000	-1.000000	-1.000000	-1.000000	-1.000000	60.000000	0.000000	-1.000000	-1.000000	567602.000000	1775766009.250570
1152.585000	-36203.175000	44764.380000	36368.820000	51034.995000	16377.975000	-22954.500000	-50858.595000	-0.320419	6.134977	9.175085	12.937829	11.335938	-0.310673	-0.466474	3.987008	5.447820	1.037680	0.289940	-0.866331	-0.205566	0.442870	-1.000000	-1.000000	-1.000000	-1.000000	-1.000000	-1.000000	-1.000000	60.000000	0.000000	-1.000000	-1.000000	567603.000000	1775766009.250588
1147.455000	-36216.180000	44752.860000	36357.660000	51034.275000	16398.945000	-22939.920000	-50864.805000	3.803500	7.420815	10.548045	17.457012	11.100023	-15.115016	-3.148708	7.153175	5.447820	1.037680	0.289940	-0.866331	-0.205566	0.442870	-1.000000	-1.000000	-1.000000	-1.000000	-1.000000	-1.000000	-1.000000	60.000000	0.000000	-1.000000	-1.000000	567604.000000	1775766009.254455
1142.100000	-36224.280000	44749.260000	36350.010000	51029.415000	16444.845000	-22941.855000	-50872.275000	6.345664	3.652068	4.592435	11.166500	4.724833	-17.589703	-3.630757	6.974289	5.447820	1.037680	0.289940	-0.866331	-0.205566	0.442870	-1.000000	-1.000000	-1.000000	-1.000000	-1.000000	-1.000000	-1.000000	60.000000	0.000000	-1.000000	-1.000000	567605.000000	1775766009.254474
1141.110000	-36226.665000	44745.120000	36343.305000	51019.155000	16455.195000	-22942.485000	-50872.320000	4.807581	-3.350086	-4.600234	-1.367858	-3.790570	-4.735486	-2.055254	2.014223	5.447820	1.037680	0.289940	-0.866331	-0.205566	0.442870	-1.000000	-1.000000	-1.000000	-1.000000	-1.000000	-1.000000	-1.000000	60.000000	0.000000	-1.000000	-1.000000	567606.000000	1775766009.266045
1138.500000	-36224.505000	44752.365000	36356.580000	51029.820000	16451.865000	-22941.270000	-50875.200000	-0.001230	-9.108013	-10.962085	-12.024355	-9.887802	13.623109	-0.237331	-5.220622	5.447820	1.037680	0.289940	-0.866331	-0.205566	0.442870	-1.000000	-1.000000	-1.000000	-1.000000	-1.000000	-1.000000	-1.000000	60.000000	0.000000	-1.000000	-1.000000	567607.000000	1775766009.266070
1142.145000	-36222.525000	44750.520000	36363.915000	51035.895000	16447.860000	-22946.310000	-50872.140000	-4.805133	-9.902898	-10.919455	-14.622344	-10.523282	23.254829	0.380075	-10.343249	5.447820	1.037680	0.289940	-0.866331	-0.205566	0.442870	-1.000000	-1.000000	-1.000000	-1.000000	-1.000000	-1.000000	-1.000000	60.000000	0.000000	-1.000000	-1.000000	567608.000000	1775766009.266097
1141.560000	-36220.410000	44744.535000	36356.760000	51026.535000	16433.280000	-22944.915000	-50872.365000	-6.737046	-5.489112	-5.511939	-8.888645	-5.881699	17.506107	-0.296159	-10.615553	5.447820	1.037680	0.289940	-0.866331	-0.205566	0.442870	-1.000000	-1.000000	-1.000000	-1.000000	-1.000000	-1.000000	-1.000000	60.000000	0.000000	-1.000000	-1.000000	567609.000000	1775766009.266109
1137.780000	-36217.305000	44753.715000	36361.125000	51023.205000	16403.895000	-22945.275000	-50884.515000	-5.266556	1.285254	1.314089	-0.037761	0.260181	0.396494	-1.357075	-6.645787	11.795980	1.419180	-2.624720	-0.866453	-0.203979	0.445006	-1.000000	-1.000000	-1.000000	-1.000000	-1.000000	-1.000000	-1.000000	60.000000	0.000000	-1.000000	-1.000000	567610.000000	1775766009.266656
1139.220000	-36215.820000	44758.710000	36365.535000	51023.835000	16397.685000	-22953.060000	-50887.080000	-1.989900	6.838320	6.444787	6.415819	4.025255	-18.325662	-1.862999	-1.475769	11.795980	1.419180	-2.624720	-0.866453	-0.203979	0.445006	-1.000000	-1.000000	-1.000000	-1.000000	-1.000000	-1.000000	-1.000000	60.000000	0.000000	-1.000000	-1.000000	567611.000000	1775766009.266669
1138.995000	-36222.030000	44751.555000	36359.370000	51022.170000	16431.705000	-22951.755000	-50878.665000	1.197022	8.763314	8.603012	8.282454	4.552516	-28.055838	-1.665663	2.534112	11.795980	1.419180	-2.624720	-0.866453	-0.203979	0.445006	-1.000000	-1.000000	-1.000000	-1.000000	-1.000000	-1.000000	-1.000000	60.000000	0.000000	-1.000000	-1.000000	567612.000000	1775766009.276436
1131.660000	-36234.315000	44741.025000	36353.610000	51031.080000	16470.990000	-22944.330000	-50877.135000	3.113731	6.383986	7.102546	5.925257	3.339027	-21.831148	-0.760102	5.261828	11.795980	1.419180	-2.624720	-0.866453	-0.203979	0.445006	-1.000000	-1.000000	-1.000000	-1.000000	-1.000000	-1.000000	-1.000000	60.000000	0.000000	-1.000000	-1.000000	567613.000000	1775766009.276461
1138.455000	-36231.255000	44743.455000	36353.745000	51023.655000	16435.305000	-22948.110000	-50868.180000	3.374226	1.056549	2.436550	1.155481	2.059805	-2.918561	0.969896	7.150155	11.795980	1.419180	-2.624720	-0.866453	-0.203979	0.445006	-1.000000	-1.000000	-1.000000	-1.000000	-1.000000	-1.000000	-1.000000	60.000000	0.000000	-1.000000	-1.000000	567614.000000	1775766009.276488
1138.770000	-36226.980000	44739.225000	36348.030000	51016.815000	16442.145000	-22951.485000	-50867.415000	2.649350	-3.899981	-2.802132	-3.334196	0.960549	15.106708	2.703915	7.861240	11.795980	1.419180	-2.624720	-0.866453	-0.203979	0.445006	-1.000000	-1.000000	-1.000000	-1.000000	-1.000000	-1.000000	-1.000000	60.000000	0.000000	-1.000000	-1.000000	567615.000000	1775766009.276500
1136.475000	-36222.930000	44738.055000	36349.560000	51025.455000	16458.660000	-22943.430000	-50873.265000	1.866002	-5.354171	-5.742386	-5.425915	-0.403484	21.189108	3.260618	6.543233	11.795980	1.419180	-2.624720	-0.866453	-0.203979	0.445006	-1.000000	-1.000000	-1.000000	-1.000000	-1.000000	-1.000000	-1.000000	60.000000	0.000000	-1.000000	-1.000000	567616.000000	1775766009.279299
1141.470000	-36222.615000	44749.260000	36358.155000	51026.310000	16398.360000	-22951.170000	-50878.305000	1.211887	-3.001128	-5.198236	-4.401846	-1.400951	14.834668	2.537085	2.710685	11.795980	1.419180	-2.624720	-0.866453	-0.203979	0.445006	-1.000000	-1.000000	-1.000000	-1.000000	-1.000000	-1.000000	-1.000000	60.000000	0.000000	-1.000000	-1.000000	567617.000000	1775766009.279322
1142.190000	-36226.170000	44750.385000	36357.930000	51030.225000	16412.490000	-22947.165000	-50877.630000	0.634418	0.703993	-1.704323	-0.887537	-1.132873	1.161426	1.072597	-2.557142	11.795980	1.419180	-2.624720	-0.866453	-0.203979	0.445006	-1.000000	-1.000000	-1.000000	-1.000000	-1.000000	-1.000000	-1.000000	60.000000	0.000000	-1.000000	-1.000000	567618.000000	1775766009.287803
1146.870000	-36221.265000	44756.055000	36362.970000	51038.055000	16432.020000	-22945.095000	-50870.880000	0.231203	3.025850	2.742541	3.170742	0.192182	-11.536973	-0.465813	-6.591385	11.795980	1.419180	-2.624720	-0.866453	-0.203979	0.445006	-1.000000	-1.000000	-1.000000	-1.000000	-1.000000	-1.000000	-1.000000	60.000000	0.000000	-1.000000	-1.000000	567619.000000	1775766009.287827
1141.470000	-36226.620000	44751.960000	36359.280000	51034.770000	16447.590000	-22941.585000	-50874.930000	-0.126634	2.993766	5.520032	5.470418	1.581784	-14.407995	-1.268845	-7.208212	8.209880	3.036740	-4.486440	-0.868223	-0.193603	0.444091	-1.000000	-1.000000	-1.000000	-1.000000	-1.000000	-1.000000	-1.000000	60.000000	0.000000	-1.000000	-1.000000	567620.000000	1775766009.288473
1146.600000	-36221.085000	44757.405000	36363.420000	51036.120000	16447.995000	-22939.155000	-50872.590000	-0.739453	1.320068	5.130174	4.893009	1.868032	-6.258824	-1.043886	-4.673581	8.209880	3.036740	-4.486440	-0.868223	-0.193603	0.444091	-1.000000	-1.000000	-1.000000	-1.000000	-1.000000	-1.000000	-1.000000	60.000000	0.000000	-1.000000	-1.000000	567621.000000	1775766009.288494
1156.410000	-36212.490000	44763.885000	36367.380000	51033.240000	16428.960000	-22942.710000	-50865.390000	-1.294173	-0.442391	2.308184	2.195431	0.530220	4.994572	-0.371688	-0.884741	8.209880	3.036740	-4.486440	-0.868223	-0.193603	0.444091	-1.000000	-1.000000	-1.000000	-1.000000	-1.000000	-1.000000	-1.000000	60.000000	0.000000	-1.000000	-1.000000	567622.000000	1775766009.290571
1155.555000	-36210.150000	44761.095000	36364.275000	51024.555000	16413.300000	-22946.310000	-50865.030000	-1.045223	-0.922809	-0.909534	-0.853335	-1.886192	10.018542	-0.230268	2.496332	8.209880	3.036740	-4.486440	-0.868223	-0.193603	0.444091	-1.000000	-1.000000	-1.000000	-1.000000	-1.000000	-1.000000	-1.000000	60.000000	0.000000	-1.000000	-1.000000	567623.000000	1775766009.290585
1153.080000	-36210.870000	44766.945000	36370.530000	51032.205000	16437.645000	-22945.995000	-50872.455000	-0.278326	-0.263927	-3.117209	-2.958192	-4.127463	6.470887	-1.006923	4.181485	8.209880	3.036740	-4.486440	-0.868223	-0.193603	0.444091	-1.000000	-1.000000	-1.000000	-1.000000	-1.000000	-1.000000	-1.000000	60.000000	0.000000	-1.000000	-1.000000	567624.000000	1775766009.295480
1148.850000	-36213.570000	44769.420000	36375.885000	51039.810000	16461.765000	-22940.370000	-50878.665000	-0.210157	0.130629	-3.883182	-3.510881	-4.476395	0.478370	-1.872669	3.227994	8.209880	3.036740	-4.486440	-0.868223	-0.193603	0.444091	-1.000000	-1.000000	-1.000000	-1.000000	-1.000000	-1.000000	-1.000000	60.000000	0.000000	-1.000000	-1.000000	567625.000000	1775766009.295504
1145.160000	-36221.220000	44761.950000	36370.350000	51033.285000	16446.285000	-22942.935000	-50881.230000	-1.336432	-0.783357	-3.460509	-2.614517	-2.196630	-1.555181	-1.689888	0.123077	8.209880	3.036740	-4.486440	-0.868223	-0.193603	0.444091	-1.000000	-1.000000	-1.000000	-1.000000	-1.000000	-1.000000	-1.000000	60.000000	0.000000	-1.000000	-1.000000	567626.000000	1775766009.299923
1147.635000	-36220.995000	44763.750000	36376.785000	51038.910000	16408.620000	-22948.245000	-50878.530000	-2.764696	-2.708052	-2.715587	-1.267051	1.156655	-0.965977	-0.557085	-2.967452	8.209880	3.036740	-4.486440	-0.868223	-0.193603	0.444091	-1.000000	-1.000000	-1.000000	-1.000000	-1.000000	-1.000000	-1.000000	60.000000	0.000000	-1.000000	-1.000000	567627.000000	1775766009.299948
1148.670000	-36225.675000	44758.215000	36375.345000	51041.025000	16425.405000	-22947.795000	-50875.740000	-3.019676	-4.226767	-2.192451	-0.317781	3.486545	-2.644968	0.405986	-3.777419	8.209880	3.036740	-4.486440	-0.868223	-0.193603	0.444091	-1.000000	-1.000000	-1.000000	-1.000000	-1.000000	-1.000000	-1.000000	60.000000	0.000000	-1.000000	-1.000000	567628.000000	1775766009.303398
1139.040000	-36234.405000	44750.610000	36367.785000	51034.545000	16443.360000	-22941.360000	-50880.375000	-1.645549	-4.196151	-1.820253	-0.035065	3.893047	-5.686491	0.790794	-1.893414	8.209880	3.036740	-4.486440	-0.868223	-0.193603	0.444091	-1.000000	-1.000000	-1.000000	-1.000000	-1.000000	-1.000000	-1.000000	60.000000	0.000000	-1.000000	-1.000000	567629.000000	1775766009.303423
1132.110000	-36242.055000	44742.870000	36359.685000	51034.545000	16457.760000	-22934.565000	-50885.595000	0.130193	-2.812613	-1.536997	-0.673911	2.377697	-4.834901	1.305676	0.905184	0.183120	4.623780	-4.349100	-0.868467	-0.188842	0.437377	-1.000000	-1.000000	-1.000000	-1.000000	-1.000000	-1.000000	-1.000000	60.000000	0.000000	-1.000000	-1.000000	567630.000000	1775766009.308260
1138.455000	-36234.405000	44747.730000	36360.225000	51041.790000	16458.525000	-22934.430000	-50884.380000	1.134015	-0.697611	-1.029354	-1.936981	-0.041258	1.005276	2.322038	2.537489	0.183120	4.623780	-4.349100	-0.868467	-0.188842	0.437377	-1.000000	-1.000000	-1.000000	-1.000000	-1.000000	-1.000000	-1.000000	60.000000	0.000000	-1.000000	-1.000000	567631.000000	1775766009.308286
1150.290000	-36223.650000	44759.700000	36367.110000	51034.905000	16457.940000	-22941.810000	-50877.720000	1.975390	2.282877	0.671945	-2.380188	-1.728419	7.154678	2.854409	2.665988	0.183120	4.623780	-4.349100	-0.868467	-0.188842	0.437377	-1.000000	-1.000000	-1.000000	-1.000000	-1.000000	-1.000000	-1.000000	60.000000	0.000000	-1.000000	-1.000000	567632.000000	1775766009.312574
1157.040000	-36227.070000	44751.285000	36354.960000	51012.360000	16410.870000	-22938.615000	-50868.360000	3.782136	5.922172	3.806741	-0.930677	-2.517890	7.805503	1.696271	2.488392	0.183120	4.623780	-4.349100	-0.868467	-0.188842	0.437377	-1.000000	-1.000000	-1.000000	-1.000000	-1.000000	-1.000000	-1.000000	60.000000	0.000000	-1.000000	-1.000000	567633.000000	1775766009.312600
1157.580000	-36226.755000	44753.670000	36359.235000	51014.340000	16355.745000	-22936.770000	-50869.530000	5.898893	8.309189	6.494206	1.498062	-3.530106	-0.144743	-0.703691	2.778253	0.183120	4.623780	-4.349100	-0.868467	-0.188842	0.437377	-1.000000	-1.000000	-1.000000	-1.000000	-1.000000	-1.000000	-1.000000	60.000000	0.000000	-1.000000	-1.000000	567634.000000	1775766009.315703
1154.160000	-36229.590000	44752.635000	36361.800000	51025.050000	16428.240000	-22938.390000	-50873.535000	6.130600	7.403734	6.566472	3.393514	-4.098784	-12.229633	-2.658300	2.700594	0.183120	4.623780	-4.349100	-0.868467	-0.188842	0.437377	-1.000000	-1.000000	-1.000000	-1.000000	-1.000000	-1.000000	-1.000000	60.000000	0.000000	-1.000000	-1.000000	567635.000000	1775766009.315730
1154.205000	-36227.295000	44756.010000	36366.975000	51036.165000	16469.145000	-22943.115000	-50876.325000	3.187248	3.356379	3.990188	4.358986	-1.891170	-15.537754	-3.259262	0.995753	0.183120	4.623780	-4.349100	-0.868467	-0.188842	0.437377	-1.000000	-1.000000	-1.000000	-1.000000	-1.000000	-1.000000	-1.000000	60.000000	0.000000	-1.000000	-1.000000	567636.000000	1775766009.321843
1148.850000	-36226.530000	44760.150000	36372.960000	51039.270000	16453.215000	-22950.225000	-50891.175000	-1.849279	-1.613212	0.500998	4.577096	3.278177	-3.149790	-2.937114	-2.345518	0.183120	4.623780	-4.349100	-0.868467	-0.188842	0.437377	-1.000000	-1.000000	-1.000000	-1.000000	-1.000000	-1.000000	-1.000000	60.000000	0.000000	-1.000000	-1.000000	567637.000000	1775766009.321870
1141.605000	-36227.115000	44763.930000	36377.775000	51036.120000	16421.445000	-22950.855000	-50903.640000	-6.594647	-5.109319	-2.066342	4.083483	8.159505	14.108292	-2.358984	-6.177623	0.183120	4.623780	-4.349100	-0.868467	-0.188842	0.437377	-1.000000	-1.000000	-1.000000	-1.000000	-1.000000	-1.000000	-1.000000	60.000000	0.000000	-1.000000	-1.000000	567638.000000	1775766009.323108
1141.380000	-36225.540000	44766.270000	36380.295000	51038.820000	16420.905000	-22946.940000	-50897.385000	-9.034867	-6.073669	-2.966960	2.752944	9.100306	20.152558	-1.409168	-8.573173	0.183120	4.623780	-4.349100	-0.868467	-0.188842	0.437377	-1.000000	-1.000000	-1.000000	-1.000000	-1.000000	-1.000000	-1.000000	60.000000	0.000000	-1.000000	-1.000000	567639.000000	1775766009.323127
1152.270000	-36212.400000	44777.745000	36388.620000	51048.405000	16450.920000	-22949.280000	-50883.345000	-7.933817	-4.613403	-2.481096	0.665319	5.600667	12.096909	0.353437	-7.061847	-4.394880	6.195560	-4.898460	-0.870664	-0.195678	0.431273	-1.000000	-1.000000	-1.000000	-1.000000	-1.000000	-1.000000	-1.000000	60.000000	0.000000	-1.000000	-1.000000	567640.000000	1775766009.327198
1166.535000	-36202.185000	44785.710000	36391.905000	51047.055000	16454.250000	-22941.270000	-50866.155000	-3.029751	-1.260834	-1.097467	-1.560593	0.280599	-0.057964	2.635019	-0.627047	-4.394880	6.195560	-4.898460	-0.870664	-0.195678	0.431273	-1.000000	-1.000000	-1.000000	-1.000000	-1.000000	-1.000000	-1.000000	60.000000	0.000000	-1.000000	-1.000000	567641.000000	1775766009.327223
1179.360000	-36210.735000	44773.110000	36377.550000	51033.240000	16405.695000	-22916.295000	-50844.555000	4.154810	2.464186	0.211289	-3.541859	-4.414220	-8.059680	4.976023	8.448581	-4.394880	6.195560	-4.898460	-0.870664	-0.195678	0.431273	-1.000000	-1.000000	-1.000000	-1.000000	-1.000000	-1.000000	-1.000000	60.000000	0.000000	-1.000000	-1.000000	567642.000000	1775766009.341694
1168.020000	-36226.890000	44756.955000	36366.435000	51032.655000	16415.505000	-22919.715000	-50853.690000	9.983607	3.708809	-0.425465	-5.763470	-7.773174	-12.065086	7.058018	15.247716	-4.394880	6.195560	-4.898460	-0.870664	-0.195678	0.431273	-1.000000	-1.000000	-1.000000	-1.000000	-1.000000	-1.000000	-1.000000	60.000000	0.000000	-1.000000	-1.000000	567643.000000	1775766009.341724
1151.460000	-36241.155000	44744.895000	36358.380000	51031.890000	16464.780000	-22942.485000	-50872.230000	10.225642	0.598734	-3.870939	-8.177557	-9.195183	-12.386652	6.910425	14.588666	-4.394880	6.195560	-4.898460	-0.870664	-0.195678	0.431273	-1.000000	-1.000000	-1.000000	-1.000000	-1.000000	-1.000000	-1.000000	60.000000	0.000000	-1.000000	-1.000000	567644.000000	1775766009.341916
1141.920000	-36248.850000	44739.045000	36357.255000	51035.850000	16467.300000	-22946.850000	-50881.140000	3.612239	-5.172115	-8.016340	-9.085274	-7.640665	-6.066477	2.070152	4.989312	-4.394880	6.195560	-4.898460	-0.870664	-0.195678	0.431273	-1.000000	-1.000000	-1.000000	-1.000000	-1.000000	-1.000000	-1.000000	60.000000	0.000000	-1.000000	-1.000000	567645.000000	1775766009.341934
1148.715000	-36239.400000	44751.780000	36373.050000	51042.465000	16435.395000	-22940.100000	-50875.650000	-5.814575	-9.051313	-8.956056	-6.329621	-3.072076	4.376280	-5.778092	-8.474864	-4.394880	6.195560	-4.898460	-0.870664	-0.195678	0.431273	-1.000000	-1.000000	-1.000000	-1.000000	-1.000000	-1.000000	-1.000000	60.000000	0.000000	-1.000000	-1.000000	567646.000000	1775766009.341954
1153.395000	-36232.695000	44762.670000	36385.785000	51045.435000	16435.845000	-22948.110000	-50875.380000	-11.407618	-7.161361	-4.150091	0.670479	2.868897	10.105796	-11.260534	-17.411077	-4.394880	6.195560	-4.898460	-0.870664	-0.195678	0.431273	-1.000000	-1.000000	-1.000000	-1.000000	-1.000000	-1.000000	-1.000000	60.000000	0.000000	-1.000000	-1.000000	567647.000000	1775766009.341964
1155.510000	-36228.240000	44767.530000	36388.260000	51044.400000	16455.555000	-22948.605000	-50875.695000	-9.611123	0.252266	4.915182	9.375037	7.508163	7.369486	-11.052805	-17.025572	-4.394880	6.195560	-4.898460	-0.870664	-0.195678	0.431273	-1.000000	-1.000000	-1.000000	-1.000000	-1.000000	-1.000000	-1.000000	60.000000	0.000000	-1.000000	-1.000000	567648.000000	1775766009.346482
1156.545000	-36225.945000	44761.995000	36358.965000	51031.035000	16453.935000	-22947.255000	-50876.190000	-2.478946	8.763615	12.991113	14.397583	8.405961	1.197280	-6.086873	-9.043353	-4.394880	6.195560	-4.898460	-0.870664	-0.195678	0.431273	-1.000000	-1.000000	-1.000000	-1.000000	-1.000000	-1.000000	-1.000000	60.000000	0.000000	-1.000000	-1.000000	567649.000000	1775766009.346507
1154.340000	-36228.645000	44757.495000	36349.425000	51027.120000	16410.240000	-22952.205000	-50877.810000	4.931749	13.276479	14.887211	11.246331	4.891512	-3.583570	0.584338	1.111157	0.747740	9.079700	-6.867000	-0.869749	-0.211852	0.431273	-1.000000	-1.000000	-1.000000	-1.000000	-1.000000	-1.000000	-1.000000	60.000000	0.000000	-1.000000	-1.000000	567650.000000	1775766009.360720
1154.520000	-36224.325000	44749.620000	36351.810000	51011.370000	16383.645000	-22953.690000	-50866.245000	8.593055	11.580992	9.429786	1.432492	-1.171831	-7.660148	5.809428	8.696641	0.747740	9.079700	-6.867000	-0.869749	-0.211852	0.431273	-1.000000	-1.000000	-1.000000	-1.000000	-1.000000	-1.000000	-1.000000	60.000000	0.000000	-1.000000	-1.000000	567651.000000	1775766009.360744
1152.000000	-36223.965000	44746.695000	36350.775000	51016.095000	16439.355000	-22948.695000	-50873.175000	7.560695	5.319615	-0.037220	-7.975888	-6.399685	-10.677990	7.893015	11.749442	0.747740	9.079700	-6.867000	-0.869749	-0.211852	0.431273	-1.000000	-1.000000	-1.000000	-1.000000	-1.000000	-1.000000	-1.000000	60.000000	0.000000	-1.000000	-1.000000	567652.000000	1775766009.360773
1149.930000	-36237.420000	44749.260000	36348.390000	51018.705000	16429.770000	-22954.905000	-50893.605000	3.483071	-2.125477	-8.234476	-11.082128	-7.699484	-7.604702	7.110560	9.921401	0.747740	9.079700	-6.867000	-0.869749	-0.211852	0.431273	-1.000000	-1.000000	-1.000000	-1.000000	-1.000000	-1.000000	-1.000000	60.000000	0.000000	-1.000000	-1.000000	567653.000000	1775766009.360783
1148.805000	-36236.790000	44750.880000	36354.330000	51026.085000	16450.020000	-22949.325000	-50896.530000	-1.085463	-8.116821	-11.206321	-7.412245	-4.072699	2.776982	4.606345	3.837420	0.747740	9.079700	-6.867000	-0.869749	-0.211852	0.431273	-1.000000	-1.000000	-1.000000	-1.000000	-1.000000	-1.000000	-1.000000	60.000000	0.000000	-1.000000	-1.000000	567654.000000	1775766009.360796
1156.320000	-36227.115000	44758.935000	36372.015000	51043.950000	16461.045000	-22950.090000	-50886.630000	-3.930083	-10.694280	-8.316556	-0.016776	2.695506	14.164506	1.654360	-3.255699	0.747740	9.079700	-6.867000	-0.869749	-0.211852	0.431273	-1.000000	-1.000000	-1.000000	-1.000000	-1.000000	-1.000000	-1.000000	60.000000	0.000000	-1.000000	-1.000000	567655.000000	1775766009.360807
1169.460000	-36213.165000	44776.215000	36385.425000	51049.665000	16434.585000	-22955.040000	-50875.695000	-3.732485	-8.391147	-1.705121	7.616491	9.284005	19.029086	-0.800697	-6.520669	0.747740	9.079700	-6.867000	-0.869749	-0.211852	0.431273	-1.000000	-1.000000	-1.000000	-1.000000	-1.000000	-1.000000	-1.000000	60.000000	0.000000	-1.000000	-1.000000	567656.000000	1775766009.360820
1170.945000	-36216.765000	44771.805000	36376.560000	51037.785000	16423.830000	-22957.515000	-50868.585000	-0.800064	-2.119082	5.231796	12.126295	12.016586	13.415350	-2.608636	-3.923783	0.747740	9.079700	-6.867000	-0.869749	-0.211852	0.431273	-1.000000	-1.000000	-1.000000	-1.000000	-1.000000	-1.000000	-1.000000	60.000000	0.000000	-1.000000	-1.000000	567657.000000	1775766009.360830
1163.205000	-36219.870000	44772.255000	36379.710000	51043.815000	16444.395000	-22959.135000	-50876.055000	2.392859	4.163541	8.805799	10.750922	8.597368	0.265462	-3.787653	1.699552	0.747740	9.079700	-6.867000	-0.869749	-0.211852	0.431273	-1.000000	-1.000000	-1.000000	-1.000000	-1.000000	-1.000000	-1.000000	60.000000	0.000000	-1.000000	-1.000000	567658.000000	1775766009.366543
1158.120000	-36223.155000	44765.415000	36381.150000	51042.735000	16411.320000	-22957.515000	-50885.595000	2.837120	6.486556	6.957386	3.832341	0.665890	-12.028312	-3.949909	5.199716	0.747740	9.079700	-6.867000	-0.869749	-0.211852	0.431273	-1.000000	-1.000000	-1.000000	-1.000000	-1.000000	-1.000000	-1.000000	60.000000	0.000000	-1.000000	-1.000000	567659.000000	1775766009.366563
1160.235000	-36227.565000	44756.865000	36372.960000	51038.550000	16417.620000	-22960.485000	-50881.680000	0.021766	4.152719	0.842215	-4.868861	-7.274020	-17.574302	-2.835007	3.803281	12.787880	8.209880	-5.707240	-0.867979	-0.227538	0.432067	-1.000000	-1.000000	-1.000000	-1.000000	-1.000000	-1.000000	-1.000000	60.000000	0.000000	-1.000000	-1.000000	567660.000000	1775766009.367849
1163.340000	-36230.490000	44754.525000	36361.035000	51039.900000	16444.755000	-22961.520000	-50874.570000	-3.496399	-0.460797	-6.079643	-11.514106	-11.615504	-15.111407	-0.931561	-0.516506	12.787880	8.209880	-5.707240	-0.867979	-0.227538	0.432067	-1.000000	-1.000000	-1.000000	-1.000000	-1.000000	-1.000000	-1.000000	60.000000	0.000000	-1.000000	-1.000000	567661.000000	1775766009.367874
1165.140000	-36233.055000	44756.820000	36352.215000	51036.210000	16451.595000	-22955.850000	-50870.115000	-4.803175	-4.238842	-10.014944	-14.269749	-11.255588	-5.534508	0.953801	-3.659393	12.787880	8.209880	-5.707240	-0.867979	-0.227538	0.432067	-1.000000	-1.000000	-1.000000	-1.000000	-1.000000	-1.000000	-1.000000	60.000000	0.000000	-1.000000	-1.000000	567662.000000	1775766009.371492
1160.730000	-36238.230000	44758.620000	36361.080000	51034.905000	16497.180000	-22945.590000	-50871.870000	-3.280834	-5.319293	-8.847261	-12.508815	-7.265207	7.482221	2.591480	-3.678265	12.787880	8.209880	-5.707240	-0.867979	-0.227538	0.432067	-1.000000	-1.000000	-1.000000	-1.000000	-1.000000	-1.000000	-1.000000	60.000000	0.000000	-1.000000	-1.000000	567663.000000	1775766009.371516
1163.970000	-36238.005000	44756.730000	36361.935000	51028.605000	16478.820000	-22945.410000	-50868.450000	-0.488899	-3.717828	-3.501888	-6.302362	-1.972066	17.842226	3.973646	-1.713673	12.787880	8.209880	-5.707240	-0.867979	-0.227538	0.432067	-1.000000	-1.000000	-1.000000	-1.000000	-1.000000	-1.000000	-1.000000	60.000000	0.000000	-1.000000	-1.000000	567664.000000	1775766009.378863
1167.210000	-36236.205000	44755.605000	36358.695000	51025.905000	16423.335000	-22942.890000	-50865.120000	1.913442	-0.541292	2.776659	2.334731	2.375760	18.425078	4.390401	0.282092	12.787880	8.209880	-5.707240	-0.867979	-0.227538	0.432067	-1.000000	-1.000000	-1.000000	-1.000000	-1.000000	-1.000000	-1.000000	60.000000	0.000000	-1.000000	-1.000000	567665.000000	1775766009.378891
1172.205000	-36227.880000	44766.225000	36372.150000	51036.660000	16416.315000	-22943.250000	-50864.130000	3.346109	3.019615	7.030146	9.760944	4.910151	5.666932	3.013670	1.312057	12.787880	8.209880	-5.707240	-0.867979	-0.227538	0.432067	-1.000000	-1.000000	-1.000000	-1.000000	-1.000000	-1.000000	-1.000000	60.000000	0.000000	-1.000000	-1.000000	567666.000000	1775766009.385355
1169.865000	-36228.465000	44767.845000	36377.145000	51043.590000	16436.340000	-22945.590000	-50874.030000	3.728981	5.875661	8.383086	13.455383	6.339380	-12.989078	0.039418	1.057336	12.787880	8.209880	-5.707240	-0.867979	-0.227538	0.432067	-1.000000	-1.000000	-1.000000	-1.000000	-1.000000	-1.000000	-1.000000	60.000000	0.000000	-1.000000	-1.000000	567667.000000	1775766009.385382
1160.910000	-36236.070000	44764.065000	36375.345000	51045.705000	16419.645000	-22956.030000	-50889.375000	2.720835	6.694396	7.148799	12.810624	7.249857	-23.668894	-3.509491	-0.758514	12.787880	8.209880	-5.707240	-0.867979	-0.227538	0.432067	-1.000000	-1.000000	-1.000000	-1.000000	-1.000000	-1.000000	-1.000000	60.000000	0.000000	-1.000000	-1.000000	567668.000000	1775766009.385429
1164.330000	-36234.270000	44764.920000	36374.310000	51048.180000	16449.930000	-22956.345000	-50884.515000	0.263991	4.580610	3.755732	8.174360	6.927936	-19.587754	-6.406713	-3.546963	12.787880	8.209880	-5.707240	-0.867979	-0.227538	0.432067	-1.000000	-1.000000	-1.000000	-1.000000	-1.000000	-1.000000	-1.000000	60.000000	0.000000	-1.000000	-1.000000	567669.000000	1775766009.385446
1170.045000	-36232.290000	44761.140000	36363.060000	51040.485000	16439.895000	-22956.390000	-50877.405000	-2.284718	0.553540	-0.739290	0.905458	4.398787	-4.779242	-7.286493	-4.936378	15.366820	7.095900	-5.020540	-0.872556	-0.223998	0.432921	-1.000000	-1.000000	-1.000000	-1.000000	-1.000000	-1.000000	-1.000000	60.000000	0.000000	-1.000000	-1.000000	567670.000000	1775766009.394161
1173.420000	-36228.510000	44765.865000	36365.040000	51028.920000	16394.400000	-22965.840000	-50880.105000	-2.991922	-2.924951	-4.545770	-6.498448	-0.376611	10.260750	-5.458866	-2.869113	15.366820	7.095900	-5.020540	-0.872556	-0.223998	0.432921	-1.000000	-1.000000	-1.000000	-1.000000	-1.000000	-1.000000	-1.000000	60.000000	0.000000	-1.000000	-1.000000	567671.000000	1775766009.394188
1172.070000	-36224.055000	44773.380000	36376.110000	51035.940000	16401.060000	-22965.165000	-50888.205000	-1.544218	-4.085280	-5.948095	-10.845238	-5.826676	15.655298	-1.868419	1.463750	15.366820	7.095900	-5.020540	-0.872556	-0.223998	0.432921	-1.000000	-1.000000	-1.000000	-1.000000	-1.000000	-1.000000	-1.000000	60.000000	0.000000	-1.000000	-1.000000	567672.000000	1775766009.394217
1161.045000	-36235.395000	44761.770000	36368.055000	51041.430000	16452.495000	-22963.230000	-50891.715000	0.305754	-3.185715	-4.610643	-10.063606	-8.858275	11.722889	1.933505	4.725313	15.366820	7.095900	-5.020540	-0.872556	-0.223998	0.432921	-1.000000	-1.000000	-1.000000	-1.000000	-1.000000	-1.000000	-1.000000	60.000000	0.000000	-1.000000	-1.000000	567673.000000	1775766009.394229
1160.415000	-36230.580000	44765.955000	36373.455000	51048.180000	16450.560000	-22960.440000	-50884.740000	0.618271	-1.906225	-2.152881	-5.331388	-7.232726	7.376403	5.027528	5.168227	15.366820	7.095900	-5.020540	-0.872556	-0.223998	0.432921	-1.000000	-1.000000	-1.000000	-1.000000	-1.000000	-1.000000	-1.000000	60.000000	0.000000	-1.000000	-1.000000	567674.000000	1775766009.400147
1167.300000	-36223.335000	44769.960000	36375.615000	51045.435000	16452.540000	-22947.345000	-50869.170000	-0.470581	-1.082312	-0.172364	0.229640	-2.029942	6.907694	7.043741	4.092427	15.366820	7.095900	-5.020540	-0.872556	-0.223998	0.432921	-1.000000	-1.000000	-1.000000	-1.000000	-1.000000	-1.000000	-1.000000	60.000000	0.000000	-1.000000	-1.000000	567675.000000	1775766009.400174
1179.855000	-36221.400000	44770.410000	36375.435000	51047.145000	16446.555000	-22937.490000	-50852.295000	-0.844754	-0.088986	1.194071	4.224752	3.209402	6.399641	7.939643	3.817453	15.366820	7.095900	-5.020540	-0.872556	-0.223998	0.432921	-1.000000	-1.000000	-1.000000	-1.000000	-1.000000	-1.000000	-1.000000	60.000000	0.000000	-1.000000	-1.000000	567676.000000	1775766009.400199
1174.545000	-36230.040000	44761.635000	36368.820000	51042.645000	16441.875000	-22939.470000	-50858.730000	0.744829	1.094829	1.929472	5.460361	5.494696	1.821609	7.397034	4.588881	15.366820	7.095900	-5.020540	-0.872556	-0.223998	0.432921	-1.000000	-1.000000	-1.000000	-1.000000	-1.000000	-1.000000	-1.000000	60.000000	0.000000	-1.000000	-1.000000	567677.000000	1775766009.400211
1162.395000	-36241.020000	44750.385000	36360.270000	51037.155000	16454.430000	-22938.975000	-50873.445000	2.611175	1.140779	1.322101	3.727590	4.153322	-5.709660	4.571552	3.758234	15.366820	7.095900	-5.020540	-0.872556	-0.223998	0.432921	-1.000000	-1.000000	-1.000000	-1.000000	-1.000000	-1.000000	-1.000000	60.000000	0.000000	-1.000000	-1.000000	567678.000000	1775766009.402025
1168.695000	-36232.695000	44757.630000	36366.570000	51039.270000	16483.905000	-22939.290000	-50868.945000	2.281067	-0.473791	-0.578581	0.271638	0.649992	-11.032231	-0.483721	-0.778945	15.366820	7.095900	-5.020540	-0.872556	-0.223998	0.432921	-1.000000	-1.000000	-1.000000	-1.000000	-1.000000	-1.000000	-1.000000	60.000000	0.000000	-1.000000	-1.000000	567679.000000	1775766009.402040
1173.555000	-36224.820000	44768.250000	36378.585000	51048.810000	16486.560000	-22941.540000	-50866.065000	0.087586	-1.893772	-1.796242	-2.191416	-2.314270	-9.980093	-5.964558	-6.912932	6.256600	3.265640	-1.129240	-0.876463	-0.210632	0.434508	-1.000000	-1.000000	-1.000000	-1.000000	-1.000000	-1.000000	-1.000000	60.000000	0.000000	-1.000000	-1.000000	567680.000000	1775766009.406601
1172.610000	-36223.830000	44769.645000	36381.285000	51055.110000	16458.210000	-22941.315000	-50868.090000	-1.599874	-1.044316	-0.420230	-1.548300	-2.512734	-4.630901	-9.532679	-10.338455	6.256600	3.265640	-1.129240	-0.876463	-0.210632	0.434508	-1.000000	-1.000000	-1.000000	-1.000000	-1.000000	-1.000000	-1.000000	60.000000	0.000000	-1.000000	-1.000000	567681.000000	1775766009.406624
1172.655000	-36222.300000	44773.920000	36386.010000	51060.465000	16462.485000	-22941.045000	-50869.215000	-1.682324	1.562200	2.740325	1.408221	-0.027090	-1.183857	-9.780743	-9.156003	6.256600	3.265640	-1.129240	-0.876463	-0.210632	0.434508	-1.000000	-1.000000	-1.000000	-1.000000	-1.000000	-1.000000	-1.000000	60.000000	0.000000	-1.000000	-1.000000	567682.000000	1775766009.410609
1171.170000	-36217.620000	44782.605000	36392.895000	51061.410000	16458.480000	-22949.190000	-50875.065000	-0.876400	3.709608	5.192008	4.010673	2.905318	-2.053084	-6.980180	-4.823064	6.256600	3.265640	-1.129240	-0.876463	-0.210632	0.434508	-1.000000	-1.000000	-1.000000	-1.000000	-1.000000	-1.000000	-1.000000	60.000000	0.000000	-1.000000	-1.000000	567683.000000	1775766009.410632
1172.475000	-36220.275000	44778.825000	36386.055000	51049.575000	16457.040000	-22954.140000	-50872.320000	-0.164200	3.902059	5.279468	4.245034	3.678214	-4.175857	-2.920200	0.024583	6.256600	3.265640	-1.129240	-0.876463	-0.210632	0.434508	-1.000000	-1.000000	-1.000000	-1.000000	-1.000000	-1.000000	-1.000000	60.000000	0.000000	-1.000000	-1.000000	567684.000000	1775766009.416397
1177.425000	-36226.755000	44767.890000	36372.150000	51030.945000	16443.990000	-22947.930000	-50862.825000	0.211936	1.928216	2.542050	1.407278	0.860338	-4.342668	0.722114	3.819833	6.256600	3.265640	-1.129240	-0.876463	-0.210632	0.434508	-1.000000	-1.000000	-1.000000	-1.000000	-1.000000	-1.000000	-1.000000	60.000000	0.000000	-1.000000	-1.000000	567685.000000	1775766009.416423
1184.490000	-36222.120000	44773.020000	36379.260000	51035.220000	16437.960000	-22945.365000	-50857.785000	0.678495	-1.331012	-2.229870	-3.500931	-4.418904	-2.265155	3.654072	6.412232	6.256600	3.265640	-1.129240	-0.876463	-0.210632	0.434508	-1.000000	-1.000000	-1.000000	-1.000000	-1.000000	-1.000000	-1.000000	60.000000	0.000000	-1.000000	-1.000000	567686.000000	1775766009.418612
1184.625000	-36221.715000	44768.340000	36377.505000	51040.845000	16483.680000	-22941.405000	-50855.310000	1.447721	-3.987457	-6.565801	-7.407862	-8.200770	1.640405	6.014566	7.656163	6.256600	3.265640	-1.129240	-0.876463	-0.210632	0.434508	-1.000000	-1.000000	-1.000000	-1.000000	-1.000000	-1.000000	-1.000000	60.000000	0.000000	-1.000000	-1.000000	567687.000000	1775766009.418630
1178.505000	-36227.565000	44762.805000	36374.310000	51050.340000	16491.780000	-22931.190000	-50858.505000	1.778893	-4.578563	-8.102525	-7.633642	-6.809442	7.918349	7.412747	6.791625	6.256600	3.265640	-1.129240	-0.876463	-0.210632	0.434508	-1.000000	-1.000000	-1.000000	-1.000000	-1.000000	-1.000000	-1.000000	60.000000	0.000000	-1.000000	-1.000000	567688.000000	1775766009.423149
1189.845000	-36213.795000	44782.065000	36390.330000	51055.425000	16451.055000	-22941.765000	-50856.390000	0.914899	-3.125769	-6.175638	-4.119223	-0.498708	13.803482	7.122081	3.528418	6.256600	3.265640	-1.129240	-0.876463	-0.210632	0.434508	-1.000000	-1.000000	-1.000000	-1.000000	-1.000000	-1.000000	-1.000000	60.000000	0.000000	-1.000000	-1.000000	567689.000000	1775766009.423167
1182.690000	-36217.575000	44781.570000	36390.465000	51053.445000	16427.430000	-22950.180000	-50868.135000	-0.623664	-0.369098	-1.328135	1.448299	6.692694	12.351314	4.266094	-1.165942	-0.091560	2.350040	1.312360	-0.874693	-0.208373	0.432921	-1.000000	-1.000000	-1.000000	-1.000000	-1.000000	-1.000000	-1.000000	60.000000	0.000000	-1.000000	-1.000000	567690.000000	1775766009.428251
1166.355000	-36233.190000	44769.915000	36383.895000	51054.300000	16441.785000	-22943.115000	-50881.905000	-2.231055	2.108062	4.100764	6.307372	10.228386	1.848072	-0.791248	-5.856139	-0.091560	2.350040	1.312360	-0.874693	-0.208373	0.432921	-1.000000	-1.000000	-1.000000	-1.000000	-1.000000	-1.000000	-1.000000	60.000000	0.000000	-1.000000	-1.000000	567691.000000	1775766009.428278
1162.260000	-36244.215000	44758.305000	36377.685000	51053.580000	16446.060000	-22936.365000	-50882.535000	-4.095041	2.098964	6.350962	7.479708	8.378056	-9.630227	-5.233391	-9.126434	-0.091560	2.350040	1.312360	-0.874693	-0.208373	0.432921	-1.000000	-1.000000	-1.000000	-1.000000	-1.000000	-1.000000	-1.000000	60.000000	0.000000	-1.000000	-1.000000	567692.000000	1775766009.430624
1161.045000	-36246.195000	44757.495000	36377.910000	51046.245000	16410.330000	-22940.865000	-50879.880000	-5.491889	-0.592125	3.921608	4.352558	2.744873	-13.919612	-6.310635	-9.213667	-0.091560	2.350040	1.312360	-0.874693	-0.208373	0.432921	-1.000000	-1.000000	-1.000000	-1.000000	-1.000000	-1.000000	-1.000000	60.000000	0.000000	-1.000000	-1.000000	567693.000000	1775766009.430646
1169.820000	-36242.145000	44763.705000	36386.145000	51042.375000	16383.600000	-22946.895000	-50867.415000	-4.537714	-3.197626	-0.495688	-0.395999	-3.659247	-11.561730	-4.408270	-4.971959	-0.091560	2.350040	1.312360	-0.874693	-0.208373	0.432921	-1.000000	-1.000000	-1.000000	-1.000000	-1.000000	-1.000000	-1.000000	60.000000	0.000000	-1.000000	-1.000000	567694.000000	1775766009.434602
1180.800000	-36236.610000	44760.825000	36373.230000	51032.745000	16413.255000	-22946.130000	-50861.205000	-0.284910	-2.743475	-2.939596	-3.499753	-8.193186	-6.723396	-1.899263	2.473234	-0.091560	2.350040	1.312360	-0.874693	-0.208373	0.432921	-1.000000	-1.000000	-1.000000	-1.000000	-1.000000	-1.000000	-1.000000	60.000000	0.000000	-1.000000	-1.000000	567695.000000	1775766009.434622
1171.935000	-36238.365000	44752.680000	36343.620000	51023.115000	16453.080000	-22943.610000	-50878.305000	5.568053	0.956551	-2.226154	-4.647628	-9.547500	0.794074	-0.132359	9.285321	-0.091560	2.350040	1.312360	-0.874693	-0.208373	0.432921	-1.000000	-1.000000	-1.000000	-1.000000	-1.000000	-1.000000	-1.000000	60.000000	0.000000	-1.000000	-1.000000	567696.000000	1775766009.439898
1170.000000	-36235.215000	44758.980000	36354.735000	51024.195000	16416.810000	-22950.990000	-50887.530000	9.211253	5.261912	-0.049493	-5.399816	-7.734587	11.272744	0.941564	10.881866	-0.091560	2.350040	1.312360	-0.874693	-0.208373	0.432921	-1.000000	-1.000000	-1.000000	-1.000000	-1.000000	-1.000000	-1.000000	60.000000	0.000000	-1.000000	-1.000000	567697.000000	1775766009.439925
1171.710000	-36229.500000	44766.495000	36368.235000	51035.805000	16403.670000	-22952.430000	-50883.795000	8.131000	7.394637	2.063759	-4.827762	-3.155739	18.167024	1.374912	6.216056	-0.091560	2.350040	1.312360	-0.874693	-0.208373	0.432921	-1.000000	-1.000000	-1.000000	-1.000000	-1.000000	-1.000000	-1.000000	60.000000	0.000000	-1.000000	-1.000000	567698.000000	1775766009.446243
1167.795000	-36237.600000	44759.970000	36365.355000	51041.970000	16448.895000	-22937.535000	-50879.115000	3.419147	6.353193	3.590932	-0.775527	3.367412	15.679086	1.452469	-0.686102	-0.091560	2.350040	1.312360	-0.874693	-0.208373	0.432921	-1.000000	-1.000000	-1.000000	-1.000000	-1.000000	-1.000000	-1.000000	60.000000	0.000000	-1.000000	-1.000000	567699.000000	1775766009.446269
1178.010000	-36233.595000	44763.255000	36365.625000	51043.140000	16502.445000	-22939.740000	-50867.280000	-1.749149	2.674994	3.806850	5.307218	9.527143	8.500763	2.057638	-4.661486	2.487380	2.685760	1.190280	-0.871946	-0.217040	0.433715	-1.000000	-1.000000	-1.000000	-1.000000	-1.000000	-1.000000	-1.000000	60.000000	0.000000	-1.000000	-1.000000	567700.000000	1775766009.447339
1182.555000	-36230.850000	44767.530000	36366.885000	51038.055000	16478.955000	-22942.305000	-50857.830000	-4.518089	-1.845236	2.409207	9.336120	12.063164	4.093708	3.005368	-3.676782	2.487380	2.685760	1.190280	-0.871946	-0.217040	0.433715	-1.000000	-1.000000	-1.000000	-1.000000	-1.000000	-1.000000	-1.000000	60.000000	0.000000	-1.000000	-1.000000	567701.000000	1775766009.447356
1179.180000	-36229.140000	44770.860000	36378.045000	51049.215000	16475.760000	-22930.605000	-50859.990000	-4.138136	-4.921347	0.358415	9.169304	9.463796	1.208889	3.050183	0.304756	2.487380	2.685760	1.190280	-0.871946	-0.217040	0.433715	-1.000000	-1.000000	-1.000000	-1.000000	-1.000000	-1.000000	-1.000000	60.000000	0.000000	-1.000000	-1.000000	567702.000000	1775766009.452786
1180.215000	-36232.335000	44765.820000	36378.720000	51052.005000	16473.510000	-22930.290000	-50860.755000	-2.273280	-5.549714	-1.348532	5.827516	3.614333	-5.211715	1.985944	3.309133	2.487380	2.685760	1.190280	-0.871946	-0.217040	0.433715	-1.000000	-1.000000	-1.000000	-1.000000	-1.000000	-1.000000	-1.000000	60.000000	0.000000	-1.000000	-1.000000	567703.000000	1775766009.452803
1183.905000	-36230.490000	44768.655000	36377.550000	51048.810000	16469.685000	-22936.320000	-50859.855000	-0.832918	-4.395709	-2.568832	1.279513	-2.259872	-14.360168	0.321379	2.785093	2.487380	2.685760	1.190280	-0.871946	-0.217040	0.433715	-1.000000	-1.000000	-1.000000	-1.000000	-1.000000	-1.000000	-1.000000	60.000000	0.000000	-1.000000	-1.000000	567704.000000	1775766009.466674
1182.735000	-36227.520000	44767.980000	36376.155000	51043.725000	16471.080000	-22943.340000	-50861.295000	-0.299912	-2.490909	-3.282780	-3.183326	-6.427176	-20.729564	-1.969919	-0.593985	2.487380	2.685760	1.190280	-0.871946	-0.217040	0.433715	-1.000000	-1.000000	-1.000000	-1.000000	-1.000000	-1.000000	-1.000000	60.000000	0.000000	-1.000000	-1.000000	567705.000000	1775766009.466701
1182.060000	-36229.320000	44767.575000	36377.100000	51041.700000	16451.325000	-22942.755000	-50863.095000	-0.361695	-0.491448	-3.231246	-6.573427	-8.589745	-20.417156	-4.549269	-4.334320	2.487380	2.685760	1.190280	-0.871946	-0.217040	0.433715	-1.000000	-1.000000	-1.000000	-1.000000	-1.000000	-1.000000	-1.000000	60.000000	0.000000	-1.000000	-1.000000	567706.000000	1775766009.466728
1182.195000	-36230.265000	44769.735000	36378.585000	51041.700000	16428.105000	-22940.280000	-50864.850000	-0.679455	1.008645	-2.359893	-7.887232	-8.582369	-14.358248	-5.923054	-6.331502	2.487380	2.685760	1.190280	-0.871946	-0.217040	0.433715	-1.000000	-1.000000	-1.000000	-1.000000	-1.000000	-1.000000	-1.000000	60.000000	0.000000	-1.000000	-1.000000	567707.000000	1775766009.466740
1183.410000	-36226.935000	44776.215000	36386.775000	51052.455000	16427.340000	-22945.635000	-50865.255000	-0.867155	1.622397	-0.807591	-6.578451	-6.108907	-6.171292	-4.844876	-5.818395	2.487380	2.685760	1.190280	-0.871946	-0.217040	0.433715	-1.000000	-1.000000	-1.000000	-1.000000	-1.000000	-1.000000	-1.000000	60.000000	0.000000	-1.000000	-1.000000	567708.000000	1775766009.466755
1195.740000	-36213.705000	44789.355000	36396.045000	51059.700000	16417.710000	-22950.495000	-50857.065000	-0.392424	1.813726	1.346636	-2.942788	-1.362483	1.923362	-1.944306	-3.108893	2.487380	2.685760	1.190280	-0.871946	-0.217040	0.433715	-1.000000	-1.000000	-1.000000	-1.000000	-1.000000	-1.000000	-1.000000	60.000000	0.000000	-1.000000	-1.000000	567709.000000	1775766009.466766
1192.140000	-36219.105000	44783.280000	36388.125000	51048.225000	16416.135000	-22951.530000	-50859.810000	0.968601	2.257677	3.550415	1.465930	3.862786	9.186728	0.997134	0.789795	10.819340	3.158820	-0.183120	-0.869810	-0.222839	0.436339	-1.000000	-1.000000	-1.000000	-1.000000	-1.000000	-1.000000	-1.000000	60.000000	0.000000	-1.000000	-1.000000	567710.000000	1775766009.469930
1183.050000	-36236.520000	44763.795000	36369.360000	51029.910000	16451.235000	-22947.300000	-50865.030000	2.144569	2.126760	3.930456	3.787576	6.205032	15.232628	2.970399	4.078123	10.819340	3.158820	-0.183120	-0.869810	-0.222839	0.436339	-1.000000	-1.000000	-1.000000	-1.000000	-1.000000	-1.000000	-1.000000	60.000000	0.000000	-1.000000	-1.000000	567711.000000	1775766009.469954
1178.010000	-36248.490000	44750.115000	36354.780000	51017.355000	16470.090000	-22942.170000	-50868.495000	1.458028	-0.275084	0.655284	1.869580	3.571546	20.202005	4.173199	4.951873	10.819340	3.158820	-0.183120	-0.869810	-0.222839	0.436339	-1.000000	-1.000000	-1.000000	-1.000000	-1.000000	-1.000000	-1.000000	60.000000	0.000000	-1.000000	-1.000000	567712.000000	1775766009.486126
1173.735000	-36250.020000	44750.520000	36359.910000	51031.395000	16538.490000	-22932.990000	-50876.100000	-1.097832	-4.425906	-4.957471	-2.819595	-1.784547	23.894739	5.042611	3.137889	10.819340	3.158820	-0.183120	-0.869810	-0.222839	0.436339	-1.000000	-1.000000	-1.000000	-1.000000	-1.000000	-1.000000	-1.000000	60.000000	0.000000	-1.000000	-1.000000	567713.000000	1775766009.486153
1175.175000	-36242.505000	44760.420000	36371.880000	51036.480000	16527.375000	-22936.545000	-50882.760000	-3.532043	-6.953841	-8.374123	-5.548850	-4.620902	24.374646	5.336310	-0.046144	10.819340	3.158820	-0.183120	-0.869810	-0.222839	0.436339	-1.000000	-1.000000	-1.000000	-1.000000	-1.000000	-1.000000	-1.000000	60.000000	0.000000	-1.000000	-1.000000	567714.000000	1775766009.486180
1173.915000	-36234.675000	44771.670000	36385.335000	51043.995000	16415.460000	-22937.715000	-50883.165000	-3.818357	-4.856731	-5.908015	-2.699822	-2.039169	15.479101	4.097841	-2.719181	10.819340	3.158820	-0.183120	-0.869810	-0.222839	0.436339	-1.000000	-1.000000	-1.000000	-1.000000	-1.000000	-1.000000	-1.000000	60.000000	0.000000	-1.000000	-1.000000	567715.000000	1775766009.486192
1167.570000	-36233.415000	44774.280000	36385.155000	51050.160000	16396.470000	-22937.535000	-50881.410000	-1.747831	1.299886	1.579963	4.438741	3.863899	-8.302952	0.934414	-3.281308	10.819340	3.158820	-0.183120	-0.869810	-0.222839	0.436339	-1.000000	-1.000000	-1.000000	-1.000000	-1.000000	-1.000000	-1.000000	60.000000	0.000000	-1.000000	-1.000000	567716.000000	1775766009.486207
1170.855000	-36232.920000	44762.985000	36365.715000	51039.810000	16441.830000	-22936.140000	-50868.495000	1.170930	7.618350	8.974758	10.274661	8.421080	-37.172294	-2.925582	-1.107842	10.819340	3.158820	-0.183120	-0.869810	-0.222839	0.436339	-1.000000	-1.000000	-1.000000	-1.000000	-1.000000	-1.000000	-1.000000	60.000000	0.000000	-1.000000	-1.000000	567717.000000	1775766009.486218
1180.575000	-36231.435000	44761.230000	36369.180000	51043.230000	16468.830000	-22927.545000	-50853.870000	3.632882	10.176742	11.031265	9.803149	8.139279	-48.666745	-5.394336	3.167614	10.819340	3.158820	-0.183120	-0.869810	-0.222839	0.436339	-1.000000	-1.000000	-1.000000	-1.000000	-1.000000	-1.000000	-1.000000	60.000000	0.000000	-1.000000	-1.000000	567718.000000	1775766009.486231
1182.420000	-36235.575000	44763.210000	36370.305000	51036.885000	16447.770000	-22935.240000	-50862.285000	5.330222	7.819712	6.859285	3.552105	3.168797	-32.529421	-5.317838	7.356665	10.819340	3.158820	-0.183120	-0.869810	-0.222839	0.436339	-1.000000	-1.000000	-1.000000	-1.000000	-1.000000	-1.000000	-1.000000	60.000000	0.000000	-1.000000	-1.000000	567719.000000	1775766009.486242
1191.105000	-36230.805000	44766.180000	36370.035000	51030.720000	16437.105000	-22941.405000	-50858.910000	5.969601	2.283684	0.137379	-3.498151	-3.408113	-1.898406	-3.633242	8.280218	13.764520	2.075360	0.106820	-0.870054	-0.215393	0.437499	-1.000000	-1.000000	-1.000000	-1.000000	-1.000000	-1.000000	-1.000000	60.000000	0.000000	-1.000000	-1.000000	567720.000000	1775766009.495557
1194.930000	-36223.110000	44774.685000	36377.550000	51036.885000	16433.955000	-22945.005000	-50855.490000	5.113693	-3.164576	-4.650542	-7.062227	-8.150680	22.493570	-2.168463	4.681259	13.764520	2.075360	0.106820	-0.870054	-0.215393	0.437499	-1.000000	-1.000000	-1.000000	-1.000000	-1.000000	-1.000000	-1.000000	60.000000	0.000000	-1.000000	-1.000000	567721.000000	1775766009.495583
1192.950000	-36221.490000	44779.455000	36383.940000	51045.570000	16437.105000	-22942.170000	-50861.655000	2.672106	-5.800881	-5.390387	-6.011537	-8.653481	30.379655	-1.397362	-1.385924	13.764520	2.075360	0.106820	-0.870054	-0.215393	0.437499	-1.000000	-1.000000	-1.000000	-1.000000	-1.000000	-1.000000	-1.000000	60.000000	0.000000	-1.000000	-1.000000	567722.000000	1775766009.495609
1180.710000	-36231.165000	44773.020000	36381.060000	51049.260000	16438.230000	-22932.540000	-50876.010000	-1.222556	-5.477313	-3.152102	-2.043650	-4.663990	24.314889	-0.246669	-7.111066	13.764520	2.075360	0.106820	-0.870054	-0.215393	0.437499	-1.000000	-1.000000	-1.000000	-1.000000	-1.000000	-1.000000	-1.000000	60.000000	0.000000	-1.000000	-1.000000	567723.000000	1775766009.495621
1174.410000	-36234.450000	44773.110000	36380.610000	51052.365000	16484.445000	-22936.185000	-50881.275000	-5.957606	-4.204014	-0.806158	1.656920	1.309349	13.057970	2.020787	-10.820458	13.764520	2.075360	0.106820	-0.870054	-0.215393	0.437499	-1.000000	-1.000000	-1.000000	-1.000000	-1.000000	-1.000000	-1.000000	60.000000	0.000000	-1.000000	-1.000000	567724.000000	1775766009.495635
1185.255000	-36225.045000	44777.475000	36383.085000	51044.130000	16416.270000	-22936.995000	-50863.725000	-9.509408	-3.248209	-0.120920	2.855499	5.550436	3.466552	4.318895	-10.993563	13.764520	2.075360	0.106820	-0.870054	-0.215393	0.437499	-1.000000	-1.000000	-1.000000	-1.000000	-1.000000	-1.000000	-1.000000	60.000000	0.000000	-1.000000	-1.000000	567725.000000	1775766009.495646
1189.530000	-36228.915000	44772.570000	36372.780000	51027.795000	16397.955000	-22942.755000	-50861.295000	-9.114499	-1.991601	-0.647136	1.526000	5.407729	-5.010080	4.762567	-6.333967	13.764520	2.075360	0.106820	-0.870054	-0.215393	0.437499	-1.000000	-1.000000	-1.000000	-1.000000	-1.000000	-1.000000	-1.000000	60.000000	0.000000	-1.000000	-1.000000	567726.000000	1775766009.498675
1187.955000	-36231.705000	44773.830000	36375.165000	51045.930000	16502.670000	-22943.340000	-50867.190000	-4.282552	-0.062901	-1.310908	-1.065923	1.357963	-12.383156	2.787179	1.529689	13.764520	2.075360	0.106820	-0.870054	-0.215393	0.437499	-1.000000	-1.000000	-1.000000	-1.000000	-1.000000	-1.000000	-1.000000	60.000000	0.000000	-1.000000	-1.000000	567727.000000	1775766009.498692
1188.090000	-36234.000000	44770.140000	36373.545000	51050.880000	16481.070000	-22941.765000	-50867.505000	2.046770	1.611321	-1.544447	-3.200384	-2.616785	-11.691749	-0.284889	8.002376	13.764520	2.075360	0.106820	-0.870054	-0.215393	0.437499	-1.000000	-1.000000	-1.000000	-1.000000	-1.000000	-1.000000	-1.000000	60.000000	0.000000	-1.000000	-1.000000	567728.000000	1775766009.505569
1182.285000	-36239.670000	44763.165000	36370.350000	51047.460000	16470.720000	-22938.615000	-50871.060000	6.166252	2.150252	-1.327807	-3.537711	-3.106934	-2.296349	-2.403345	9.661370	13.764520	2.075360	0.106820	-0.870054	-0.215393	0.437499	-1.000000	-1.000000	-1.000000	-1.000000	-1.000000	-1.000000	-1.000000	60.000000	0.000000	-1.000000	-1.000000	567729.000000	1775766009.505587
1178.235000	-36239.895000	44764.245000	36370.800000	51046.020000	16479.090000	-22937.895000	-50881.365000	6.336787	1.588741	-0.926996	-2.082044	-0.919482	5.661245	-2.463370	6.549546	3.692920	0.732480	1.541260	-0.874021	-0.198181	0.435363	-1.000000	-1.000000	-1.000000	-1.000000	-1.000000	-1.000000	-1.000000	60.000000	0.000000	-1.000000	-1.000000	567730.000000	1775766009.506855
1182.330000	-36234.270000	44768.835000	36378.495000	51048.360000	16474.095000	-22937.490000	-50882.400000	3.494288	0.826766	-0.180054	0.360247	1.144493	5.501751	-1.000295	1.026102	3.692920	0.732480	1.541260	-0.874021	-0.198181	0.435363	-1.000000	-1.000000	-1.000000	-1.000000	-1.000000	-1.000000	-1.000000	60.000000	0.000000	-1.000000	-1.000000	567731.000000	1775766009.506873
1183.005000	-36231.435000	44774.235000	36389.385000	51054.570000	16463.430000	-22939.200000	-50878.080000	0.248590	0.945617	1.395963	3.178653	1.816540	-0.811744	0.560954	-3.661114	3.692920	0.732480	1.541260	-0.874021	-0.198181	0.435363	-1.000000	-1.000000	-1.000000	-1.000000	-1.000000	-1.000000	-1.000000	60.000000	0.000000	-1.000000	-1.000000	567732.000000	1775766009.516028
1185.390000	-36230.040000	44777.025000	36397.035000	51054.480000	16437.285000	-22941.765000	-50873.805000	-1.317648	2.008018	3.534171	5.760276	1.548756	-8.585656	1.084825	-4.905617	3.692920	0.732480	1.541260	-0.874021	-0.198181	0.435363	-1.000000	-1.000000	-1.000000	-1.000000	-1.000000	-1.000000	-1.000000	60.000000	0.000000	-1.000000	-1.000000	567733.000000	1775766009.516053
1189.305000	-36226.080000	44774.820000	36398.295000	51053.085000	16424.730000	-22943.970000	-50870.340000	-0.932227	2.968852	4.929290	6.914681	0.878970	-14.124920	0.373271	-2.474698	3.692920	0.732480	1.541260	-0.874021	-0.198181	0.435363	-1.000000	-1.000000	-1.000000	-1.000000	-1.000000	-1.000000	-1.000000	60.000000	0.000000	-1.000000	-1.000000	567734.000000	1775766009.516080
1187.460000	-36232.740000	44756.100000	36359.145000	51036.390000	16464.510000	-22940.955000	-50872.005000	0.363395	2.721007	3.950072	4.687636	-0.438850	-14.012972	-0.820223	1.413879	3.692920	0.732480	1.541260	-0.874021	-0.198181	0.435363	-1.000000	-1.000000	-1.000000	-1.000000	-1.000000	-1.000000	-1.000000	60.000000	0.000000	-1.000000	-1.000000	567735.000000	1775766009.516091
1193.220000	-36228.240000	44762.130000	36354.240000	51039.405000	16490.970000	-22934.610000	-50867.685000	1.289922	0.929617	0.193805	-2.080500	-2.608280	-5.188078	-1.279198	3.998259	3.692920	0.732480	1.541260	-0.874021	-0.198181	0.435363	-1.000000	-1.000000	-1.000000	-1.000000	-1.000000	-1.000000	-1.000000	60.000000	0.000000	-1.000000	-1.000000	567736.000000	1775766009.535384
1186.245000	-36230.040000	44770.995000	36365.445000	51049.710000	16469.055000	-22939.785000	-50875.425000	1.143646	-1.569875	-3.932474	-10.154835	-4.213264	9.662906	-0.461765	3.870416	3.692920	0.732480	1.541260	-0.874021	-0.198181	0.435363	-1.000000	-1.000000	-1.000000	-1.000000	-1.000000	-1.000000	-1.000000	60.000000	0.000000	-1.000000	-1.000000	567737.000000	1775766009.535409
1181.115000	-36234.090000	44773.065000	36376.785000	51041.970000	16450.920000	-22940.820000	-50882.355000	-0.208335	-3.479769	-5.010406	-12.861952	-3.276325	20.295773	0.729996	1.202568	3.692920	0.732480	1.541260	-0.874021	-0.198181	0.435363	-1.000000	-1.000000	-1.000000	-1.000000	-1.000000	-1.000000	-1.000000	60.000000	0.000000	-1.000000	-1.000000	567738.000000	1775766009.535434
1183.320000	-36231.120000	44775.270000	36384.255000	51047.055000	16476.300000	-22935.915000	-50882.175000	-2.246353	-4.111986	-2.452245	-7.074594	-0.134970	19.004017	1.162652	-2.612999	3.692920	0.732480	1.541260	-0.874021	-0.198181	0.435363	-1.000000	-1.000000	-1.000000	-1.000000	-1.000000	-1.000000	-1.000000	60.000000	0.000000	-1.000000	-1.000000	567739.000000	1775766009.535445
1190.295000	-36224.010000	44779.680000	36386.730000	51053.175000	16500.195000	-22940.685000	-50877.180000	-3.456630	-3.192359	1.343236	3.415276	3.159921	9.387142	0.794779	-5.215482	-6.180300	1.800680	2.212700	-0.872923	-0.188964	0.432128	-1.000000	-1.000000	-1.000000	-1.000000	-1.000000	-1.000000	-1.000000	60.000000	0.000000	-1.000000	-1.000000	567740.000000	1775766009.535457
1203.660000	-36211.905000	44787.780000	36391.365000	51050.880000	16452.495000	-22941.585000	-50866.515000	-2.288102	-0.618604	3.924528	11.777942	5.103407	-0.558448	0.035725	-4.588834	-6.180300	1.800680	2.212700	-0.872923	-0.188964	0.432128	-1.000000	-1.000000	-1.000000	-1.000000	-1.000000	-1.000000	-1.000000	60.000000	0.000000	-1.000000	-1.000000	567741.000000	1775766009.535468
1211.760000	-36201.870000	44798.355000	36399.510000	51051.870000	16373.520000	-22931.955000	-50861.565000	1.230446	2.976340	4.538757	13.712899	4.947250	-9.788450	-0.641314	-0.767765	-6.180300	1.800680	2.212700	-0.872923	-0.188964	0.432128	-1.000000	-1.000000	-1.000000	-1.000000	-1.000000	-1.000000	-1.000000	60.000000	0.000000	-1.000000	-1.000000	567742.000000	1775766009.535478
1199.655000	-36206.595000	44798.490000	36400.680000	51060.060000	16430.355000	-22938.660000	-50875.470000	4.748783	5.770664	3.573914	9.501306	2.902293	-19.471732	-0.632939	3.582434	-6.180300	1.800680	2.212700	-0.872923	-0.188964	0.432128	-1.000000	-1.000000	-1.000000	-1.000000	-1.000000	-1.000000	-1.000000	60.000000	0.000000	-1.000000	-1.000000	567743.000000	1775766009.535489
1190.385000	-36220.410000	44784.090000	36386.100000	51055.245000	16460.235000	-22936.140000	-50882.625000	4.902150	5.300530	1.079458	1.878044	0.229522	-22.122324	-0.099740	4.829880	-6.180300	1.800680	2.212700	-0.872923	-0.188964	0.432128	-1.000000	-1.000000	-1.000000	-1.000000	-1.000000	-1.000000	-1.000000	60.000000	0.000000	-1.000000	-1.000000	567744.000000	1775766009.535500
1193.985000	-36224.820000	44778.105000	36382.635000	51053.940000	16413.930000	-22941.180000	-50875.920000	0.813768	0.647831	-3.134822	-6.336587	-2.085884	-11.035934	0.148899	2.036501	-6.180300	1.800680	2.212700	-0.872923	-0.188964	0.432128	-1.000000	-1.000000	-1.000000	-1.000000	-1.000000	-1.000000	-1.000000	60.000000	0.000000	-1.000000	-1.000000	567745.000000	1775766009.535507
1192.590000	-36228.645000	44775.585000	36384.255000	51055.785000	16428.420000	-22945.140000	-50873.805000	-4.417165	-5.746177	-7.708859	-12.210184	-3.708173	6.363913	-0.304560	-1.839282	-6.180300	1.800680	2.212700	-0.872923	-0.188964	0.432128	-1.000000	-1.000000	-1.000000	-1.000000	-1.000000	-1.000000	-1.000000	60.000000	0.000000	-1.000000	-1.000000	567746.000000	1775766009.540561
1189.440000	-36236.250000	44763.480000	36378.450000	51049.530000	16466.175000	-22939.245000	-50876.505000	-6.996751	-9.821883	-9.994018	-13.192061	-4.323255	18.735628	-1.078435	-3.519598	-6.180300	1.800680	2.212700	-0.872923	-0.188964	0.432128	-1.000000	-1.000000	-1.000000	-1.000000	-1.000000	-1.000000	-1.000000	60.000000	0.000000	-1.000000	-1.000000	567747.000000	1775766009.540587
1179.405000	-36249.165000	44745.165000	36357.705000	51028.605000	16474.095000	-22938.840000	-50892.885000	-5.980007	-9.512691	-8.847816	-9.494158	-4.231564	23.163651	-1.181324	-2.850127	-6.180300	1.800680	2.212700	-0.872923	-0.188964	0.432128	-1.000000	-1.000000	-1.000000	-1.000000	-1.000000	-1.000000	-1.000000	60.000000	0.000000	-1.000000	-1.000000	567748.000000	1775766009.542761
1177.380000	-36249.705000	44744.310000	36353.025000	51024.465000	16475.355000	-22939.965000	-50902.875000	-2.983700	-5.652178	-5.263353	-4.082608	-4.303237	20.757454	-0.179447	-1.983487	-6.180300	1.800680	2.212700	-0.872923	-0.188964	0.432128	-1.000000	-1.000000	-1.000000	-1.000000	-1.000000	-1.000000	-1.000000	60.000000	0.000000	-1.000000	-1.000000	567749.000000	1775766009.542786
1177.830000	-36246.555000	44746.740000	36356.175000	51027.525000	16475.220000	-22936.545000	-50900.130000	0.261705	-0.007551	-0.244086	0.788893	-4.067153	11.972685	1.198480	-2.006272	-4.883200	2.884140	-0.122080	-0.871946	-0.195373	0.431578	-1.000000	-1.000000	-1.000000	-1.000000	-1.000000	-1.000000	-1.000000	60.000000	0.000000	-1.000000	-1.000000	567750.000000	1775766009.547461
1181.160000	-36237.330000	44760.780000	36372.330000	51040.395000	16484.760000	-22933.395000	-50889.555000	3.127119	6.012494	5.847106	5.341884	-1.605005	-0.871835	2.115708	-1.435563	-4.883200	2.884140	-0.122080	-0.871946	-0.195373	0.431578	-1.000000	-1.000000	-1.000000	-1.000000	-1.000000	-1.000000	-1.000000	60.000000	0.000000	-1.000000	-1.000000	567751.000000	1775766009.547484
1195.560000	-36223.020000	44776.170000	36384.165000	51044.400000	16440.750000	-22935.960000	-50873.940000	5.624146	11.117093	12.092267	10.227021	3.687455	-13.518999	2.228813	1.624279	-4.883200	2.884140	-0.122080	-0.871946	-0.195373	0.431578	-1.000000	-1.000000	-1.000000	-1.000000	-1.000000	-1.000000	-1.000000	60.000000	0.000000	-1.000000	-1.000000	567752.000000	1775766009.550743
1202.085000	-36226.890000	44767.845000	36369.585000	51029.235000	16399.215000	-22947.255000	-50863.455000	7.663046	13.667896	16.088836	13.802621	9.076408	-23.492610	1.196411	6.717882	-4.883200	2.884140	-0.122080	-0.871946	-0.195373	0.431578	-1.000000	-1.000000	-1.000000	-1.000000	-1.000000	-1.000000	-1.000000	60.000000	0.000000	-1.000000	-1.000000	567753.000000	1775766009.550765
1194.255000	-36234.045000	44765.820000	36372.960000	51044.760000	16476.705000	-22944.915000	-50869.035000	8.178239	11.745008	14.676776	12.750098	10.660304	-27.755003	-1.022252	10.623671	-4.883200	2.884140	-0.122080	-0.871946	-0.195373	0.431578	-1.000000	-1.000000	-1.000000	-1.000000	-1.000000	-1.000000	-1.000000	60.000000	0.000000	-1.000000	-1.000000	567754.000000	1775766009.559687
1187.460000	-36238.635000	44762.085000	36372.555000	51046.470000	16476.705000	-22941.495000	-50883.480000	5.437599	4.848461	7.035616	6.275016	7.755471	-20.097393	-3.134939	9.469351	-4.883200	2.884140	-0.122080	-0.871946	-0.195373	0.431578	-1.000000	-1.000000	-1.000000	-1.000000	-1.000000	-1.000000	-1.000000	60.000000	0.000000	-1.000000	-1.000000	567755.000000	1775766009.559711
1185.030000	-36237.330000	44763.570000	36375.480000	51047.505000	16470.405000	-22931.955000	-50893.380000	-0.566237	-4.316676	-3.489012	-2.278110	2.823891	-1.037089	-3.187911	2.160302	-4.883200	2.884140	-0.122080	-0.871946	-0.195373	0.431578	-1.000000	-1.000000	-1.000000	-1.000000	-1.000000	-1.000000	-1.000000	60.000000	0.000000	-1.000000	-1.000000	567756.000000	1775766009.559738
1195.560000	-36217.575000	44784.315000	36398.025000	51063.615000	16473.150000	-22936.320000	-50884.470000	-6.784066	-10.839882	-11.379502	-8.231281	-1.614357	17.627484	-0.787987	-7.577721	-4.883200	2.884140	-0.122080	-0.871946	-0.195373	0.431578	-1.000000	-1.000000	-1.000000	-1.000000	-1.000000	-1.000000	-1.000000	60.000000	0.000000	-1.000000	-1.000000	567757.000000	1775766009.559749
1201.860000	-36200.655000	44803.980000	36417.060000	51072.480000	16438.545000	-22940.055000	-50878.170000	-9.260862	-10.844917	-12.378712	-8.487054	-3.876453	24.352883	2.080007	-13.402027	-4.883200	2.884140	-0.122080	-0.871946	-0.195373	0.431578	-1.000000	-1.000000	-1.000000	-1.000000	-1.000000	-1.000000	-1.000000	60.000000	0.000000	-1.000000	-1.000000	567758.000000	1775766009.564227
1200.510000	-36202.770000	44803.665000	36413.235000	51062.220000	16447.590000	-22937.715000	-50875.605000	-6.777557	-4.879190	-6.739656	-3.855495	-3.954501	17.000940	3.094278	-11.707811	-4.883200	2.884140	-0.122080	-0.871946	-0.195373	0.431578	-1.000000	-1.000000	-1.000000	-1.000000	-1.000000	-1.000000	-1.000000	60.000000	0.000000	-1.000000	-1.000000	567759.000000	1775766009.564253
1201.950000	-36218.340000	44783.595000	36393.165000	51056.865000	16430.535000	-22934.205000	-50868.360000	-1.819480	1.690853	0.068508	0.577629	-3.936293	2.473208	2.031390	-4.347460	3.952340	2.487380	-2.456860	-0.872129	-0.206603	0.431151	-1.000000	-1.000000	-1.000000	-1.000000	-1.000000	-1.000000	-1.000000	60.000000	0.000000	-1.000000	-1.000000	567760.000000	1775766009.567646
1193.850000	-36235.305000	44764.605000	36376.200000	51062.580000	16478.910000	-22934.790000	-50875.155000	2.027003	3.132846	1.740970	-0.236283	-5.155481	-8.767915	0.343035	3.681912	3.952340	2.487380	-2.456860	-0.872129	-0.206603	0.431151	-1.000000	-1.000000	-1.000000	-1.000000	-1.000000	-1.000000	-1.000000	60.000000	0.000000	-1.000000	-1.000000	567761.000000	1775766009.567672
1200.690000	-36232.560000	44767.620000	36379.980000	51065.190000	16514.550000	-22930.920000	-50871.600000	2.968338	-1.218103	-2.689856	-5.879689	-6.168071	-9.115691	-0.776475	8.007862	3.952340	2.487380	-2.456860	-0.872129	-0.206603	0.431151	-1.000000	-1.000000	-1.000000	-1.000000	-1.000000	-1.000000	-1.000000	60.000000	0.000000	-1.000000	-1.000000	567762.000000	1775766009.574778
1202.580000	-36233.415000	44764.965000	36374.715000	51050.295000	16447.995000	-22934.925000	-50868.405000	1.867641	-6.515253	-7.988824	-10.722028	-5.287473	-0.412820	-1.114284	7.447434	3.952340	2.487380	-2.456860	-0.872129	-0.206603	0.431151	-1.000000	-1.000000	-1.000000	-1.000000	-1.000000	-1.000000	-1.000000	60.000000	0.000000	-1.000000	-1.000000	567763.000000	1775766009.574801
1200.645000	-36233.505000	44768.385000	36377.955000	51055.380000	16451.640000	-22933.755000	-50869.845000	0.604847	-7.572685	-8.463569	-9.836684	-2.951564	5.922347	-1.100430	3.886347	3.952340	2.487380	-2.456860	-0.872129	-0.206603	0.431151	-1.000000	-1.000000	-1.000000	-1.000000	-1.000000	-1.000000	-1.000000	60.000000	0.000000	-1.000000	-1.000000	567764.000000	1775766009.577152
1195.785000	-36232.965000	44772.390000	36380.835000	51057.900000	16465.095000	-22942.215000	-50878.710000	-0.109319	-3.428687	-3.012626	-3.096945	-0.135314	2.899048	-1.242055	-0.300869	3.952340	2.487380	-2.456860	-0.872129	-0.206603	0.431151	-1.000000	-1.000000	-1.000000	-1.000000	-1.000000	-1.000000	-1.000000	60.000000	0.000000	-1.000000	-1.000000	567765.000000	1775766009.577176
1199.700000	-36227.115000	44779.005000	36385.020000	51060.150000	16468.605000	-22949.865000	-50880.150000	-0.551569	3.166482	5.228529	5.875184	2.889818	-4.117630	-1.823259	-3.762612	3.952340	2.487380	-2.456860	-0.872129	-0.206603	0.431151	-1.000000	-1.000000	-1.000000	-1.000000	-1.000000	-1.000000	-1.000000	60.000000	0.000000	-1.000000	-1.000000	567766.000000	1775766009.579556
1206.945000	-36221.400000	44784.810000	36390.330000	51066.450000	16512.030000	-22941.585000	-50872.590000	-0.549577	8.768288	11.922558	12.709425	5.604994	-6.652827	-2.442297	-5.420729	3.952340	2.487380	-2.456860	-0.872129	-0.206603	0.431151	-1.000000	-1.000000	-1.000000	-1.000000	-1.000000	-1.000000	-1.000000	60.000000	0.000000	-1.000000	-1.000000	567767.000000	1775766009.579576
1213.245000	-36220.365000	44784.540000	36389.520000	51064.650000	16504.785000	-22939.650000	-50863.725000	0.443513	11.093341	13.994834	14.606246	7.020584	-2.035827	-1.827653	-4.176271	3.952340	2.487380	-2.456860	-0.872129	-0.206603	0.431151	-1.000000	-1.000000	-1.000000	-1.000000	-1.000000	-1.000000	-1.000000	60.000000	0.000000	-1.000000	-1.000000	567768.000000	1775766009.583499
1206.855000	-36228.555000	44776.035000	36383.130000	51063.660000	16509.780000	-22933.080000	-50865.615000	1.971724	9.239212	10.550290	11.074615	6.266882	5.176059	0.662673	-0.380081	3.952340	2.487380	-2.456860	-0.872129	-0.206603	0.431151	-1.000000	-1.000000	-1.000000	-1.000000	-1.000000	-1.000000	-1.000000	60.000000	0.000000	-1.000000	-1.000000	567769.000000	1775766009.583519
1201.860000	-36235.305000	44766.405000	36376.200000	51059.880000	16494.300000	-22931.505000	-50865.615000	2.367803	3.681302	2.847988	3.642231	3.252548	7.867085	3.868921	3.504285	8.850800	3.982860	-4.852680	-0.874387	-0.208618	0.431273	-1.000000	-1.000000	-1.000000	-1.000000	-1.000000	-1.000000	-1.000000	60.000000	0.000000	-1.000000	-1.000000	567770.000000	1775766009.592396
1208.880000	-36226.395000	44773.065000	36382.230000	51054.345000	16433.280000	-22943.115000	-50860.980000	0.793580	-3.180670	-5.764454	-4.460439	-0.982512	2.220485	5.548672	5.008677	8.850800	3.982860	-4.852680	-0.874387	-0.208618	0.431273	-1.000000	-1.000000	-1.000000	-1.000000	-1.000000	-1.000000	-1.000000	60.000000	0.000000	-1.000000	-1.000000	567771.000000	1775766009.592426
1212.660000	-36220.635000	44786.070000	36395.370000	51064.560000	16435.755000	-22948.155000	-50864.355000	-1.340790	-7.599141	-10.757879	-9.227870	-4.529005	-9.892351	3.967027	3.732978	8.850800	3.982860	-4.852680	-0.874387	-0.208618	0.431273	-1.000000	-1.000000	-1.000000	-1.000000	-1.000000	-1.000000	-1.000000	60.000000	0.000000	-1.000000	-1.000000	567772.000000	1775766009.592454
1206.225000	-36226.620000	44781.435000	36388.305000	51056.190000	16452.630000	-22947.795000	-50872.770000	-2.277503	-7.491620	-9.567511	-8.564934	-5.599244	-19.843371	-0.258405	0.694479	8.850800	3.982860	-4.852680	-0.874387	-0.208618	0.431273	-1.000000	-1.000000	-1.000000	-1.000000	-1.000000	-1.000000	-1.000000	60.000000	0.000000	-1.000000	-1.000000	567773.000000	1775766009.592464
1203.165000	-36227.655000	44782.155000	36390.285000	51059.430000	16447.545000	-22946.580000	-50882.040000	-2.079666	-4.346482	-4.137182	-4.322450	-4.085234	-18.130931	-4.195696	-2.962565	8.850800	3.982860	-4.852680	-0.874387	-0.208618	0.431273	-1.000000	-1.000000	-1.000000	-1.000000	-1.000000	-1.000000	-1.000000	60.000000	0.000000	-1.000000	-1.000000	567774.000000	1775766009.595698
1210.770000	-36218.925000	44790.930000	36403.380000	51075.585000	16454.430000	-22946.400000	-50881.680000	-1.547701	-0.871793	1.405301	0.108496	-1.101698	-4.527557	-5.257216	-5.859542	8.850800	3.982860	-4.852680	-0.874387	-0.208618	0.431273	-1.000000	-1.000000	-1.000000	-1.000000	-1.000000	-1.000000	-1.000000	60.000000	0.000000	-1.000000	-1.000000	567775.000000	1775766009.595722
1212.480000	-36220.050000	44790.210000	36410.130000	51087.105000	16465.905000	-22945.680000	-50878.215000	-0.601935	1.672311	4.577254	3.173323	2.632951	12.438288	-3.238627	-6.268002	8.850800	3.982860	-4.852680	-0.874387	-0.208618	0.431273	-1.000000	-1.000000	-1.000000	-1.000000	-1.000000	-1.000000	-1.000000	60.000000	0.000000	-1.000000	-1.000000	567776.000000	1775766009.599163
1209.600000	-36228.555000	44781.435000	36401.985000	51073.875000	16464.195000	-22940.955000	-50876.190000	0.824266	2.817473	4.745669	4.449808	5.778578	23.739632	0.224271	-3.361628	8.850800	3.982860	-4.852680	-0.874387	-0.208618	0.431273	-1.000000	-1.000000	-1.000000	-1.000000	-1.000000	-1.000000	-1.000000	60.000000	0.000000	-1.000000	-1.000000	567777.000000	1775766009.599182
1203.525000	-36235.890000	44777.160000	36399.195000	51063.165000	16471.125000	-22938.300000	-50877.990000	1.761371	1.965856	2.118845	3.187654	5.589203	24.769600	3.281396	1.519367	8.850800	3.982860	-4.852680	-0.874387	-0.208618	0.431273	-1.000000	-1.000000	-1.000000	-1.000000	-1.000000	-1.000000	-1.000000	60.000000	0.000000	-1.000000	-1.000000	567778.000000	1775766009.602794
1211.265000	-36226.935000	44783.820000	36398.475000	51064.965000	16480.755000	-22940.730000	-50869.395000	1.440567	-0.327406	-1.676467	-0.367586	1.043272	16.576961	4.650208	5.770839	8.850800	3.982860	-4.852680	-0.874387	-0.208618	0.431273	-1.000000	-1.000000	-1.000000	-1.000000	-1.000000	-1.000000	-1.000000	60.000000	0.000000	-1.000000	-1.000000	567779.000000	1775766009.602815
1215.270000	-36223.965000	44781.255000	36374.715000	51056.955000	16481.700000	-22944.870000	-50865.840000	0.617636	-1.856317	-3.994653	-4.504329	-4.975678	4.266956	3.702262	7.671445	4.822160	1.938020	-4.471180	-0.872434	-0.205627	0.432128	-1.000000	-1.000000	-1.000000	-1.000000	-1.000000	-1.000000	-1.000000	60.000000	0.000000	-1.000000	-1.000000	567780.000000	1775766009.607343
1210.455000	-36230.085000	44779.050000	36383.805000	51065.595000	16487.730000	-22947.615000	-50867.775000	0.345525	-1.213749	-3.571016	-7.412070	-8.332097	-6.824587	0.805795	6.880711	4.822160	1.938020	-4.471180	-0.872434	-0.205627	0.432128	-1.000000	-1.000000	-1.000000	-1.000000	-1.000000	-1.000000	-1.000000	60.000000	0.000000	-1.000000	-1.000000	567781.000000	1775766009.607367
1212.660000	-36231.570000	44776.935000	36384.255000	51060.780000	16454.205000	-22939.605000	-50865.615000	0.408990	0.498124	-1.422150	-7.274371	-7.032171	-14.141286	-2.382016	3.783666	4.822160	1.938020	-4.471180	-0.872434	-0.205627	0.432128	-1.000000	-1.000000	-1.000000	-1.000000	-1.000000	-1.000000	-1.000000	60.000000	0.000000	-1.000000	-1.000000	567782.000000	1775766009.612380
1211.805000	-36233.595000	44773.290000	36375.300000	51043.500000	16412.310000	-22935.915000	-50868.495000	0.160530	1.474598	0.723748	-3.386986	-2.585444	-18.654320	-3.735029	-0.506181	4.822160	1.938020	-4.471180	-0.872434	-0.205627	0.432128	-1.000000	-1.000000	-1.000000	-1.000000	-1.000000	-1.000000	-1.000000	60.000000	0.000000	-1.000000	-1.000000	567783.000000	1775766009.612406
1211.220000	-36229.815000	44778.555000	36383.220000	51052.005000	16434.630000	-22933.080000	-50872.095000	-0.414687	1.309455	1.961757	2.272634	1.613906	-21.009626	-2.491676	-4.438895	4.822160	1.938020	-4.471180	-0.872434	-0.205627	0.432128	-1.000000	-1.000000	-1.000000	-1.000000	-1.000000	-1.000000	-1.000000	60.000000	0.000000	-1.000000	-1.000000	567784.000000	1775766009.615622
1204.830000	-36234.405000	44775.630000	36384.840000	51062.490000	16484.805000	-22933.935000	-50876.730000	-1.085810	0.705043	2.424291	6.988685	4.181263	-16.841368	0.016480	-6.837031	4.822160	1.938020	-4.471180	-0.872434	-0.205627	0.432128	-1.000000	-1.000000	-1.000000	-1.000000	-1.000000	-1.000000	-1.000000	60.000000	0.000000	-1.000000	-1.000000	567785.000000	1775766009.615642
1203.030000	-36235.305000	44775.630000	36386.955000	51065.100000	16504.605000	-22949.280000	-50879.520000	-1.737739	0.163118	2.400577	9.242769	6.030160	-1.995412	1.476561	-7.166403	4.822160	1.938020	-4.471180	-0.872434	-0.205627	0.432128	-1.000000	-1.000000	-1.000000	-1.000000	-1.000000	-1.000000	-1.000000	60.000000	0.000000	-1.000000	-1.000000	567786.000000	1775766009.619425
1209.330000	-36229.275000	44782.200000	36393.525000	51068.430000	16488.630000	-22943.970000	-50871.465000	-1.940035	-0.156389	1.992961	8.611559	7.247715	17.586470	0.541258	-5.281412	4.822160	1.938020	-4.471180	-0.872434	-0.205627	0.432128	-1.000000	-1.000000	-1.000000	-1.000000	-1.000000	-1.000000	-1.000000	60.000000	0.000000	-1.000000	-1.000000	567787.000000	1775766009.619445
1214.955000	-36223.650000	44787.195000	36398.205000	51070.815000	16486.380000	-22945.590000	-50868.990000	-0.899626	0.130248	1.584943	5.754828	6.688998	28.548480	-1.650869	-1.418981	4.822160	1.938020	-4.471180	-0.872434	-0.205627	0.432128	-1.000000	-1.000000	-1.000000	-1.000000	-1.000000	-1.000000	-1.000000	60.000000	0.000000	-1.000000	-1.000000	567788.000000	1775766009.622811
1216.980000	-36221.175000	44789.445000	36400.095000	51069.780000	16492.860000	-22953.330000	-50870.700000	1.406315	1.127076	1.445898	1.945088	3.821005	23.636057	-2.887890	3.106901	4.822160	1.938020	-4.471180	-0.872434	-0.205627	0.432128	-1.000000	-1.000000	-1.000000	-1.000000	-1.000000	-1.000000	-1.000000	60.000000	0.000000	-1.000000	-1.000000	567789.000000	1775766009.622832
1220.940000	-36219.690000	44791.065000	36399.735000	51063.840000	16466.175000	-22951.440000	-50867.325000	3.668788	2.040536	1.168628	-1.815269	-0.667737	7.260335	-2.405329	6.135667	0.625660	0.900340	-4.043900	-0.871153	-0.203674	0.433532	-1.000000	-1.000000	-1.000000	-1.000000	-1.000000	-1.000000	-1.000000	60.000000	0.000000	-1.000000	-1.000000	567790.000000	1775766009.628004
1215.855000	-36228.015000	44784.180000	36394.965000	51063.660000	16440.705000	-22950.900000	-50868.990000	4.279973	1.707881	0.081026	-4.983271	-5.278163	-11.425744	-0.659231	6.355177	0.625660	0.900340	-4.043900	-0.871153	-0.203674	0.433532	-1.000000	-1.000000	-1.000000	-1.000000	-1.000000	-1.000000	-1.000000	60.000000	0.000000	-1.000000	-1.000000	567791.000000	1775766009.628029
1209.240000	-36234.945000	44780.670000	36393.795000	51069.195000	16496.280000	-22951.395000	-50875.515000	2.439078	-0.460948	-2.043682	-7.141482	-8.048077	-23.608394	1.630704	3.967249	0.625660	0.900340	-4.043900	-0.871153	-0.203674	0.433532	-1.000000	-1.000000	-1.000000	-1.000000	-1.000000	-1.000000	-1.000000	60.000000	0.000000	-1.000000	-1.000000	567792.000000	1775766009.639161
1208.340000	-36234.855000	44781.930000	36392.580000	51061.545000	16491.285000	-22953.375000	-50883.030000	-1.217511	-3.631001	-4.384092	-7.711653	-7.653237	-22.362165	3.452241	0.011899	0.625660	0.900340	-4.043900	-0.871153	-0.203674	0.433532	-1.000000	-1.000000	-1.000000	-1.000000	-1.000000	-1.000000	-1.000000	60.000000	0.000000	-1.000000	-1.000000	567793.000000	1775766009.639186
1205.550000	-36236.340000	44781.570000	36389.610000	51057.225000	16473.735000	-22955.670000	-50892.210000	-4.660046	-5.695472	-5.345214	-6.303071	-4.813641	-9.266529	3.876060	-4.058833	0.625660	0.900340	-4.043900	-0.871153	-0.203674	0.433532	-1.000000	-1.000000	-1.000000	-1.000000	-1.000000	-1.000000	-1.000000	60.000000	0.000000	-1.000000	-1.000000	567794.000000	1775766009.639211
1209.510000	-36229.140000	44786.925000	36401.625000	51068.700000	16471.845000	-22955.850000	-50889.105000	-5.803141	-4.921764	-3.934576	-3.088878	-1.254513	4.992513	2.761432	-6.513540	0.625660	0.900340	-4.043900	-0.871153	-0.203674	0.433532	-1.000000	-1.000000	-1.000000	-1.000000	-1.000000	-1.000000	-1.000000	60.000000	0.000000	-1.000000	-1.000000	567795.000000	1775766009.639222
1214.910000	-36222.615000	44791.290000	36409.995000	51079.815000	16482.195000	-22953.150000	-50877.990000	-3.882457	-1.263073	-0.569162	1.414267	2.399598	11.948420	0.920837	-5.693609	0.625660	0.900340	-4.043900	-0.871153	-0.203674	0.433532	-1.000000	-1.000000	-1.000000	-1.000000	-1.000000	-1.000000	-1.000000	60.000000	0.000000	-1.000000	-1.000000	567796.000000	1775766009.641507
1221.435000	-36222.660000	44791.335000	36405.360000	51072.930000	16466.220000	-22956.570000	-50865.570000	0.232373	3.524127	3.176232	5.846095	5.744654	11.227828	-0.588392	-1.104534	0.625660	0.900340	-4.043900	-0.871153	-0.203674	0.433532	-1.000000	-1.000000	-1.000000	-1.000000	-1.000000	-1.000000	-1.000000	60.000000	0.000000	-1.000000	-1.000000	567797.000000	1775766009.641530
1224.270000	-36225.540000	44787.555000	36401.400000	51064.740000	16461.315000	-22954.995000	-50857.920000	4.480812	6.669576	5.289831	7.757894	6.922452	6.079562	-1.340702	5.377121	0.625660	0.900340	-4.043900	-0.871153	-0.203674	0.433532	-1.000000	-1.000000	-1.000000	-1.000000	-1.000000	-1.000000	-1.000000	60.000000	0.000000	-1.000000	-1.000000	567798.000000	1775766009.642893
1215.180000	-36230.895000	44785.755000	36401.985000	51069.060000	16464.600000	-22947.750000	-50869.800000	6.468355	6.187157	4.570495	5.738467	4.523354	-0.029694	-1.326950	9.822797	0.625660	0.900340	-4.043900	-0.871153	-0.203674	0.433532	-1.000000	-1.000000	-1.000000	-1.000000	-1.000000	-1.000000	-1.000000	60.000000	0.000000	-1.000000	-1.000000	567799.000000	1775766009.642918
1212.030000	-36236.790000	44779.320000	36394.650000	51067.305000	16521.885000	-22938.750000	-50880.330000	4.748818	2.329312	1.521038	1.065249	0.044835	-2.829539	-0.395264	8.617432	1.617560	-0.610400	-3.799740	-0.874204	-0.206237	0.434569	-1.000000	-1.000000	-1.000000	-1.000000	-1.000000	-1.000000	-1.000000	60.000000	0.000000	-1.000000	-1.000000	567800.000000	1775766009.646848
1214.640000	-36232.740000	44782.695000	36397.305000	51072.435000	16489.845000	-22937.985000	-50879.970000	0.286276	-2.542047	-2.019929	-3.546418	-3.495596	0.180318	1.192732	1.791149	1.617560	-0.610400	-3.799740	-0.874204	-0.206237	0.434569	-1.000000	-1.000000	-1.000000	-1.000000	-1.000000	-1.000000	-1.000000	60.000000	0.000000	-1.000000	-1.000000	567801.000000	1775766009.646868
1213.155000	-36225.810000	44791.785000	36408.195000	51083.865000	16469.280000	-22951.440000	-50876.100000	-3.934906	-5.334693	-3.824735	-5.589400	-4.110771	4.503046	1.973994	-6.180756	1.617560	-0.610400	-3.799740	-0.874204	-0.206237	0.434569	-1.000000	-1.000000	-1.000000	-1.000000	-1.000000	-1.000000	-1.000000	60.000000	0.000000	-1.000000	-1.000000	567802.000000	1775766009.650795
1208.970000	-36230.580000	44786.565000	36402.255000	51071.805000	16473.690000	-22962.555000	-50873.130000	-5.591896	-4.509328	-2.784314	-4.068560	-2.040488	3.229443	0.202554	-10.080338	1.617560	-0.610400	-3.799740	-0.874204	-0.206237	0.434569	-1.000000	-1.000000	-1.000000	-1.000000	-1.000000	-1.000000	-1.000000	60.000000	0.000000	-1.000000	-1.000000	567803.000000	1775766009.650814
1213.335000	-36235.395000	44783.865000	36400.545000	51068.565000	16513.335000	-22948.290000	-50867.280000	-4.500396	-1.496450	-0.200513	-0.625123	0.262096	-2.481755	-3.500025	-8.088838	1.617560	-0.610400	-3.799740	-0.874204	-0.206237	0.434569	-1.000000	-1.000000	-1.000000	-1.000000	-1.000000	-1.000000	-1.000000	60.000000	0.000000	-1.000000	-1.000000	567804.000000	1775766009.657495
1219.725000	-36232.785000	44786.610000	36402.075000	51070.455000	16509.870000	-22950.270000	-50863.725000	-1.578050	1.067908	1.646680	2.009065	0.663407	-5.409281	-5.752921	-2.255816	1.617560	-0.610400	-3.799740	-0.874204	-0.206237	0.434569	-1.000000	-1.000000	-1.000000	-1.000000	-1.000000	-1.000000	-1.000000	60.000000	0.000000	-1.000000	-1.000000	567805.000000	1775766009.657534
1223.415000	-36225.720000	44794.440000	36407.430000	51078.645000	16486.695000	-22962.015000	-50865.570000	2.028382	2.184692	2.077172	2.778737	-0.215087	-3.442304	-4.528972	3.627284	1.617560	-0.610400	-3.799740	-0.874204	-0.206237	0.434569	-1.000000	-1.000000	-1.000000	-1.000000	-1.000000	-1.000000	-1.000000	60.000000	0.000000	-1.000000	-1.000000	567806.000000	1775766009.659992
1219.320000	-36228.105000	44794.080000	36404.595000	51080.985000	16442.640000	-22972.950000	-50872.140000	4.730503	2.472111	1.895117	2.330210	-0.408523	-2.049432	-1.643249	6.310890	1.617560	-0.610400	-3.799740	-0.874204	-0.206237	0.434569	-1.000000	-1.000000	-1.000000	-1.000000	-1.000000	-1.000000	-1.000000	60.000000	0.000000	-1.000000	-1.000000	567807.000000	1775766009.660014
1210.275000	-36235.800000	44790.390000	36402.885000	51085.485000	16475.130000	-22962.015000	-50880.420000	4.825141	2.140559	1.467923	1.305321	0.722886	-4.960493	0.535460	4.666054	1.617560	-0.610400	-3.799740	-0.874204	-0.206237	0.434569	-1.000000	-1.000000	-1.000000	-1.000000	-1.000000	-1.000000	-1.000000	60.000000	0.000000	-1.000000	-1.000000	567808.000000	1775766009.665965
1204.785000	-36245.970000	44777.655000	36387.315000	51064.785000	16480.575000	-22947.030000	-50885.100000	1.851820	0.585068	0.177996	-0.333385	1.765932	-7.648569	2.375495	0.143206	1.617560	-0.610400	-3.799740	-0.874204	-0.206237	0.434569	-1.000000	-1.000000	-1.000000	-1.000000	-1.000000	-1.000000	-1.000000	60.000000	0.000000	-1.000000	-1.000000	567809.000000	1775766009.665990
1216.980000	-36241.515000	44776.755000	36380.475000	51055.245000	16488.360000	-22949.550000	-50876.010000	-2.247342	-1.953106	-2.238703	-2.685884	0.610740	-4.172191	5.035576	-4.012507	2.380560	-1.037680	-2.533160	-0.872984	-0.208068	0.431456	-1.000000	-1.000000	-1.000000	-1.000000	-1.000000	-1.000000	-1.000000	60.000000	0.000000	-1.000000	-1.000000	567810.000000	1775766009.668332
1217.790000	-36238.905000	44779.905000	36384.975000	51061.725000	16493.715000	-22949.325000	-50876.145000	-4.236320	-3.602711	-4.410378	-4.715437	-2.617161	4.377115	7.265305	-4.815918	2.380560	-1.037680	-2.533160	-0.872984	-0.208068	0.431456	-1.000000	-1.000000	-1.000000	-1.000000	-1.000000	-1.000000	-1.000000	60.000000	0.000000	-1.000000	-1.000000	567811.000000	1775766009.668356
1203.570000	-36249.705000	44774.235000	36384.120000	51068.565000	16492.275000	-22939.965000	-50883.840000	-3.075099	-2.932465	-4.418763	-4.445597	-4.670813	11.936102	6.863151	-2.126571	2.380560	-1.037680	-2.533160	-0.872984	-0.208068	0.431456	-1.000000	-1.000000	-1.000000	-1.000000	-1.000000	-1.000000	-1.000000	60.000000	0.000000	-1.000000	-1.000000	567812.000000	1775766009.672963
1197.225000	-36257.445000	44766.990000	36377.595000	51061.005000	16482.510000	-22944.105000	-50889.240000	-1.041054	-0.947853	-2.206032	-1.394061	-3.031701	13.419599	3.670053	1.280243	2.380560	-1.037680	-2.533160	-0.872984	-0.208068	0.431456	-1.000000	-1.000000	-1.000000	-1.000000	-1.000000	-1.000000	-1.000000	60.000000	0.000000	-1.000000	-1.000000	567813.000000	1775766009.672982
1209.330000	-36248.220000	44773.515000	36379.620000	51053.580000	16459.830000	-22941.720000	-50879.565000	-0.064536	0.676551	0.657637	2.534805	0.829606	7.535857	-0.815086	3.034069	2.380560	-1.037680	-2.533160	-0.872984	-0.208068	0.431456	-1.000000	-1.000000	-1.000000	-1.000000	-1.000000	-1.000000	-1.000000	60.000000	0.000000	-1.000000	-1.000000	567814.000000	1775766009.676624
1213.155000	-36242.910000	44780.310000	36385.380000	51052.230000	16429.410000	-22952.115000	-50879.430000	0.706843	2.010002	3.219528	5.318078	3.611842	-3.287233	-5.031317	3.292978	2.380560	-1.037680	-2.533160	-0.872984	-0.208068	0.431456	-1.000000	-1.000000	-1.000000	-1.000000	-1.000000	-1.000000	-1.000000	60.000000	0.000000	-1.000000	-1.000000	567815.000000	1775766009.676644
1205.820000	-36249.930000	44775.495000	36383.805000	51052.815000	16431.255000	-22956.750000	-50887.530000	2.229901	3.515433	5.177053	6.290618	3.950513	-13.843426	-7.922702	2.900401	2.380560	-1.037680	-2.533160	-0.872984	-0.208068	0.431456	-1.000000	-1.000000	-1.000000	-1.000000	-1.000000	-1.000000	-1.000000	60.000000	0.000000	-1.000000	-1.000000	567816.000000	1775766009.682825
1202.310000	-36256.455000	44769.960000	36381.960000	51061.230000	16471.845000	-22944.060000	-50889.240000	3.291592	4.082728	5.534147	5.370699	2.968885	-17.095243	-8.499796	1.678566	2.380560	-1.037680	-2.533160	-0.872984	-0.208068	0.431456	-1.000000	-1.000000	-1.000000	-1.000000	-1.000000	-1.000000	-1.000000	60.000000	0.000000	-1.000000	-1.000000	567817.000000	1775766009.682847
1209.285000	-36252.495000	44773.245000	36383.445000	51061.950000	16495.515000	-22942.890000	-50884.020000	2.628714	2.593728	3.523727	2.767355	2.274775	-8.358408	-5.770782	-0.251477	2.380560	-1.037680	-2.533160	-0.872984	-0.208068	0.431456	-1.000000	-1.000000	-1.000000	-1.000000	-1.000000	-1.000000	-1.000000	60.000000	0.000000	-1.000000	-1.000000	567818.000000	1775766009.686621
1220.445000	-36241.605000	44784.855000	36393.615000	51070.050000	16494.120000	-22947.705000	-50873.580000	1.163535	0.163019	0.410686	-0.336994	2.277499	8.344085	-0.570660	-1.469464	2.380560	-1.037680	-2.533160	-0.872984	-0.208068	0.431456	-1.000000	-1.000000	-1.000000	-1.000000	-1.000000	-1.000000	-1.000000	60.000000	0.000000	-1.000000	-1.000000	567819.000000	1775766009.686644
1220.895000	-36240.165000	44787.285000	36397.485000	51076.620000	16498.710000	-22947.615000	-50872.905000	0.544561	-1.049702	-1.492273	-2.242869	2.389963	21.541288	4.099664	-0.847896	0.732480	-0.854560	-2.136400	-0.871763	-0.206542	0.431212	-1.000000	-1.000000	-1.000000	-1.000000	-1.000000	-1.000000	-1.000000	60.000000	0.000000	-1.000000	-1.000000	567820.000000	1775766009.695581
1212.120000	-36247.365000	44780.940000	36393.345000	51077.880000	16523.055000	-22942.260000	-50878.620000	0.564473	-0.748585	-1.627654	-2.494485	1.933835	22.827843	5.996568	0.681460	0.732480	-0.854560	-2.136400	-0.871763	-0.206542	0.431212	-1.000000	-1.000000	-1.000000	-1.000000	-1.000000	-1.000000	-1.000000	60.000000	0.000000	-1.000000	-1.000000	567821.000000	1775766009.695608
1210.275000	-36249.840000	44778.015000	36389.790000	51072.255000	16540.830000	-22941.225000	-50879.610000	-0.382041	-0.623093	-1.554908	-2.336737	0.307421	13.619549	5.325811	1.046431	0.732480	-0.854560	-2.136400	-0.871763	-0.206542	0.431212	-1.000000	-1.000000	-1.000000	-1.000000	-1.000000	-1.000000	-1.000000	60.000000	0.000000	-1.000000	-1.000000	567822.000000	1775766009.695632
1215.270000	-36244.440000	44782.920000	36395.235000	51074.190000	16525.530000	-22947.165000	-50878.845000	-2.512995	-1.587203	-2.327751	-2.773702	-2.555095	0.504873	3.266341	-0.416309	0.732480	-0.854560	-2.136400	-0.871763	-0.206542	0.431212	-1.000000	-1.000000	-1.000000	-1.000000	-1.000000	-1.000000	-1.000000	60.000000	0.000000	-1.000000	-1.000000	567823.000000	1775766009.695641
1214.145000	-36247.365000	44780.355000	36397.485000	51074.955000	16480.260000	-22951.845000	-50882.625000	-4.100294	-2.647200	-3.161701	-3.179069	-5.440800	-12.501165	0.503208	-2.455282	0.732480	-0.854560	-2.136400	-0.871763	-0.206542	0.431212	-1.000000	-1.000000	-1.000000	-1.000000	-1.000000	-1.000000	-1.000000	60.000000	0.000000	-1.000000	-1.000000	567824.000000	1775766009.695652
1210.635000	-36252.180000	44776.845000	36396.135000	51064.380000	16444.575000	-22958.370000	-50887.890000	-3.857519	-2.788218	-3.073062	-2.572812	-6.796911	-24.427238	-2.425917	-3.686947	0.732480	-0.854560	-2.136400	-0.871763	-0.206542	0.431212	-1.000000	-1.000000	-1.000000	-1.000000	-1.000000	-1.000000	-1.000000	60.000000	0.000000	-1.000000	-1.000000	567825.000000	1775766009.695660
1211.715000	-36251.640000	44781.705000	36405.270000	51068.745000	16470.855000	-22954.680000	-50887.080000	-2.204009	-2.135256	-2.030360	-0.967513	-6.170896	-31.634955	-4.457589	-3.613605	0.732480	-0.854560	-2.136400	-0.871763	-0.206542	0.431212	-1.000000	-1.000000	-1.000000	-1.000000	-1.000000	-1.000000	-1.000000	60.000000	0.000000	-1.000000	-1.000000	567826.000000	1775766009.698920
1219.230000	-36244.080000	44786.475000	36404.685000	51071.265000	16480.395000	-22952.295000	-50882.175000	-0.027187	-0.922380	-0.251630	1.014414	-3.759732	-27.092470	-4.329787	-2.139265	0.732480	-0.854560	-2.136400	-0.871763	-0.206542	0.431212	-1.000000	-1.000000	-1.000000	-1.000000	-1.000000	-1.000000	-1.000000	60.000000	0.000000	-1.000000	-1.000000	567827.000000	1775766009.698944
1227.465000	-36236.655000	44781.030000	36379.935000	51059.385000	16469.325000	-22949.640000	-50877.495000	2.322159	1.049120	1.815760	2.046900	-0.241121	-9.326596	-1.770601	0.592340	0.732480	-0.854560	-2.136400	-0.871763	-0.206542	0.431212	-1.000000	-1.000000	-1.000000	-1.000000	-1.000000	-1.000000	-1.000000	60.000000	0.000000	-1.000000	-1.000000	567828.000000	1775766009.704569
1226.970000	-36237.240000	44780.310000	36388.845000	51058.755000	16457.670000	-22953.780000	-50880.420000	4.371805	3.392685	3.031730	0.741091	2.716797	12.440109	1.771078	3.582133	0.732480	-0.854560	-2.136400	-0.871763	-0.206542	0.431212	-1.000000	-1.000000	-1.000000	-1.000000	-1.000000	-1.000000	-1.000000	60.000000	0.000000	-1.000000	-1.000000	567829.000000	1775766009.704590
1221.975000	-36243.225000	44777.610000	36389.835000	51063.120000	16475.985000	-22951.845000	-50883.885000	4.869570	4.547712	2.561530	-1.742503	3.999779	26.675383	4.120331	5.066613	-2.502640	-1.037680	-0.991900	-0.872312	-0.205810	0.432372	-1.000000	-1.000000	-1.000000	-1.000000	-1.000000	-1.000000	-1.000000	60.000000	0.000000	-1.000000	-1.000000	567830.000000	1775766009.717156
1219.185000	-36246.240000	44778.555000	36379.620000	51068.160000	16519.545000	-22949.820000	-50887.395000	2.814878	3.112201	0.887920	-2.714835	4.258939	29.948218	4.232969	3.929880	-2.502640	-1.037680	-0.991900	-0.872312	-0.205810	0.432372	-1.000000	-1.000000	-1.000000	-1.000000	-1.000000	-1.000000	-1.000000	60.000000	0.000000	-1.000000	-1.000000	567831.000000	1775766009.717180
1219.095000	-36249.075000	44783.325000	36387.360000	51072.435000	16525.845000	-22954.365000	-50885.775000	-1.012728	-0.421924	-0.637726	-1.466325	4.460217	26.051698	2.608682	0.894478	-2.502640	-1.037680	-0.991900	-0.872312	-0.205810	0.432372	-1.000000	-1.000000	-1.000000	-1.000000	-1.000000	-1.000000	-1.000000	60.000000	0.000000	-1.000000	-1.000000	567832.000000	1775766009.717207
1216.620000	-36249.615000	44787.330000	36398.835000	51061.410000	16429.185000	-22960.350000	-50884.920000	-4.403410	-3.893676	-0.878786	1.247075	4.283049	16.217829	0.130184	-2.004815	-2.502640	-1.037680	-0.991900	-0.872312	-0.205810	0.432372	-1.000000	-1.000000	-1.000000	-1.000000	-1.000000	-1.000000	-1.000000	60.000000	0.000000	-1.000000	-1.000000	567833.000000	1775766009.717219
1217.970000	-36247.590000	44788.545000	36397.485000	51061.545000	16406.010000	-22957.470000	-50884.605000	-5.542067	-5.218002	0.165652	4.501219	2.581119	-2.515734	-2.339089	-3.132661	-2.502640	-1.037680	-0.991900	-0.872312	-0.205810	0.432372	-1.000000	-1.000000	-1.000000	-1.000000	-1.000000	-1.000000	-1.000000	60.000000	0.000000	-1.000000	-1.000000	567834.000000	1775766009.717233
1221.255000	-36243.765000	44790.705000	36394.515000	51064.560000	16491.195000	-22951.440000	-50882.580000	-4.036177	-3.697778	1.402574	6.467713	-0.537191	-23.960911	-3.525582	-2.327663	-2.502640	-1.037680	-0.991900	-0.872312	-0.205810	0.432372	-1.000000	-1.000000	-1.000000	-1.000000	-1.000000	-1.000000	-1.000000	60.000000	0.000000	-1.000000	-1.000000	567835.000000	1775766009.717244
1217.430000	-36246.780000	44789.400000	36397.395000	51070.770000	16510.455000	-22946.895000	-50883.435000	-0.865416	-0.346257	1.692275	5.423520	-3.124075	-30.897908	-2.459815	-0.557645	-2.502640	-1.037680	-0.991900	-0.872312	-0.205810	0.432372	-1.000000	-1.000000	-1.000000	-1.000000	-1.000000	-1.000000	-1.000000	60.000000	0.000000	-1.000000	-1.000000	567836.000000	1775766009.725939
1220.400000	-36246.105000	44784.270000	36398.745000	51067.845000	16473.105000	-22950.360000	-50880.330000	2.198889	2.763466	0.603141	1.824726	-3.571673	-17.079240	0.166238	1.011939	-2.502640	-1.037680	-0.991900	-0.872312	-0.205810	0.432372	-1.000000	-1.000000	-1.000000	-1.000000	-1.000000	-1.000000	-1.000000	60.000000	0.000000	-1.000000	-1.000000	567837.000000	1775766009.725965
1222.335000	-36245.700000	44784.045000	36395.235000	51064.020000	16454.430000	-22953.870000	-50880.195000	3.848279	4.039656	-1.447158	-2.244536	-2.370726	2.954423	2.225482	1.725406	-2.502640	-1.037680	-0.991900	-0.872312	-0.205810	0.432372	-1.000000	-1.000000	-1.000000	-1.000000	-1.000000	-1.000000	-1.000000	60.000000	0.000000	-1.000000	-1.000000	567838.000000	1775766009.725994
1219.320000	-36250.920000	44779.680000	36392.940000	51069.825000	16489.035000	-22951.440000	-50880.690000	3.845349	3.262288	-3.342923	-5.092497	-1.022618	13.331018	2.208812	1.506495	-2.502640	-1.037680	-0.991900	-0.872312	-0.205810	0.432372	-1.000000	-1.000000	-1.000000	-1.000000	-1.000000	-1.000000	-1.000000	60.000000	0.000000	-1.000000	-1.000000	567839.000000	1775766009.726005
1210.545000	-36260.955000	44769.600000	36385.560000	51067.035000	16536.960000	-22953.870000	-50891.760000	2.342926	0.978310	-4.156968	-6.165562	-0.173456	13.600118	0.572111	0.392228	-2.517900	-2.090620	-0.717220	-0.870115	-0.207641	0.436766	-1.000000	-1.000000	-1.000000	-1.000000	-1.000000	-1.000000	-1.000000	60.000000	0.000000	-1.000000	-1.000000	567840.000000	1775766009.735899
1214.775000	-36256.050000	44776.980000	36394.200000	51073.605000	16506.630000	-22963.230000	-50895.585000	-0.165253	-1.800057	-3.629808	-5.453940	0.370243	11.089488	-1.389285	-1.526070	-2.517900	-2.090620	-0.717220	-0.870115	-0.207641	0.436766	-1.000000	-1.000000	-1.000000	-1.000000	-1.000000	-1.000000	-1.000000	60.000000	0.000000	-1.000000	-1.000000	567841.000000	1775766009.735925
1221.345000	-36243.585000	44790.075000	36405.405000	51081.525000	16479.990000	-22970.250000	-50900.040000	-2.175794	-3.174014	-1.363147	-2.750588	0.993071	6.817871	-3.000679	-3.482408	-2.517900	-2.090620	-0.717220	-0.870115	-0.207641	0.436766	-1.000000	-1.000000	-1.000000	-1.000000	-1.000000	-1.000000	-1.000000	60.000000	0.000000	-1.000000	-1.000000	567842.000000	1775766009.735953
1218.960000	-36243.090000	44790.210000	36404.955000	51081.795000	16456.995000	-22959.945000	-50901.345000	-2.213180	-1.653234	2.655555	1.591529	1.839642	-2.494531	-3.649866	-4.139969	-2.517900	-2.090620	-0.717220	-0.870115	-0.207641	0.436766	-1.000000	-1.000000	-1.000000	-1.000000	-1.000000	-1.000000	-1.000000	60.000000	0.000000	-1.000000	-1.000000	567843.000000	1775766009.735965
1215.720000	-36244.215000	44789.265000	36402.030000	51075.000000	16428.420000	-22943.745000	-50890.680000	-0.707300	1.638979	6.463824	5.425053	2.137672	-14.989103	-2.011657	-2.538167	-2.517900	-2.090620	-0.717220	-0.870115	-0.207641	0.436766	-1.000000	-1.000000	-1.000000	-1.000000	-1.000000	-1.000000	-1.000000	60.000000	0.000000	-1.000000	-1.000000	567844.000000	1775766009.735980
1208.520000	-36253.710000	44779.185000	36390.330000	51067.665000	16476.300000	-22949.325000	-50882.670000	0.489811	3.664632	7.162982	6.027061	0.731366	-22.685480	2.133535	1.289252	-2.517900	-2.090620	-0.717220	-0.870115	-0.207641	0.436766	-1.000000	-1.000000	-1.000000	-1.000000	-1.000000	-1.000000	-1.000000	60.000000	0.000000	-1.000000	-1.000000	567845.000000	1775766009.735991
1214.235000	-36253.665000	44779.005000	36387.495000	51076.575000	16555.860000	-22940.280000	-50868.945000	0.360749	2.539631	3.772338	2.699638	-2.029952	-16.410053	6.245661	6.007650	-2.517900	-2.090620	-0.717220	-0.870115	-0.207641	0.436766	-1.000000	-1.000000	-1.000000	-1.000000	-1.000000	-1.000000	-1.000000	60.000000	0.000000	-1.000000	-1.000000	567846.000000	1775766009.738855
1218.825000	-36257.895000	44774.280000	36383.625000	51073.605000	16559.235000	-22937.850000	-50869.575000	-0.228965	-0.787203	-1.689473	-2.349245	-3.990843	4.999709	7.420059	9.229090	-2.517900	-2.090620	-0.717220	-0.870115	-0.207641	0.436766	-1.000000	-1.000000	-1.000000	-1.000000	-1.000000	-1.000000	-1.000000	60.000000	0.000000	-1.000000	-1.000000	567847.000000	1775766009.738881
1218.330000	-36262.890000	44768.430000	36381.015000	51068.835000	16512.660000	-22946.985000	-50879.160000	0.010862	-3.857501	-6.035152	-5.801145	-3.699468	27.278634	4.905760	8.495713	-2.517900	-2.090620	-0.717220	-0.870115	-0.207641	0.436766	-1.000000	-1.000000	-1.000000	-1.000000	-1.000000	-1.000000	-1.000000	60.000000	0.000000	-1.000000	-1.000000	567848.000000	1775766009.743690
1217.700000	-36263.655000	44767.710000	36379.845000	51061.860000	16465.995000	-22953.420000	-50882.355000	0.953101	-4.924322	-7.319567	-5.797182	-1.978833	30.744694	-0.348875	3.022143	-2.517900	-2.090620	-0.717220	-0.870115	-0.207641	0.436766	-1.000000	-1.000000	-1.000000	-1.000000	-1.000000	-1.000000	-1.000000	60.000000	0.000000	-1.000000	-1.000000	567849.000000	1775766009.743712
1217.565000	-36260.145000	44772.885000	36384.255000	51070.095000	16504.155000	-22946.625000	-50880.735000	1.488340	-3.548277	-5.282307	-2.677849	-0.187462	11.477228	-6.003518	-4.728656	-0.976640	-4.333840	-0.946120	-0.869444	-0.208679	0.440306	-1.000000	-1.000000	-1.000000	-1.000000	-1.000000	-1.000000	-1.000000	60.000000	0.000000	-1.000000	-1.000000	567850.000000	1775766009.747443
1224.270000	-36251.415000	44783.370000	36394.695000	51078.285000	16543.170000	-22942.170000	-50874.435000	1.148213	-0.191156	-0.721469	2.015895	1.625308	-13.115008	-8.787754	-10.239303	-0.976640	-4.333840	-0.946120	-0.869444	-0.208679	0.440306	-1.000000	-1.000000	-1.000000	-1.000000	-1.000000	-1.000000	-1.000000	60.000000	0.000000	-1.000000	-1.000000	567851.000000	1775766009.747460
1229.895000	-36247.230000	44789.580000	36403.605000	51077.610000	16516.485000	-22943.655000	-50866.470000	0.557835	3.908633	4.685947	6.522220	3.750155	-23.750324	-7.061672	-10.347355	-0.976640	-4.333840	-0.946120	-0.869444	-0.208679	0.440306	-1.000000	-1.000000	-1.000000	-1.000000	-1.000000	-1.000000	-1.000000	60.000000	0.000000	-1.000000	-1.000000	567852.000000	1775766009.755654
1225.665000	-36249.930000	44786.475000	36402.030000	51075.270000	16501.680000	-22950.270000	-50873.580000	0.273946	6.763496	8.434673	8.990507	5.158220	-18.582098	-2.543020	-5.624593	-0.976640	-4.333840	-0.946120	-0.869444	-0.208679	0.440306	-1.000000	-1.000000	-1.000000	-1.000000	-1.000000	-1.000000	-1.000000	60.000000	0.000000	-1.000000	-1.000000	567853.000000	1775766009.755675
1222.380000	-36253.845000	44782.020000	36396.630000	51083.955000	16521.255000	-22943.520000	-50874.075000	-0.183094	6.477610	8.196893	7.739356	4.558238	-7.791084	1.642315	0.243447	-0.976640	-4.333840	-0.946120	-0.869444	-0.208679	0.440306	-1.000000	-1.000000	-1.000000	-1.000000	-1.000000	-1.000000	-1.000000	60.000000	0.000000	-1.000000	-1.000000	567854.000000	1775766009.755698
1223.910000	-36251.550000	44780.085000	36387.765000	51083.955000	16514.415000	-22947.165000	-50874.030000	-1.343137	2.906119	3.714973	2.506081	2.269508	1.347464	3.856785	3.802263	-0.976640	-4.333840	-0.946120	-0.869444	-0.208679	0.440306	-1.000000	-1.000000	-1.000000	-1.000000	-1.000000	-1.000000	-1.000000	60.000000	0.000000	-1.000000	-1.000000	567855.000000	1775766009.755709
1223.235000	-36251.145000	44782.110000	36386.910000	51079.500000	16543.305000	-22954.770000	-50876.865000	-2.607965	-1.839959	-2.505835	-4.575665	-0.516977	7.334309	3.987242	4.248104	-0.976640	-4.333840	-0.946120	-0.869444	-0.208679	0.440306	-1.000000	-1.000000	-1.000000	-1.000000	-1.000000	-1.000000	-1.000000	60.000000	0.000000	-1.000000	-1.000000	567856.000000	1775766009.767840
1227.105000	-36246.015000	44789.985000	36397.620000	51087.735000	16589.385000	-22955.670000	-50874.930000	-2.884140	-5.042702	-6.826767	-9.642755	-2.926675	11.488876	2.396477	2.768338	-0.976640	-4.333840	-0.946120	-0.869444	-0.208679	0.440306	-1.000000	-1.000000	-1.000000	-1.000000	-1.000000	-1.000000	-1.000000	60.000000	0.000000	-1.000000	-1.000000	567857.000000	1775766009.767866
1227.465000	-36245.520000	44790.795000	36398.565000	51081.975000	16525.305000	-22957.020000	-50876.820000	-1.747947	-5.343816	-7.066497	-9.618085	-4.213230	13.812030	0.153896	0.975766	-0.976640	-4.333840	-0.946120	-0.869444	-0.208679	0.440306	-1.000000	-1.000000	-1.000000	-1.000000	-1.000000	-1.000000	-1.000000	60.000000	0.000000	-1.000000	-1.000000	567858.000000	1775766009.767892
1226.880000	-36245.745000	44790.660000	36399.240000	51073.830000	16404.390000	-22955.760000	-50877.495000	0.179455	-3.364767	-3.975294	-4.901055	-4.281276	7.758657	-1.247040	-0.122961	-0.976640	-4.333840	-0.946120	-0.869444	-0.208679	0.440306	-1.000000	-1.000000	-1.000000	-1.000000	-1.000000	-1.000000	-1.000000	60.000000	0.000000	-1.000000	-1.000000	567859.000000	1775766009.767905
1227.105000	-36247.680000	44791.515000	36401.355000	51085.035000	16467.795000	-22952.070000	-50875.155000	1.739382	-0.880620	-0.186509	1.102408	-3.617088	-10.220020	-0.999961	-0.352984	-4.486440	-3.891300	-0.350980	-0.871885	-0.206665	0.434752	-1.000000	-1.000000	-1.000000	-1.000000	-1.000000	-1.000000	-1.000000	60.000000	0.000000	-1.000000	-1.000000	567860.000000	1775766009.767919
1224.360000	-36249.120000	44789.985000	36399.915000	51083.100000	16481.475000	-22956.975000	-50877.270000	2.150322	0.637889	2.126536	5.064374	-2.065500	-26.393009	0.460159	0.023345	-4.486440	-3.891300	-0.350980	-0.871885	-0.206665	0.434752	-1.000000	-1.000000	-1.000000	-1.000000	-1.000000	-1.000000	-1.000000	60.000000	0.000000	-1.000000	-1.000000	567861.000000	1775766009.767930
1223.955000	-36248.445000	44793.720000	36405.225000	51088.050000	16488.855000	-22958.235000	-50878.620000	1.416845	0.888197	2.445772	5.757008	0.459687	-23.437296	1.748523	0.487791	-4.486440	-3.891300	-0.350980	-0.871885	-0.206665	0.434752	-1.000000	-1.000000	-1.000000	-1.000000	-1.000000	-1.000000	-1.000000	60.000000	0.000000	-1.000000	-1.000000	567862.000000	1775766009.781510
1224.405000	-36246.330000	44796.420000	36406.215000	51082.830000	16477.830000	-22957.065000	-50881.095000	0.192439	0.559462	1.622733	4.025828	2.880042	-2.804954	1.817431	0.515849	-4.486440	-3.891300	-0.350980	-0.871885	-0.206665	0.434752	-1.000000	-1.000000	-1.000000	-1.000000	-1.000000	-1.000000	-1.000000	60.000000	0.000000	-1.000000	-1.000000	567863.000000	1775766009.781536
1224.900000	-36251.640000	44787.015000	36397.845000	51073.695000	16480.080000	-22958.010000	-50880.510000	-0.667228	0.367924	0.590637	1.317359	3.628224	19.334546	0.884015	0.056857	-4.486440	-3.891300	-0.350980	-0.871885	-0.206665	0.434752	-1.000000	-1.000000	-1.000000	-1.000000	-1.000000	-1.000000	-1.000000	60.000000	0.000000	-1.000000	-1.000000	567864.000000	1775766009.781562
1228.905000	-36252.090000	44784.945000	36396.135000	51075.540000	16489.305000	-22958.190000	-50877.765000	-0.658365	0.322851	-0.576675	-1.532710	2.097199	29.651105	-0.226346	-0.383338	-4.486440	-3.891300	-0.350980	-0.871885	-0.206665	0.434752	-1.000000	-1.000000	-1.000000	-1.000000	-1.000000	-1.000000	-1.000000	60.000000	0.000000	-1.000000	-1.000000	567865.000000	1775766009.781574
1235.970000	-36249.660000	44785.170000	36394.695000	51072.345000	16489.485000	-22948.110000	-50869.350000	0.246706	0.252448	-1.789795	-3.790149	-0.456984	25.743350	-0.771984	-0.125811	-4.486440	-3.891300	-0.350980	-0.871885	-0.206665	0.434752	-1.000000	-1.000000	-1.000000	-1.000000	-1.000000	-1.000000	-1.000000	60.000000	0.000000	-1.000000	-1.000000	567866.000000	1775766009.781589
1236.195000	-36250.740000	44785.170000	36398.835000	51073.155000	16491.510000	-22951.575000	-50868.630000	1.591561	0.352901	-2.226971	-4.385458	-2.063775	12.915772	-0.367299	0.992958	-4.486440	-3.891300	-0.350980	-0.871885	-0.206665	0.434752	-1.000000	-1.000000	-1.000000	-1.000000	-1.000000	-1.000000	-1.000000	60.000000	0.000000	-1.000000	-1.000000	567867.000000	1775766009.781600
1237.185000	-36252.045000	44785.980000	36406.980000	51077.025000	16463.745000	-22951.080000	-50867.055000	2.387354	0.664880	-1.303022	-2.654347	-1.751932	-2.203223	0.416978	2.135734	-4.486440	-3.891300	-0.350980	-0.871885	-0.206665	0.434752	-1.000000	-1.000000	-1.000000	-1.000000	-1.000000	-1.000000	-1.000000	60.000000	0.000000	-1.000000	-1.000000	567868.000000	1775766009.801552
1237.095000	-36249.255000	44794.980000	36419.355000	51075.810000	16404.930000	-22958.730000	-50868.000000	1.795179	0.896193	0.717917	1.016277	0.100222	-15.885547	0.397690	2.118597	-4.486440	-3.891300	-0.350980	-0.871885	-0.206665	0.434752	-1.000000	-1.000000	-1.000000	-1.000000	-1.000000	-1.000000	-1.000000	60.000000	0.000000	-1.000000	-1.000000	567869.000000	1775766009.801580
1236.645000	-36247.230000	44796.330000	36420.030000	51073.650000	16450.110000	-22965.345000	-50873.805000	-0.040652	0.961143	3.066045	5.003345	2.102622	-25.379138	-0.984623	0.503030	-5.783540	-2.105880	-0.061040	-0.869260	-0.206665	0.429137	-1.000000	-1.000000	-1.000000	-1.000000	-1.000000	-1.000000	-1.000000	60.000000	0.000000	-1.000000	-1.000000	567870.000000	1775766009.801605
1235.160000	-36245.970000	44781.660000	36385.155000	51062.805000	16513.470000	-22946.895000	-50871.330000	-2.166836	0.969515	4.301295	6.266747	2.643545	-23.898293	-2.685838	-2.039134	-5.783540	-2.105880	-0.061040	-0.869260	-0.206665	0.429137	-1.000000	-1.000000	-1.000000	-1.000000	-1.000000	-1.000000	-1.000000	60.000000	0.000000	-1.000000	-1.000000	567871.000000	1775766009.801614
1233.900000	-36247.725000	44779.095000	36379.170000	51066.000000	16538.715000	-22943.565000	-50868.540000	-3.574925	0.802931	2.854069	2.194887	1.186320	-6.758871	-2.479841	-3.947292	-5.783540	-2.105880	-0.061040	-0.869260	-0.206665	0.429137	-1.000000	-1.000000	-1.000000	-1.000000	-1.000000	-1.000000	-1.000000	60.000000	0.000000	-1.000000	-1.000000	567872.000000	1775766009.801626
