Channel1	Channel2	Channel3	Channel4	Channel5	Channel6	Channel7	Channel8	FilteredChannel1	FilteredChannel2	FilteredChannel3	FilteredChannel4	FilteredChannel5	FilteredChannel6	FilteredChannel7	FilteredChannel8	GyroX	GyroY	GyroZ	AccX	AccY	AccZ	PPG1	PPG2	rawPPG1	rawPPG2	rawPPG3	Hr	Hrv	Battery	Trigger	PhysicalTrigger	AutoTrigger	NumMeasurements	Timestamp
-16427.835000	-27630.315000	37511.280000	28838.790000	43813.575000	13840.335000	-1641.555000	-52640.865000	2.366647	0.270734	-1.281053	-1.567235	-3.123625	-14.198043	-2.215580	2.553937	-0.640920	2.990960	-0.961380	-0.741148	-0.162902	0.638365	-1.000000	-1.000000	-1.000000	-1.000000	-1.000000	-1.000000	-1.000000	61.000000	0.000000	-1.000000	-1.000000	440411.000000	1775765754.726321
-16435.620000	-27625.545000	37517.850000	28843.335000	43817.355000	13839.165000	-1633.320000	-52632.495000	-2.147321	0.770584	0.661591	0.857077	-0.273041	-11.760166	-0.204439	-6.160636	-0.640920	2.990960	-0.961380	-0.741148	-0.162902	0.638365	-1.000000	-1.000000	-1.000000	-1.000000	-1.000000	-1.000000	-1.000000	61.000000	0.000000	-1.000000	-1.000000	440412.000000	1775765754.726337
-16437.240000	-27621.405000	37525.140000	28852.785000	43827.345000	13841.685000	-1628.955000	-52617.960000	-5.767893	2.424497	3.651445	3.971113	3.447958	-5.363560	2.949975	-10.709539	-0.640920	2.990960	-0.961380	-0.741148	-0.162902	0.638365	-1.000000	-1.000000	-1.000000	-1.000000	-1.000000	-1.000000	-1.000000	61.000000	0.000000	-1.000000	-1.000000	440413.000000	1775765754.737101
-16422.615000	-27621.090000	37525.095000	28855.575000	43830.945000	13840.020000	-1630.530000	-52592.130000	-6.485473	3.711931	5.646474	5.925030	6.188513	1.033258	5.791703	-7.022502	-0.640920	2.990960	-0.961380	-0.741148	-0.162902	0.638365	-1.000000	-1.000000	-1.000000	-1.000000	-1.000000	-1.000000	-1.000000	61.000000	0.000000	-1.000000	-1.000000	440414.000000	1775765754.737150
-16411.725000	-27630.765000	37513.080000	28840.320000	43814.340000	13836.420000	-1636.965000	-52579.845000	-3.074102	3.074081	4.787871	5.174444	6.269068	4.691981	6.269723	3.186724	-0.640920	2.990960	-0.961380	-0.741148	-0.162902	0.638365	-1.000000	-1.000000	-1.000000	-1.000000	-1.000000	-1.000000	-1.000000	61.000000	0.000000	-1.000000	-1.000000	440415.000000	1775765754.739854
-16420.365000	-27637.830000	37506.555000	28832.580000	43809.885000	13852.530000	-1639.080000	-52592.715000	2.888774	-0.035839	0.553341	0.995930	2.635584	5.174240	3.486330	12.855025	-0.640920	2.990960	-0.961380	-0.741148	-0.162902	0.638365	-1.000000	-1.000000	-1.000000	-1.000000	-1.000000	-1.000000	-1.000000	61.000000	0.000000	-1.000000	-1.000000	440416.000000	1775765754.739882
-16429.140000	-27642.105000	37505.745000	28832.445000	43811.820000	13855.005000	-1629.405000	-52598.115000	7.011027	-4.382235	-5.156736	-5.024275	-3.269380	4.138221	-0.965850	14.497313	-0.640920	2.990960	-0.961380	-0.741148	-0.162902	0.638365	-1.000000	-1.000000	-1.000000	-1.000000	-1.000000	-1.000000	-1.000000	61.000000	0.000000	-1.000000	-1.000000	440417.000000	1775765754.739910
-16429.005000	-27637.605000	37512.855000	28840.590000	43820.460000	13857.705000	-1630.890000	-52599.105000	6.075094	-7.290921	-8.689486	-9.005184	-7.495818	3.063065	-4.107504	6.552428	-0.640920	2.990960	-0.961380	-0.741148	-0.162902	0.638365	-1.000000	-1.000000	-1.000000	-1.000000	-1.000000	-1.000000	-1.000000	61.000000	0.000000	-1.000000	-1.000000	440418.000000	1775765754.739922
-16431.300000	-27641.070000	37510.380000	28838.835000	43819.245000	13844.745000	-1634.715000	-52600.905000	1.272056	-6.638448	-7.559736	-7.998113	-7.104244	1.558315	-4.524597	-5.429423	-1.495480	3.418240	-1.312360	-0.741209	-0.160949	0.638365	-1.000000	-1.000000	-1.000000	-1.000000	-1.000000	-1.000000	-1.000000	61.000000	0.000000	-1.000000	-1.000000	440419.000000	1775765754.748666
-16431.885000	-27643.545000	37507.455000	28834.110000	43812.720000	13837.185000	-1633.545000	-52600.455000	-3.596850	-2.806326	-2.743348	-2.912105	-3.020997	-1.414196	-3.204208	-14.073209	-1.495480	3.418240	-1.312360	-0.741209	-0.160949	0.638365	-1.000000	-1.000000	-1.000000	-1.000000	-1.000000	-1.000000	-1.000000	61.000000	0.000000	-1.000000	-1.000000	440420.000000	1775765754.748692
-16429.635000	-27642.240000	37508.760000	28833.570000	43810.785000	13834.890000	-1632.285000	-52598.115000	-5.644602	1.823724	2.486415	2.590152	1.266922	-5.316763	-1.524618	-15.385973	-1.495480	3.418240	-1.312360	-0.741209	-0.160949	0.638365	-1.000000	-1.000000	-1.000000	-1.000000	-1.000000	-1.000000	-1.000000	61.000000	0.000000	-1.000000	-1.000000	440421.000000	1775765754.748715
-16432.695000	-27649.980000	37499.085000	28822.680000	43801.020000	13828.995000	-1640.925000	-52599.105000	-4.381446	4.947591	5.412599	5.437419	3.124264	-7.846863	-0.208815	-10.039787	-1.495480	3.418240	-1.312360	-0.741209	-0.160949	0.638365	-1.000000	-1.000000	-1.000000	-1.000000	-1.000000	-1.000000	-1.000000	61.000000	0.000000	-1.000000	-1.000000	440422.000000	1775765754.748725
-16429.230000	-27648.090000	37499.985000	28823.940000	43807.590000	13847.265000	-1645.650000	-52601.220000	-1.253187	5.509210	5.196148	4.896140	2.457233	-6.807501	0.212670	-1.841759	-1.495480	3.418240	-1.312360	-0.741209	-0.160949	0.638365	-1.000000	-1.000000	-1.000000	-1.000000	-1.000000	-1.000000	-1.000000	61.000000	0.000000	-1.000000	-1.000000	440423.000000	1775765754.751789
-16422.660000	-27640.350000	37508.850000	28834.920000	43819.830000	13851.900000	-1649.655000	-52595.595000	1.946470	4.143462	3.071301	2.655478	1.312371	-1.697160	-0.307384	5.111145	-1.495480	3.418240	-1.312360	-0.741209	-0.160949	0.638365	-1.000000	-1.000000	-1.000000	-1.000000	-1.000000	-1.000000	-1.000000	61.000000	0.000000	-1.000000	-1.000000	440424.000000	1775765754.751816
-16413.345000	-27627.615000	37526.130000	28853.235000	43835.175000	13840.785000	-1648.845000	-52585.065000	4.286431	2.737717	1.607674	1.606234	1.976262	5.029305	-0.892903	8.875093	-1.495480	3.418240	-1.312360	-0.741209	-0.160949	0.638365	-1.000000	-1.000000	-1.000000	-1.000000	-1.000000	-1.000000	-1.000000	61.000000	0.000000	-1.000000	-1.000000	440425.000000	1775765754.758828
-16417.980000	-27627.165000	37529.370000	28857.915000	43836.390000	13835.160000	-1653.840000	-52590.735000	5.258026	2.455213	2.281458	3.050434	4.437086	8.784252	-0.576615	9.493334	-1.495480	3.418240	-1.312360	-0.741209	-0.160949	0.638365	-1.000000	-1.000000	-1.000000	-1.000000	-1.000000	-1.000000	-1.000000	61.000000	0.000000	-1.000000	-1.000000	440426.000000	1775765754.758853
-16434.495000	-27642.375000	37515.285000	28841.940000	43820.685000	13848.660000	-1643.985000	-52601.535000	3.858055	2.124720	3.438716	4.763191	5.759460	7.372836	0.835600	7.097411	-1.495480	3.418240	-1.312360	-0.741209	-0.160949	0.638365	-1.000000	-1.000000	-1.000000	-1.000000	-1.000000	-1.000000	-1.000000	61.000000	0.000000	-1.000000	-1.000000	440427.000000	1775765754.760486
-16439.490000	-27648.540000	37509.120000	28832.445000	43809.075000	13837.320000	-1638.315000	-52606.395000	-0.458509	-0.387599	1.901101	2.997665	2.778058	2.975837	3.011072	1.959932	-1.495480	3.418240	-1.312360	-0.741209	-0.160949	0.638365	-1.000000	-1.000000	-1.000000	-1.000000	-1.000000	-1.000000	-1.000000	61.000000	0.000000	-1.000000	-1.000000	440428.000000	1775765754.760506
-16440.165000	-27646.515000	37513.305000	28836.000000	43812.585000	13832.730000	-1642.320000	-52612.650000	-5.760707	-4.807060	-2.762267	-2.757585	-3.923727	-1.463696	5.018976	-4.013694	-1.571780	2.685760	-2.151660	-0.742430	-0.160644	0.638182	-1.000000	-1.000000	-1.000000	-1.000000	-1.000000	-1.000000	-1.000000	61.000000	0.000000	-1.000000	-1.000000	440429.000000	1775765754.763644
-16445.970000	-27653.040000	37509.615000	28835.550000	43815.735000	13841.010000	-1641.105000	-52610.265000	-8.567872	-8.119343	-7.285184	-8.521424	-9.658122	-4.422347	5.270144	-7.823406	-1.571780	2.685760	-2.151660	-0.742430	-0.160644	0.638182	-1.000000	-1.000000	-1.000000	-1.000000	-1.000000	-1.000000	-1.000000	61.000000	0.000000	-1.000000	-1.000000	440430.000000	1775765754.763665
-16448.580000	-27660.015000	37504.755000	28835.370000	43823.205000	13864.635000	-1630.710000	-52601.040000	-7.159577	-8.060176	-8.543072	-10.091613	-10.036431	-4.447507	3.227548	-7.321806	-1.571780	2.685760	-2.151660	-0.742430	-0.160644	0.638182	-1.000000	-1.000000	-1.000000	-1.000000	-1.000000	-1.000000	-1.000000	61.000000	0.000000	-1.000000	-1.000000	440431.000000	1775765754.767646
-16456.140000	-27676.530000	37483.920000	28810.395000	43797.960000	13851.720000	-1646.595000	-52603.920000	-2.740719	-5.246789	-6.606471	-7.238426	-5.293444	-1.135707	-0.005050	-2.731420	-1.571780	2.685760	-2.151660	-0.742430	-0.160644	0.638182	-1.000000	-1.000000	-1.000000	-1.000000	-1.000000	-1.000000	-1.000000	61.000000	0.000000	-1.000000	-1.000000	440432.000000	1775765754.767672
-16445.070000	-27666.945000	37491.570000	28817.415000	43806.645000	13865.400000	-1643.130000	-52607.610000	2.336243	-1.528774	-3.463079	-2.914106	0.393307	2.889509	-3.360337	2.986113	-1.571780	2.685760	-2.151660	-0.742430	-0.160644	0.638182	-1.000000	-1.000000	-1.000000	-1.000000	-1.000000	-1.000000	-1.000000	61.000000	0.000000	-1.000000	-1.000000	440433.000000	1775765754.771644
-16408.530000	-27625.680000	37533.825000	28858.005000	43842.015000	13859.280000	-1621.935000	-52586.640000	7.122084	3.085017	0.743220	1.626485	4.561123	4.407148	-5.487849	6.629715	-1.571780	2.685760	-2.151660	-0.742430	-0.160644	0.638182	-1.000000	-1.000000	-1.000000	-1.000000	-1.000000	-1.000000	-1.000000	61.000000	0.000000	-1.000000	-1.000000	440434.000000	1775765754.771669
-16418.925000	-27637.065000	37523.295000	28845.135000	43821.585000	13804.110000	-1639.665000	-52591.590000	11.460667	9.290699	7.097344	7.339067	7.904743	1.599969	-4.835496	7.430611	-1.571780	2.685760	-2.151660	-0.742430	-0.160644	0.638182	-1.000000	-1.000000	-1.000000	-1.000000	-1.000000	-1.000000	-1.000000	61.000000	0.000000	-1.000000	-1.000000	440435.000000	1775765754.775454
-16431.210000	-27651.195000	37509.480000	28831.140000	43808.805000	13840.605000	-1659.105000	-52602.840000	12.647885	13.770949	12.611934	11.886565	9.114080	-5.082844	-2.751115	5.593811	-1.571780	2.685760	-2.151660	-0.742430	-0.160644	0.638182	-1.000000	-1.000000	-1.000000	-1.000000	-1.000000	-1.000000	-1.000000	61.000000	0.000000	-1.000000	-1.000000	440436.000000	1775765754.775478
-16438.545000	-27657.900000	37503.855000	28826.685000	43804.620000	13837.995000	-1668.870000	-52607.160000	7.324040	11.304302	11.742875	10.520492	5.463684	-10.303258	-2.406458	1.047493	-1.571780	2.685760	-2.151660	-0.742430	-0.160644	0.638182	-1.000000	-1.000000	-1.000000	-1.000000	-1.000000	-1.000000	-1.000000	61.000000	0.000000	-1.000000	-1.000000	440437.000000	1775765754.781171
-16448.670000	-27659.430000	37504.980000	28830.780000	43814.295000	13847.445000	-1655.955000	-52615.395000	-3.135875	2.034042	3.945938	3.177720	-1.454744	-8.310424	-3.658562	-4.796347	-1.571780	2.685760	-2.151660	-0.742430	-0.160644	0.638182	-1.000000	-1.000000	-1.000000	-1.000000	-1.000000	-1.000000	-1.000000	61.000000	0.000000	-1.000000	-1.000000	440438.000000	1775765754.781200
-16443.630000	-27650.970000	37514.205000	28840.320000	43823.880000	13838.580000	-1627.740000	-52609.230000	-12.867238	-7.962169	-5.234877	-4.769517	-6.380162	-0.330523	-2.576129	-8.873173	-1.480220	2.426340	-2.517900	-0.745054	-0.163086	0.637755	-1.000000	-1.000000	-1.000000	-1.000000	-1.000000	-1.000000	-1.000000	61.000000	0.000000	-1.000000	-1.000000	440439.000000	1775765754.783627
-16442.145000	-27654.930000	37510.245000	28837.530000	43822.980000	13839.705000	-1622.295000	-52607.700000	-16.227875	-12.592662	-9.967661	-8.263532	-6.074895	7.456279	3.300011	-8.642150	-1.480220	2.426340	-2.517900	-0.745054	-0.163086	0.637755	-1.000000	-1.000000	-1.000000	-1.000000	-1.000000	-1.000000	-1.000000	61.000000	0.000000	-1.000000	-1.000000	440440.000000	1775765754.783647
-16442.055000	-27656.595000	37507.455000	28835.730000	43820.100000	13847.580000	-1627.830000	-52602.885000	-11.752049	-10.520812	-8.914285	-6.749893	-2.145465	10.520235	10.650002	-4.053965	-1.480220	2.426340	-2.517900	-0.745054	-0.163086	0.637755	-1.000000	-1.000000	-1.000000	-1.000000	-1.000000	-1.000000	-1.000000	61.000000	0.000000	-1.000000	-1.000000	440441.000000	1775765754.787851
-16432.110000	-27649.530000	37514.385000	28840.770000	43820.145000	13853.070000	-1633.860000	-52593.660000	-2.571417	-4.599078	-4.570642	-2.983997	1.490212	8.840702	13.079251	2.437851	-1.480220	2.426340	-2.517900	-0.745054	-0.163086	0.637755	-1.000000	-1.000000	-1.000000	-1.000000	-1.000000	-1.000000	-1.000000	61.000000	0.000000	-1.000000	-1.000000	440442.000000	1775765754.787874
-16436.340000	-27653.130000	37513.260000	28839.195000	43817.985000	13843.035000	-1648.665000	-52599.645000	6.424990	1.600237	0.197972	0.431692	2.513004	4.646707	7.611263	7.557226	-1.480220	2.426340	-2.517900	-0.745054	-0.163086	0.637755	-1.000000	-1.000000	-1.000000	-1.000000	-1.000000	-1.000000	-1.000000	61.000000	0.000000	-1.000000	-1.000000	440443.000000	1775765754.791647
-16444.125000	-27660.330000	37508.130000	28836.495000	43821.045000	13859.730000	-1659.465000	-52606.080000	11.109855	5.394960	3.441045	2.218910	1.280586	-0.119320	-2.999003	8.637885	-1.480220	2.426340	-2.517900	-0.745054	-0.163086	0.637755	-1.000000	-1.000000	-1.000000	-1.000000	-1.000000	-1.000000	-1.000000	61.000000	0.000000	-1.000000	-1.000000	440444.000000	1775765754.791668
-16446.015000	-27664.155000	37504.305000	28831.410000	43815.870000	13858.605000	-1656.045000	-52607.565000	9.780688	5.476080	4.029823	2.028274	-0.573214	-3.626992	-12.642887	5.101494	-1.480220	2.426340	-2.517900	-0.745054	-0.163086	0.637755	-1.000000	-1.000000	-1.000000	-1.000000	-1.000000	-1.000000	-1.000000	61.000000	0.000000	-1.000000	-1.000000	440445.000000	1775765754.796081
-16442.235000	-27662.490000	37506.870000	28831.815000	43811.955000	13848.885000	-1646.640000	-52597.530000	4.333808	2.768152	2.341317	0.457422	-1.885139	-5.018502	-15.560444	-0.505468	-1.480220	2.426340	-2.517900	-0.745054	-0.163086	0.637755	-1.000000	-1.000000	-1.000000	-1.000000	-1.000000	-1.000000	-1.000000	61.000000	0.000000	-1.000000	-1.000000	440446.000000	1775765754.796106
-16443.855000	-27660.195000	37511.145000	28837.035000	43818.390000	13851.630000	-1646.730000	-52605.090000	-1.258540	-0.163984	0.244738	-1.017080	-2.236421	-5.224106	-10.088944	-4.475332	-1.480220	2.426340	-2.517900	-0.745054	-0.163086	0.637755	-1.000000	-1.000000	-1.000000	-1.000000	-1.000000	-1.000000	-1.000000	61.000000	0.000000	-1.000000	-1.000000	440447.000000	1775765754.799601
-16442.955000	-27654.615000	37518.930000	28849.140000	43837.425000	13868.910000	-1640.295000	-52611.390000	-4.197651	-1.214660	-0.422305	-0.841216	-0.999601	-4.627199	0.105866	-5.417391	-1.480220	2.426340	-2.517900	-0.745054	-0.163086	0.637755	-1.000000	-1.000000	-1.000000	-1.000000	-1.000000	-1.000000	-1.000000	61.000000	0.000000	-1.000000	-1.000000	440448.000000	1775765754.799626
-16441.740000	-27655.920000	37517.805000	28847.070000	43834.770000	13860.585000	-1641.825000	-52605.585000	-4.148160	-0.191036	0.603127	1.211151	2.024426	-2.495271	9.079352	-4.352752	-2.777320	3.479280	-2.655240	-0.741331	-0.163452	0.638243	-1.000000	-1.000000	-1.000000	-1.000000	-1.000000	-1.000000	-1.000000	61.000000	0.000000	-1.000000	-1.000000	440449.000000	1775765754.806041
-16441.965000	-27658.305000	37516.095000	28843.785000	43828.335000	13858.965000	-1643.940000	-52599.060000	-2.300460	1.366629	1.859624	3.307869	4.809867	0.374455	12.589992	-2.125911	-2.777320	3.479280	-2.655240	-0.741331	-0.163452	0.638243	-1.000000	-1.000000	-1.000000	-1.000000	-1.000000	-1.000000	-1.000000	61.000000	0.000000	-1.000000	-1.000000	440450.000000	1775765754.806066
-16441.650000	-27661.275000	37515.150000	28843.425000	43827.930000	13863.420000	-1647.495000	-52595.010000	-0.191157	1.699350	1.699381	3.230897	4.515780	2.033411	9.864793	0.961317	-2.777320	3.479280	-2.655240	-0.741331	-0.163452	0.638243	-1.000000	-1.000000	-1.000000	-1.000000	-1.000000	-1.000000	-1.000000	61.000000	0.000000	-1.000000	-1.000000	440451.000000	1775765754.806657
-16445.970000	-27667.890000	37509.255000	28837.395000	43821.585000	13847.760000	-1655.685000	-52603.155000	1.023950	0.282886	-0.150840	0.688161	0.842772	1.765625	3.167752	3.696500	-2.777320	3.479280	-2.655240	-0.741331	-0.163452	0.638243	-1.000000	-1.000000	-1.000000	-1.000000	-1.000000	-1.000000	-1.000000	61.000000	0.000000	-1.000000	-1.000000	440452.000000	1775765754.806674
-16448.895000	-27671.130000	37505.160000	28831.635000	43814.700000	13838.580000	-1659.465000	-52614.765000	0.898310	-2.048977	-2.695143	-2.814086	-3.915430	-0.152815	-3.966369	4.060553	-2.777320	3.479280	-2.655240	-0.741331	-0.163452	0.638243	-1.000000	-1.000000	-1.000000	-1.000000	-1.000000	-1.000000	-1.000000	61.000000	0.000000	-1.000000	-1.000000	440453.000000	1775765754.811458
-16453.485000	-27672.300000	37505.205000	28829.970000	43810.470000	13838.445000	-1666.305000	-52620.750000	-0.239489	-3.801045	-4.495887	-5.391807	-7.168313	-2.706158	-8.509804	1.250347	-2.777320	3.479280	-2.655240	-0.741331	-0.163452	0.638243	-1.000000	-1.000000	-1.000000	-1.000000	-1.000000	-1.000000	-1.000000	61.000000	0.000000	-1.000000	-1.000000	440454.000000	1775765754.811478
-16454.385000	-27668.430000	37511.280000	28835.955000	43813.530000	13837.635000	-1673.280000	-52614.090000	-1.485176	-3.661586	-4.253983	-5.529475	-7.279008	-3.828633	-9.126478	-2.751595	-2.777320	3.479280	-2.655240	-0.741331	-0.163452	0.638243	-1.000000	-1.000000	-1.000000	-1.000000	-1.000000	-1.000000	-1.000000	61.000000	0.000000	-1.000000	-1.000000	440455.000000	1775765754.820214
-16453.845000	-27663.030000	37516.545000	28838.655000	43814.835000	13835.475000	-1675.440000	-52614.180000	-1.858626	-1.293833	-1.557954	-2.734318	-3.987435	-2.161528	-6.366340	-4.588458	-2.777320	3.479280	-2.655240	-0.741331	-0.163452	0.638243	-1.000000	-1.000000	-1.000000	-1.000000	-1.000000	-1.000000	-1.000000	61.000000	0.000000	-1.000000	-1.000000	440456.000000	1775765754.820238
-16456.950000	-27667.530000	37511.325000	28831.680000	43812.540000	13834.845000	-1676.520000	-52626.420000	-0.976265	2.174874	2.320443	1.597890	1.212692	1.435077	-1.746708	-3.066978	-2.777320	3.479280	-2.655240	-0.741331	-0.163452	0.638243	-1.000000	-1.000000	-1.000000	-1.000000	-1.000000	-1.000000	-1.000000	61.000000	0.000000	-1.000000	-1.000000	440457.000000	1775765754.820266
-16460.415000	-27673.290000	37506.915000	28828.125000	43817.715000	13848.480000	-1669.230000	-52630.830000	0.545140	4.490051	4.843122	4.709612	5.771337	5.096445	3.195176	-0.215146	-2.777320	3.479280	-2.655240	-0.741331	-0.163452	0.638243	-1.000000	-1.000000	-1.000000	-1.000000	-1.000000	-1.000000	-1.000000	61.000000	0.000000	-1.000000	-1.000000	440458.000000	1775765754.820278
-16462.395000	-27674.370000	37508.175000	28831.455000	43820.325000	13817.790000	-1657.710000	-52624.440000	1.658145	4.034576	4.388815	4.940189	7.887401	7.010927	7.364665	1.797658	-1.159760	4.227020	-2.258480	-0.738585	-0.168151	0.639769	-1.000000	-1.000000	-1.000000	-1.000000	-1.000000	-1.000000	-1.000000	61.000000	0.000000	-1.000000	-1.000000	440459.000000	1775765754.824992
-16453.395000	-27671.085000	37512.495000	28835.280000	43825.455000	13852.125000	-1641.870000	-52608.645000	2.054988	1.474246	1.858444	3.168801	7.329853	5.979517	10.114905	3.174759	-1.159760	4.227020	-2.258480	-0.738585	-0.168151	0.639769	-1.000000	-1.000000	-1.000000	-1.000000	-1.000000	-1.000000	-1.000000	61.000000	0.000000	-1.000000	-1.000000	440460.000000	1775765754.825020
-16443.630000	-27668.520000	37515.105000	28835.325000	43822.620000	13852.710000	-1647.450000	-52592.805000	2.467804	-0.979062	-0.491350	1.284037	4.765390	3.406054	10.562346	5.184675	-1.159760	4.227020	-2.258480	-0.738585	-0.168151	0.639769	-1.000000	-1.000000	-1.000000	-1.000000	-1.000000	-1.000000	-1.000000	61.000000	0.000000	-1.000000	-1.000000	440461.000000	1775765754.827585
-16448.670000	-27670.140000	37514.610000	28835.145000	43820.505000	13843.305000	-1654.740000	-52596.945000	3.236414	-1.822083	-1.356176	0.137278	1.007853	1.431808	7.282795	7.359203	-1.159760	4.227020	-2.258480	-0.738585	-0.168151	0.639769	-1.000000	-1.000000	-1.000000	-1.000000	-1.000000	-1.000000	-1.000000	61.000000	0.000000	-1.000000	-1.000000	440462.000000	1775765754.827606
-16455.060000	-27674.145000	37512.675000	28834.155000	43822.350000	13848.570000	-1658.745000	-52605.090000	3.099887	-1.379844	-1.137043	-0.562505	-2.915373	-0.400448	0.095186	6.979382	-1.159760	4.227020	-2.258480	-0.738585	-0.168151	0.639769	-1.000000	-1.000000	-1.000000	-1.000000	-1.000000	-1.000000	-1.000000	61.000000	0.000000	-1.000000	-1.000000	440463.000000	1775765754.831537
-16461.495000	-27679.545000	37509.525000	28831.770000	43821.540000	13848.570000	-1659.555000	-52612.290000	0.693310	-0.927684	-0.921769	-1.265637	-5.622752	-2.819634	-8.181204	2.090694	-1.159760	4.227020	-2.258480	-0.738585	-0.168151	0.639769	-1.000000	-1.000000	-1.000000	-1.000000	-1.000000	-1.000000	-1.000000	61.000000	0.000000	-1.000000	-1.000000	440464.000000	1775765754.831561
-16457.490000	-27675.495000	37513.260000	28832.355000	43821.225000	13844.205000	-1660.230000	-52610.130000	-3.170536	-1.066269	-1.158837	-1.990774	-6.165400	-4.957784	-13.318491	-5.488590	-1.159760	4.227020	-2.258480	-0.738585	-0.168151	0.639769	-1.000000	-1.000000	-1.000000	-1.000000	-1.000000	-1.000000	-1.000000	61.000000	0.000000	-1.000000	-1.000000	440465.000000	1775765754.843781
-16457.175000	-27675.135000	37514.160000	28832.040000	43820.460000	13842.765000	-1668.870000	-52611.345000	-5.852520	-1.157784	-1.320831	-2.335139	-4.713114	-5.927751	-13.057773	-11.247785	-1.159760	4.227020	-2.258480	-0.738585	-0.168151	0.639769	-1.000000	-1.000000	-1.000000	-1.000000	-1.000000	-1.000000	-1.000000	61.000000	0.000000	-1.000000	-1.000000	440466.000000	1775765754.843809
-16463.970000	-27679.995000	37511.820000	28829.835000	43817.805000	13836.195000	-1672.830000	-52619.445000	-5.616590	-0.563404	-0.880744	-1.977571	-2.259102	-5.539700	-8.472292	-12.024985	-1.159760	4.227020	-2.258480	-0.738585	-0.168151	0.639769	-1.000000	-1.000000	-1.000000	-1.000000	-1.000000	-1.000000	-1.000000	61.000000	0.000000	-1.000000	-1.000000	440467.000000	1775765754.843837
-16470.675000	-27688.590000	37503.855000	28822.140000	43810.920000	13829.220000	-1672.470000	-52623.270000	-3.273451	0.171430	-0.253206	-1.217172	-0.041184	-4.132495	-2.254685	-8.285876	-1.159760	4.227020	-2.258480	-0.738585	-0.168151	0.639769	-1.000000	-1.000000	-1.000000	-1.000000	-1.000000	-1.000000	-1.000000	61.000000	0.000000	-1.000000	-1.000000	440468.000000	1775765754.843850
-16465.365000	-27686.340000	37504.980000	28823.085000	43810.965000	13832.505000	-1663.560000	-52614.990000	-0.605008	0.223705	-0.172714	-0.637658	1.120376	-2.142392	3.599911	-2.415224	-0.244160	3.113040	-1.678600	-0.741270	-0.171447	0.639769	-1.000000	-1.000000	-1.000000	-1.000000	-1.000000	-1.000000	-1.000000	61.000000	0.000000	-1.000000	-1.000000	440469.000000	1775765754.846978
-16472.430000	-27695.520000	37497.375000	28815.660000	43806.330000	13834.710000	-1660.095000	-52612.920000	1.561070	-0.245535	-0.597477	-0.346627	1.338649	0.431758	8.154210	3.625371	-0.244160	3.113040	-1.678600	-0.741270	-0.171447	0.639769	-1.000000	-1.000000	-1.000000	-1.000000	-1.000000	-1.000000	-1.000000	61.000000	0.000000	-1.000000	-1.000000	440470.000000	1775765754.847007
-16480.710000	-27701.370000	37492.425000	28810.980000	43800.435000	13820.940000	-1673.370000	-52619.175000	2.817034	-0.692095	-1.007178	-0.154589	1.164079	3.192392	10.261247	8.122788	-0.244160	3.113040	-1.678600	-0.741270	-0.171447	0.639769	-1.000000	-1.000000	-1.000000	-1.000000	-1.000000	-1.000000	-1.000000	61.000000	0.000000	-1.000000	-1.000000	440471.000000	1775765754.847574
-16475.445000	-27694.530000	37494.855000	28810.575000	43792.875000	13813.110000	-1686.015000	-52620.255000	2.823771	-0.706992	-0.962869	0.081285	0.804132	4.568065	8.333626	9.310121	-0.244160	3.113040	-1.678600	-0.741270	-0.171447	0.639769	-1.000000	-1.000000	-1.000000	-1.000000	-1.000000	-1.000000	-1.000000	61.000000	0.000000	-1.000000	-1.000000	440472.000000	1775765754.847586
-16442.775000	-27655.110000	37536.435000	28848.285000	43824.960000	13845.285000	-1666.890000	-52609.365000	2.801412	0.985739	0.698384	1.323152	0.934098	4.190545	2.932971	7.071138	-0.244160	3.113040	-1.678600	-0.741270	-0.171447	0.639769	-1.000000	-1.000000	-1.000000	-1.000000	-1.000000	-1.000000	-1.000000	61.000000	0.000000	-1.000000	-1.000000	440473.000000	1775765754.851700
-16442.460000	-27658.440000	37538.100000	28852.245000	43831.530000	13851.540000	-1661.940000	-52603.335000	4.601722	5.326997	5.085058	4.834163	3.060083	4.340740	-1.992863	3.570659	-0.244160	3.113040	-1.678600	-0.741270	-0.171447	0.639769	-1.000000	-1.000000	-1.000000	-1.000000	-1.000000	-1.000000	-1.000000	61.000000	0.000000	-1.000000	-1.000000	440474.000000	1775765754.851726
-16463.880000	-27683.145000	37515.195000	28834.335000	43821.945000	13848.075000	-1667.610000	-52613.775000	6.627191	9.093105	9.413246	8.601278	6.433346	5.885828	-3.316177	0.692137	-0.244160	3.113040	-1.678600	-0.741270	-0.171447	0.639769	-1.000000	-1.000000	-1.000000	-1.000000	-1.000000	-1.000000	-1.000000	61.000000	0.000000	-1.000000	-1.000000	440475.000000	1775765754.860571
-16470.990000	-27693.585000	37504.395000	28823.445000	43812.135000	13838.805000	-1668.780000	-52616.160000	4.530114	6.721961	7.966099	7.608907	7.024781	5.909459	-2.130853	-1.776830	-0.244160	3.113040	-1.678600	-0.741270	-0.171447	0.639769	-1.000000	-1.000000	-1.000000	-1.000000	-1.000000	-1.000000	-1.000000	61.000000	0.000000	-1.000000	-1.000000	440476.000000	1775765754.860593
-16467.885000	-27695.565000	37499.535000	28816.605000	43803.540000	13830.345000	-1669.860000	-52611.660000	-2.323828	-2.142971	-0.482019	0.232318	2.310682	1.780743	-1.113965	-4.213266	-0.244160	3.113040	-1.678600	-0.741270	-0.171447	0.639769	-1.000000	-1.000000	-1.000000	-1.000000	-1.000000	-1.000000	-1.000000	61.000000	0.000000	-1.000000	-1.000000	440477.000000	1775765754.860617
-16462.980000	-27692.370000	37503.765000	28823.310000	43810.920000	13832.460000	-1663.920000	-52605.630000	-9.068885	-11.208111	-10.225478	-8.898846	-5.190396	-5.097078	-1.139411	-5.436440	-0.244160	3.113040	-1.678600	-0.741270	-0.171447	0.639769	-1.000000	-1.000000	-1.000000	-1.000000	-1.000000	-1.000000	-1.000000	61.000000	0.000000	-1.000000	-1.000000	440478.000000	1775765754.860624
-16449.480000	-27676.530000	37520.865000	28839.420000	43824.420000	13838.985000	-1656.540000	-52594.020000	-10.530456	-13.742405	-14.095677	-13.083364	-9.972015	-10.278041	-1.243383	-4.104284	-1.297100	4.410140	-1.007160	-0.741026	-0.169982	0.638060	-1.000000	-1.000000	-1.000000	-1.000000	-1.000000	-1.000000	-1.000000	61.000000	0.000000	-1.000000	-1.000000	440479.000000	1775765754.876806
-16455.510000	-27683.640000	37514.430000	28831.635000	43816.275000	13832.235000	-1664.640000	-52596.495000	-5.941629	-8.201533	-9.547414	-9.470510	-8.684450	-10.372087	-0.643867	-0.665799	-1.297100	4.410140	-1.007160	-0.741026	-0.169982	0.638060	-1.000000	-1.000000	-1.000000	-1.000000	-1.000000	-1.000000	-1.000000	61.000000	0.000000	-1.000000	-1.000000	440480.000000	1775765754.876832
-16458.030000	-27688.320000	37510.560000	28827.045000	43813.395000	13836.735000	-1667.790000	-52597.890000	0.821438	0.905568	-0.523311	-1.507117	-3.283468	-5.909828	-0.094996	2.502305	-1.297100	4.410140	-1.007160	-0.741026	-0.169982	0.638060	-1.000000	-1.000000	-1.000000	-1.000000	-1.000000	-1.000000	-1.000000	61.000000	0.000000	-1.000000	-1.000000	440481.000000	1775765754.876860
-16464.420000	-27693.990000	37505.565000	28821.240000	43807.725000	13838.805000	-1676.160000	-52607.340000	4.972151	7.272227	6.495970	4.789745	1.648090	0.114350	-0.695105	2.984781	-1.297100	4.410140	-1.007160	-0.741026	-0.169982	0.638060	-1.000000	-1.000000	-1.000000	-1.000000	-1.000000	-1.000000	-1.000000	61.000000	0.000000	-1.000000	-1.000000	440482.000000	1775765754.876872
-16466.175000	-27694.215000	37508.760000	28825.830000	43812.720000	13841.280000	-1675.395000	-52610.715000	4.720556	8.055885	8.183469	6.438743	3.602281	4.989537	-2.164844	0.426172	-1.297100	4.410140	-1.007160	-0.741026	-0.169982	0.638060	-1.000000	-1.000000	-1.000000	-1.000000	-1.000000	-1.000000	-1.000000	61.000000	0.000000	-1.000000	-1.000000	440483.000000	1775765754.876887
-16466.355000	-27692.370000	37512.630000	28829.925000	43816.050000	13840.335000	-1680.705000	-52614.405000	1.727740	4.879006	5.798723	4.764643	3.311762	7.170101	-3.093187	-3.218041	-1.297100	4.410140	-1.007160	-0.741026	-0.169982	0.638060	-1.000000	-1.000000	-1.000000	-1.000000	-1.000000	-1.000000	-1.000000	61.000000	0.000000	-1.000000	-1.000000	440484.000000	1775765754.876898
-16472.970000	-27698.130000	37509.795000	28827.855000	43814.250000	13834.980000	-1688.895000	-52619.580000	-1.218403	0.997426	2.389492	2.500474	2.538233	6.229274	-2.579403	-5.357355	-1.297100	4.410140	-1.007160	-0.741026	-0.169982	0.638060	-1.000000	-1.000000	-1.000000	-1.000000	-1.000000	-1.000000	-1.000000	61.000000	0.000000	-1.000000	-1.000000	440485.000000	1775765754.877069
-16479.090000	-27702.090000	37506.465000	28823.850000	43812.135000	13830.075000	-1689.750000	-52624.710000	-2.594960	-1.617268	-0.236490	0.883579	1.894578	2.810309	-0.982994	-4.776401	-1.297100	4.410140	-1.007160	-0.741026	-0.169982	0.638060	-1.000000	-1.000000	-1.000000	-1.000000	-1.000000	-1.000000	-1.000000	61.000000	0.000000	-1.000000	-1.000000	440486.000000	1775765754.877083
-16477.785000	-27694.575000	37501.785000	28818.495000	43806.330000	13832.010000	-1683.090000	-52618.410000	-2.372495	-2.516111	-1.938893	-0.436507	0.938656	-1.380335	1.149362	-1.895641	-1.297100	4.410140	-1.007160	-0.741026	-0.169982	0.638060	-1.000000	-1.000000	-1.000000	-1.000000	-1.000000	-1.000000	-1.000000	61.000000	0.000000	-1.000000	-1.000000	440487.000000	1775765754.880469
-16469.235000	-27687.015000	37496.835000	28813.860000	43799.445000	13834.485000	-1679.355000	-52604.505000	-0.731114	-1.546024	-3.011818	-1.857598	-0.654665	-4.093727	3.675821	2.425154	-1.297100	4.410140	-1.007160	-0.741026	-0.169982	0.638060	-1.000000	-1.000000	-1.000000	-1.000000	-1.000000	-1.000000	-1.000000	61.000000	0.000000	-1.000000	-1.000000	440488.000000	1775765754.880498
-16470.180000	-27693.990000	37508.940000	28823.220000	43814.070000	13840.875000	-1677.240000	-52609.545000	2.033268	0.743673	-3.171096	-2.811075	-2.161089	-3.905860	5.966587	6.925474	0.732480	5.020540	0.213640	-0.739622	-0.171447	0.638853	-1.000000	-1.000000	-1.000000	-1.000000	-1.000000	-1.000000	-1.000000	61.000000	0.000000	-1.000000	-1.000000	440489.000000	1775765754.893889
-16464.105000	-27688.365000	37513.935000	28828.080000	43816.680000	13835.700000	-1674.045000	-52597.260000	4.709126	2.563883	-1.599522	-2.089620	-1.965105	-1.360804	6.747913	9.474469	0.732480	5.020540	0.213640	-0.739622	-0.171447	0.638853	-1.000000	-1.000000	-1.000000	-1.000000	-1.000000	-1.000000	-1.000000	61.000000	0.000000	-1.000000	-1.000000	440490.000000	1775765754.893915
-16452.405000	-27681.480000	37523.745000	28834.785000	43817.985000	13815.990000	-1671.930000	-52587.720000	5.952741	2.710157	1.642518	0.556782	0.310728	1.029244	5.268776	8.761453	0.732480	5.020540	0.213640	-0.739622	-0.171447	0.638853	-1.000000	-1.000000	-1.000000	-1.000000	-1.000000	-1.000000	-1.000000	61.000000	0.000000	-1.000000	-1.000000	440491.000000	1775765754.894009
-16459.920000	-27686.430000	37522.980000	28833.930000	43818.795000	13809.240000	-1689.165000	-52603.875000	5.254603	1.561795	4.806085	3.557478	2.809563	0.744836	1.665886	5.110700	0.732480	5.020540	0.213640	-0.739622	-0.171447	0.638853	-1.000000	-1.000000	-1.000000	-1.000000	-1.000000	-1.000000	-1.000000	61.000000	0.000000	-1.000000	-1.000000	440492.000000	1775765754.894017
-16472.790000	-27697.005000	37514.160000	28827.135000	43815.960000	13819.185000	-1702.305000	-52625.295000	2.224143	-0.466082	5.472737	4.591885	3.439775	-1.629377	-3.551898	-1.147966	0.732480	5.020540	0.213640	-0.739622	-0.171447	0.638853	-1.000000	-1.000000	-1.000000	-1.000000	-1.000000	-1.000000	-1.000000	61.000000	0.000000	-1.000000	-1.000000	440493.000000	1775765754.894028
-16485.255000	-27711.315000	37500.975000	28813.230000	43805.835000	13827.150000	-1718.910000	-52633.395000	-3.136495	-3.444226	2.272571	2.273056	1.537154	-2.579340	-9.057097	-8.995914	0.732480	5.020540	0.213640	-0.739622	-0.171447	0.638853	-1.000000	-1.000000	-1.000000	-1.000000	-1.000000	-1.000000	-1.000000	61.000000	0.000000	-1.000000	-1.000000	440494.000000	1775765754.894034
-16486.695000	-27715.590000	37497.735000	28809.135000	43802.910000	13839.570000	-1710.945000	-52625.250000	-8.824252	-6.604346	-3.608954	-2.608128	-2.043909	0.190744	-12.111898	-14.669051	0.732480	5.020540	0.213640	-0.739622	-0.171447	0.638853	-1.000000	-1.000000	-1.000000	-1.000000	-1.000000	-1.000000	-1.000000	61.000000	0.000000	-1.000000	-1.000000	440495.000000	1775765754.906274
-16486.785000	-27716.085000	37497.825000	28809.315000	43801.380000	13845.510000	-1700.775000	-52619.040000	-11.337934	-7.871142	-8.567283	-7.043320	-5.248070	5.240507	-9.738906	-13.692729	0.732480	5.020540	0.213640	-0.739622	-0.171447	0.638853	-1.000000	-1.000000	-1.000000	-1.000000	-1.000000	-1.000000	-1.000000	61.000000	0.000000	-1.000000	-1.000000	440496.000000	1775765754.906298
-16484.580000	-27714.600000	37501.605000	28814.130000	43805.115000	13843.350000	-1692.630000	-52615.665000	-8.550272	-5.480582	-9.133485	-7.777013	-5.905596	8.806306	-1.573773	-5.530122	0.732480	5.020540	0.213640	-0.739622	-0.171447	0.638853	-1.000000	-1.000000	-1.000000	-1.000000	-1.000000	-1.000000	-1.000000	61.000000	0.000000	-1.000000	-1.000000	440497.000000	1775765754.906369
-16469.820000	-27699.660000	37518.660000	28831.005000	43823.070000	13846.995000	-1668.690000	-52602.345000	-1.400650	0.330529	-4.450252	-3.685192	-3.038178	7.913231	8.920998	5.513398	0.732480	5.020540	0.213640	-0.739622	-0.171447	0.638853	-1.000000	-1.000000	-1.000000	-1.000000	-1.000000	-1.000000	-1.000000	61.000000	0.000000	-1.000000	-1.000000	440498.000000	1775765754.906380
-16479.990000	-27710.145000	37509.930000	28822.770000	43815.870000	13835.835000	-1676.115000	-52609.815000	6.726352	7.105686	3.131968	3.240488	2.280242	2.558171	16.542508	13.705563	1.587040	4.852680	0.228900	-0.741392	-0.172363	0.636900	-1.000000	-1.000000	-1.000000	-1.000000	-1.000000	-1.000000	-1.000000	61.000000	0.000000	-1.000000	-1.000000	440499.000000	1775765754.906397
-16482.465000	-27712.530000	37507.635000	28820.745000	43811.055000	13820.895000	-1694.070000	-52617.555000	11.479921	11.033703	9.008980	8.611226	6.671220	-4.938185	16.638577	15.005202	1.587040	4.852680	0.228900	-0.741392	-0.172363	0.636900	-1.000000	-1.000000	-1.000000	-1.000000	-1.000000	-1.000000	-1.000000	61.000000	0.000000	-1.000000	-1.000000	440500.000000	1775765754.906407
-16483.140000	-27712.215000	37508.175000	28819.710000	43809.930000	13821.570000	-1708.785000	-52630.650000	10.372210	9.701655	9.628873	8.927269	6.904067	-11.417560	7.674955	8.829303	1.587040	4.852680	0.228900	-0.741392	-0.172363	0.636900	-1.000000	-1.000000	-1.000000	-1.000000	-1.000000	-1.000000	-1.000000	61.000000	0.000000	-1.000000	-1.000000	440501.000000	1775765754.912537
-16487.910000	-27721.530000	37496.880000	28809.135000	43802.145000	13827.915000	-1719.945000	-52645.455000	4.788626	4.223130	5.273250	4.416379	3.005650	-13.473291	-6.290405	-1.543716	1.587040	4.852680	0.228900	-0.741392	-0.172363	0.636900	-1.000000	-1.000000	-1.000000	-1.000000	-1.000000	-1.000000	-1.000000	61.000000	0.000000	-1.000000	-1.000000	440502.000000	1775765754.912560
-16482.915000	-27719.730000	37500.525000	28813.545000	43807.455000	13837.905000	-1710.675000	-52632.450000	-1.609115	-2.223468	-1.037118	-1.879030	-2.173072	-9.182698	-17.336134	-10.515849	1.587040	4.852680	0.228900	-0.741392	-0.172363	0.636900	-1.000000	-1.000000	-1.000000	-1.000000	-1.000000	-1.000000	-1.000000	61.000000	0.000000	-1.000000	-1.000000	440503.000000	1775765754.912585
-16473.240000	-27709.020000	37509.615000	28820.430000	43812.495000	13843.755000	-1686.870000	-52611.390000	-5.390322	-6.375359	-5.600253	-6.210076	-5.283189	-0.201675	-18.635245	-12.617206	1.587040	4.852680	0.228900	-0.741392	-0.172363	0.636900	-1.000000	-1.000000	-1.000000	-1.000000	-1.000000	-1.000000	-1.000000	61.000000	0.000000	-1.000000	-1.000000	440504.000000	1775765754.912594
-16482.105000	-27707.760000	37511.955000	28820.295000	43809.885000	13845.960000	-1689.390000	-52622.055000	-5.272858	-6.279000	-5.917582	-6.266632	-4.716387	8.807073	-9.271861	-6.496952	1.587040	4.852680	0.228900	-0.741392	-0.172363	0.636900	-1.000000	-1.000000	-1.000000	-1.000000	-1.000000	-1.000000	-1.000000	61.000000	0.000000	-1.000000	-1.000000	440505.000000	1775765754.925656
-16501.500000	-27719.955000	37505.880000	28815.435000	43805.520000	13840.605000	-1697.040000	-52628.580000	-3.301524	-3.069111	-2.735901	-2.997044	-1.790904	13.105907	4.168860	2.675919	1.587040	4.852680	0.228900	-0.741392	-0.172363	0.636900	-1.000000	-1.000000	-1.000000	-1.000000	-1.000000	-1.000000	-1.000000	61.000000	0.000000	-1.000000	-1.000000	440506.000000	1775765754.925681
-16509.420000	-27728.100000	37499.760000	28806.435000	43794.495000	13825.845000	-1705.905000	-52625.340000	-2.669733	-0.263691	0.628126	0.395755	0.674448	10.551092	12.613756	8.031559	1.587040	4.852680	0.228900	-0.741392	-0.172363	0.636900	-1.000000	-1.000000	-1.000000	-1.000000	-1.000000	-1.000000	-1.000000	61.000000	0.000000	-1.000000	-1.000000	440507.000000	1775765754.925709
-16497.270000	-27724.095000	37503.270000	28808.730000	43795.080000	13780.980000	-1696.455000	-52612.875000	-3.530682	0.052717	1.713224	1.598816	1.026766	1.945610	12.165469	7.669374	1.587040	4.852680	0.228900	-0.741392	-0.172363	0.636900	-1.000000	-1.000000	-1.000000	-1.000000	-1.000000	-1.000000	-1.000000	61.000000	0.000000	-1.000000	-1.000000	440508.000000	1775765754.925721
-16465.995000	-27699.030000	37527.300000	28834.560000	43827.255000	13817.430000	-1666.530000	-52597.125000	-2.426643	-0.433086	1.324209	1.435242	0.596543	-8.592578	6.513406	4.670774	-0.366240	3.280900	0.350980	-0.745115	-0.168518	0.635496	-1.000000	-1.000000	-1.000000	-1.000000	-1.000000	-1.000000	-1.000000	61.000000	0.000000	-1.000000	-1.000000	440509.000000	1775765754.925736
-16456.905000	-27684.315000	37542.645000	28851.210000	43849.215000	13904.775000	-1642.095000	-52593.480000	3.126402	1.379903	2.131617	2.662278	2.530672	-12.113859	2.337361	2.340781	-0.366240	3.280900	0.350980	-0.745115	-0.168518	0.635496	-1.000000	-1.000000	-1.000000	-1.000000	-1.000000	-1.000000	-1.000000	61.000000	0.000000	-1.000000	-1.000000	440510.000000	1775765754.925748
-16470.540000	-27701.505000	37527.615000	28838.160000	43837.110000	13878.945000	-1657.485000	-52600.005000	10.018773	5.146272	4.361528	5.507493	6.868139	-2.374112	2.005247	0.897306	-0.366240	3.280900	0.350980	-0.745115	-0.168518	0.635496	-1.000000	-1.000000	-1.000000	-1.000000	-1.000000	-1.000000	-1.000000	61.000000	0.000000	-1.000000	-1.000000	440511.000000	1775765754.937851
-16474.680000	-27705.555000	37525.500000	28835.820000	43830.855000	13853.070000	-1671.345000	-52605.045000	11.744967	6.458904	4.637507	6.280020	8.733163	12.176388	1.462375	-1.472294	-0.366240	3.280900	0.350980	-0.745115	-0.168518	0.635496	-1.000000	-1.000000	-1.000000	-1.000000	-1.000000	-1.000000	-1.000000	61.000000	0.000000	-1.000000	-1.000000	440512.000000	1775765754.937874
-16477.425000	-27708.615000	37523.070000	28830.150000	43822.890000	13845.015000	-1677.825000	-52609.455000	5.717086	2.554399	0.749576	2.270712	4.155888	16.063203	-3.407494	-5.312612	-0.366240	3.280900	0.350980	-0.745115	-0.168518	0.635496	-1.000000	-1.000000	-1.000000	-1.000000	-1.000000	-1.000000	-1.000000	61.000000	0.000000	-1.000000	-1.000000	440513.000000	1775765754.937897
-16484.535000	-27717.795000	37515.645000	28820.970000	43814.880000	13841.415000	-1679.535000	-52614.495000	-4.203958	-4.244361	-5.234888	-4.731716	-4.986381	5.465906	-10.804547	-8.841057	-0.366240	3.280900	0.350980	-0.745115	-0.168518	0.635496	-1.000000	-1.000000	-1.000000	-1.000000	-1.000000	-1.000000	-1.000000	61.000000	0.000000	-1.000000	-1.000000	440514.000000	1775765754.937905
-16481.430000	-27710.145000	37525.095000	28830.510000	43825.095000	13851.585000	-1676.070000	-52617.195000	-11.931155	-9.371425	-9.362587	-10.381524	-12.852154	-9.836213	-15.109542	-9.772628	-0.366240	3.280900	0.350980	-0.745115	-0.168518	0.635496	-1.000000	-1.000000	-1.000000	-1.000000	-1.000000	-1.000000	-1.000000	61.000000	0.000000	-1.000000	-1.000000	440515.000000	1775765754.937912
-16481.520000	-27710.100000	37527.570000	28833.885000	43829.055000	13855.590000	-1675.260000	-52614.720000	-13.533379	-9.609909	-8.863803	-10.968095	-14.258601	-18.213999	-12.644123	-7.124602	-0.366240	3.280900	0.350980	-0.745115	-0.168518	0.635496	-1.000000	-1.000000	-1.000000	-1.000000	-1.000000	-1.000000	-1.000000	61.000000	0.000000	-1.000000	-1.000000	440516.000000	1775765754.937919
-16482.825000	-27712.935000	37525.185000	28830.375000	43824.060000	13847.445000	-1685.655000	-52615.665000	-8.981279	-5.030675	-3.994618	-6.073510	-8.533248	-15.572311	-4.699189	-1.699365	-0.366240	3.280900	0.350980	-0.745115	-0.168518	0.635496	-1.000000	-1.000000	-1.000000	-1.000000	-1.000000	-1.000000	-1.000000	61.000000	0.000000	-1.000000	-1.000000	440517.000000	1775765754.944437
-16478.640000	-27708.930000	37529.370000	28832.535000	43824.150000	13841.235000	-1685.925000	-52610.040000	-1.404635	1.323891	2.148969	1.009767	0.169107	-6.244714	3.983027	4.371978	-0.366240	3.280900	0.350980	-0.745115	-0.168518	0.635496	-1.000000	-1.000000	-1.000000	-1.000000	-1.000000	-1.000000	-1.000000	61.000000	0.000000	-1.000000	-1.000000	440518.000000	1775765754.944462
-16477.605000	-27713.250000	37522.530000	28823.580000	43811.775000	13826.205000	-1686.015000	-52605.990000	5.455740	6.102233	6.248354	6.185809	6.651337	2.650881	9.423420	8.841632	-3.967600	1.052940	1.617560	-0.748167	-0.163574	0.633665	-1.000000	-1.000000	-1.000000	-1.000000	-1.000000	-1.000000	-1.000000	61.000000	0.000000	-1.000000	-1.000000	440519.000000	1775765754.944488
-16479.855000	-27719.415000	37516.680000	28819.800000	43810.875000	13835.565000	-1676.565000	-52602.255000	9.087653	7.443134	6.658987	7.267026	8.252403	7.058001	10.862402	10.373071	-3.967600	1.052940	1.617560	-0.748167	-0.163574	0.633665	-1.000000	-1.000000	-1.000000	-1.000000	-1.000000	-1.000000	-1.000000	61.000000	0.000000	-1.000000	-1.000000	440520.000000	1775765754.944497
-16480.800000	-27720.405000	37516.905000	28820.160000	43813.755000	13845.195000	-1681.065000	-52603.515000	8.671590	5.325869	3.854876	4.794534	5.920040	7.815154	9.569127	8.678025	-3.967600	1.052940	1.617560	-0.748167	-0.163574	0.633665	-1.000000	-1.000000	-1.000000	-1.000000	-1.000000	-1.000000	-1.000000	61.000000	0.000000	-1.000000	-1.000000	440521.000000	1775765754.947023
-16483.275000	-27723.330000	37515.780000	28820.610000	43819.200000	13857.795000	-1684.170000	-52605.090000	5.127306	1.494253	0.108804	1.295058	2.814506	7.901510	6.559968	4.381732	-3.967600	1.052940	1.617560	-0.748167	-0.163574	0.633665	-1.000000	-1.000000	-1.000000	-1.000000	-1.000000	-1.000000	-1.000000	61.000000	0.000000	-1.000000	-1.000000	440522.000000	1775765754.947053
-16485.615000	-27727.245000	37513.395000	28820.745000	43823.385000	13860.135000	-1683.540000	-52605.270000	0.489940	-1.804216	-2.259693	-0.873439	1.373736	8.422693	2.361304	-1.005471	-3.967600	1.052940	1.617560	-0.748167	-0.163574	0.633665	-1.000000	-1.000000	-1.000000	-1.000000	-1.000000	-1.000000	-1.000000	61.000000	0.000000	-1.000000	-1.000000	440523.000000	1775765754.950651
-16483.185000	-27722.610000	37519.740000	28827.585000	43825.770000	13849.020000	-1685.340000	-52600.635000	-3.159060	-3.195347	-2.374012	-0.960899	1.681158	7.654425	-1.910004	-5.378374	-3.967600	1.052940	1.617560	-0.748167	-0.163574	0.633665	-1.000000	-1.000000	-1.000000	-1.000000	-1.000000	-1.000000	-1.000000	61.000000	0.000000	-1.000000	-1.000000	440524.000000	1775765754.950676
-16484.535000	-27722.790000	37522.035000	28830.645000	43825.995000	13846.860000	-1692.585000	-52601.895000	-4.525473	-2.401160	-0.619626	0.462122	2.212926	3.552752	-4.943344	-7.060481	-3.967600	1.052940	1.617560	-0.748167	-0.163574	0.633665	-1.000000	-1.000000	-1.000000	-1.000000	-1.000000	-1.000000	-1.000000	61.000000	0.000000	-1.000000	-1.000000	440525.000000	1775765754.968614
-16490.250000	-27726.570000	37518.660000	28826.235000	43819.605000	13841.100000	-1698.570000	-52612.380000	-3.737397	-0.300391	1.708353	2.002861	1.434809	-3.188868	-6.281404	-6.135643	-3.967600	1.052940	1.617560	-0.748167	-0.163574	0.633665	-1.000000	-1.000000	-1.000000	-1.000000	-1.000000	-1.000000	-1.000000	61.000000	0.000000	-1.000000	-1.000000	440526.000000	1775765754.968642
-16495.920000	-27725.265000	37523.025000	28831.050000	43825.590000	13847.490000	-1696.815000	-52624.440000	-2.148787	1.500266	2.973838	2.196989	-0.902273	-9.107024	-5.979719	-4.390361	-3.967600	1.052940	1.617560	-0.748167	-0.163574	0.633665	-1.000000	-1.000000	-1.000000	-1.000000	-1.000000	-1.000000	-1.000000	61.000000	0.000000	-1.000000	-1.000000	440527.000000	1775765754.968760
-16497.990000	-27719.595000	37531.890000	28840.455000	43834.770000	13853.385000	-1692.405000	-52623.540000	-0.972340	2.138033	2.679650	0.988501	-3.253142	-10.720633	-3.903634	-3.201362	-3.967600	1.052940	1.617560	-0.748167	-0.163574	0.633665	-1.000000	-1.000000	-1.000000	-1.000000	-1.000000	-1.000000	-1.000000	61.000000	0.000000	-1.000000	-1.000000	440528.000000	1775765754.968773
-16496.055000	-27719.055000	37528.695000	28834.965000	43828.560000	13850.505000	-1690.425000	-52610.445000	-0.237771	1.960762	1.583648	-0.463489	-3.848504	-7.296974	-0.261188	-1.764170	-3.250380	1.526000	1.098720	-0.746214	-0.165832	0.632506	-1.000000	-1.000000	-1.000000	-1.000000	-1.000000	-1.000000	-1.000000	61.000000	0.000000	-1.000000	-1.000000	440529.000000	1775765754.968789
-16492.680000	-27720.945000	37525.410000	28830.870000	43822.485000	13831.380000	-1694.115000	-52595.505000	0.770031	1.366594	0.101892	-1.722414	-2.982448	-1.784240	3.529614	1.691687	-3.250380	1.526000	1.098720	-0.746214	-0.165832	0.632506	-1.000000	-1.000000	-1.000000	-1.000000	-1.000000	-1.000000	-1.000000	61.000000	0.000000	-1.000000	-1.000000	440530.000000	1775765754.968801
-16483.950000	-27729.180000	37516.230000	28821.825000	43814.970000	13829.085000	-1700.640000	-52580.565000	2.448336	0.138114	-1.994481	-3.223788	-2.334571	1.714862	5.364948	7.087347	-3.250380	1.526000	1.098720	-0.746214	-0.165832	0.632506	-1.000000	-1.000000	-1.000000	-1.000000	-1.000000	-1.000000	-1.000000	61.000000	0.000000	-1.000000	-1.000000	440531.000000	1775765754.968814
-16487.820000	-27740.250000	37501.830000	28807.155000	43804.980000	13836.870000	-1703.790000	-52582.140000	4.217205	-2.001203	-4.625697	-5.031801	-2.678519	2.177062	4.168713	11.543506	-3.250380	1.526000	1.098720	-0.746214	-0.165832	0.632506	-1.000000	-1.000000	-1.000000	-1.000000	-1.000000	-1.000000	-1.000000	61.000000	0.000000	-1.000000	-1.000000	440532.000000	1775765754.968825
-16483.320000	-27734.130000	37509.120000	28812.780000	43806.060000	13834.170000	-1696.275000	-52581.105000	4.739733	-4.335687	-6.693805	-6.232682	-3.233347	1.894211	1.109967	11.402939	-3.250380	1.526000	1.098720	-0.746214	-0.165832	0.632506	-1.000000	-1.000000	-1.000000	-1.000000	-1.000000	-1.000000	-1.000000	61.000000	0.000000	-1.000000	-1.000000	440533.000000	1775765754.976918
-16482.330000	-27728.595000	37517.895000	28820.655000	43811.280000	13842.855000	-1684.980000	-52581.870000	3.273316	-4.889582	-6.057634	-4.994507	-2.393431	2.733349	-1.109086	5.570649	-3.250380	1.526000	1.098720	-0.746214	-0.165832	0.632506	-1.000000	-1.000000	-1.000000	-1.000000	-1.000000	-1.000000	-1.000000	61.000000	0.000000	-1.000000	-1.000000	440534.000000	1775765754.976941
-16492.230000	-27732.690000	37518.120000	28823.580000	43820.145000	13858.110000	-1687.815000	-52595.415000	0.282650	-2.466374	-1.642323	-0.374818	0.834754	4.653640	-0.856752	-3.464606	-3.250380	1.526000	1.098720	-0.746214	-0.165832	0.632506	-1.000000	-1.000000	-1.000000	-1.000000	-1.000000	-1.000000	-1.000000	61.000000	0.000000	-1.000000	-1.000000	440535.000000	1775765754.976963
-16493.670000	-27732.645000	37519.785000	28825.110000	43822.485000	13857.705000	-1687.365000	-52598.565000	-3.282654	1.465040	4.428022	5.695475	5.473734	6.570688	0.703257	-11.727918	-3.250380	1.526000	1.098720	-0.746214	-0.165832	0.632506	-1.000000	-1.000000	-1.000000	-1.000000	-1.000000	-1.000000	-1.000000	61.000000	0.000000	-1.000000	-1.000000	440536.000000	1775765754.976974
-16494.300000	-27735.885000	37517.265000	28822.455000	43818.210000	13851.180000	-1690.290000	-52592.715000	-6.054979	4.255993	8.432901	9.624429	8.768810	6.515389	1.258226	-15.572116	-3.250380	1.526000	1.098720	-0.746214	-0.165832	0.632506	-1.000000	-1.000000	-1.000000	-1.000000	-1.000000	-1.000000	-1.000000	61.000000	0.000000	-1.000000	-1.000000	440537.000000	1775765754.979920
-16492.500000	-27736.380000	37517.220000	28821.735000	43816.230000	13846.275000	-1691.955000	-52584.930000	-6.491300	4.534776	8.233419	9.130553	8.214323	2.902270	-0.084959	-12.862333	-3.250380	1.526000	1.098720	-0.746214	-0.165832	0.632506	-1.000000	-1.000000	-1.000000	-1.000000	-1.000000	-1.000000	-1.000000	61.000000	0.000000	-1.000000	-1.000000	440538.000000	1775765754.979941
-16496.910000	-27745.695000	37508.850000	28813.230000	43806.780000	13837.185000	-1697.175000	-52585.470000	-4.241731	2.617209	4.328880	4.622275	3.638175	-3.378760	-2.459880	-4.714973	0.137340	0.350980	0.686700	-0.745237	-0.170776	0.633360	-1.000000	-1.000000	-1.000000	-1.000000	-1.000000	-1.000000	-1.000000	61.000000	0.000000	-1.000000	-1.000000	440539.000000	1775765754.986041
-16509.690000	-27762.390000	37491.705000	28796.535000	43789.455000	13820.670000	-1714.815000	-52592.625000	-0.872319	-0.585660	-1.378405	-1.801832	-2.976261	-9.486760	-4.657514	4.395236	0.137340	0.350980	0.686700	-0.745237	-0.170776	0.633360	-1.000000	-1.000000	-1.000000	-1.000000	-1.000000	-1.000000	-1.000000	61.000000	0.000000	-1.000000	-1.000000	440540.000000	1775765754.986068
-16521.300000	-27775.890000	37477.305000	28781.460000	43774.920000	13804.470000	-1740.015000	-52604.280000	1.261388	-4.185450	-6.937757	-7.864953	-9.064897	-12.924881	-6.388063	9.482407	0.137340	0.350980	0.686700	-0.745237	-0.170776	0.633360	-1.000000	-1.000000	-1.000000	-1.000000	-1.000000	-1.000000	-1.000000	61.000000	0.000000	-1.000000	-1.000000	440541.000000	1775765754.990929
-16511.220000	-27760.140000	37493.505000	28795.995000	43789.455000	13813.380000	-1742.490000	-52612.245000	1.480601	-6.390765	-9.952943	-11.030784	-11.827571	-12.169173	-7.464874	8.509972	0.137340	0.350980	0.686700	-0.745237	-0.170776	0.633360	-1.000000	-1.000000	-1.000000	-1.000000	-1.000000	-1.000000	-1.000000	61.000000	0.000000	-1.000000	-1.000000	440542.000000	1775765754.990952
-16471.755000	-27712.395000	37542.150000	28842.030000	43833.555000	13851.270000	-1693.260000	-52578.720000	2.242129	-3.879219	-6.989623	-8.004107	-8.065932	-5.790586	-5.408809	4.149511	0.137340	0.350980	0.686700	-0.745237	-0.170776	0.633360	-1.000000	-1.000000	-1.000000	-1.000000	-1.000000	-1.000000	-1.000000	61.000000	0.000000	-1.000000	-1.000000	440543.000000	1775765754.992522
-16466.490000	-27699.615000	37559.745000	28861.065000	43852.230000	13868.820000	-1661.535000	-52559.415000	6.191819	4.908692	3.287187	2.421617	3.012615	6.085302	3.210662	1.906963	0.137340	0.350980	0.686700	-0.745237	-0.170776	0.633360	-1.000000	-1.000000	-1.000000	-1.000000	-1.000000	-1.000000	-1.000000	61.000000	0.000000	-1.000000	-1.000000	440544.000000	1775765754.992549
-16487.280000	-27723.420000	37537.830000	28841.445000	43837.920000	13872.780000	-1649.925000	-52567.965000	10.811195	14.657265	15.074339	14.607185	15.568558	18.509320	16.359993	3.934860	0.137340	0.350980	0.686700	-0.745237	-0.170776	0.633360	-1.000000	-1.000000	-1.000000	-1.000000	-1.000000	-1.000000	-1.000000	61.000000	0.000000	-1.000000	-1.000000	440545.000000	1775765754.995798
-16498.080000	-27745.965000	37513.080000	28815.435000	43814.835000	13865.040000	-1678.770000	-52579.530000	9.785894	15.755615	17.906422	18.222698	19.530347	23.384975	24.540736	5.960949	0.137340	0.350980	0.686700	-0.745237	-0.170776	0.633360	-1.000000	-1.000000	-1.000000	-1.000000	-1.000000	-1.000000	-1.000000	61.000000	0.000000	-1.000000	-1.000000	440546.000000	1775765754.995825
-16496.145000	-27744.345000	37514.565000	28815.840000	43815.285000	13859.685000	-1696.995000	-52583.085000	1.279631	4.859909	7.491656	8.594663	10.307837	16.352817	18.757858	3.069302	0.137340	0.350980	0.686700	-0.745237	-0.170776	0.633360	-1.000000	-1.000000	-1.000000	-1.000000	-1.000000	-1.000000	-1.000000	61.000000	0.000000	-1.000000	-1.000000	440547.000000	1775765755.005864
-16477.110000	-27728.640000	37530.630000	28831.185000	43828.740000	13867.830000	-1688.175000	-52561.710000	-8.835070	-10.296642	-8.628223	-7.316539	-5.660235	1.054113	0.411347	-3.656928	0.137340	0.350980	0.686700	-0.745237	-0.170776	0.633360	-1.000000	-1.000000	-1.000000	-1.000000	-1.000000	-1.000000	-1.000000	61.000000	0.000000	-1.000000	-1.000000	440548.000000	1775765755.005889
-16485.660000	-27742.905000	37515.735000	28816.155000	43812.765000	13851.675000	-1697.355000	-52563.735000	-13.258208	-18.871259	-18.828210	-17.996265	-17.344125	-13.944267	-18.864281	-8.642518	2.243220	-0.381500	0.198380	-0.746763	-0.170654	0.632689	-1.000000	-1.000000	-1.000000	-1.000000	-1.000000	-1.000000	-1.000000	61.000000	0.000000	-1.000000	-1.000000	440549.000000	1775765755.005915
-16498.980000	-27749.880000	37509.705000	28812.105000	43809.255000	13841.460000	-1695.105000	-52587.315000	-10.698762	-17.231293	-18.474393	-18.367885	-19.351874	-22.114883	-27.806144	-9.035914	2.243220	-0.381500	0.198380	-0.746763	-0.170654	0.632689	-1.000000	-1.000000	-1.000000	-1.000000	-1.000000	-1.000000	-1.000000	61.000000	0.000000	-1.000000	-1.000000	440550.000000	1775765755.005928
-16504.470000	-27745.560000	37516.995000	28821.960000	43821.315000	13847.625000	-1681.290000	-52595.865000	-5.415856	-9.167748	-10.744940	-11.022828	-13.291355	-21.711856	-23.197411	-7.196660	2.243220	-0.381500	0.198380	-0.746763	-0.170654	0.632689	-1.000000	-1.000000	-1.000000	-1.000000	-1.000000	-1.000000	-1.000000	61.000000	0.000000	-1.000000	-1.000000	440551.000000	1775765755.007057
-16512.795000	-27748.170000	37517.985000	28823.715000	43822.845000	13853.655000	-1673.505000	-52591.545000	-1.268693	0.276556	-0.579820	-0.669676	-3.078522	-13.809998	-8.991258	-5.485862	2.243220	-0.381500	0.198380	-0.746763	-0.170654	0.632689	-1.000000	-1.000000	-1.000000	-1.000000	-1.000000	-1.000000	-1.000000	61.000000	0.000000	-1.000000	-1.000000	440552.000000	1775765755.007073
-16511.445000	-27745.965000	37521.090000	28824.570000	43822.170000	13854.330000	-1679.445000	-52584.345000	1.084666	7.675725	8.138853	8.430014	6.923041	-1.585782	6.963205	-2.931123	2.243220	-0.381500	0.198380	-0.746763	-0.170654	0.632689	-1.000000	-1.000000	-1.000000	-1.000000	-1.000000	-1.000000	-1.000000	61.000000	0.000000	-1.000000	-1.000000	440553.000000	1775765755.012617
-16495.785000	-27736.560000	37530.855000	28833.525000	43829.325000	13857.300000	-1674.225000	-52562.790000	3.085648	11.401172	12.907125	13.146954	12.779990	9.889388	16.890481	2.128231	2.243220	-0.381500	0.198380	-0.746763	-0.170654	0.632689	-1.000000	-1.000000	-1.000000	-1.000000	-1.000000	-1.000000	-1.000000	61.000000	0.000000	-1.000000	-1.000000	440554.000000	1775765755.012637
-16494.480000	-27737.415000	37529.730000	28832.085000	43829.235000	13853.610000	-1675.800000	-52562.385000	6.041300	11.522293	13.076771	12.680592	13.042516	16.054266	17.550952	8.843340	2.243220	-0.381500	0.198380	-0.746763	-0.170654	0.632689	-1.000000	-1.000000	-1.000000	-1.000000	-1.000000	-1.000000	-1.000000	61.000000	0.000000	-1.000000	-1.000000	440555.000000	1775765755.015696
-16495.200000	-27737.280000	37529.685000	28832.085000	43828.965000	13843.890000	-1678.455000	-52566.255000	8.941280	8.741020	9.329437	8.201581	8.866098	15.093102	11.030452	13.415821	2.243220	-0.381500	0.198380	-0.746763	-0.170654	0.632689	-1.000000	-1.000000	-1.000000	-1.000000	-1.000000	-1.000000	-1.000000	61.000000	0.000000	-1.000000	-1.000000	440556.000000	1775765755.015722
-16498.935000	-27742.905000	37525.140000	28828.260000	43824.285000	13815.225000	-1683.270000	-52569.090000	9.136745	3.824603	3.074490	1.715433	2.502249	7.942597	1.807239	12.070538	2.243220	-0.381500	0.198380	-0.746763	-0.170654	0.632689	-1.000000	-1.000000	-1.000000	-1.000000	-1.000000	-1.000000	-1.000000	61.000000	0.000000	-1.000000	-1.000000	440557.000000	1775765755.019722
-16505.640000	-27752.130000	37516.410000	28819.035000	43815.060000	13843.530000	-1682.865000	-52571.835000	5.335161	-2.051411	-3.701951	-4.606968	-3.808517	-1.692787	-5.910382	4.878549	2.243220	-0.381500	0.198380	-0.746763	-0.170654	0.632689	-1.000000	-1.000000	-1.000000	-1.000000	-1.000000	-1.000000	-1.000000	61.000000	0.000000	-1.000000	-1.000000	440558.000000	1775765755.019746
-16500.285000	-27751.545000	37515.240000	28817.460000	43813.215000	13857.660000	-1685.295000	-52566.840000	-0.882930	-7.145832	-8.871262	-8.950058	-8.273139	-7.515362	-9.496879	-4.097681	0.228900	-1.068200	1.297100	-0.747374	-0.166503	0.632750	-1.000000	-1.000000	-1.000000	-1.000000	-1.000000	-1.000000	-1.000000	61.000000	0.000000	-1.000000	-1.000000	440559.000000	1775765755.030745
-16501.815000	-27754.965000	37512.810000	28816.560000	43814.970000	13845.465000	-1687.545000	-52567.965000	-6.146517	-9.487461	-10.662208	-10.007530	-9.495558	-5.872973	-8.591068	-10.072557	0.228900	-1.068200	1.297100	-0.747374	-0.166503	0.632750	-1.000000	-1.000000	-1.000000	-1.000000	-1.000000	-1.000000	-1.000000	61.000000	0.000000	-1.000000	-1.000000	440560.000000	1775765755.030771
-16502.805000	-27753.075000	37516.005000	28821.285000	43821.855000	13852.935000	-1684.980000	-52570.665000	-7.983008	-8.055016	-8.409896	-7.325295	-6.833447	-0.137855	-4.713555	-10.868530	0.228900	-1.068200	1.297100	-0.747374	-0.166503	0.632750	-1.000000	-1.000000	-1.000000	-1.000000	-1.000000	-1.000000	-1.000000	61.000000	0.000000	-1.000000	-1.000000	440561.000000	1775765755.030797
-16503.975000	-27751.230000	37513.620000	28820.790000	43818.030000	13849.425000	-1689.480000	-52572.465000	-6.438255	-3.624895	-3.202080	-1.954487	-1.375084	3.990502	-0.045146	-7.630256	0.228900	-1.068200	1.297100	-0.747374	-0.166503	0.632750	-1.000000	-1.000000	-1.000000	-1.000000	-1.000000	-1.000000	-1.000000	61.000000	0.000000	-1.000000	-1.000000	440562.000000	1775765755.030810
-16507.080000	-27751.995000	37512.855000	28818.450000	43812.810000	13842.225000	-1694.655000	-52577.910000	-3.211832	1.709762	2.492168	3.627196	3.953996	3.961521	3.386773	-2.990267	0.228900	-1.068200	1.297100	-0.747374	-0.166503	0.632750	-1.000000	-1.000000	-1.000000	-1.000000	-1.000000	-1.000000	-1.000000	61.000000	0.000000	-1.000000	-1.000000	440563.000000	1775765755.036181
-16517.025000	-27759.645000	37513.620000	28818.315000	43815.420000	13845.870000	-1692.405000	-52593.480000	-0.273924	5.475211	6.257498	6.861339	6.395712	0.589627	4.484499	0.613965	0.228900	-1.068200	1.297100	-0.747374	-0.166503	0.632750	-1.000000	-1.000000	-1.000000	-1.000000	-1.000000	-1.000000	-1.000000	61.000000	0.000000	-1.000000	-1.000000	440564.000000	1775765755.036205
-16522.785000	-27759.510000	37514.520000	28819.260000	43820.235000	13852.305000	-1685.385000	-52597.440000	1.043914	6.071568	7.119420	6.808159	5.667488	-3.191170	3.873868	1.878323	0.228900	-1.068200	1.297100	-0.747374	-0.166503	0.632750	-1.000000	-1.000000	-1.000000	-1.000000	-1.000000	-1.000000	-1.000000	61.000000	0.000000	-1.000000	-1.000000	440565.000000	1775765755.036229
-16525.935000	-27752.985000	37524.285000	28828.935000	43827.120000	13851.630000	-1686.015000	-52596.855000	0.818057	4.064482	5.765214	4.578183	3.593719	-4.557661	3.011391	1.531244	0.228900	-1.068200	1.297100	-0.747374	-0.166503	0.632750	-1.000000	-1.000000	-1.000000	-1.000000	-1.000000	-1.000000	-1.000000	61.000000	0.000000	-1.000000	-1.000000	440566.000000	1775765755.036241
-16516.170000	-27744.840000	37536.120000	28840.365000	43832.385000	13848.885000	-1689.075000	-52593.345000	0.530384	1.740265	3.830724	2.283151	1.911376	-3.216879	2.321513	1.643696	0.228900	-1.068200	1.297100	-0.747374	-0.166503	0.632750	-1.000000	-1.000000	-1.000000	-1.000000	-1.000000	-1.000000	-1.000000	61.000000	0.000000	-1.000000	-1.000000	440567.000000	1775765755.038896
-16512.930000	-27748.665000	37532.205000	28835.235000	43826.940000	13844.880000	-1690.515000	-52590.240000	1.713505	0.686657	2.362911	1.076756	0.841877	-1.040399	1.156708	3.345110	0.228900	-1.068200	1.297100	-0.747374	-0.166503	0.632750	-1.000000	-1.000000	-1.000000	-1.000000	-1.000000	-1.000000	-1.000000	61.000000	0.000000	-1.000000	-1.000000	440568.000000	1775765755.038917
-16518.825000	-27759.780000	37521.270000	28823.535000	43820.910000	13856.355000	-1687.815000	-52584.030000	4.019767	0.164057	0.561563	-0.104833	-0.644586	0.472464	-0.634283	5.820387	-4.013380	-1.556520	1.922760	-0.748106	-0.163391	0.632628	-1.000000	-1.000000	-1.000000	-1.000000	-1.000000	-1.000000	-1.000000	61.000000	0.000000	-1.000000	-1.000000	440569.000000	1775765755.042783
-16522.290000	-27768.645000	37511.865000	28815.300000	43817.355000	13868.460000	-1686.465000	-52577.415000	5.202060	-1.520562	-2.885859	-2.877922	-3.142343	1.661809	-2.174242	7.392888	-4.013380	-1.556520	1.922760	-0.748106	-0.163391	0.632628	-1.000000	-1.000000	-1.000000	-1.000000	-1.000000	-1.000000	-1.000000	61.000000	0.000000	-1.000000	-1.000000	440570.000000	1775765755.042801
-16529.580000	-27781.020000	37500.570000	28805.985000	43811.010000	13870.080000	-1691.055000	-52578.765000	3.591388	-4.535847	-7.402797	-6.758587	-5.707825	3.234690	-2.699443	6.784868	-4.013380	-1.556520	1.922760	-0.748106	-0.163391	0.632628	-1.000000	-1.000000	-1.000000	-1.000000	-1.000000	-1.000000	-1.000000	61.000000	0.000000	-1.000000	-1.000000	440571.000000	1775765755.051807
-16537.320000	-27793.755000	37485.720000	28790.415000	43793.595000	13814.235000	-1703.880000	-52587.045000	-0.274352	-7.275970	-10.702612	-9.503955	-7.013114	3.315313	-2.619187	3.460498	-4.013380	-1.556520	1.922760	-0.748106	-0.163391	0.632628	-1.000000	-1.000000	-1.000000	-1.000000	-1.000000	-1.000000	-1.000000	61.000000	0.000000	-1.000000	-1.000000	440572.000000	1775765755.051833
-16522.110000	-27775.800000	37503.630000	28806.480000	43808.445000	13826.070000	-1700.100000	-52588.080000	-3.988530	-7.449712	-10.346569	-8.947402	-6.288788	-0.988548	-2.707444	-1.967613	-4.013380	-1.556520	1.922760	-0.748106	-0.163391	0.632628	-1.000000	-1.000000	-1.000000	-1.000000	-1.000000	-1.000000	-1.000000	61.000000	0.000000	-1.000000	-1.000000	440573.000000	1775765755.051860
-16488.090000	-27735.390000	37546.605000	28847.070000	43848.720000	13861.710000	-1673.100000	-52567.245000	-4.175217	-2.614163	-4.174135	-3.243226	-2.136148	-6.753721	-2.059385	-6.894238	-4.013380	-1.556520	1.922760	-0.748106	-0.163391	0.632628	-1.000000	-1.000000	-1.000000	-1.000000	-1.000000	-1.000000	-1.000000	61.000000	0.000000	-1.000000	-1.000000	440574.000000	1775765755.051872
-16497.090000	-27746.325000	37535.985000	28835.505000	43836.120000	13846.185000	-1679.355000	-52566.975000	0.411876	6.952096	7.143305	7.040973	5.786131	-6.929177	0.939794	-8.033100	-4.013380	-1.556520	1.922760	-0.748106	-0.163391	0.632628	-1.000000	-1.000000	-1.000000	-1.000000	-1.000000	-1.000000	-1.000000	61.000000	0.000000	-1.000000	-1.000000	440575.000000	1775765755.055576
-16511.085000	-27761.715000	37522.620000	28822.995000	43825.185000	13846.320000	-1687.005000	-52576.245000	5.580568	14.983668	16.817041	15.731440	12.716414	-0.813215	4.782731	-5.220322	-4.013380	-1.556520	1.922760	-0.748106	-0.163391	0.632628	-1.000000	-1.000000	-1.000000	-1.000000	-1.000000	-1.000000	-1.000000	61.000000	0.000000	-1.000000	-1.000000	440576.000000	1775765755.055595
-16514.460000	-27767.565000	37518.615000	28818.810000	43821.495000	13843.980000	-1691.685000	-52578.495000	5.451584	14.125922	16.948604	15.591928	12.330792	5.574999	5.643124	-1.813596	-4.013380	-1.556520	1.922760	-0.748106	-0.163391	0.632628	-1.000000	-1.000000	-1.000000	-1.000000	-1.000000	-1.000000	-1.000000	61.000000	0.000000	-1.000000	-1.000000	440577.000000	1775765755.058827
-16515.270000	-27770.580000	37514.790000	28815.255000	43817.220000	13839.705000	-1694.250000	-52583.760000	-0.457490	4.308949	7.171446	6.389966	4.326293	7.624218	2.319354	-0.495189	-4.013380	-1.556520	1.922760	-0.748106	-0.163391	0.632628	-1.000000	-1.000000	-1.000000	-1.000000	-1.000000	-1.000000	-1.000000	61.000000	0.000000	-1.000000	-1.000000	440578.000000	1775765755.058843
-16517.970000	-27776.565000	37506.195000	28805.625000	43806.735000	13818.645000	-1700.280000	-52589.430000	-7.278336	-7.618114	-5.714411	-5.538764	-5.846457	4.781458	-2.706943	-1.090728	-5.417300	-1.800680	2.075360	-0.746946	-0.164123	0.631651	-1.000000	-1.000000	-1.000000	-1.000000	-1.000000	-1.000000	-1.000000	61.000000	0.000000	-1.000000	-1.000000	440579.000000	1775765755.062928
-16523.820000	-27781.020000	37502.145000	28801.260000	43803.675000	13812.660000	-1702.035000	-52588.665000	-10.360385	-14.742097	-14.511347	-13.624708	-12.551398	-1.061110	-6.201040	-1.927372	-5.417300	-1.800680	2.075360	-0.746946	-0.164123	0.631651	-1.000000	-1.000000	-1.000000	-1.000000	-1.000000	-1.000000	-1.000000	61.000000	0.000000	-1.000000	-1.000000	440580.000000	1775765755.062952
-16544.655000	-27793.260000	37493.370000	28794.555000	43801.110000	13825.080000	-1699.065000	-52603.920000	-8.898682	-14.614163	-15.952836	-14.890446	-13.108535	-6.176435	-6.346419	-1.728848	-5.417300	-1.800680	2.075360	-0.746946	-0.164123	0.631651	-1.000000	-1.000000	-1.000000	-1.000000	-1.000000	-1.000000	-1.000000	61.000000	0.000000	-1.000000	-1.000000	440581.000000	1775765755.068339
-16546.635000	-27789.255000	37500.615000	28800.585000	43805.880000	13828.815000	-1701.090000	-52609.680000	-5.088037	-8.978396	-10.822223	-9.974520	-7.975031	-6.591067	-3.267255	-0.667202	-5.417300	-1.800680	2.075360	-0.746946	-0.164123	0.631651	-1.000000	-1.000000	-1.000000	-1.000000	-1.000000	-1.000000	-1.000000	61.000000	0.000000	-1.000000	-1.000000	440582.000000	1775765755.068364
-16522.785000	-27767.115000	37524.105000	28821.645000	43823.160000	13836.330000	-1710.720000	-52592.535000	-0.351686	-0.604409	-1.660111	-1.256461	0.429587	-1.676948	1.021766	0.894675	-5.417300	-1.800680	2.075360	-0.746946	-0.164123	0.631651	-1.000000	-1.000000	-1.000000	-1.000000	-1.000000	-1.000000	-1.000000	61.000000	0.000000	-1.000000	-1.000000	440583.000000	1775765755.071635
-16498.170000	-27745.515000	37545.750000	28842.030000	43841.340000	13850.280000	-1703.565000	-52570.080000	6.057075	8.599479	8.849511	8.590781	9.191735	5.276968	4.029105	3.925803	-5.417300	-1.800680	2.075360	-0.746946	-0.164123	0.631651	-1.000000	-1.000000	-1.000000	-1.000000	-1.000000	-1.000000	-1.000000	61.000000	0.000000	-1.000000	-1.000000	440584.000000	1775765755.071661
-16506.180000	-27765.090000	37524.735000	28819.935000	43818.030000	13822.605000	-1708.470000	-52564.095000	13.269028	15.697761	16.687233	15.726424	14.763261	9.632053	4.864660	8.629743	-5.417300	-1.800680	2.075360	-0.746946	-0.164123	0.631651	-1.000000	-1.000000	-1.000000	-1.000000	-1.000000	-1.000000	-1.000000	61.000000	0.000000	-1.000000	-1.000000	440585.000000	1775765755.075521
-16510.860000	-27773.055000	37517.130000	28813.950000	43814.340000	13818.420000	-1690.650000	-52569.495000	16.533459	16.002804	16.669911	15.388719	13.314493	7.787530	4.384940	11.932166	-5.417300	-1.800680	2.075360	-0.746946	-0.164123	0.631651	-1.000000	-1.000000	-1.000000	-1.000000	-1.000000	-1.000000	-1.000000	61.000000	0.000000	-1.000000	-1.000000	440586.000000	1775765755.075538
-16506.225000	-27761.445000	37531.260000	28829.655000	43833.150000	13844.295000	-1666.755000	-52574.760000	12.066321	8.115609	7.836281	6.957890	5.075149	0.865811	4.257415	9.793615	-5.417300	-1.800680	2.075360	-0.746946	-0.164123	0.631651	-1.000000	-1.000000	-1.000000	-1.000000	-1.000000	-1.000000	-1.000000	61.000000	0.000000	-1.000000	-1.000000	440587.000000	1775765755.081726
-16522.605000	-27770.580000	37523.790000	28821.195000	43824.870000	13850.235000	-1668.510000	-52595.145000	1.653846	-3.047363	-3.994100	-3.879610	-4.280911	-4.990171	5.226790	1.494358	-5.417300	-1.800680	2.075360	-0.746946	-0.164123	0.631651	-1.000000	-1.000000	-1.000000	-1.000000	-1.000000	-1.000000	-1.000000	61.000000	0.000000	-1.000000	-1.000000	440588.000000	1775765755.081750
-16527.285000	-27772.020000	37517.850000	28816.830000	43821.450000	13854.285000	-1665.945000	-52587.495000	-9.530195	-11.254337	-12.187921	-11.106428	-9.719804	-5.526158	5.372752	-9.193573	-2.533160	-2.838360	2.289000	-0.746214	-0.168579	0.633604	-1.000000	-1.000000	-1.000000	-1.000000	-1.000000	-1.000000	-1.000000	61.000000	0.000000	-1.000000	-1.000000	440589.000000	1775765755.082887
-16521.120000	-27765.990000	37515.285000	28816.110000	43820.325000	13847.355000	-1673.505000	-52570.530000	-16.438354	-13.570698	-14.375175	-12.869830	-10.542177	-2.544476	2.152578	-15.845591	-2.533160	-2.838360	2.289000	-0.746214	-0.168579	0.633604	-1.000000	-1.000000	-1.000000	-1.000000	-1.000000	-1.000000	-1.000000	61.000000	0.000000	-1.000000	-1.000000	440590.000000	1775765755.082904
-16512.480000	-27768.285000	37527.210000	28825.605000	43836.660000	13857.075000	-1675.260000	-52563.420000	-15.827886	-10.224824	-11.175789	-9.894024	-7.816809	-0.095638	-4.196472	-13.822125	-2.533160	-2.838360	2.289000	-0.746214	-0.168579	0.633604	-1.000000	-1.000000	-1.000000	-1.000000	-1.000000	-1.000000	-1.000000	61.000000	0.000000	-1.000000	-1.000000	440591.000000	1775765755.092163
-16509.735000	-27769.005000	37529.550000	28826.595000	43835.760000	13848.885000	-1686.555000	-52562.565000	-8.179592	-3.778691	-4.253662	-3.783776	-2.621498	0.028987	-10.705860	-4.699487	-2.533160	-2.838360	2.289000	-0.746214	-0.168579	0.633604	-1.000000	-1.000000	-1.000000	-1.000000	-1.000000	-1.000000	-1.000000	61.000000	0.000000	-1.000000	-1.000000	440592.000000	1775765755.092188
-16513.605000	-27770.175000	37529.235000	28825.695000	43830.585000	13840.470000	-1693.620000	-52571.070000	1.957068	2.277339	3.504231	2.819398	2.827962	-1.703924	-14.178791	4.912803	-2.533160	-2.838360	2.289000	-0.746214	-0.168579	0.633604	-1.000000	-1.000000	-1.000000	-1.000000	-1.000000	-1.000000	-1.000000	61.000000	0.000000	-1.000000	-1.000000	440593.000000	1775765755.092286
-16520.445000	-27777.195000	37523.655000	28819.980000	43826.580000	13836.195000	-1693.935000	-52576.155000	8.910582	5.530088	8.496335	6.875670	5.533019	-4.117188	-12.964295	9.060339	-2.533160	-2.838360	2.289000	-0.746214	-0.168579	0.633604	-1.000000	-1.000000	-1.000000	-1.000000	-1.000000	-1.000000	-1.000000	61.000000	0.000000	-1.000000	-1.000000	440594.000000	1775765755.092306
-16513.695000	-27771.795000	37529.685000	28826.280000	43833.510000	13843.485000	-1680.795000	-52569.675000	9.902447	5.569828	8.791552	6.981500	4.538516	-5.393874	-7.005132	6.792598	-2.533160	-2.838360	2.289000	-0.746214	-0.168579	0.633604	-1.000000	-1.000000	-1.000000	-1.000000	-1.000000	-1.000000	-1.000000	61.000000	0.000000	-1.000000	-1.000000	440595.000000	1775765755.110478
-16516.575000	-27773.910000	37527.750000	28824.705000	43834.140000	13857.930000	-1672.515000	-52571.070000	6.431857	3.766586	5.500584	4.333445	1.794870	-3.564479	2.219331	1.729155	-2.533160	-2.838360	2.289000	-0.746214	-0.168579	0.633604	-1.000000	-1.000000	-1.000000	-1.000000	-1.000000	-1.000000	-1.000000	61.000000	0.000000	-1.000000	-1.000000	440596.000000	1775765755.110505
-16524.945000	-27784.080000	37517.805000	28813.770000	43821.900000	13847.580000	-1675.620000	-52576.695000	1.642522	1.647421	1.034647	0.946736	-0.552823	1.284819	11.206463	-2.206425	-2.533160	-2.838360	2.289000	-0.746214	-0.168579	0.633604	-1.000000	-1.000000	-1.000000	-1.000000	-1.000000	-1.000000	-1.000000	61.000000	0.000000	-1.000000	-1.000000	440597.000000	1775765755.110528
-16524.765000	-27780.615000	37524.375000	28821.240000	43829.820000	13854.195000	-1674.360000	-52578.315000	-2.380333	-0.252544	-2.804311	-1.957249	-1.969783	6.090943	15.590142	-3.699456	-2.533160	-2.838360	2.289000	-0.746214	-0.168579	0.633604	-1.000000	-1.000000	-1.000000	-1.000000	-1.000000	-1.000000	-1.000000	61.000000	0.000000	-1.000000	-1.000000	440598.000000	1775765755.110540
-16524.720000	-27780.480000	37524.870000	28820.070000	43828.695000	13845.915000	-1684.845000	-52578.270000	-4.484079	-1.460506	-4.629350	-3.375966	-2.283257	7.628598	13.164482	-3.202227	0.396760	-2.136400	2.014320	-0.743834	-0.172302	0.635374	-1.000000	-1.000000	-1.000000	-1.000000	-1.000000	-1.000000	-1.000000	61.000000	0.000000	-1.000000	-1.000000	440599.000000	1775765755.110552
-16521.390000	-27778.410000	37523.520000	28818.405000	43825.770000	13840.785000	-1687.095000	-52571.205000	-4.057229	-1.338844	-3.835647	-2.773302	-1.339380	5.171957	5.414582	-1.333962	0.396760	-2.136400	2.014320	-0.743834	-0.172302	0.635374	-1.000000	-1.000000	-1.000000	-1.000000	-1.000000	-1.000000	-1.000000	61.000000	0.000000	-1.000000	-1.000000	440600.000000	1775765755.110561
-16522.065000	-27780.840000	37524.285000	28820.295000	43828.560000	13830.255000	-1681.875000	-52570.710000	-1.589830	-0.124025	-1.430370	-0.927870	0.178441	0.204776	-3.402983	1.303555	0.396760	-2.136400	2.014320	-0.743834	-0.172302	0.635374	-1.000000	-1.000000	-1.000000	-1.000000	-1.000000	-1.000000	-1.000000	61.000000	0.000000	-1.000000	-1.000000	440601.000000	1775765755.110572
-16528.770000	-27790.920000	37516.590000	28815.660000	43828.830000	13838.580000	-1681.830000	-52577.010000	1.233494	0.924303	0.799555	0.843181	1.433133	-4.510443	-8.742439	3.492724	0.396760	-2.136400	2.014320	-0.743834	-0.172302	0.635374	-1.000000	-1.000000	-1.000000	-1.000000	-1.000000	-1.000000	-1.000000	61.000000	0.000000	-1.000000	-1.000000	440602.000000	1775765755.110582
-16525.080000	-27788.445000	37517.130000	28814.445000	43829.955000	13862.745000	-1683.405000	-52576.740000	2.669085	0.699236	1.618028	1.612358	2.077745	-5.695152	-8.819002	3.782218	0.396760	-2.136400	2.014320	-0.743834	-0.172302	0.635374	-1.000000	-1.000000	-1.000000	-1.000000	-1.000000	-1.000000	-1.000000	61.000000	0.000000	-1.000000	-1.000000	440603.000000	1775765755.116552
-16529.490000	-27792.540000	37514.610000	28810.980000	43825.860000	13839.885000	-1686.195000	-52578.225000	2.338874	-0.470307	1.079666	1.189151	1.942767	-2.271277	-5.303275	2.018612	0.396760	-2.136400	2.014320	-0.743834	-0.172302	0.635374	-1.000000	-1.000000	-1.000000	-1.000000	-1.000000	-1.000000	-1.000000	61.000000	0.000000	-1.000000	-1.000000	440604.000000	1775765755.116599
-16543.935000	-27797.715000	37511.595000	28807.650000	43822.125000	13843.305000	-1686.870000	-52591.320000	0.787730	-1.439285	0.141370	0.096999	0.917042	2.339942	-1.120245	-0.675258	0.396760	-2.136400	2.014320	-0.743834	-0.172302	0.635374	-1.000000	-1.000000	-1.000000	-1.000000	-1.000000	-1.000000	-1.000000	61.000000	0.000000	-1.000000	-1.000000	440605.000000	1775765755.116629
-16553.295000	-27797.535000	37514.205000	28809.450000	43824.015000	13845.330000	-1691.595000	-52607.340000	-1.600264	-1.614799	-0.358454	-0.845962	-0.651050	4.086731	1.703202	-3.450601	0.396760	-2.136400	2.014320	-0.743834	-0.172302	0.635374	-1.000000	-1.000000	-1.000000	-1.000000	-1.000000	-1.000000	-1.000000	61.000000	0.000000	-1.000000	-1.000000	440606.000000	1775765755.116637
-16547.625000	-27793.710000	37520.460000	28815.705000	43830.315000	13848.975000	-1691.145000	-52611.840000	-3.792713	-0.849902	0.062791	-0.819420	-1.682523	2.823397	2.621196	-5.712991	0.396760	-2.136400	2.014320	-0.743834	-0.172302	0.635374	-1.000000	-1.000000	-1.000000	-1.000000	-1.000000	-1.000000	-1.000000	61.000000	0.000000	-1.000000	-1.000000	440607.000000	1775765755.119593
-16543.305000	-27791.055000	37524.015000	28819.170000	43832.520000	13844.520000	-1690.110000	-52608.330000	-3.739580	0.815072	1.437224	0.516038	-1.205703	0.614455	2.272954	-6.024482	0.396760	-2.136400	2.014320	-0.743834	-0.172302	0.635374	-1.000000	-1.000000	-1.000000	-1.000000	-1.000000	-1.000000	-1.000000	61.000000	0.000000	-1.000000	-1.000000	440608.000000	1775765755.119618
-16534.710000	-27784.035000	37532.520000	28826.865000	43838.775000	13847.445000	-1684.125000	-52590.240000	-0.444768	2.826178	3.072848	2.514211	0.532547	-1.166997	1.797658	-2.714481	1.693860	-2.823100	2.121140	-0.741880	-0.171508	0.637694	-1.000000	-1.000000	-1.000000	-1.000000	-1.000000	-1.000000	-1.000000	61.000000	0.000000	-1.000000	-1.000000	440609.000000	1775765755.134771
-16531.065000	-27782.730000	37534.455000	28829.700000	43840.935000	13850.010000	-1682.100000	-52574.130000	4.518091	4.221132	3.926218	3.930899	2.298271	-1.984558	1.901436	4.159959	1.693860	-2.823100	2.121140	-0.741880	-0.171508	0.637694	-1.000000	-1.000000	-1.000000	-1.000000	-1.000000	-1.000000	-1.000000	61.000000	0.000000	-1.000000	-1.000000	440610.000000	1775765755.134798
-16534.710000	-27790.200000	37525.995000	28821.150000	43832.340000	13844.205000	-1685.565000	-52571.835000	7.987863	3.933312	3.017135	3.547603	2.701762	-1.815401	2.208334	11.558061	1.693860	-2.823100	2.121140	-0.741880	-0.171508	0.637694	-1.000000	-1.000000	-1.000000	-1.000000	-1.000000	-1.000000	-1.000000	61.000000	0.000000	-1.000000	-1.000000	440611.000000	1775765755.134827
-16536.960000	-27798.705000	37516.230000	28810.395000	43821.765000	13834.755000	-1690.650000	-52575.615000	7.448392	1.266239	-0.210447	0.620915	0.783886	-1.441512	1.614608	14.620854	1.693860	-2.823100	2.121140	-0.741880	-0.171508	0.637694	-1.000000	-1.000000	-1.000000	-1.000000	-1.000000	-1.000000	-1.000000	61.000000	0.000000	-1.000000	-1.000000	440612.000000	1775765755.134839
-16553.880000	-27815.625000	37502.370000	28798.335000	43812.765000	13823.325000	-1698.705000	-52585.695000	2.682023	-3.299777	-5.045516	-4.235910	-3.061935	-1.867820	-0.469213	10.281428	1.693860	-2.823100	2.121140	-0.741880	-0.171508	0.637694	-1.000000	-1.000000	-1.000000	-1.000000	-1.000000	-1.000000	-1.000000	61.000000	0.000000	-1.000000	-1.000000	440613.000000	1775765755.134872
-16562.880000	-27822.330000	37497.690000	28795.095000	43810.920000	13818.150000	-1704.915000	-52591.815000	-4.300374	-7.888220	-9.259418	-8.660474	-6.663353	-3.024047	-3.354942	0.034277	1.693860	-2.823100	2.121140	-0.741880	-0.171508	0.637694	-1.000000	-1.000000	-1.000000	-1.000000	-1.000000	-1.000000	-1.000000	61.000000	0.000000	-1.000000	-1.000000	440614.000000	1775765755.134883
-16559.640000	-27818.505000	37501.335000	28796.040000	43808.580000	13814.685000	-1713.555000	-52595.190000	-10.017060	-9.769933	-10.087162	-9.723563	-7.410715	-3.567184	-5.550789	-10.841481	1.693860	-2.823100	2.121140	-0.741880	-0.171508	0.637694	-1.000000	-1.000000	-1.000000	-1.000000	-1.000000	-1.000000	-1.000000	61.000000	0.000000	-1.000000	-1.000000	440615.000000	1775765755.136011
-16524.315000	-27775.845000	37544.985000	28835.910000	43844.220000	13837.905000	-1693.485000	-52578.720000	-10.369808	-6.190850	-5.337365	-5.388376	-3.736713	-1.752056	-5.380931	-16.450820	1.693860	-2.823100	2.121140	-0.741880	-0.171508	0.637694	-1.000000	-1.000000	-1.000000	-1.000000	-1.000000	-1.000000	-1.000000	61.000000	0.000000	-1.000000	-1.000000	440616.000000	1775765755.136028
-16513.335000	-27765.000000	37560.060000	28849.725000	43857.405000	13841.055000	-1682.010000	-52562.070000	-3.406011	3.384368	4.939807	4.134519	4.140946	3.108583	-1.565803	-13.524658	1.693860	-2.823100	2.121140	-0.741880	-0.171508	0.637694	-1.000000	-1.000000	-1.000000	-1.000000	-1.000000	-1.000000	-1.000000	61.000000	0.000000	-1.000000	-1.000000	440617.000000	1775765755.154233
-16528.815000	-27784.260000	37541.565000	28832.490000	43843.320000	13827.105000	-1690.605000	-52570.395000	6.884602	13.873063	15.568515	14.062718	12.390202	8.552405	4.653877	-3.954958	1.693860	-2.823100	2.121140	-0.741880	-0.171508	0.637694	-1.000000	-1.000000	-1.000000	-1.000000	-1.000000	-1.000000	-1.000000	61.000000	0.000000	-1.000000	-1.000000	440618.000000	1775765755.154258
-16535.970000	-27801.270000	37519.065000	28809.135000	43823.385000	13823.550000	-1685.700000	-52573.725000	12.349504	16.625088	17.889387	16.404739	14.290292	9.975503	9.043090	5.693954	-1.312360	-2.289000	2.548420	-0.740904	-0.166076	0.639036	-1.000000	-1.000000	-1.000000	-1.000000	-1.000000	-1.000000	-1.000000	61.000000	0.000000	-1.000000	-1.000000	440619.000000	1775765755.154285
-16538.310000	-27803.565000	37516.770000	28806.480000	43826.670000	13847.130000	-1675.620000	-52574.445000	8.713177	8.222017	8.344540	7.732996	6.852020	6.105127	8.665260	9.547068	-1.312360	-2.289000	2.548420	-0.740904	-0.166076	0.639036	-1.000000	-1.000000	-1.000000	-1.000000	-1.000000	-1.000000	-1.000000	61.000000	0.000000	-1.000000	-1.000000	440620.000000	1775765755.154297
-16534.305000	-27799.830000	37522.125000	28810.755000	43831.575000	13853.295000	-1668.825000	-52566.165000	-0.472601	-5.360604	-6.674252	-6.117134	-4.892680	0.816352	4.710995	7.173720	-1.312360	-2.289000	2.548420	-0.740904	-0.166076	0.639036	-1.000000	-1.000000	-1.000000	-1.000000	-1.000000	-1.000000	-1.000000	61.000000	0.000000	-1.000000	-1.000000	440621.000000	1775765755.154313
-16541.505000	-27811.845000	37511.460000	28797.750000	43815.735000	13833.630000	-1694.295000	-52578.900000	-8.394664	-14.968438	-17.006413	-15.689581	-13.047029	-2.554445	-0.461219	2.096557	-1.312360	-2.289000	2.548420	-0.740904	-0.166076	0.639036	-1.000000	-1.000000	-1.000000	-1.000000	-1.000000	-1.000000	-1.000000	61.000000	0.000000	-1.000000	-1.000000	440622.000000	1775765755.154323
-16542.540000	-27817.245000	37508.265000	28795.860000	43815.825000	13835.655000	-1702.665000	-52589.475000	-11.009001	-16.246701	-17.728546	-16.380367	-14.152172	-4.752059	-6.093251	-2.700990	-1.312360	-2.289000	2.548420	-0.740904	-0.166076	0.639036	-1.000000	-1.000000	-1.000000	-1.000000	-1.000000	-1.000000	-1.000000	61.000000	0.000000	-1.000000	-1.000000	440623.000000	1775765755.154337
-16546.455000	-27817.065000	37510.335000	28798.335000	43819.470000	13840.785000	-1701.585000	-52609.590000	-8.483505	-10.681036	-10.699157	-9.786345	-9.463399	-6.722160	-11.000187	-6.290985	-1.312360	-2.289000	2.548420	-0.740904	-0.166076	0.639036	-1.000000	-1.000000	-1.000000	-1.000000	-1.000000	-1.000000	-1.000000	61.000000	0.000000	-1.000000	-1.000000	440624.000000	1775765755.154348
-16552.215000	-27810.630000	37518.930000	28807.335000	43829.010000	13848.120000	-1695.780000	-52616.745000	-3.327664	-1.906559	-0.433908	0.052806	-1.625220	-6.990709	-12.109507	-8.270901	-1.312360	-2.289000	2.548420	-0.740904	-0.166076	0.639036	-1.000000	-1.000000	-1.000000	-1.000000	-1.000000	-1.000000	-1.000000	61.000000	0.000000	-1.000000	-1.000000	440625.000000	1775765755.160950
-16559.190000	-27805.815000	37525.095000	28814.085000	43835.130000	13856.220000	-1685.475000	-52598.970000	1.562621	6.688889	8.914660	9.180971	6.481878	-4.260503	-7.414894	-7.246041	-1.312360	-2.289000	2.548420	-0.740904	-0.166076	0.639036	-1.000000	-1.000000	-1.000000	-1.000000	-1.000000	-1.000000	-1.000000	61.000000	0.000000	-1.000000	-1.000000	440626.000000	1775765755.160976
-16561.665000	-27802.170000	37532.700000	28821.285000	43841.340000	13862.925000	-1685.205000	-52591.860000	4.374116	12.380752	14.383861	14.530637	11.944656	0.502184	1.289502	-1.679090	-1.312360	-2.289000	2.548420	-0.740904	-0.166076	0.639036	-1.000000	-1.000000	-1.000000	-1.000000	-1.000000	-1.000000	-1.000000	61.000000	0.000000	-1.000000	-1.000000	440627.000000	1775765755.161004
-16546.455000	-27799.470000	37535.490000	28823.760000	43839.360000	13854.600000	-1687.140000	-52571.565000	5.336226	13.489541	14.581517	14.531733	12.697882	4.585031	9.249994	7.260772	-1.312360	-2.289000	2.548420	-0.740904	-0.166076	0.639036	-1.000000	-1.000000	-1.000000	-1.000000	-1.000000	-1.000000	-1.000000	61.000000	0.000000	-1.000000	-1.000000	440628.000000	1775765755.161016
-16540.245000	-27808.875000	37523.610000	28812.195000	43827.930000	13842.045000	-1693.440000	-52565.310000	6.025467	9.840640	9.691736	9.319467	8.295759	5.145019	12.078863	15.278505	-2.227960	-2.365300	2.655240	-0.739561	-0.163635	0.641417	-1.000000	-1.000000	-1.000000	-1.000000	-1.000000	-1.000000	-1.000000	61.000000	0.000000	-1.000000	-1.000000	440629.000000	1775765755.164406
-16545.960000	-27813.825000	37519.560000	28809.945000	43826.940000	13841.415000	-1691.010000	-52574.130000	6.800429	2.750316	1.273117	0.628118	0.352266	1.562573	8.857805	17.523590	-2.227960	-2.365300	2.655240	-0.739561	-0.163635	0.641417	-1.000000	-1.000000	-1.000000	-1.000000	-1.000000	-1.000000	-1.000000	61.000000	0.000000	-1.000000	-1.000000	440630.000000	1775765755.164431
-16544.205000	-27811.980000	37523.520000	28814.310000	43830.945000	13846.050000	-1683.315000	-52569.675000	6.013279	-4.974351	-7.392540	-8.026318	-7.396444	-3.303673	2.556307	11.717876	-2.227960	-2.365300	2.655240	-0.739561	-0.163635	0.641417	-1.000000	-1.000000	-1.000000	-1.000000	-1.000000	-1.000000	-1.000000	61.000000	0.000000	-1.000000	-1.000000	440631.000000	1775765755.167127
-16543.530000	-27808.875000	37527.165000	28815.930000	43831.170000	13844.520000	-1686.420000	-52570.620000	2.686380	-9.791596	-12.191470	-12.575796	-10.984510	-5.530513	-2.705963	0.456239	-2.227960	-2.365300	2.655240	-0.739561	-0.163635	0.641417	-1.000000	-1.000000	-1.000000	-1.000000	-1.000000	-1.000000	-1.000000	61.000000	0.000000	-1.000000	-1.000000	440632.000000	1775765755.167148
-16548.165000	-27813.285000	37522.800000	28811.295000	43826.310000	13837.005000	-1703.115000	-52575.210000	-1.967970	-9.773194	-11.189265	-11.411549	-9.283015	-3.949139	-5.276720	-10.507483	-2.227960	-2.365300	2.655240	-0.739561	-0.163635	0.641417	-1.000000	-1.000000	-1.000000	-1.000000	-1.000000	-1.000000	-1.000000	61.000000	0.000000	-1.000000	-1.000000	440633.000000	1775765755.176102
-16546.140000	-27811.980000	37524.150000	28812.330000	43825.320000	13834.530000	-1716.615000	-52574.220000	-5.902813	-5.999085	-6.090907	-6.395154	-4.466731	-0.568875	-6.405614	-16.527163	-2.227960	-2.365300	2.655240	-0.739561	-0.163635	0.641417	-1.000000	-1.000000	-1.000000	-1.000000	-1.000000	-1.000000	-1.000000	61.000000	0.000000	-1.000000	-1.000000	440634.000000	1775765755.176128
-16553.655000	-27818.505000	37518.435000	28805.175000	43818.795000	13828.995000	-1719.270000	-52582.545000	-7.666331	-1.215858	-0.304139	-0.762866	0.361564	2.149403	-7.132207	-16.175590	-2.227960	-2.365300	2.655240	-0.739561	-0.163635	0.641417	-1.000000	-1.000000	-1.000000	-1.000000	-1.000000	-1.000000	-1.000000	61.000000	0.000000	-1.000000	-1.000000	440635.000000	1775765755.176156
-16543.755000	-27811.980000	37522.935000	28808.820000	43823.295000	13837.320000	-1698.480000	-52575.705000	-6.815244	2.357274	3.643566	3.150950	3.353713	3.381477	-6.038099	-10.825843	-2.227960	-2.365300	2.655240	-0.739561	-0.163635	0.641417	-1.000000	-1.000000	-1.000000	-1.000000	-1.000000	-1.000000	-1.000000	61.000000	0.000000	-1.000000	-1.000000	440636.000000	1775765755.176168
-16537.770000	-27809.820000	37526.805000	28813.860000	43831.170000	13845.915000	-1676.115000	-52567.020000	-3.573338	4.154538	5.224817	4.909162	4.608398	3.955079	-0.848074	-2.914936	-2.227960	-2.365300	2.655240	-0.739561	-0.163635	0.641417	-1.000000	-1.000000	-1.000000	-1.000000	-1.000000	-1.000000	-1.000000	61.000000	0.000000	-1.000000	-1.000000	440637.000000	1775765755.179078
-16551.945000	-27823.140000	37516.005000	28805.130000	43824.645000	13832.955000	-1695.015000	-52580.835000	0.753086	4.380038	5.014874	5.164215	4.993413	4.444951	7.226555	4.822729	-2.227960	-2.365300	2.655240	-0.739561	-0.163635	0.641417	-1.000000	-1.000000	-1.000000	-1.000000	-1.000000	-1.000000	-1.000000	61.000000	0.000000	-1.000000	-1.000000	440638.000000	1775765755.179102
-16556.760000	-27816.525000	37525.770000	28814.850000	43832.385000	13831.515000	-1714.005000	-52591.185000	3.485806	3.008184	3.480553	4.313303	4.583379	3.775707	12.101161	9.096913	-1.175020	-1.434440	1.541260	-0.737913	-0.165893	0.643858	-1.000000	-1.000000	-1.000000	-1.000000	-1.000000	-1.000000	-1.000000	61.000000	0.000000	-1.000000	-1.000000	440639.000000	1775765755.182845
-16564.320000	-27818.730000	37523.385000	28811.700000	43827.120000	13822.470000	-1722.645000	-52602.615000	2.957601	0.758229	1.437374	2.782190	3.115400	1.027293	8.790634	7.993058	-1.175020	-1.434440	1.541260	-0.737913	-0.165893	0.643858	-1.000000	-1.000000	-1.000000	-1.000000	-1.000000	-1.000000	-1.000000	61.000000	0.000000	-1.000000	-1.000000	440640.000000	1775765755.182862
-16553.205000	-27813.600000	37528.875000	28816.650000	43832.745000	13833.900000	-1700.415000	-52596.495000	0.576143	-0.847664	-0.029219	1.217573	0.889668	-2.510019	-0.080241	3.302936	-1.175020	-1.434440	1.541260	-0.737913	-0.165893	0.643858	-1.000000	-1.000000	-1.000000	-1.000000	-1.000000	-1.000000	-1.000000	61.000000	0.000000	-1.000000	-1.000000	440641.000000	1775765755.186866
-16554.330000	-27813.600000	37529.685000	28817.910000	43835.715000	13842.585000	-1682.550000	-52591.320000	-0.726375	-1.022501	-0.554504	-0.027393	-1.246718	-4.122089	-6.477140	-0.673174	-1.175020	-1.434440	1.541260	-0.737913	-0.165893	0.643858	-1.000000	-1.000000	-1.000000	-1.000000	-1.000000	-1.000000	-1.000000	61.000000	0.000000	-1.000000	-1.000000	440642.000000	1775765755.186888
-16557.120000	-27815.535000	37529.370000	28818.675000	43838.685000	13858.020000	-1681.065000	-52592.670000	0.229861	-0.271073	-0.537381	-0.883345	-2.391078	-2.181763	-5.517879	-1.038804	-1.175020	-1.434440	1.541260	-0.737913	-0.165893	0.643858	-1.000000	-1.000000	-1.000000	-1.000000	-1.000000	-1.000000	-1.000000	61.000000	0.000000	-1.000000	-1.000000	440643.000000	1775765755.195033
-16549.290000	-27811.395000	37532.835000	28820.340000	43838.460000	13859.235000	-1684.260000	-52587.945000	2.140923	0.372548	-0.567482	-1.455215	-2.394641	2.054094	-0.001217	1.430903	-1.175020	-1.434440	1.541260	-0.737913	-0.165893	0.643858	-1.000000	-1.000000	-1.000000	-1.000000	-1.000000	-1.000000	-1.000000	61.000000	0.000000	-1.000000	-1.000000	440644.000000	1775765755.195059
-16548.030000	-27812.880000	37530.945000	28815.975000	43831.485000	13849.920000	-1696.725000	-52581.690000	3.460688	0.412999	-0.865564	-1.913365	-2.022909	5.012700	3.678928	4.103689	-1.175020	-1.434440	1.541260	-0.737913	-0.165893	0.643858	-1.000000	-1.000000	-1.000000	-1.000000	-1.000000	-1.000000	-1.000000	61.000000	0.000000	-1.000000	-1.000000	440645.000000	1775765755.196497
-16551.405000	-27814.995000	37530.180000	28815.210000	43830.810000	13847.580000	-1702.845000	-52581.150000	3.438026	-0.074817	-1.328704	-2.370126	-2.115717	3.689168	1.995325	5.067602	-1.175020	-1.434440	1.541260	-0.737913	-0.165893	0.643858	-1.000000	-1.000000	-1.000000	-1.000000	-1.000000	-1.000000	-1.000000	61.000000	0.000000	-1.000000	-1.000000	440646.000000	1775765755.196515
-16552.170000	-27820.440000	37525.365000	28808.370000	43823.565000	13831.470000	-1704.915000	-52578.360000	1.778029	-0.981818	-1.853719	-2.768860	-2.671523	-1.637447	-3.348336	3.711580	-1.175020	-1.434440	1.541260	-0.737913	-0.165893	0.643858	-1.000000	-1.000000	-1.000000	-1.000000	-1.000000	-1.000000	-1.000000	61.000000	0.000000	-1.000000	-1.000000	440647.000000	1775765755.198880
-16560.405000	-27829.620000	37517.580000	28801.755000	43820.280000	13841.730000	-1701.945000	-52583.265000	-1.094880	-2.189704	-2.390698	-2.950684	-3.007177	-7.574922	-7.692049	0.490632	-1.175020	-1.434440	1.541260	-0.737913	-0.165893	0.643858	-1.000000	-1.000000	-1.000000	-1.000000	-1.000000	-1.000000	-1.000000	61.000000	0.000000	-1.000000	-1.000000	440648.000000	1775765755.198897
-16569.990000	-27837.990000	37510.920000	28797.480000	43818.705000	13846.320000	-1706.220000	-52589.250000	-4.177077	-3.406423	-2.859482	-2.747821	-2.469504	-9.862390	-7.652517	-3.492725	0.518840	0.763000	1.327620	-0.737242	-0.165039	0.643309	-1.000000	-1.000000	-1.000000	-1.000000	-1.000000	-1.000000	-1.000000	61.000000	0.000000	-1.000000	-1.000000	440649.000000	1775765755.203080
-16579.845000	-27846.585000	37504.215000	28789.515000	43809.840000	13829.130000	-1722.285000	-52597.215000	-6.441030	-4.072401	-2.947579	-1.952919	-0.932438	-6.875853	-3.800133	-6.966067	0.518840	0.763000	1.327620	-0.737242	-0.165039	0.643309	-1.000000	-1.000000	-1.000000	-1.000000	-1.000000	-1.000000	-1.000000	61.000000	0.000000	-1.000000	-1.000000	440650.000000	1775765755.203105
-16579.170000	-27848.340000	37503.315000	28788.570000	43806.375000	13813.920000	-1730.925000	-52597.440000	-6.850685	-3.479850	-2.137713	-0.507671	0.944328	-1.615765	0.498653	-8.621819	0.518840	0.763000	1.327620	-0.737242	-0.165039	0.643309	-1.000000	-1.000000	-1.000000	-1.000000	-1.000000	-1.000000	-1.000000	61.000000	0.000000	-1.000000	-1.000000	440651.000000	1775765755.208351
-16564.995000	-27831.915000	37519.245000	28801.665000	43817.355000	13824.945000	-1729.170000	-52598.340000	-4.310549	-0.889061	0.185480	1.704322	2.617448	2.128283	2.912502	-7.424672	0.518840	0.763000	1.327620	-0.737242	-0.165039	0.643309	-1.000000	-1.000000	-1.000000	-1.000000	-1.000000	-1.000000	-1.000000	61.000000	0.000000	-1.000000	-1.000000	440652.000000	1775765755.208373
-16540.380000	-27804.735000	37546.425000	28826.730000	43840.980000	13849.920000	-1704.195000	-52580.970000	1.665724	4.246257	4.583940	5.173208	4.731764	4.543376	4.382103	-3.150666	0.518840	0.763000	1.327620	-0.737242	-0.165039	0.643309	-1.000000	-1.000000	-1.000000	-1.000000	-1.000000	-1.000000	-1.000000	61.000000	0.000000	-1.000000	-1.000000	440653.000000	1775765755.212137
-16550.820000	-27813.780000	37533.330000	28814.310000	43824.420000	13832.910000	-1720.485000	-52585.650000	9.124068	10.511591	9.843987	9.170944	7.364115	7.419974	6.601989	3.035042	0.518840	0.763000	1.327620	-0.737242	-0.165039	0.643309	-1.000000	-1.000000	-1.000000	-1.000000	-1.000000	-1.000000	-1.000000	61.000000	0.000000	-1.000000	-1.000000	440654.000000	1775765755.212158
-16562.610000	-27825.705000	37525.545000	28807.965000	43821.000000	13828.500000	-1726.515000	-52596.135000	13.031658	13.288172	11.742276	10.293741	7.909292	9.179609	8.142296	8.022921	0.518840	0.763000	1.327620	-0.737242	-0.165039	0.643309	-1.000000	-1.000000	-1.000000	-1.000000	-1.000000	-1.000000	-1.000000	61.000000	0.000000	-1.000000	-1.000000	440655.000000	1775765755.215941
-16559.640000	-27822.285000	37534.140000	28818.315000	43840.035000	13865.805000	-1705.950000	-52596.135000	9.585120	8.831756	7.194203	6.005313	4.424144	7.646013	6.631171	8.574656	0.518840	0.763000	1.327620	-0.737242	-0.165039	0.643309	-1.000000	-1.000000	-1.000000	-1.000000	-1.000000	-1.000000	-1.000000	61.000000	0.000000	-1.000000	-1.000000	440656.000000	1775765755.215960
-16556.220000	-27820.305000	37536.570000	28816.830000	43835.445000	13870.665000	-1698.480000	-52591.095000	0.942154	-0.697111	-1.259546	-1.440092	-0.878303	4.649824	3.217247	4.837501	0.518840	0.763000	1.327620	-0.737242	-0.165039	0.643309	-1.000000	-1.000000	-1.000000	-1.000000	-1.000000	-1.000000	-1.000000	61.000000	0.000000	-1.000000	-1.000000	440657.000000	1775765755.218916
-16567.605000	-27830.925000	37528.920000	28809.405000	43825.320000	13836.375000	-1713.420000	-52601.265000	-7.212691	-9.469471	-8.416569	-7.748826	-5.071001	1.732316	0.143564	-0.062800	0.518840	0.763000	1.327620	-0.737242	-0.165039	0.643309	-1.000000	-1.000000	-1.000000	-1.000000	-1.000000	-1.000000	-1.000000	61.000000	0.000000	-1.000000	-1.000000	440658.000000	1775765755.218932
-16573.905000	-27837.405000	37525.230000	28808.010000	43824.060000	13803.705000	-1716.030000	-52605.315000	-11.295091	-13.658135	-11.528099	-10.702611	-7.608995	-3.676475	-2.859274	-3.662952	-0.854560	0.930860	0.915600	-0.738157	-0.162109	0.641844	-1.000000	-1.000000	-1.000000	-1.000000	-1.000000	-1.000000	-1.000000	61.000000	0.000000	-1.000000	-1.000000	440659.000000	1775765755.222994
-16575.030000	-27837.540000	37526.535000	28811.700000	43835.580000	13848.345000	-1710.180000	-52604.730000	-10.934534	-12.755690	-10.626538	-10.006808	-8.225592	-11.551426	-6.144970	-5.196742	-0.854560	0.930860	0.915600	-0.738157	-0.162109	0.641844	-1.000000	-1.000000	-1.000000	-1.000000	-1.000000	-1.000000	-1.000000	61.000000	0.000000	-1.000000	-1.000000	440660.000000	1775765755.223010
-16570.395000	-27837.270000	37525.410000	28809.945000	43834.725000	13859.055000	-1705.995000	-52594.560000	-6.987348	-7.852185	-6.732298	-6.222787	-6.008138	-14.856234	-7.899775	-4.300078	-0.854560	0.930860	0.915600	-0.738157	-0.162109	0.641844	-1.000000	-1.000000	-1.000000	-1.000000	-1.000000	-1.000000	-1.000000	61.000000	0.000000	-1.000000	-1.000000	440661.000000	1775765755.227915
-16571.250000	-27842.940000	37518.075000	28800.945000	43823.655000	13840.290000	-1710.180000	-52592.625000	-0.887073	-0.999020	-1.525515	-1.119404	-1.746581	-8.946664	-6.593828	-1.066267	-0.854560	0.930860	0.915600	-0.738157	-0.162109	0.641844	-1.000000	-1.000000	-1.000000	-1.000000	-1.000000	-1.000000	-1.000000	61.000000	0.000000	-1.000000	-1.000000	440662.000000	1775765755.227943
-16575.435000	-27845.505000	37518.300000	28800.990000	43821.360000	13833.495000	-1714.365000	-52594.470000	4.971471	5.030400	2.893623	2.879113	1.793320	0.938946	-3.245747	2.884688	-0.854560	0.930860	0.915600	-0.738157	-0.162109	0.641844	-1.000000	-1.000000	-1.000000	-1.000000	-1.000000	-1.000000	-1.000000	61.000000	0.000000	-1.000000	-1.000000	440663.000000	1775765755.236747
-16578.270000	-27851.085000	37514.025000	28795.905000	43816.230000	13831.155000	-1714.995000	-52596.180000	8.057656	8.077307	5.242743	4.540987	2.852408	6.975301	-0.073853	5.021790	-0.854560	0.930860	0.915600	-0.738157	-0.162109	0.641844	-1.000000	-1.000000	-1.000000	-1.000000	-1.000000	-1.000000	-1.000000	61.000000	0.000000	-1.000000	-1.000000	440664.000000	1775765755.236770
-16570.890000	-27850.680000	37511.010000	28790.460000	43810.920000	13826.970000	-1714.185000	-52591.905000	7.602000	7.771947	5.498986	4.215216	1.998012	7.024366	1.792728	4.165169	-0.854560	0.930860	0.915600	-0.738157	-0.162109	0.641844	-1.000000	-1.000000	-1.000000	-1.000000	-1.000000	-1.000000	-1.000000	61.000000	0.000000	-1.000000	-1.000000	440665.000000	1775765755.236795
-16568.325000	-27851.445000	37509.615000	28789.650000	43811.100000	13823.010000	-1724.355000	-52597.170000	5.085177	5.377544	4.321590	2.859383	0.770611	3.697461	2.413630	1.308597	-0.854560	0.930860	0.915600	-0.738157	-0.162109	0.641844	-1.000000	-1.000000	-1.000000	-1.000000	-1.000000	-1.000000	-1.000000	61.000000	0.000000	-1.000000	-1.000000	440666.000000	1775765755.236806
-16572.420000	-27854.955000	37507.680000	28790.055000	43814.835000	13827.555000	-1732.680000	-52609.905000	2.295661	2.554908	2.613899	1.560367	0.506534	0.414735	1.876055	-2.039564	-0.854560	0.930860	0.915600	-0.738157	-0.162109	0.641844	-1.000000	-1.000000	-1.000000	-1.000000	-1.000000	-1.000000	-1.000000	61.000000	0.000000	-1.000000	-1.000000	440667.000000	1775765755.243870
-16566.255000	-27847.035000	37517.130000	28799.055000	43822.395000	13833.270000	-1730.205000	-52614.090000	-0.114692	0.407104	1.312935	1.248519	1.776759	-0.606977	0.536855	-4.980482	-0.854560	0.930860	0.915600	-0.738157	-0.162109	0.641844	-1.000000	-1.000000	-1.000000	-1.000000	-1.000000	-1.000000	-1.000000	61.000000	0.000000	-1.000000	-1.000000	440668.000000	1775765755.243893
-16572.285000	-27843.885000	37523.385000	28804.095000	43824.465000	13835.205000	-1729.395000	-52623.045000	-2.014822	-0.465264	1.157548	2.188864	3.951719	0.841448	-0.302473	-6.606454	-0.442540	1.632820	0.442540	-0.738890	-0.162658	0.642821	-1.000000	-1.000000	-1.000000	-1.000000	-1.000000	-1.000000	-1.000000	61.000000	0.000000	-1.000000	-1.000000	440669.000000	1775765755.243917
-16574.130000	-27833.445000	37534.770000	28815.480000	43834.275000	13844.520000	-1720.980000	-52625.070000	-3.369803	-0.019635	2.144224	3.702368	5.543107	3.191082	0.556881	-6.001270	-0.442540	1.632820	0.442540	-0.738890	-0.162658	0.642821	-1.000000	-1.000000	-1.000000	-1.000000	-1.000000	-1.000000	-1.000000	61.000000	0.000000	-1.000000	-1.000000	440670.000000	1775765755.243928
-16575.120000	-27828.045000	37540.845000	28821.870000	43839.495000	13848.930000	-1712.610000	-52607.340000	-4.168383	1.062063	3.293404	4.590220	5.417853	4.620514	2.984105	-2.693285	-0.442540	1.632820	0.442540	-0.738890	-0.162658	0.642821	-1.000000	-1.000000	-1.000000	-1.000000	-1.000000	-1.000000	-1.000000	61.000000	0.000000	-1.000000	-1.000000	440671.000000	1775765755.261305
-16571.970000	-27829.350000	37543.545000	28823.760000	43840.260000	13846.185000	-1703.790000	-52587.810000	-4.025657	1.591868	3.231399	3.805667	3.372293	4.043738	5.636179	3.283959	-0.442540	1.632820	0.442540	-0.738890	-0.162658	0.642821	-1.000000	-1.000000	-1.000000	-1.000000	-1.000000	-1.000000	-1.000000	61.000000	0.000000	-1.000000	-1.000000	440672.000000	1775765755.261330
-16558.020000	-27832.005000	37540.935000	28819.440000	43832.880000	13833.360000	-1700.415000	-52568.640000	-2.331366	0.426141	1.049547	0.850408	-0.311267	0.992762	6.739394	10.449051	-0.442540	1.632820	0.442540	-0.738890	-0.162658	0.642821	-1.000000	-1.000000	-1.000000	-1.000000	-1.000000	-1.000000	-1.000000	61.000000	0.000000	-1.000000	-1.000000	440673.000000	1775765755.261397
-16552.845000	-27838.800000	37530.135000	28806.615000	43815.645000	13817.745000	-1708.065000	-52565.715000	0.952002	-2.561657	-3.094460	-3.910894	-5.124060	-4.165071	4.903223	15.260736	-0.442540	1.632820	0.442540	-0.738890	-0.162658	0.642821	-1.000000	-1.000000	-1.000000	-1.000000	-1.000000	-1.000000	-1.000000	61.000000	0.000000	-1.000000	-1.000000	440674.000000	1775765755.261410
-16564.095000	-27847.575000	37522.170000	28800.765000	43817.355000	13838.625000	-1711.260000	-52582.095000	4.164780	-6.166469	-7.897363	-9.021346	-9.743957	-9.063193	-0.012883	13.659316	-0.442540	1.632820	0.442540	-0.738890	-0.162658	0.642821	-1.000000	-1.000000	-1.000000	-1.000000	-1.000000	-1.000000	-1.000000	61.000000	0.000000	-1.000000	-1.000000	440675.000000	1775765755.261429
-16574.220000	-27854.595000	37517.355000	28796.085000	43818.165000	13849.245000	-1712.475000	-52592.175000	4.463007	-8.618319	-11.188766	-12.086960	-11.590554	-9.605915	-6.124043	4.242252	-0.442540	1.632820	0.442540	-0.738890	-0.162658	0.642821	-1.000000	-1.000000	-1.000000	-1.000000	-1.000000	-1.000000	-1.000000	61.000000	0.000000	-1.000000	-1.000000	440676.000000	1775765755.261440
-16574.265000	-27856.260000	37517.445000	28797.210000	43817.985000	13836.960000	-1717.470000	-52591.950000	0.947668	-8.433816	-10.837359	-10.976818	-8.678899	-4.401103	-10.346707	-9.130603	-0.442540	1.632820	0.442540	-0.738890	-0.162658	0.642821	-1.000000	-1.000000	-1.000000	-1.000000	-1.000000	-1.000000	-1.000000	61.000000	0.000000	-1.000000	-1.000000	440677.000000	1775765755.261453
-16573.905000	-27855.900000	37517.985000	28798.110000	43819.245000	13822.740000	-1723.455000	-52590.555000	-3.710926	-5.066691	-6.227158	-5.477356	-1.987597	2.291624	-10.750568	-19.019422	-0.442540	1.632820	0.442540	-0.738890	-0.162658	0.642821	-1.000000	-1.000000	-1.000000	-1.000000	-1.000000	-1.000000	-1.000000	61.000000	0.000000	-1.000000	-1.000000	440678.000000	1775765755.261464
-16576.425000	-27857.925000	37518.750000	28798.110000	43818.390000	13829.670000	-1719.540000	-52592.625000	-5.947473	0.526700	0.996169	2.248641	5.176867	5.350512	-7.508233	-20.074698	1.892240	1.846460	-0.854560	-0.737242	-0.165771	0.644652	-1.000000	-1.000000	-1.000000	-1.000000	-1.000000	-1.000000	-1.000000	61.000000	0.000000	-1.000000	-1.000000	440679.000000	1775765755.264026
-16581.645000	-27863.730000	37513.890000	28793.385000	43815.420000	13832.865000	-1722.240000	-52600.455000	-4.655309	5.974310	7.670703	8.760437	9.565391	4.445944	-2.037527	-12.861203	1.892240	1.846460	-0.854560	-0.737242	-0.165771	0.644652	-1.000000	-1.000000	-1.000000	-1.000000	-1.000000	-1.000000	-1.000000	61.000000	0.000000	-1.000000	-1.000000	440680.000000	1775765755.264044
-16579.530000	-27859.725000	37517.940000	28797.210000	43819.695000	13829.310000	-1726.245000	-52604.685000	-1.278652	8.934100	11.008853	11.405010	9.797638	2.476327	3.545923	-2.381226	1.892240	1.846460	-0.854560	-0.737242	-0.165771	0.644652	-1.000000	-1.000000	-1.000000	-1.000000	-1.000000	-1.000000	-1.000000	61.000000	0.000000	-1.000000	-1.000000	440681.000000	1775765755.270324
-16588.530000	-27865.620000	37512.045000	28789.875000	43810.425000	13814.550000	-1732.320000	-52614.090000	2.092517	8.672289	10.207224	9.778318	6.660669	0.951986	6.980013	6.129127	1.892240	1.846460	-0.854560	-0.737242	-0.165771	0.644652	-1.000000	-1.000000	-1.000000	-1.000000	-1.000000	-1.000000	-1.000000	61.000000	0.000000	-1.000000	-1.000000	440682.000000	1775765755.270340
-16592.445000	-27864.990000	37514.925000	28792.305000	43813.350000	13822.020000	-1738.755000	-52616.160000	3.870237	5.945953	6.380553	5.341153	1.980439	-0.429864	7.114567	10.062772	1.892240	1.846460	-0.854560	-0.737242	-0.165771	0.644652	-1.000000	-1.000000	-1.000000	-1.000000	-1.000000	-1.000000	-1.000000	61.000000	0.000000	-1.000000	-1.000000	440683.000000	1775765755.270949
-16590.375000	-27861.480000	37519.335000	28795.995000	43816.860000	13840.155000	-1725.615000	-52606.980000	3.677931	2.249136	1.676308	0.429400	-2.151461	-1.011382	4.887327	10.021694	1.892240	1.846460	-0.854560	-0.737242	-0.165771	0.644652	-1.000000	-1.000000	-1.000000	-1.000000	-1.000000	-1.000000	-1.000000	61.000000	0.000000	-1.000000	-1.000000	440684.000000	1775765755.270971
-16593.795000	-27870.750000	37512.225000	28789.785000	43812.765000	13836.915000	-1723.545000	-52606.215000	2.505886	-0.946205	-1.945900	-2.933030	-4.116794	0.515728	2.721077	8.383305	1.892240	1.846460	-0.854560	-0.737242	-0.165771	0.644652	-1.000000	-1.000000	-1.000000	-1.000000	-1.000000	-1.000000	-1.000000	61.000000	0.000000	-1.000000	-1.000000	440685.000000	1775765755.275808
-16583.940000	-27863.730000	37521.360000	28799.280000	43822.170000	13840.830000	-1711.890000	-52595.550000	1.618029	-2.985508	-3.779366	-4.112727	-3.737498	3.142974	2.203461	6.814714	1.892240	1.846460	-0.854560	-0.737242	-0.165771	0.644652	-1.000000	-1.000000	-1.000000	-1.000000	-1.000000	-1.000000	-1.000000	61.000000	0.000000	-1.000000	-1.000000	440686.000000	1775765755.275832
-16590.645000	-27871.965000	37512.180000	28789.470000	43812.585000	13829.760000	-1718.640000	-52598.115000	1.501079	-3.780226	-4.055686	-3.606312	-2.026199	4.030741	2.638914	5.304985	1.892240	1.846460	-0.854560	-0.737242	-0.165771	0.644652	-1.000000	-1.000000	-1.000000	-1.000000	-1.000000	-1.000000	-1.000000	61.000000	0.000000	-1.000000	-1.000000	440687.000000	1775765755.280375
-16592.805000	-27877.815000	37504.710000	28779.885000	43801.830000	13816.755000	-1729.395000	-52606.035000	1.465089	-3.658084	-3.624693	-2.685355	-0.684134	1.443424	1.862832	2.806608	1.892240	1.846460	-0.854560	-0.737242	-0.165771	0.644652	-1.000000	-1.000000	-1.000000	-1.000000	-1.000000	-1.000000	-1.000000	61.000000	0.000000	-1.000000	-1.000000	440688.000000	1775765755.280400
-16569.990000	-27846.585000	37537.605000	28812.150000	43834.770000	13850.550000	-1705.725000	-52603.020000	0.946353	-2.656733	-2.806915	-1.965222	-0.390008	-3.041768	-0.982512	-1.285451	3.448760	1.495480	-0.961380	-0.737303	-0.167053	0.646055	-1.000000	-1.000000	-1.000000	-1.000000	-1.000000	-1.000000	-1.000000	61.000000	0.000000	-1.000000	-1.000000	440689.000000	1775765755.290722
-16574.670000	-27846.720000	37539.675000	28814.850000	43838.595000	13852.395000	-1710.765000	-52613.460000	0.693927	0.127550	-0.367287	-0.055458	0.648249	-5.035031	-3.764197	-5.831312	3.448760	1.495480	-0.961380	-0.737303	-0.167053	0.646055	-1.000000	-1.000000	-1.000000	-1.000000	-1.000000	-1.000000	-1.000000	61.000000	0.000000	-1.000000	-1.000000	440690.000000	1775765755.290747
-16587.405000	-27856.530000	37530.000000	28806.345000	43830.135000	13844.655000	-1717.830000	-52628.220000	0.560554	3.757215	3.284870	3.142422	3.089747	-2.720839	-4.606277	-9.106090	3.448760	1.495480	-0.961380	-0.737303	-0.167053	0.646055	-1.000000	-1.000000	-1.000000	-1.000000	-1.000000	-1.000000	-1.000000	61.000000	0.000000	-1.000000	-1.000000	440691.000000	1775765755.290774
-16586.820000	-27855.315000	37532.880000	28809.090000	43832.880000	13847.085000	-1717.605000	-52630.245000	-1.059517	4.831770	4.815765	4.649002	4.226689	0.655582	-4.290546	-10.185488	3.448760	1.495480	-0.961380	-0.737303	-0.167053	0.646055	-1.000000	-1.000000	-1.000000	-1.000000	-1.000000	-1.000000	-1.000000	61.000000	0.000000	-1.000000	-1.000000	440692.000000	1775765755.290787
-16578.585000	-27851.175000	37538.235000	28813.455000	43835.625000	13851.180000	-1715.490000	-52614.765000	-3.848952	2.072421	2.612523	2.717417	2.200040	1.813544	-3.741005	-8.104868	3.448760	1.495480	-0.961380	-0.737303	-0.167053	0.646055	-1.000000	-1.000000	-1.000000	-1.000000	-1.000000	-1.000000	-1.000000	61.000000	0.000000	-1.000000	-1.000000	440693.000000	1775765755.290801
-16582.545000	-27863.820000	37524.330000	28797.930000	43819.335000	13839.930000	-1721.610000	-52603.380000	-5.319832	-2.331202	-1.498415	-1.247830	-1.821127	0.590134	-2.744385	-2.053516	3.448760	1.495480	-0.961380	-0.737303	-0.167053	0.646055	-1.000000	-1.000000	-1.000000	-1.000000	-1.000000	-1.000000	-1.000000	61.000000	0.000000	-1.000000	-1.000000	440694.000000	1775765755.290812
-16577.505000	-27858.240000	37526.355000	28800.855000	43822.755000	13851.450000	-1709.955000	-52590.060000	-4.173204	-5.766859	-5.194683	-5.139876	-5.782685	-1.574183	-1.059836	6.450672	3.448760	1.495480	-0.961380	-0.737303	-0.167053	0.646055	-1.000000	-1.000000	-1.000000	-1.000000	-1.000000	-1.000000	-1.000000	61.000000	0.000000	-1.000000	-1.000000	440695.000000	1775765755.294946
-16572.870000	-27854.055000	37535.535000	28809.360000	43831.755000	13854.375000	-1699.965000	-52587.990000	-1.217039	-6.524386	-6.691349	-6.969531	-7.515109	-2.763268	1.454205	13.295970	3.448760	1.495480	-0.961380	-0.737303	-0.167053	0.646055	-1.000000	-1.000000	-1.000000	-1.000000	-1.000000	-1.000000	-1.000000	61.000000	0.000000	-1.000000	-1.000000	440696.000000	1775765755.294967
-16581.555000	-27864.090000	37526.535000	28800.720000	43819.830000	13826.340000	-1716.030000	-52598.295000	1.826103	-4.259164	-4.964253	-5.396626	-5.614849	-2.336590	4.133034	14.261382	3.448760	1.495480	-0.961380	-0.737303	-0.167053	0.646055	-1.000000	-1.000000	-1.000000	-1.000000	-1.000000	-1.000000	-1.000000	61.000000	0.000000	-1.000000	-1.000000	440697.000000	1775765755.299095
-16588.035000	-27869.445000	37522.620000	28796.760000	43815.870000	13823.010000	-1724.490000	-52606.305000	3.051829	-0.793501	-1.270766	-1.578319	-1.486532	-2.042918	4.698372	7.914992	3.448760	1.495480	-0.961380	-0.737303	-0.167053	0.646055	-1.000000	-1.000000	-1.000000	-1.000000	-1.000000	-1.000000	-1.000000	61.000000	0.000000	-1.000000	-1.000000	440698.000000	1775765755.299119
-16596.585000	-27876.195000	37516.590000	28792.035000	43812.540000	13834.710000	-1721.880000	-52615.305000	1.621528	1.513440	1.775371	1.781547	2.020556	-2.513056	1.950184	-2.907355	2.136400	1.892240	-0.824040	-0.738218	-0.164856	0.645018	-1.000000	-1.000000	-1.000000	-1.000000	-1.000000	-1.000000	-1.000000	61.000000	0.000000	-1.000000	-1.000000	440699.000000	1775765755.303648
-16584.615000	-27862.470000	37531.935000	28806.570000	43826.805000	13846.500000	-1711.620000	-52606.890000	-1.002844	2.302958	3.164951	3.505142	3.897130	-1.348500	-1.720306	-12.386342	2.136400	1.892240	-0.824040	-0.738218	-0.164856	0.645018	-1.000000	-1.000000	-1.000000	-1.000000	-1.000000	-1.000000	-1.000000	61.000000	0.000000	-1.000000	-1.000000	440700.000000	1775765755.303665
-16580.025000	-27857.115000	37539.360000	28814.265000	43831.170000	13841.595000	-1706.850000	-52601.895000	-1.982618	3.112793	4.078519	4.572010	5.138626	2.714252	-2.828899	-15.248931	2.136400	1.892240	-0.824040	-0.738218	-0.164856	0.645018	-1.000000	-1.000000	-1.000000	-1.000000	-1.000000	-1.000000	-1.000000	61.000000	0.000000	-1.000000	-1.000000	440701.000000	1775765755.308485
-16585.920000	-27866.205000	37529.595000	28805.400000	43825.410000	13837.320000	-1714.545000	-52604.010000	-0.178966	4.562540	5.170930	5.552262	6.097700	6.961525	-0.853246	-10.427468	2.136400	1.892240	-0.824040	-0.738218	-0.164856	0.645018	-1.000000	-1.000000	-1.000000	-1.000000	-1.000000	-1.000000	-1.000000	61.000000	0.000000	-1.000000	-1.000000	440702.000000	1775765755.308507
-16593.480000	-27875.475000	37521.000000	28798.335000	43824.465000	13845.960000	-1718.280000	-52608.060000	2.325821	4.846408	4.808706	4.962958	5.451242	7.949831	1.517126	-1.789124	2.136400	1.892240	-0.824040	-0.738218	-0.164856	0.645018	-1.000000	-1.000000	-1.000000	-1.000000	-1.000000	-1.000000	-1.000000	61.000000	0.000000	-1.000000	-1.000000	440703.000000	1775765755.323024
-16591.320000	-27871.695000	37526.220000	28802.520000	43825.950000	13846.365000	-1717.515000	-52606.530000	2.934600	2.461544	1.746035	1.736479	2.477479	5.378648	1.864225	5.381495	2.136400	1.892240	-0.824040	-0.738218	-0.164856	0.645018	-1.000000	-1.000000	-1.000000	-1.000000	-1.000000	-1.000000	-1.000000	61.000000	0.000000	-1.000000	-1.000000	440704.000000	1775765755.323049
-16587.900000	-27867.015000	37531.845000	28806.345000	43827.210000	13843.755000	-1719.720000	-52604.865000	1.591570	-1.114030	-2.194764	-2.369662	-1.442613	1.240389	0.383518	8.354206	2.136400	1.892240	-0.824040	-0.738218	-0.164856	0.645018	-1.000000	-1.000000	-1.000000	-1.000000	-1.000000	-1.000000	-1.000000	61.000000	0.000000	-1.000000	-1.000000	440705.000000	1775765755.323074
-16589.880000	-27869.535000	37530.450000	28805.940000	43828.515000	13845.150000	-1726.380000	-52604.550000	0.030872	-3.198784	-4.155216	-4.621111	-4.235701	-2.656713	-1.397634	7.529304	2.136400	1.892240	-0.824040	-0.738218	-0.164856	0.645018	-1.000000	-1.000000	-1.000000	-1.000000	-1.000000	-1.000000	-1.000000	61.000000	0.000000	-1.000000	-1.000000	440706.000000	1775765755.323085
-16594.920000	-27873.945000	37527.435000	28802.970000	43825.635000	13839.930000	-1729.980000	-52607.340000	-0.772454	-3.057869	-3.524172	-4.244580	-4.927093	-5.237363	-2.500946	4.597039	2.136400	1.892240	-0.824040	-0.738218	-0.164856	0.645018	-1.000000	-1.000000	-1.000000	-1.000000	-1.000000	-1.000000	-1.000000	61.000000	0.000000	-1.000000	-1.000000	440707.000000	1775765755.323099
-16592.895000	-27874.080000	37526.085000	28800.810000	43823.790000	13844.655000	-1724.805000	-52604.145000	-1.069419	-1.898917	-1.824053	-2.506208	-3.985297	-5.970845	-2.474247	1.173147	2.136400	1.892240	-0.824040	-0.738218	-0.164856	0.645018	-1.000000	-1.000000	-1.000000	-1.000000	-1.000000	-1.000000	-1.000000	61.000000	0.000000	-1.000000	-1.000000	440708.000000	1775765755.323109
-16595.010000	-27881.055000	37517.445000	28791.045000	43816.005000	13846.410000	-1725.345000	-52603.425000	-1.112335	-0.941304	-0.641950	-1.027477	-2.545670	-4.738818	-1.013740	-1.444060	3.143560	3.036740	-1.449700	-0.736082	-0.165344	0.645079	-1.000000	-1.000000	-1.000000	-1.000000	-1.000000	-1.000000	-1.000000	61.000000	0.000000	-1.000000	-1.000000	440709.000000	1775765755.327032
-16599.330000	-27886.725000	37512.360000	28785.960000	43811.235000	13838.490000	-1727.730000	-52605.675000	-0.921585	-0.676539	-0.606039	-0.661375	-1.514412	-2.157958	1.338213	-2.616169	3.143560	3.036740	-1.449700	-0.736082	-0.165344	0.645079	-1.000000	-1.000000	-1.000000	-1.000000	-1.000000	-1.000000	-1.000000	61.000000	0.000000	-1.000000	-1.000000	440710.000000	1775765755.327053
-16599.060000	-27885.780000	37515.735000	28789.920000	43813.620000	13838.085000	-1724.310000	-52605.810000	-0.663028	-0.885344	-1.150782	-0.942941	-0.904995	0.268387	3.213295	-2.633078	3.143560	3.036740	-1.449700	-0.736082	-0.165344	0.645079	-1.000000	-1.000000	-1.000000	-1.000000	-1.000000	-1.000000	-1.000000	61.000000	0.000000	-1.000000	-1.000000	440711.000000	1775765755.327638
-16598.880000	-27887.175000	37513.710000	28785.420000	43807.320000	13829.805000	-1734.660000	-52611.345000	-0.348091	-0.744254	-0.971861	-0.571673	-0.043370	1.352142	3.539499	-2.194451	3.143560	3.036740	-1.449700	-0.736082	-0.165344	0.645079	-1.000000	-1.000000	-1.000000	-1.000000	-1.000000	-1.000000	-1.000000	61.000000	0.000000	-1.000000	-1.000000	440712.000000	1775765755.327658
-16595.145000	-27887.580000	37512.810000	28784.295000	43805.610000	13829.805000	-1735.965000	-52609.545000	0.270511	0.280191	0.460032	0.893336	1.247781	1.132262	2.043112	-1.746999	3.143560	3.036740	-1.449700	-0.736082	-0.165344	0.645079	-1.000000	-1.000000	-1.000000	-1.000000	-1.000000	-1.000000	-1.000000	61.000000	0.000000	-1.000000	-1.000000	440713.000000	1775765755.331138
-16600.545000	-27894.690000	37506.780000	28779.885000	43803.270000	13829.805000	-1736.280000	-52615.665000	1.120173	1.659087	2.214957	2.528948	2.409688	0.572221	-0.469613	-1.295057	3.143560	3.036740	-1.449700	-0.736082	-0.165344	0.645079	-1.000000	-1.000000	-1.000000	-1.000000	-1.000000	-1.000000	-1.000000	61.000000	0.000000	-1.000000	-1.000000	440714.000000	1775765755.331160
-16604.775000	-27897.030000	37505.385000	28778.310000	43804.170000	13832.505000	-1734.705000	-52626.015000	1.480841	2.307437	2.983055	3.245003	3.007773	0.726726	-2.318749	-0.907608	3.143560	3.036740	-1.449700	-0.736082	-0.165344	0.645079	-1.000000	-1.000000	-1.000000	-1.000000	-1.000000	-1.000000	-1.000000	61.000000	0.000000	-1.000000	-1.000000	440715.000000	1775765755.334768
-16609.140000	-27895.140000	37511.100000	28784.205000	43808.985000	13834.620000	-1737.000000	-52628.895000	0.718570	1.857486	2.516055	2.883097	3.125632	1.834851	-2.406997	-0.868874	3.143560	3.036740	-1.449700	-0.736082	-0.165344	0.645079	-1.000000	-1.000000	-1.000000	-1.000000	-1.000000	-1.000000	-1.000000	61.000000	0.000000	-1.000000	-1.000000	440716.000000	1775765755.334785
-16615.260000	-27893.880000	37514.970000	28788.300000	43811.505000	13837.185000	-1738.530000	-52626.015000	-0.866270	1.060188	1.783622	2.242698	3.066240	3.182333	-1.136144	-0.790451	3.143560	3.036740	-1.449700	-0.736082	-0.165344	0.645079	-1.000000	-1.000000	-1.000000	-1.000000	-1.000000	-1.000000	-1.000000	61.000000	0.000000	-1.000000	-1.000000	440717.000000	1775765755.353041
-16617.825000	-27888.615000	37522.755000	28796.175000	43820.010000	13843.755000	-1736.010000	-52631.730000	-2.292178	0.796827	1.677032	2.052158	2.919676	3.852920	0.371678	0.162900	3.143560	3.036740	-1.449700	-0.736082	-0.165344	0.645079	-1.000000	-1.000000	-1.000000	-1.000000	-1.000000	-1.000000	-1.000000	61.000000	0.000000	-1.000000	-1.000000	440718.000000	1775765755.353068
-16615.305000	-27888.030000	37521.585000	28793.970000	43818.165000	13842.720000	-1734.705000	-52637.040000	-2.534870	1.174235	1.984535	2.076982	2.427382	3.372634	1.426481	1.765936	5.569900	3.326680	-1.297100	-0.735350	-0.166442	0.645506	-1.000000	-1.000000	-1.000000	-1.000000	-1.000000	-1.000000	-1.000000	61.000000	0.000000	-1.000000	-1.000000	440719.000000	1775765755.353098
-16605.315000	-27884.655000	37520.010000	28788.840000	43810.785000	13843.395000	-1733.490000	-52624.800000	-0.927437	1.557834	1.621996	1.250440	0.954167	1.669695	1.881954	3.103061	5.569900	3.326680	-1.297100	-0.735350	-0.166442	0.645506	-1.000000	-1.000000	-1.000000	-1.000000	-1.000000	-1.000000	-1.000000	61.000000	0.000000	-1.000000	-1.000000	440720.000000	1775765755.353110
-16594.875000	-27876.465000	37529.730000	28796.760000	43816.995000	13841.910000	-1728.990000	-52611.345000	2.368775	1.385238	0.017716	-0.952738	-1.742891	-0.919714	1.782003	4.251496	5.569900	3.326680	-1.297100	-0.735350	-0.166442	0.645506	-1.000000	-1.000000	-1.000000	-1.000000	-1.000000	-1.000000	-1.000000	61.000000	0.000000	-1.000000	-1.000000	440721.000000	1775765755.353126
-16582.275000	-27872.325000	37535.130000	28802.385000	43824.735000	13852.890000	-1721.970000	-52588.665000	6.063865	0.765571	-1.850739	-3.278877	-4.283544	-3.311898	1.397549	5.900658	5.569900	3.326680	-1.297100	-0.735350	-0.166442	0.645506	-1.000000	-1.000000	-1.000000	-1.000000	-1.000000	-1.000000	-1.000000	61.000000	0.000000	-1.000000	-1.000000	440722.000000	1775765755.353136
