Channel1	Channel2	Channel3	Channel4	Channel5	Channel6	Channel7	Channel8	FilteredChannel1	FilteredChannel2	FilteredChannel3	FilteredChannel4	FilteredChannel5	FilteredChannel6	FilteredChannel7	FilteredChannel8	GyroX	GyroY	GyroZ	AccX	AccY	AccZ	PPG1	PPG2	rawPPG1	rawPPG2	rawPPG3	Hr	Hrv	Battery	Trigger	PhysicalTrigger	AutoTrigger	NumMeasurements	Timestamp
28413.495000	1545.030000	17821.170000	15654.555000	24917.670000	11268.135000	9541.035000	-16505.865000	2.751078	3.322024	3.175622	3.259649	1.738645	-7.848813	9.161586	4.780006	1.373400	-0.152600	2.060100	-0.574217	-0.260375	0.765623	-1.000000	-1.000000	-1.000000	-1.000000	-1.000000	-1.000000	-1.000000	62.000000	0.000000	-1.000000	-1.000000	209224.000000	1775765292.334851
28404.495000	1533.825000	17809.470000	15643.485000	24911.505000	11292.885000	9535.590000	-16512.255000	9.626786	9.088523	8.823593	8.953614	6.389371	-11.091325	10.314801	14.048045	1.373400	-0.152600	2.060100	-0.574217	-0.260375	0.765623	-1.000000	-1.000000	-1.000000	-1.000000	-1.000000	-1.000000	-1.000000	62.000000	0.000000	-1.000000	-1.000000	209225.000000	1775765292.339028
28394.370000	1520.280000	17796.510000	15632.505000	24903.360000	11296.485000	9537.570000	-16515.765000	11.188422	9.651586	9.348602	9.413029	7.121348	-5.924960	7.464134	15.968233	1.373400	-0.152600	2.060100	-0.574217	-0.260375	0.765623	-1.000000	-1.000000	-1.000000	-1.000000	-1.000000	-1.000000	-1.000000	62.000000	0.000000	-1.000000	-1.000000	209226.000000	1775765292.339048
28397.700000	1519.110000	17793.810000	15630.300000	24899.895000	11280.105000	9538.290000	-16509.555000	7.008678	4.583649	4.205606	4.258493	3.612755	2.958661	2.535638	11.252086	1.373400	-0.152600	2.060100	-0.574217	-0.260375	0.765623	-1.000000	-1.000000	-1.000000	-1.000000	-1.000000	-1.000000	-1.000000	62.000000	0.000000	-1.000000	-1.000000	209227.000000	1775765292.342977
28401.660000	1524.555000	17799.210000	15637.995000	24908.625000	11274.480000	9540.045000	-16508.790000	0.590012	-2.226449	-2.714807	-2.494269	-1.268475	7.817201	-1.968348	3.971767	1.373400	-0.152600	2.060100	-0.574217	-0.260375	0.765623	-1.000000	-1.000000	-1.000000	-1.000000	-1.000000	-1.000000	-1.000000	62.000000	0.000000	-1.000000	-1.000000	209228.000000	1775765292.342996
28401.300000	1525.230000	17799.975000	15640.245000	24912.180000	11281.095000	9541.170000	-16513.110000	-3.731783	-5.905170	-6.445310	-5.980957	-3.849714	5.532995	-4.375744	-1.956907	-0.061040	0.442540	0.854560	-0.575865	-0.254455	0.767698	-1.000000	-1.000000	-1.000000	-1.000000	-1.000000	-1.000000	-1.000000	62.000000	0.000000	-1.000000	-1.000000	209229.000000	1775765292.346960
28401.930000	1526.175000	17801.325000	15640.425000	24912.810000	11291.175000	9547.110000	-16514.550000	-4.360819	-4.770558	-5.162136	-4.612945	-2.791386	-0.133977	-4.391922	-5.144001	-0.061040	0.442540	0.854560	-0.575865	-0.254455	0.767698	-1.000000	-1.000000	-1.000000	-1.000000	-1.000000	-1.000000	-1.000000	62.000000	0.000000	-1.000000	-1.000000	209230.000000	1775765292.346977
28397.700000	1526.310000	17801.460000	15636.060000	24906.285000	11286.990000	9543.105000	-16518.870000	-2.619562	-0.839843	-0.859613	-0.709213	0.009885	-3.878230	-2.792814	-5.996285	-0.061040	0.442540	0.854560	-0.575865	-0.254455	0.767698	-1.000000	-1.000000	-1.000000	-1.000000	-1.000000	-1.000000	-1.000000	62.000000	0.000000	-1.000000	-1.000000	209231.000000	1775765292.354388
28389.600000	1525.230000	17802.945000	15637.590000	24906.555000	11276.010000	9535.500000	-16523.370000	-0.803912	2.739671	3.192799	2.370364	1.719077	-4.276426	-1.131595	-5.339336	-0.061040	0.442540	0.854560	-0.575865	-0.254455	0.767698	-1.000000	-1.000000	-1.000000	-1.000000	-1.000000	-1.000000	-1.000000	62.000000	0.000000	-1.000000	-1.000000	209232.000000	1775765292.354416
28390.230000	1531.260000	17811.225000	15643.980000	24907.275000	11262.195000	9532.080000	-16517.160000	-0.311449	4.106200	5.021930	3.174771	1.309843	-3.508413	-0.772301	-3.717579	-0.061040	0.442540	0.854560	-0.575865	-0.254455	0.767698	-1.000000	-1.000000	-1.000000	-1.000000	-1.000000	-1.000000	-1.000000	62.000000	0.000000	-1.000000	-1.000000	209233.000000	1775765292.354955
28394.955000	1534.905000	17816.535000	15649.470000	24907.950000	11265.390000	9532.980000	-16515.855000	-0.633833	3.420143	4.677855	2.518816	-0.149437	-3.339189	-1.506746	-1.215740	-0.061040	0.442540	0.854560	-0.575865	-0.254455	0.767698	-1.000000	-1.000000	-1.000000	-1.000000	-1.000000	-1.000000	-1.000000	62.000000	0.000000	-1.000000	-1.000000	209234.000000	1775765292.354970
28395.495000	1529.055000	17806.095000	15645.420000	24905.430000	11295.270000	9530.010000	-16525.485000	-0.332192	1.682472	2.858554	1.526779	-1.266290	-2.413019	-1.893766	1.565911	-0.061040	0.442540	0.854560	-0.575865	-0.254455	0.767698	-1.000000	-1.000000	-1.000000	-1.000000	-1.000000	-1.000000	-1.000000	62.000000	0.000000	-1.000000	-1.000000	209235.000000	1775765292.359056
28385.505000	1519.785000	17795.025000	15638.400000	24904.125000	11308.995000	9531.585000	-16533.270000	0.785724	-0.724406	-0.415210	0.148345	-1.573568	1.824695	-0.995530	2.996233	-0.061040	0.442540	0.854560	-0.575865	-0.254455	0.767698	-1.000000	-1.000000	-1.000000	-1.000000	-1.000000	-1.000000	-1.000000	62.000000	0.000000	-1.000000	-1.000000	209236.000000	1775765292.359075
28384.560000	1518.435000	17796.240000	15639.795000	24907.725000	11286.765000	9544.455000	-16527.015000	1.431698	-3.564105	-4.649361	-1.931937	-1.216565	7.937925	1.145461	2.289980	-0.061040	0.442540	0.854560	-0.575865	-0.254455	0.767698	-1.000000	-1.000000	-1.000000	-1.000000	-1.000000	-1.000000	-1.000000	62.000000	0.000000	-1.000000	-1.000000	209237.000000	1775765292.366592
28401.255000	1533.870000	17811.630000	15653.745000	24915.780000	11257.785000	9548.370000	-16515.180000	1.208478	-5.324892	-7.343134	-3.604854	-0.206022	9.726971	3.983633	1.044059	-0.061040	0.442540	0.854560	-0.575865	-0.254455	0.767698	-1.000000	-1.000000	-1.000000	-1.000000	-1.000000	-1.000000	-1.000000	62.000000	0.000000	-1.000000	-1.000000	209238.000000	1775765292.366621
28406.070000	1537.020000	17815.725000	15658.245000	24921.585000	11259.855000	9541.710000	-16514.685000	1.457650	-4.014043	-5.804947	-3.025315	1.462846	3.519257	6.047221	1.279057	-1.495480	1.693860	2.533160	-0.574339	-0.250427	0.765196	-1.000000	-1.000000	-1.000000	-1.000000	-1.000000	-1.000000	-1.000000	62.000000	0.000000	-1.000000	-1.000000	209239.000000	1775765292.367826
28402.875000	1533.285000	17811.135000	15653.610000	24921.855000	11286.720000	9547.650000	-16510.770000	2.613348	-0.036012	-0.707380	-0.326188	3.081364	-5.751845	5.485551	2.723548	-1.495480	1.693860	2.533160	-0.574339	-0.250427	0.765196	-1.000000	-1.000000	-1.000000	-1.000000	-1.000000	-1.000000	-1.000000	62.000000	0.000000	-1.000000	-1.000000	209240.000000	1775765292.367846
28402.335000	1529.235000	17805.870000	15649.785000	24922.980000	11288.700000	9547.515000	-16503.795000	2.984916	3.469674	3.978892	1.958628	3.373937	-9.446708	2.256356	3.563710	-1.495480	1.693860	2.533160	-0.574339	-0.250427	0.765196	-1.000000	-1.000000	-1.000000	-1.000000	-1.000000	-1.000000	-1.000000	62.000000	0.000000	-1.000000	-1.000000	209241.000000	1775765292.374385
28406.070000	1531.215000	17808.300000	15651.135000	24919.515000	11266.470000	9549.495000	-16498.575000	1.306186	3.988977	5.081434	1.847032	1.676447	-5.489883	-1.719484	2.842770	-1.495480	1.693860	2.533160	-0.574339	-0.250427	0.765196	-1.000000	-1.000000	-1.000000	-1.000000	-1.000000	-1.000000	-1.000000	62.000000	0.000000	-1.000000	-1.000000	209242.000000	1775765292.374402
28400.580000	1528.200000	17803.035000	15642.135000	24905.700000	11241.135000	9543.465000	-16505.640000	-1.636935	1.861768	2.837734	-0.232873	-1.604086	-0.040303	-4.620969	0.704176	-1.495480	1.693860	2.533160	-0.574339	-0.250427	0.765196	-1.000000	-1.000000	-1.000000	-1.000000	-1.000000	-1.000000	-1.000000	62.000000	0.000000	-1.000000	-1.000000	209243.000000	1775765292.375901
28396.260000	1526.535000	17799.930000	15638.805000	24900.210000	11247.570000	9544.545000	-16505.685000	-4.351339	-0.950647	-0.532209	-2.665508	-5.363094	1.199492	-5.788719	-2.422661	-1.495480	1.693860	2.533160	-0.574339	-0.250427	0.765196	-1.000000	-1.000000	-1.000000	-1.000000	-1.000000	-1.000000	-1.000000	62.000000	0.000000	-1.000000	-1.000000	209244.000000	1775765292.375924
28399.005000	1531.170000	17806.725000	15646.005000	24904.935000	11281.005000	9546.435000	-16502.535000	-5.740116	-2.698276	-2.876429	-3.841223	-7.679069	-0.031361	-5.190907	-5.450418	-1.495480	1.693860	2.533160	-0.574339	-0.250427	0.765196	-1.000000	-1.000000	-1.000000	-1.000000	-1.000000	-1.000000	-1.000000	62.000000	0.000000	-1.000000	-1.000000	209245.000000	1775765292.379746
28398.330000	1527.660000	17806.950000	15648.030000	24910.515000	11280.780000	9538.695000	-16511.220000	-5.070064	-2.587905	-2.883857	-2.579252	-6.430879	1.599235	-3.178692	-6.849316	-1.495480	1.693860	2.533160	-0.574339	-0.250427	0.765196	-1.000000	-1.000000	-1.000000	-1.000000	-1.000000	-1.000000	-1.000000	62.000000	0.000000	-1.000000	-1.000000	209246.000000	1775765292.379770
28393.920000	1523.475000	17802.810000	15647.220000	24913.890000	11286.405000	9531.855000	-16520.490000	-2.540440	-1.188867	-0.903609	0.715026	-1.414401	6.547517	-0.889296	-6.269562	-1.495480	1.693860	2.533160	-0.574339	-0.250427	0.765196	-1.000000	-1.000000	-1.000000	-1.000000	-1.000000	-1.000000	-1.000000	62.000000	0.000000	-1.000000	-1.000000	209247.000000	1775765292.383247
28400.265000	1530.045000	17808.255000	15650.460000	24913.935000	11259.990000	9533.565000	-16520.670000	0.612483	0.291825	1.334810	3.982335	4.792063	9.581795	0.595377	-4.497211	-1.495480	1.693860	2.533160	-0.574339	-0.250427	0.765196	-1.000000	-1.000000	-1.000000	-1.000000	-1.000000	-1.000000	-1.000000	62.000000	0.000000	-1.000000	-1.000000	209248.000000	1775765292.383271
28401.255000	1529.460000	17806.905000	15649.605000	24910.605000	11249.550000	9528.255000	-16521.300000	3.278485	1.381687	2.539873	5.355886	8.635301	6.067904	1.357359	-1.921728	-3.296160	2.212700	0.579880	-0.574522	-0.247375	0.765684	-1.000000	-1.000000	-1.000000	-1.000000	-1.000000	-1.000000	-1.000000	62.000000	0.000000	-1.000000	-1.000000	209249.000000	1775765292.387005
28399.680000	1523.160000	17799.300000	15640.695000	24901.920000	11268.135000	9522.405000	-16516.890000	4.796134	1.960500	2.337485	4.199706	8.018764	-2.476067	1.844478	1.461366	-3.296160	2.212700	0.579880	-0.574522	-0.247375	0.765684	-1.000000	-1.000000	-1.000000	-1.000000	-1.000000	-1.000000	-1.000000	62.000000	0.000000	-1.000000	-1.000000	209250.000000	1775765292.387023
28400.130000	1521.405000	17797.635000	15638.220000	24904.080000	11286.045000	9538.380000	-16511.670000	4.639695	1.561260	0.754703	0.965536	3.570097	-8.925918	2.349213	5.138782	-3.296160	2.212700	0.579880	-0.574522	-0.247375	0.765684	-1.000000	-1.000000	-1.000000	-1.000000	-1.000000	-1.000000	-1.000000	62.000000	0.000000	-1.000000	-1.000000	209251.000000	1775765292.391784
28395.945000	1525.455000	17805.645000	15646.815000	24909.300000	11280.240000	9546.165000	-16518.240000	2.828405	0.319621	-1.240909	-2.575608	-1.659259	-8.144236	3.554806	7.777750	-3.296160	2.212700	0.579880	-0.574522	-0.247375	0.765684	-1.000000	-1.000000	-1.000000	-1.000000	-1.000000	-1.000000	-1.000000	62.000000	0.000000	-1.000000	-1.000000	209252.000000	1775765292.391808
28392.930000	1530.945000	17811.810000	15655.050000	24918.210000	11298.510000	9543.690000	-16530.390000	0.093656	-0.566399	-1.865643	-3.909563	-4.299718	-2.047511	5.320387	7.570048	-3.296160	2.212700	0.579880	-0.574522	-0.247375	0.765684	-1.000000	-1.000000	-1.000000	-1.000000	-1.000000	-1.000000	-1.000000	62.000000	0.000000	-1.000000	-1.000000	209253.000000	1775765292.399045
28381.230000	1521.855000	17803.710000	15650.370000	24918.660000	11320.785000	9537.030000	-16540.245000	-2.645001	-0.371046	-0.593412	-2.189245	-3.278354	4.529868	5.612361	3.699541	-3.296160	2.212700	0.579880	-0.574522	-0.247375	0.765684	-1.000000	-1.000000	-1.000000	-1.000000	-1.000000	-1.000000	-1.000000	62.000000	0.000000	-1.000000	-1.000000	209254.000000	1775765292.399066
28381.050000	1517.310000	17797.950000	15641.820000	24906.600000	11312.685000	9546.345000	-16531.290000	-4.580712	0.017097	0.835196	0.469744	-0.638654	8.293353	2.931356	-1.912340	-3.296160	2.212700	0.579880	-0.574522	-0.247375	0.765684	-1.000000	-1.000000	-1.000000	-1.000000	-1.000000	-1.000000	-1.000000	62.000000	0.000000	-1.000000	-1.000000	209255.000000	1775765292.399660
28393.875000	1525.320000	17804.430000	15646.140000	24905.295000	11291.580000	9547.920000	-16509.330000	-4.592357	-0.301238	0.761776	1.415832	0.534012	6.801615	-1.326023	-5.058914	-3.296160	2.212700	0.579880	-0.574522	-0.247375	0.765684	-1.000000	-1.000000	-1.000000	-1.000000	-1.000000	-1.000000	-1.000000	62.000000	0.000000	-1.000000	-1.000000	209256.000000	1775765292.399674
28407.420000	1530.405000	17807.670000	15647.805000	24899.310000	11234.070000	9546.300000	-16488.315000	-1.542027	-0.561730	-0.177985	0.494553	-0.724408	-1.537895	-4.592919	-2.640900	-3.296160	2.212700	0.579880	-0.574522	-0.247375	0.765684	-1.000000	-1.000000	-1.000000	-1.000000	-1.000000	-1.000000	-1.000000	62.000000	0.000000	-1.000000	-1.000000	209257.000000	1775765292.403749
28405.980000	1529.955000	17809.740000	15653.070000	24908.895000	11230.380000	9539.505000	-16502.220000	3.710883	0.203032	-0.446556	-0.516407	-2.607051	-14.307535	-5.899451	3.515102	-3.296160	2.212700	0.579880	-0.574522	-0.247375	0.765684	-1.000000	-1.000000	-1.000000	-1.000000	-1.000000	-1.000000	-1.000000	62.000000	0.000000	-1.000000	-1.000000	209258.000000	1775765292.403774
28397.340000	1524.330000	17805.735000	15649.470000	24907.860000	11252.610000	9533.205000	-16520.670000	7.565679	1.291804	0.137788	-0.479568	-2.732024	-22.945913	-5.868868	7.056933	-3.128300	1.022420	0.869820	-0.577086	-0.245117	0.766539	-1.000000	-1.000000	-1.000000	-1.000000	-1.000000	-1.000000	-1.000000	62.000000	0.000000	-1.000000	-1.000000	209259.000000	1775765292.407054
28389.555000	1518.840000	17799.930000	15645.285000	24903.630000	11285.010000	9538.110000	-16524.090000	6.587034	1.168457	0.454157	0.069813	-0.689842	-18.037263	-5.003646	3.420065	-3.128300	1.022420	0.869820	-0.577086	-0.245117	0.766539	-1.000000	-1.000000	-1.000000	-1.000000	-1.000000	-1.000000	-1.000000	62.000000	0.000000	-1.000000	-1.000000	209260.000000	1775765292.407073
28383.750000	1517.535000	17801.055000	15650.595000	24908.670000	11301.570000	9543.150000	-16526.565000	0.946519	-0.538726	-0.272282	0.167277	1.835555	0.756185	-2.881084	-4.953936	-3.128300	1.022420	0.869820	-0.577086	-0.245117	0.766539	-1.000000	-1.000000	-1.000000	-1.000000	-1.000000	-1.000000	-1.000000	62.000000	0.000000	-1.000000	-1.000000	209261.000000	1775765292.411003
28383.930000	1520.955000	17805.735000	15656.760000	24914.160000	11285.280000	9538.695000	-16531.875000	-5.637693	-2.449740	-1.329918	0.001049	3.409789	22.132712	0.567976	-11.544869	-3.128300	1.022420	0.869820	-0.577086	-0.245117	0.766539	-1.000000	-1.000000	-1.000000	-1.000000	-1.000000	-1.000000	-1.000000	62.000000	0.000000	-1.000000	-1.000000	209262.000000	1775765292.411017
28384.650000	1519.560000	17802.360000	15650.370000	24909.795000	11276.955000	9533.385000	-16535.250000	-8.960383	-2.839535	-1.449942	0.222435	3.737800	31.754595	3.776659	-12.142727	-3.128300	1.022420	0.869820	-0.577086	-0.245117	0.766539	-1.000000	-1.000000	-1.000000	-1.000000	-1.000000	-1.000000	-1.000000	62.000000	0.000000	-1.000000	-1.000000	209263.000000	1775765292.415043
28394.280000	1528.425000	17808.570000	15651.405000	24915.555000	11267.460000	9540.180000	-16522.515000	-7.150211	-1.236813	-0.401247	0.484578	2.816265	23.886035	4.997216	-6.846762	-3.128300	1.022420	0.869820	-0.577086	-0.245117	0.766539	-1.000000	-1.000000	-1.000000	-1.000000	-1.000000	-1.000000	-1.000000	62.000000	0.000000	-1.000000	-1.000000	209264.000000	1775765292.415061
28399.905000	1531.170000	17813.520000	15655.050000	24913.935000	11266.740000	9548.235000	-16511.805000	-1.364046	1.526107	1.193722	0.235780	0.993073	4.906115	4.435817	1.803304	-3.128300	1.022420	0.869820	-0.577086	-0.245117	0.766539	-1.000000	-1.000000	-1.000000	-1.000000	-1.000000	-1.000000	-1.000000	62.000000	0.000000	-1.000000	-1.000000	209265.000000	1775765292.418953
28398.870000	1526.355000	17807.490000	15649.515000	24905.925000	11288.520000	9538.740000	-16512.300000	5.072085	3.827446	2.474453	-0.297943	-1.127982	-12.872740	3.279002	10.105818	-3.128300	1.022420	0.869820	-0.577086	-0.245117	0.766539	-1.000000	-1.000000	-1.000000	-1.000000	-1.000000	-1.000000	-1.000000	62.000000	0.000000	-1.000000	-1.000000	209266.000000	1775765292.418972
28398.060000	1523.835000	17805.645000	15649.605000	24907.590000	11280.600000	9533.700000	-16512.210000	8.488644	3.955489	2.378362	-0.819842	-3.124502	-20.158508	1.548031	14.049065	-3.128300	1.022420	0.869820	-0.577086	-0.245117	0.766539	-1.000000	-1.000000	-1.000000	-1.000000	-1.000000	-1.000000	-1.000000	62.000000	0.000000	-1.000000	-1.000000	209267.000000	1775765292.423026
28401.345000	1527.255000	17809.200000	15655.185000	24915.195000	11278.440000	9535.185000	-16513.695000	7.312182	1.675634	0.681060	-1.094070	-4.130755	-16.407995	-1.035821	11.648029	-3.128300	1.022420	0.869820	-0.577086	-0.245117	0.766539	-1.000000	-1.000000	-1.000000	-1.000000	-1.000000	-1.000000	-1.000000	62.000000	0.000000	-1.000000	-1.000000	209268.000000	1775765292.423043
28397.385000	1522.710000	17807.265000	15655.770000	24918.480000	11284.515000	9543.690000	-16522.830000	2.888263	-1.390193	-1.382848	-0.652276	-3.061513	-7.550496	-3.220561	4.338511	-3.662400	0.457800	-0.167860	-0.576354	-0.245483	0.765684	-1.000000	-1.000000	-1.000000	-1.000000	-1.000000	-1.000000	-1.000000	62.000000	0.000000	-1.000000	-1.000000	209269.000000	1775765292.427822
28393.290000	1516.770000	17801.595000	15649.335000	24911.010000	11288.475000	9547.245000	-16526.880000	-2.226221	-3.588646	-2.598231	0.324399	-0.382065	0.767394	-3.240826	-4.323019	-3.662400	0.457800	-0.167860	-0.576354	-0.245483	0.765684	-1.000000	-1.000000	-1.000000	-1.000000	-1.000000	-1.000000	-1.000000	62.000000	0.000000	-1.000000	-1.000000	209270.000000	1775765292.427850
28394.055000	1515.780000	17798.310000	15645.645000	24909.480000	11288.835000	9550.485000	-16518.780000	-5.920660	-4.366830	-2.868241	0.755538	1.782917	5.889042	-1.044343	-10.383796	-3.662400	0.457800	-0.167860	-0.576354	-0.245483	0.765684	-1.000000	-1.000000	-1.000000	-1.000000	-1.000000	-1.000000	-1.000000	62.000000	0.000000	-1.000000	-1.000000	209271.000000	1775765292.433474
28390.815000	1518.660000	17803.440000	15651.540000	24916.185000	11284.200000	9545.985000	-16517.790000	-6.968397	-3.608084	-2.374658	0.205259	2.120052	7.092829	1.482886	-11.065458	-3.662400	0.457800	-0.167860	-0.576354	-0.245483	0.765684	-1.000000	-1.000000	-1.000000	-1.000000	-1.000000	-1.000000	-1.000000	62.000000	0.000000	-1.000000	-1.000000	209272.000000	1775765292.433497
28388.745000	1522.035000	17807.850000	15656.535000	24919.920000	11285.910000	9545.085000	-16517.790000	-5.375389	-1.314062	-0.860652	-0.284307	1.463864	4.959409	2.278427	-6.655867	-3.662400	0.457800	-0.167860	-0.576354	-0.245483	0.765684	-1.000000	-1.000000	-1.000000	-1.000000	-1.000000	-1.000000	-1.000000	62.000000	0.000000	-1.000000	-1.000000	209273.000000	1775765292.436380
28393.200000	1521.990000	17804.160000	15651.630000	24910.335000	11273.805000	9539.145000	-16520.400000	-2.180749	1.792791	1.472418	0.201118	0.902856	1.112364	0.800305	-0.399642	-3.662400	0.457800	-0.167860	-0.576354	-0.245483	0.765684	-1.000000	-1.000000	-1.000000	-1.000000	-1.000000	-1.000000	-1.000000	62.000000	0.000000	-1.000000	-1.000000	209274.000000	1775765292.436400
28393.335000	1523.295000	17805.240000	15650.145000	24903.405000	11259.225000	9534.915000	-16530.165000	1.397537	4.243195	3.328715	0.994932	0.079934	-2.888949	-1.861110	4.005465	-3.662400	0.457800	-0.167860	-0.576354	-0.245483	0.765684	-1.000000	-1.000000	-1.000000	-1.000000	-1.000000	-1.000000	-1.000000	62.000000	0.000000	-1.000000	-1.000000	209275.000000	1775765292.440434
28401.525000	1530.450000	17812.620000	15656.490000	24910.245000	11277.855000	9541.980000	-16521.570000	4.340344	4.956034	3.678059	1.103500	-1.352036	-5.535822	-3.834938	4.921098	-3.662400	0.457800	-0.167860	-0.576354	-0.245483	0.765684	-1.000000	-1.000000	-1.000000	-1.000000	-1.000000	-1.000000	-1.000000	62.000000	0.000000	-1.000000	-1.000000	209276.000000	1775765292.440454
28402.740000	1530.945000	17810.055000	15651.360000	24906.060000	11276.550000	9548.055000	-16514.010000	5.911942	4.021116	2.776433	0.602058	-2.312372	-4.808449	-3.401730	3.688841	-3.662400	0.457800	-0.167860	-0.576354	-0.245483	0.765684	-1.000000	-1.000000	-1.000000	-1.000000	-1.000000	-1.000000	-1.000000	62.000000	0.000000	-1.000000	-1.000000	209277.000000	1775765292.442903
28399.455000	1527.570000	17807.760000	15653.250000	24913.845000	11303.415000	9559.755000	-16513.335000	5.578878	1.985411	1.167241	-0.077347	-1.688255	-0.051479	-0.216031	2.633213	-3.662400	0.457800	-0.167860	-0.576354	-0.245483	0.765684	-1.000000	-1.000000	-1.000000	-1.000000	-1.000000	-1.000000	-1.000000	62.000000	0.000000	-1.000000	-1.000000	209278.000000	1775765292.442920
28400.805000	1528.155000	17810.460000	15658.020000	24916.455000	11278.260000	9553.860000	-16513.740000	3.174075	-0.714001	-0.814914	-0.616317	0.385609	6.096134	3.936935	2.274179	-3.052000	0.198380	-0.839300	-0.574095	-0.247802	0.766172	-1.000000	-1.000000	-1.000000	-1.000000	-1.000000	-1.000000	-1.000000	62.000000	0.000000	-1.000000	-1.000000	209279.000000	1775765292.448918
28408.095000	1536.120000	17818.560000	15664.725000	24913.035000	11245.590000	9539.055000	-16508.880000	-0.276676	-3.130887	-2.316446	-0.497274	2.682426	8.256384	5.812422	1.675724	-3.052000	0.198380	-0.839300	-0.574095	-0.247802	0.766172	-1.000000	-1.000000	-1.000000	-1.000000	-1.000000	-1.000000	-1.000000	62.000000	0.000000	-1.000000	-1.000000	209280.000000	1775765292.448938
28411.470000	1540.845000	17824.095000	15672.780000	24925.905000	11263.185000	9548.910000	-16500.915000	-2.835255	-3.886758	-2.282659	0.537624	3.794344	3.393273	3.522134	0.535958	-3.052000	0.198380	-0.839300	-0.574095	-0.247802	0.766172	-1.000000	-1.000000	-1.000000	-1.000000	-1.000000	-1.000000	-1.000000	62.000000	0.000000	-1.000000	-1.000000	209281.000000	1775765292.450923
28402.110000	1532.205000	17817.165000	15668.955000	24932.025000	11301.030000	9560.205000	-16504.965000	-3.616793	-2.795602	-0.934035	1.800211	3.538451	-3.464002	-0.752828	-0.643152	-3.052000	0.198380	-0.839300	-0.574095	-0.247802	0.766172	-1.000000	-1.000000	-1.000000	-1.000000	-1.000000	-1.000000	-1.000000	62.000000	0.000000	-1.000000	-1.000000	209282.000000	1775765292.450943
28392.840000	1520.685000	17805.195000	15656.940000	24921.135000	11323.755000	9549.945000	-16515.675000	-3.663274	-1.583649	-0.114421	1.699705	2.338333	-3.999350	-3.274313	-1.938384	-3.052000	0.198380	-0.839300	-0.574095	-0.247802	0.766172	-1.000000	-1.000000	-1.000000	-1.000000	-1.000000	-1.000000	-1.000000	62.000000	0.000000	-1.000000	-1.000000	209283.000000	1775765292.456668
28393.470000	1520.730000	17803.170000	15653.520000	24911.235000	11282.625000	9550.935000	-16515.405000	-4.042674	-1.796505	-1.252073	-0.790978	-0.253183	1.998622	-3.269734	-3.763953	-3.052000	0.198380	-0.839300	-0.574095	-0.247802	0.766172	-1.000000	-1.000000	-1.000000	-1.000000	-1.000000	-1.000000	-1.000000	62.000000	0.000000	-1.000000	-1.000000	209284.000000	1775765292.456698
28398.105000	1529.280000	17813.745000	15667.110000	24923.655000	11259.675000	9554.805000	-16511.940000	-3.995246	-2.508327	-3.135035	-4.117274	-3.941714	5.542547	-2.194141	-5.233859	-3.052000	0.198380	-0.839300	-0.574095	-0.247802	0.766172	-1.000000	-1.000000	-1.000000	-1.000000	-1.000000	-1.000000	-1.000000	62.000000	0.000000	-1.000000	-1.000000	209285.000000	1775765292.458979
28407.960000	1541.385000	17827.425000	15680.475000	24937.605000	11269.980000	9544.905000	-16507.080000	-1.967562	-1.353637	-2.836364	-4.844225	-5.998396	0.685481	-1.074269	-4.594303	-3.052000	0.198380	-0.839300	-0.574095	-0.247802	0.766172	-1.000000	-1.000000	-1.000000	-1.000000	-1.000000	-1.000000	-1.000000	62.000000	0.000000	-1.000000	-1.000000	209286.000000	1775765292.459004
28407.915000	1538.145000	17822.340000	15673.995000	24931.935000	11287.845000	9540.135000	-16506.810000	2.049690	2.219966	0.635292	-1.639537	-4.206346	-7.412913	-0.555073	-1.459335	-3.052000	0.198380	-0.839300	-0.574095	-0.247802	0.766172	-1.000000	-1.000000	-1.000000	-1.000000	-1.000000	-1.000000	-1.000000	62.000000	0.000000	-1.000000	-1.000000	209287.000000	1775765292.462946
28400.535000	1531.080000	17817.570000	15669.675000	24929.460000	11303.460000	9545.580000	-16509.690000	5.734157	5.623387	4.551376	2.624694	-0.241543	-9.702110	-0.710328	2.413776	-3.052000	0.198380	-0.839300	-0.574095	-0.247802	0.766172	-1.000000	-1.000000	-1.000000	-1.000000	-1.000000	-1.000000	-1.000000	62.000000	0.000000	-1.000000	-1.000000	209288.000000	1775765292.462966
28391.805000	1521.855000	17806.455000	15656.085000	24918.570000	11319.570000	9555.345000	-16514.370000	6.209268	5.629508	5.250494	3.961741	2.223951	-3.531640	-0.338450	4.598782	-2.746800	0.076300	-0.961380	-0.575316	-0.251769	0.765928	-1.000000	-1.000000	-1.000000	-1.000000	-1.000000	-1.000000	-1.000000	62.000000	0.000000	-1.000000	-1.000000	209289.000000	1775765292.470251
28399.500000	1530.450000	17812.665000	15662.475000	24924.645000	11316.375000	9566.280000	-16507.440000	3.046231	1.988407	2.076626	1.469226	1.628239	6.025602	1.724289	4.155108	-2.746800	0.076300	-0.961380	-0.575316	-0.251769	0.765928	-1.000000	-1.000000	-1.000000	-1.000000	-1.000000	-1.000000	-1.000000	62.000000	0.000000	-1.000000	-1.000000	209290.000000	1775765292.470277
28403.910000	1532.880000	17815.995000	15666.525000	24926.715000	11306.880000	9564.660000	-16502.895000	-0.967612	-2.168140	-2.047389	-2.009024	-0.342183	11.360085	4.709030	2.348482	-2.746800	0.076300	-0.961380	-0.575316	-0.251769	0.765928	-1.000000	-1.000000	-1.000000	-1.000000	-1.000000	-1.000000	-1.000000	62.000000	0.000000	-1.000000	-1.000000	209291.000000	1775765292.471695
28403.055000	1528.650000	17810.685000	15660.315000	24918.885000	11299.680000	9557.910000	-16504.875000	-2.825866	-3.841649	-3.908520	-3.230961	-1.328197	8.359814	6.020814	0.894514	-2.746800	0.076300	-0.961380	-0.575316	-0.251769	0.765928	-1.000000	-1.000000	-1.000000	-1.000000	-1.000000	-1.000000	-1.000000	62.000000	0.000000	-1.000000	-1.000000	209292.000000	1775765292.471719
28397.655000	1523.025000	17807.985000	15659.415000	24918.255000	11289.330000	9551.655000	-16508.475000	-2.282509	-3.042057	-3.096653	-1.864677	-0.936787	-0.831356	3.628561	0.037652	-2.746800	0.076300	-0.961380	-0.575316	-0.251769	0.765928	-1.000000	-1.000000	-1.000000	-1.000000	-1.000000	-1.000000	-1.000000	62.000000	0.000000	-1.000000	-1.000000	209293.000000	1775765292.477371
28399.635000	1523.745000	17809.470000	15658.785000	24915.960000	11278.980000	9553.455000	-16505.595000	-1.059831	-1.538147	-1.171063	0.343132	-0.053238	-10.307390	-1.568389	-0.838155	-2.746800	0.076300	-0.961380	-0.575316	-0.251769	0.765928	-1.000000	-1.000000	-1.000000	-1.000000	-1.000000	-1.000000	-1.000000	62.000000	0.000000	-1.000000	-1.000000	209294.000000	1775765292.477392
28401.210000	1524.870000	17810.460000	15656.310000	24913.395000	11274.390000	9557.280000	-16503.840000	-0.293775	-0.324301	0.662998	1.949371	0.731194	-14.873718	-6.158470	-1.662327	-2.746800	0.076300	-0.961380	-0.575316	-0.251769	0.765928	-1.000000	-1.000000	-1.000000	-1.000000	-1.000000	-1.000000	-1.000000	62.000000	0.000000	-1.000000	-1.000000	209295.000000	1775765292.480733
28405.260000	1528.875000	17815.725000	15658.380000	24911.955000	11262.870000	9554.085000	-16505.145000	0.169374	0.752767	2.071000	2.486376	1.218853	-12.699646	-7.250678	-1.870957	-2.746800	0.076300	-0.961380	-0.575316	-0.251769	0.765928	-1.000000	-1.000000	-1.000000	-1.000000	-1.000000	-1.000000	-1.000000	62.000000	0.000000	-1.000000	-1.000000	209296.000000	1775765292.480754
28409.355000	1540.215000	17830.665000	15671.025000	24917.670000	11240.190000	9546.930000	-16512.570000	0.781037	2.089795	3.232184	2.440479	1.522314	-5.899792	-4.943167	-1.548419	-2.746800	0.076300	-0.961380	-0.575316	-0.251769	0.765928	-1.000000	-1.000000	-1.000000	-1.000000	-1.000000	-1.000000	-1.000000	62.000000	0.000000	-1.000000	-1.000000	209297.000000	1775765292.483797
28400.265000	1538.730000	17833.680000	15676.380000	24922.035000	11243.430000	9545.895000	-16525.530000	1.310569	3.557137	4.310196	2.728265	2.030796	1.551146	-1.518886	-1.548299	-2.746800	0.076300	-0.961380	-0.575316	-0.251769	0.765928	-1.000000	-1.000000	-1.000000	-1.000000	-1.000000	-1.000000	-1.000000	62.000000	0.000000	-1.000000	-1.000000	209298.000000	1775765292.483820
28403.460000	1539.405000	17831.070000	15683.355000	24936.345000	11283.660000	9557.550000	-16517.610000	0.958453	4.100071	4.502546	3.385056	2.982007	8.111826	1.403096	-2.142910	-3.250380	1.251320	-1.999060	-0.574645	-0.250915	0.766233	-1.000000	-1.000000	-1.000000	-1.000000	-1.000000	-1.000000	-1.000000	62.000000	0.000000	-1.000000	-1.000000	209299.000000	1775765292.487848
28409.490000	1540.800000	17833.500000	15692.175000	24956.640000	11323.080000	9558.405000	-16503.525000	-0.195019	2.712535	2.573807	3.460690	4.345497	15.369184	3.800989	-1.817659	-3.250380	1.251320	-1.999060	-0.574645	-0.250915	0.766233	-1.000000	-1.000000	-1.000000	-1.000000	-1.000000	-1.000000	-1.000000	62.000000	0.000000	-1.000000	-1.000000	209300.000000	1775765292.487875
28410.930000	1539.495000	17832.825000	15685.155000	24942.510000	11295.090000	9546.390000	-16494.705000	-0.932654	-0.215095	-1.224190	2.066106	5.229330	22.063935	5.290808	1.090552	-3.250380	1.251320	-1.999060	-0.574645	-0.250915	0.766233	-1.000000	-1.000000	-1.000000	-1.000000	-1.000000	-1.000000	-1.000000	62.000000	0.000000	-1.000000	-1.000000	209301.000000	1775765292.494862
28396.215000	1518.570000	17806.410000	15650.595000	24905.295000	11295.225000	9547.200000	-16508.880000	-0.919504	-3.615546	-5.502284	-1.703586	2.822091	21.522434	4.547934	5.230435	-3.250380	1.251320	-1.999060	-0.574645	-0.250915	0.766233	-1.000000	-1.000000	-1.000000	-1.000000	-1.000000	-1.000000	-1.000000	62.000000	0.000000	-1.000000	-1.000000	209302.000000	1775765292.494886
28389.510000	1513.575000	17801.460000	15650.370000	24913.620000	11305.485000	9561.555000	-16533.405000	-1.338887	-6.797034	-9.243568	-7.887555	-4.512248	10.201987	1.878731	6.363102	-3.250380	1.251320	-1.999060	-0.574645	-0.250915	0.766233	-1.000000	-1.000000	-1.000000	-1.000000	-1.000000	-1.000000	-1.000000	62.000000	0.000000	-1.000000	-1.000000	209303.000000	1775765292.496336
28388.115000	1520.820000	17806.230000	15657.480000	24922.215000	11297.565000	9565.740000	-16543.710000	-2.659717	-8.373637	-10.819063	-13.032738	-12.388090	-6.314829	-0.241171	1.859201	-3.250380	1.251320	-1.999060	-0.574645	-0.250915	0.766233	-1.000000	-1.000000	-1.000000	-1.000000	-1.000000	-1.000000	-1.000000	62.000000	0.000000	-1.000000	-1.000000	209304.000000	1775765292.496355
28382.400000	1522.980000	17811.045000	15662.295000	24924.825000	11284.830000	9559.935000	-16541.820000	-3.549683	-6.270626	-7.908009	-12.080429	-13.859656	-19.618120	-0.527901	-5.470586	-3.250380	1.251320	-1.999060	-0.574645	-0.250915	0.766233	-1.000000	-1.000000	-1.000000	-1.000000	-1.000000	-1.000000	-1.000000	62.000000	0.000000	-1.000000	-1.000000	209305.000000	1775765292.501083
28396.035000	1536.570000	17825.580000	15675.615000	24932.835000	11282.265000	9561.735000	-16512.525000	-2.430867	-0.284863	-0.323554	-3.975661	-7.247333	-25.119059	-0.303865	-9.096824	-3.250380	1.251320	-1.999060	-0.574645	-0.250915	0.766233	-1.000000	-1.000000	-1.000000	-1.000000	-1.000000	-1.000000	-1.000000	62.000000	0.000000	-1.000000	-1.000000	209306.000000	1775765292.501103
28412.505000	1537.605000	17825.400000	15673.545000	24930.630000	11277.990000	9566.325000	-16485.795000	1.336062	6.948596	8.761433	7.011535	2.938995	-22.157154	-0.854460	-4.423786	-3.250380	1.251320	-1.999060	-0.574645	-0.250915	0.766233	-1.000000	-1.000000	-1.000000	-1.000000	-1.000000	-1.000000	-1.000000	62.000000	0.000000	-1.000000	-1.000000	209307.000000	1775765292.502860
28412.955000	1528.785000	17815.995000	15663.780000	24921.495000	11287.710000	9566.685000	-16485.840000	6.607707	11.405566	14.403531	14.468951	10.404930	-12.570182	-1.777654	6.369747	-3.250380	1.251320	-1.999060	-0.574645	-0.250915	0.766233	-1.000000	-1.000000	-1.000000	-1.000000	-1.000000	-1.000000	-1.000000	62.000000	0.000000	-1.000000	-1.000000	209308.000000	1775765292.502874
28412.685000	1530.990000	17818.020000	15664.680000	24920.010000	11301.075000	9581.400000	-16491.015000	10.048028	10.251197	13.173513	14.233324	11.325798	0.291520	-1.997254	14.984868	-1.190280	1.098720	-1.297100	-0.571959	-0.253478	0.769346	-1.000000	-1.000000	-1.000000	-1.000000	-1.000000	-1.000000	-1.000000	62.000000	0.000000	-1.000000	-1.000000	209309.000000	1775765292.507800
28419.255000	1540.620000	17827.695000	15675.570000	24930.990000	11296.845000	9572.220000	-16488.090000	8.780217	4.527360	6.324588	7.632001	6.762560	12.141675	-1.107388	14.342637	-1.190280	1.098720	-1.297100	-0.571959	-0.253478	0.769346	-1.000000	-1.000000	-1.000000	-1.000000	-1.000000	-1.000000	-1.000000	62.000000	0.000000	-1.000000	-1.000000	209310.000000	1775765292.507816
28410.795000	1532.070000	17820.270000	15670.845000	24930.810000	11298.420000	9568.215000	-16495.155000	3.183889	-1.864105	-1.505522	-0.229492	1.108693	18.469905	-0.183585	4.780670	-1.190280	1.098720	-1.297100	-0.571959	-0.253478	0.769346	-1.000000	-1.000000	-1.000000	-1.000000	-1.000000	-1.000000	-1.000000	62.000000	0.000000	-1.000000	-1.000000	209311.000000	1775765292.511172
28396.260000	1520.820000	17810.595000	15662.025000	24920.685000	11294.280000	9559.395000	-16508.970000	-4.235493	-6.301183	-6.974848	-5.630017	-2.512210	16.965861	-0.717055	-7.799208	-1.190280	1.098720	-1.297100	-0.571959	-0.253478	0.769346	-1.000000	-1.000000	-1.000000	-1.000000	-1.000000	-1.000000	-1.000000	62.000000	0.000000	-1.000000	-1.000000	209312.000000	1775765292.511196
28392.705000	1520.145000	17811.585000	15662.880000	24919.965000	11290.545000	9554.715000	-16514.505000	-10.754842	-8.484042	-9.451069	-8.019279	-4.141434	9.234906	-2.610186	-17.203477	-1.190280	1.098720	-1.297100	-0.571959	-0.253478	0.769346	-1.000000	-1.000000	-1.000000	-1.000000	-1.000000	-1.000000	-1.000000	62.000000	0.000000	-1.000000	-1.000000	209313.000000	1775765292.519898
28399.815000	1525.635000	17816.760000	15667.605000	24927.030000	11291.760000	9562.275000	-16509.780000	-13.489291	-8.179305	-8.873676	-7.726547	-4.484983	-0.450362	-4.011011	-19.468754	-1.190280	1.098720	-1.297100	-0.571959	-0.253478	0.769346	-1.000000	-1.000000	-1.000000	-1.000000	-1.000000	-1.000000	-1.000000	62.000000	0.000000	-1.000000	-1.000000	209314.000000	1775765292.519920
28395.585000	1519.830000	17809.875000	15662.070000	24920.370000	11306.025000	9558.720000	-16515.270000	-10.558564	-5.042362	-5.406068	-5.048935	-3.442241	-7.386261	-3.009691	-13.821645	-1.190280	1.098720	-1.297100	-0.571959	-0.253478	0.769346	-1.000000	-1.000000	-1.000000	-1.000000	-1.000000	-1.000000	-1.000000	62.000000	0.000000	-1.000000	-1.000000	209315.000000	1775765292.519942
28403.820000	1522.665000	17810.505000	15661.485000	24917.445000	11303.730000	9556.065000	-16508.880000	-3.172100	-0.236054	-0.652319	-1.268136	-1.497659	-8.811900	0.235030	-3.206032	-1.190280	1.098720	-1.297100	-0.571959	-0.253478	0.769346	-1.000000	-1.000000	-1.000000	-1.000000	-1.000000	-1.000000	-1.000000	62.000000	0.000000	-1.000000	-1.000000	209316.000000	1775765292.519953
28401.885000	1516.095000	17804.160000	15655.680000	24908.310000	11248.695000	9554.580000	-16507.440000	5.018312	3.961654	3.109213	1.766282	0.012934	-6.727979	3.574569	7.523751	-1.190280	1.098720	-1.297100	-0.571959	-0.253478	0.769346	-1.000000	-1.000000	-1.000000	-1.000000	-1.000000	-1.000000	-1.000000	62.000000	0.000000	-1.000000	-1.000000	209317.000000	1775765292.522945
28399.140000	1516.995000	17807.130000	15660.495000	24915.645000	11273.040000	9556.335000	-16508.655000	10.284108	5.851624	4.668964	3.127048	0.501147	-5.707160	5.199492	14.276545	-1.190280	1.098720	-1.297100	-0.571959	-0.253478	0.769346	-1.000000	-1.000000	-1.000000	-1.000000	-1.000000	-1.000000	-1.000000	62.000000	0.000000	-1.000000	-1.000000	209318.000000	1775765292.522960
28395.810000	1516.815000	17807.625000	15660.990000	24916.860000	11283.795000	9551.295000	-16519.590000	10.594423	5.261132	4.382627	3.251686	0.804641	-5.487629	4.791127	14.904747	-0.320460	1.815940	-0.930860	-0.570921	-0.256652	0.770384	-1.000000	-1.000000	-1.000000	-1.000000	-1.000000	-1.000000	-1.000000	62.000000	0.000000	-1.000000	-1.000000	209319.000000	1775765292.526966
28386.900000	1515.420000	17808.930000	15667.560000	24919.110000	11285.235000	9546.570000	-16531.695000	6.455246	3.266666	3.338563	3.067519	1.800728	-1.993974	2.834113	9.595855	-0.320460	1.815940	-0.930860	-0.570921	-0.256652	0.770384	-1.000000	-1.000000	-1.000000	-1.000000	-1.000000	-1.000000	-1.000000	62.000000	0.000000	-1.000000	-1.000000	209320.000000	1775765292.526985
28387.620000	1528.695000	17822.565000	15682.680000	24926.850000	11285.010000	9548.550000	-16533.315000	0.380571	1.314087	2.473754	3.221300	3.199456	4.664803	0.203923	1.116424	-0.320460	1.815940	-0.930860	-0.570921	-0.256652	0.770384	-1.000000	-1.000000	-1.000000	-1.000000	-1.000000	-1.000000	-1.000000	62.000000	0.000000	-1.000000	-1.000000	209321.000000	1775765292.532373
28382.670000	1534.950000	17825.805000	15684.255000	24927.885000	11270.565000	9544.275000	-16536.915000	-4.533771	0.615292	2.305549	3.763028	4.107602	9.772397	-1.877483	-6.130363	-0.320460	1.815940	-0.930860	-0.570921	-0.256652	0.770384	-1.000000	-1.000000	-1.000000	-1.000000	-1.000000	-1.000000	-1.000000	62.000000	0.000000	-1.000000	-1.000000	209322.000000	1775765292.532387
28383.030000	1535.535000	17820.585000	15676.470000	24924.285000	11230.830000	9547.335000	-16525.620000	-6.270785	1.151781	2.260721	3.514587	3.636814	8.811120	-2.557469	-8.560422	-0.320460	1.815940	-0.930860	-0.570921	-0.256652	0.770384	-1.000000	-1.000000	-1.000000	-1.000000	-1.000000	-1.000000	-1.000000	62.000000	0.000000	-1.000000	-1.000000	209323.000000	1775765292.535142
28398.690000	1525.140000	17812.530000	15663.870000	24925.005000	11272.095000	9565.875000	-16520.805000	-4.476974	1.206975	0.778610	0.736485	1.359605	2.004900	-1.487698	-5.425338	-0.320460	1.815940	-0.930860	-0.570921	-0.256652	0.770384	-1.000000	-1.000000	-1.000000	-1.000000	-1.000000	-1.000000	-1.000000	62.000000	0.000000	-1.000000	-1.000000	209324.000000	1775765292.535167
28413.495000	1532.790000	17826.435000	15684.480000	24947.865000	11311.560000	9566.685000	-16505.280000	0.172376	-0.666505	-2.362441	-4.033709	-1.506821	-3.451323	1.223851	1.047089	-0.320460	1.815940	-0.930860	-0.570921	-0.256652	0.770384	-1.000000	-1.000000	-1.000000	-1.000000	-1.000000	-1.000000	-1.000000	62.000000	0.000000	-1.000000	-1.000000	209325.000000	1775765292.541747
28410.840000	1521.810000	17811.990000	15669.180000	24930.855000	11302.965000	9568.350000	-16498.800000	5.589567	-3.703532	-5.196458	-7.500836	-2.951826	-1.064775	3.988687	7.172991	-0.320460	1.815940	-0.930860	-0.570921	-0.256652	0.770384	-1.000000	-1.000000	-1.000000	-1.000000	-1.000000	-1.000000	-1.000000	62.000000	0.000000	-1.000000	-1.000000	209326.000000	1775765292.541772
28405.035000	1518.345000	17806.095000	15660.090000	24919.560000	11299.005000	9576.630000	-16501.905000	8.144137	-6.093365	-6.285607	-7.745900	-3.290886	5.577693	4.564480	9.603299	-0.320460	1.815940	-0.930860	-0.570921	-0.256652	0.770384	-1.000000	-1.000000	-1.000000	-1.000000	-1.000000	-1.000000	-1.000000	62.000000	0.000000	-1.000000	-1.000000	209327.000000	1775765292.544621
28398.105000	1518.975000	17807.445000	15660.000000	24917.085000	11294.955000	9568.935000	-16507.710000	5.349902	-6.615438	-5.768307	-5.837519	-4.333227	7.841179	2.322062	6.625214	-0.320460	1.815940	-0.930860	-0.570921	-0.256652	0.770384	-1.000000	-1.000000	-1.000000	-1.000000	-1.000000	-1.000000	-1.000000	62.000000	0.000000	-1.000000	-1.000000	209328.000000	1775765292.544640
28396.305000	1523.250000	17814.735000	15669.090000	24925.950000	11303.190000	9568.350000	-16512.840000	-1.457635	-4.652721	-3.589980	-2.732150	-5.499688	2.818917	-1.736980	-0.654705	-1.175020	2.182180	-0.579880	-0.569640	-0.253478	0.770506	-1.000000	-1.000000	-1.000000	-1.000000	-1.000000	-1.000000	-1.000000	62.000000	0.000000	-1.000000	-1.000000	209329.000000	1775765292.547885
28402.020000	1527.210000	17818.245000	15673.455000	24930.000000	11303.505000	9572.580000	-16509.510000	-7.918037	-0.505325	0.365575	1.587871	-4.333289	-5.252271	-5.718364	-8.407916	-1.175020	2.182180	-0.579880	-0.569640	-0.253478	0.770506	-1.000000	-1.000000	-1.000000	-1.000000	-1.000000	-1.000000	-1.000000	62.000000	0.000000	-1.000000	-1.000000	209330.000000	1775765292.547903
28400.130000	1522.935000	17813.295000	15668.370000	24923.385000	11297.430000	9571.455000	-16511.355000	-10.061268	4.087543	4.712339	6.047053	-0.368398	-10.907310	-7.464758	-12.399956	-1.175020	2.182180	-0.579880	-0.569640	-0.253478	0.770506	-1.000000	-1.000000	-1.000000	-1.000000	-1.000000	-1.000000	-1.000000	62.000000	0.000000	-1.000000	-1.000000	209331.000000	1775765292.550960
28399.320000	1522.080000	17812.035000	15667.110000	24921.090000	11296.305000	9568.665000	-16512.930000	-7.251613	6.720408	6.986946	8.252551	3.836793	-11.913196	-6.211989	-10.918135	-1.175020	2.182180	-0.579880	-0.569640	-0.253478	0.770506	-1.000000	-1.000000	-1.000000	-1.000000	-1.000000	-1.000000	-1.000000	62.000000	0.000000	-1.000000	-1.000000	209332.000000	1775765292.550979
28402.560000	1525.410000	17815.860000	15671.070000	24922.755000	11288.385000	9561.420000	-16512.165000	-1.884428	6.232270	6.004503	6.926342	5.653093	-9.072375	-3.223205	-5.493865	-1.175020	2.182180	-0.579880	-0.569640	-0.253478	0.770506	-1.000000	-1.000000	-1.000000	-1.000000	-1.000000	-1.000000	-1.000000	62.000000	0.000000	-1.000000	-1.000000	209333.000000	1775765292.554985
28406.520000	1530.045000	17820.270000	15674.085000	24921.855000	11279.430000	9556.380000	-16509.195000	3.213102	3.658974	3.011838	3.330944	4.805523	-4.479992	-0.414182	0.953520	-1.175020	2.182180	-0.579880	-0.569640	-0.253478	0.770506	-1.000000	-1.000000	-1.000000	-1.000000	-1.000000	-1.000000	-1.000000	62.000000	0.000000	-1.000000	-1.000000	209334.000000	1775765292.555006
28399.455000	1524.285000	17815.905000	15671.295000	24918.885000	11271.240000	9552.780000	-16517.970000	6.164898	0.788618	0.026270	-0.332885	2.565203	-0.223264	1.223277	5.809826	-1.175020	2.182180	-0.579880	-0.569640	-0.253478	0.770506	-1.000000	-1.000000	-1.000000	-1.000000	-1.000000	-1.000000	-1.000000	62.000000	0.000000	-1.000000	-1.000000	209335.000000	1775765292.561309
28394.775000	1520.505000	17814.375000	15672.960000	24921.495000	11265.030000	9564.705000	-16522.065000	5.988822	-1.605753	-2.084169	-2.837123	0.232991	2.659748	2.207606	7.355779	-1.175020	2.182180	-0.579880	-0.569640	-0.253478	0.770506	-1.000000	-1.000000	-1.000000	-1.000000	-1.000000	-1.000000	-1.000000	62.000000	0.000000	-1.000000	-1.000000	209336.000000	1775765292.561337
28397.520000	1526.715000	17821.980000	15684.390000	24933.330000	11261.430000	9562.545000	-16520.670000	3.144848	-3.328463	-3.210142	-3.727507	-1.050300	4.316173	3.626637	5.617310	-1.175020	2.182180	-0.579880	-0.569640	-0.253478	0.770506	-1.000000	-1.000000	-1.000000	-1.000000	-1.000000	-1.000000	-1.000000	62.000000	0.000000	-1.000000	-1.000000	209337.000000	1775765292.563601
28391.625000	1518.795000	17811.270000	15671.160000	24919.695000	11268.360000	9558.585000	-16524.495000	-0.367065	-3.883472	-3.233500	-3.051209	-0.859841	5.501113	5.205129	2.467912	-1.175020	2.182180	-0.579880	-0.569640	-0.253478	0.770506	-1.000000	-1.000000	-1.000000	-1.000000	-1.000000	-1.000000	-1.000000	62.000000	0.000000	-1.000000	-1.000000	209338.000000	1775765292.563626
28391.895000	1518.390000	17809.110000	15665.040000	24917.760000	11307.105000	9565.920000	-16523.010000	-2.652274	-3.225732	-2.637383	-2.107673	-0.427257	7.471479	5.487431	-0.058673	-4.242280	1.739640	0.793520	-0.571410	-0.251891	0.768064	-1.000000	-1.000000	-1.000000	-1.000000	-1.000000	-1.000000	-1.000000	62.000000	0.000000	-1.000000	-1.000000	209339.000000	1775765292.566945
28388.880000	1517.355000	17810.010000	15667.560000	24923.520000	11305.215000	9564.885000	-16524.360000	-3.079161	-1.942832	-2.070483	-2.141728	-0.938683	10.790382	4.016026	-1.074633	-4.242280	1.739640	0.793520	-0.571410	-0.251891	0.768064	-1.000000	-1.000000	-1.000000	-1.000000	-1.000000	-1.000000	-1.000000	62.000000	0.000000	-1.000000	-1.000000	209340.000000	1775765292.566970
28392.795000	1523.700000	17817.435000	15675.120000	24929.415000	11296.080000	9559.755000	-16523.190000	-1.940016	-0.329363	-1.167886	-2.294353	-1.543002	12.616461	1.446901	-0.778976	-4.242280	1.739640	0.793520	-0.571410	-0.251891	0.768064	-1.000000	-1.000000	-1.000000	-1.000000	-1.000000	-1.000000	-1.000000	62.000000	0.000000	-1.000000	-1.000000	209341.000000	1775765292.570857
28395.495000	1526.985000	17822.430000	15682.635000	24938.955000	11298.870000	9565.155000	-16522.065000	0.117716	1.620089	0.754090	-0.845444	-0.792452	8.744495	-1.428710	0.095309	-4.242280	1.739640	0.793520	-0.571410	-0.251891	0.768064	-1.000000	-1.000000	-1.000000	-1.000000	-1.000000	-1.000000	-1.000000	62.000000	0.000000	-1.000000	-1.000000	209342.000000	1775765292.570877
28394.910000	1521.810000	17814.780000	15673.095000	24927.795000	11296.755000	9567.855000	-16523.145000	2.216523	3.345649	3.090704	2.023356	1.022086	-0.566862	-3.487456	0.812274	-4.242280	1.739640	0.793520	-0.571410	-0.251891	0.768064	-1.000000	-1.000000	-1.000000	-1.000000	-1.000000	-1.000000	-1.000000	62.000000	0.000000	-1.000000	-1.000000	209343.000000	1775765292.576211
28386.360000	1512.585000	17804.025000	15661.305000	24915.420000	11292.750000	9563.985000	-16532.460000	3.152857	3.512261	3.839653	3.798445	1.692479	-10.467999	-3.875623	0.725276	-4.242280	1.739640	0.793520	-0.571410	-0.251891	0.768064	-1.000000	-1.000000	-1.000000	-1.000000	-1.000000	-1.000000	-1.000000	62.000000	0.000000	-1.000000	-1.000000	209344.000000	1775765292.576231
28387.395000	1516.185000	17809.560000	15667.965000	24922.620000	11286.180000	9562.860000	-16528.950000	2.113706	1.504285	1.901691	2.619444	-0.171322	-16.259886	-3.035304	-0.405296	-4.242280	1.739640	0.793520	-0.571410	-0.251891	0.768064	-1.000000	-1.000000	-1.000000	-1.000000	-1.000000	-1.000000	-1.000000	62.000000	0.000000	-1.000000	-1.000000	209345.000000	1775765292.579540
28395.630000	1525.050000	17818.380000	15677.055000	24928.785000	11283.390000	9576.810000	-16519.500000	-0.040904	-1.099818	-0.937547	0.023922	-2.697123	-16.147156	-1.698506	-1.573617	-4.242280	1.739640	0.793520	-0.571410	-0.251891	0.768064	-1.000000	-1.000000	-1.000000	-1.000000	-1.000000	-1.000000	-1.000000	62.000000	0.000000	-1.000000	-1.000000	209346.000000	1775765292.579560
28396.395000	1522.845000	17815.365000	15676.155000	24926.220000	11282.760000	9580.680000	-16519.590000	-1.337589	-2.015670	-1.990267	-1.079623	-3.061838	-10.989967	0.206582	-1.289722	-4.242280	1.739640	0.793520	-0.571410	-0.251891	0.768064	-1.000000	-1.000000	-1.000000	-1.000000	-1.000000	-1.000000	-1.000000	62.000000	0.000000	-1.000000	-1.000000	209347.000000	1775765292.583889
28396.530000	1519.290000	17810.730000	15672.420000	24924.780000	11287.395000	9575.010000	-16525.170000	-1.001580	-1.050836	-1.027580	-0.211439	-1.098145	-3.057194	2.252908	0.221028	-4.242280	1.739640	0.793520	-0.571410	-0.251891	0.768064	-1.000000	-1.000000	-1.000000	-1.000000	-1.000000	-1.000000	-1.000000	62.000000	0.000000	-1.000000	-1.000000	209348.000000	1775765292.583908
28397.655000	1519.515000	17809.830000	15672.645000	24929.235000	11301.255000	9558.630000	-16530.075000	-0.017697	0.120567	0.100722	0.828964	1.303867	5.172948	2.572422	1.085126	-2.472120	2.105880	-0.534100	-0.573363	-0.253417	0.766111	-1.000000	-1.000000	-1.000000	-1.000000	-1.000000	-1.000000	-1.000000	62.000000	0.000000	-1.000000	-1.000000	209349.000000	1775765292.587661
28395.405000	1517.535000	17808.075000	15669.225000	24925.455000	11301.345000	9559.845000	-16525.980000	0.409336	0.343080	0.200408	0.692386	2.672190	11.499161	0.009843	0.314168	-2.472120	2.105880	-0.534100	-0.573363	-0.253417	0.766111	-1.000000	-1.000000	-1.000000	-1.000000	-1.000000	-1.000000	-1.000000	62.000000	0.000000	-1.000000	-1.000000	209350.000000	1775765292.587676
28394.730000	1522.845000	17816.130000	15677.100000	24931.080000	11297.745000	9566.685000	-16518.780000	-0.117813	-0.115963	-0.259442	-0.311218	2.653485	13.758307	-3.491550	-0.927939	-2.472120	2.105880	-0.534100	-0.573363	-0.253417	0.766111	-1.000000	-1.000000	-1.000000	-1.000000	-1.000000	-1.000000	-1.000000	62.000000	0.000000	-1.000000	-1.000000	209351.000000	1775765292.590973
28394.640000	1524.600000	17818.605000	15680.880000	24934.320000	11295.765000	9569.610000	-16512.525000	-1.164416	-0.333874	-0.136223	-0.893159	1.775856	10.725620	-4.497064	-0.878975	-2.472120	2.105880	-0.534100	-0.573363	-0.253417	0.766111	-1.000000	-1.000000	-1.000000	-1.000000	-1.000000	-1.000000	-1.000000	62.000000	0.000000	-1.000000	-1.000000	209352.000000	1775765292.590988
28396.890000	1525.590000	17819.190000	15680.610000	24932.205000	11281.905000	9566.955000	-16510.140000	-1.861102	0.127462	0.855120	-0.349103	0.789813	3.546866	-1.989313	0.688029	-2.472120	2.105880	-0.534100	-0.573363	-0.253417	0.766111	-1.000000	-1.000000	-1.000000	-1.000000	-1.000000	-1.000000	-1.000000	62.000000	0.000000	-1.000000	-1.000000	209353.000000	1775765292.595106
28400.805000	1528.695000	17821.395000	15679.755000	24925.815000	11251.305000	9558.450000	-16509.150000	-1.527288	0.837479	1.789148	0.578614	-0.267930	-5.177396	1.682063	2.303716	-2.472120	2.105880	-0.534100	-0.573363	-0.253417	0.766111	-1.000000	-1.000000	-1.000000	-1.000000	-1.000000	-1.000000	-1.000000	62.000000	0.000000	-1.000000	-1.000000	209354.000000	1775765292.595121
28412.055000	1536.075000	17826.705000	15683.355000	24921.765000	11229.255000	9555.570000	-16500.015000	-0.014125	1.291095	1.823969	0.817321	-1.754499	-12.952122	3.524293	2.561262	-2.472120	2.105880	-0.534100	-0.573363	-0.253417	0.766111	-1.000000	-1.000000	-1.000000	-1.000000	-1.000000	-1.000000	-1.000000	62.000000	0.000000	-1.000000	-1.000000	209355.000000	1775765292.605494
28412.730000	1536.705000	17825.580000	15681.195000	24915.555000	11213.190000	9547.335000	-16503.120000	2.145666	1.394413	0.997276	0.212034	-3.395640	-17.111184	2.608114	1.374473	-2.472120	2.105880	-0.534100	-0.573363	-0.253417	0.766111	-1.000000	-1.000000	-1.000000	-1.000000	-1.000000	-1.000000	-1.000000	62.000000	0.000000	-1.000000	-1.000000	209356.000000	1775765292.605514
28393.920000	1521.135000	17813.070000	15672.060000	24914.250000	11260.035000	9547.110000	-16519.905000	3.259145	0.720354	-0.541868	-0.920360	-4.252440	-14.147615	0.226993	-0.946116	-2.472120	2.105880	-0.534100	-0.573363	-0.253417	0.766111	-1.000000	-1.000000	-1.000000	-1.000000	-1.000000	-1.000000	-1.000000	62.000000	0.000000	-1.000000	-1.000000	209357.000000	1775765292.605533
28378.305000	1503.045000	17796.420000	15661.395000	24920.010000	11299.905000	9566.820000	-16527.105000	1.205291	-1.710690	-3.064911	-2.503103	-3.359432	-1.408270	-1.204205	-4.310324	-2.472120	2.105880	-0.534100	-0.573363	-0.253417	0.766111	-1.000000	-1.000000	-1.000000	-1.000000	-1.000000	-1.000000	-1.000000	62.000000	0.000000	-1.000000	-1.000000	209358.000000	1775765292.605542
28374.345000	1492.605000	17785.395000	15650.460000	24915.195000	11333.610000	9570.645000	-16527.330000	-3.735564	-5.730971	-6.248525	-4.272466	-0.574887	18.029234	0.244091	-7.416754	-0.427280	1.800680	-0.442540	-0.575499	-0.256408	0.765013	-1.000000	-1.000000	-1.000000	-1.000000	-1.000000	-1.000000	-1.000000	62.000000	0.000000	-1.000000	-1.000000	209359.000000	1775765292.620383
28375.245000	1498.230000	17794.395000	15660.810000	24924.285000	11310.975000	9564.570000	-16531.245000	-7.884133	-8.658739	-8.010553	-4.983548	2.925002	33.220994	3.568933	-7.827237	-0.427280	1.800680	-0.442540	-0.575499	-0.256408	0.765013	-1.000000	-1.000000	-1.000000	-1.000000	-1.000000	-1.000000	-1.000000	62.000000	0.000000	-1.000000	-1.000000	209360.000000	1775765292.620408
28382.220000	1511.280000	17808.255000	15671.070000	24924.870000	11273.805000	9559.665000	-16536.465000	-7.359073	-6.950652	-5.486644	-2.761113	5.562953	31.736888	5.173399	-4.599873	-0.427280	1.800680	-0.442540	-0.575499	-0.256408	0.765013	-1.000000	-1.000000	-1.000000	-1.000000	-1.000000	-1.000000	-1.000000	62.000000	0.000000	-1.000000	-1.000000	209361.000000	1775765292.620427
28377.180000	1510.785000	17807.265000	15665.670000	24914.745000	11259.000000	9545.400000	-16547.985000	-1.808572	0.073281	1.655220	2.477371	6.093841	10.751507	2.676610	0.473270	-0.427280	1.800680	-0.442540	-0.575499	-0.256408	0.765013	-1.000000	-1.000000	-1.000000	-1.000000	-1.000000	-1.000000	-1.000000	62.000000	0.000000	-1.000000	-1.000000	209362.000000	1775765292.620439
28377.045000	1516.995000	17816.580000	15680.205000	24932.655000	11306.520000	9543.735000	-16551.855000	5.244011	8.669634	9.653615	7.859795	4.150053	-17.259675	-2.814371	4.582668	-0.427280	1.800680	-0.442540	-0.575499	-0.256408	0.765013	-1.000000	-1.000000	-1.000000	-1.000000	-1.000000	-1.000000	-1.000000	62.000000	0.000000	-1.000000	-1.000000	209363.000000	1775765292.620453
28386.630000	1518.660000	17812.710000	15685.065000	24937.245000	11329.110000	9557.280000	-16534.620000	9.763677	13.746506	13.692335	10.390935	1.302431	-33.042633	-7.409627	6.652131	-0.427280	1.800680	-0.442540	-0.575499	-0.256408	0.765013	-1.000000	-1.000000	-1.000000	-1.000000	-1.000000	-1.000000	-1.000000	62.000000	0.000000	-1.000000	-1.000000	209364.000000	1775765292.620465
28390.590000	1518.345000	17809.785000	15679.440000	24931.440000	11312.910000	9576.180000	-16531.245000	10.355258	12.766590	11.492164	8.983462	-0.653064	-28.192508	-7.036215	7.784974	-0.427280	1.800680	-0.442540	-0.575499	-0.256408	0.765013	-1.000000	-1.000000	-1.000000	-1.000000	-1.000000	-1.000000	-1.000000	62.000000	0.000000	-1.000000	-1.000000	209365.000000	1775765292.620478
28393.920000	1522.665000	17814.330000	15678.405000	24928.470000	11262.825000	9574.065000	-16529.580000	7.816287	6.738269	4.386727	3.934103	-2.020943	-12.320974	-1.244004	8.503820	-0.427280	1.800680	-0.442540	-0.575499	-0.256408	0.765013	-1.000000	-1.000000	-1.000000	-1.000000	-1.000000	-1.000000	-1.000000	62.000000	0.000000	-1.000000	-1.000000	209366.000000	1775765292.620489
28385.325000	1519.155000	17812.170000	15677.235000	24928.245000	11278.305000	9565.740000	-16535.205000	3.258054	-1.081629	-3.693598	-2.917956	-3.654139	-0.316268	5.438161	7.413409	-0.427280	1.800680	-0.442540	-0.575499	-0.256408	0.765013	-1.000000	-1.000000	-1.000000	-1.000000	-1.000000	-1.000000	-1.000000	62.000000	0.000000	-1.000000	-1.000000	209367.000000	1775765292.623708
28381.635000	1515.330000	17809.695000	15675.435000	24928.605000	11311.020000	9576.585000	-16534.575000	-2.350520	-7.476897	-9.068017	-8.542458	-5.009853	4.031746	7.807746	3.410896	-0.427280	1.800680	-0.442540	-0.575499	-0.256408	0.765013	-1.000000	-1.000000	-1.000000	-1.000000	-1.000000	-1.000000	-1.000000	62.000000	0.000000	-1.000000	-1.000000	209368.000000	1775765292.623729
28386.810000	1516.500000	17810.190000	15677.460000	24931.755000	11313.495000	9576.630000	-16522.290000	-7.352155	-10.657328	-10.355842	-10.574930	-4.889384	6.827723	5.116438	-2.101552	0.274680	0.640920	0.213640	-0.574339	-0.256042	0.764463	-1.000000	-1.000000	-1.000000	-1.000000	-1.000000	-1.000000	-1.000000	62.000000	0.000000	-1.000000	-1.000000	209369.000000	1775765292.632904
28393.650000	1520.910000	17812.305000	15677.775000	24925.185000	11289.285000	9570.510000	-16514.775000	-9.363480	-10.036823	-8.067900	-8.545125	-3.015666	10.717548	0.159866	-5.959507	0.274680	0.640920	0.213640	-0.574339	-0.256042	0.764463	-1.000000	-1.000000	-1.000000	-1.000000	-1.000000	-1.000000	-1.000000	62.000000	0.000000	-1.000000	-1.000000	209370.000000	1775765292.632929
28395.765000	1524.645000	17819.730000	15684.345000	24925.545000	11267.820000	9569.385000	-16511.580000	-7.219415	-6.094946	-3.547355	-3.729914	-0.458363	11.275646	-4.410767	-6.326569	0.274680	0.640920	0.213640	-0.574339	-0.256042	0.764463	-1.000000	-1.000000	-1.000000	-1.000000	-1.000000	-1.000000	-1.000000	62.000000	0.000000	-1.000000	-1.000000	209371.000000	1775765292.635826
28394.415000	1522.620000	17818.110000	15682.545000	24920.910000	11256.570000	9557.730000	-16511.130000	-2.475531	-0.655631	1.457795	1.677322	1.470070	5.317533	-7.172132	-4.296538	0.274680	0.640920	0.213640	-0.574339	-0.256042	0.764463	-1.000000	-1.000000	-1.000000	-1.000000	-1.000000	-1.000000	-1.000000	62.000000	0.000000	-1.000000	-1.000000	209372.000000	1775765292.635849
28398.240000	1524.645000	17819.505000	15684.930000	24925.500000	11282.895000	9565.155000	-16513.695000	1.905212	3.762239	4.994900	5.467876	2.350245	-3.206818	-7.475912	-2.278353	0.274680	0.640920	0.213640	-0.574339	-0.256042	0.764463	-1.000000	-1.000000	-1.000000	-1.000000	-1.000000	-1.000000	-1.000000	62.000000	0.000000	-1.000000	-1.000000	209373.000000	1775765292.637831
28400.085000	1522.800000	17816.445000	15682.500000	24928.200000	11304.855000	9578.610000	-16513.965000	4.036522	5.509263	5.731511	6.361997	2.669346	-6.542803	-4.820206	-1.709646	0.274680	0.640920	0.213640	-0.574339	-0.256042	0.764463	-1.000000	-1.000000	-1.000000	-1.000000	-1.000000	-1.000000	-1.000000	62.000000	0.000000	-1.000000	-1.000000	209374.000000	1775765292.637852
28397.880000	1519.110000	17809.830000	15674.985000	24915.645000	11275.920000	9574.875000	-16510.500000	3.797721	4.520760	3.696171	4.429962	2.710302	-2.084400	0.463097	-2.195907	0.274680	0.640920	0.213640	-0.574339	-0.256042	0.764463	-1.000000	-1.000000	-1.000000	-1.000000	-1.000000	-1.000000	-1.000000	62.000000	0.000000	-1.000000	-1.000000	209375.000000	1775765292.639800
28385.100000	1502.910000	17793.045000	15663.600000	24912.495000	11298.510000	9561.195000	-16516.530000	1.739366	1.589182	-0.137564	0.622245	1.845152	4.609359	5.541073	-2.460860	0.274680	0.640920	0.213640	-0.574339	-0.256042	0.764463	-1.000000	-1.000000	-1.000000	-1.000000	-1.000000	-1.000000	-1.000000	62.000000	0.000000	-1.000000	-1.000000	209376.000000	1775765292.639821
28377.135000	1491.660000	17783.235000	15659.190000	24915.555000	11288.520000	9567.135000	-16522.470000	-1.509478	-2.308300	-4.400895	-3.515538	0.000921	7.485609	6.960845	-2.004373	0.274680	0.640920	0.213640	-0.574339	-0.256042	0.764463	-1.000000	-1.000000	-1.000000	-1.000000	-1.000000	-1.000000	-1.000000	62.000000	0.000000	-1.000000	-1.000000	209377.000000	1775765292.644548
28373.940000	1492.470000	17785.395000	15663.060000	24920.595000	11290.050000	9565.470000	-16527.105000	-4.624430	-5.531396	-7.081395	-5.851886	-1.338292	5.382364	4.546425	-1.254475	0.274680	0.640920	0.213640	-0.574339	-0.256042	0.764463	-1.000000	-1.000000	-1.000000	-1.000000	-1.000000	-1.000000	-1.000000	62.000000	0.000000	-1.000000	-1.000000	209378.000000	1775765292.644572
28374.120000	1493.280000	17786.070000	15659.055000	24912.495000	11294.955000	9565.020000	-16529.805000	-5.624449	-5.825691	-6.063436	-4.798352	-1.037569	0.387389	0.951278	-0.466280	0.396760	0.717220	-0.030520	-0.577574	-0.255126	0.764585	-1.000000	-1.000000	-1.000000	-1.000000	-1.000000	-1.000000	-1.000000	62.000000	0.000000	-1.000000	-1.000000	209379.000000	1775765292.649376
28377.855000	1500.975000	17792.730000	15666.255000	24910.245000	11278.755000	9565.020000	-16531.335000	-3.358050	-2.186002	-1.080051	-0.817374	0.075385	-4.561087	-1.559383	0.579828	0.396760	0.717220	-0.030520	-0.577574	-0.255126	0.764585	-1.000000	-1.000000	-1.000000	-1.000000	-1.000000	-1.000000	-1.000000	62.000000	0.000000	-1.000000	-1.000000	209380.000000	1775765292.649399
28381.185000	1506.060000	17797.995000	15670.125000	24909.750000	11273.985000	9570.960000	-16533.990000	1.378401	3.872748	5.592420	4.018007	0.606289	-7.763632	-2.184160	1.980032	0.396760	0.717220	-0.030520	-0.577574	-0.255126	0.764585	-1.000000	-1.000000	-1.000000	-1.000000	-1.000000	-1.000000	-1.000000	62.000000	0.000000	-1.000000	-1.000000	209381.000000	1775765292.652926
28381.995000	1509.660000	17803.125000	15672.870000	24914.610000	11277.810000	9562.005000	-16537.275000	6.216122	9.194004	10.646771	7.483031	0.459591	-8.608561	-1.322324	3.301761	0.396760	0.717220	-0.030520	-0.577574	-0.255126	0.764585	-1.000000	-1.000000	-1.000000	-1.000000	-1.000000	-1.000000	-1.000000	62.000000	0.000000	-1.000000	-1.000000	209382.000000	1775765292.652947
28383.750000	1513.620000	17806.185000	15672.240000	24925.635000	11293.425000	9551.430000	-16537.320000	8.653904	10.945540	11.669295	8.002157	0.627751	-6.153554	-0.484612	3.916493	0.396760	0.717220	-0.030520	-0.577574	-0.255126	0.764585	-1.000000	-1.000000	-1.000000	-1.000000	-1.000000	-1.000000	-1.000000	62.000000	0.000000	-1.000000	-1.000000	209383.000000	1775765292.656348
28378.980000	1508.130000	17799.660000	15664.455000	24920.055000	11294.820000	9558.495000	-16532.865000	7.501955	8.172256	8.124370	5.144011	1.579941	-0.369478	-0.803727	3.708302	0.396760	0.717220	-0.030520	-0.577574	-0.255126	0.764585	-1.000000	-1.000000	-1.000000	-1.000000	-1.000000	-1.000000	-1.000000	62.000000	0.000000	-1.000000	-1.000000	209384.000000	1775765292.656371
28383.390000	1511.370000	17805.420000	15674.625000	24922.980000	11289.420000	9564.345000	-16525.755000	3.447475	2.090548	1.459366	0.138058	2.293657	5.975485	-1.285922	3.208964	0.396760	0.717220	-0.030520	-0.577574	-0.255126	0.764585	-1.000000	-1.000000	-1.000000	-1.000000	-1.000000	-1.000000	-1.000000	62.000000	0.000000	-1.000000	-1.000000	209385.000000	1775765292.662551
28377.495000	1509.120000	17803.170000	15671.610000	24918.930000	11281.680000	9558.810000	-16530.030000	-1.450772	-4.534729	-5.347953	-4.369048	1.510526	8.764334	-0.434903	2.725654	0.396760	0.717220	-0.030520	-0.577574	-0.255126	0.764585	-1.000000	-1.000000	-1.000000	-1.000000	-1.000000	-1.000000	-1.000000	62.000000	0.000000	-1.000000	-1.000000	209386.000000	1775765292.662575
28377.090000	1507.140000	17802.540000	15672.915000	24921.135000	11286.945000	9563.445000	-16535.385000	-5.165484	-8.925861	-9.472194	-6.304320	-0.650477	6.417358	1.327562	1.604924	0.396760	0.717220	-0.030520	-0.577574	-0.255126	0.764585	-1.000000	-1.000000	-1.000000	-1.000000	-1.000000	-1.000000	-1.000000	62.000000	0.000000	-1.000000	-1.000000	209387.000000	1775765292.663871
28376.235000	1509.480000	17804.520000	15675.930000	24922.395000	11288.205000	9564.795000	-16539.705000	-6.640975	-9.766774	-9.856678	-5.557495	-2.850968	1.358747	2.622260	-0.835959	0.396760	0.717220	-0.030520	-0.577574	-0.255126	0.764585	-1.000000	-1.000000	-1.000000	-1.000000	-1.000000	-1.000000	-1.000000	62.000000	0.000000	-1.000000	-1.000000	209388.000000	1775765292.663891
28370.430000	1507.680000	17803.530000	15675.975000	24919.470000	11276.730000	9557.595000	-16545.195000	-5.842406	-7.350507	-7.130149	-3.185029	-3.801487	-2.958816	2.643035	-3.967175	-1.327620	0.457800	0.152600	-0.577757	-0.255370	0.765379	-1.000000	-1.000000	-1.000000	-1.000000	-1.000000	-1.000000	-1.000000	62.000000	0.000000	-1.000000	-1.000000	209389.000000	1775765292.670242
28380.645000	1515.870000	17816.940000	15692.850000	24938.235000	11277.585000	9554.760000	-16535.655000	-3.423451	-2.995902	-2.669636	-0.240460	-2.951181	-5.101108	1.136974	-5.964716	-1.327620	0.457800	0.152600	-0.577757	-0.255370	0.765379	-1.000000	-1.000000	-1.000000	-1.000000	-1.000000	-1.000000	-1.000000	62.000000	0.000000	-1.000000	-1.000000	209390.000000	1775765292.670268
28391.355000	1519.110000	17815.230000	15685.020000	24920.145000	11272.185000	9552.870000	-16521.615000	0.086459	1.710361	2.066522	2.475367	-0.677908	-5.166567	-1.309198	-4.904844	-1.327620	0.457800	0.152600	-0.577757	-0.255370	0.765379	-1.000000	-1.000000	-1.000000	-1.000000	-1.000000	-1.000000	-1.000000	62.000000	0.000000	-1.000000	-1.000000	209391.000000	1775765292.672031
28381.590000	1505.205000	17797.410000	15665.175000	24902.415000	11278.665000	9555.480000	-16524.270000	3.804682	4.996265	5.073876	3.390569	0.893262	-3.447579	-3.184188	-0.661061	-1.327620	0.457800	0.152600	-0.577757	-0.255370	0.765379	-1.000000	-1.000000	-1.000000	-1.000000	-1.000000	-1.000000	-1.000000	62.000000	0.000000	-1.000000	-1.000000	209392.000000	1775765292.672051
28377.630000	1499.265000	17793.450000	15665.670000	24910.380000	11254.725000	9561.960000	-16535.610000	5.562883	5.074641	4.341629	1.008060	-0.163584	-0.834833	-3.091052	3.781584	-1.327620	0.457800	0.152600	-0.577757	-0.255370	0.765379	-1.000000	-1.000000	-1.000000	-1.000000	-1.000000	-1.000000	-1.000000	62.000000	0.000000	-1.000000	-1.000000	209393.000000	1775765292.676126
28381.545000	1502.865000	17797.410000	15670.395000	24912.630000	11233.530000	9563.850000	-16546.770000	3.976609	2.092540	0.610408	-3.034147	-2.179927	0.547679	-0.882206	4.578823	-1.327620	0.457800	0.152600	-0.577757	-0.255370	0.765379	-1.000000	-1.000000	-1.000000	-1.000000	-1.000000	-1.000000	-1.000000	62.000000	0.000000	-1.000000	-1.000000	209394.000000	1775765292.676147
28379.385000	1503.720000	17799.390000	15673.005000	24916.545000	11226.285000	9551.610000	-16551.810000	0.465048	-1.209030	-2.564785	-4.879298	-1.982835	-0.652357	1.797113	0.984720	-1.327620	0.457800	0.152600	-0.577757	-0.255370	0.765379	-1.000000	-1.000000	-1.000000	-1.000000	-1.000000	-1.000000	-1.000000	62.000000	0.000000	-1.000000	-1.000000	209395.000000	1775765292.680252
28380.870000	1504.800000	17799.480000	15672.960000	24917.850000	11266.065000	9559.845000	-16540.020000	-2.462679	-2.250884	-2.593556	-2.814832	0.934878	-1.816347	2.773486	-3.679283	-1.327620	0.457800	0.152600	-0.577757	-0.255370	0.765379	-1.000000	-1.000000	-1.000000	-1.000000	-1.000000	-1.000000	-1.000000	62.000000	0.000000	-1.000000	-1.000000	209396.000000	1775765292.680276
28387.395000	1508.535000	17803.440000	15679.260000	24925.455000	11299.455000	9562.995000	-16528.815000	-3.334746	-0.803508	0.039529	1.491727	4.516874	2.026594	1.850787	-4.929516	-1.327620	0.457800	0.152600	-0.577757	-0.255370	0.765379	-1.000000	-1.000000	-1.000000	-1.000000	-1.000000	-1.000000	-1.000000	62.000000	0.000000	-1.000000	-1.000000	209397.000000	1775765292.688373
28379.430000	1502.235000	17796.465000	15671.295000	24911.955000	11281.140000	9563.580000	-16535.205000	-2.216694	1.519386	3.012115	5.114691	6.285965	10.795036	0.581969	-1.482461	-1.327620	0.457800	0.152600	-0.577757	-0.255370	0.765379	-1.000000	-1.000000	-1.000000	-1.000000	-1.000000	-1.000000	-1.000000	62.000000	0.000000	-1.000000	-1.000000	209398.000000	1775765292.688396
28378.305000	1503.270000	17800.830000	15674.760000	24914.430000	11311.470000	9566.100000	-16537.320000	-0.554892	2.766475	4.209895	5.925946	4.759241	17.227320	-0.088170	3.379073	-1.144500	1.449700	0.534100	-0.574034	-0.254028	0.765745	-1.000000	-1.000000	-1.000000	-1.000000	-1.000000	-1.000000	-1.000000	62.000000	0.000000	-1.000000	-1.000000	209399.000000	1775765292.688415
28381.905000	1506.915000	17805.240000	15679.710000	24923.970000	11314.755000	9572.130000	-16531.155000	0.328845	2.246664	3.291506	3.938326	0.880770	15.448684	-0.206160	5.671048	-1.144500	1.449700	0.534100	-0.574034	-0.254028	0.765745	-1.000000	-1.000000	-1.000000	-1.000000	-1.000000	-1.000000	-1.000000	62.000000	0.000000	-1.000000	-1.000000	209400.000000	1775765292.688421
28381.185000	1509.795000	17804.025000	15678.990000	24920.280000	11280.105000	9570.150000	-16527.420000	0.532535	0.905424	1.457107	0.984463	-2.500125	5.655852	-0.067676	4.633291	-1.144500	1.449700	0.534100	-0.574034	-0.254028	0.765745	-1.000000	-1.000000	-1.000000	-1.000000	-1.000000	-1.000000	-1.000000	62.000000	0.000000	-1.000000	-1.000000	209401.000000	1775765292.690361
28379.745000	1505.205000	17799.750000	15674.580000	24915.105000	11268.045000	9569.430000	-16531.605000	0.623484	-0.206477	-0.363692	-1.437286	-3.837842	-9.005117	-0.178104	1.877278	-1.144500	1.449700	0.534100	-0.574034	-0.254028	0.765745	-1.000000	-1.000000	-1.000000	-1.000000	-1.000000	-1.000000	-1.000000	62.000000	0.000000	-1.000000	-1.000000	209402.000000	1775765292.690377
28389.735000	1514.070000	17811.810000	15685.920000	24926.985000	11283.435000	9570.645000	-16527.825000	0.831482	-0.861006	-1.801857	-2.839399	-3.575012	-22.383959	-0.872199	-1.069206	-1.144500	1.449700	0.534100	-0.574034	-0.254028	0.765745	-1.000000	-1.000000	-1.000000	-1.000000	-1.000000	-1.000000	-1.000000	62.000000	0.000000	-1.000000	-1.000000	209403.000000	1775765292.698705
28387.305000	1511.910000	17812.170000	15684.570000	24929.145000	11299.950000	9564.345000	-16531.965000	1.290951	-1.036494	-2.208558	-2.869154	-2.127681	-26.201445	-1.869656	-3.268761	-1.144500	1.449700	0.534100	-0.574034	-0.254028	0.765745	-1.000000	-1.000000	-1.000000	-1.000000	-1.000000	-1.000000	-1.000000	62.000000	0.000000	-1.000000	-1.000000	209404.000000	1775765292.698732
28382.040000	1504.395000	17804.025000	15679.575000	24928.470000	11303.550000	9569.205000	-16535.700000	1.560194	-0.996273	-1.586384	-1.824735	0.036411	-17.183707	-2.574161	-4.303195	-1.144500	1.449700	0.534100	-0.574034	-0.254028	0.765745	-1.000000	-1.000000	-1.000000	-1.000000	-1.000000	-1.000000	-1.000000	62.000000	0.000000	-1.000000	-1.000000	209405.000000	1775765292.699359
28377.135000	1496.790000	17795.880000	15673.905000	24922.710000	11299.680000	9574.695000	-16538.085000	0.693460	-1.536257	-1.302217	-1.038113	1.522254	-1.100945	-2.246211	-4.281641	-1.144500	1.449700	0.534100	-0.574034	-0.254028	0.765745	-1.000000	-1.000000	-1.000000	-1.000000	-1.000000	-1.000000	-1.000000	62.000000	0.000000	-1.000000	-1.000000	209406.000000	1775765292.699380
28377.630000	1501.245000	17800.605000	15676.515000	24920.910000	11300.805000	9571.095000	-16537.275000	-1.278914	-2.680197	-2.109861	-1.244409	1.163052	12.288796	-0.595189	-3.325480	-1.144500	1.449700	0.534100	-0.574034	-0.254028	0.765745	-1.000000	-1.000000	-1.000000	-1.000000	-1.000000	-1.000000	-1.000000	62.000000	0.000000	-1.000000	-1.000000	209407.000000	1775765292.704474
28374.120000	1504.260000	17803.485000	15677.955000	24921.180000	11292.885000	9565.245000	-16544.835000	-3.015075	-3.003106	-2.730672	-1.593633	-0.590119	16.855051	1.287043	-1.586242	-1.144500	1.449700	0.534100	-0.574034	-0.254028	0.765745	-1.000000	-1.000000	-1.000000	-1.000000	-1.000000	-1.000000	-1.000000	62.000000	0.000000	-1.000000	-1.000000	209408.000000	1775765292.704498
28372.770000	1501.695000	17800.875000	15677.820000	24924.285000	11296.980000	9563.670000	-16555.095000	-3.300404	-1.414344	-1.701959	-0.962613	-2.049907	12.841863	1.865036	0.151296	-1.403920	1.037680	0.656180	-0.576048	-0.254089	0.769041	-1.000000	-1.000000	-1.000000	-1.000000	-1.000000	-1.000000	-1.000000	62.000000	0.000000	-1.000000	-1.000000	209409.000000	1775765292.707657
28372.410000	1503.720000	17803.395000	15681.420000	24926.085000	11292.930000	9565.785000	-16553.295000	-2.018965	1.295577	0.622126	0.657193	-1.876961	4.779214	1.035300	1.059254	-1.403920	1.037680	0.656180	-0.576048	-0.254089	0.769041	-1.000000	-1.000000	-1.000000	-1.000000	-1.000000	-1.000000	-1.000000	62.000000	0.000000	-1.000000	-1.000000	209410.000000	1775765292.707680
28377.675000	1508.985000	17808.075000	15685.830000	24927.480000	11290.095000	9574.830000	-16540.245000	0.228578	3.548193	2.874475	2.469750	-0.170923	-2.415836	0.214121	1.705679	-1.403920	1.037680	0.656180	-0.576048	-0.254089	0.769041	-1.000000	-1.000000	-1.000000	-1.000000	-1.000000	-1.000000	-1.000000	62.000000	0.000000	-1.000000	-1.000000	209411.000000	1775765292.711641
28382.895000	1508.310000	17808.795000	15686.460000	24928.695000	11290.860000	9575.505000	-16536.375000	2.728220	4.462735	4.119581	3.640843	1.840620	-6.101862	0.644060	3.386617	-1.403920	1.037680	0.656180	-0.576048	-0.254089	0.769041	-1.000000	-1.000000	-1.000000	-1.000000	-1.000000	-1.000000	-1.000000	62.000000	0.000000	-1.000000	-1.000000	209412.000000	1775765292.711666
28389.060000	1511.820000	17813.520000	15691.815000	24931.710000	11282.490000	9579.060000	-16527.600000	4.737882	3.858433	4.016185	3.610017	2.953909	-6.119095	1.967460	5.852665	-1.403920	1.037680	0.656180	-0.576048	-0.254089	0.769041	-1.000000	-1.000000	-1.000000	-1.000000	-1.000000	-1.000000	-1.000000	62.000000	0.000000	-1.000000	-1.000000	209413.000000	1775765292.716085
28386.990000	1510.650000	17812.305000	15690.420000	24928.785000	11276.145000	9578.250000	-16527.600000	5.371758	2.027496	2.671382	2.344375	2.698758	-4.017595	2.741604	7.180025	-1.403920	1.037680	0.656180	-0.576048	-0.254089	0.769041	-1.000000	-1.000000	-1.000000	-1.000000	-1.000000	-1.000000	-1.000000	62.000000	0.000000	-1.000000	-1.000000	209414.000000	1775765292.716114
28392.255000	1512.225000	17811.675000	15687.720000	24927.120000	11284.020000	9577.035000	-16523.775000	3.994686	-0.329703	0.502420	0.204630	1.213620	-1.447947	1.957298	5.732824	-1.403920	1.037680	0.656180	-0.576048	-0.254089	0.769041	-1.000000	-1.000000	-1.000000	-1.000000	-1.000000	-1.000000	-1.000000	62.000000	0.000000	-1.000000	-1.000000	209415.000000	1775765292.719010
28387.350000	1502.415000	17799.975000	15676.155000	24918.120000	11293.515000	9568.395000	-16529.445000	0.926963	-2.545942	-2.073585	-2.439214	-1.025466	1.333741	-0.354862	1.525024	-1.403920	1.037680	0.656180	-0.576048	-0.254089	0.769041	-1.000000	-1.000000	-1.000000	-1.000000	-1.000000	-1.000000	-1.000000	62.000000	0.000000	-1.000000	-1.000000	209416.000000	1775765292.719033
28380.825000	1494.855000	17793.135000	15667.830000	24906.105000	11273.040000	9557.145000	-16536.870000	-2.793252	-4.379352	-4.671062	-5.129717	-3.439145	4.038794	-3.464237	-4.002177	-1.403920	1.037680	0.656180	-0.576048	-0.254089	0.769041	-1.000000	-1.000000	-1.000000	-1.000000	-1.000000	-1.000000	-1.000000	62.000000	0.000000	-1.000000	-1.000000	209417.000000	1775765292.722954
28381.635000	1497.780000	17795.565000	15669.090000	24901.695000	11255.850000	9556.785000	-16540.470000	-5.943961	-5.448636	-6.347042	-6.786309	-5.300111	4.516531	-6.097643	-8.807607	-1.403920	1.037680	0.656180	-0.576048	-0.254089	0.769041	-1.000000	-1.000000	-1.000000	-1.000000	-1.000000	-1.000000	-1.000000	62.000000	0.000000	-1.000000	-1.000000	209418.000000	1775765292.722974
28387.170000	1502.145000	17801.325000	15675.750000	24910.245000	11257.380000	9565.470000	-16541.190000	-7.039387	-4.671074	-5.546204	-5.781655	-5.292326	1.427305	-6.376122	-10.830676	-0.839300	2.441600	0.564620	-0.574278	-0.255554	0.768675	-1.000000	-1.000000	-1.000000	-1.000000	-1.000000	-1.000000	-1.000000	62.000000	0.000000	-1.000000	-1.000000	209419.000000	1775765292.729442
28379.340000	1495.485000	17798.625000	15679.035000	24922.890000	11279.070000	9573.120000	-16541.145000	-5.269701	-1.630961	-1.795060	-1.510100	-2.057786	-2.316420	-2.982027	-8.922475	-0.839300	2.441600	0.564620	-0.574278	-0.255554	0.768675	-1.000000	-1.000000	-1.000000	-1.000000	-1.000000	-1.000000	-1.000000	62.000000	0.000000	-1.000000	-1.000000	209420.000000	1775765292.729462
28368.585000	1491.885000	17796.870000	15679.710000	24927.345000	11285.865000	9575.325000	-16545.240000	-1.951966	2.063798	3.009481	4.241256	3.878846	-2.214890	2.950822	-3.861909	-0.839300	2.441600	0.564620	-0.574278	-0.255554	0.768675	-1.000000	-1.000000	-1.000000	-1.000000	-1.000000	-1.000000	-1.000000	62.000000	0.000000	-1.000000	-1.000000	209421.000000	1775765292.745290
28361.655000	1493.595000	17798.580000	15679.530000	24926.040000	11312.415000	9570.420000	-16559.010000	0.525538	4.295695	6.142622	8.302411	9.295031	2.540633	7.931379	1.714848	-0.839300	2.441600	0.564620	-0.574278	-0.255554	0.768675	-1.000000	-1.000000	-1.000000	-1.000000	-1.000000	-1.000000	-1.000000	62.000000	0.000000	-1.000000	-1.000000	209422.000000	1775765292.745313
28367.235000	1501.695000	17808.570000	15685.830000	24928.695000	11297.115000	9578.385000	-16556.805000	1.417844	4.673287	6.576495	8.672357	10.571424	8.147464	8.917521	5.115553	-0.839300	2.441600	0.564620	-0.574278	-0.255554	0.768675	-1.000000	-1.000000	-1.000000	-1.000000	-1.000000	-1.000000	-1.000000	62.000000	0.000000	-1.000000	-1.000000	209423.000000	1775765292.745336
28374.345000	1506.240000	17814.735000	15690.600000	24934.005000	11289.870000	9583.605000	-16544.880000	2.149818	4.257833	5.296557	5.875575	6.935979	9.153086	5.977274	6.055097	-0.839300	2.441600	0.564620	-0.574278	-0.255554	0.768675	-1.000000	-1.000000	-1.000000	-1.000000	-1.000000	-1.000000	-1.000000	62.000000	0.000000	-1.000000	-1.000000	209424.000000	1775765292.745347
28380.960000	1513.440000	17823.195000	15701.265000	24942.330000	11285.685000	9572.400000	-16537.815000	4.040396	3.803384	3.589130	2.022828	0.920810	3.182360	1.302080	6.356669	-0.839300	2.441600	0.564620	-0.574278	-0.255554	0.768675	-1.000000	-1.000000	-1.000000	-1.000000	-1.000000	-1.000000	-1.000000	62.000000	0.000000	-1.000000	-1.000000	209425.000000	1775765292.745360
28392.975000	1517.850000	17829.045000	15705.495000	24945.435000	11291.715000	9563.310000	-16524.090000	6.573321	3.129843	1.893315	-0.999224	-4.118270	-6.182032	-3.536319	7.095002	-0.839300	2.441600	0.564620	-0.574278	-0.255554	0.768675	-1.000000	-1.000000	-1.000000	-1.000000	-1.000000	-1.000000	-1.000000	62.000000	0.000000	-1.000000	-1.000000	209426.000000	1775765292.745371
28384.380000	1493.775000	17798.490000	15676.560000	24918.345000	11295.855000	9571.860000	-16522.830000	7.815347	1.262646	-0.561855	-3.224844	-7.006937	-12.534485	-7.374468	7.401683	-0.839300	2.441600	0.564620	-0.574278	-0.255554	0.768675	-1.000000	-1.000000	-1.000000	-1.000000	-1.000000	-1.000000	-1.000000	62.000000	0.000000	-1.000000	-1.000000	209427.000000	1775765292.745384
28382.400000	1491.435000	17792.415000	15674.985000	24916.230000	11289.465000	9581.355000	-16527.645000	5.781487	-2.770619	-5.034375	-6.186999	-8.928910	-12.377117	-8.160876	5.503234	-0.839300	2.441600	0.564620	-0.574278	-0.255554	0.768675	-1.000000	-1.000000	-1.000000	-1.000000	-1.000000	-1.000000	-1.000000	62.000000	0.000000	-1.000000	-1.000000	209428.000000	1775765292.745395
28381.230000	1496.520000	17802.270000	15683.580000	24922.080000	11278.035000	9575.550000	-16535.520000	0.416905	-7.544224	-10.096604	-9.254135	-9.912437	-7.401102	-4.907229	0.442232	0.152600	1.831200	1.281840	-0.570372	-0.254272	0.769468	-1.000000	-1.000000	-1.000000	-1.000000	-1.000000	-1.000000	-1.000000	62.000000	0.000000	-1.000000	-1.000000	209429.000000	1775765292.746811
28374.570000	1492.920000	17799.345000	15679.755000	24919.605000	11276.460000	9568.395000	-16550.145000	-5.765940	-9.460490	-11.437296	-9.182527	-7.905467	-1.716586	0.065312	-6.628383	0.152600	1.831200	1.281840	-0.570372	-0.254272	0.769468	-1.000000	-1.000000	-1.000000	-1.000000	-1.000000	-1.000000	-1.000000	62.000000	0.000000	-1.000000	-1.000000	209430.000000	1775765292.746824
28375.515000	1494.045000	17800.695000	15680.880000	24921.945000	11279.835000	9569.340000	-16558.920000	-9.720087	-6.796336	-7.024840	-4.729326	-2.385808	2.318133	3.270186	-12.845443	0.152600	1.831200	1.281840	-0.570372	-0.254272	0.769468	-1.000000	-1.000000	-1.000000	-1.000000	-1.000000	-1.000000	-1.000000	62.000000	0.000000	-1.000000	-1.000000	209431.000000	1775765292.753087
28375.335000	1492.245000	17799.030000	15677.190000	24915.330000	11267.280000	9559.890000	-16564.275000	-9.750132	-1.266040	0.575345	1.667803	4.165800	4.624236	3.439284	-15.144799	0.152600	1.831200	1.281840	-0.570372	-0.254272	0.769468	-1.000000	-1.000000	-1.000000	-1.000000	-1.000000	-1.000000	-1.000000	62.000000	0.000000	-1.000000	-1.000000	209432.000000	1775765292.753110
28377.900000	1493.820000	17802.135000	15680.385000	24918.030000	11272.455000	9564.840000	-16553.970000	-6.044171	4.100731	7.197845	6.671187	8.539216	5.459377	1.704806	-11.689703	0.152600	1.831200	1.281840	-0.570372	-0.254272	0.769468	-1.000000	-1.000000	-1.000000	-1.000000	-1.000000	-1.000000	-1.000000	62.000000	0.000000	-1.000000	-1.000000	209433.000000	1775765292.754942
28374.165000	1487.520000	17797.545000	15677.910000	24916.860000	11276.505000	9576.180000	-16541.955000	-0.534539	6.996570	10.097596	8.480977	9.245654	5.269724	0.285057	-2.884698	0.152600	1.831200	1.281840	-0.570372	-0.254272	0.769468	-1.000000	-1.000000	-1.000000	-1.000000	-1.000000	-1.000000	-1.000000	62.000000	0.000000	-1.000000	-1.000000	209434.000000	1775765292.754965
28380.870000	1490.310000	17800.290000	15683.310000	24917.445000	11256.255000	9579.780000	-16530.840000	4.255397	6.687731	8.818336	7.255447	6.956267	4.485366	0.890028	8.194653	0.152600	1.831200	1.281840	-0.570372	-0.254272	0.769468	-1.000000	-1.000000	-1.000000	-1.000000	-1.000000	-1.000000	-1.000000	62.000000	0.000000	-1.000000	-1.000000	209435.000000	1775765292.758870
28381.635000	1491.210000	17801.145000	15684.255000	24912.495000	11214.585000	9569.565000	-16534.350000	6.786114	4.167599	4.859491	4.374317	3.224206	1.842479	2.736803	16.546081	0.152600	1.831200	1.281840	-0.570372	-0.254272	0.769468	-1.000000	-1.000000	-1.000000	-1.000000	-1.000000	-1.000000	-1.000000	62.000000	0.000000	-1.000000	-1.000000	209436.000000	1775765292.758887
28383.705000	1492.380000	17801.910000	15682.905000	24910.830000	11247.525000	9575.910000	-16534.935000	6.831914	1.270679	0.519305	1.261969	-0.584402	-3.077104	3.311794	17.796071	0.152600	1.831200	1.281840	-0.570372	-0.254272	0.769468	-1.000000	-1.000000	-1.000000	-1.000000	-1.000000	-1.000000	-1.000000	62.000000	0.000000	-1.000000	-1.000000	209437.000000	1775765292.766386
28382.760000	1496.430000	17806.905000	15687.675000	24925.545000	11337.885000	9573.030000	-16541.190000	4.844220	-0.691656	-2.473095	-1.290382	-3.138249	-4.450741	1.620715	11.228481	0.152600	1.831200	1.281840	-0.570372	-0.254272	0.769468	-1.000000	-1.000000	-1.000000	-1.000000	-1.000000	-1.000000	-1.000000	62.000000	0.000000	-1.000000	-1.000000	209438.000000	1775765292.766415
28380.690000	1500.615000	17811.720000	15689.430000	24938.055000	11329.920000	9562.140000	-16551.630000	1.630414	-1.337050	-3.423412	-2.816582	-3.028635	4.003758	-1.304082	0.216988	-0.930860	2.411080	0.976640	-0.570982	-0.252929	0.769407	-1.000000	-1.000000	-1.000000	-1.000000	-1.000000	-1.000000	-1.000000	62.000000	0.000000	-1.000000	-1.000000	209439.000000	1775765292.768664
28375.785000	1489.005000	17798.535000	15677.685000	24916.365000	11262.330000	9568.755000	-16555.410000	-1.814535	-1.243388	-2.916005	-3.364944	-0.743652	15.259757	-4.036442	-10.134601	-0.930860	2.411080	0.976640	-0.570982	-0.252929	0.769407	-1.000000	-1.000000	-1.000000	-1.000000	-1.000000	-1.000000	-1.000000	62.000000	0.000000	-1.000000	-1.000000	209440.000000	1775765292.768687
28367.505000	1479.510000	17790.750000	15673.860000	24915.780000	11239.245000	9574.155000	-16563.330000	-4.612065	-1.777434	-2.662497	-3.751162	0.549139	13.750792	-4.968900	-15.597114	-0.930860	2.411080	0.976640	-0.570982	-0.252929	0.769407	-1.000000	-1.000000	-1.000000	-1.000000	-1.000000	-1.000000	-1.000000	62.000000	0.000000	-1.000000	-1.000000	209441.000000	1775765292.773209
28371.510000	1485.585000	17798.895000	15683.085000	24925.500000	11282.355000	9573.885000	-16558.290000	-5.980270	-3.350624	-3.382331	-4.070673	-0.856338	-2.723663	-3.143669	-14.439285	-0.930860	2.411080	0.976640	-0.570982	-0.252929	0.769407	-1.000000	-1.000000	-1.000000	-1.000000	-1.000000	-1.000000	-1.000000	62.000000	0.000000	-1.000000	-1.000000	209442.000000	1775765292.773238
28367.460000	1481.220000	17796.150000	15683.895000	24931.710000	11310.435000	9575.370000	-16556.625000	-5.204398	-4.359422	-3.586148	-3.073232	-2.706798	-18.392058	0.301131	-7.711808	-0.930860	2.411080	0.976640	-0.570982	-0.252929	0.769407	-1.000000	-1.000000	-1.000000	-1.000000	-1.000000	-1.000000	-1.000000	62.000000	0.000000	-1.000000	-1.000000	209443.000000	1775765292.775658
28369.260000	1483.830000	17797.545000	15683.535000	24928.605000	11302.110000	9579.600000	-16550.775000	-2.386824	-3.259702	-1.936642	-0.331405	-2.530076	-19.433134	3.177960	1.477545	-0.930860	2.411080	0.976640	-0.570982	-0.252929	0.769407	-1.000000	-1.000000	-1.000000	-1.000000	-1.000000	-1.000000	-1.000000	62.000000	0.000000	-1.000000	-1.000000	209444.000000	1775765292.775682
28368.135000	1481.940000	17793.900000	15677.370000	24917.805000	11286.810000	9575.820000	-16548.390000	1.221927	-0.396435	0.859091	2.545457	-0.971017	-8.548275	4.127164	9.269405	-0.930860	2.411080	0.976640	-0.570982	-0.252929	0.769407	-1.000000	-1.000000	-1.000000	-1.000000	-1.000000	-1.000000	-1.000000	62.000000	0.000000	-1.000000	-1.000000	209445.000000	1775765292.779719
28368.855000	1479.105000	17791.740000	15675.975000	24914.205000	11283.930000	9575.505000	-16549.020000	4.072619	2.593928	3.078464	3.613085	-0.235257	2.444990	2.949562	12.700901	-0.930860	2.411080	0.976640	-0.570982	-0.252929	0.769407	-1.000000	-1.000000	-1.000000	-1.000000	-1.000000	-1.000000	-1.000000	62.000000	0.000000	-1.000000	-1.000000	209446.000000	1775765292.779740
28375.695000	1485.585000	17798.985000	15683.760000	24921.315000	11287.980000	9579.915000	-16544.925000	5.297616	4.265575	3.769101	2.694129	-0.803529	6.541934	0.513294	10.957238	-0.930860	2.411080	0.976640	-0.570982	-0.252929	0.769407	-1.000000	-1.000000	-1.000000	-1.000000	-1.000000	-1.000000	-1.000000	62.000000	0.000000	-1.000000	-1.000000	209447.000000	1775765292.783967
28382.760000	1492.740000	17804.925000	15689.655000	24927.075000	11286.630000	9579.105000	-16541.505000	5.108967	4.504384	3.457117	1.413826	-0.939481	4.972991	-1.624541	5.668774	-0.930860	2.411080	0.976640	-0.570982	-0.252929	0.769407	-1.000000	-1.000000	-1.000000	-1.000000	-1.000000	-1.000000	-1.000000	62.000000	0.000000	-1.000000	-1.000000	209448.000000	1775765292.783988
28380.870000	1491.165000	17803.890000	15688.125000	24923.880000	11281.545000	9573.885000	-16543.800000	4.037601	3.942346	2.966413	1.050622	0.566615	1.851802	-2.570942	-0.369351	-1.938020	0.396760	1.327620	-0.574461	-0.251342	0.767637	-1.000000	-1.000000	-1.000000	-1.000000	-1.000000	-1.000000	-1.000000	62.000000	0.000000	-1.000000	-1.000000	209449.000000	1775765292.787619
28377.765000	1491.885000	17806.005000	15690.060000	24926.985000	11286.855000	9573.885000	-16543.980000	2.000584	2.634454	2.166117	1.147738	2.689591	-0.187165	-2.611025	-5.048093	-1.938020	0.396760	1.327620	-0.574461	-0.251342	0.767637	-1.000000	-1.000000	-1.000000	-1.000000	-1.000000	-1.000000	-1.000000	62.000000	0.000000	-1.000000	-1.000000	209450.000000	1775765292.787638
28385.280000	1496.295000	17810.055000	15691.545000	24928.695000	11290.635000	9578.205000	-16536.240000	-0.933130	0.494649	0.703793	0.703852	3.746452	-0.264598	-2.073625	-7.284305	-1.938020	0.396760	1.327620	-0.574461	-0.251342	0.767637	-1.000000	-1.000000	-1.000000	-1.000000	-1.000000	-1.000000	-1.000000	62.000000	0.000000	-1.000000	-1.000000	209451.000000	1775765292.791751
28385.820000	1495.755000	17809.695000	15690.195000	24924.420000	11278.395000	9571.455000	-16534.800000	-3.560647	-1.812250	-1.071764	-0.467290	3.081508	1.016152	-0.959348	-6.668825	-1.938020	0.396760	1.327620	-0.574461	-0.251342	0.767637	-1.000000	-1.000000	-1.000000	-1.000000	-1.000000	-1.000000	-1.000000	62.000000	0.000000	-1.000000	-1.000000	209452.000000	1775765292.791770
28378.710000	1490.220000	17805.510000	15688.395000	24925.185000	11280.150000	9572.985000	-16540.830000	-4.769635	-3.542399	-2.645589	-1.914385	1.015340	1.873002	0.301733	-4.044660	-1.938020	0.396760	1.327620	-0.574461	-0.251342	0.767637	-1.000000	-1.000000	-1.000000	-1.000000	-1.000000	-1.000000	-1.000000	62.000000	0.000000	-1.000000	-1.000000	209453.000000	1775765292.795671
28372.995000	1485.090000	17800.920000	15682.725000	24916.545000	11276.460000	9572.085000	-16550.235000	-4.845802	-4.598754	-3.875242	-3.136399	-1.579790	1.303001	1.135791	-1.525671	-1.938020	0.396760	1.327620	-0.574461	-0.251342	0.767637	-1.000000	-1.000000	-1.000000	-1.000000	-1.000000	-1.000000	-1.000000	62.000000	0.000000	-1.000000	-1.000000	209454.000000	1775765292.795692
28372.860000	1490.625000	17806.680000	15688.620000	24920.145000	11270.385000	9567.270000	-16562.070000	-4.418918	-4.843174	-4.447274	-3.616918	-3.626269	-0.094924	1.391483	-0.836347	-1.938020	0.396760	1.327620	-0.574461	-0.251342	0.767637	-1.000000	-1.000000	-1.000000	-1.000000	-1.000000	-1.000000	-1.000000	62.000000	0.000000	-1.000000	-1.000000	209455.000000	1775765292.800747
28366.110000	1489.500000	17804.520000	15685.380000	24915.060000	11252.070000	9561.735000	-16569.540000	-3.393809	-3.658256	-3.657779	-2.818506	-4.194040	-1.660232	1.004068	-1.854214	-1.938020	0.396760	1.327620	-0.574461	-0.251342	0.767637	-1.000000	-1.000000	-1.000000	-1.000000	-1.000000	-1.000000	-1.000000	62.000000	0.000000	-1.000000	-1.000000	209456.000000	1775765292.800768
28369.620000	1497.375000	17813.205000	15693.210000	24923.295000	11253.555000	9560.970000	-16560.720000	-1.521126	-0.891234	-1.309948	-0.735265	-2.899721	-3.111237	0.090063	-2.613850	-1.938020	0.396760	1.327620	-0.574461	-0.251342	0.767637	-1.000000	-1.000000	-1.000000	-1.000000	-1.000000	-1.000000	-1.000000	62.000000	0.000000	-1.000000	-1.000000	209457.000000	1775765292.802870
28378.845000	1500.570000	17817.255000	15699.510000	24932.700000	11276.370000	9568.485000	-16549.200000	1.234264	2.573984	1.870551	1.989312	0.005488	-3.027662	-0.530829	-0.711362	-1.938020	0.396760	1.327620	-0.574461	-0.251342	0.767637	-1.000000	-1.000000	-1.000000	-1.000000	-1.000000	-1.000000	-1.000000	62.000000	0.000000	-1.000000	-1.000000	209458.000000	1775765292.802889
28377.675000	1484.685000	17801.415000	15687.900000	24931.620000	11303.370000	9592.560000	-16541.100000	4.479108	4.944266	4.268864	4.138368	3.518425	0.827686	0.506157	4.269937	-2.960440	1.113980	0.640920	-0.574889	-0.251403	0.764280	-1.000000	-1.000000	-1.000000	-1.000000	-1.000000	-1.000000	-1.000000	62.000000	0.000000	-1.000000	-1.000000	209459.000000	1775765292.818937
28375.065000	1482.030000	17798.535000	15683.445000	24925.050000	11264.220000	9589.770000	-16539.255000	6.734922	4.328015	3.946824	4.035026	5.574460	7.107563	3.529862	9.615000	-2.960440	1.113980	0.640920	-0.574889	-0.251403	0.764280	-1.000000	-1.000000	-1.000000	-1.000000	-1.000000	-1.000000	-1.000000	62.000000	0.000000	-1.000000	-1.000000	209460.000000	1775765292.818962
28375.155000	1484.370000	17801.820000	15686.370000	24923.340000	11236.365000	9580.905000	-16541.370000	6.344041	0.994300	0.957212	1.357253	4.398636	9.120730	6.021271	11.443316	-2.960440	1.113980	0.640920	-0.574889	-0.251403	0.764280	-1.000000	-1.000000	-1.000000	-1.000000	-1.000000	-1.000000	-1.000000	62.000000	0.000000	-1.000000	-1.000000	209461.000000	1775765292.822896
28367.370000	1477.980000	17796.285000	15682.545000	24922.620000	11264.490000	9573.975000	-16551.990000	3.203471	-2.386638	-2.159976	-1.890024	0.567659	3.095382	4.509170	7.757543	-2.960440	1.113980	0.640920	-0.574889	-0.251403	0.764280	-1.000000	-1.000000	-1.000000	-1.000000	-1.000000	-1.000000	-1.000000	62.000000	0.000000	-1.000000	-1.000000	209462.000000	1775765292.822919
28371.870000	1482.930000	17801.235000	15689.295000	24932.610000	11330.055000	9588.375000	-16549.515000	-1.106440	-3.571629	-3.183089	-3.413352	-3.190649	-4.066286	-0.861738	-0.012962	-2.960440	1.113980	0.640920	-0.574889	-0.251403	0.764280	-1.000000	-1.000000	-1.000000	-1.000000	-1.000000	-1.000000	-1.000000	62.000000	0.000000	-1.000000	-1.000000	209463.000000	1775765292.822947
28375.650000	1486.890000	17805.420000	15694.290000	24935.850000	11321.010000	9591.615000	-16545.690000	-4.238161	-2.141865	-1.732897	-2.364655	-4.276592	-3.124340	-5.891575	-7.622641	-2.960440	1.113980	0.640920	-0.574889	-0.251403	0.764280	-1.000000	-1.000000	-1.000000	-1.000000	-1.000000	-1.000000	-1.000000	62.000000	0.000000	-1.000000	-1.000000	209464.000000	1775765292.822959
28376.010000	1487.970000	17806.545000	15695.505000	24933.060000	11292.795000	9584.910000	-16547.670000	-4.591034	0.911480	1.169941	0.457900	-2.482697	3.573966	-7.202452	-10.981296	-2.960440	1.113980	0.640920	-0.574889	-0.251403	0.764280	-1.000000	-1.000000	-1.000000	-1.000000	-1.000000	-1.000000	-1.000000	62.000000	0.000000	-1.000000	-1.000000	209465.000000	1775765292.822974
28383.390000	1496.205000	17815.095000	15704.325000	24940.620000	11290.185000	9577.710000	-16541.730000	-2.493988	3.819487	3.824384	3.220652	0.189922	5.515796	-5.481382	-9.107157	-2.960440	1.113980	0.640920	-0.574889	-0.251403	0.764280	-1.000000	-1.000000	-1.000000	-1.000000	-1.000000	-1.000000	-1.000000	62.000000	0.000000	-1.000000	-1.000000	209466.000000	1775765292.822985
28379.565000	1488.060000	17802.135000	15688.620000	24926.580000	11288.655000	9570.645000	-16543.215000	0.366184	4.980432	4.673755	4.131654	1.662857	-1.127970	-3.312198	-3.980646	-2.960440	1.113980	0.640920	-0.574889	-0.251403	0.764280	-1.000000	-1.000000	-1.000000	-1.000000	-1.000000	-1.000000	-1.000000	62.000000	0.000000	-1.000000	-1.000000	209467.000000	1775765292.824857
28377.585000	1484.460000	17798.355000	15682.905000	24922.305000	11286.315000	9572.670000	-16543.620000	2.102631	3.505050	2.784278	2.098038	0.887656	-10.342564	-1.883574	1.344202	-2.960440	1.113980	0.640920	-0.574889	-0.251403	0.764280	-1.000000	-1.000000	-1.000000	-1.000000	-1.000000	-1.000000	-1.000000	62.000000	0.000000	-1.000000	-1.000000	209468.000000	1775765292.824898
28374.210000	1482.435000	17799.030000	15684.840000	24925.275000	11300.310000	9575.325000	-16547.895000	1.693288	-0.170255	-1.179979	-2.093298	-1.501821	-14.505988	-0.473919	4.392036	-1.556520	0.686700	0.259420	-0.574828	-0.252990	0.763243	-1.000000	-1.000000	-1.000000	-1.000000	-1.000000	-1.000000	-1.000000	62.000000	0.000000	-1.000000	-1.000000	209469.000000	1775765292.828089
28376.730000	1483.785000	17801.460000	15686.370000	24923.475000	11306.385000	9587.070000	-16542.765000	-0.224596	-3.973018	-4.643323	-5.462360	-3.255297	-10.519002	1.976070	4.506491	-1.556520	0.686700	0.259420	-0.574828	-0.252990	0.763243	-1.000000	-1.000000	-1.000000	-1.000000	-1.000000	-1.000000	-1.000000	62.000000	0.000000	-1.000000	-1.000000	209470.000000	1775765292.828106
28379.430000	1486.305000	17804.160000	15688.080000	24919.335000	11269.170000	9579.690000	-16540.065000	-1.891213	-5.591426	-5.255110	-5.480819	-2.819451	-1.686536	5.129179	2.944333	-1.556520	0.686700	0.259420	-0.574828	-0.252990	0.763243	-1.000000	-1.000000	-1.000000	-1.000000	-1.000000	-1.000000	-1.000000	62.000000	0.000000	-1.000000	-1.000000	209471.000000	1775765292.831257
28373.895000	1482.795000	17801.010000	15685.785000	24914.835000	11258.595000	9567.585000	-16550.595000	-2.101304	-4.321848	-2.961562	-2.376548	-0.806138	4.760017	6.746750	1.191153	-1.556520	0.686700	0.259420	-0.574828	-0.252990	0.763243	-1.000000	-1.000000	-1.000000	-1.000000	-1.000000	-1.000000	-1.000000	62.000000	0.000000	-1.000000	-1.000000	209472.000000	1775765292.831277
28371.600000	1484.055000	17803.800000	15690.780000	24922.665000	11268.900000	9567.495000	-16558.920000	-1.235030	-1.401768	0.347159	1.632539	1.417405	5.320044	4.834887	-0.589925	-1.556520	0.686700	0.259420	-0.574828	-0.252990	0.763243	-1.000000	-1.000000	-1.000000	-1.000000	-1.000000	-1.000000	-1.000000	62.000000	0.000000	-1.000000	-1.000000	209473.000000	1775765292.835646
28369.440000	1480.635000	17799.255000	15686.640000	24927.255000	11318.760000	9578.835000	-16558.290000	-0.341271	1.305054	2.661819	4.387715	3.330602	4.297460	0.648352	-2.516197	-1.556520	0.686700	0.259420	-0.574828	-0.252990	0.763243	-1.000000	-1.000000	-1.000000	-1.000000	-1.000000	-1.000000	-1.000000	62.000000	0.000000	-1.000000	-1.000000	209474.000000	1775765292.835673
28365.480000	1480.005000	17800.470000	15690.285000	24933.150000	11317.635000	9589.680000	-16552.620000	0.113485	2.630628	3.087547	4.881536	4.858440	7.299900	-2.139168	-3.450528	-1.556520	0.686700	0.259420	-0.574828	-0.252990	0.763243	-1.000000	-1.000000	-1.000000	-1.000000	-1.000000	-1.000000	-1.000000	62.000000	0.000000	-1.000000	-1.000000	209475.000000	1775765292.838346
28372.995000	1490.625000	17813.070000	15705.045000	24949.305000	11300.715000	9590.805000	-16540.920000	0.406553	2.673532	2.225531	3.678414	5.692539	12.362106	-1.548127	-1.910967	-1.556520	0.686700	0.259420	-0.574828	-0.252990	0.763243	-1.000000	-1.000000	-1.000000	-1.000000	-1.000000	-1.000000	-1.000000	62.000000	0.000000	-1.000000	-1.000000	209476.000000	1775765292.838367
28382.850000	1493.910000	17813.745000	15702.885000	24938.910000	11265.210000	9598.725000	-16528.545000	1.299922	2.490552	1.530847	2.273745	5.285790	11.537288	0.918842	2.091205	-1.556520	0.686700	0.259420	-0.574828	-0.252990	0.763243	-1.000000	-1.000000	-1.000000	-1.000000	-1.000000	-1.000000	-1.000000	62.000000	0.000000	-1.000000	-1.000000	209477.000000	1775765292.843847
28379.295000	1487.385000	17806.005000	15693.615000	24925.860000	11268.135000	9598.635000	-16533.765000	2.971130	2.451104	1.298363	0.942948	2.513974	1.387301	2.530767	6.345174	-1.556520	0.686700	0.259420	-0.574828	-0.252990	0.763243	-1.000000	-1.000000	-1.000000	-1.000000	-1.000000	-1.000000	-1.000000	62.000000	0.000000	-1.000000	-1.000000	209478.000000	1775765292.843872
28369.485000	1483.290000	17804.610000	15695.865000	24935.355000	11302.560000	9588.285000	-16550.370000	3.891025	1.553744	0.342831	-1.237816	-2.767806	-11.165946	1.610655	7.289474	2.502640	-0.198380	-0.564620	-0.575316	-0.257079	0.763365	-1.000000	-1.000000	-1.000000	-1.000000	-1.000000	-1.000000	-1.000000	62.000000	0.000000	-1.000000	-1.000000	209479.000000	1775765292.854922
28361.385000	1473.885000	17794.800000	15687.540000	24928.605000	11308.095000	9573.435000	-16563.420000	2.181230	-0.897161	-1.879615	-4.064084	-7.833632	-15.486084	-2.077107	2.796465	2.502640	-0.198380	-0.564620	-0.575316	-0.257079	0.763365	-1.000000	-1.000000	-1.000000	-1.000000	-1.000000	-1.000000	-1.000000	62.000000	0.000000	-1.000000	-1.000000	209480.000000	1775765292.854945
28366.920000	1477.755000	17801.055000	15695.010000	24933.105000	11297.880000	9583.110000	-16561.170000	-1.669255	-3.895044	-4.234294	-5.928744	-9.480060	-9.096897	-6.765280	-4.970977	2.502640	-0.198380	-0.564620	-0.575316	-0.257079	0.763365	-1.000000	-1.000000	-1.000000	-1.000000	-1.000000	-1.000000	-1.000000	62.000000	0.000000	-1.000000	-1.000000	209481.000000	1775765292.854970
28374.345000	1484.910000	17808.435000	15700.860000	24933.960000	11283.615000	9587.925000	-16547.805000	-4.608740	-5.194170	-4.698809	-5.240367	-6.983300	0.505739	-8.816565	-10.358908	2.502640	-0.198380	-0.564620	-0.575316	-0.257079	0.763365	-1.000000	-1.000000	-1.000000	-1.000000	-1.000000	-1.000000	-1.000000	62.000000	0.000000	-1.000000	-1.000000	209482.000000	1775765292.854982
28374.255000	1483.650000	17806.410000	15696.360000	24929.955000	11289.510000	9586.575000	-16539.930000	-4.143990	-3.357489	-2.268465	-1.915218	-2.035063	5.413044	-5.961545	-8.946873	2.502640	-0.198380	-0.564620	-0.575316	-0.257079	0.763365	-1.000000	-1.000000	-1.000000	-1.000000	-1.000000	-1.000000	-1.000000	62.000000	0.000000	-1.000000	-1.000000	209483.000000	1775765292.855558
28368.180000	1478.700000	17802.495000	15695.595000	24934.590000	11295.045000	9580.995000	-16548.255000	-1.058081	0.384386	1.487092	1.981120	2.707079	4.618990	-0.052271	-1.817726	2.502640	-0.198380	-0.564620	-0.575316	-0.257079	0.763365	-1.000000	-1.000000	-1.000000	-1.000000	-1.000000	-1.000000	-1.000000	62.000000	0.000000	-1.000000	-1.000000	209484.000000	1775765292.855575
28371.735000	1480.860000	17803.710000	15697.440000	24936.255000	11295.945000	9579.645000	-16551.270000	1.819457	3.298442	3.878453	4.120216	5.470703	1.923332	4.919236	5.402282	2.502640	-0.198380	-0.564620	-0.575316	-0.257079	0.763365	-1.000000	-1.000000	-1.000000	-1.000000	-1.000000	-1.000000	-1.000000	62.000000	0.000000	-1.000000	-1.000000	209485.000000	1775765292.858859
28366.830000	1474.695000	17798.355000	15691.185000	24928.695000	11292.795000	9573.885000	-16559.640000	2.715328	3.840494	3.715081	3.866017	5.830191	0.250037	6.490498	7.862320	2.502640	-0.198380	-0.564620	-0.575316	-0.257079	0.763365	-1.000000	-1.000000	-1.000000	-1.000000	-1.000000	-1.000000	-1.000000	62.000000	0.000000	-1.000000	-1.000000	209486.000000	1775765292.858874
28371.060000	1477.980000	17802.990000	15696.135000	24933.285000	11302.335000	9588.600000	-16558.245000	1.839041	2.380446	1.766987	2.022910	4.063878	-0.037530	5.147063	5.132106	2.502640	-0.198380	-0.564620	-0.575316	-0.257079	0.763365	-1.000000	-1.000000	-1.000000	-1.000000	-1.000000	-1.000000	-1.000000	62.000000	0.000000	-1.000000	-1.000000	209487.000000	1775765292.862831
28378.080000	1480.635000	17803.395000	15694.200000	24930.990000	11303.145000	9594.045000	-16555.860000	0.544308	0.409659	-0.277345	0.002928	1.274793	0.528093	3.296903	0.407316	2.502640	-0.198380	-0.564620	-0.575316	-0.257079	0.763365	-1.000000	-1.000000	-1.000000	-1.000000	-1.000000	-1.000000	-1.000000	62.000000	0.000000	-1.000000	-1.000000	209488.000000	1775765292.862850
28367.595000	1469.745000	17790.930000	15681.195000	24922.170000	11282.085000	9586.710000	-16567.470000	-0.095407	-0.854691	-1.396644	-1.337743	-1.229678	0.856067	2.394064	-2.918468	1.739640	-0.595140	-0.091560	-0.575499	-0.253845	0.764646	-1.000000	-1.000000	-1.000000	-1.000000	-1.000000	-1.000000	-1.000000	62.000000	0.000000	-1.000000	-1.000000	209489.000000	1775765292.870970
28369.890000	1479.240000	17801.955000	15688.980000	24927.390000	11269.935000	9587.835000	-16560.315000	-0.394859	-1.328028	-1.764884	-2.110276	-2.832463	-0.743065	1.501634	-3.724219	1.739640	-0.595140	-0.091560	-0.575499	-0.253845	0.764646	-1.000000	-1.000000	-1.000000	-1.000000	-1.000000	-1.000000	-1.000000	62.000000	0.000000	-1.000000	-1.000000	209490.000000	1775765292.871001
28372.365000	1485.495000	17811.945000	15698.565000	24933.015000	11263.545000	9589.320000	-16548.615000	-0.879397	-0.972807	-1.189870	-1.900572	-2.975257	-4.240198	-0.394494	-2.213369	1.739640	-0.595140	-0.091560	-0.575499	-0.253845	0.764646	-1.000000	-1.000000	-1.000000	-1.000000	-1.000000	-1.000000	-1.000000	62.000000	0.000000	-1.000000	-1.000000	209491.000000	1775765292.886970
28372.905000	1484.280000	17812.755000	15702.705000	24931.710000	11257.605000	9585.855000	-16543.755000	-1.121010	0.369125	0.781403	0.087625	-1.334023	-6.916070	-2.672263	1.121580	1.739640	-0.595140	-0.091560	-0.575499	-0.253845	0.764646	-1.000000	-1.000000	-1.000000	-1.000000	-1.000000	-1.000000	-1.000000	62.000000	0.000000	-1.000000	-1.000000	209492.000000	1775765292.886998
28375.515000	1479.150000	17803.800000	15703.425000	24932.565000	11307.330000	9588.015000	-16537.185000	-0.688011	1.663235	2.838413	2.988550	1.060168	-5.200063	-4.169625	4.674388	1.739640	-0.595140	-0.091560	-0.575499	-0.253845	0.764646	-1.000000	-1.000000	-1.000000	-1.000000	-1.000000	-1.000000	-1.000000	62.000000	0.000000	-1.000000	-1.000000	209493.000000	1775765292.887023
28374.345000	1480.095000	17801.460000	15703.020000	24932.610000	11299.185000	9586.755000	-16537.815000	0.144045	1.468820	2.706174	4.555844	2.550105	2.380996	-4.219774	6.165083	1.739640	-0.595140	-0.091560	-0.575499	-0.253845	0.764646	-1.000000	-1.000000	-1.000000	-1.000000	-1.000000	-1.000000	-1.000000	62.000000	0.000000	-1.000000	-1.000000	209494.000000	1775765292.887036
28374.570000	1481.805000	17800.695000	15696.270000	24931.485000	11293.965000	9584.280000	-16543.755000	0.742816	-0.133266	0.051538	3.317567	2.367215	11.529124	-2.930814	4.264121	1.739640	-0.595140	-0.091560	-0.575499	-0.253845	0.764646	-1.000000	-1.000000	-1.000000	-1.000000	-1.000000	-1.000000	-1.000000	62.000000	0.000000	-1.000000	-1.000000	209495.000000	1775765292.887051
28373.130000	1479.060000	17798.580000	15687.585000	24933.375000	11303.640000	9586.080000	-16546.005000	0.675676	-1.780448	-3.094986	-0.418393	0.924081	14.926557	-1.045229	-0.498447	1.739640	-0.595140	-0.091560	-0.575499	-0.253845	0.764646	-1.000000	-1.000000	-1.000000	-1.000000	-1.000000	-1.000000	-1.000000	62.000000	0.000000	-1.000000	-1.000000	209496.000000	1775765292.887063
28377.135000	1480.230000	17802.990000	15693.255000	24932.430000	11299.725000	9587.835000	-16540.425000	0.107530	-2.452125	-4.480194	-4.681376	-0.750032	10.176413	0.770935	-5.638724	1.739640	-0.595140	-0.091560	-0.575499	-0.253845	0.764646	-1.000000	-1.000000	-1.000000	-1.000000	-1.000000	-1.000000	-1.000000	62.000000	0.000000	-1.000000	-1.000000	209497.000000	1775765292.887077
28374.435000	1474.785000	17798.985000	15693.300000	24931.890000	11297.385000	9585.585000	-16542.810000	-0.408353	-2.098866	-3.348143	-6.719776	-1.813421	0.773751	2.134610	-8.166854	1.739640	-0.595140	-0.091560	-0.575499	-0.253845	0.764646	-1.000000	-1.000000	-1.000000	-1.000000	-1.000000	-1.000000	-1.000000	62.000000	0.000000	-1.000000	-1.000000	209498.000000	1775765292.887088
28372.725000	1477.710000	17803.170000	15699.105000	24937.335000	11291.805000	9583.155000	-16549.695000	-0.632657	-1.198437	-0.641458	-5.051611	-1.931183	-8.358498	2.613208	-7.108142	-0.610400	-0.503580	-0.045780	-0.574706	-0.249938	0.765928	-1.000000	-1.000000	-1.000000	-1.000000	-1.000000	-1.000000	-1.000000	62.000000	0.000000	-1.000000	-1.000000	209499.000000	1775765292.888442
28380.510000	1489.995000	17816.445000	15710.805000	24943.050000	11277.405000	9578.160000	-16551.495000	-0.594721	0.114340	2.293271	-0.524272	-1.007501	-13.808641	1.913145	-3.958712	-0.610400	-0.503580	-0.045780	-0.574706	-0.249938	0.765928	-1.000000	-1.000000	-1.000000	-1.000000	-1.000000	-1.000000	-1.000000	62.000000	0.000000	-1.000000	-1.000000	209500.000000	1775765292.888462
28378.845000	1493.505000	17823.330000	15721.470000	24955.110000	11287.395000	9576.720000	-16554.825000	-0.123744	2.082457	4.791786	4.729757	0.823854	-14.275722	0.347826	-0.636709	-0.610400	-0.503580	-0.045780	-0.574706	-0.249938	0.765928	-1.000000	-1.000000	-1.000000	-1.000000	-1.000000	-1.000000	-1.000000	62.000000	0.000000	-1.000000	-1.000000	209501.000000	1775765292.902935
28367.730000	1479.060000	17807.985000	15706.080000	24941.385000	11302.155000	9590.310000	-16558.470000	0.421113	3.772122	5.828501	7.993450	2.588611	-9.506593	-0.897369	1.860741	-0.610400	-0.503580	-0.045780	-0.574706	-0.249938	0.765928	-1.000000	-1.000000	-1.000000	-1.000000	-1.000000	-1.000000	-1.000000	62.000000	0.000000	-1.000000	-1.000000	209502.000000	1775765292.902960
28367.460000	1471.005000	17797.770000	15693.165000	24927.030000	11304.360000	9604.530000	-16551.855000	0.054486	3.029953	3.611185	6.550271	2.236921	-0.664958	-0.230934	3.412192	-0.610400	-0.503580	-0.045780	-0.574706	-0.249938	0.765928	-1.000000	-1.000000	-1.000000	-1.000000	-1.000000	-1.000000	-1.000000	62.000000	0.000000	-1.000000	-1.000000	209503.000000	1775765292.902985
28370.475000	1474.830000	17801.145000	15697.035000	24931.350000	11308.590000	9597.465000	-16546.365000	-1.084861	-0.493143	-1.714300	0.411675	-1.096141	8.378150	2.326179	4.518410	-0.610400	-0.503580	-0.045780	-0.574706	-0.249938	0.765928	-1.000000	-1.000000	-1.000000	-1.000000	-1.000000	-1.000000	-1.000000	62.000000	0.000000	-1.000000	-1.000000	209504.000000	1775765292.902996
28361.295000	1474.830000	17803.260000	15698.880000	24931.440000	11307.510000	9586.800000	-16555.140000	-1.717648	-4.052077	-6.661730	-6.247316	-4.908615	13.032604	3.973255	5.256633	-0.610400	-0.503580	-0.045780	-0.574706	-0.249938	0.765928	-1.000000	-1.000000	-1.000000	-1.000000	-1.000000	-1.000000	-1.000000	62.000000	0.000000	-1.000000	-1.000000	209505.000000	1775765292.903011
28369.395000	1478.655000	17805.510000	15697.530000	24922.710000	11265.210000	9580.545000	-16552.755000	-1.205486	-4.748652	-7.631505	-8.798265	-5.966302	10.647943	1.956305	4.686245	-0.610400	-0.503580	-0.045780	-0.574706	-0.249938	0.765928	-1.000000	-1.000000	-1.000000	-1.000000	-1.000000	-1.000000	-1.000000	62.000000	0.000000	-1.000000	-1.000000	209506.000000	1775765292.903022
28375.785000	1476.360000	17800.245000	15690.915000	24918.930000	11266.155000	9584.415000	-16549.110000	0.412009	-2.313191	-4.388680	-6.423391	-3.906371	1.720803	-2.823233	2.483269	-0.610400	-0.503580	-0.045780	-0.574706	-0.249938	0.765928	-1.000000	-1.000000	-1.000000	-1.000000	-1.000000	-1.000000	-1.000000	62.000000	0.000000	-1.000000	-1.000000	209507.000000	1775765292.907907
28370.880000	1477.845000	17804.610000	15699.465000	24932.160000	11269.935000	9588.105000	-16549.380000	2.625774	1.251336	0.421105	-1.565237	-0.245668	-8.476290	-6.501435	-0.166981	-0.610400	-0.503580	-0.045780	-0.574706	-0.249938	0.765928	-1.000000	-1.000000	-1.000000	-1.000000	-1.000000	-1.000000	-1.000000	62.000000	0.000000	-1.000000	-1.000000	209508.000000	1775765292.907924
28384.965000	1490.310000	17816.985000	15710.940000	24940.170000	11268.315000	9589.680000	-16537.860000	4.207550	3.934663	4.335011	3.382698	3.993136	-12.696733	-6.190241	-1.854396	-2.960440	0.320460	0.427280	-0.574217	-0.248412	0.767576	-1.000000	-1.000000	-1.000000	-1.000000	-1.000000	-1.000000	-1.000000	62.000000	0.000000	-1.000000	-1.000000	209509.000000	1775765292.912729
28376.910000	1481.445000	17806.725000	15701.535000	24933.555000	11272.095000	9581.850000	-16540.380000	4.225637	4.946522	6.334909	6.958520	7.603201	-8.462574	-2.535170	-2.016298	-2.960440	0.320460	0.427280	-0.574217	-0.248412	0.767576	-1.000000	-1.000000	-1.000000	-1.000000	-1.000000	-1.000000	-1.000000	62.000000	0.000000	-1.000000	-1.000000	209510.000000	1775765292.912749
28368.630000	1474.110000	17799.750000	15696.270000	24928.380000	11267.100000	9581.445000	-16546.095000	2.287357	3.780982	5.605857	7.491168	8.307961	0.511056	1.444280	-1.442071	-2.960440	0.320460	0.427280	-0.574217	-0.248412	0.767576	-1.000000	-1.000000	-1.000000	-1.000000	-1.000000	-1.000000	-1.000000	62.000000	0.000000	-1.000000	-1.000000	209511.000000	1775765292.912772
28361.790000	1468.935000	17796.195000	15693.255000	24924.195000	11273.895000	9586.845000	-16555.545000	-1.519307	0.315490	1.944304	4.229600	4.888728	8.492771	3.583755	-1.704776	-2.960440	0.320460	0.427280	-0.574217	-0.248412	0.767576	-1.000000	-1.000000	-1.000000	-1.000000	-1.000000	-1.000000	-1.000000	62.000000	0.000000	-1.000000	-1.000000	209512.000000	1775765292.912785
28354.275000	1468.575000	17799.255000	15702.660000	24940.170000	11292.480000	9582.480000	-16560.270000	-5.735315	-3.845380	-2.686552	-0.786384	-0.632168	12.178385	3.877789	-3.311166	-2.960440	0.320460	0.427280	-0.574217	-0.248412	0.767576	-1.000000	-1.000000	-1.000000	-1.000000	-1.000000	-1.000000	-1.000000	62.000000	0.000000	-1.000000	-1.000000	209513.000000	1775765292.929058
28358.910000	1473.525000	17803.035000	15704.955000	24939.450000	11304.900000	9581.355000	-16555.005000	-7.928605	-6.026099	-5.250954	-4.090947	-4.431667	11.891737	3.007048	-4.807802	-2.960440	0.320460	0.427280	-0.574217	-0.248412	0.767576	-1.000000	-1.000000	-1.000000	-1.000000	-1.000000	-1.000000	-1.000000	62.000000	0.000000	-1.000000	-1.000000	209514.000000	1775765292.929090
28371.555000	1479.240000	17804.745000	15702.615000	24932.925000	11285.865000	9587.970000	-16546.680000	-6.157286	-4.613633	-4.281439	-4.090305	-4.848369	8.610649	1.572055	-3.968408	-2.960440	0.320460	0.427280	-0.574217	-0.248412	0.767576	-1.000000	-1.000000	-1.000000	-1.000000	-1.000000	-1.000000	-1.000000	62.000000	0.000000	-1.000000	-1.000000	209515.000000	1775765292.929113
28373.580000	1474.605000	17798.580000	15694.515000	24925.185000	11250.630000	9587.070000	-16546.410000	-0.528693	-0.496504	-1.038142	-2.236703	-3.627762	1.504614	0.396310	-0.175905	-2.960440	0.320460	0.427280	-0.574217	-0.248412	0.767576	-1.000000	-1.000000	-1.000000	-1.000000	-1.000000	-1.000000	-1.000000	62.000000	0.000000	-1.000000	-1.000000	209516.000000	1775765292.929121
28368.630000	1471.860000	17797.815000	15695.730000	24932.295000	11270.745000	9588.465000	-16549.380000	5.869773	3.414924	1.802309	-0.839214	-2.749410	-8.747961	-0.121061	4.408779	-2.960440	0.320460	0.427280	-0.574217	-0.248412	0.767576	-1.000000	-1.000000	-1.000000	-1.000000	-1.000000	-1.000000	-1.000000	62.000000	0.000000	-1.000000	-1.000000	209517.000000	1775765292.929129
28362.780000	1468.125000	17797.500000	15698.520000	24938.370000	11283.120000	9589.455000	-16554.690000	8.836335	4.613872	2.618195	-0.493427	-1.934950	-16.169273	-0.320834	6.614453	-2.960440	0.320460	0.427280	-0.574217	-0.248412	0.767576	-1.000000	-1.000000	-1.000000	-1.000000	-1.000000	-1.000000	-1.000000	62.000000	0.000000	-1.000000	-1.000000	209518.000000	1775765292.929136
28363.005000	1466.145000	17795.385000	15695.595000	24936.660000	11312.775000	9599.940000	-16553.745000	6.675353	2.909577	1.744606	-0.299635	-0.181839	-14.197949	-0.398285	5.131709	-3.616620	1.205540	0.015260	-0.573912	-0.250793	0.767637	-1.000000	-1.000000	-1.000000	-1.000000	-1.000000	-1.000000	-1.000000	62.000000	0.000000	-1.000000	-1.000000	209519.000000	1775765292.929144
28362.960000	1468.260000	17796.960000	15697.080000	24936.480000	11336.895000	9602.280000	-16552.755000	1.451507	0.066519	0.389019	0.295637	1.971982	-2.883952	-0.097599	1.443725	-3.616620	1.205540	0.015260	-0.573912	-0.250793	0.767637	-1.000000	-1.000000	-1.000000	-1.000000	-1.000000	-1.000000	-1.000000	62.000000	0.000000	-1.000000	-1.000000	209520.000000	1775765292.929150
28364.805000	1474.785000	17804.430000	15704.730000	24940.485000	11334.960000	9596.835000	-16551.225000	-3.229469	-1.726123	-0.326590	1.192697	3.152164	10.669733	0.310554	-1.822066	-3.616620	1.205540	0.015260	-0.573912	-0.250793	0.767637	-1.000000	-1.000000	-1.000000	-1.000000	-1.000000	-1.000000	-1.000000	62.000000	0.000000	-1.000000	-1.000000	209521.000000	1775765292.933327
28366.560000	1477.260000	17806.680000	15706.575000	24936.660000	11301.705000	9590.760000	-16550.505000	-5.029117	-1.354062	0.164022	2.240298	2.827666	16.771737	-0.251219	-3.067389	-3.616620	1.205540	0.015260	-0.573912	-0.250793	0.767637	-1.000000	-1.000000	-1.000000	-1.000000	-1.000000	-1.000000	-1.000000	62.000000	0.000000	-1.000000	-1.000000	209522.000000	1775765292.933355
28368.900000	1473.615000	17802.360000	15703.830000	24933.735000	11270.295000	9600.570000	-16548.570000	-3.851401	0.381725	1.230453	2.892173	1.271656	9.661249	-1.955376	-2.375672	-3.616620	1.205540	0.015260	-0.573912	-0.250793	0.767637	-1.000000	-1.000000	-1.000000	-1.000000	-1.000000	-1.000000	-1.000000	62.000000	0.000000	-1.000000	-1.000000	209523.000000	1775765292.934794
28372.950000	1476.495000	17806.635000	15710.085000	24941.520000	11263.905000	9599.895000	-16551.270000	-1.106249	1.618566	1.523276	2.382894	-0.707706	-6.924500	-3.207969	-0.855124	-3.616620	1.205540	0.015260	-0.573912	-0.250793	0.767637	-1.000000	-1.000000	-1.000000	-1.000000	-1.000000	-1.000000	-1.000000	62.000000	0.000000	-1.000000	-1.000000	209524.000000	1775765292.934816
28371.465000	1476.495000	17807.445000	15710.535000	24943.185000	11285.460000	9589.905000	-16556.445000	1.456721	1.369471	0.612346	0.833696	-1.799750	-20.987614	-2.872010	0.186025	-3.616620	1.205540	0.015260	-0.573912	-0.250793	0.767637	-1.000000	-1.000000	-1.000000	-1.000000	-1.000000	-1.000000	-1.000000	62.000000	0.000000	-1.000000	-1.000000	209525.000000	1775765292.938798
28361.610000	1466.685000	17795.790000	15696.000000	24923.430000	11245.455000	9565.920000	-16567.155000	2.355665	-0.092721	-0.974378	-1.172572	-1.728625	-22.453087	-2.162969	-0.117073	-3.616620	1.205540	0.015260	-0.573912	-0.250793	0.767637	-1.000000	-1.000000	-1.000000	-1.000000	-1.000000	-1.000000	-1.000000	62.000000	0.000000	-1.000000	-1.000000	209526.000000	1775765292.938814
28351.620000	1455.975000	17785.530000	15685.290000	24918.390000	11270.745000	9565.155000	-16579.755000	0.831163	-2.300291	-2.968313	-3.632798	-1.930357	-11.811419	-2.681252	-1.775901	-3.616620	1.205540	0.015260	-0.573912	-0.250793	0.767637	-1.000000	-1.000000	-1.000000	-1.000000	-1.000000	-1.000000	-1.000000	62.000000	0.000000	-1.000000	-1.000000	209527.000000	1775765292.943402
28352.610000	1461.015000	17792.910000	15694.695000	24932.880000	11343.960000	9576.270000	-16579.485000	-2.233687	-4.411451	-4.762854	-5.884241	-2.710023	5.029040	-3.244860	-3.681477	-3.616620	1.205540	0.015260	-0.573912	-0.250793	0.767637	-1.000000	-1.000000	-1.000000	-1.000000	-1.000000	-1.000000	-1.000000	62.000000	0.000000	-1.000000	-1.000000	209528.000000	1775765292.943416
28362.870000	1476.585000	17809.155000	15711.840000	24947.280000	11328.930000	9587.385000	-16563.240000	-4.187693	-4.456332	-4.382786	-5.505656	-1.800754	22.731353	-0.897157	-3.617486	-0.518840	2.289000	-0.366240	-0.572203	-0.254455	0.768431	-1.000000	-1.000000	-1.000000	-1.000000	-1.000000	-1.000000	-1.000000	62.000000	0.000000	-1.000000	-1.000000	209529.000000	1775765292.946798
28357.920000	1472.940000	17803.620000	15707.655000	24943.905000	11327.760000	9595.845000	-16554.780000	-2.891140	-1.130625	-0.626213	-1.096071	1.989264	32.919965	4.851581	0.115100	-0.518840	2.289000	-0.366240	-0.572203	-0.254455	0.768431	-1.000000	-1.000000	-1.000000	-1.000000	-1.000000	-1.000000	-1.000000	62.000000	0.000000	-1.000000	-1.000000	209530.000000	1775765292.946814
28359.675000	1469.385000	17801.685000	15710.400000	24952.410000	11323.530000	9607.860000	-16549.605000	0.803773	3.619626	4.254087	4.806531	6.199481	27.636798	10.867041	6.171655	-0.518840	2.289000	-0.366240	-0.572203	-0.254455	0.768431	-1.000000	-1.000000	-1.000000	-1.000000	-1.000000	-1.000000	-1.000000	62.000000	0.000000	-1.000000	-1.000000	209531.000000	1775765292.950845
28366.830000	1468.665000	17800.110000	15707.970000	24946.560000	11297.790000	9606.555000	-16548.975000	4.254265	6.152356	6.536192	7.996288	7.446982	8.368388	13.197461	10.524345	-0.518840	2.289000	-0.366240	-0.572203	-0.254455	0.768431	-1.000000	-1.000000	-1.000000	-1.000000	-1.000000	-1.000000	-1.000000	62.000000	0.000000	-1.000000	-1.000000	209532.000000	1775765292.950866
28359.270000	1464.345000	17794.620000	15697.755000	24931.845000	11294.820000	9591.210000	-16567.920000	5.642840	4.905863	4.854793	6.481067	4.342861	-15.025547	9.544136	9.585409	-0.518840	2.289000	-0.366240	-0.572203	-0.254455	0.768431	-1.000000	-1.000000	-1.000000	-1.000000	-1.000000	-1.000000	-1.000000	62.000000	0.000000	-1.000000	-1.000000	209533.000000	1775765292.956755
28359.765000	1462.860000	17793.045000	15694.155000	24928.920000	11299.590000	9588.060000	-16569.765000	4.399077	1.172114	0.700837	1.292396	-2.008120	-30.933712	0.546427	2.863294	-0.518840	2.289000	-0.366240	-0.572203	-0.254455	0.768431	-1.000000	-1.000000	-1.000000	-1.000000	-1.000000	-1.000000	-1.000000	62.000000	0.000000	-1.000000	-1.000000	209534.000000	1775765292.956775
28367.370000	1470.870000	17801.505000	15702.165000	24932.745000	11303.505000	9594.090000	-16555.995000	1.339306	-2.432153	-3.114516	-4.306805	-8.081005	-32.001535	-9.484799	-5.790810	-0.518840	2.289000	-0.366240	-0.572203	-0.254455	0.768431	-1.000000	-1.000000	-1.000000	-1.000000	-1.000000	-1.000000	-1.000000	62.000000	0.000000	-1.000000	-1.000000	209535.000000	1775765292.959908
28362.915000	1465.965000	17796.510000	15698.565000	24930.585000	11302.200000	9595.710000	-16554.465000	-1.575319	-3.780515	-4.314403	-6.786058	-9.987121	-19.364141	-14.852477	-10.541305	-0.518840	2.289000	-0.366240	-0.572203	-0.254455	0.768431	-1.000000	-1.000000	-1.000000	-1.000000	-1.000000	-1.000000	-1.000000	62.000000	0.000000	-1.000000	-1.000000	209536.000000	1775765292.959923
28361.835000	1464.705000	17795.340000	15698.745000	24929.820000	11296.620000	9596.700000	-16551.405000	-3.140860	-2.823234	-2.919006	-5.198518	-6.802406	-1.271894	-13.022637	-8.901734	-0.518840	2.289000	-0.366240	-0.572203	-0.254455	0.768431	-1.000000	-1.000000	-1.000000	-1.000000	-1.000000	-1.000000	-1.000000	62.000000	0.000000	-1.000000	-1.000000	209537.000000	1775765292.964987
28364.445000	1466.955000	17796.555000	15698.295000	24925.770000	11288.160000	9591.030000	-16550.055000	-3.450526	-1.040899	-0.681861	-1.445282	-0.988600	12.899522	-6.248687	-3.320636	-0.518840	2.289000	-0.366240	-0.572203	-0.254455	0.768431	-1.000000	-1.000000	-1.000000	-1.000000	-1.000000	-1.000000	-1.000000	62.000000	0.000000	-1.000000	-1.000000	209538.000000	1775765292.965014
