Channel1	Channel2	Channel3	Channel4	Channel5	Channel6	Channel7	Channel8	FilteredChannel1	FilteredChannel2	FilteredChannel3	FilteredChannel4	FilteredChannel5	FilteredChannel6	FilteredChannel7	FilteredChannel8	GyroX	GyroY	GyroZ	AccX	AccY	AccZ	PPG1	PPG2	rawPPG1	rawPPG2	rawPPG3	Hr	Hrv	Battery	Trigger	PhysicalTrigger	AutoTrigger	NumMeasurements	Timestamp
689.265000	-14476.005000	22978.305000	25147.935000	32482.800000	8597.025000	9754.515000	-30930.390000	5.603002	3.346369	2.730179	1.808548	-0.896624	-33.354373	-1.209515	4.491795	-1.373400	1.770160	1.510740	-0.835142	-0.079040	0.529051	-1.000000	-1.000000	-1.000000	-1.000000	-1.000000	-1.000000	-1.000000	62.000000	0.000000	-1.000000	-1.000000	304511.000000	1775765482.872946
691.515000	-14476.995000	22980.060000	25150.545000	32489.910000	8607.555000	9758.115000	-30925.440000	8.187783	6.630268	6.230258	6.197988	4.070900	-38.441305	-2.644468	3.934999	-1.373400	1.770160	1.510740	-0.835142	-0.079040	0.529051	-1.000000	-1.000000	-1.000000	-1.000000	-1.000000	-1.000000	-1.000000	62.000000	0.000000	-1.000000	-1.000000	304512.000000	1775765482.872972
689.580000	-14481.270000	22975.020000	25144.605000	32483.700000	8613.990000	9768.420000	-30920.940000	7.708765	6.319677	6.337470	7.338753	6.759873	-27.176697	-2.060023	3.902161	-1.373400	1.770160	1.510740	-0.835142	-0.079040	0.529051	-1.000000	-1.000000	-1.000000	-1.000000	-1.000000	-1.000000	-1.000000	62.000000	0.000000	-1.000000	-1.000000	304513.000000	1775765482.877739
690.210000	-14481.405000	22974.345000	25141.770000	32480.145000	8610.705000	9767.880000	-30922.470000	4.270509	2.586665	3.104976	4.522137	5.308776	-6.844556	0.339726	3.590326	-1.373400	1.770160	1.510740	-0.835142	-0.079040	0.529051	-1.000000	-1.000000	-1.000000	-1.000000	-1.000000	-1.000000	-1.000000	62.000000	0.000000	-1.000000	-1.000000	304514.000000	1775765482.877766
687.330000	-14484.015000	22971.735000	25137.135000	32475.060000	8627.895000	9767.250000	-30924.855000	-0.480498	-2.159004	-1.390565	-0.589032	0.387088	12.038421	2.731247	2.019857	-1.373400	1.770160	1.510740	-0.835142	-0.079040	0.529051	-1.000000	-1.000000	-1.000000	-1.000000	-1.000000	-1.000000	-1.000000	62.000000	0.000000	-1.000000	-1.000000	304515.000000	1775765482.881483
685.080000	-14484.420000	22972.005000	25135.380000	32471.685000	8641.710000	9752.445000	-30929.175000	-4.531858	-5.330989	-4.685015	-5.184479	-5.166456	22.702350	2.903434	-0.974800	-1.373400	1.770160	1.510740	-0.835142	-0.079040	0.529051	-1.000000	-1.000000	-1.000000	-1.000000	-1.000000	-1.000000	-1.000000	62.000000	0.000000	-1.000000	-1.000000	304516.000000	1775765482.881505
682.920000	-14484.015000	22972.680000	25137.855000	32475.150000	8600.805000	9755.460000	-30932.145000	-6.541871	-5.690433	-5.346123	-6.963375	-8.200638	23.174697	0.215973	-4.365978	-1.373400	1.770160	1.510740	-0.835142	-0.079040	0.529051	-1.000000	-1.000000	-1.000000	-1.000000	-1.000000	-1.000000	-1.000000	62.000000	0.000000	-1.000000	-1.000000	304517.000000	1775765482.885660
681.930000	-14483.970000	22973.085000	25137.675000	32468.715000	8538.255000	9760.320000	-30932.640000	-6.154188	-3.582136	-3.491112	-5.257729	-7.213797	12.856949	-3.273142	-6.525134	-1.373400	1.770160	1.510740	-0.835142	-0.079040	0.529051	-1.000000	-1.000000	-1.000000	-1.000000	-1.000000	-1.000000	-1.000000	62.000000	0.000000	-1.000000	-1.000000	304518.000000	1775765482.885684
683.145000	-14483.565000	22972.860000	25136.595000	32468.220000	8585.055000	9770.355000	-30930.480000	-3.831489	-0.383117	-0.434813	-1.316257	-3.219213	-4.467891	-4.369320	-6.219833	-2.517900	2.136400	1.281840	-0.836302	-0.077209	0.526732	-1.000000	-1.000000	-1.000000	-1.000000	-1.000000	-1.000000	-1.000000	62.000000	0.000000	-1.000000	-1.000000	304519.000000	1775765482.888664
683.955000	-14483.115000	22974.480000	25141.635000	32477.625000	8593.740000	9783.720000	-30927.780000	-0.547770	2.361447	2.229839	2.666336	1.579647	-16.814442	-1.718726	-3.385423	-2.517900	2.136400	1.281840	-0.836302	-0.077209	0.526732	-1.000000	-1.000000	-1.000000	-1.000000	-1.000000	-1.000000	-1.000000	62.000000	0.000000	-1.000000	-1.000000	304520.000000	1775765482.888683
696.420000	-14470.515000	22988.655000	25152.885000	32483.790000	8563.635000	9777.105000	-30918.060000	2.718559	3.902638	3.772506	5.287102	5.695984	-15.109656	2.888513	0.873904	-2.517900	2.136400	1.281840	-0.836302	-0.077209	0.526732	-1.000000	-1.000000	-1.000000	-1.000000	-1.000000	-1.000000	-1.000000	62.000000	0.000000	-1.000000	-1.000000	304521.000000	1775765482.892007
691.470000	-14472.765000	22989.780000	25155.135000	32493.420000	8566.830000	9753.795000	-30922.605000	5.168009	4.390823	4.452934	6.318732	8.331108	-3.868734	5.343184	4.780640	-2.517900	2.136400	1.281840	-0.836302	-0.077209	0.526732	-1.000000	-1.000000	-1.000000	-1.000000	-1.000000	-1.000000	-1.000000	62.000000	0.000000	-1.000000	-1.000000	304522.000000	1775765482.892026
686.880000	-14478.615000	22983.885000	25145.280000	32481.225000	8584.605000	9756.855000	-30925.215000	5.680900	3.684686	4.110063	5.425405	8.470752	7.278011	2.728819	6.357200	-2.517900	2.136400	1.281840	-0.836302	-0.077209	0.526732	-1.000000	-1.000000	-1.000000	-1.000000	-1.000000	-1.000000	-1.000000	62.000000	0.000000	-1.000000	-1.000000	304523.000000	1775765482.897925
676.485000	-14489.415000	22974.030000	25130.475000	32465.205000	8596.980000	9759.105000	-30933.990000	3.311084	1.119069	1.778314	1.831206	4.908864	13.998108	-2.892736	4.516789	-2.517900	2.136400	1.281840	-0.836302	-0.077209	0.526732	-1.000000	-1.000000	-1.000000	-1.000000	-1.000000	-1.000000	-1.000000	62.000000	0.000000	-1.000000	-1.000000	304524.000000	1775765482.897951
674.910000	-14490.585000	22973.085000	25136.235000	32474.070000	8603.325000	9756.810000	-30935.340000	-1.177372	-2.895285	-2.439895	-3.737700	-1.743980	15.915965	-6.537354	0.199658	-2.517900	2.136400	1.281840	-0.836302	-0.077209	0.526732	-1.000000	-1.000000	-1.000000	-1.000000	-1.000000	-1.000000	-1.000000	62.000000	0.000000	-1.000000	-1.000000	304525.000000	1775765482.901004
679.230000	-14487.030000	22972.185000	25142.490000	32478.480000	8594.955000	9755.055000	-30933.090000	-5.115341	-6.108401	-6.341853	-7.924039	-7.598532	12.831829	-5.729009	-3.944791	-2.517900	2.136400	1.281840	-0.836302	-0.077209	0.526732	-1.000000	-1.000000	-1.000000	-1.000000	-1.000000	-1.000000	-1.000000	62.000000	0.000000	-1.000000	-1.000000	304526.000000	1775765482.901028
678.195000	-14483.070000	22978.260000	25146.405000	32477.805000	8591.085000	9751.545000	-30937.230000	-5.888514	-6.088553	-7.265202	-7.504828	-8.749576	4.942139	-1.854016	-5.453965	-2.517900	2.136400	1.281840	-0.836302	-0.077209	0.526732	-1.000000	-1.000000	-1.000000	-1.000000	-1.000000	-1.000000	-1.000000	62.000000	0.000000	-1.000000	-1.000000	304527.000000	1775765482.906784
676.845000	-14483.295000	22980.690000	25147.890000	32478.255000	8595.855000	9752.220000	-30938.940000	-3.272592	-2.599238	-4.354539	-2.804127	-5.235227	-5.196813	2.297577	-3.968675	-2.517900	2.136400	1.281840	-0.836302	-0.077209	0.526732	-1.000000	-1.000000	-1.000000	-1.000000	-1.000000	-1.000000	-1.000000	62.000000	0.000000	-1.000000	-1.000000	304528.000000	1775765482.906811
673.020000	-14492.205000	22970.385000	25136.460000	32464.395000	8595.360000	9755.865000	-30936.735000	0.568443	1.925662	0.536204	2.608883	-0.377401	-13.004756	4.888419	-0.936306	-1.632820	2.639980	0.564620	-0.836607	-0.079284	0.526305	-1.000000	-1.000000	-1.000000	-1.000000	-1.000000	-1.000000	-1.000000	62.000000	0.000000	-1.000000	-1.000000	304529.000000	1775765482.910496
677.520000	-14490.810000	22968.540000	25135.110000	32461.785000	8587.305000	9755.910000	-30928.545000	3.321886	4.490668	4.119028	5.055227	2.424035	-15.318166	5.580456	2.195037	-1.632820	2.639980	0.564620	-0.836607	-0.079284	0.526305	-1.000000	-1.000000	-1.000000	-1.000000	-1.000000	-1.000000	-1.000000	62.000000	0.000000	-1.000000	-1.000000	304530.000000	1775765482.910517
683.955000	-14481.900000	22979.295000	25145.235000	32469.075000	8568.855000	9752.445000	-30927.195000	4.324185	4.337573	4.804797	3.928702	2.478399	-12.800662	4.629406	4.616898	-1.632820	2.639980	0.564620	-0.836607	-0.079284	0.526305	-1.000000	-1.000000	-1.000000	-1.000000	-1.000000	-1.000000	-1.000000	62.000000	0.000000	-1.000000	-1.000000	304531.000000	1775765482.915518
681.255000	-14483.115000	22976.820000	25136.190000	32463.135000	8540.010000	9748.620000	-30932.415000	4.102429	3.006955	3.792600	1.518427	1.658988	-8.720850	2.301411	5.462278	-1.632820	2.639980	0.564620	-0.836607	-0.079284	0.526305	-1.000000	-1.000000	-1.000000	-1.000000	-1.000000	-1.000000	-1.000000	62.000000	0.000000	-1.000000	-1.000000	304532.000000	1775765482.915542
676.170000	-14488.650000	22972.230000	25129.710000	32463.630000	8581.545000	9755.505000	-30935.520000	2.826886	1.655833	2.446724	-0.438936	1.417163	-4.715744	-0.595894	3.881215	-1.632820	2.639980	0.564620	-0.836607	-0.079284	0.526305	-1.000000	-1.000000	-1.000000	-1.000000	-1.000000	-1.000000	-1.000000	62.000000	0.000000	-1.000000	-1.000000	304533.000000	1775765482.917336
674.730000	-14492.745000	22969.215000	25132.050000	32462.955000	8618.220000	9761.805000	-30933.090000	0.386462	0.024276	0.767756	-1.795244	1.612986	1.923104	-2.474488	0.361186	-1.632820	2.639980	0.564620	-0.836607	-0.079284	0.526305	-1.000000	-1.000000	-1.000000	-1.000000	-1.000000	-1.000000	-1.000000	62.000000	0.000000	-1.000000	-1.000000	304534.000000	1775765482.917357
679.320000	-14491.890000	22968.630000	25131.150000	32458.590000	8601.570000	9764.010000	-30928.410000	-2.351607	-1.964590	-1.238203	-2.281615	1.635511	12.363443	-2.287117	-2.986260	-1.632820	2.639980	0.564620	-0.836607	-0.079284	0.526305	-1.000000	-1.000000	-1.000000	-1.000000	-1.000000	-1.000000	-1.000000	62.000000	0.000000	-1.000000	-1.000000	304535.000000	1775765482.920482
681.795000	-14487.120000	22974.345000	25136.730000	32460.840000	8595.000000	9758.430000	-30929.175000	-3.741193	-3.261297	-2.642374	-1.406094	1.139090	20.121693	-0.873363	-4.211217	-1.632820	2.639980	0.564620	-0.836607	-0.079284	0.526305	-1.000000	-1.000000	-1.000000	-1.000000	-1.000000	-1.000000	-1.000000	62.000000	0.000000	-1.000000	-1.000000	304536.000000	1775765482.920503
679.410000	-14485.860000	22977.630000	25140.420000	32463.180000	8591.490000	9751.725000	-30932.910000	-3.069713	-2.770792	-2.398145	0.639022	0.389599	17.808511	-0.209200	-3.284587	-1.632820	2.639980	0.564620	-0.836607	-0.079284	0.526305	-1.000000	-1.000000	-1.000000	-1.000000	-1.000000	-1.000000	-1.000000	62.000000	0.000000	-1.000000	-1.000000	304537.000000	1775765482.931520
670.770000	-14491.665000	22972.995000	25138.620000	32461.020000	8587.710000	9750.420000	-30938.265000	-1.433298	-0.860359	-0.695315	2.791893	-0.076208	6.174557	-1.258234	-1.739335	-1.632820	2.639980	0.564620	-0.836607	-0.079284	0.526305	-1.000000	-1.000000	-1.000000	-1.000000	-1.000000	-1.000000	-1.000000	62.000000	0.000000	-1.000000	-1.000000	304538.000000	1775765482.931547
673.785000	-14485.680000	22979.385000	25144.425000	32464.485000	8591.310000	9753.120000	-30935.970000	-0.400240	0.958887	1.049995	3.717887	-0.186399	-7.389830	-2.897402	-0.805676	0.488320	3.402980	-1.205540	-0.836302	-0.080200	0.524474	-1.000000	-1.000000	-1.000000	-1.000000	-1.000000	-1.000000	-1.000000	62.000000	0.000000	-1.000000	-1.000000	304539.000000	1775765482.931572
674.730000	-14478.390000	22988.205000	25151.130000	32469.570000	8585.460000	9750.105000	-30937.995000	-0.154958	1.929703	1.960128	3.051906	-0.075397	-15.648603	-3.265823	-0.384315	0.488320	3.402980	-1.205540	-0.836302	-0.080200	0.524474	-1.000000	-1.000000	-1.000000	-1.000000	-1.000000	-1.000000	-1.000000	62.000000	0.000000	-1.000000	-1.000000	304540.000000	1775765482.931584
674.505000	-14473.305000	22995.765000	25157.385000	32473.305000	8585.550000	9751.950000	-30939.255000	0.168877	2.450273	2.362399	1.614707	0.282986	-15.961974	-1.782232	0.123556	0.488320	3.402980	-1.205540	-0.836302	-0.080200	0.524474	-1.000000	-1.000000	-1.000000	-1.000000	-1.000000	-1.000000	-1.000000	62.000000	0.000000	-1.000000	-1.000000	304541.000000	1775765482.938791
664.380000	-14488.740000	22977.000000	25138.305000	32456.835000	8582.670000	9762.795000	-30941.730000	0.729540	2.376010	2.114049	-0.166143	0.366642	-10.265125	0.866451	0.791374	0.488320	3.402980	-1.205540	-0.836302	-0.080200	0.524474	-1.000000	-1.000000	-1.000000	-1.000000	-1.000000	-1.000000	-1.000000	62.000000	0.000000	-1.000000	-1.000000	304542.000000	1775765482.938818
663.795000	-14498.235000	22964.715000	25130.520000	32461.245000	8613.360000	9764.955000	-30938.130000	0.797563	0.520196	-0.135910	-2.962619	-0.784652	-1.862875	3.735705	1.376033	0.488320	3.402980	-1.205540	-0.836302	-0.080200	0.524474	-1.000000	-1.000000	-1.000000	-1.000000	-1.000000	-1.000000	-1.000000	62.000000	0.000000	-1.000000	-1.000000	304543.000000	1775765482.938845
668.835000	-14494.995000	22967.730000	25134.570000	32463.495000	8590.950000	9773.820000	-30932.730000	0.323587	-3.039759	-4.358525	-6.366056	-2.672015	6.316748	5.715684	1.917364	0.488320	3.402980	-1.205540	-0.836302	-0.080200	0.524474	-1.000000	-1.000000	-1.000000	-1.000000	-1.000000	-1.000000	-1.000000	62.000000	0.000000	-1.000000	-1.000000	304544.000000	1775765482.938857
669.600000	-14494.725000	22968.585000	25133.985000	32457.285000	8546.670000	9775.440000	-30929.895000	0.291893	-5.731580	-7.502764	-7.812733	-3.513782	9.952643	5.793428	2.548395	0.488320	3.402980	-1.205540	-0.836302	-0.080200	0.524474	-1.000000	-1.000000	-1.000000	-1.000000	-1.000000	-1.000000	-1.000000	62.000000	0.000000	-1.000000	-1.000000	304545.000000	1775765482.946822
666.720000	-14497.470000	22967.550000	25133.805000	32459.670000	8570.610000	9776.610000	-30930.705000	1.070783	-5.202534	-6.607652	-5.485057	-2.638066	6.001071	3.677322	2.866082	0.488320	3.402980	-1.205540	-0.836302	-0.080200	0.524474	-1.000000	-1.000000	-1.000000	-1.000000	-1.000000	-1.000000	-1.000000	62.000000	0.000000	-1.000000	-1.000000	304546.000000	1775765482.946847
664.920000	-14497.785000	22966.920000	25130.565000	32453.460000	8588.070000	9770.625000	-30933.045000	1.752776	-1.846617	-2.035474	-0.546315	-0.808331	-0.953605	-0.131556	2.093476	0.488320	3.402980	-1.205540	-0.836302	-0.080200	0.524474	-1.000000	-1.000000	-1.000000	-1.000000	-1.000000	-1.000000	-1.000000	62.000000	0.000000	-1.000000	-1.000000	304547.000000	1775765482.946873
662.625000	-14496.750000	22969.305000	25132.680000	32456.880000	8603.685000	9766.620000	-30937.050000	1.431481	2.168980	3.412702	4.230021	0.972935	-2.874175	-4.490343	-0.022799	0.488320	3.402980	-1.205540	-0.836302	-0.080200	0.524474	-1.000000	-1.000000	-1.000000	-1.000000	-1.000000	-1.000000	-1.000000	62.000000	0.000000	-1.000000	-1.000000	304548.000000	1775765482.946884
666.630000	-14490.630000	22975.155000	25138.755000	32460.210000	8586.630000	9767.925000	-30937.095000	0.285433	5.041046	7.174682	6.918877	2.251573	1.449603	-7.716511	-2.696141	0.686700	1.999060	-0.228900	-0.834471	-0.076111	0.526000	-1.000000	-1.000000	-1.000000	-1.000000	-1.000000	-1.000000	-1.000000	62.000000	0.000000	-1.000000	-1.000000	304549.000000	1775765482.948955
673.425000	-14482.620000	22982.985000	25146.720000	32464.395000	8561.115000	9778.635000	-30930.795000	-0.590098	6.223824	8.321379	7.370673	3.144293	5.519818	-7.977175	-4.372323	0.686700	1.999060	-0.228900	-0.834471	-0.076111	0.526000	-1.000000	-1.000000	-1.000000	-1.000000	-1.000000	-1.000000	-1.000000	62.000000	0.000000	-1.000000	-1.000000	304550.000000	1775765482.948972
672.480000	-14484.195000	22982.760000	25147.485000	32468.220000	8561.745000	9784.575000	-30930.930000	-0.387105	5.837090	7.107356	6.230839	3.657078	3.536581	-4.486782	-3.833034	0.686700	1.999060	-0.228900	-0.834471	-0.076111	0.526000	-1.000000	-1.000000	-1.000000	-1.000000	-1.000000	-1.000000	-1.000000	62.000000	0.000000	-1.000000	-1.000000	304551.000000	1775765482.954078
665.550000	-14494.995000	22972.230000	25138.575000	32463.495000	8579.340000	9774.585000	-30937.050000	0.263602	3.638528	3.814110	3.640021	3.324949	-2.605253	1.001785	-1.562676	0.686700	1.999060	-0.228900	-0.834471	-0.076111	0.526000	-1.000000	-1.000000	-1.000000	-1.000000	-1.000000	-1.000000	-1.000000	62.000000	0.000000	-1.000000	-1.000000	304552.000000	1775765482.954103
660.735000	-14502.060000	22965.705000	25131.465000	32457.195000	8591.085000	9764.685000	-30939.570000	-0.051018	-0.593237	-1.259538	-0.569123	1.524544	-6.073192	4.736293	0.550460	0.686700	1.999060	-0.228900	-0.834471	-0.076111	0.526000	-1.000000	-1.000000	-1.000000	-1.000000	-1.000000	-1.000000	-1.000000	62.000000	0.000000	-1.000000	-1.000000	304553.000000	1775765482.959313
659.475000	-14499.225000	22969.035000	25134.615000	32462.820000	8587.710000	9770.535000	-30943.755000	-1.621201	-5.466833	-6.506543	-5.335654	-1.472395	-3.565375	4.480796	1.192073	0.686700	1.999060	-0.228900	-0.834471	-0.076111	0.526000	-1.000000	-1.000000	-1.000000	-1.000000	-1.000000	-1.000000	-1.000000	62.000000	0.000000	-1.000000	-1.000000	304554.000000	1775765482.959362
662.355000	-14488.830000	22980.330000	25143.975000	32467.995000	8591.625000	9770.085000	-30950.505000	-3.075327	-7.954684	-8.940720	-7.993301	-3.869791	1.797724	1.790682	0.516048	0.686700	1.999060	-0.228900	-0.834471	-0.076111	0.526000	-1.000000	-1.000000	-1.000000	-1.000000	-1.000000	-1.000000	-1.000000	62.000000	0.000000	-1.000000	-1.000000	304555.000000	1775765482.962311
659.835000	-14485.005000	22982.220000	25143.120000	32459.805000	8595.630000	9761.580000	-30955.365000	-2.909760	-5.969913	-6.674984	-6.576216	-4.110897	5.238219	-0.518500	-0.608936	0.686700	1.999060	-0.228900	-0.834471	-0.076111	0.526000	-1.000000	-1.000000	-1.000000	-1.000000	-1.000000	-1.000000	-1.000000	62.000000	0.000000	-1.000000	-1.000000	304556.000000	1775765482.962338
657.270000	-14485.095000	22983.930000	25145.055000	32459.760000	8567.370000	9760.320000	-30951.765000	-1.127650	-0.739607	-1.177429	-2.114117	-2.733735	4.348407	-1.444512	-1.167380	0.686700	1.999060	-0.228900	-0.834471	-0.076111	0.526000	-1.000000	-1.000000	-1.000000	-1.000000	-1.000000	-1.000000	-1.000000	62.000000	0.000000	-1.000000	-1.000000	304557.000000	1775765482.973914
655.380000	-14492.385000	22979.115000	25141.410000	32460.075000	8571.645000	9771.840000	-30946.095000	0.970144	3.999003	3.806390	2.308524	-1.148138	-0.630089	-1.069630	-0.236550	0.686700	1.999060	-0.228900	-0.834471	-0.076111	0.526000	-1.000000	-1.000000	-1.000000	-1.000000	-1.000000	-1.000000	-1.000000	62.000000	0.000000	-1.000000	-1.000000	304558.000000	1775765482.973938
652.680000	-14507.820000	22961.250000	25121.835000	32445.090000	8595.585000	9782.055000	-30937.950000	2.199533	4.951223	5.090360	3.919228	-0.159797	-6.032121	0.843318	2.297445	-1.190280	2.365300	-0.335720	-0.840269	-0.073608	0.523802	-1.000000	-1.000000	-1.000000	-1.000000	-1.000000	-1.000000	-1.000000	62.000000	0.000000	-1.000000	-1.000000	304559.000000	1775765482.973980
653.445000	-14509.890000	22958.370000	25119.360000	32444.235000	8586.360000	9780.030000	-30932.865000	2.289654	1.693996	2.052800	1.833074	-0.155778	-6.911882	3.735416	5.248703	-1.190280	2.365300	-0.335720	-0.840269	-0.073608	0.523802	-1.000000	-1.000000	-1.000000	-1.000000	-1.000000	-1.000000	-1.000000	62.000000	0.000000	-1.000000	-1.000000	304560.000000	1775765482.973989
656.415000	-14505.255000	22965.030000	25127.505000	32454.135000	8582.220000	9777.915000	-30933.045000	1.783779	-2.790613	-2.543387	-1.778561	-0.476710	-2.981743	5.389972	6.674152	-1.190280	2.365300	-0.335720	-0.840269	-0.073608	0.523802	-1.000000	-1.000000	-1.000000	-1.000000	-1.000000	-1.000000	-1.000000	62.000000	0.000000	-1.000000	-1.000000	304561.000000	1775765482.974005
654.345000	-14506.650000	22963.230000	25124.085000	32447.880000	8562.735000	9769.005000	-30943.125000	1.340620	-4.613579	-4.600870	-3.230836	0.335644	1.220892	3.790921	4.981424	-1.190280	2.365300	-0.335720	-0.840269	-0.073608	0.523802	-1.000000	-1.000000	-1.000000	-1.000000	-1.000000	-1.000000	-1.000000	62.000000	0.000000	-1.000000	-1.000000	304562.000000	1775765482.974012
655.740000	-14500.890000	22970.250000	25130.970000	32449.950000	8536.410000	9767.970000	-30949.020000	1.040607	-2.482227	-2.526331	-1.147482	2.267293	1.611330	-0.716868	0.087973	-1.190280	2.365300	-0.335720	-0.840269	-0.073608	0.523802	-1.000000	-1.000000	-1.000000	-1.000000	-1.000000	-1.000000	-1.000000	62.000000	0.000000	-1.000000	-1.000000	304563.000000	1775765482.977022
650.520000	-14502.015000	22971.645000	25134.255000	32455.080000	8527.590000	9773.235000	-30948.120000	0.526557	1.800266	1.944802	2.798201	3.900001	-2.008903	-5.366800	-5.830319	-1.190280	2.365300	-0.335720	-0.840269	-0.073608	0.523802	-1.000000	-1.000000	-1.000000	-1.000000	-1.000000	-1.000000	-1.000000	62.000000	0.000000	-1.000000	-1.000000	304564.000000	1775765482.977046
647.190000	-14499.630000	22973.895000	25135.470000	32461.650000	8587.080000	9773.505000	-30946.815000	-0.480319	5.349012	5.820526	5.996837	4.446294	-4.721559	-7.069018	-9.333497	-1.190280	2.365300	-0.335720	-0.840269	-0.073608	0.523802	-1.000000	-1.000000	-1.000000	-1.000000	-1.000000	-1.000000	-1.000000	62.000000	0.000000	-1.000000	-1.000000	304565.000000	1775765482.981065
642.555000	-14497.515000	22977.810000	25138.440000	32468.580000	8623.080000	9763.695000	-30954.825000	-1.831605	6.250302	6.940375	6.577381	4.032865	0.300914	-5.204148	-8.517365	-1.190280	2.365300	-0.335720	-0.840269	-0.073608	0.523802	-1.000000	-1.000000	-1.000000	-1.000000	-1.000000	-1.000000	-1.000000	62.000000	0.000000	-1.000000	-1.000000	304566.000000	1775765482.981088
640.710000	-14507.910000	22967.100000	25128.405000	32461.470000	8621.370000	9768.780000	-30953.115000	-2.880197	4.259835	4.840662	4.116646	2.691915	12.662818	-1.764839	-4.456986	-1.190280	2.365300	-0.335720	-0.840269	-0.073608	0.523802	-1.000000	-1.000000	-1.000000	-1.000000	-1.000000	-1.000000	-1.000000	62.000000	0.000000	-1.000000	-1.000000	304567.000000	1775765482.985246
646.605000	-14511.915000	22959.855000	25118.235000	32451.075000	8602.695000	9772.605000	-30942.045000	-2.765930	0.212891	0.282977	-0.622810	-0.079678	21.750267	1.378762	0.647608	-1.190280	2.365300	-0.335720	-0.840269	-0.073608	0.523802	-1.000000	-1.000000	-1.000000	-1.000000	-1.000000	-1.000000	-1.000000	62.000000	0.000000	-1.000000	-1.000000	304568.000000	1775765482.985271
650.025000	-14509.980000	22961.970000	25119.765000	32452.875000	8586.945000	9773.820000	-30938.040000	-0.979126	-4.099881	-4.855993	-5.797196	-4.113156	17.288549	3.672462	5.330797	-2.701020	2.823100	-1.892240	-0.837583	-0.073852	0.523497	-1.000000	-1.000000	-1.000000	-1.000000	-1.000000	-1.000000	-1.000000	62.000000	0.000000	-1.000000	-1.000000	304569.000000	1775765482.995874
657.900000	-14504.130000	22966.605000	25124.715000	32459.670000	8591.085000	9770.625000	-30932.145000	1.986453	-6.218892	-7.726199	-8.554298	-7.264767	0.367168	4.720365	8.397544	-2.701020	2.823100	-1.892240	-0.837583	-0.073852	0.523497	-1.000000	-1.000000	-1.000000	-1.000000	-1.000000	-1.000000	-1.000000	62.000000	0.000000	-1.000000	-1.000000	304570.000000	1775765482.995900
664.830000	-14495.355000	22975.605000	25132.275000	32464.845000	8583.705000	9768.645000	-30928.230000	4.759327	-4.684770	-6.361782	-6.836983	-6.964753	-17.958717	3.982053	8.699398	-2.701020	2.823100	-1.892240	-0.837583	-0.073852	0.523497	-1.000000	-1.000000	-1.000000	-1.000000	-1.000000	-1.000000	-1.000000	62.000000	0.000000	-1.000000	-1.000000	304571.000000	1775765482.995926
662.535000	-14493.465000	22979.520000	25136.460000	32467.410000	8567.415000	9761.895000	-30929.265000	5.829688	-0.403459	-1.456395	-1.385687	-3.042618	-27.204276	1.567699	5.972841	-2.701020	2.823100	-1.892240	-0.837583	-0.073852	0.523497	-1.000000	-1.000000	-1.000000	-1.000000	-1.000000	-1.000000	-1.000000	62.000000	0.000000	-1.000000	-1.000000	304572.000000	1775765482.995938
660.645000	-14491.530000	22983.345000	25141.230000	32473.845000	8575.020000	9763.605000	-30928.230000	4.176103	3.842405	4.028674	4.656813	2.087109	-24.417628	-1.447055	1.147453	-2.701020	2.823100	-1.892240	-0.837583	-0.073852	0.523497	-1.000000	-1.000000	-1.000000	-1.000000	-1.000000	-1.000000	-1.000000	62.000000	0.000000	-1.000000	-1.000000	304573.000000	1775765482.999833
654.030000	-14497.515000	22976.910000	25132.680000	32464.575000	8582.805000	9762.345000	-30934.035000	0.029533	5.337902	6.836474	7.851408	5.449341	-12.488649	-3.471314	-4.044463	-2.701020	2.823100	-1.892240	-0.837583	-0.073852	0.523497	-1.000000	-1.000000	-1.000000	-1.000000	-1.000000	-1.000000	-1.000000	62.000000	0.000000	-1.000000	-1.000000	304574.000000	1775765482.999856
657.315000	-14494.185000	22979.475000	25132.680000	32463.765000	8585.325000	9759.690000	-30932.505000	-4.765056	3.331374	5.487089	6.474677	5.233871	3.114430	-3.523947	-7.778096	-2.701020	2.823100	-1.892240	-0.837583	-0.073852	0.523497	-1.000000	-1.000000	-1.000000	-1.000000	-1.000000	-1.000000	-1.000000	62.000000	0.000000	-1.000000	-1.000000	304575.000000	1775765483.001505
652.770000	-14494.005000	22971.555000	25126.020000	32456.250000	8581.770000	9749.340000	-30929.670000	-7.703124	-0.513630	1.104143	1.572229	1.816776	15.841054	-2.151434	-8.685289	-2.701020	2.823100	-1.892240	-0.837583	-0.073852	0.523497	-1.000000	-1.000000	-1.000000	-1.000000	-1.000000	-1.000000	-1.000000	62.000000	0.000000	-1.000000	-1.000000	304576.000000	1775765483.001527
648.270000	-14501.745000	22968.720000	25122.420000	32455.755000	8578.485000	9754.875000	-30935.835000	-7.491705	-3.779863	-3.744140	-3.913886	-2.498440	20.646476	-0.612864	-6.525903	-2.701020	2.823100	-1.892240	-0.837583	-0.073852	0.523497	-1.000000	-1.000000	-1.000000	-1.000000	-1.000000	-1.000000	-1.000000	62.000000	0.000000	-1.000000	-1.000000	304577.000000	1775765483.008323
647.820000	-14503.095000	22973.760000	25129.845000	32467.095000	8570.250000	9764.055000	-30940.605000	-4.761818	-5.264387	-6.609695	-7.038791	-4.892536	16.638436	0.872743	-2.752075	-2.701020	2.823100	-1.892240	-0.837583	-0.073852	0.523497	-1.000000	-1.000000	-1.000000	-1.000000	-1.000000	-1.000000	-1.000000	62.000000	0.000000	-1.000000	-1.000000	304578.000000	1775765483.008343
653.715000	-14496.255000	22980.825000	25135.155000	32467.185000	8541.630000	9759.870000	-30937.950000	-0.828854	-4.729221	-5.930835	-6.122009	-3.692599	6.615855	2.719275	0.689842	-1.419180	2.701020	-1.388660	-0.835386	-0.078247	0.524901	-1.000000	-1.000000	-1.000000	-1.000000	-1.000000	-1.000000	-1.000000	62.000000	0.000000	-1.000000	-1.000000	304579.000000	1775765483.008968
659.385000	-14492.295000	22984.110000	25136.235000	32465.610000	8542.530000	9753.705000	-30934.800000	3.299043	-2.134481	-1.952376	-1.787217	0.077526	-4.904654	4.049117	3.083527	-1.419180	2.701020	-1.388660	-0.835386	-0.078247	0.524901	-1.000000	-1.000000	-1.000000	-1.000000	-1.000000	-1.000000	-1.000000	62.000000	0.000000	-1.000000	-1.000000	304580.000000	1775765483.008984
659.565000	-14491.485000	22984.695000	25135.650000	32464.350000	8571.015000	9752.220000	-30935.610000	6.554799	1.663341	2.967423	3.117051	3.425515	-12.087931	3.351212	4.608012	-1.419180	2.701020	-1.388660	-0.835386	-0.078247	0.524901	-1.000000	-1.000000	-1.000000	-1.000000	-1.000000	-1.000000	-1.000000	62.000000	0.000000	-1.000000	-1.000000	304581.000000	1775765483.013807
651.780000	-14497.605000	22978.485000	25128.675000	32458.320000	8569.845000	9752.670000	-30940.875000	7.467670	4.601011	5.807331	5.535917	4.125917	-10.372024	0.779220	5.047109	-1.419180	2.701020	-1.388660	-0.835386	-0.078247	0.524901	-1.000000	-1.000000	-1.000000	-1.000000	-1.000000	-1.000000	-1.000000	62.000000	0.000000	-1.000000	-1.000000	304582.000000	1775765483.013830
650.070000	-14499.315000	22976.370000	25126.785000	32454.045000	8553.555000	9754.695000	-30939.930000	5.134865	4.844950	4.966508	4.296269	2.082424	-1.961679	-1.830802	3.952845	-1.419180	2.701020	-1.388660	-0.835386	-0.078247	0.524901	-1.000000	-1.000000	-1.000000	-1.000000	-1.000000	-1.000000	-1.000000	62.000000	0.000000	-1.000000	-1.000000	304583.000000	1775765483.017188
643.005000	-14506.920000	22970.970000	25127.145000	32463.270000	8557.965000	9749.565000	-30943.935000	0.504326	2.351698	1.284369	0.743813	-0.923214	5.564128	-2.952925	1.669949	-1.419180	2.701020	-1.388660	-0.835386	-0.078247	0.524901	-1.000000	-1.000000	-1.000000	-1.000000	-1.000000	-1.000000	-1.000000	62.000000	0.000000	-1.000000	-1.000000	304584.000000	1775765483.017207
643.635000	-14504.580000	22973.760000	25132.635000	32473.215000	8580.060000	9749.520000	-30943.800000	-4.012364	-1.160876	-2.725101	-2.369680	-2.281092	7.826513	-2.571211	-0.723938	-1.419180	2.701020	-1.388660	-0.835386	-0.078247	0.524901	-1.000000	-1.000000	-1.000000	-1.000000	-1.000000	-1.000000	-1.000000	62.000000	0.000000	-1.000000	-1.000000	304585.000000	1775765483.021042
643.635000	-14500.755000	22977.540000	25133.265000	32467.185000	8589.105000	9749.790000	-30945.870000	-6.122192	-3.372114	-4.564009	-3.048984	-0.927492	6.600784	-1.462011	-2.242123	-1.419180	2.701020	-1.388660	-0.835386	-0.078247	0.524901	-1.000000	-1.000000	-1.000000	-1.000000	-1.000000	-1.000000	-1.000000	62.000000	0.000000	-1.000000	-1.000000	304586.000000	1775765483.021068
649.890000	-14494.185000	22984.245000	25136.100000	32467.230000	8618.130000	9756.720000	-30940.110000	-4.881189	-2.804716	-3.200134	-1.414949	1.325722	5.077680	-0.068908	-2.373320	-1.419180	2.701020	-1.388660	-0.835386	-0.078247	0.524901	-1.000000	-1.000000	-1.000000	-1.000000	-1.000000	-1.000000	-1.000000	62.000000	0.000000	-1.000000	-1.000000	304587.000000	1775765483.024257
647.685000	-14498.955000	22979.295000	25129.530000	32464.395000	8611.425000	9755.910000	-30940.470000	-1.186774	-0.048316	0.221396	0.768480	2.027361	4.034374	1.441920	-1.173847	-1.419180	2.701020	-1.388660	-0.835386	-0.078247	0.524901	-1.000000	-1.000000	-1.000000	-1.000000	-1.000000	-1.000000	-1.000000	62.000000	0.000000	-1.000000	-1.000000	304588.000000	1775765483.024275
647.595000	-14497.245000	22983.255000	25135.695000	32470.785000	8606.205000	9753.120000	-30940.290000	2.668789	2.607845	3.185227	1.785161	0.792476	1.609033	2.455361	0.563202	-0.305200	2.853620	-1.815940	-0.836729	-0.080078	0.526793	-1.000000	-1.000000	-1.000000	-1.000000	-1.000000	-1.000000	-1.000000	62.000000	0.000000	-1.000000	-1.000000	304589.000000	1775765483.030031
653.400000	-14488.470000	22993.920000	25143.615000	32466.195000	8540.955000	9745.470000	-30934.890000	4.655719	3.467454	4.139590	1.542068	-0.979609	-4.942844	2.020869	1.773097	-0.305200	2.853620	-1.815940	-0.836729	-0.080078	0.526793	-1.000000	-1.000000	-1.000000	-1.000000	-1.000000	-1.000000	-1.000000	62.000000	0.000000	-1.000000	-1.000000	304590.000000	1775765483.030049
650.745000	-14491.125000	22992.210000	25141.005000	32459.715000	8527.545000	9741.330000	-30937.545000	4.349503	2.700299	3.445993	1.061175	-2.196794	-15.808281	-0.071256	1.958982	-0.305200	2.853620	-1.815940	-0.836729	-0.080078	0.526793	-1.000000	-1.000000	-1.000000	-1.000000	-1.000000	-1.000000	-1.000000	62.000000	0.000000	-1.000000	-1.000000	304591.000000	1775765483.032495
642.285000	-14499.810000	22978.035000	25136.910000	32457.645000	8540.370000	9743.940000	-30943.665000	2.258959	0.904035	1.539724	0.541074	-2.820909	-24.844250	-2.590990	1.027995	-0.305200	2.853620	-1.815940	-0.836729	-0.080078	0.526793	-1.000000	-1.000000	-1.000000	-1.000000	-1.000000	-1.000000	-1.000000	62.000000	0.000000	-1.000000	-1.000000	304592.000000	1775765483.032511
634.905000	-14509.530000	22969.260000	25131.555000	32449.995000	8580.825000	9753.660000	-30950.730000	-1.033337	-1.851440	-1.842240	-0.665376	-2.945182	-22.192077	-3.459362	-0.985773	-0.305200	2.853620	-1.815940	-0.836729	-0.080078	0.526793	-1.000000	-1.000000	-1.000000	-1.000000	-1.000000	-1.000000	-1.000000	62.000000	0.000000	-1.000000	-1.000000	304593.000000	1775765483.036970
644.490000	-14503.005000	22975.605000	25134.210000	32448.510000	8603.505000	9753.885000	-30942.135000	-4.164904	-4.744849	-5.663237	-2.425874	-2.426885	-4.400234	-1.581099	-3.172790	-0.305200	2.853620	-1.815940	-0.836729	-0.080078	0.526793	-1.000000	-1.000000	-1.000000	-1.000000	-1.000000	-1.000000	-1.000000	62.000000	0.000000	-1.000000	-1.000000	304594.000000	1775765483.036993
651.555000	-14497.380000	22980.105000	25135.830000	32453.460000	8615.700000	9751.320000	-30935.025000	-4.883305	-5.634090	-7.078662	-3.442743	-1.017012	19.882366	1.704406	-3.632793	-0.305200	2.853620	-1.815940	-0.836729	-0.080078	0.526793	-1.000000	-1.000000	-1.000000	-1.000000	-1.000000	-1.000000	-1.000000	62.000000	0.000000	-1.000000	-1.000000	304595.000000	1775765483.046189
635.310000	-14511.015000	22967.280000	25120.125000	32451.570000	8601.750000	9746.010000	-30948.435000	-2.557643	-3.442459	-4.636185	-2.937805	1.352715	35.729564	3.678060	-1.665493	-0.305200	2.853620	-1.815940	-0.836729	-0.080078	0.526793	-1.000000	-1.000000	-1.000000	-1.000000	-1.000000	-1.000000	-1.000000	62.000000	0.000000	-1.000000	-1.000000	304596.000000	1775765483.046214
628.560000	-14516.145000	22964.355000	25116.435000	32453.730000	8576.685000	9746.370000	-30954.420000	0.298373	-0.064040	-0.365149	-1.812479	3.892574	32.873039	2.880175	0.705726	-0.305200	2.853620	-1.815940	-0.836729	-0.080078	0.526793	-1.000000	-1.000000	-1.000000	-1.000000	-1.000000	-1.000000	-1.000000	62.000000	0.000000	-1.000000	-1.000000	304597.000000	1775765483.046241
634.545000	-14512.590000	22967.460000	25120.620000	32450.220000	8576.685000	9750.555000	-30949.470000	1.271407	2.087546	2.921073	-0.883926	5.233322	12.928326	0.350379	1.392614	-0.305200	2.853620	-1.815940	-0.836729	-0.080078	0.526793	-1.000000	-1.000000	-1.000000	-1.000000	-1.000000	-1.000000	-1.000000	62.000000	0.000000	-1.000000	-1.000000	304598.000000	1775765483.046253
645.120000	-14505.255000	22975.380000	25128.045000	32452.695000	8564.400000	9748.980000	-30940.695000	1.169815	2.962660	4.611455	0.573362	4.595015	-11.932230	-1.728511	1.051020	-0.091560	3.036740	-1.526000	-0.837217	-0.080810	0.527281	-1.000000	-1.000000	-1.000000	-1.000000	-1.000000	-1.000000	-1.000000	62.000000	0.000000	-1.000000	-1.000000	304599.000000	1775765483.048306
645.660000	-14505.705000	22977.225000	25133.265000	32461.560000	8570.745000	9748.710000	-30938.580000	1.955243	3.698218	5.460128	3.230344	2.568197	-28.080381	-2.232212	1.462714	-0.091560	3.036740	-1.526000	-0.837217	-0.080810	0.527281	-1.000000	-1.000000	-1.000000	-1.000000	-1.000000	-1.000000	-1.000000	62.000000	0.000000	-1.000000	-1.000000	304600.000000	1775765483.048321
650.835000	-14499.225000	22981.680000	25132.230000	32454.450000	8564.760000	9746.010000	-30939.795000	3.574727	4.390958	5.614684	6.004084	0.448697	-29.073281	-1.597047	2.670854	-0.091560	3.036740	-1.526000	-0.837217	-0.080810	0.527281	-1.000000	-1.000000	-1.000000	-1.000000	-1.000000	-1.000000	-1.000000	62.000000	0.000000	-1.000000	-1.000000	304601.000000	1775765483.052413
644.130000	-14502.870000	22976.685000	25122.870000	32440.005000	8565.255000	9742.995000	-30954.240000	4.256284	4.200432	4.452438	6.627208	-1.555587	-17.561607	-0.789253	2.882130	-0.091560	3.036740	-1.526000	-0.837217	-0.080810	0.527281	-1.000000	-1.000000	-1.000000	-1.000000	-1.000000	-1.000000	-1.000000	62.000000	0.000000	-1.000000	-1.000000	304602.000000	1775765483.052435
631.080000	-14510.520000	22971.735000	25123.770000	32452.335000	8567.010000	9746.235000	-30967.290000	2.412228	2.336504	1.514422	3.828650	-3.768567	-1.450356	-0.304196	0.491406	-0.091560	3.036740	-1.526000	-0.837217	-0.080810	0.527281	-1.000000	-1.000000	-1.000000	-1.000000	-1.000000	-1.000000	-1.000000	62.000000	0.000000	-1.000000	-1.000000	304603.000000	1775765483.063454
630.855000	-14509.440000	22975.605000	25134.075000	32471.460000	8553.285000	9753.210000	-30958.290000	-1.841773	-1.100956	-2.495802	-0.817680	-4.620125	11.405464	0.219673	-3.615651	-0.091560	3.036740	-1.526000	-0.837217	-0.080810	0.527281	-1.000000	-1.000000	-1.000000	-1.000000	-1.000000	-1.000000	-1.000000	62.000000	0.000000	-1.000000	-1.000000	304604.000000	1775765483.063481
636.570000	-14508.495000	22975.020000	25128.045000	32458.770000	8590.230000	9756.045000	-30946.095000	-5.942622	-4.495150	-5.604775	-4.182619	-2.412868	17.126692	1.310317	-5.831206	-0.091560	3.036740	-1.526000	-0.837217	-0.080810	0.527281	-1.000000	-1.000000	-1.000000	-1.000000	-1.000000	-1.000000	-1.000000	62.000000	0.000000	-1.000000	-1.000000	304605.000000	1775765483.063508
645.930000	-14505.300000	22977.315000	25124.355000	32448.465000	8605.080000	9747.180000	-30935.340000	-6.602519	-5.758281	-6.156603	-4.965915	0.858018	17.222317	2.401746	-3.293875	-0.091560	3.036740	-1.526000	-0.837217	-0.080810	0.527281	-1.000000	-1.000000	-1.000000	-1.000000	-1.000000	-1.000000	-1.000000	62.000000	0.000000	-1.000000	-1.000000	304606.000000	1775765483.063520
643.995000	-14504.040000	22979.205000	25130.430000	32455.575000	8586.000000	9742.995000	-30936.690000	-3.059775	-4.211705	-4.160102	-4.032070	1.817561	14.250334	2.033865	2.622268	-0.091560	3.036740	-1.526000	-0.837217	-0.080810	0.527281	-1.000000	-1.000000	-1.000000	-1.000000	-1.000000	-1.000000	-1.000000	62.000000	0.000000	-1.000000	-1.000000	304607.000000	1775765483.065190
639.540000	-14506.470000	22977.000000	25130.205000	32458.995000	8588.430000	9746.415000	-30941.280000	1.939410	-1.069275	-0.992915	-2.238504	0.492391	7.752999	-0.094124	7.281534	-0.091560	3.036740	-1.526000	-0.837217	-0.080810	0.527281	-1.000000	-1.000000	-1.000000	-1.000000	-1.000000	-1.000000	-1.000000	62.000000	0.000000	-1.000000	-1.000000	304608.000000	1775765483.065207
639.090000	-14508.675000	22973.445000	25123.590000	32452.695000	8584.020000	9751.815000	-30943.710000	4.774384	1.614517	1.540147	-0.250094	-0.828718	-2.049710	-2.214757	7.045390	-0.244160	3.616620	-1.083460	-0.835508	-0.080627	0.526427	-1.000000	-1.000000	-1.000000	-1.000000	-1.000000	-1.000000	-1.000000	62.000000	0.000000	-1.000000	-1.000000	304609.000000	1775765483.077322
642.510000	-14507.640000	22972.680000	25119.495000	32443.470000	8578.305000	9750.195000	-30942.540000	4.245258	2.552703	2.317886	0.873199	-1.326410	-11.482076	-2.491721	2.301910	-0.244160	3.616620	-1.083460	-0.835508	-0.080627	0.526427	-1.000000	-1.000000	-1.000000	-1.000000	-1.000000	-1.000000	-1.000000	62.000000	0.000000	-1.000000	-1.000000	304610.000000	1775765483.077345
643.905000	-14505.435000	22976.100000	25122.690000	32444.865000	8576.055000	9748.710000	-30940.830000	1.867956	2.016020	1.670776	0.749380	-1.578721	-16.498564	-1.085619	-3.414898	-0.244160	3.616620	-1.083460	-0.835508	-0.080627	0.526427	-1.000000	-1.000000	-1.000000	-1.000000	-1.000000	-1.000000	-1.000000	62.000000	0.000000	-1.000000	-1.000000	304611.000000	1775765483.077371
644.535000	-14500.980000	22979.970000	25127.145000	32449.365000	8577.135000	9749.205000	-30938.850000	-0.337796	1.157845	0.895883	0.384504	-1.439212	-15.368794	0.483664	-6.626515	-0.244160	3.616620	-1.083460	-0.835508	-0.080627	0.526427	-1.000000	-1.000000	-1.000000	-1.000000	-1.000000	-1.000000	-1.000000	62.000000	0.000000	-1.000000	-1.000000	304612.000000	1775765483.077384
645.255000	-14496.345000	22985.010000	25132.905000	32454.270000	8568.945000	9753.120000	-30939.525000	-1.458142	0.861337	0.948109	0.954369	-0.083172	-9.184793	1.248518	-6.194100	-0.244160	3.616620	-1.083460	-0.835508	-0.080627	0.526427	-1.000000	-1.000000	-1.000000	-1.000000	-1.000000	-1.000000	-1.000000	62.000000	0.000000	-1.000000	-1.000000	304613.000000	1775765483.077391
646.515000	-14494.455000	22992.705000	25141.725000	32465.475000	8566.695000	9752.580000	-30941.505000	-1.594128	1.136517	1.776750	2.517021	2.516330	-1.210989	1.303938	-3.361133	-0.244160	3.616620	-1.083460	-0.835508	-0.080627	0.526427	-1.000000	-1.000000	-1.000000	-1.000000	-1.000000	-1.000000	-1.000000	62.000000	0.000000	-1.000000	-1.000000	304614.000000	1775765483.077397
643.995000	-14497.920000	22988.970000	25138.035000	32464.890000	8569.710000	9749.610000	-30944.070000	-1.245488	1.205428	2.511559	3.945870	5.140190	5.316807	0.912949	-0.274470	-0.244160	3.616620	-1.083460	-0.835508	-0.080627	0.526427	-1.000000	-1.000000	-1.000000	-1.000000	-1.000000	-1.000000	-1.000000	62.000000	0.000000	-1.000000	-1.000000	304615.000000	1775765483.084363
637.245000	-14507.010000	22979.610000	25128.405000	32459.805000	8581.545000	9752.535000	-30948.255000	-1.042721	0.120019	1.826737	3.505645	5.830957	9.187986	0.150763	1.540964	-0.244160	3.616620	-1.083460	-0.835508	-0.080627	0.526427	-1.000000	-1.000000	-1.000000	-1.000000	-1.000000	-1.000000	-1.000000	62.000000	0.000000	-1.000000	-1.000000	304616.000000	1775765483.084392
637.830000	-14506.425000	22979.475000	25124.580000	32450.085000	8579.385000	9753.210000	-30948.255000	-1.333631	-2.183679	-0.876705	0.317747	3.183746	10.650156	-0.617060	1.824638	-0.244160	3.616620	-1.083460	-0.835508	-0.080627	0.526427	-1.000000	-1.000000	-1.000000	-1.000000	-1.000000	-1.000000	-1.000000	62.000000	0.000000	-1.000000	-1.000000	304617.000000	1775765483.085446
634.680000	-14511.555000	22972.770000	25114.995000	32435.910000	8570.520000	9749.025000	-30951.045000	-1.693996	-4.372040	-4.300853	-4.292201	-2.259019	9.496091	-0.982736	1.300506	-0.244160	3.616620	-1.083460	-0.835508	-0.080627	0.526427	-1.000000	-1.000000	-1.000000	-1.000000	-1.000000	-1.000000	-1.000000	62.000000	0.000000	-1.000000	-1.000000	304618.000000	1775765483.085465
636.975000	-14509.080000	22975.470000	25120.170000	32444.010000	8563.680000	9744.255000	-30950.235000	-1.362311	-4.803036	-6.204502	-7.544196	-7.738925	5.190388	-1.131084	0.845554	-0.701960	3.845520	-0.976640	-0.836851	-0.080810	0.526000	-1.000000	-1.000000	-1.000000	-1.000000	-1.000000	-1.000000	-1.000000	62.000000	0.000000	-1.000000	-1.000000	304619.000000	1775765483.092335
642.780000	-14499.765000	22986.225000	25131.645000	32454.495000	8556.930000	9738.630000	-30947.535000	0.028290	-2.748961	-5.034237	-6.964863	-9.411683	-1.224579	-1.467717	0.933081	-0.701960	3.845520	-0.976640	-0.836851	-0.080810	0.526000	-1.000000	-1.000000	-1.000000	-1.000000	-1.000000	-1.000000	-1.000000	62.000000	0.000000	-1.000000	-1.000000	304620.000000	1775765483.092361
646.155000	-14495.940000	22989.735000	25135.380000	32458.095000	8563.860000	9742.005000	-30946.230000	2.202575	1.271489	-0.809247	-2.112340	-5.378282	-6.751210	-1.786372	1.556882	-0.701960	3.845520	-0.976640	-0.836851	-0.080810	0.526000	-1.000000	-1.000000	-1.000000	-1.000000	-1.000000	-1.000000	-1.000000	62.000000	0.000000	-1.000000	-1.000000	304621.000000	1775765483.093897
639.450000	-14503.050000	22981.905000	25127.505000	32450.985000	8564.220000	9748.485000	-30948.975000	3.999533	5.208981	4.193698	4.228585	1.804817	-8.377451	-1.175673	2.158202	-0.701960	3.845520	-0.976640	-0.836851	-0.080810	0.526000	-1.000000	-1.000000	-1.000000	-1.000000	-1.000000	-1.000000	-1.000000	62.000000	0.000000	-1.000000	-1.000000	304622.000000	1775765483.093923
634.635000	-14507.550000	22975.065000	25121.880000	32448.645000	8566.065000	9754.470000	-30947.220000	3.828764	6.361105	6.515969	7.699429	7.090285	-5.535978	0.956260	1.985805	-0.701960	3.845520	-0.976640	-0.836851	-0.080810	0.526000	-1.000000	-1.000000	-1.000000	-1.000000	-1.000000	-1.000000	-1.000000	62.000000	0.000000	-1.000000	-1.000000	304623.000000	1775765483.099293
625.185000	-14518.035000	22966.380000	25116.660000	32450.220000	8579.025000	9755.190000	-30959.010000	1.168757	3.668099	4.494506	6.158994	7.562852	-0.279940	3.754771	0.708089	-0.701960	3.845520	-0.976640	-0.836851	-0.080810	0.526000	-1.000000	-1.000000	-1.000000	-1.000000	-1.000000	-1.000000	-1.000000	62.000000	0.000000	-1.000000	-1.000000	304624.000000	1775765483.099320
632.970000	-14508.000000	22979.295000	25128.405000	32456.475000	8581.185000	9751.320000	-30959.820000	-2.475673	-1.046026	-0.002193	1.518443	4.392971	4.716095	5.224265	-1.434758	-0.701960	3.845520	-0.976640	-0.836851	-0.080810	0.526000	-1.000000	-1.000000	-1.000000	-1.000000	-1.000000	-1.000000	-1.000000	62.000000	0.000000	-1.000000	-1.000000	304625.000000	1775765483.104109
637.875000	-14504.085000	22983.705000	25131.780000	32456.610000	8572.905000	9746.595000	-30955.410000	-4.364672	-4.247196	-3.056236	-2.200310	0.667839	7.083640	3.866308	-3.328469	-0.701960	3.845520	-0.976640	-0.836851	-0.080810	0.526000	-1.000000	-1.000000	-1.000000	-1.000000	-1.000000	-1.000000	-1.000000	62.000000	0.000000	-1.000000	-1.000000	304626.000000	1775765483.104136
644.220000	-14499.765000	22986.360000	25133.400000	32456.385000	8557.020000	9746.280000	-30950.685000	-2.871427	-3.721130	-2.446567	-2.687880	-1.660337	5.077699	0.128279	-3.335613	-0.701960	3.845520	-0.976640	-0.836851	-0.080810	0.526000	-1.000000	-1.000000	-1.000000	-1.000000	-1.000000	-1.000000	-1.000000	62.000000	0.000000	-1.000000	-1.000000	304627.000000	1775765483.105950
643.905000	-14500.440000	22984.470000	25128.270000	32446.890000	8534.925000	9741.555000	-30955.545000	0.860798	-0.505419	0.412564	-1.037565	-2.688783	-1.128454	-3.843889	-1.146734	-0.701960	3.845520	-0.976640	-0.836851	-0.080810	0.526000	-1.000000	-1.000000	-1.000000	-1.000000	-1.000000	-1.000000	-1.000000	62.000000	0.000000	-1.000000	-1.000000	304628.000000	1775765483.105975
634.320000	-14510.430000	22974.120000	25116.975000	32439.375000	8526.330000	9737.190000	-30965.895000	3.801860	2.344284	2.365799	0.059791	-3.458368	-8.640678	-6.010609	1.344888	-1.281840	4.211760	-0.259420	-0.836485	-0.079895	0.524962	-1.000000	-1.000000	-1.000000	-1.000000	-1.000000	-1.000000	-1.000000	62.000000	0.000000	-1.000000	-1.000000	304629.000000	1775765483.121845
630.180000	-14507.505000	22979.160000	25127.730000	32460.930000	8558.190000	9749.160000	-30965.445000	3.513062	2.538504	1.612250	-0.680525	-3.892811	-12.276209	-5.447043	1.996772	-1.281840	4.211760	-0.259420	-0.836485	-0.079895	0.524962	-1.000000	-1.000000	-1.000000	-1.000000	-1.000000	-1.000000	-1.000000	62.000000	0.000000	-1.000000	-1.000000	304630.000000	1775765483.121868
628.380000	-14503.725000	22984.155000	25134.165000	32471.730000	8620.965000	9760.995000	-30959.730000	0.265700	0.550111	-0.709905	-1.757275	-2.211580	-6.670149	-1.996309	0.938752	-1.281840	4.211760	-0.259420	-0.836485	-0.079895	0.524962	-1.000000	-1.000000	-1.000000	-1.000000	-1.000000	-1.000000	-1.000000	62.000000	0.000000	-1.000000	-1.000000	304631.000000	1775765483.121893
628.920000	-14503.545000	22984.695000	25131.555000	32466.285000	8616.195000	9766.125000	-30951.675000	-3.275256	-1.328758	-2.120293	-1.207349	1.910424	7.899956	3.257132	0.205060	-1.281840	4.211760	-0.259420	-0.836485	-0.079895	0.524962	-1.000000	-1.000000	-1.000000	-1.000000	-1.000000	-1.000000	-1.000000	62.000000	0.000000	-1.000000	-1.000000	304632.000000	1775765483.121903
644.985000	-14494.365000	22994.010000	25139.610000	32472.135000	8588.610000	9767.250000	-30936.555000	-4.272687	-1.555166	-1.526250	0.702017	5.502436	21.105297	7.498022	1.283832	-1.281840	4.211760	-0.259420	-0.836485	-0.079895	0.524962	-1.000000	-1.000000	-1.000000	-1.000000	-1.000000	-1.000000	-1.000000	62.000000	0.000000	-1.000000	-1.000000	304633.000000	1775765483.121913
644.670000	-14494.500000	22994.460000	25138.890000	32467.320000	8573.355000	9746.280000	-30941.595000	-1.731848	-0.222729	0.375811	2.406902	5.630954	20.466671	7.578234	3.529899	-1.281840	4.211760	-0.259420	-0.836485	-0.079895	0.524962	-1.000000	-1.000000	-1.000000	-1.000000	-1.000000	-1.000000	-1.000000	62.000000	0.000000	-1.000000	-1.000000	304634.000000	1775765483.121921
635.985000	-14504.670000	22983.390000	25126.470000	32455.305000	8576.820000	9743.355000	-30952.260000	2.290349	1.197543	1.833357	2.535472	2.028790	4.996677	2.451201	4.301497	-1.281840	4.211760	-0.259420	-0.836485	-0.079895	0.524962	-1.000000	-1.000000	-1.000000	-1.000000	-1.000000	-1.000000	-1.000000	62.000000	0.000000	-1.000000	-1.000000	304635.000000	1775765483.121930
632.160000	-14505.795000	22983.750000	25127.460000	32458.815000	8602.920000	9739.845000	-30957.885000	4.167759	0.941975	1.192715	0.475252	-3.373376	-13.418095	-5.100297	1.423578	-1.281840	4.211760	-0.259420	-0.836485	-0.079895	0.524962	-1.000000	-1.000000	-1.000000	-1.000000	-1.000000	-1.000000	-1.000000	62.000000	0.000000	-1.000000	-1.000000	304636.000000	1775765483.121938
642.060000	-14495.805000	22994.505000	25136.055000	32464.485000	8615.925000	9735.930000	-30951.855000	2.644354	-0.822014	-1.016134	-2.420134	-7.252603	-21.566539	-10.178452	-3.836518	-1.281840	4.211760	-0.259420	-0.836485	-0.079895	0.524962	-1.000000	-1.000000	-1.000000	-1.000000	-1.000000	-1.000000	-1.000000	62.000000	0.000000	-1.000000	-1.000000	304637.000000	1775765483.126336
643.095000	-14494.680000	22995.495000	25137.000000	32463.000000	8590.815000	9734.580000	-30950.820000	-0.089356	-1.951648	-2.340145	-3.548911	-6.997789	-16.478758	-9.887038	-7.551580	-1.281840	4.211760	-0.259420	-0.836485	-0.079895	0.524962	-1.000000	-1.000000	-1.000000	-1.000000	-1.000000	-1.000000	-1.000000	62.000000	0.000000	-1.000000	-1.000000	304638.000000	1775765483.126361
637.515000	-14501.565000	22989.420000	25132.005000	32454.720000	8544.960000	9743.535000	-30951.585000	-1.714584	-1.347140	-1.666659	-2.125993	-3.264599	-6.675981	-4.765291	-7.122974	-1.968540	3.692920	0.015260	-0.838255	-0.080810	0.523558	-1.000000	-1.000000	-1.000000	-1.000000	-1.000000	-1.000000	-1.000000	62.000000	0.000000	-1.000000	-1.000000	304639.000000	1775765483.130556
635.220000	-14498.910000	22995.270000	25142.130000	32475.330000	8598.960000	9751.410000	-30953.340000	-2.132525	-0.125299	-0.216909	0.313799	1.265291	-0.778496	2.684479	-3.386938	-1.968540	3.692920	0.015260	-0.838255	-0.080810	0.523558	-1.000000	-1.000000	-1.000000	-1.000000	-1.000000	-1.000000	-1.000000	62.000000	0.000000	-1.000000	-1.000000	304640.000000	1775765483.130578
641.160000	-14490.180000	23003.955000	25148.520000	32481.585000	8613.090000	9748.485000	-30948.660000	-2.027870	0.685982	0.927682	2.394159	5.096748	2.597645	9.171355	1.052633	-1.968540	3.692920	0.015260	-0.838255	-0.080810	0.523558	-1.000000	-1.000000	-1.000000	-1.000000	-1.000000	-1.000000	-1.000000	62.000000	0.000000	-1.000000	-1.000000	304641.000000	1775765483.133829
638.010000	-14497.920000	22989.780000	25130.835000	32460.435000	8564.085000	9746.775000	-30946.095000	-1.402268	1.179763	1.560144	3.325604	7.201086	7.194710	11.537058	4.256611	-1.968540	3.692920	0.015260	-0.838255	-0.080810	0.523558	-1.000000	-1.000000	-1.000000	-1.000000	-1.000000	-1.000000	-1.000000	62.000000	0.000000	-1.000000	-1.000000	304642.000000	1775765483.133856
629.955000	-14506.965000	22983.615000	25128.180000	32463.810000	8567.370000	9746.865000	-30953.385000	-0.463489	1.035374	0.962427	1.999088	5.717250	9.577805	8.670045	5.371591	-1.968540	3.692920	0.015260	-0.838255	-0.080810	0.523558	-1.000000	-1.000000	-1.000000	-1.000000	-1.000000	-1.000000	-1.000000	62.000000	0.000000	-1.000000	-1.000000	304643.000000	1775765483.148232
616.545000	-14520.330000	22971.870000	25115.445000	32446.485000	8563.860000	9746.640000	-30966.570000	-0.234123	-0.560954	-1.344838	-1.544651	0.623658	6.381838	2.495602	3.908080	-1.968540	3.692920	0.015260	-0.838255	-0.080810	0.523558	-1.000000	-1.000000	-1.000000	-1.000000	-1.000000	-1.000000	-1.000000	62.000000	0.000000	-1.000000	-1.000000	304644.000000	1775765483.148257
616.995000	-14520.240000	22973.445000	25117.605000	32449.095000	8563.635000	9749.295000	-30965.580000	-1.167995	-3.139029	-4.045091	-5.122137	-5.177660	0.796123	-3.561619	0.282638	-1.968540	3.692920	0.015260	-0.838255	-0.080810	0.523558	-1.000000	-1.000000	-1.000000	-1.000000	-1.000000	-1.000000	-1.000000	62.000000	0.000000	-1.000000	-1.000000	304645.000000	1775765483.148285
626.760000	-14510.790000	22982.310000	25126.245000	32462.145000	8583.660000	9756.945000	-30957.390000	-1.833560	-4.400490	-4.631826	-5.896418	-7.916932	-2.187653	-6.739037	-3.142846	-1.968540	3.692920	0.015260	-0.838255	-0.080810	0.523558	-1.000000	-1.000000	-1.000000	-1.000000	-1.000000	-1.000000	-1.000000	62.000000	0.000000	-1.000000	-1.000000	304646.000000	1775765483.148296
632.835000	-14505.705000	22986.315000	25128.900000	32466.375000	8591.580000	9758.520000	-30952.125000	-0.222365	-2.220960	-1.610907	-2.572139	-5.352811	-0.391190	-6.184179	-3.549358	-1.968540	3.692920	0.015260	-0.838255	-0.080810	0.523558	-1.000000	-1.000000	-1.000000	-1.000000	-1.000000	-1.000000	-1.000000	62.000000	0.000000	-1.000000	-1.000000	304647.000000	1775765483.149901
633.915000	-14503.005000	22989.195000	25132.455000	32465.475000	8560.170000	9750.510000	-30954.195000	3.483628	2.735331	3.667680	3.146193	0.943338	3.686530	-3.381003	-0.684664	-1.968540	3.692920	0.015260	-0.838255	-0.080810	0.523558	-1.000000	-1.000000	-1.000000	-1.000000	-1.000000	-1.000000	-1.000000	62.000000	0.000000	-1.000000	-1.000000	304648.000000	1775765483.149919
629.640000	-14508.765000	22984.020000	25130.610000	32462.055000	8542.440000	9738.045000	-30959.460000	6.551126	7.117288	7.753840	7.674790	6.436342	4.311858	-1.165312	2.726935	-1.480220	2.411080	0.274680	-0.841367	-0.080322	0.521788	-1.000000	-1.000000	-1.000000	-1.000000	-1.000000	-1.000000	-1.000000	62.000000	0.000000	-1.000000	-1.000000	304649.000000	1775765483.149941
628.155000	-14508.405000	22981.905000	25130.070000	32460.255000	8564.580000	9740.520000	-30956.940000	6.333164	7.790368	7.862967	8.338631	7.599973	-0.424786	-1.124152	3.868105	-1.480220	2.411080	0.274680	-0.841367	-0.080322	0.521788	-1.000000	-1.000000	-1.000000	-1.000000	-1.000000	-1.000000	-1.000000	62.000000	0.000000	-1.000000	-1.000000	304650.000000	1775765483.149953
634.860000	-14498.055000	22994.775000	25143.075000	32473.080000	8575.110000	9749.610000	-30951.585000	2.849261	4.638335	4.231656	5.280337	4.650625	-5.255610	-1.859044	2.492830	-1.480220	2.411080	0.274680	-0.841367	-0.080322	0.521788	-1.000000	-1.000000	-1.000000	-1.000000	-1.000000	-1.000000	-1.000000	62.000000	0.000000	-1.000000	-1.000000	304651.000000	1775765483.154205
637.290000	-14496.030000	22999.995000	25142.895000	32476.770000	8547.255000	9746.460000	-30952.665000	-1.380259	0.350768	-0.126025	1.005779	0.691817	-5.323218	-0.967576	0.352123	-1.480220	2.411080	0.274680	-0.841367	-0.080322	0.521788	-1.000000	-1.000000	-1.000000	-1.000000	-1.000000	-1.000000	-1.000000	62.000000	0.000000	-1.000000	-1.000000	304652.000000	1775765483.154229
631.125000	-14502.960000	22991.310000	25124.580000	32467.905000	8567.505000	9749.205000	-30958.695000	-4.064784	-2.763423	-2.781131	-2.636967	-1.891857	-2.094208	1.699533	-1.295509	-1.480220	2.411080	0.274680	-0.841367	-0.080322	0.521788	-1.000000	-1.000000	-1.000000	-1.000000	-1.000000	-1.000000	-1.000000	62.000000	0.000000	-1.000000	-1.000000	304653.000000	1775765483.163379
620.280000	-14516.730000	22978.935000	25111.845000	32453.640000	8630.820000	9754.875000	-30968.235000	-5.100249	-4.758238	-4.204431	-5.983478	-3.548435	2.408527	4.330988	-2.596197	-1.480220	2.411080	0.274680	-0.841367	-0.080322	0.521788	-1.000000	-1.000000	-1.000000	-1.000000	-1.000000	-1.000000	-1.000000	62.000000	0.000000	-1.000000	-1.000000	304654.000000	1775765483.163402
622.845000	-14516.145000	22979.205000	25112.565000	32452.110000	8601.210000	9760.095000	-30964.365000	-5.359895	-6.393123	-5.683134	-8.977973	-5.433954	8.253733	5.539192	-3.739978	-1.480220	2.411080	0.274680	-0.841367	-0.080322	0.521788	-1.000000	-1.000000	-1.000000	-1.000000	-1.000000	-1.000000	-1.000000	62.000000	0.000000	-1.000000	-1.000000	304655.000000	1775765483.163785
626.445000	-14511.645000	22984.920000	25116.345000	32454.135000	8594.055000	9756.000000	-30961.395000	-4.630488	-6.864565	-6.484734	-9.437995	-6.691616	11.437410	4.887703	-3.808728	-1.480220	2.411080	0.274680	-0.841367	-0.080322	0.521788	-1.000000	-1.000000	-1.000000	-1.000000	-1.000000	-1.000000	-1.000000	62.000000	0.000000	-1.000000	-1.000000	304656.000000	1775765483.163805
631.755000	-14504.715000	22990.545000	25125.840000	32459.580000	8595.000000	9752.175000	-30959.325000	-2.086279	-4.568828	-4.735958	-5.434697	-5.308488	6.688534	2.316789	-1.879489	-1.480220	2.411080	0.274680	-0.841367	-0.080322	0.521788	-1.000000	-1.000000	-1.000000	-1.000000	-1.000000	-1.000000	-1.000000	62.000000	0.000000	-1.000000	-1.000000	304657.000000	1775765483.164633
632.745000	-14501.925000	22990.005000	25132.455000	32464.530000	8587.440000	9751.320000	-30958.875000	1.831798	0.376419	-0.345471	2.047628	-0.838484	-4.092771	-1.515828	1.361416	-1.480220	2.411080	0.274680	-0.841367	-0.080322	0.521788	-1.000000	-1.000000	-1.000000	-1.000000	-1.000000	-1.000000	-1.000000	62.000000	0.000000	-1.000000	-1.000000	304658.000000	1775765483.164647
629.820000	-14503.905000	22991.895000	25134.795000	32469.165000	8576.775000	9751.770000	-30960.990000	5.144068	5.486325	4.351815	9.362399	4.770113	-14.064682	-4.899875	4.003713	-0.976640	2.380560	-0.396760	-0.840574	-0.081421	0.520079	-1.000000	-1.000000	-1.000000	-1.000000	-1.000000	-1.000000	-1.000000	62.000000	0.000000	-1.000000	-1.000000	304659.000000	1775765483.168345
623.340000	-14513.085000	22983.210000	25126.695000	32466.285000	8581.680000	9755.145000	-30965.490000	5.801306	7.656713	6.599175	12.458448	8.539773	-17.960860	-6.047069	4.466133	-0.976640	2.380560	-0.396760	-0.840574	-0.081421	0.520079	-1.000000	-1.000000	-1.000000	-1.000000	-1.000000	-1.000000	-1.000000	62.000000	0.000000	-1.000000	-1.000000	304660.000000	1775765483.168370
626.085000	-14510.790000	22986.135000	25126.965000	32466.150000	8597.430000	9761.220000	-30962.160000	3.444900	5.628803	5.307061	9.527179	8.396636	-13.891274	-4.336887	2.661162	-0.976640	2.380560	-0.396760	-0.840574	-0.081421	0.520079	-1.000000	-1.000000	-1.000000	-1.000000	-1.000000	-1.000000	-1.000000	62.000000	0.000000	-1.000000	-1.000000	304661.000000	1775765483.172948
629.595000	-14506.155000	22991.895000	25132.140000	32467.905000	8592.030000	9760.095000	-30958.785000	-0.068874	1.231898	1.890034	2.550709	4.585705	-3.622787	-0.750297	0.108764	-0.976640	2.380560	-0.396760	-0.840574	-0.081421	0.520079	-1.000000	-1.000000	-1.000000	-1.000000	-1.000000	-1.000000	-1.000000	62.000000	0.000000	-1.000000	-1.000000	304662.000000	1775765483.172965
630.720000	-14504.085000	22993.200000	25133.400000	32467.995000	8582.310000	9756.495000	-30959.055000	-2.316844	-2.276261	-1.002068	-4.145214	-0.567558	7.273141	2.537376	-1.456755	-0.976640	2.380560	-0.396760	-0.840574	-0.081421	0.520079	-1.000000	-1.000000	-1.000000	-1.000000	-1.000000	-1.000000	-1.000000	62.000000	0.000000	-1.000000	-1.000000	304663.000000	1775765483.180518
627.390000	-14506.200000	22989.600000	25129.755000	32464.980000	8577.045000	9751.365000	-30963.735000	-2.497734	-3.228152	-2.059422	-7.480565	-4.570325	12.764752	3.542996	-1.701253	-0.976640	2.380560	-0.396760	-0.840574	-0.081421	0.520079	-1.000000	-1.000000	-1.000000	-1.000000	-1.000000	-1.000000	-1.000000	62.000000	0.000000	-1.000000	-1.000000	304664.000000	1775765483.180543
627.795000	-14506.290000	22990.185000	25131.105000	32467.005000	8579.115000	9752.265000	-30963.690000	-1.566261	-2.342395	-1.929179	-7.283521	-6.208371	11.215207	2.038850	-1.473985	-0.976640	2.380560	-0.396760	-0.840574	-0.081421	0.520079	-1.000000	-1.000000	-1.000000	-1.000000	-1.000000	-1.000000	-1.000000	62.000000	0.000000	-1.000000	-1.000000	304665.000000	1775765483.196070
632.115000	-14502.690000	22992.930000	25131.960000	32467.050000	8582.445000	9754.020000	-30959.865000	-0.577218	-1.029483	-1.528656	-4.924421	-5.456272	5.847291	-0.321075	-1.276742	-0.976640	2.380560	-0.396760	-0.840574	-0.081421	0.520079	-1.000000	-1.000000	-1.000000	-1.000000	-1.000000	-1.000000	-1.000000	62.000000	0.000000	-1.000000	-1.000000	304666.000000	1775765483.196094
637.560000	-14494.635000	23001.480000	25139.160000	32469.660000	8569.305000	9752.445000	-30956.715000	0.320423	0.148289	-0.883941	-1.694132	-3.019047	0.703707	-1.628901	-0.761686	-0.976640	2.380560	-0.396760	-0.840574	-0.081421	0.520079	-1.000000	-1.000000	-1.000000	-1.000000	-1.000000	-1.000000	-1.000000	62.000000	0.000000	-1.000000	-1.000000	304667.000000	1775765483.196406
636.660000	-14498.460000	22997.835000	25137.045000	32466.195000	8546.805000	9744.255000	-30955.770000	1.216899	1.164580	0.195503	1.432891	-0.110667	-2.955847	-1.481441	0.293259	-0.976640	2.380560	-0.396760	-0.840574	-0.081421	0.520079	-1.000000	-1.000000	-1.000000	-1.000000	-1.000000	-1.000000	-1.000000	62.000000	0.000000	-1.000000	-1.000000	304668.000000	1775765483.196423
633.555000	-14505.840000	22991.220000	25133.445000	32467.320000	8549.730000	9742.050000	-30955.905000	1.586977	1.399508	0.968807	3.349259	1.990266	-5.642387	-0.855361	1.331576	-0.564620	2.899400	-0.213640	-0.838865	-0.080566	0.519103	-1.000000	-1.000000	-1.000000	-1.000000	-1.000000	-1.000000	-1.000000	62.000000	0.000000	-1.000000	-1.000000	304669.000000	1775765483.196445
637.425000	-14496.210000	23003.415000	25146.405000	32482.980000	8587.710000	9755.505000	-30958.830000	0.881825	0.322588	0.627119	3.452930	2.959210	-5.823752	-0.204754	1.525144	-0.564620	2.899400	-0.213640	-0.838865	-0.080566	0.519103	-1.000000	-1.000000	-1.000000	-1.000000	-1.000000	-1.000000	-1.000000	62.000000	0.000000	-1.000000	-1.000000	304670.000000	1775765483.196457
632.385000	-14497.425000	23000.535000	25137.810000	32468.625000	8586.405000	9761.220000	-30970.980000	-0.548406	-1.108087	-0.185726	2.397088	3.270742	-0.994333	1.223657	0.386717	-0.564620	2.899400	-0.213640	-0.838865	-0.080566	0.519103	-1.000000	-1.000000	-1.000000	-1.000000	-1.000000	-1.000000	-1.000000	62.000000	0.000000	-1.000000	-1.000000	304671.000000	1775765483.196472
623.430000	-14502.465000	22996.845000	25136.460000	32472.315000	8584.560000	9759.015000	-30979.485000	-2.054801	-1.698714	-0.598303	0.859871	2.649899	6.641541	3.402063	-1.964784	-0.564620	2.899400	-0.213640	-0.838865	-0.080566	0.519103	-1.000000	-1.000000	-1.000000	-1.000000	-1.000000	-1.000000	-1.000000	62.000000	0.000000	-1.000000	-1.000000	304672.000000	1775765483.196483
613.395000	-14513.040000	22987.845000	25129.305000	32469.885000	8607.195000	9751.185000	-30981.735000	-3.440823	-1.755253	-0.988028	-1.095996	0.726834	11.247108	4.411362	-4.379743	-0.564620	2.899400	-0.213640	-0.838865	-0.080566	0.519103	-1.000000	-1.000000	-1.000000	-1.000000	-1.000000	-1.000000	-1.000000	62.000000	0.000000	-1.000000	-1.000000	304673.000000	1775765483.197257
617.895000	-14511.555000	22989.195000	25129.170000	32467.320000	8609.040000	9751.185000	-30973.365000	-4.229745	-2.025335	-1.815947	-2.998723	-1.613854	10.126860	2.605338	-4.806443	-0.564620	2.899400	-0.213640	-0.838865	-0.080566	0.519103	-1.000000	-1.000000	-1.000000	-1.000000	-1.000000	-1.000000	-1.000000	62.000000	0.000000	-1.000000	-1.000000	304674.000000	1775765483.197270
626.625000	-14507.460000	22990.635000	25129.395000	32465.025000	8596.980000	9750.825000	-30962.520000	-3.105860	-2.003747	-2.352368	-3.778043	-3.178369	4.382669	-1.147348	-1.779054	-0.564620	2.899400	-0.213640	-0.838865	-0.080566	0.519103	-1.000000	-1.000000	-1.000000	-1.000000	-1.000000	-1.000000	-1.000000	62.000000	0.000000	-1.000000	-1.000000	304675.000000	1775765483.200283
622.440000	-14508.945000	22990.860000	25130.475000	32467.185000	8591.490000	9747.720000	-30964.860000	0.481096	-0.659387	-1.525463	-2.684051	-3.335392	-4.012801	-4.360510	3.703640	-0.564620	2.899400	-0.213640	-0.838865	-0.080566	0.519103	-1.000000	-1.000000	-1.000000	-1.000000	-1.000000	-1.000000	-1.000000	62.000000	0.000000	-1.000000	-1.000000	304676.000000	1775765483.200300
624.600000	-14504.490000	22997.160000	25138.485000	32475.915000	8594.145000	9747.495000	-30964.140000	4.708512	1.799324	0.680182	0.029270	-1.855731	-11.962088	-5.324834	8.193669	-0.564620	2.899400	-0.213640	-0.838865	-0.080566	0.519103	-1.000000	-1.000000	-1.000000	-1.000000	-1.000000	-1.000000	-1.000000	62.000000	0.000000	-1.000000	-1.000000	304677.000000	1775765483.213552
634.680000	-14497.920000	23000.985000	25138.620000	32470.020000	8576.460000	9745.110000	-30957.030000	7.109015	4.158180	3.286940	3.227862	0.783027	-15.839103	-3.986475	8.774721	-0.564620	2.899400	-0.213640	-0.838865	-0.080566	0.519103	-1.000000	-1.000000	-1.000000	-1.000000	-1.000000	-1.000000	-1.000000	62.000000	0.000000	-1.000000	-1.000000	304678.000000	1775765483.213578
636.030000	-14500.305000	22997.385000	25133.130000	32459.310000	8551.710000	9744.120000	-30952.215000	6.937776	5.308378	4.933726	5.198940	2.816428	-14.722384	-1.389038	5.630120	-1.113980	2.395820	-0.152600	-0.839475	-0.079590	0.519774	-1.000000	-1.000000	-1.000000	-1.000000	-1.000000	-1.000000	-1.000000	62.000000	0.000000	-1.000000	-1.000000	304679.000000	1775765483.213770
629.820000	-14508.630000	22987.845000	25126.650000	32457.195000	8560.305000	9743.670000	-30954.690000	4.556379	4.339757	4.265243	4.425807	2.456931	-10.225294	1.178366	0.931034	-1.113980	2.395820	-0.152600	-0.839475	-0.079590	0.519774	-1.000000	-1.000000	-1.000000	-1.000000	-1.000000	-1.000000	-1.000000	62.000000	0.000000	-1.000000	-1.000000	304680.000000	1775765483.213790
621.090000	-14516.955000	22979.250000	25119.405000	32458.410000	8606.835000	9743.310000	-30961.305000	0.321993	0.926186	0.893549	0.955408	0.177944	-2.434346	2.854803	-3.585793	-1.113980	2.395820	-0.152600	-0.839475	-0.079590	0.519774	-1.000000	-1.000000	-1.000000	-1.000000	-1.000000	-1.000000	-1.000000	62.000000	0.000000	-1.000000	-1.000000	304681.000000	1775765483.213813
621.990000	-14513.625000	22984.560000	25123.770000	32463.225000	8628.255000	9739.485000	-30964.095000	-4.653631	-3.572287	-3.527504	-3.178316	-1.639652	9.580469	3.306377	-7.057464	-1.113980	2.395820	-0.152600	-0.839475	-0.079590	0.519774	-1.000000	-1.000000	-1.000000	-1.000000	-1.000000	-1.000000	-1.000000	62.000000	0.000000	-1.000000	-1.000000	304682.000000	1775765483.213824
622.035000	-14511.690000	22989.105000	25126.830000	32459.985000	8579.385000	9735.165000	-30965.805000	-8.037489	-6.366864	-5.907091	-5.184742	-1.373847	21.142313	2.517018	-8.656664	-1.113980	2.395820	-0.152600	-0.839475	-0.079590	0.519774	-1.000000	-1.000000	-1.000000	-1.000000	-1.000000	-1.000000	-1.000000	62.000000	0.000000	-1.000000	-1.000000	304683.000000	1775765483.216384
613.665000	-14517.315000	22985.910000	25123.950000	32458.635000	8569.170000	9739.440000	-30969.900000	-8.055887	-5.692054	-4.491311	-3.809291	0.347758	22.411776	0.972748	-7.706411	-1.113980	2.395820	-0.152600	-0.839475	-0.079590	0.519774	-1.000000	-1.000000	-1.000000	-1.000000	-1.000000	-1.000000	-1.000000	62.000000	0.000000	-1.000000	-1.000000	304684.000000	1775765483.216410
610.020000	-14518.620000	22985.910000	25126.380000	32468.805000	8608.995000	9747.810000	-30968.820000	-5.226836	-2.499164	-0.648290	-0.394824	1.988228	11.009982	-0.121148	-4.465439	-1.113980	2.395820	-0.152600	-0.839475	-0.079590	0.519774	-1.000000	-1.000000	-1.000000	-1.000000	-1.000000	-1.000000	-1.000000	62.000000	0.000000	-1.000000	-1.000000	304685.000000	1775765483.220305
622.575000	-14506.515000	22994.190000	25133.220000	32467.770000	8572.365000	9749.295000	-30957.030000	-1.136006	1.184625	2.980799	2.841967	2.873950	-3.860310	0.195452	0.132491	-1.113980	2.395820	-0.152600	-0.839475	-0.079590	0.519774	-1.000000	-1.000000	-1.000000	-1.000000	-1.000000	-1.000000	-1.000000	62.000000	0.000000	-1.000000	-1.000000	304686.000000	1775765483.220320
621.360000	-14506.065000	22996.080000	25136.145000	32469.435000	8564.175000	9747.405000	-30960.450000	3.218417	4.247822	4.959705	4.671194	2.836525	-13.744001	1.303120	4.888846	-1.113980	2.395820	-0.152600	-0.839475	-0.079590	0.519774	-1.000000	-1.000000	-1.000000	-1.000000	-1.000000	-1.000000	-1.000000	62.000000	0.000000	-1.000000	-1.000000	304687.000000	1775765483.225132
619.425000	-14505.120000	22999.230000	25140.285000	32475.105000	8577.630000	9747.180000	-30968.280000	6.621384	5.930654	5.047510	4.778015	1.770919	-16.717814	1.588490	7.829054	-1.113980	2.395820	-0.152600	-0.839475	-0.079590	0.519774	-1.000000	-1.000000	-1.000000	-1.000000	-1.000000	-1.000000	-1.000000	62.000000	0.000000	-1.000000	-1.000000	304688.000000	1775765483.225159
618.345000	-14505.975000	22998.510000	25137.405000	32470.290000	8573.940000	9746.370000	-30975.705000	7.401097	5.352165	3.402253	3.202364	0.033260	-12.921478	0.321661	7.014988	-2.334780	1.739640	0.259420	-0.840696	-0.078369	0.520934	-1.000000	-1.000000	-1.000000	-1.000000	-1.000000	-1.000000	-1.000000	62.000000	0.000000	-1.000000	-1.000000	304689.000000	1775765483.229052
619.920000	-14508.495000	22994.190000	25129.260000	32460.255000	8565.840000	9748.620000	-30971.430000	5.176943	2.503620	0.489802	0.186262	-2.068581	-4.510559	-1.704544	2.875628	-2.334780	1.739640	0.259420	-0.840696	-0.078369	0.520934	-1.000000	-1.000000	-1.000000	-1.000000	-1.000000	-1.000000	-1.000000	62.000000	0.000000	-1.000000	-1.000000	304690.000000	1775765483.229076
631.755000	-14500.980000	23000.400000	25134.480000	32467.230000	8581.995000	9749.745000	-30960.450000	1.618685	-1.240919	-2.700046	-3.430941	-4.199933	4.094624	-3.094889	-1.420797	-2.334780	1.739640	0.259420	-0.840696	-0.078369	0.520934	-1.000000	-1.000000	-1.000000	-1.000000	-1.000000	-1.000000	-1.000000	62.000000	0.000000	-1.000000	-1.000000	304691.000000	1775765483.243190
630.720000	-14501.295000	23001.795000	25137.720000	32475.510000	8643.060000	9746.685000	-30963.465000	-1.027111	-3.877235	-4.670918	-5.802723	-4.962914	10.862836	-3.115592	-2.884118	-2.334780	1.739640	0.259420	-0.840696	-0.078369	0.520934	-1.000000	-1.000000	-1.000000	-1.000000	-1.000000	-1.000000	-1.000000	62.000000	0.000000	-1.000000	-1.000000	304692.000000	1775765483.243249
617.805000	-14508.090000	22997.835000	25132.095000	32466.285000	8600.805000	9741.825000	-30980.610000	-2.292952	-4.487543	-4.568229	-5.495595	-3.243124	15.703239	-2.220077	-1.914506	-2.334780	1.739640	0.259420	-0.840696	-0.078369	0.520934	-1.000000	-1.000000	-1.000000	-1.000000	-1.000000	-1.000000	-1.000000	62.000000	0.000000	-1.000000	-1.000000	304693.000000	1775765483.243301
609.480000	-14514.840000	22991.175000	25122.555000	32443.515000	8501.355000	9739.080000	-30987.585000	-3.591336	-3.945850	-3.177489	-3.304351	-0.688834	13.331186	-1.321246	-1.392299	-2.334780	1.739640	0.259420	-0.840696	-0.078369	0.520934	-1.000000	-1.000000	-1.000000	-1.000000	-1.000000	-1.000000	-1.000000	62.000000	0.000000	-1.000000	-1.000000	304694.000000	1775765483.243318
604.575000	-14518.665000	22986.045000	25118.415000	32445.585000	8504.055000	9747.900000	-30983.445000	-5.524945	-3.375116	-1.919954	-1.235857	-0.000379	-1.903310	-0.560741	-2.438801	-2.334780	1.739640	0.259420	-0.840696	-0.078369	0.520934	-1.000000	-1.000000	-1.000000	-1.000000	-1.000000	-1.000000	-1.000000	62.000000	0.000000	-1.000000	-1.000000	304695.000000	1775765483.243338
601.785000	-14520.735000	22983.930000	25121.205000	32462.415000	8552.745000	9759.960000	-30976.470000	-6.666342	-2.763094	-1.279436	-0.054431	-0.622257	-20.970344	0.914857	-3.016643	-2.334780	1.739640	0.259420	-0.840696	-0.078369	0.520934	-1.000000	-1.000000	-1.000000	-1.000000	-1.000000	-1.000000	-1.000000	62.000000	0.000000	-1.000000	-1.000000	304696.000000	1775765483.243349
616.545000	-14508.495000	22995.270000	25132.230000	32473.170000	8574.885000	9753.480000	-30959.505000	-5.064145	-1.211687	-0.431606	1.233685	0.687468	-25.344925	3.295575	-0.832103	-2.334780	1.739640	0.259420	-0.840696	-0.078369	0.520934	-1.000000	-1.000000	-1.000000	-1.000000	-1.000000	-1.000000	-1.000000	62.000000	0.000000	-1.000000	-1.000000	304697.000000	1775765483.244575
621.000000	-14510.250000	22995.450000	25132.140000	32473.035000	8601.120000	9742.500000	-30955.950000	-0.119410	1.811374	1.633119	3.520431	4.732163	-8.987164	4.655900	3.834107	-2.334780	1.739640	0.259420	-0.840696	-0.078369	0.520934	-1.000000	-1.000000	-1.000000	-1.000000	-1.000000	-1.000000	-1.000000	62.000000	0.000000	-1.000000	-1.000000	304698.000000	1775765483.244590
609.840000	-14522.850000	22984.200000	25119.450000	32460.975000	8600.400000	9748.980000	-30965.400000	5.934657	4.917165	4.164667	5.599355	8.071970	15.679687	3.072657	7.747186	-2.273740	1.068200	-0.412020	-0.840818	-0.081299	0.523070	-1.000000	-1.000000	-1.000000	-1.000000	-1.000000	-1.000000	-1.000000	62.000000	0.000000	-1.000000	-1.000000	304699.000000	1775765483.249058
611.910000	-14519.340000	22987.260000	25119.855000	32461.065000	8587.350000	9753.660000	-30964.095000	9.072794	5.635618	4.969498	5.150139	6.937333	30.747711	-0.317848	7.308296	-2.273740	1.068200	-0.412020	-0.840818	-0.081299	0.523070	-1.000000	-1.000000	-1.000000	-1.000000	-1.000000	-1.000000	-1.000000	62.000000	0.000000	-1.000000	-1.000000	304700.000000	1775765483.249087
609.975000	-14517.765000	22989.915000	25124.445000	32468.400000	8596.935000	9749.385000	-30966.255000	7.417557	3.583512	3.385519	2.025339	1.673680	27.036840	-2.742291	2.276040	-2.273740	1.068200	-0.412020	-0.840818	-0.081299	0.523070	-1.000000	-1.000000	-1.000000	-1.000000	-1.000000	-1.000000	-1.000000	62.000000	0.000000	-1.000000	-1.000000	304701.000000	1775765483.252295
609.750000	-14517.495000	22989.735000	25123.725000	32466.555000	8594.685000	9741.870000	-30969.675000	2.709558	0.761109	0.959164	-1.353707	-3.825540	9.175825	-3.278272	-4.135626	-2.273740	1.068200	-0.412020	-0.840818	-0.081299	0.523070	-1.000000	-1.000000	-1.000000	-1.000000	-1.000000	-1.000000	-1.000000	62.000000	0.000000	-1.000000	-1.000000	304702.000000	1775765483.252312
611.460000	-14516.325000	22991.130000	25126.155000	32466.510000	8586.000000	9741.195000	-30967.290000	-1.987053	-1.065056	-0.784990	-2.925636	-6.446080	-10.921290	-2.883038	-8.357231	-2.273740	1.068200	-0.412020	-0.840818	-0.081299	0.523070	-1.000000	-1.000000	-1.000000	-1.000000	-1.000000	-1.000000	-1.000000	62.000000	0.000000	-1.000000	-1.000000	304703.000000	1775765483.259741
611.640000	-14515.740000	22991.625000	25125.120000	32463.045000	8580.960000	9739.935000	-30965.715000	-4.512558	-1.542323	-1.467299	-2.554633	-5.975168	-23.778271	-2.208640	-8.552640	-2.273740	1.068200	-0.412020	-0.840818	-0.081299	0.523070	-1.000000	-1.000000	-1.000000	-1.000000	-1.000000	-1.000000	-1.000000	62.000000	0.000000	-1.000000	-1.000000	304704.000000	1775765483.259762
613.710000	-14512.725000	22994.550000	25126.605000	32460.750000	8579.835000	9742.770000	-30963.780000	-4.406474	-1.144669	-1.366556	-1.271332	-3.875953	-25.891715	-1.039348	-5.103217	-2.273740	1.068200	-0.412020	-0.840818	-0.081299	0.523070	-1.000000	-1.000000	-1.000000	-1.000000	-1.000000	-1.000000	-1.000000	62.000000	0.000000	-1.000000	-1.000000	304705.000000	1775765483.260496
612.360000	-14512.545000	22993.020000	25126.290000	32462.370000	8584.200000	9744.795000	-30963.555000	-2.608649	-0.486418	-0.929051	-0.133225	-1.541445	-18.539823	0.794627	-0.126078	-2.273740	1.068200	-0.412020	-0.840818	-0.081299	0.523070	-1.000000	-1.000000	-1.000000	-1.000000	-1.000000	-1.000000	-1.000000	62.000000	0.000000	-1.000000	-1.000000	304706.000000	1775765483.260510
614.520000	-14506.155000	22998.240000	25132.815000	32468.940000	8574.120000	9740.160000	-30963.420000	-0.520318	0.040155	-0.522352	0.467197	0.578504	-6.150115	2.699250	3.891455	-2.273740	1.068200	-0.412020	-0.840818	-0.081299	0.523070	-1.000000	-1.000000	-1.000000	-1.000000	-1.000000	-1.000000	-1.000000	62.000000	0.000000	-1.000000	-1.000000	304707.000000	1775765483.264498
610.830000	-14512.095000	22997.025000	25132.365000	32470.245000	8567.370000	9739.530000	-30971.205000	0.820894	0.234276	-0.258473	0.733234	2.557453	5.431823	3.531734	5.314881	-2.273740	1.068200	-0.412020	-0.840818	-0.081299	0.523070	-1.000000	-1.000000	-1.000000	-1.000000	-1.000000	-1.000000	-1.000000	62.000000	0.000000	-1.000000	-1.000000	304708.000000	1775765483.264524
609.435000	-14517.270000	22992.075000	25124.715000	32463.630000	8568.270000	9750.510000	-30969.270000	1.012618	-0.269247	-0.269149	0.619855	3.863663	11.937428	2.956307	3.958148	-0.869820	1.892240	-0.274680	-0.838255	-0.083191	0.523253	-1.000000	-1.000000	-1.000000	-1.000000	-1.000000	-1.000000	-1.000000	62.000000	0.000000	-1.000000	-1.000000	304709.000000	1775765483.274609
612.810000	-14513.040000	22995.225000	25124.715000	32459.355000	8574.345000	9751.320000	-30968.190000	0.381351	-1.511510	-0.735457	-0.297093	3.407436	13.000832	1.956825	1.238477	-0.869820	1.892240	-0.274680	-0.838255	-0.083191	0.523253	-1.000000	-1.000000	-1.000000	-1.000000	-1.000000	-1.000000	-1.000000	62.000000	0.000000	-1.000000	-1.000000	304710.000000	1775765483.274628
618.570000	-14506.335000	23000.490000	25131.555000	32465.115000	8582.220000	9752.670000	-30963.420000	-0.087344	-2.356536	-1.175657	-1.572933	1.193731	11.033020	1.251226	-0.774837	-0.869820	1.892240	-0.274680	-0.838255	-0.083191	0.523253	-1.000000	-1.000000	-1.000000	-1.000000	-1.000000	-1.000000	-1.000000	62.000000	0.000000	-1.000000	-1.000000	304711.000000	1775765483.276220
610.695000	-14512.455000	22995.180000	25128.225000	32462.325000	8585.325000	9740.565000	-30971.115000	0.183353	-1.692871	-0.878866	-1.926294	-1.140714	8.282247	0.245152	-1.160422	-0.869820	1.892240	-0.274680	-0.838255	-0.083191	0.523253	-1.000000	-1.000000	-1.000000	-1.000000	-1.000000	-1.000000	-1.000000	62.000000	0.000000	-1.000000	-1.000000	304712.000000	1775765483.276237
603.720000	-14522.895000	22985.190000	25120.395000	32457.645000	8592.255000	9736.920000	-30975.120000	0.401517	-0.306300	-0.299663	-1.165128	-2.231082	5.417939	-1.879051	-0.777659	-0.869820	1.892240	-0.274680	-0.838255	-0.083191	0.523253	-1.000000	-1.000000	-1.000000	-1.000000	-1.000000	-1.000000	-1.000000	62.000000	0.000000	-1.000000	-1.000000	304713.000000	1775765483.278774
602.595000	-14525.910000	22978.755000	25111.935000	32447.205000	8581.905000	9738.585000	-30973.500000	-0.389104	0.098840	-0.582476	-0.541768	-2.338419	2.030438	-4.469401	-0.736200	-0.869820	1.892240	-0.274680	-0.838255	-0.083191	0.523253	-1.000000	-1.000000	-1.000000	-1.000000	-1.000000	-1.000000	-1.000000	62.000000	0.000000	-1.000000	-1.000000	304714.000000	1775765483.278930
609.345000	-14516.955000	22989.060000	25122.870000	32454.855000	8575.110000	9737.730000	-30968.100000	-1.521227	-0.465715	-1.484519	-0.617883	-2.131066	-2.400664	-5.550163	-0.808454	-0.869820	1.892240	-0.274680	-0.838255	-0.083191	0.523253	-1.000000	-1.000000	-1.000000	-1.000000	-1.000000	-1.000000	-1.000000	62.000000	0.000000	-1.000000	-1.000000	304715.000000	1775765483.292085
613.080000	-14510.565000	22999.950000	25138.800000	32470.155000	8579.205000	9739.530000	-30969.270000	-1.350583	-0.191553	-1.058880	0.020512	-1.007425	-7.149816	-3.952179	-0.174848	-0.869820	1.892240	-0.274680	-0.838255	-0.083191	0.523253	-1.000000	-1.000000	-1.000000	-1.000000	-1.000000	-1.000000	-1.000000	62.000000	0.000000	-1.000000	-1.000000	304716.000000	1775765483.292109
613.935000	-14510.250000	23000.715000	25141.050000	32472.045000	8583.300000	9739.485000	-30969.360000	0.536971	1.801423	1.721144	2.631993	1.865701	-9.780766	-0.454459	0.996806	-0.869820	1.892240	-0.274680	-0.838255	-0.083191	0.523253	-1.000000	-1.000000	-1.000000	-1.000000	-1.000000	-1.000000	-1.000000	62.000000	0.000000	-1.000000	-1.000000	304717.000000	1775765483.292132
611.595000	-14515.065000	22994.055000	25128.855000	32456.970000	8578.170000	9736.785000	-30970.935000	2.669389	3.964708	4.899369	5.465172	4.880984	-8.507540	3.009231	1.704463	-0.869820	1.892240	-0.274680	-0.838255	-0.083191	0.523253	-1.000000	-1.000000	-1.000000	-1.000000	-1.000000	-1.000000	-1.000000	62.000000	0.000000	-1.000000	-1.000000	304718.000000	1775765483.292140
604.305000	-14525.370000	22980.420000	25107.750000	32443.560000	8569.035000	9733.905000	-30972.915000	3.130015	3.920715	5.201493	4.838732	4.656022	-4.489580	4.665450	1.311776	-0.289940	3.494540	-0.579880	-0.836912	-0.081360	0.523985	-1.000000	-1.000000	-1.000000	-1.000000	-1.000000	-1.000000	-1.000000	62.000000	0.000000	-1.000000	-1.000000	304719.000000	1775765483.292151
598.050000	-14526.675000	22982.445000	25105.005000	32450.490000	8569.620000	9730.845000	-30981.195000	1.203724	0.994502	1.594547	-0.478574	0.389454	-0.464686	3.939592	-0.076569	-0.289940	3.494540	-0.579880	-0.836912	-0.081360	0.523985	-1.000000	-1.000000	-1.000000	-1.000000	-1.000000	-1.000000	-1.000000	62.000000	0.000000	-1.000000	-1.000000	304720.000000	1775765483.292160
598.770000	-14520.690000	22994.145000	25121.115000	32462.145000	8575.560000	9731.205000	-30989.880000	-1.959448	-2.791848	-3.115576	-6.697378	-4.221449	2.235419	1.687038	-1.998387	-0.289940	3.494540	-0.579880	-0.836912	-0.081360	0.523985	-1.000000	-1.000000	-1.000000	-1.000000	-1.000000	-1.000000	-1.000000	62.000000	0.000000	-1.000000	-1.000000	304721.000000	1775765483.296262
605.745000	-14513.355000	22999.365000	25123.005000	32453.280000	8538.885000	9727.650000	-30988.485000	-3.959122	-4.344123	-4.849613	-8.237607	-5.122199	3.385016	-0.588336	-3.607560	-0.289940	3.494540	-0.579880	-0.836912	-0.081360	0.523985	-1.000000	-1.000000	-1.000000	-1.000000	-1.000000	-1.000000	-1.000000	62.000000	0.000000	-1.000000	-1.000000	304722.000000	1775765483.296286
615.735000	-14499.495000	23013.135000	25136.730000	32463.630000	8517.285000	9728.325000	-30978.135000	-2.915557	-2.233518	-2.291699	-3.523029	-2.294861	1.831121	-1.822639	-3.453089	-0.289940	3.494540	-0.579880	-0.836912	-0.081360	0.523985	-1.000000	-1.000000	-1.000000	-1.000000	-1.000000	-1.000000	-1.000000	62.000000	0.000000	-1.000000	-1.000000	304723.000000	1775765483.298270
609.435000	-14507.370000	23002.650000	25138.035000	32471.505000	8534.295000	9729.135000	-30978.630000	0.658160	1.985680	2.139118	3.968741	1.715771	-1.928262	-1.750268	-0.667061	-0.289940	3.494540	-0.579880	-0.836912	-0.081360	0.523985	-1.000000	-1.000000	-1.000000	-1.000000	-1.000000	-1.000000	-1.000000	62.000000	0.000000	-1.000000	-1.000000	304724.000000	1775765483.298286
607.545000	-14517.495000	22991.985000	25130.160000	32469.660000	8603.685000	9737.550000	-30975.840000	3.862639	4.621827	4.329956	9.036015	4.706306	-2.308923	-0.551051	3.410250	-0.289940	3.494540	-0.579880	-0.836912	-0.081360	0.523985	-1.000000	-1.000000	-1.000000	-1.000000	-1.000000	-1.000000	-1.000000	62.000000	0.000000	-1.000000	-1.000000	304725.000000	1775765483.306522
603.180000	-14524.830000	22985.820000	25119.630000	32462.055000	8640.495000	9748.035000	-30974.130000	4.099842	2.948783	1.948124	8.161134	5.016404	6.244679	1.456845	6.146078	-0.289940	3.494540	-0.579880	-0.836912	-0.081360	0.523985	-1.000000	-1.000000	-1.000000	-1.000000	-1.000000	-1.000000	-1.000000	62.000000	0.000000	-1.000000	-1.000000	304726.000000	1775765483.306549
597.555000	-14527.890000	22983.030000	25112.700000	32450.760000	8620.020000	9749.970000	-30976.605000	1.345919	-1.977660	-3.230582	1.783198	1.902523	19.391035	3.541795	5.923943	-0.289940	3.494540	-0.579880	-0.836912	-0.081360	0.523985	-1.000000	-1.000000	-1.000000	-1.000000	-1.000000	-1.000000	-1.000000	62.000000	0.000000	-1.000000	-1.000000	304727.000000	1775765483.306577
600.345000	-14525.145000	22986.720000	25116.120000	32452.245000	8577.360000	9739.305000	-30977.370000	-2.305445	-6.287864	-7.017205	-5.859548	-3.223470	23.410327	4.095683	2.948083	-0.289940	3.494540	-0.579880	-0.836912	-0.081360	0.523985	-1.000000	-1.000000	-1.000000	-1.000000	-1.000000	-1.000000	-1.000000	62.000000	0.000000	-1.000000	-1.000000	304728.000000	1775765483.306589
601.335000	-14525.055000	22987.440000	25119.180000	32452.875000	8531.415000	9734.310000	-30978.630000	-4.338635	-6.760330	-6.497220	-9.753020	-7.075215	9.052583	1.633188	-1.209469	-2.609460	2.716280	0.045780	-0.837950	-0.080078	0.524047	-1.000000	-1.000000	-1.000000	-1.000000	-1.000000	-1.000000	-1.000000	62.000000	0.000000	-1.000000	-1.000000	304729.000000	1775765483.314329
607.860000	-14518.755000	22991.985000	25124.040000	32460.165000	8565.480000	9740.160000	-30972.375000	-3.455207	-3.112251	-2.003297	-7.708177	-6.891885	-16.682598	-2.960267	-4.430694	-2.609460	2.716280	0.045780	-0.837950	-0.080078	0.524047	-1.000000	-1.000000	-1.000000	-1.000000	-1.000000	-1.000000	-1.000000	62.000000	0.000000	-1.000000	-1.000000	304730.000000	1775765483.314353
607.185000	-14519.520000	22989.060000	25115.220000	32448.645000	8579.835000	9737.370000	-30974.130000	-0.365674	2.345920	3.610605	-1.732904	-2.891056	-34.745329	-6.524187	-5.226527	-2.609460	2.716280	0.045780	-0.837950	-0.080078	0.524047	-1.000000	-1.000000	-1.000000	-1.000000	-1.000000	-1.000000	-1.000000	62.000000	0.000000	-1.000000	-1.000000	304731.000000	1775765483.314379
600.570000	-14523.345000	22984.470000	25108.785000	32438.970000	8574.120000	9728.370000	-30980.700000	2.683381	6.430859	7.061466	3.768601	1.715741	-32.042961	-6.924709	-3.869287	-2.609460	2.716280	0.045780	-0.837950	-0.080078	0.524047	-1.000000	-1.000000	-1.000000	-1.000000	-1.000000	-1.000000	-1.000000	62.000000	0.000000	-1.000000	-1.000000	304732.000000	1775765483.314391
600.570000	-14521.725000	22989.555000	25116.975000	32448.330000	8577.360000	9731.565000	-30980.925000	3.540985	7.022320	6.779238	5.799134	3.976614	-12.856696	-4.698180	-1.970887	-2.609460	2.716280	0.045780	-0.837950	-0.080078	0.524047	-1.000000	-1.000000	-1.000000	-1.000000	-1.000000	-1.000000	-1.000000	62.000000	0.000000	-1.000000	-1.000000	304733.000000	1775765483.321177
599.580000	-14522.400000	22991.355000	25120.080000	32453.190000	8577.585000	9732.285000	-30981.330000	1.990620	4.394932	3.861641	4.941856	4.137383	8.765912	-1.255855	-0.600995	-2.609460	2.716280	0.045780	-0.837950	-0.080078	0.524047	-1.000000	-1.000000	-1.000000	-1.000000	-1.000000	-1.000000	-1.000000	62.000000	0.000000	-1.000000	-1.000000	304734.000000	1775765483.321200
596.745000	-14525.190000	22990.230000	25119.090000	32454.945000	8573.085000	9735.615000	-30983.580000	-0.422585	0.507445	0.552471	3.292247	3.978740	21.624656	2.370478	0.312070	-2.609460	2.716280	0.045780	-0.837950	-0.080078	0.524047	-1.000000	-1.000000	-1.000000	-1.000000	-1.000000	-1.000000	-1.000000	62.000000	0.000000	-1.000000	-1.000000	304735.000000	1775765483.322273
600.570000	-14523.885000	22990.950000	25121.520000	32459.715000	8586.135000	9741.690000	-30979.980000	-2.052425	-2.716842	-1.806233	1.792579	3.949913	22.519183	5.282193	1.113655	-2.609460	2.716280	0.045780	-0.837950	-0.080078	0.524047	-1.000000	-1.000000	-1.000000	-1.000000	-1.000000	-1.000000	-1.000000	62.000000	0.000000	-1.000000	-1.000000	304736.000000	1775765483.322291
603.945000	-14521.320000	22991.130000	25118.280000	32449.050000	8568.180000	9738.045000	-30978.495000	-2.017919	-4.109006	-2.947379	0.340168	3.158909	14.789041	6.611485	1.973630	-2.609460	2.716280	0.045780	-0.837950	-0.080078	0.524047	-1.000000	-1.000000	-1.000000	-1.000000	-1.000000	-1.000000	-1.000000	62.000000	0.000000	-1.000000	-1.000000	304737.000000	1775765483.325742
608.445000	-14513.670000	23001.435000	25126.560000	32452.425000	8546.130000	9736.335000	-30975.840000	-0.416679	-3.304851	-2.853738	-1.059282	0.820426	3.331348	5.649995	2.773097	-2.609460	2.716280	0.045780	-0.837950	-0.080078	0.524047	-1.000000	-1.000000	-1.000000	-1.000000	-1.000000	-1.000000	-1.000000	62.000000	0.000000	-1.000000	-1.000000	304738.000000	1775765483.325768
604.980000	-14510.520000	23009.760000	25140.375000	32469.705000	8550.675000	9731.070000	-30981.780000	1.601237	-0.863826	-1.430751	-1.669224	-2.072385	-7.737902	2.437663	2.957661	-2.746800	2.762060	0.549360	-0.837950	-0.080871	0.522887	-1.000000	-1.000000	-1.000000	-1.000000	-1.000000	-1.000000	-1.000000	62.000000	0.000000	-1.000000	-1.000000	304739.000000	1775765483.330538
606.510000	-14509.440000	23013.000000	25145.865000	32481.090000	8570.970000	9734.805000	-30979.215000	2.514993	1.752703	0.847854	-0.739607	-3.017719	-13.652659	-1.654225	1.974760	-2.746800	2.762060	0.549360	-0.837950	-0.080871	0.522887	-1.000000	-1.000000	-1.000000	-1.000000	-1.000000	-1.000000	-1.000000	62.000000	0.000000	-1.000000	-1.000000	304740.000000	1775765483.330577
603.495000	-14517.225000	23002.605000	25130.655000	32464.620000	8584.515000	9735.480000	-30978.630000	1.667628	2.775451	2.316463	0.664309	-1.520128	-10.814345	-4.498992	0.150345	-2.746800	2.762060	0.549360	-0.837950	-0.080871	0.522887	-1.000000	-1.000000	-1.000000	-1.000000	-1.000000	-1.000000	-1.000000	62.000000	0.000000	-1.000000	-1.000000	304741.000000	1775765483.333121
597.060000	-14527.125000	22988.385000	25112.475000	32453.280000	8580.735000	9736.785000	-30988.620000	-0.429844	1.179592	1.041048	-0.158017	-0.549610	-1.302466	-4.766882	-1.627124	-2.746800	2.762060	0.549360	-0.837950	-0.080871	0.522887	-1.000000	-1.000000	-1.000000	-1.000000	-1.000000	-1.000000	-1.000000	62.000000	0.000000	-1.000000	-1.000000	304742.000000	1775765483.333142
602.550000	-14522.130000	22993.020000	25117.785000	32458.230000	8544.015000	9741.870000	-30986.730000	-2.607017	-2.194601	-2.845244	-3.986935	-2.336767	7.120961	-2.780411	-2.894317	-2.746800	2.762060	0.549360	-0.837950	-0.080871	0.522887	-1.000000	-1.000000	-1.000000	-1.000000	-1.000000	-1.000000	-1.000000	62.000000	0.000000	-1.000000	-1.000000	304743.000000	1775765483.349236
598.185000	-14527.980000	22988.250000	25113.555000	32451.930000	8558.955000	9734.220000	-30985.965000	-3.523759	-4.814956	-6.363123	-7.664314	-5.107457	7.793153	-0.048827	-3.256331	-2.746800	2.762060	0.549360	-0.837950	-0.080871	0.522887	-1.000000	-1.000000	-1.000000	-1.000000	-1.000000	-1.000000	-1.000000	62.000000	0.000000	-1.000000	-1.000000	304744.000000	1775765483.349262
599.670000	-14524.245000	22993.245000	25119.810000	32464.350000	8625.465000	9739.935000	-30981.645000	-2.649764	-4.697067	-6.464634	-7.414127	-5.619459	3.226316	1.745695	-2.162940	-2.746800	2.762060	0.549360	-0.837950	-0.080871	0.522887	-1.000000	-1.000000	-1.000000	-1.000000	-1.000000	-1.000000	-1.000000	62.000000	0.000000	-1.000000	-1.000000	304745.000000	1775765483.349291
594.675000	-14531.355000	22985.550000	25111.530000	32454.855000	8601.030000	9730.260000	-30982.140000	-0.736762	-2.058260	-2.918412	-2.833231	-2.745861	1.421903	1.845207	0.166550	-2.746800	2.762060	0.549360	-0.837950	-0.080871	0.522887	-1.000000	-1.000000	-1.000000	-1.000000	-1.000000	-1.000000	-1.000000	62.000000	0.000000	-1.000000	-1.000000	304746.000000	1775765483.349303
594.720000	-14530.140000	22988.160000	25112.970000	32456.475000	8566.380000	9729.495000	-30984.165000	1.010166	1.306417	1.945465	3.166020	1.701975	2.656979	0.566948	2.440845	-2.746800	2.762060	0.549360	-0.837950	-0.080871	0.522887	-1.000000	-1.000000	-1.000000	-1.000000	-1.000000	-1.000000	-1.000000	62.000000	0.000000	-1.000000	-1.000000	304747.000000	1775765483.349317
596.655000	-14526.720000	22993.020000	25118.910000	32465.520000	8583.300000	9739.665000	-30980.295000	1.953107	3.759341	5.647086	7.409898	5.121604	0.464205	-0.918171	3.346290	-2.746800	2.762060	0.549360	-0.837950	-0.080871	0.522887	-1.000000	-1.000000	-1.000000	-1.000000	-1.000000	-1.000000	-1.000000	62.000000	0.000000	-1.000000	-1.000000	304748.000000	1775765483.349328
592.920000	-14530.995000	22989.060000	25116.435000	32464.575000	8581.185000	9736.110000	-30984.255000	2.175498	4.728661	7.103617	8.674537	6.491405	-5.635589	-1.118490	2.632853	-1.480220	2.716280	0.076300	-0.839109	-0.082397	0.522582	-1.000000	-1.000000	-1.000000	-1.000000	-1.000000	-1.000000	-1.000000	62.000000	0.000000	-1.000000	-1.000000	304749.000000	1775765483.349342
595.890000	-14527.710000	22990.275000	25114.995000	32459.760000	8575.920000	9732.420000	-30982.140000	1.898795	4.224473	6.177737	7.120940	5.753547	-10.077447	0.009791	0.933436	-1.480220	2.716280	0.076300	-0.839109	-0.082397	0.522582	-1.000000	-1.000000	-1.000000	-1.000000	-1.000000	-1.000000	-1.000000	62.000000	0.000000	-1.000000	-1.000000	304750.000000	1775765483.349353
596.835000	-14525.415000	22992.705000	25118.235000	32464.755000	8580.825000	9737.010000	-30979.215000	1.364105	2.685909	3.459922	3.591576	3.092414	-9.548340	1.086886	-0.780475	-1.480220	2.716280	0.076300	-0.839109	-0.082397	0.522582	-1.000000	-1.000000	-1.000000	-1.000000	-1.000000	-1.000000	-1.000000	62.000000	0.000000	-1.000000	-1.000000	304751.000000	1775765483.353880
594.450000	-14527.575000	22991.130000	25116.750000	32466.510000	8563.410000	9736.785000	-30980.025000	0.806715	0.886980	0.268724	-0.359331	-0.279280	-5.056998	1.371643	-1.649481	-1.480220	2.716280	0.076300	-0.839109	-0.082397	0.522582	-1.000000	-1.000000	-1.000000	-1.000000	-1.000000	-1.000000	-1.000000	62.000000	0.000000	-1.000000	-1.000000	304752.000000	1775765483.353902
597.060000	-14523.435000	22994.595000	25119.540000	32466.735000	8558.910000	9731.385000	-30978.990000	0.216650	-0.657118	-2.188881	-3.233896	-2.709327	0.118128	0.980453	-1.556799	-1.480220	2.716280	0.076300	-0.839109	-0.082397	0.522582	-1.000000	-1.000000	-1.000000	-1.000000	-1.000000	-1.000000	-1.000000	62.000000	0.000000	-1.000000	-1.000000	304753.000000	1775765483.358292
603.045000	-14514.120000	23005.845000	25130.970000	32475.825000	8598.600000	9724.950000	-30975.930000	-0.265300	-1.507620	-3.124249	-4.148684	-3.385402	4.132809	-0.081675	-0.950971	-1.480220	2.716280	0.076300	-0.839109	-0.082397	0.522582	-1.000000	-1.000000	-1.000000	-1.000000	-1.000000	-1.000000	-1.000000	62.000000	0.000000	-1.000000	-1.000000	304754.000000	1775765483.358313
611.280000	-14508.360000	23010.885000	25131.510000	32470.155000	8582.355000	9721.575000	-30968.325000	-0.148786	-1.198815	-2.194403	-2.962509	-2.533689	7.812712	-1.653187	-0.096073	-1.480220	2.716280	0.076300	-0.839109	-0.082397	0.522582	-1.000000	-1.000000	-1.000000	-1.000000	-1.000000	-1.000000	-1.000000	62.000000	0.000000	-1.000000	-1.000000	304755.000000	1775765483.363691
601.515000	-14519.385000	22999.950000	25121.295000	32467.095000	8587.125000	9733.410000	-30972.555000	0.441888	-0.304835	-0.426258	-0.997958	-1.330023	10.407908	-2.639740	0.818690	-1.480220	2.716280	0.076300	-0.839109	-0.082397	0.522582	-1.000000	-1.000000	-1.000000	-1.000000	-1.000000	-1.000000	-1.000000	62.000000	0.000000	-1.000000	-1.000000	304756.000000	1775765483.363714
587.880000	-14530.590000	22992.075000	25119.270000	32475.690000	8607.420000	9740.745000	-30985.155000	0.082489	-0.635735	-0.065976	-0.396411	-0.807091	9.661288	-1.522413	0.921688	-1.480220	2.716280	0.076300	-0.839109	-0.082397	0.522582	-1.000000	-1.000000	-1.000000	-1.000000	-1.000000	-1.000000	-1.000000	62.000000	0.000000	-1.000000	-1.000000	304757.000000	1775765483.366036
585.360000	-14534.055000	22987.215000	25113.015000	32465.610000	8571.555000	9743.085000	-30986.370000	-2.252631	-3.032474	-2.096905	-1.741235	-0.783235	5.338931	1.682507	-0.652083	-1.480220	2.716280	0.076300	-0.839109	-0.082397	0.522582	-1.000000	-1.000000	-1.000000	-1.000000	-1.000000	-1.000000	-1.000000	62.000000	0.000000	-1.000000	-1.000000	304758.000000	1775765483.366060
588.105000	-14529.915000	22992.885000	25117.470000	32468.130000	8559.045000	9736.650000	-30984.615000	-5.025881	-5.619294	-4.679812	-3.432258	-0.841768	-1.976438	4.604350	-2.954039	-0.274680	2.090620	-0.366240	-0.839842	-0.083984	0.521605	-1.000000	-1.000000	-1.000000	-1.000000	-1.000000	-1.000000	-1.000000	62.000000	0.000000	-1.000000	-1.000000	304759.000000	1775765483.375106
594.945000	-14522.445000	23003.145000	25125.885000	32473.395000	8583.840000	9731.970000	-30982.860000	-5.303275	-5.425012	-4.791875	-3.281749	-0.715959	-9.939455	4.554505	-3.733474	-0.274680	2.090620	-0.366240	-0.839842	-0.083984	0.521605	-1.000000	-1.000000	-1.000000	-1.000000	-1.000000	-1.000000	-1.000000	62.000000	0.000000	-1.000000	-1.000000	304760.000000	1775765483.375129
595.755000	-14523.255000	23001.120000	25122.510000	32469.975000	8610.435000	9733.680000	-30981.780000	-1.977168	-1.570445	-1.334448	-0.555968	0.016085	-12.597996	1.252306	-1.948602	-0.274680	2.090620	-0.366240	-0.839842	-0.083984	0.521605	-1.000000	-1.000000	-1.000000	-1.000000	-1.000000	-1.000000	-1.000000	62.000000	0.000000	-1.000000	-1.000000	304761.000000	1775765483.375154
596.385000	-14520.960000	23004.135000	25124.490000	32471.415000	8599.905000	9736.470000	-30980.745000	3.009314	3.697541	3.541693	3.067267	1.117135	-6.732813	-2.828937	1.312683	-0.274680	2.090620	-0.366240	-0.839842	-0.083984	0.521605	-1.000000	-1.000000	-1.000000	-1.000000	-1.000000	-1.000000	-1.000000	62.000000	0.000000	-1.000000	-1.000000	304762.000000	1775765483.375166
596.655000	-14517.675000	23009.580000	25130.250000	32471.685000	8532.405000	9735.525000	-30979.395000	6.500571	7.204521	6.681110	5.253189	1.816643	1.540279	-4.897833	4.071837	-0.274680	2.090620	-0.366240	-0.839842	-0.083984	0.521605	-1.000000	-1.000000	-1.000000	-1.000000	-1.000000	-1.000000	-1.000000	62.000000	0.000000	-1.000000	-1.000000	304763.000000	1775765483.378066
598.455000	-14517.720000	23010.165000	25131.420000	32474.835000	8539.380000	9730.575000	-30977.280000	6.726754	7.389042	6.695374	5.186928	1.828667	2.912503	-4.274870	4.991743	-0.274680	2.090620	-0.366240	-0.839842	-0.083984	0.521605	-1.000000	-1.000000	-1.000000	-1.000000	-1.000000	-1.000000	-1.000000	62.000000	0.000000	-1.000000	-1.000000	304764.000000	1775765483.378083
601.830000	-14519.205000	23006.790000	25128.495000	32474.655000	8557.695000	9730.260000	-30975.930000	4.197014	4.631211	4.011673	3.292847	1.388289	-2.292656	-2.246238	3.967923	-0.274680	2.090620	-0.366240	-0.839842	-0.083984	0.521605	-1.000000	-1.000000	-1.000000	-1.000000	-1.000000	-1.000000	-1.000000	62.000000	0.000000	-1.000000	-1.000000	304765.000000	1775765483.382133
597.780000	-14523.030000	23001.300000	25125.660000	32478.570000	8579.610000	9738.360000	-30981.240000	0.628528	0.356816	-0.204140	0.263339	0.794026	-4.674719	-0.065742	1.654020	-0.274680	2.090620	-0.366240	-0.839842	-0.083984	0.521605	-1.000000	-1.000000	-1.000000	-1.000000	-1.000000	-1.000000	-1.000000	62.000000	0.000000	-1.000000	-1.000000	304766.000000	1775765483.382158
593.145000	-14526.540000	22997.880000	25122.555000	32476.185000	8581.095000	9740.745000	-30988.260000	-2.618420	-3.734897	-4.418257	-2.944448	0.196199	1.072428	1.996969	-1.270543	-0.274680	2.090620	-0.366240	-0.839842	-0.083984	0.521605	-1.000000	-1.000000	-1.000000	-1.000000	-1.000000	-1.000000	-1.000000	62.000000	0.000000	-1.000000	-1.000000	304767.000000	1775765483.386714
596.115000	-14520.870000	23004.045000	25125.120000	32474.430000	8576.010000	9737.325000	-30984.120000	-4.790699	-6.068047	-6.820720	-5.047659	-0.486180	10.279363	3.583858	-3.940566	-0.274680	2.090620	-0.366240	-0.839842	-0.083984	0.521605	-1.000000	-1.000000	-1.000000	-1.000000	-1.000000	-1.000000	-1.000000	62.000000	0.000000	-1.000000	-1.000000	304768.000000	1775765483.386735
596.205000	-14513.670000	23012.865000	25135.020000	32482.305000	8581.095000	9735.120000	-30978.180000	-5.193326	-5.499669	-5.917751	-4.834063	-1.175972	14.828944	3.701940	-4.895997	-0.381500	2.273740	-0.396760	-0.839475	-0.082886	0.519896	-1.000000	-1.000000	-1.000000	-1.000000	-1.000000	-1.000000	-1.000000	62.000000	0.000000	-1.000000	-1.000000	304769.000000	1775765483.390874
594.810000	-14516.730000	23010.615000	25134.795000	32484.645000	8584.020000	9737.055000	-30971.835000	-3.658803	-2.281921	-1.925025	-2.087332	-1.269275	11.453555	2.009319	-3.112954	-0.381500	2.273740	-0.396760	-0.839475	-0.082886	0.519896	-1.000000	-1.000000	-1.000000	-1.000000	-1.000000	-1.000000	-1.000000	62.000000	0.000000	-1.000000	-1.000000	304770.000000	1775765483.390898
592.695000	-14531.130000	22994.415000	25116.300000	32466.195000	8588.925000	9738.540000	-30969.765000	-1.126028	1.216321	2.377789	1.271225	-0.834573	3.080068	-0.387410	0.570478	-0.381500	2.273740	-0.396760	-0.839475	-0.082886	0.519896	-1.000000	-1.000000	-1.000000	-1.000000	-1.000000	-1.000000	-1.000000	62.000000	0.000000	-1.000000	-1.000000	304771.000000	1775765483.396600
587.205000	-14537.790000	22986.495000	25105.050000	32449.905000	8576.730000	9730.080000	-30978.540000	0.987663	2.187033	3.593357	2.160341	-1.411823	-5.505930	-2.158857	3.655369	-0.381500	2.273740	-0.396760	-0.839475	-0.082886	0.519896	-1.000000	-1.000000	-1.000000	-1.000000	-1.000000	-1.000000	-1.000000	62.000000	0.000000	-1.000000	-1.000000	304772.000000	1775765483.396678
593.325000	-14526.945000	23000.220000	25120.395000	32465.160000	8573.130000	9727.200000	-30977.685000	1.943092	0.563868	1.498998	0.121336	-3.343234	-11.331422	-3.028968	3.898074	-0.381500	2.273740	-0.396760	-0.839475	-0.082886	0.519896	-1.000000	-1.000000	-1.000000	-1.000000	-1.000000	-1.000000	-1.000000	62.000000	0.000000	-1.000000	-1.000000	304773.000000	1775765483.398201
601.875000	-14514.840000	23013.495000	25135.470000	32479.830000	8580.285000	9730.215000	-30970.530000	2.311055	-0.624706	-0.364454	-1.337710	-3.701621	-13.141410	-3.107314	1.528557	-0.381500	2.273740	-0.396760	-0.839475	-0.082886	0.519896	-1.000000	-1.000000	-1.000000	-1.000000	-1.000000	-1.000000	-1.000000	62.000000	0.000000	-1.000000	-1.000000	304774.000000	1775765483.398221
601.830000	-14517.180000	23008.815000	25128.765000	32469.390000	8581.635000	9727.380000	-30970.890000	2.954484	0.878721	0.751197	0.606643	-0.215197	-10.393030	-2.137956	-1.070871	-0.381500	2.273740	-0.396760	-0.839475	-0.082886	0.519896	-1.000000	-1.000000	-1.000000	-1.000000	-1.000000	-1.000000	-1.000000	62.000000	0.000000	-1.000000	-1.000000	304775.000000	1775765483.413267
605.205000	-14516.730000	23007.735000	25125.255000	32464.575000	8570.835000	9729.180000	-30966.165000	3.533064	3.664486	3.323082	4.025979	4.599871	-4.391298	-0.231025	-2.078767	-0.381500	2.273740	-0.396760	-0.839475	-0.082886	0.519896	-1.000000	-1.000000	-1.000000	-1.000000	-1.000000	-1.000000	-1.000000	62.000000	0.000000	-1.000000	-1.000000	304776.000000	1775765483.413292
603.270000	-14517.405000	23008.095000	25128.180000	32464.980000	8562.645000	9728.820000	-30969.405000	2.994056	4.750318	4.123397	5.166983	6.550222	1.432200	1.815248	-1.558512	-0.381500	2.273740	-0.396760	-0.839475	-0.082886	0.519896	-1.000000	-1.000000	-1.000000	-1.000000	-1.000000	-1.000000	-1.000000	62.000000	0.000000	-1.000000	-1.000000	304777.000000	1775765483.413316
591.795000	-14528.745000	22996.935000	25118.820000	32450.805000	8580.060000	9735.570000	-30980.835000	0.772952	2.780973	1.962217	2.925417	4.437361	4.691263	3.251767	-0.852330	-0.381500	2.273740	-0.396760	-0.839475	-0.082886	0.519896	-1.000000	-1.000000	-1.000000	-1.000000	-1.000000	-1.000000	-1.000000	62.000000	0.000000	-1.000000	-1.000000	304778.000000	1775765483.413327
595.350000	-14524.695000	23002.380000	25124.580000	32454.180000	8573.535000	9744.570000	-30977.955000	-2.642817	-1.301092	-1.920776	-1.051047	0.029757	5.976726	3.948989	-1.142114	-1.785420	2.121140	-0.671440	-0.840818	-0.079834	0.519042	-1.000000	-1.000000	-1.000000	-1.000000	-1.000000	-1.000000	-1.000000	62.000000	0.000000	-1.000000	-1.000000	304779.000000	1775765483.413339
602.010000	-14515.425000	23013.135000	25134.345000	32463.360000	8560.620000	9741.555000	-30974.355000	-5.297126	-4.779416	-4.798698	-4.010011	-3.544850	6.037657	3.960038	-1.871591	-1.785420	2.121140	-0.671440	-0.840818	-0.079834	0.519042	-1.000000	-1.000000	-1.000000	-1.000000	-1.000000	-1.000000	-1.000000	62.000000	0.000000	-1.000000	-1.000000	304780.000000	1775765483.413347
598.050000	-14517.180000	23010.795000	25127.955000	32466.420000	8568.720000	9743.535000	-30975.570000	-5.171642	-5.112331	-4.442525	-4.064901	-3.693988	4.373552	2.842037	-1.512199	-1.785420	2.121140	-0.671440	-0.840818	-0.079834	0.519042	-1.000000	-1.000000	-1.000000	-1.000000	-1.000000	-1.000000	-1.000000	62.000000	0.000000	-1.000000	-1.000000	304781.000000	1775765483.413357
587.160000	-14527.755000	23000.310000	25116.075000	32460.615000	8584.605000	9735.885000	-30984.705000	-2.726629	-2.691860	-1.689138	-2.228300	-0.826243	1.944809	0.246011	0.024162	-1.785420	2.121140	-0.671440	-0.840818	-0.079834	0.519042	-1.000000	-1.000000	-1.000000	-1.000000	-1.000000	-1.000000	-1.000000	62.000000	0.000000	-1.000000	-1.000000	304782.000000	1775765483.413367
593.730000	-14520.825000	23008.140000	25127.865000	32465.790000	8565.660000	9734.445000	-30979.440000	-0.176051	-0.094439	0.676774	-0.806772	2.165680	0.613290	-3.209559	1.417082	-1.785420	2.121140	-0.671440	-0.840818	-0.079834	0.519042	-1.000000	-1.000000	-1.000000	-1.000000	-1.000000	-1.000000	-1.000000	62.000000	0.000000	-1.000000	-1.000000	304783.000000	1775765483.418865
594.270000	-14523.075000	23006.025000	25127.010000	32465.430000	8546.715000	9729.540000	-30975.210000	1.472175	1.258718	1.449831	-0.123794	3.158999	-0.449995	-6.069953	2.101138	-1.785420	2.121140	-0.671440	-0.840818	-0.079834	0.519042	-1.000000	-1.000000	-1.000000	-1.000000	-1.000000	-1.000000	-1.000000	62.000000	0.000000	-1.000000	-1.000000	304784.000000	1775765483.418888
591.660000	-14524.920000	23005.125000	25123.680000	32459.355000	8583.570000	9727.605000	-30980.385000	2.532738	1.621401	1.265326	0.655651	2.014025	-2.449923	-6.916954	2.438033	-1.785420	2.121140	-0.671440	-0.840818	-0.079834	0.519042	-1.000000	-1.000000	-1.000000	-1.000000	-1.000000	-1.000000	-1.000000	62.000000	0.000000	-1.000000	-1.000000	304785.000000	1775765483.428408
583.785000	-14531.040000	23000.670000	25120.395000	32458.680000	8589.645000	9735.255000	-30991.905000	2.852645	1.297731	0.698303	1.288320	-0.442597	-2.934367	-5.117630	2.086092	-1.785420	2.121140	-0.671440	-0.840818	-0.079834	0.519042	-1.000000	-1.000000	-1.000000	-1.000000	-1.000000	-1.000000	-1.000000	62.000000	0.000000	-1.000000	-1.000000	304786.000000	1775765483.428432
576.630000	-14538.645000	22991.310000	25110.360000	32454.765000	8585.595000	9729.720000	-31003.740000	1.848959	0.294973	-0.218921	0.972258	-2.940557	-0.046083	-1.176342	0.193266	-1.785420	2.121140	-0.671440	-0.840818	-0.079834	0.519042	-1.000000	-1.000000	-1.000000	-1.000000	-1.000000	-1.000000	-1.000000	62.000000	0.000000	-1.000000	-1.000000	304787.000000	1775765483.428457
581.445000	-14533.740000	22994.055000	25107.660000	32451.210000	8616.060000	9726.615000	-30997.170000	-0.092950	-0.943872	-1.329501	-0.388951	-4.248643	3.831453	3.002370	-2.634006	-1.785420	2.121140	-0.671440	-0.840818	-0.079834	0.519042	-1.000000	-1.000000	-1.000000	-1.000000	-1.000000	-1.000000	-1.000000	62.000000	0.000000	-1.000000	-1.000000	304788.000000	1775765483.428467
589.995000	-14524.425000	23005.080000	25118.235000	32460.975000	8623.935000	9732.330000	-30982.860000	-1.228944	-1.135647	-1.595956	-1.608285	-3.684737	6.118078	5.352895	-3.759654	-2.441600	2.243220	0.061040	-0.841123	-0.078491	0.519469	-1.000000	-1.000000	-1.000000	-1.000000	-1.000000	-1.000000	-1.000000	62.000000	0.000000	-1.000000	-1.000000	304789.000000	1775765483.433560
596.475000	-14519.295000	23012.955000	25127.325000	32468.805000	8612.595000	9746.280000	-30974.625000	-0.107997	0.688325	0.194315	-0.844221	-1.044267	5.610638	5.721062	-1.078060	-2.441600	2.243220	0.061040	-0.841123	-0.078491	0.519469	-1.000000	-1.000000	-1.000000	-1.000000	-1.000000	-1.000000	-1.000000	62.000000	0.000000	-1.000000	-1.000000	304790.000000	1775765483.433624
596.160000	-14524.065000	23003.505000	25122.195000	32458.905000	8590.410000	9764.820000	-30967.470000	2.535067	3.451949	3.264911	2.049027	2.627643	0.882526	5.606579	4.138069	-2.441600	2.243220	0.061040	-0.841123	-0.078491	0.519469	-1.000000	-1.000000	-1.000000	-1.000000	-1.000000	-1.000000	-1.000000	62.000000	0.000000	-1.000000	-1.000000	304791.000000	1775765483.433654
589.455000	-14527.170000	22999.995000	25125.255000	32464.170000	8603.910000	9765.180000	-30971.610000	4.156714	4.592236	4.765520	4.676744	4.890758	-7.249493	5.734012	7.989267	-2.441600	2.243220	0.061040	-0.841123	-0.078491	0.519469	-1.000000	-1.000000	-1.000000	-1.000000	-1.000000	-1.000000	-1.000000	62.000000	0.000000	-1.000000	-1.000000	304792.000000	1775765483.433667
590.220000	-14524.380000	23006.520000	25130.160000	32470.245000	8582.580000	9758.610000	-30972.555000	2.849393	2.793571	3.067080	4.828705	4.445281	-14.079194	4.611269	7.280301	-2.441600	2.243220	0.061040	-0.841123	-0.078491	0.519469	-1.000000	-1.000000	-1.000000	-1.000000	-1.000000	-1.000000	-1.000000	62.000000	0.000000	-1.000000	-1.000000	304793.000000	1775765483.436369
587.250000	-14528.970000	23002.245000	25121.655000	32457.195000	8547.120000	9736.605000	-30977.820000	-0.762452	-0.727635	-0.353253	2.478255	2.111420	-15.987630	0.128046	2.001312	-2.441600	2.243220	0.061040	-0.841123	-0.078491	0.519469	-1.000000	-1.000000	-1.000000	-1.000000	-1.000000	-1.000000	-1.000000	62.000000	0.000000	-1.000000	-1.000000	304794.000000	1775765483.436385
584.010000	-14530.140000	23003.595000	25122.960000	32459.580000	8569.980000	9738.045000	-30985.110000	-4.360123	-3.838598	-3.117556	-1.171742	-1.001457	-13.041426	-7.252638	-4.988893	-2.441600	2.243220	0.061040	-0.841123	-0.078491	0.519469	-1.000000	-1.000000	-1.000000	-1.000000	-1.000000	-1.000000	-1.000000	62.000000	0.000000	-1.000000	-1.000000	304795.000000	1775765483.440279
587.655000	-14521.545000	23014.395000	25134.885000	32473.395000	8586.585000	9742.770000	-30989.070000	-5.954797	-5.002437	-3.877442	-4.268057	-3.490362	-5.136200	-13.305638	-10.205405	-2.441600	2.243220	0.061040	-0.841123	-0.078491	0.519469	-1.000000	-1.000000	-1.000000	-1.000000	-1.000000	-1.000000	-1.000000	62.000000	0.000000	-1.000000	-1.000000	304796.000000	1775765483.440297
587.970000	-14521.770000	23013.360000	25134.885000	32473.260000	8584.695000	9743.400000	-30987.540000	-4.806401	-3.625998	-2.396063	-4.864863	-3.561268	7.082093	-13.382397	-11.278319	-2.441600	2.243220	0.061040	-0.841123	-0.078491	0.519469	-1.000000	-1.000000	-1.000000	-1.000000	-1.000000	-1.000000	-1.000000	62.000000	0.000000	-1.000000	-1.000000	304797.000000	1775765483.447196
589.185000	-14526.180000	23006.385000	25125.120000	32463.630000	8578.800000	9744.660000	-30979.440000	-1.628401	-0.704025	0.001217	-3.086517	-1.486591	18.217381	-7.019634	-7.611043	-2.441600	2.243220	0.061040	-0.841123	-0.078491	0.519469	-1.000000	-1.000000	-1.000000	-1.000000	-1.000000	-1.000000	-1.000000	62.000000	0.000000	-1.000000	-1.000000	304798.000000	1775765483.447222
594.855000	-14527.485000	23000.670000	25116.525000	32454.360000	8579.295000	9748.665000	-30970.260000	1.927276	1.621711	1.077818	-1.323087	0.094113	21.697424	2.012033	-0.542250	-0.839300	1.419180	-0.518840	-0.839048	-0.082397	0.521605	-1.000000	-1.000000	-1.000000	-1.000000	-1.000000	-1.000000	-1.000000	62.000000	0.000000	-1.000000	-1.000000	304799.000000	1775765483.449792
596.025000	-14526.180000	23001.795000	25118.370000	32457.465000	8579.160000	9746.550000	-30968.370000	4.406102	2.130249	0.060703	-1.168011	-0.426429	16.059543	9.138021	6.916460	-0.839300	1.419180	-0.518840	-0.839048	-0.082397	0.521605	-1.000000	-1.000000	-1.000000	-1.000000	-1.000000	-1.000000	-1.000000	62.000000	0.000000	-1.000000	-1.000000	304800.000000	1775765483.449821
596.475000	-14520.915000	23010.030000	25127.415000	32466.375000	8583.210000	9748.800000	-30969.180000	5.005205	1.447816	-1.438567	-1.485141	-1.591356	5.408220	11.598365	11.197766	-0.839300	1.419180	-0.518840	-0.839048	-0.082397	0.521605	-1.000000	-1.000000	-1.000000	-1.000000	-1.000000	-1.000000	-1.000000	62.000000	0.000000	-1.000000	-1.000000	304801.000000	1775765483.456314
592.335000	-14524.155000	23008.005000	25125.210000	32462.595000	8580.330000	9744.210000	-30974.805000	3.527947	0.787137	-1.386692	-0.338079	-1.124939	-4.614425	9.260539	10.157416	-0.839300	1.419180	-0.518840	-0.839048	-0.082397	0.521605	-1.000000	-1.000000	-1.000000	-1.000000	-1.000000	-1.000000	-1.000000	62.000000	0.000000	-1.000000	-1.000000	304802.000000	1775765483.456338
588.555000	-14529.105000	23003.055000	25122.060000	32460.480000	8581.680000	9740.340000	-30979.620000	0.497507	0.387728	0.202289	2.095931	0.925562	-10.438267	3.943165	4.458018	-0.839300	1.419180	-0.518840	-0.839048	-0.082397	0.521605	-1.000000	-1.000000	-1.000000	-1.000000	-1.000000	-1.000000	-1.000000	62.000000	0.000000	-1.000000	-1.000000	304803.000000	1775765483.457814
584.730000	-14532.930000	23000.400000	25118.730000	32457.555000	8579.475000	9735.840000	-30983.490000	-2.860772	-0.319461	1.553041	3.794547	2.608580	-11.431378	-1.864510	-2.856502	-0.839300	1.419180	-0.518840	-0.839048	-0.082397	0.521605	-1.000000	-1.000000	-1.000000	-1.000000	-1.000000	-1.000000	-1.000000	62.000000	0.000000	-1.000000	-1.000000	304804.000000	1775765483.457835
588.330000	-14534.820000	22997.655000	25115.490000	32457.015000	8578.125000	9743.625000	-30976.920000	-4.964614	-1.403313	1.475601	3.398684	2.636066	-8.919286	-5.765080	-8.030356	-0.839300	1.419180	-0.518840	-0.839048	-0.082397	0.521605	-1.000000	-1.000000	-1.000000	-1.000000	-1.000000	-1.000000	-1.000000	62.000000	0.000000	-1.000000	-1.000000	304805.000000	1775765483.468301
593.100000	-14532.390000	22997.025000	25113.285000	32454.585000	8582.625000	9743.985000	-30973.230000	-4.559445	-2.055892	0.372985	1.336655	1.320180	-4.802117	-6.175127	-8.541561	-0.839300	1.419180	-0.518840	-0.839048	-0.082397	0.521605	-1.000000	-1.000000	-1.000000	-1.000000	-1.000000	-1.000000	-1.000000	62.000000	0.000000	-1.000000	-1.000000	304806.000000	1775765483.468326
590.265000	-14532.255000	22999.410000	25114.995000	32455.080000	8596.170000	9743.175000	-30976.560000	-1.761202	-1.458260	-0.561397	-0.876489	-0.242381	-0.324337	-3.479955	-4.732216	-0.839300	1.419180	-0.518840	-0.839048	-0.082397	0.521605	-1.000000	-1.000000	-1.000000	-1.000000	-1.000000	-1.000000	-1.000000	62.000000	0.000000	-1.000000	-1.000000	304807.000000	1775765483.468352
586.125000	-14530.545000	23005.485000	25123.005000	32463.360000	8592.030000	9743.535000	-30978.135000	1.557233	0.284952	-0.365119	-1.706778	-0.963677	3.740989	0.108055	0.396959	-0.839300	1.419180	-0.518840	-0.839048	-0.082397	0.521605	-1.000000	-1.000000	-1.000000	-1.000000	-1.000000	-1.000000	-1.000000	62.000000	0.000000	-1.000000	-1.000000	304808.000000	1775765483.468364
587.655000	-14525.280000	23011.740000	25125.255000	32455.845000	8526.690000	9742.770000	-30976.695000	3.301580	2.267321	1.090174	-0.575688	-0.442030	4.841437	2.451812	3.788782	1.922760	2.548420	-0.396760	-0.836973	-0.086365	0.522460	-1.000000	-1.000000	-1.000000	-1.000000	-1.000000	-1.000000	-1.000000	62.000000	0.000000	-1.000000	-1.000000	304809.000000	1775765483.469856
587.700000	-14525.055000	23012.280000	25124.805000	32455.980000	8528.760000	9743.535000	-30978.405000	3.021585	3.557076	2.891898	1.501184	0.453549	-0.010065	2.826270	4.449834	1.922760	2.548420	-0.396760	-0.836973	-0.086365	0.522460	-1.000000	-1.000000	-1.000000	-1.000000	-1.000000	-1.000000	-1.000000	62.000000	0.000000	-1.000000	-1.000000	304810.000000	1775765483.469878
594.585000	-14517.855000	23019.705000	25132.995000	32467.185000	8559.945000	9749.655000	-30972.870000	1.816844	3.633632	3.672702	2.795674	0.802549	-7.210804	1.877659	3.218474	1.922760	2.548420	-0.396760	-0.836973	-0.086365	0.522460	-1.000000	-1.000000	-1.000000	-1.000000	-1.000000	-1.000000	-1.000000	62.000000	0.000000	-1.000000	-1.000000	304811.000000	1775765483.473692
580.860000	-14534.235000	23003.415000	25119.945000	32460.345000	8596.485000	9748.125000	-30982.770000	0.682784	2.254138	2.478054	2.307179	0.797621	-7.318981	0.757899	1.361032	1.922760	2.548420	-0.396760	-0.836973	-0.086365	0.522460	-1.000000	-1.000000	-1.000000	-1.000000	-1.000000	-1.000000	-1.000000	62.000000	0.000000	-1.000000	-1.000000	304812.000000	1775765483.473717
577.305000	-14540.445000	22996.665000	25116.165000	32460.120000	8597.205000	9752.400000	-30983.355000	-0.579770	-0.774445	-0.954853	-0.124206	0.530148	3.036285	0.053844	-0.515234	1.922760	2.548420	-0.396760	-0.836973	-0.086365	0.522460	-1.000000	-1.000000	-1.000000	-1.000000	-1.000000	-1.000000	-1.000000	62.000000	0.000000	-1.000000	-1.000000	304813.000000	1775765483.476325
579.105000	-14536.800000	23000.940000	25120.935000	32464.845000	8598.600000	9749.340000	-30984.840000	-2.137149	-4.525966	-5.313767	-3.448625	-0.240332	15.816505	-0.370170	-2.093687	1.922760	2.548420	-0.396760	-0.836973	-0.086365	0.522460	-1.000000	-1.000000	-1.000000	-1.000000	-1.000000	-1.000000	-1.000000	62.000000	0.000000	-1.000000	-1.000000	304814.000000	1775765483.476343
580.995000	-14533.560000	23004.360000	25124.310000	32466.195000	8583.615000	9747.945000	-30985.110000	-2.893647	-6.438305	-7.564502	-5.281073	-1.013723	19.976652	-0.881863	-2.730308	1.922760	2.548420	-0.396760	-0.836973	-0.086365	0.522460	-1.000000	-1.000000	-1.000000	-1.000000	-1.000000	-1.000000	-1.000000	62.000000	0.000000	-1.000000	-1.000000	304815.000000	1775765483.481586
590.670000	-14523.570000	23014.260000	25132.860000	32470.875000	8573.535000	9750.375000	-30976.425000	-1.696046	-4.593096	-5.555292	-3.944966	-1.087879	11.553254	-1.552705	-1.888076	1.922760	2.548420	-0.396760	-0.836973	-0.086365	0.522460	-1.000000	-1.000000	-1.000000	-1.000000	-1.000000	-1.000000	-1.000000	62.000000	0.000000	-1.000000	-1.000000	304816.000000	1775765483.481608
590.625000	-14525.415000	23012.685000	25128.945000	32461.515000	8563.905000	9747.720000	-30975.030000	1.169922	0.176276	-0.238971	-0.232266	-0.643666	-4.319322	-1.952995	0.318445	1.922760	2.548420	-0.396760	-0.836973	-0.086365	0.522460	-1.000000	-1.000000	-1.000000	-1.000000	-1.000000	-1.000000	-1.000000	62.000000	0.000000	-1.000000	-1.000000	304817.000000	1775765483.490291
585.315000	-14531.715000	23005.215000	25119.585000	32450.400000	8551.035000	9744.705000	-30980.340000	3.792769	4.675092	4.870474	3.047387	-0.779604	-18.404659	-1.792321	2.667390	1.922760	2.548420	-0.396760	-0.836973	-0.086365	0.522460	-1.000000	-1.000000	-1.000000	-1.000000	-1.000000	-1.000000	-1.000000	62.000000	0.000000	-1.000000	-1.000000	304818.000000	1775765483.490316
588.420000	-14527.800000	23009.625000	25123.950000	32458.455000	8562.420000	9744.885000	-30979.530000	4.109655	5.941388	6.525441	3.519505	-1.959542	-23.514937	-1.247782	3.386789	0.518840	2.014320	-0.061040	-0.838316	-0.083618	0.523070	-1.000000	-1.000000	-1.000000	-1.000000	-1.000000	-1.000000	-1.000000	62.000000	0.000000	-1.000000	-1.000000	304819.000000	1775765483.490340
588.960000	-14523.345000	23017.005000	25133.985000	32472.990000	8607.690000	9753.345000	-30981.195000	2.010893	3.918303	4.650424	1.769489	-2.472473	-16.829038	-0.317037	1.951412	0.518840	2.014320	-0.061040	-0.838316	-0.083618	0.523070	-1.000000	-1.000000	-1.000000	-1.000000	-1.000000	-1.000000	-1.000000	62.000000	0.000000	-1.000000	-1.000000	304820.000000	1775765483.490352
593.145000	-14518.890000	23021.055000	25136.190000	32473.755000	8605.845000	9764.865000	-30976.110000	-0.759187	0.917057	1.745724	0.314343	-0.393527	-0.812796	1.405681	-0.397206	0.518840	2.014320	-0.061040	-0.838316	-0.083618	0.523070	-1.000000	-1.000000	-1.000000	-1.000000	-1.000000	-1.000000	-1.000000	62.000000	0.000000	-1.000000	-1.000000	304821.000000	1775765483.494338
590.715000	-14522.670000	23016.330000	25129.080000	32463.585000	8575.830000	9757.305000	-30977.775000	-2.539093	-1.178431	-0.325989	0.154477	3.058302	15.127070	3.574792	-1.998889	0.518840	2.014320	-0.061040	-0.838316	-0.083618	0.523070	-1.000000	-1.000000	-1.000000	-1.000000	-1.000000	-1.000000	-1.000000	62.000000	0.000000	-1.000000	-1.000000	304822.000000	1775765483.494364
588.870000	-14521.815000	23018.220000	25132.230000	32468.895000	8589.555000	9745.020000	-30981.195000	-2.972947	-2.189859	-1.603646	0.153502	4.631424	20.310500	4.199131	-2.274311	0.518840	2.014320	-0.061040	-0.838316	-0.083618	0.523070	-1.000000	-1.000000	-1.000000	-1.000000	-1.000000	-1.000000	-1.000000	62.000000	0.000000	-1.000000	-1.000000	304823.000000	1775765483.496936
579.375000	-14532.210000	23009.130000	25125.435000	32464.305000	8597.745000	9737.235000	-30989.205000	-2.776529	-2.799432	-2.712044	-0.638444	3.082462	13.414888	1.534683	-1.949684	0.518840	2.014320	-0.061040	-0.838316	-0.083618	0.523070	-1.000000	-1.000000	-1.000000	-1.000000	-1.000000	-1.000000	-1.000000	62.000000	0.000000	-1.000000	-1.000000	304824.000000	1775765483.496956
581.580000	-14528.565000	23011.335000	25125.930000	32460.255000	8593.155000	9734.310000	-30990.420000	-2.607027	-3.365244	-3.718146	-1.921206	-0.177380	2.021651	-3.250429	-1.852001	0.518840	2.014320	-0.061040	-0.838316	-0.083618	0.523070	-1.000000	-1.000000	-1.000000	-1.000000	-1.000000	-1.000000	-1.000000	62.000000	0.000000	-1.000000	-1.000000	304825.000000	1775765483.502329
583.335000	-14526.900000	23012.955000	25124.940000	32453.685000	8568.360000	9744.435000	-30987.315000	-2.130579	-3.310855	-3.930183	-2.772803	-3.274899	-7.224761	-6.548584	-1.742333	0.518840	2.014320	-0.061040	-0.838316	-0.083618	0.523070	-1.000000	-1.000000	-1.000000	-1.000000	-1.000000	-1.000000	-1.000000	62.000000	0.000000	-1.000000	-1.000000	304826.000000	1775765483.502352
