Channel1	Channel2	Channel3	Channel4	Channel5	Channel6	Channel7	Channel8	FilteredChannel1	FilteredChannel2	FilteredChannel3	FilteredChannel4	FilteredChannel5	FilteredChannel6	FilteredChannel7	FilteredChannel8	GyroX	GyroY	GyroZ	AccX	AccY	AccZ	PPG1	PPG2	rawPPG1	rawPPG2	rawPPG3	Hr	Hrv	Battery	Trigger	PhysicalTrigger	AutoTrigger	NumMeasurements	Timestamp
3585.060000	-6236.235000	23268.915000	58588.920000	43958.295000	31020.705000	-313.200000	3.915000	-3.922067	1.853694	8.408998	6.574404	10.492924	11.818776	3.051839	-0.838499	-1.419180	0.900340	0.335720	-0.838255	0.007141	0.537047	-1.000000	-1.000000	-1.000000	-1.000000	-1.000000	-1.000000	-1.000000	54.000000	0.000000	-1.000000	-1.000000	2649955.000000	1776581704.231616
3589.335000	-6246.945000	23248.575000	58578.435000	43956.405000	31022.235000	-308.970000	10.035000	-4.818751	2.572813	12.042607	7.510215	13.341347	12.549395	0.495566	-2.930119	-1.419180	0.900340	0.335720	-0.838255	0.007141	0.537047	-1.000000	-1.000000	-1.000000	-1.000000	-1.000000	-1.000000	-1.000000	54.000000	0.000000	-1.000000	-1.000000	2649956.000000	1776581704.235598
3588.480000	-6249.015000	23245.785000	58578.210000	43962.615000	31024.665000	-307.620000	9.810000	-3.101508	3.014500	11.008080	5.257362	9.932792	5.378465	-1.994551	-3.065691	-1.419180	0.900340	0.335720	-0.838255	0.007141	0.537047	-1.000000	-1.000000	-1.000000	-1.000000	-1.000000	-1.000000	-1.000000	54.000000	0.000000	-1.000000	-1.000000	2649957.000000	1776581704.235606
3591.810000	-6241.680000	23250.060000	58569.660000	43947.360000	31003.515000	-310.365000	9.495000	0.458655	2.110657	4.809582	0.679548	3.245424	-4.528159	-2.809031	-1.186832	-1.419180	0.900340	0.335720	-0.838255	0.007141	0.537047	-1.000000	-1.000000	-1.000000	-1.000000	-1.000000	-1.000000	-1.000000	54.000000	0.000000	-1.000000	-1.000000	2649958.000000	1776581704.239740
3596.670000	-6232.905000	23257.710000	58569.750000	43934.985000	30987.450000	-305.415000	14.895000	4.094382	0.922020	-2.368426	-3.736746	-3.440190	-12.162417	-1.849147	1.337793	-1.419180	0.900340	0.335720	-0.838255	0.007141	0.537047	-1.000000	-1.000000	-1.000000	-1.000000	-1.000000	-1.000000	-1.000000	54.000000	0.000000	-1.000000	-1.000000	2649959.000000	1776581704.239772
3593.970000	-6241.185000	23247.045000	58563.270000	43922.070000	30974.220000	-306.270000	15.885000	6.171913	0.657957	-6.245034	-5.833093	-8.370479	-15.357944	-0.062273	3.150588	-1.419180	0.900340	0.335720	-0.838255	0.007141	0.537047	-1.000000	-1.000000	-1.000000	-1.000000	-1.000000	-1.000000	-1.000000	54.000000	0.000000	-1.000000	-1.000000	2649960.000000	1776581704.243729
3599.055000	-6235.965000	23254.560000	58577.805000	43950.645000	30997.485000	-305.505000	18.720000	5.839516	0.737389	-6.183074	-4.740459	-9.708535	-12.903481	1.472001	3.613653	-1.419180	0.900340	0.335720	-0.838255	0.007141	0.537047	-1.000000	-1.000000	-1.000000	-1.000000	-1.000000	-1.000000	-1.000000	54.000000	0.000000	-1.000000	-1.000000	2649961.000000	1776581704.243747
3597.975000	-6236.955000	23255.730000	58581.855000	43969.185000	31029.075000	-302.535000	17.235000	3.433123	0.186838	-3.771424	-0.799774	-5.235984	-3.803554	2.026081	2.648081	-0.991900	1.892240	-1.709120	-0.839414	0.008423	0.534545	-1.000000	-1.000000	-1.000000	-1.000000	-1.000000	-1.000000	-1.000000	54.000000	0.000000	-1.000000	-1.000000	2649962.000000	1776581704.247588
3595.230000	-6240.240000	23254.110000	58582.665000	43984.305000	31069.710000	-289.620000	17.235000	0.118573	-0.971092	-0.701562	4.135519	4.284922	10.493327	1.819710	0.639969	-0.991900	1.892240	-1.709120	-0.839414	0.008423	0.534545	-1.000000	-1.000000	-1.000000	-1.000000	-1.000000	-1.000000	-1.000000	54.000000	0.000000	-1.000000	-1.000000	2649963.000000	1776581704.247597
3595.545000	-6238.170000	23256.810000	58589.370000	43984.755000	31073.175000	-288.315000	18.495000	-2.937995	-2.199758	1.569244	7.231514	13.319662	23.936928	1.645926	-1.593276	-0.991900	1.892240	-1.709120	-0.839414	0.008423	0.534545	-1.000000	-1.000000	-1.000000	-1.000000	-1.000000	-1.000000	-1.000000	54.000000	0.000000	-1.000000	-1.000000	2649964.000000	1776581704.251534
3584.115000	-6250.680000	23239.935000	58581.450000	43978.095000	31055.535000	-295.740000	9.135000	-4.955185	-3.037213	2.030039	6.708790	15.403559	27.672163	1.351017	-3.241032	-0.991900	1.892240	-1.709120	-0.839414	0.008423	0.534545	-1.000000	-1.000000	-1.000000	-1.000000	-1.000000	-1.000000	-1.000000	54.000000	0.000000	-1.000000	-1.000000	2649965.000000	1776581704.251543
3586.680000	-6251.355000	23237.685000	58580.100000	43972.245000	31034.880000	-303.795000	8.505000	-5.627651	-3.386549	0.409840	2.772329	8.398393	16.453055	-0.258022	-4.040212	-0.991900	1.892240	-1.709120	-0.839414	0.008423	0.534545	-1.000000	-1.000000	-1.000000	-1.000000	-1.000000	-1.000000	-1.000000	54.000000	0.000000	-1.000000	-1.000000	2649966.000000	1776581704.255778
3601.620000	-6233.985000	23260.185000	58583.205000	43961.895000	31010.175000	-310.320000	16.875000	-4.438337	-2.750140	-1.725323	-2.575945	-3.995187	-5.752287	-3.429084	-3.707138	-0.991900	1.892240	-1.709120	-0.839414	0.008423	0.534545	-1.000000	-1.000000	-1.000000	-1.000000	-1.000000	-1.000000	-1.000000	54.000000	0.000000	-1.000000	-1.000000	2649967.000000	1776581704.255792
3602.115000	-6230.520000	23272.245000	58584.330000	43950.645000	31004.010000	-309.870000	15.885000	-0.879737	-0.082066	-1.258916	-6.400420	-15.249660	-27.452740	-6.416179	-1.732680	-0.991900	1.892240	-1.709120	-0.839414	0.008423	0.534545	-1.000000	-1.000000	-1.000000	-1.000000	-1.000000	-1.000000	-1.000000	54.000000	0.000000	-1.000000	-1.000000	2649968.000000	1776581704.259648
3591.630000	-6237.270000	23267.520000	58587.975000	43954.830000	31020.210000	-306.090000	8.460000	3.461755	3.812145	2.422836	-6.849324	-20.026499	-36.699401	-6.780338	1.159903	-0.991900	1.892240	-1.709120	-0.839414	0.008423	0.534545	-1.000000	-1.000000	-1.000000	-1.000000	-1.000000	-1.000000	-1.000000	54.000000	0.000000	-1.000000	-1.000000	2649969.000000	1776581704.259670
3594.870000	-6237.495000	23263.695000	58590.630000	43961.130000	31028.085000	-300.465000	13.815000	5.471402	5.933869	5.686186	-4.256132	-16.170525	-28.205669	-3.487127	3.123632	-0.991900	1.892240	-1.709120	-0.839414	0.008423	0.534545	-1.000000	-1.000000	-1.000000	-1.000000	-1.000000	-1.000000	-1.000000	54.000000	0.000000	-1.000000	-1.000000	2649970.000000	1776581704.266427
3596.760000	-6244.695000	23259.195000	58590.270000	43967.385000	31026.330000	-298.845000	17.685000	4.123854	4.413049	4.856115	-0.469994	-5.449014	-7.083967	2.060763	3.446386	-0.991900	1.892240	-1.709120	-0.839414	0.008423	0.534545	-1.000000	-1.000000	-1.000000	-1.000000	-1.000000	-1.000000	-1.000000	54.000000	0.000000	-1.000000	-1.000000	2649971.000000	1776581704.266435
3588.120000	-6260.130000	23244.795000	58578.615000	43959.735000	31019.490000	-308.925000	9.315000	1.062722	0.020990	-0.098712	2.211072	6.827862	14.455304	6.684524	2.711449	1.861720	2.334780	-1.068200	-0.838255	0.009521	0.533812	-1.000000	-1.000000	-1.000000	-1.000000	-1.000000	-1.000000	-1.000000	54.000000	0.000000	-1.000000	-1.000000	2649972.000000	1776581704.267595
3581.100000	-6261.120000	23232.240000	58563.315000	43957.035000	31029.570000	-309.195000	5.130000	-2.013929	-4.964172	-6.442679	2.055046	14.551219	25.998504	7.567678	1.168397	1.861720	2.334780	-1.068200	-0.838255	0.009521	0.533812	-1.000000	-1.000000	-1.000000	-1.000000	-1.000000	-1.000000	-1.000000	54.000000	0.000000	-1.000000	-1.000000	2649973.000000	1776581704.267602
3588.705000	-6243.570000	23225.535000	58560.885000	43955.370000	31029.165000	-304.425000	9.990000	-4.024690	-7.376933	-10.839873	-0.737461	14.769898	25.110632	4.712437	-0.883430	1.861720	2.334780	-1.068200	-0.838255	0.009521	0.533812	-1.000000	-1.000000	-1.000000	-1.000000	-1.000000	-1.000000	-1.000000	54.000000	0.000000	-1.000000	-1.000000	2649974.000000	1776581704.271709
3579.660000	-6252.525000	23235.570000	58573.215000	43958.880000	31017.870000	-310.860000	2.250000	-4.005489	-4.974751	-10.541139	-3.326477	9.253887	15.620392	0.653324	-2.359290	1.861720	2.334780	-1.068200	-0.838255	0.009521	0.533812	-1.000000	-1.000000	-1.000000	-1.000000	-1.000000	-1.000000	-1.000000	54.000000	0.000000	-1.000000	-1.000000	2649975.000000	1776581704.271719
3575.835000	-6250.590000	23251.050000	58583.385000	43969.995000	31020.795000	-308.655000	-0.180000	-2.178380	0.657022	-4.463036	-2.316026	2.447895	3.011852	-2.339794	-2.621431	1.861720	2.334780	-1.068200	-0.838255	0.009521	0.533812	-1.000000	-1.000000	-1.000000	-1.000000	-1.000000	-1.000000	-1.000000	54.000000	0.000000	-1.000000	-1.000000	2649976.000000	1776581704.277242
3587.175000	-6239.385000	23265.360000	58588.785000	43970.805000	31024.530000	-307.170000	5.400000	0.264474	5.671940	5.545755	2.617333	-1.939605	-7.463617	-3.423726	-1.855118	1.861720	2.334780	-1.068200	-0.838255	0.009521	0.533812	-1.000000	-1.000000	-1.000000	-1.000000	-1.000000	-1.000000	-1.000000	54.000000	0.000000	-1.000000	-1.000000	2649977.000000	1776581704.277263
3598.065000	-6228.675000	23273.415000	58599.360000	43971.570000	31023.810000	-307.260000	11.790000	2.931586	8.058723	14.790968	8.175034	-3.208769	-12.185186	-2.698960	-0.115666	1.861720	2.334780	-1.068200	-0.838255	0.009521	0.533812	-1.000000	-1.000000	-1.000000	-1.000000	-1.000000	-1.000000	-1.000000	54.000000	0.000000	-1.000000	-1.000000	2649978.000000	1776581704.279889
3604.230000	-6224.715000	23275.665000	58605.705000	43971.390000	31023.315000	-306.045000	15.480000	5.688559	7.868264	18.222605	10.636835	-3.007292	-10.975307	-1.003947	2.344010	1.861720	2.334780	-1.068200	-0.838255	0.009521	0.533812	-1.000000	-1.000000	-1.000000	-1.000000	-1.000000	-1.000000	-1.000000	54.000000	0.000000	-1.000000	-1.000000	2649979.000000	1776581704.279908
3602.610000	-6226.065000	23279.490000	58617.585000	43976.295000	31014.720000	-306.495000	15.345000	7.163238	5.325154	13.739439	8.663396	-2.826004	-6.580663	0.562001	4.326740	1.861720	2.334780	-1.068200	-0.838255	0.009521	0.533812	-1.000000	-1.000000	-1.000000	-1.000000	-1.000000	-1.000000	-1.000000	54.000000	0.000000	-1.000000	-1.000000	2649980.000000	1776581704.283730
3596.760000	-6233.040000	23267.835000	58602.555000	43972.110000	31012.470000	-305.145000	13.095000	5.532526	0.619164	3.355581	3.137647	-2.909272	-2.256764	1.310997	4.352854	1.861720	2.334780	-1.068200	-0.838255	0.009521	0.533812	-1.000000	-1.000000	-1.000000	-1.000000	-1.000000	-1.000000	-1.000000	54.000000	0.000000	-1.000000	-1.000000	2649981.000000	1776581704.283738
3585.555000	-6248.520000	23242.500000	58563.090000	43961.175000	31024.395000	-304.920000	8.370000	0.455877	-5.383892	-8.846880	-4.948455	-3.200096	0.603356	1.185647	1.945843	-0.686700	1.999060	2.090620	-0.837950	0.010010	0.533995	-1.000000	-1.000000	-1.000000	-1.000000	-1.000000	-1.000000	-1.000000	54.000000	0.000000	-1.000000	-1.000000	2649982.000000	1776581704.287654
3581.010000	-6259.410000	23236.875000	58554.720000	43957.125000	31044.600000	-304.290000	5.355000	-6.109419	-10.932694	-18.742734	-14.287075	-3.817203	3.041538	0.549513	-1.872083	-0.686700	1.999060	2.090620	-0.837950	0.010010	0.533995	-1.000000	-1.000000	-1.000000	-1.000000	-1.000000	-1.000000	-1.000000	54.000000	0.000000	-1.000000	-1.000000	2649983.000000	1776581704.287662
3591.765000	-6262.065000	23236.605000	58563.720000	43956.360000	31034.160000	-300.915000	12.690000	-10.549760	-13.612716	-22.301825	-20.402566	-4.173176	5.857185	-0.114553	-4.997470	-0.686700	1.999060	2.090620	-0.837950	0.010010	0.533995	-1.000000	-1.000000	-1.000000	-1.000000	-1.000000	-1.000000	-1.000000	54.000000	0.000000	-1.000000	-1.000000	2649984.000000	1776581704.291892
3593.880000	-6264.720000	23224.860000	58568.940000	43942.680000	30988.890000	-310.635000	11.430000	-9.772339	-11.424216	-17.361545	-17.611527	-3.308778	6.368874	-0.605670	-5.493397	-0.686700	1.999060	2.090620	-0.837950	0.010010	0.533995	-1.000000	-1.000000	-1.000000	-1.000000	-1.000000	-1.000000	-1.000000	54.000000	0.000000	-1.000000	-1.000000	2649985.000000	1776581704.291910
3595.095000	-6254.820000	23229.135000	58567.905000	43931.835000	30972.645000	-308.520000	14.490000	-4.037368	-4.395117	-6.089750	-5.593724	-1.452913	0.931260	-1.169945	-3.200667	-0.686700	1.999060	2.090620	-0.837950	0.010010	0.533995	-1.000000	-1.000000	-1.000000	-1.000000	-1.000000	-1.000000	-1.000000	54.000000	0.000000	-1.000000	-1.000000	2649986.000000	1776581704.295890
3598.020000	-6243.930000	23242.050000	58576.365000	43941.735000	30999.870000	-301.905000	17.415000	3.051099	5.171004	6.745096	9.340680	0.648877	-7.835979	-1.597681	0.270293	-0.686700	1.999060	2.090620	-0.837950	0.010010	0.533995	-1.000000	-1.000000	-1.000000	-1.000000	-1.000000	-1.000000	-1.000000	54.000000	0.000000	-1.000000	-1.000000	2649987.000000	1776581704.295907
3595.185000	-6236.055000	23255.910000	58589.235000	43979.760000	31048.110000	-302.895000	12.555000	7.630745	13.689032	17.068849	19.899029	3.901307	-10.632826	-1.076173	2.960830	-0.686700	1.999060	2.090620	-0.837950	0.010010	0.533995	-1.000000	-1.000000	-1.000000	-1.000000	-1.000000	-1.000000	-1.000000	54.000000	0.000000	-1.000000	-1.000000	2649988.000000	1776581704.299847
3590.415000	-6233.040000	23260.500000	58582.935000	43979.400000	31036.320000	-309.645000	5.220000	7.866495	17.570353	22.088191	22.295415	9.288211	-2.227566	0.213293	3.444775	-0.686700	1.999060	2.090620	-0.837950	0.010010	0.533995	-1.000000	-1.000000	-1.000000	-1.000000	-1.000000	-1.000000	-1.000000	54.000000	0.000000	-1.000000	-1.000000	2649989.000000	1776581704.299860
3586.050000	-6240.735000	23255.685000	58573.260000	43961.580000	31030.200000	-309.105000	2.655000	4.310690	14.784532	19.985151	16.224832	13.579085	10.534496	0.989217	1.529751	-0.686700	1.999060	2.090620	-0.837950	0.010010	0.533995	-1.000000	-1.000000	-1.000000	-1.000000	-1.000000	-1.000000	-1.000000	54.000000	0.000000	-1.000000	-1.000000	2649990.000000	1776581704.303785
3590.460000	-6230.565000	23267.475000	58578.705000	43968.780000	31048.920000	-300.465000	6.795000	-0.587307	6.353106	11.220704	4.475927	11.466915	16.539561	0.868769	-1.206684	-0.686700	1.999060	2.090620	-0.837950	0.010010	0.533995	-1.000000	-1.000000	-1.000000	-1.000000	-1.000000	-1.000000	-1.000000	54.000000	0.000000	-1.000000	-1.000000	2649991.000000	1776581704.303795
3591.270000	-6233.130000	23255.955000	58566.870000	43965.135000	31043.385000	-298.440000	9.720000	-3.870020	-3.627736	-0.629899	-7.563395	2.735013	12.369463	0.818574	-2.471315	-4.593260	1.785420	0.717220	-0.838072	0.009338	0.534667	-1.000000	-1.000000	-1.000000	-1.000000	-1.000000	-1.000000	-1.000000	54.000000	0.000000	-1.000000	-1.000000	2649992.000000	1776581704.307736
3597.930000	-6231.645000	23256.720000	58574.115000	43966.980000	31037.625000	-296.010000	16.920000	-3.976146	-10.723190	-11.056505	-14.888273	-7.304474	2.083139	1.368969	-1.222054	-4.593260	1.785420	0.717220	-0.838072	0.009338	0.534667	-1.000000	-1.000000	-1.000000	-1.000000	-1.000000	-1.000000	-1.000000	54.000000	0.000000	-1.000000	-1.000000	2649993.000000	1776581704.307762
3612.420000	-6214.005000	23280.255000	58600.710000	43976.970000	31033.800000	-293.760000	26.280000	-1.287876	-12.610056	-16.408925	-14.865294	-13.130175	-8.757246	1.870762	1.736871	-4.593260	1.785420	0.717220	-0.838072	0.009338	0.534667	-1.000000	-1.000000	-1.000000	-1.000000	-1.000000	-1.000000	-1.000000	54.000000	0.000000	-1.000000	-1.000000	2649994.000000	1776581704.311932
3609.270000	-6217.020000	23279.760000	58607.685000	43978.635000	31028.985000	-297.090000	23.850000	2.461514	-9.349366	-14.640960	-7.693778	-12.416010	-15.662527	1.480336	4.491887	-4.593260	1.785420	0.717220	-0.838072	0.009338	0.534667	-1.000000	-1.000000	-1.000000	-1.000000	-1.000000	-1.000000	-1.000000	54.000000	0.000000	-1.000000	-1.000000	2649995.000000	1776581704.311949
3601.080000	-6226.830000	23268.060000	58595.220000	43979.805000	31038.300000	-295.605000	20.700000	4.545075	-3.727186	-7.765536	2.139339	-6.804013	-16.138391	-0.004181	4.937978	-4.593260	1.785420	0.717220	-0.838072	0.009338	0.534667	-1.000000	-1.000000	-1.000000	-1.000000	-1.000000	-1.000000	-1.000000	54.000000	0.000000	-1.000000	-1.000000	2649996.000000	1776581704.315759
3594.780000	-6235.425000	23252.535000	58565.880000	43958.295000	31029.075000	-297.045000	19.935000	2.849384	0.149115	-1.362169	7.356348	-0.652173	-10.515752	-1.922598	2.250112	-4.593260	1.785420	0.717220	-0.838072	0.009338	0.534667	-1.000000	-1.000000	-1.000000	-1.000000	-1.000000	-1.000000	-1.000000	54.000000	0.000000	-1.000000	-1.000000	2649997.000000	1776581704.315776
3598.020000	-6234.255000	23258.700000	58577.670000	43957.800000	31011.525000	-301.545000	19.980000	-1.724785	0.596327	0.924977	4.399187	2.160048	-2.336075	-3.306207	-2.106910	-4.593260	1.785420	0.717220	-0.838072	0.009338	0.534667	-1.000000	-1.000000	-1.000000	-1.000000	-1.000000	-1.000000	-1.000000	54.000000	0.000000	-1.000000	-1.000000	2649998.000000	1776581704.319656
3594.015000	-6241.590000	23250.780000	58574.610000	43953.030000	31004.370000	-308.430000	12.555000	-5.791376	-0.650677	0.364647	-2.600159	1.359391	3.726595	-3.763988	-5.658927	-4.593260	1.785420	0.717220	-0.838072	0.009338	0.534667	-1.000000	-1.000000	-1.000000	-1.000000	-1.000000	-1.000000	-1.000000	54.000000	0.000000	-1.000000	-1.000000	2649999.000000	1776581704.319665
3590.775000	-6245.910000	23244.210000	58568.760000	43957.215000	31019.760000	-306.720000	11.430000	-6.758860	-1.241491	-0.093206	-6.875564	-0.147646	6.145747	-3.350603	-6.917916	-4.593260	1.785420	0.717220	-0.838072	0.009338	0.534667	-1.000000	-1.000000	-1.000000	-1.000000	-1.000000	-1.000000	-1.000000	54.000000	0.000000	-1.000000	-1.000000	2650000.000000	1776581704.323958
3582.855000	-6249.240000	23239.530000	58561.830000	43951.770000	31030.200000	-308.565000	6.345000	-4.728665	-0.349924	0.673156	-5.986359	0.152904	7.289977	-1.970794	-5.770428	-4.593260	1.785420	0.717220	-0.838072	0.009338	0.534667	-1.000000	-1.000000	-1.000000	-1.000000	-1.000000	-1.000000	-1.000000	54.000000	0.000000	-1.000000	-1.000000	2650001.000000	1776581704.323992
3582.450000	-6250.005000	23235.390000	58567.095000	43957.530000	31030.290000	-304.920000	4.860000	-1.426779	1.612475	2.215461	-1.748410	2.311492	9.069137	0.340747	-2.944214	-2.044840	0.564620	-0.167860	-0.838438	0.008179	0.537596	-1.000000	-1.000000	-1.000000	-1.000000	-1.000000	-1.000000	-1.000000	54.000000	0.000000	-1.000000	-1.000000	2650002.000000	1776581704.327883
3583.620000	-6250.905000	23234.670000	58573.755000	43962.885000	31019.895000	-311.895000	2.610000	1.725901	3.789482	3.805027	3.387875	4.925727	9.892578	2.822266	0.444630	-2.044840	0.564620	-0.167860	-0.838438	0.008179	0.537596	-1.000000	-1.000000	-1.000000	-1.000000	-1.000000	-1.000000	-1.000000	54.000000	0.000000	-1.000000	-1.000000	2650003.000000	1776581704.327901
3595.275000	-6234.570000	23257.485000	58582.125000	43963.290000	31000.230000	-311.445000	13.230000	4.378146	5.572260	5.323719	7.753914	6.584641	6.789431	4.217448	3.536244	-2.044840	0.564620	-0.167860	-0.838438	0.008179	0.537596	-1.000000	-1.000000	-1.000000	-1.000000	-1.000000	-1.000000	-1.000000	54.000000	0.000000	-1.000000	-1.000000	2650004.000000	1776581704.338572
3598.425000	-6228.405000	23271.705000	58581.900000	43954.380000	30986.955000	-313.110000	15.480000	6.554857	6.912194	7.364707	9.954932	6.052140	-0.717790	3.878931	5.989635	-2.044840	0.564620	-0.167860	-0.838438	0.008179	0.537596	-1.000000	-1.000000	-1.000000	-1.000000	-1.000000	-1.000000	-1.000000	54.000000	0.000000	-1.000000	-1.000000	2650005.000000	1776581704.338590
3591.945000	-6239.115000	23264.145000	58581.180000	43952.040000	31001.445000	-308.880000	11.835000	7.426232	7.109776	9.172427	8.790733	2.761994	-8.821834	2.406717	7.170508	-2.044840	0.564620	-0.167860	-0.838438	0.008179	0.537596	-1.000000	-1.000000	-1.000000	-1.000000	-1.000000	-1.000000	-1.000000	54.000000	0.000000	-1.000000	-1.000000	2650006.000000	1776581704.341633
3580.335000	-6261.930000	23242.275000	58577.535000	43971.615000	31060.215000	-298.530000	4.770000	5.420943	4.157536	7.528138	4.207883	-1.683447	-10.803126	1.118908	5.904670	-2.044840	0.564620	-0.167860	-0.838438	0.008179	0.537596	-1.000000	-1.000000	-1.000000	-1.000000	-1.000000	-1.000000	-1.000000	54.000000	0.000000	-1.000000	-1.000000	2650007.000000	1776581704.341655
3571.425000	-6262.110000	23230.845000	58578.075000	43979.895000	31067.325000	-300.960000	-3.555000	0.212566	-2.528977	0.250507	-2.055073	-3.986112	-2.846075	0.840410	1.865981	-2.044840	0.564620	-0.167860	-0.838438	0.008179	0.537596	-1.000000	-1.000000	-1.000000	-1.000000	-1.000000	-1.000000	-1.000000	54.000000	0.000000	-1.000000	-1.000000	2650008.000000	1776581704.342845
3582.405000	-6233.895000	23245.605000	58582.935000	43970.400000	31034.655000	-304.155000	5.130000	-5.686955	-8.999059	-9.480126	-7.132070	-2.958991	9.085281	0.876787	-3.169443	-2.044840	0.564620	-0.167860	-0.838438	0.008179	0.537596	-1.000000	-1.000000	-1.000000	-1.000000	-1.000000	-1.000000	-1.000000	54.000000	0.000000	-1.000000	-1.000000	2650009.000000	1776581704.342876
3588.975000	-6229.260000	23259.195000	58572.990000	43952.175000	31009.230000	-308.655000	10.530000	-8.205980	-9.532601	-14.597601	-8.932101	-1.439647	12.845588	-0.147356	-6.031084	-2.044840	0.564620	-0.167860	-0.838438	0.008179	0.537596	-1.000000	-1.000000	-1.000000	-1.000000	-1.000000	-1.000000	-1.000000	54.000000	0.000000	-1.000000	-1.000000	2650010.000000	1776581704.344167
3600.135000	-6225.795000	23272.920000	58584.825000	43957.485000	31010.850000	-304.245000	18.945000	-5.345291	-3.446977	-10.871969	-7.411994	-2.373031	3.671862	-2.279440	-4.801686	-2.044840	0.564620	-0.167860	-0.838438	0.008179	0.537596	-1.000000	-1.000000	-1.000000	-1.000000	-1.000000	-1.000000	-1.000000	54.000000	0.000000	-1.000000	-1.000000	2650011.000000	1776581704.344178
3601.800000	-6223.905000	23269.455000	58581.675000	43961.310000	31024.575000	-302.355000	19.755000	0.850591	4.018888	-1.111291	-3.729410	-4.613122	-10.256911	-3.947972	-0.656841	1.388660	-0.244160	1.663340	-0.837339	0.005188	0.539733	-1.000000	-1.000000	-1.000000	-1.000000	-1.000000	-1.000000	-1.000000	54.000000	0.000000	-1.000000	-1.000000	2650012.000000	1776581704.349218
3592.530000	-6237.945000	23253.660000	58577.580000	43966.485000	31033.665000	-305.955000	10.890000	5.887563	7.250336	7.291587	0.407541	-4.763544	-17.021734	-3.834504	3.061609	1.388660	-0.244160	1.663340	-0.837339	0.005188	0.539733	-1.000000	-1.000000	-1.000000	-1.000000	-1.000000	-1.000000	-1.000000	54.000000	0.000000	-1.000000	-1.000000	2650013.000000	1776581704.349245
3588.435000	-6241.140000	23254.470000	58580.640000	43967.610000	31035.600000	-304.830000	10.935000	6.174042	4.368228	8.668561	3.116256	-1.641869	-12.264299	-2.247242	3.536218	1.388660	-0.244160	1.663340	-0.837339	0.005188	0.539733	-1.000000	-1.000000	-1.000000	-1.000000	-1.000000	-1.000000	-1.000000	54.000000	0.000000	-1.000000	-1.000000	2650014.000000	1776581704.351768
3583.440000	-6243.570000	23254.380000	58578.660000	43963.830000	31030.245000	-305.280000	9.630000	1.771623	-2.091740	3.654127	3.727011	2.705516	-1.087627	-0.312264	0.839349	1.388660	-0.244160	1.663340	-0.837339	0.005188	0.539733	-1.000000	-1.000000	-1.000000	-1.000000	-1.000000	-1.000000	-1.000000	54.000000	0.000000	-1.000000	-1.000000	2650015.000000	1776581704.351776
3582.405000	-6245.325000	23252.310000	58576.635000	43957.170000	31017.060000	-306.855000	8.280000	-3.938930	-7.390619	-2.635656	2.851253	5.211464	8.041507	1.148196	-2.544330	1.388660	-0.244160	1.663340	-0.837339	0.005188	0.539733	-1.000000	-1.000000	-1.000000	-1.000000	-1.000000	-1.000000	-1.000000	54.000000	0.000000	-1.000000	-1.000000	2650016.000000	1776581704.356327
3596.490000	-6233.445000	23256.855000	58577.895000	43954.200000	31002.705000	-306.630000	15.120000	-6.950287	-8.096354	-5.818026	1.369458	4.370177	9.851984	1.782680	-4.150327	1.388660	-0.244160	1.663340	-0.837339	0.005188	0.539733	-1.000000	-1.000000	-1.000000	-1.000000	-1.000000	-1.000000	-1.000000	54.000000	0.000000	-1.000000	-1.000000	2650017.000000	1776581704.356350
3601.170000	-6230.745000	23257.800000	58579.560000	43956.765000	30998.340000	-310.005000	16.110000	-5.139699	-3.845734	-4.718812	0.138255	1.321624	4.977890	1.627406	-3.032127	1.388660	-0.244160	1.663340	-0.837339	0.005188	0.539733	-1.000000	-1.000000	-1.000000	-1.000000	-1.000000	-1.000000	-1.000000	54.000000	0.000000	-1.000000	-1.000000	2650018.000000	1776581704.360039
3592.620000	-6239.340000	23251.770000	58573.035000	43959.735000	31011.570000	-311.085000	10.530000	-0.027821	2.505729	-1.028472	-0.416456	-1.326056	-1.348775	0.948337	-0.231032	1.388660	-0.244160	1.663340	-0.837339	0.005188	0.539733	-1.000000	-1.000000	-1.000000	-1.000000	-1.000000	-1.000000	-1.000000	54.000000	0.000000	-1.000000	-1.000000	2650019.000000	1776581704.360062
3590.055000	-6246.855000	23239.620000	58573.260000	43950.465000	31013.685000	-312.615000	8.910000	4.186350	6.546050	2.125445	-0.618698	-2.008186	-3.653102	0.127413	2.008743	1.388660	-0.244160	1.663340	-0.837339	0.005188	0.539733	-1.000000	-1.000000	-1.000000	-1.000000	-1.000000	-1.000000	-1.000000	54.000000	0.000000	-1.000000	-1.000000	2650020.000000	1776581704.370743
3590.595000	-6245.325000	23240.340000	58583.025000	43947.810000	31016.565000	-313.650000	10.080000	4.694624	5.987190	2.645198	-0.605856	-1.379256	-0.770063	-0.420553	2.378145	1.388660	-0.244160	1.663340	-0.837339	0.005188	0.539733	-1.000000	-1.000000	-1.000000	-1.000000	-1.000000	-1.000000	-1.000000	54.000000	0.000000	-1.000000	-1.000000	2650021.000000	1776581704.370756
3595.950000	-6225.480000	23266.575000	58586.310000	43953.660000	31014.765000	-313.515000	13.185000	2.364427	2.788875	1.686023	0.162709	-0.596656	3.933078	-0.460594	1.487680	0.793520	-0.122080	2.792580	-0.834715	0.001953	0.542418	-1.000000	-1.000000	-1.000000	-1.000000	-1.000000	-1.000000	-1.000000	54.000000	0.000000	-1.000000	-1.000000	2650022.000000	1776581704.370771
3591.630000	-6224.625000	23264.820000	58574.880000	43960.185000	31023.045000	-311.445000	10.395000	-0.232009	0.720434	2.150452	1.387076	0.404511	6.532559	0.004177	0.586809	0.793520	-0.122080	2.792580	-0.834715	0.001953	0.542418	-1.000000	-1.000000	-1.000000	-1.000000	-1.000000	-1.000000	-1.000000	54.000000	0.000000	-1.000000	-1.000000	2650023.000000	1776581704.370776
3581.910000	-6241.635000	23250.060000	58573.170000	43970.985000	31040.550000	-308.250000	3.825000	-1.807706	0.622173	3.938853	1.464042	2.115919	5.999300	0.817885	0.013407	0.793520	-0.122080	2.792580	-0.834715	0.001953	0.542418	-1.000000	-1.000000	-1.000000	-1.000000	-1.000000	-1.000000	-1.000000	54.000000	0.000000	-1.000000	-1.000000	2650024.000000	1776581704.371916
3580.875000	-6245.820000	23251.905000	58579.020000	43959.825000	31019.895000	-316.350000	-0.045000	-2.673740	-0.054712	3.812119	-0.110761	3.820550	3.404251	1.482755	-0.700370	0.793520	-0.122080	2.792580	-0.834715	0.001953	0.542418	-1.000000	-1.000000	-1.000000	-1.000000	-1.000000	-1.000000	-1.000000	54.000000	0.000000	-1.000000	-1.000000	2650025.000000	1776581704.371930
3574.890000	-6257.340000	23243.310000	58572.315000	43956.810000	31014.585000	-316.170000	-1.755000	-3.034294	-2.808265	0.458677	-1.841132	3.589782	-0.895079	1.219870	-1.602036	0.793520	-0.122080	2.792580	-0.834715	0.001953	0.542418	-1.000000	-1.000000	-1.000000	-1.000000	-1.000000	-1.000000	-1.000000	54.000000	0.000000	-1.000000	-1.000000	2650026.000000	1776581704.376285
3573.450000	-6258.915000	23223.735000	58542.120000	43945.785000	31016.295000	-315.000000	-1.665000	-2.543820	-6.011848	-4.323815	-2.985160	0.431240	-6.254196	-0.010999	-1.968488	0.793520	-0.122080	2.792580	-0.834715	0.001953	0.542418	-1.000000	-1.000000	-1.000000	-1.000000	-1.000000	-1.000000	-1.000000	54.000000	0.000000	-1.000000	-1.000000	2650027.000000	1776581704.376304
3578.220000	-6250.005000	23223.915000	58548.510000	43945.920000	31012.920000	-314.505000	2.610000	-0.945224	-6.792294	-8.134212	-4.241416	-4.134089	-9.954498	-1.182205	-1.103256	0.793520	-0.122080	2.792580	-0.834715	0.001953	0.542418	-1.000000	-1.000000	-1.000000	-1.000000	-1.000000	-1.000000	-1.000000	54.000000	0.000000	-1.000000	-1.000000	2650028.000000	1776581704.379810
3582.450000	-6242.805000	23242.905000	58557.870000	43947.810000	31013.595000	-313.065000	7.290000	1.661295	-3.442131	-8.401974	-4.576757	-7.084373	-9.602128	-1.398028	0.965779	0.793520	-0.122080	2.792580	-0.834715	0.001953	0.542418	-1.000000	-1.000000	-1.000000	-1.000000	-1.000000	-1.000000	-1.000000	54.000000	0.000000	-1.000000	-1.000000	2650029.000000	1776581704.379816
3586.860000	-6240.060000	23247.495000	58566.510000	43958.925000	31023.405000	-304.965000	12.735000	4.508942	2.831000	-3.391895	-1.561085	-6.096396	-5.247190	-0.548990	3.391521	0.793520	-0.122080	2.792580	-0.834715	0.001953	0.542418	-1.000000	-1.000000	-1.000000	-1.000000	-1.000000	-1.000000	-1.000000	54.000000	0.000000	-1.000000	-1.000000	2650030.000000	1776581704.383870
3585.735000	-6239.970000	23249.025000	58574.925000	43962.075000	31019.130000	-306.990000	10.170000	6.177914	8.345004	4.824410	4.544360	-1.298117	1.107550	0.885211	4.820360	0.793520	-0.122080	2.792580	-0.834715	0.001953	0.542418	-1.000000	-1.000000	-1.000000	-1.000000	-1.000000	-1.000000	-1.000000	54.000000	0.000000	-1.000000	-1.000000	2650031.000000	1776581704.383889
3581.370000	-6243.480000	23245.020000	58569.705000	43950.690000	31003.920000	-317.655000	3.195000	5.381710	9.723636	10.976011	10.065855	4.296324	6.116991	1.692007	3.975277	1.342880	-0.015260	2.838360	-0.831724	0.002380	0.544188	-1.000000	-1.000000	-1.000000	-1.000000	-1.000000	-1.000000	-1.000000	54.000000	0.000000	-1.000000	-1.000000	2650032.000000	1776581704.391900
3590.190000	-6235.875000	23247.090000	58566.915000	43940.880000	30989.880000	-316.125000	9.855000	2.201583	6.435103	11.215054	10.983303	6.617592	6.677478	0.701222	0.824879	1.342880	-0.015260	2.838360	-0.831724	0.002380	0.544188	-1.000000	-1.000000	-1.000000	-1.000000	-1.000000	-1.000000	-1.000000	54.000000	0.000000	-1.000000	-1.000000	2650033.000000	1776581704.391927
3600.180000	-6227.730000	23248.305000	58571.100000	43934.130000	30974.985000	-316.440000	17.460000	-1.346000	1.069288	6.052603	6.361669	4.039729	2.581961	-1.490101	-2.616433	1.342880	-0.015260	2.838360	-0.831724	0.002380	0.544188	-1.000000	-1.000000	-1.000000	-1.000000	-1.000000	-1.000000	-1.000000	54.000000	0.000000	-1.000000	-1.000000	2650034.000000	1776581704.391950
3595.770000	-6233.040000	23242.050000	58567.320000	43921.755000	30970.215000	-319.680000	12.420000	-3.164245	-3.205729	-1.041623	-0.927824	-1.305237	-3.010302	-3.014823	-4.086813	1.342880	-0.015260	2.838360	-0.831724	0.002380	0.544188	-1.000000	-1.000000	-1.000000	-1.000000	-1.000000	-1.000000	-1.000000	54.000000	0.000000	-1.000000	-1.000000	2650035.000000	1776581704.391957
3595.005000	-6226.155000	23264.280000	58589.370000	43949.160000	30996.360000	-317.520000	9.405000	-3.340729	-5.211111	-6.323862	-6.608382	-5.240789	-5.459834	-2.814851	-3.558956	1.342880	-0.015260	2.838360	-0.831724	0.002380	0.544188	-1.000000	-1.000000	-1.000000	-1.000000	-1.000000	-1.000000	-1.000000	54.000000	0.000000	-1.000000	-1.000000	2650036.000000	1776581704.395862
3583.035000	-6238.170000	23262.210000	58588.245000	43983.135000	31042.170000	-313.695000	2.970000	-3.416230	-5.512783	-7.334366	-7.787527	-3.634574	-1.029598	-1.059719	-2.606465	1.342880	-0.015260	2.838360	-0.831724	0.002380	0.544188	-1.000000	-1.000000	-1.000000	-1.000000	-1.000000	-1.000000	-1.000000	54.000000	0.000000	-1.000000	-1.000000	2650037.000000	1776581704.395870
3577.275000	-6250.320000	23240.205000	58560.570000	43966.485000	31034.970000	-312.345000	1.620000	-4.286720	-5.336842	-4.970711	-5.516632	3.613449	9.214304	1.430952	-2.178422	1.342880	-0.015260	2.838360	-0.831724	0.002380	0.544188	-1.000000	-1.000000	-1.000000	-1.000000	-1.000000	-1.000000	-1.000000	54.000000	0.000000	-1.000000	-1.000000	2650038.000000	1776581704.399919
3582.135000	-6244.470000	23246.190000	58570.020000	43953.345000	31005.495000	-309.870000	5.580000	-5.141849	-5.302064	-2.845776	-3.673058	9.947579	16.957848	3.473003	-1.813098	1.342880	-0.015260	2.838360	-0.831724	0.002380	0.544188	-1.000000	-1.000000	-1.000000	-1.000000	-1.000000	-1.000000	-1.000000	54.000000	0.000000	-1.000000	-1.000000	2650039.000000	1776581704.399926
3592.215000	-6232.680000	23257.395000	58581.045000	43959.600000	31013.415000	-312.030000	11.070000	-3.975626	-4.097161	-2.217887	-3.285010	8.698629	13.641337	4.017977	-0.461148	1.342880	-0.015260	2.838360	-0.831724	0.002380	0.544188	-1.000000	-1.000000	-1.000000	-1.000000	-1.000000	-1.000000	-1.000000	54.000000	0.000000	-1.000000	-1.000000	2650040.000000	1776581704.408884
3589.335000	-6235.740000	23250.690000	58573.260000	43964.325000	31037.625000	-310.905000	8.820000	0.016993	-0.338972	-1.218121	-2.054353	0.977747	1.060680	2.764623	1.980623	1.342880	-0.015260	2.838360	-0.831724	0.002380	0.544188	-1.000000	-1.000000	-1.000000	-1.000000	-1.000000	-1.000000	-1.000000	54.000000	0.000000	-1.000000	-1.000000	2650041.000000	1776581704.408923
3581.010000	-6240.645000	23245.560000	58567.860000	43966.755000	31039.065000	-309.780000	6.885000	4.638035	4.438008	0.728186	0.513279	-6.774946	-10.683565	0.414687	4.090556	2.868880	-0.274680	2.823100	-0.830015	0.004333	0.545714	-1.000000	-1.000000	-1.000000	-1.000000	-1.000000	-1.000000	-1.000000	54.000000	0.000000	-1.000000	-1.000000	2650042.000000	1776581704.409119
3581.955000	-6241.815000	23248.080000	58575.645000	43965.540000	31028.130000	-309.690000	7.605000	6.638372	7.012449	2.212188	2.702630	-9.951342	-14.984513	-1.773377	4.339464	2.868880	-0.274680	2.823100	-0.830015	0.004333	0.545714	-1.000000	-1.000000	-1.000000	-1.000000	-1.000000	-1.000000	-1.000000	54.000000	0.000000	-1.000000	-1.000000	2650043.000000	1776581704.409124
3579.120000	-6246.495000	23246.235000	58578.840000	43957.530000	31014.630000	-311.760000	6.435000	5.117770	5.954304	2.524012	3.803372	-8.473538	-13.298877	-2.938440	2.656197	2.868880	-0.274680	2.823100	-0.830015	0.004333	0.545714	-1.000000	-1.000000	-1.000000	-1.000000	-1.000000	-1.000000	-1.000000	54.000000	0.000000	-1.000000	-1.000000	2650044.000000	1776581704.411818
3571.785000	-6262.965000	23223.600000	58556.205000	43942.680000	31010.130000	-313.290000	2.430000	1.665948	2.178448	1.700192	3.768605	-5.137280	-9.820279	-3.033462	0.124441	2.868880	-0.274680	2.823100	-0.830015	0.004333	0.545714	-1.000000	-1.000000	-1.000000	-1.000000	-1.000000	-1.000000	-1.000000	54.000000	0.000000	-1.000000	-1.000000	2650045.000000	1776581704.411826
3570.255000	-6258.825000	23232.735000	58556.160000	43951.185000	31029.210000	-315.045000	-3.060000	-1.727856	-2.346567	-0.194647	1.891248	-2.338310	-5.929511	-2.431385	-2.197076	2.868880	-0.274680	2.823100	-0.830015	0.004333	0.545714	-1.000000	-1.000000	-1.000000	-1.000000	-1.000000	-1.000000	-1.000000	54.000000	0.000000	-1.000000	-1.000000	2650046.000000	1776581704.417853
3584.655000	-6236.595000	23247.855000	58570.830000	43962.390000	31032.090000	-311.940000	4.905000	-3.337087	-4.688853	-1.529370	-0.992733	0.212511	-0.437276	-1.398145	-3.471464	2.868880	-0.274680	2.823100	-0.830015	0.004333	0.545714	-1.000000	-1.000000	-1.000000	-1.000000	-1.000000	-1.000000	-1.000000	54.000000	0.000000	-1.000000	-1.000000	2650047.000000	1776581704.417866
3594.510000	-6225.795000	23257.170000	58577.445000	43953.885000	31016.520000	-311.535000	13.950000	-1.883802	-2.315682	0.105523	-1.896254	3.610372	5.986283	-0.006566	-2.768759	2.868880	-0.274680	2.823100	-0.830015	0.004333	0.545714	-1.000000	-1.000000	-1.000000	-1.000000	-1.000000	-1.000000	-1.000000	54.000000	0.000000	-1.000000	-1.000000	2650048.000000	1776581704.419807
3590.010000	-6234.030000	23251.095000	58571.910000	43957.125000	31022.280000	-306.855000	15.075000	1.824592	3.349402	4.061088	0.257446	6.713710	9.839240	1.543919	0.002342	2.868880	-0.274680	2.823100	-0.830015	0.004333	0.545714	-1.000000	-1.000000	-1.000000	-1.000000	-1.000000	-1.000000	-1.000000	54.000000	0.000000	-1.000000	-1.000000	2650049.000000	1776581704.419816
3594.915000	-6230.700000	23250.420000	58575.555000	43970.175000	31030.470000	-297.675000	22.320000	4.700994	7.253180	6.531768	2.983981	7.705342	9.371394	2.937329	3.211067	2.868880	-0.274680	2.823100	-0.830015	0.004333	0.545714	-1.000000	-1.000000	-1.000000	-1.000000	-1.000000	-1.000000	-1.000000	54.000000	0.000000	-1.000000	-1.000000	2650050.000000	1776581704.423990
3589.020000	-6240.330000	23245.830000	58571.595000	43959.780000	31019.400000	-300.420000	18.630000	4.296600	5.888450	4.797922	3.559781	6.413726	6.159523	3.784917	4.706306	2.868880	-0.274680	2.823100	-0.830015	0.004333	0.545714	-1.000000	-1.000000	-1.000000	-1.000000	-1.000000	-1.000000	-1.000000	54.000000	0.000000	-1.000000	-1.000000	2650051.000000	1776581704.424007
3592.755000	-6235.740000	23255.820000	58580.415000	43964.865000	31018.950000	-298.215000	22.680000	0.872406	0.247632	-0.051466	1.713938	3.337534	2.012222	3.398994	3.499462	3.830260	0.763000	3.036740	-0.831541	0.007507	0.545470	-1.000000	-1.000000	-1.000000	-1.000000	-1.000000	-1.000000	-1.000000	54.000000	0.000000	-1.000000	-1.000000	2650052.000000	1776581704.427880
3603.555000	-6223.590000	23267.835000	58591.215000	43966.125000	31013.190000	-299.520000	26.595000	-3.085949	-5.522378	-4.303453	-0.665363	-0.640831	-2.016091	1.429920	0.420059	3.830260	0.763000	3.036740	-0.831541	0.007507	0.545470	-1.000000	-1.000000	-1.000000	-1.000000	-1.000000	-1.000000	-1.000000	54.000000	0.000000	-1.000000	-1.000000	2650053.000000	1776581704.427886
3597.930000	-6232.455000	23256.540000	58586.760000	43965.270000	31024.530000	-297.405000	26.145000	-4.969503	-7.665293	-5.341812	-1.745288	-3.927006	-4.566481	-1.361536	-2.619166	3.830260	0.763000	3.036740	-0.831541	0.007507	0.545470	-1.000000	-1.000000	-1.000000	-1.000000	-1.000000	-1.000000	-1.000000	54.000000	0.000000	-1.000000	-1.000000	2650054.000000	1776581704.432984
3588.885000	-6245.100000	23237.910000	58587.570000	43975.485000	31024.305000	-305.505000	16.560000	-4.574231	-6.233896	-4.412345	-1.731164	-5.244848	-4.384019	-3.738479	-4.455154	3.830260	0.763000	3.036740	-0.831541	0.007507	0.545470	-1.000000	-1.000000	-1.000000	-1.000000	-1.000000	-1.000000	-1.000000	54.000000	0.000000	-1.000000	-1.000000	2650055.000000	1776581704.432990
3599.325000	-6228.810000	23242.005000	58595.670000	43979.400000	31012.785000	-308.115000	18.720000	-3.395821	-3.649418	-4.186572	-1.714980	-4.207867	-2.044603	-5.012239	-5.142916	3.830260	0.763000	3.036740	-0.831541	0.007507	0.545470	-1.000000	-1.000000	-1.000000	-1.000000	-1.000000	-1.000000	-1.000000	54.000000	0.000000	-1.000000	-1.000000	2650056.000000	1776581704.436434
3607.380000	-6211.755000	23265.810000	58594.680000	43968.150000	31006.170000	-306.045000	23.310000	-1.746624	-0.489439	-4.062191	-1.773225	-1.819757	-0.039482	-4.898548	-4.586525	3.830260	0.763000	3.036740	-0.831541	0.007507	0.545470	-1.000000	-1.000000	-1.000000	-1.000000	-1.000000	-1.000000	-1.000000	54.000000	0.000000	-1.000000	-1.000000	2650057.000000	1776581704.436441
3608.505000	-6213.690000	23269.095000	58576.815000	43954.920000	31007.745000	-303.840000	25.020000	0.832444	3.697980	-1.198043	-1.935868	-0.466154	0.083318	-3.103321	-2.352595	3.830260	0.763000	3.036740	-0.831541	0.007507	0.545470	-1.000000	-1.000000	-1.000000	-1.000000	-1.000000	-1.000000	-1.000000	54.000000	0.000000	-1.000000	-1.000000	2650058.000000	1776581704.444647
3602.835000	-6218.820000	23273.640000	58583.025000	43961.895000	31019.265000	-304.245000	21.195000	3.311150	6.995386	4.208050	-2.747082	-1.357576	-0.440817	0.042846	0.919485	3.830260	0.763000	3.036740	-0.831541	0.007507	0.545470	-1.000000	-1.000000	-1.000000	-1.000000	-1.000000	-1.000000	-1.000000	54.000000	0.000000	-1.000000	-1.000000	2650059.000000	1776581704.444672
3597.435000	-6226.875000	23261.895000	58576.680000	43955.280000	31012.245000	-304.650000	19.080000	3.729291	6.428548	8.152729	-3.595555	-2.785684	0.281458	3.180781	3.438078	3.830260	0.763000	3.036740	-0.831541	0.007507	0.545470	-1.000000	-1.000000	-1.000000	-1.000000	-1.000000	-1.000000	-1.000000	54.000000	0.000000	-1.000000	-1.000000	2650060.000000	1776581704.444690
3589.965000	-6236.775000	23251.185000	58573.035000	43955.775000	31002.750000	-311.310000	12.060000	1.466939	1.589449	6.997210	-3.128352	-2.536378	1.791722	4.720686	3.835533	3.830260	0.763000	3.036740	-0.831541	0.007507	0.545470	-1.000000	-1.000000	-1.000000	-1.000000	-1.000000	-1.000000	-1.000000	54.000000	0.000000	-1.000000	-1.000000	2650061.000000	1776581704.444695
3592.035000	-6234.030000	23255.280000	58582.170000	43966.170000	31018.185000	-306.630000	17.235000	-1.940618	-4.646797	1.097753	-0.964944	-0.145387	2.373953	4.043311	2.337095	2.090620	2.334780	3.387720	-0.833433	0.013061	0.542967	-1.000000	-1.000000	-1.000000	-1.000000	-1.000000	-1.000000	-1.000000	54.000000	0.000000	-1.000000	-1.000000	2650062.000000	1776581704.448044
3584.835000	-6239.520000	23246.595000	58570.605000	43964.775000	31045.860000	-306.315000	12.780000	-4.093051	-8.320245	-5.406953	2.189747	3.470876	2.563142	2.077135	0.455491	2.090620	2.334780	3.387720	-0.833433	0.013061	0.542967	-1.000000	-1.000000	-1.000000	-1.000000	-1.000000	-1.000000	-1.000000	54.000000	0.000000	-1.000000	-1.000000	2650063.000000	1776581704.448056
3585.240000	-6240.870000	23244.705000	58567.545000	43966.800000	31038.930000	-313.920000	7.245000	-3.743171	-7.444208	-8.525739	4.640948	6.435391	3.898874	0.167083	-0.644360	2.090620	2.334780	3.387720	-0.833433	0.013061	0.542967	-1.000000	-1.000000	-1.000000	-1.000000	-1.000000	-1.000000	-1.000000	54.000000	0.000000	-1.000000	-1.000000	2650064.000000	1776581704.451841
3581.010000	-6244.605000	23245.920000	58577.310000	43964.145000	31015.260000	-318.735000	2.160000	-1.407558	-3.120212	-7.164652	5.097405	6.838965	4.529238	-1.342965	-1.057501	2.090620	2.334780	3.387720	-0.833433	0.013061	0.542967	-1.000000	-1.000000	-1.000000	-1.000000	-1.000000	-1.000000	-1.000000	54.000000	0.000000	-1.000000	-1.000000	2650065.000000	1776581704.451847
3574.080000	-6257.880000	23229.945000	58576.905000	43962.345000	31017.420000	-317.115000	0.135000	1.391258	1.783016	-2.854847	4.224110	4.255378	1.052502	-2.469179	-1.192608	2.090620	2.334780	3.387720	-0.833433	0.013061	0.542967	-1.000000	-1.000000	-1.000000	-1.000000	-1.000000	-1.000000	-1.000000	54.000000	0.000000	-1.000000	-1.000000	2650066.000000	1776581704.455830
3583.620000	-6255.090000	23229.720000	58567.635000	43956.720000	31029.030000	-312.300000	6.570000	3.347814	4.726131	1.535686	2.932986	-0.089611	-5.269437	-2.554874	-0.820181	2.090620	2.334780	3.387720	-0.833433	0.013061	0.542967	-1.000000	-1.000000	-1.000000	-1.000000	-1.000000	-1.000000	-1.000000	54.000000	0.000000	-1.000000	-1.000000	2650067.000000	1776581704.455845
3595.140000	-6224.220000	23255.055000	58557.105000	43939.890000	30999.645000	-311.220000	14.895000	4.554540	5.842118	4.581010	0.806370	-4.500250	-9.662413	-1.046710	0.661134	2.090620	2.334780	3.387720	-0.833433	0.013061	0.542967	-1.000000	-1.000000	-1.000000	-1.000000	-1.000000	-1.000000	-1.000000	54.000000	0.000000	-1.000000	-1.000000	2650068.000000	1776581704.460018
3614.625000	-6201.270000	23286.780000	58589.685000	43962.300000	31000.140000	-303.840000	27.315000	5.935842	7.633007	7.735141	-1.710957	-7.221920	-10.109228	1.460327	3.267507	2.090620	2.334780	3.387720	-0.833433	0.013061	0.542967	-1.000000	-1.000000	-1.000000	-1.000000	-1.000000	-1.000000	-1.000000	54.000000	0.000000	-1.000000	-1.000000	2650069.000000	1776581704.460057
3605.940000	-6215.580000	23275.260000	58589.820000	43967.655000	31018.095000	-304.245000	22.455000	7.118268	10.253429	11.478360	-2.126209	-6.146379	-7.055999	3.591540	5.668064	2.090620	2.334780	3.387720	-0.833433	0.013061	0.542967	-1.000000	-1.000000	-1.000000	-1.000000	-1.000000	-1.000000	-1.000000	54.000000	0.000000	-1.000000	-1.000000	2650070.000000	1776581704.463917
3594.555000	-6235.965000	23240.925000	58575.465000	43971.210000	31047.480000	-299.565000	19.485000	5.697872	9.287808	11.568375	-0.022974	-1.038116	-0.228808	4.148298	5.616691	2.090620	2.334780	3.387720	-0.833433	0.013061	0.542967	-1.000000	-1.000000	-1.000000	-1.000000	-1.000000	-1.000000	-1.000000	54.000000	0.000000	-1.000000	-1.000000	2650071.000000	1776581704.463939
3586.005000	-6245.820000	23227.695000	58572.225000	43971.345000	31052.925000	-300.015000	15.255000	-0.014148	1.331908	3.503754	1.214597	4.793174	9.240047	2.801989	2.022260	0.183120	2.426340	1.785420	-0.833982	0.018249	0.541197	-1.000000	-1.000000	-1.000000	-1.000000	-1.000000	-1.000000	-1.000000	54.000000	0.000000	-1.000000	-1.000000	2650072.000000	1776581704.467882
3595.455000	-6239.115000	23232.105000	58569.660000	43965.585000	31046.625000	-297.765000	19.080000	-7.666031	-10.154985	-9.727907	-0.613928	7.315313	16.294489	0.223809	-3.427926	0.183120	2.426340	1.785420	-0.833982	0.018249	0.541197	-1.000000	-1.000000	-1.000000	-1.000000	-1.000000	-1.000000	-1.000000	54.000000	0.000000	-1.000000	-1.000000	2650073.000000	1776581704.467899
3603.780000	-6232.950000	23253.345000	58576.995000	43960.590000	31034.655000	-292.770000	28.035000	-12.032977	-17.303422	-18.566986	-3.655602	5.037772	15.243940	-2.327193	-7.292013	0.183120	2.426340	1.785420	-0.833982	0.018249	0.541197	-1.000000	-1.000000	-1.000000	-1.000000	-1.000000	-1.000000	-1.000000	54.000000	0.000000	-1.000000	-1.000000	2650074.000000	1776581704.472001
3600.585000	-6231.015000	23271.570000	58587.345000	43966.710000	31029.615000	-295.695000	24.570000	-10.068842	-15.314366	-15.826930	-4.589329	-0.191567	5.439481	-3.745442	-7.254699	0.183120	2.426340	1.785420	-0.833982	0.018249	0.541197	-1.000000	-1.000000	-1.000000	-1.000000	-1.000000	-1.000000	-1.000000	54.000000	0.000000	-1.000000	-1.000000	2650075.000000	1776581704.472017
3600.630000	-6221.565000	23264.415000	58573.440000	43957.305000	31029.975000	-298.620000	22.635000	-3.756471	-6.037363	-3.430253	-2.354412	-4.830182	-7.500508	-3.908103	-4.130916	0.183120	2.426340	1.785420	-0.833982	0.018249	0.541197	-1.000000	-1.000000	-1.000000	-1.000000	-1.000000	-1.000000	-1.000000	54.000000	0.000000	-1.000000	-1.000000	2650076.000000	1776581704.476176
3609.540000	-6210.045000	23258.790000	58576.185000	43962.705000	31037.805000	-293.490000	30.780000	2.647432	4.952605	9.301830	0.785945	-6.523358	-15.946136	-3.310788	-0.438700	0.183120	2.426340	1.785420	-0.833982	0.018249	0.541197	-1.000000	-1.000000	-1.000000	-1.000000	-1.000000	-1.000000	-1.000000	54.000000	0.000000	-1.000000	-1.000000	2650077.000000	1776581704.476199
3605.220000	-6214.770000	23273.505000	58584.960000	43970.085000	31033.620000	-295.830000	26.910000	6.397789	12.429863	14.336168	2.493150	-4.899296	-15.776790	-2.127231	2.199453	0.183120	2.426340	1.785420	-0.833982	0.018249	0.541197	-1.000000	-1.000000	-1.000000	-1.000000	-1.000000	-1.000000	-1.000000	54.000000	0.000000	-1.000000	-1.000000	2650078.000000	1776581704.479853
3606.255000	-6219.045000	23270.220000	58590.000000	43973.460000	31020.435000	-294.885000	27.405000	6.729192	13.283137	11.062047	2.922964	-0.859707	-8.942234	-0.518159	3.233498	0.183120	2.426340	1.785420	-0.833982	0.018249	0.541197	-1.000000	-1.000000	-1.000000	-1.000000	-1.000000	-1.000000	-1.000000	54.000000	0.000000	-1.000000	-1.000000	2650079.000000	1776581704.479866
3606.795000	-6216.300000	23267.925000	58588.920000	43973.010000	31023.585000	-297.405000	27.405000	4.277270	7.755811	3.647617	2.928049	3.476640	-0.801763	0.947785	2.670996	0.183120	2.426340	1.785420	-0.833982	0.018249	0.541197	-1.000000	-1.000000	-1.000000	-1.000000	-1.000000	-1.000000	-1.000000	54.000000	0.000000	-1.000000	-1.000000	2650080.000000	1776581704.483946
3604.005000	-6218.190000	23266.980000	58589.640000	43967.025000	31021.470000	-304.920000	24.435000	0.723348	-0.439957	-3.769662	2.314544	5.557910	4.890831	1.609612	1.163303	0.183120	2.426340	1.785420	-0.833982	0.018249	0.541197	-1.000000	-1.000000	-1.000000	-1.000000	-1.000000	-1.000000	-1.000000	54.000000	0.000000	-1.000000	-1.000000	2650081.000000	1776581704.483953
3601.035000	-6219.180000	23271.480000	58599.135000	43964.730000	31017.870000	-305.955000	20.835000	-2.301923	-6.867450	-8.347561	0.893226	4.186475	7.406501	1.176115	-0.479495	-1.739640	4.303320	0.152600	-0.833494	0.019043	0.537108	-1.000000	-1.000000	-1.000000	-1.000000	-1.000000	-1.000000	-1.000000	54.000000	0.000000	-1.000000	-1.000000	2650082.000000	1776581704.487953
3601.710000	-6220.890000	23264.415000	58587.885000	43973.730000	31031.955000	-294.570000	24.480000	-3.888807	-9.189363	-8.880931	-0.807465	0.663595	7.568826	0.427464	-1.599689	-1.739640	4.303320	0.152600	-0.833494	0.019043	0.537108	-1.000000	-1.000000	-1.000000	-1.000000	-1.000000	-1.000000	-1.000000	54.000000	0.000000	-1.000000	-1.000000	2650083.000000	1776581704.487966
3610.620000	-6212.880000	23269.320000	58589.145000	43979.580000	31035.060000	-288.945000	32.535000	-3.541770	-7.422312	-6.195263	-2.467818	-2.093379	6.806346	0.859445	-1.465836	-1.739640	4.303320	0.152600	-0.833494	0.019043	0.537108	-1.000000	-1.000000	-1.000000	-1.000000	-1.000000	-1.000000	-1.000000	54.000000	0.000000	-1.000000	-1.000000	2650084.000000	1776581704.491890
3609.135000	-6211.845000	23274.855000	58595.265000	43966.485000	31017.015000	-295.020000	29.295000	-1.316633	-2.945425	-1.980940	-3.702336	-2.538446	5.476941	2.551978	0.113542	-1.739640	4.303320	0.152600	-0.833494	0.019043	0.537108	-1.000000	-1.000000	-1.000000	-1.000000	-1.000000	-1.000000	-1.000000	54.000000	0.000000	-1.000000	-1.000000	2650085.000000	1776581704.491901
3604.905000	-6213.825000	23277.690000	58600.755000	43961.085000	31003.830000	-303.750000	23.670000	1.441308	1.976643	2.345753	-3.433776	-1.989261	2.165194	3.415821	1.860461	-1.739640	4.303320	0.152600	-0.833494	0.019043	0.537108	-1.000000	-1.000000	-1.000000	-1.000000	-1.000000	-1.000000	-1.000000	54.000000	0.000000	-1.000000	-1.000000	2650086.000000	1776581704.495951
3606.660000	-6213.870000	23277.060000	58604.085000	43974.000000	31013.910000	-303.345000	26.055000	2.832459	4.960734	5.401680	-1.262791	-1.842212	-3.101164	1.741797	2.123769	-1.739640	4.303320	0.152600	-0.833494	0.019043	0.537108	-1.000000	-1.000000	-1.000000	-1.000000	-1.000000	-1.000000	-1.000000	54.000000	0.000000	-1.000000	-1.000000	2650087.000000	1776581704.495962
3606.480000	-6229.935000	23247.810000	58576.680000	43981.245000	31033.170000	-292.545000	33.120000	2.301377	4.733155	5.492443	1.074396	-1.182079	-6.667900	-1.289454	0.995653	-1.739640	4.303320	0.152600	-0.833494	0.019043	0.537108	-1.000000	-1.000000	-1.000000	-1.000000	-1.000000	-1.000000	-1.000000	54.000000	0.000000	-1.000000	-1.000000	2650088.000000	1776581704.500496
3602.610000	-6242.355000	23237.010000	58583.970000	43981.245000	31037.130000	-293.760000	28.755000	0.722793	1.457350	1.562887	1.100330	0.962377	-5.031992	-2.912331	-0.114592	-1.739640	4.303320	0.152600	-0.833494	0.019043	0.537108	-1.000000	-1.000000	-1.000000	-1.000000	-1.000000	-1.000000	-1.000000	54.000000	0.000000	-1.000000	-1.000000	2650089.000000	1776581704.500504
3604.320000	-6247.440000	23233.635000	58589.640000	43979.130000	31035.465000	-288.135000	30.825000	-0.852989	-3.127912	-4.466691	-0.768655	3.259161	0.435967	-2.049225	-0.566063	-1.739640	4.303320	0.152600	-0.833494	0.019043	0.537108	-1.000000	-1.000000	-1.000000	-1.000000	-1.000000	-1.000000	-1.000000	54.000000	0.000000	-1.000000	-1.000000	2650090.000000	1776581704.505240
3601.620000	-6230.970000	23264.910000	58604.400000	43975.890000	31025.070000	-294.930000	24.840000	-1.710903	-5.692154	-7.432259	-1.265031	3.581036	4.670154	-0.061504	-0.776201	-1.739640	4.303320	0.152600	-0.833494	0.019043	0.537108	-1.000000	-1.000000	-1.000000	-1.000000	-1.000000	-1.000000	-1.000000	54.000000	0.000000	-1.000000	-1.000000	2650091.000000	1776581704.505248
3608.415000	-6207.390000	23279.670000	58589.775000	43961.265000	31024.530000	-290.520000	31.860000	-1.496701	-3.094450	-3.150901	1.023849	1.201219	4.115970	1.126070	-1.050904	-2.044840	4.852680	-0.701960	-0.835081	0.018188	0.535948	-1.000000	-1.000000	-1.000000	-1.000000	-1.000000	-1.000000	-1.000000	54.000000	0.000000	-1.000000	-1.000000	2650092.000000	1776581704.508154
3614.535000	-6190.560000	23284.845000	58579.965000	43966.485000	31027.095000	-288.180000	35.055000	-0.171725	4.543033	6.552136	3.459599	-2.680919	-0.203538	0.913248	-0.972336	-2.044840	4.852680	-0.701960	-0.835081	0.018188	0.535948	-1.000000	-1.000000	-1.000000	-1.000000	-1.000000	-1.000000	-1.000000	54.000000	0.000000	-1.000000	-1.000000	2650093.000000	1776581704.508170
3614.130000	-6197.040000	23272.785000	58577.220000	43988.805000	31043.025000	-284.130000	36.945000	1.746521	12.433273	14.236907	2.948859	-5.005143	-4.122760	0.149673	-0.106703	-2.044840	4.852680	-0.701960	-0.835081	0.018188	0.535948	-1.000000	-1.000000	-1.000000	-1.000000	-1.000000	-1.000000	-1.000000	54.000000	0.000000	-1.000000	-1.000000	2650094.000000	1776581704.512566
3610.620000	-6207.705000	23268.285000	58583.925000	43991.370000	31039.920000	-292.365000	32.130000	2.913959	14.018204	13.385517	0.052159	-3.000166	-4.407137	-0.431305	0.969530	-2.044840	4.852680	-0.701960	-0.835081	0.018188	0.535948	-1.000000	-1.000000	-1.000000	-1.000000	-1.000000	-1.000000	-1.000000	54.000000	0.000000	-1.000000	-1.000000	2650095.000000	1776581704.512579
3614.085000	-6203.745000	23276.970000	58597.605000	43990.335000	31037.625000	-295.110000	33.885000	2.232417	6.853578	4.366843	-1.862768	2.125352	-1.687298	-1.078140	1.178818	-2.044840	4.852680	-0.701960	-0.835081	0.018188	0.535948	-1.000000	-1.000000	-1.000000	-1.000000	-1.000000	-1.000000	-1.000000	54.000000	0.000000	-1.000000	-1.000000	2650096.000000	1776581704.516135
3616.830000	-6203.880000	23277.240000	58600.755000	43987.050000	31031.955000	-296.100000	35.055000	0.215252	-4.694318	-6.377081	-0.598701	5.878978	0.848955	-1.992585	0.353471	-2.044840	4.852680	-0.701960	-0.835081	0.018188	0.535948	-1.000000	-1.000000	-1.000000	-1.000000	-1.000000	-1.000000	-1.000000	54.000000	0.000000	-1.000000	-1.000000	2650097.000000	1776581704.516152
3610.395000	-6210.360000	23270.085000	58597.245000	43981.200000	31020.255000	-296.730000	32.355000	-1.748035	-13.673352	-12.709427	2.482077	5.151218	0.934956	-2.502933	-0.715213	-2.044840	4.852680	-0.701960	-0.835081	0.018188	0.535948	-1.000000	-1.000000	-1.000000	-1.000000	-1.000000	-1.000000	-1.000000	54.000000	0.000000	-1.000000	-1.000000	2650098.000000	1776581704.520002
3602.205000	-6228.090000	23248.755000	58588.245000	43989.705000	31044.780000	-291.375000	29.700000	-3.097942	-16.482841	-13.429452	3.910156	0.797544	-0.736253	-1.772157	-1.414285	-2.044840	4.852680	-0.701960	-0.835081	0.018188	0.535948	-1.000000	-1.000000	-1.000000	-1.000000	-1.000000	-1.000000	-1.000000	54.000000	0.000000	-1.000000	-1.000000	2650099.000000	1776581704.520013
3597.795000	-6230.295000	23255.370000	58591.575000	43994.025000	31056.795000	-286.290000	30.060000	-3.999845	-13.842922	-10.670087	1.841912	-3.558790	-1.015314	0.351828	-1.621203	-2.044840	4.852680	-0.701960	-0.835081	0.018188	0.535948	-1.000000	-1.000000	-1.000000	-1.000000	-1.000000	-1.000000	-1.000000	54.000000	0.000000	-1.000000	-1.000000	2650100.000000	1776581704.524269
3609.225000	-6200.955000	23293.980000	58610.385000	43986.060000	31042.845000	-288.270000	34.650000	-3.923723	-7.252722	-5.197815	-1.775930	-5.110841	1.511824	2.974640	-1.174178	-2.044840	4.852680	-0.701960	-0.835081	0.018188	0.535948	-1.000000	-1.000000	-1.000000	-1.000000	-1.000000	-1.000000	-1.000000	54.000000	0.000000	-1.000000	-1.000000	2650101.000000	1776581704.524302
3617.730000	-6192.630000	23294.160000	58602.915000	43973.730000	31041.405000	-293.895000	34.065000	-1.659987	2.558443	3.543449	-3.506827	-4.346436	3.899320	4.348743	0.039011	-0.946120	3.631880	-0.061040	-0.837522	0.017151	0.535643	-1.000000	-1.000000	-1.000000	-1.000000	-1.000000	-1.000000	-1.000000	54.000000	0.000000	-1.000000	-1.000000	2650102.000000	1776581704.528140
3621.690000	-6196.365000	23283.720000	58595.805000	43979.445000	31045.545000	-294.030000	36.180000	2.669783	12.623612	12.343844	-2.814371	-3.165363	3.157914	3.273004	1.527920	-0.946120	3.631880	-0.061040	-0.837522	0.017151	0.535643	-1.000000	-1.000000	-1.000000	-1.000000	-1.000000	-1.000000	-1.000000	54.000000	0.000000	-1.000000	-1.000000	2650103.000000	1776581704.528156
3617.640000	-6203.520000	23278.230000	58595.580000	43987.275000	31050.810000	-288.270000	38.250000	6.573378	17.343579	14.950187	-1.882662	-1.729349	0.213775	0.553068	2.468835	-0.946120	3.631880	-0.061040	-0.837522	0.017151	0.535643	-1.000000	-1.000000	-1.000000	-1.000000	-1.000000	-1.000000	-1.000000	54.000000	0.000000	-1.000000	-1.000000	2650104.000000	1776581704.532146
3617.055000	-6207.480000	23274.945000	58595.670000	43988.085000	31053.780000	-281.115000	42.120000	7.167729	13.541625	9.155809	-1.814571	0.870556	-2.144176	-1.571191	2.488050	-0.946120	3.631880	-0.061040	-0.837522	0.017151	0.535643	-1.000000	-1.000000	-1.000000	-1.000000	-1.000000	-1.000000	-1.000000	54.000000	0.000000	-1.000000	-1.000000	2650105.000000	1776581704.532160
3620.205000	-6205.815000	23272.560000	58599.810000	43987.230000	31051.170000	-280.440000	45.045000	3.979137	3.774509	-0.917757	-1.725419	3.998852	-2.605834	-1.679108	1.796996	-0.946120	3.631880	-0.061040	-0.837522	0.017151	0.535643	-1.000000	-1.000000	-1.000000	-1.000000	-1.000000	-1.000000	-1.000000	54.000000	0.000000	-1.000000	-1.000000	2650106.000000	1776581704.536138
3622.815000	-6206.490000	23269.230000	58608.225000	43988.310000	31045.725000	-283.185000	43.470000	-0.716479	-5.986914	-9.134325	-0.495181	5.711775	-1.970072	-0.500899	0.713885	-0.946120	3.631880	-0.061040	-0.837522	0.017151	0.535643	-1.000000	-1.000000	-1.000000	-1.000000	-1.000000	-1.000000	-1.000000	54.000000	0.000000	-1.000000	-1.000000	2650107.000000	1776581704.536150
3617.235000	-6210.765000	23266.350000	58597.830000	43980.210000	31037.760000	-286.740000	38.340000	-4.268466	-11.069839	-11.823790	1.682321	4.807712	-1.672913	0.147497	-0.727366	-0.946120	3.631880	-0.061040	-0.837522	0.017151	0.535643	-1.000000	-1.000000	-1.000000	-1.000000	-1.000000	-1.000000	-1.000000	54.000000	0.000000	-1.000000	-1.000000	2650108.000000	1776581704.540085
3615.570000	-6201.630000	23285.925000	58589.370000	43973.910000	31035.015000	-285.120000	43.020000	-5.688284	-10.404332	-8.654435	2.951608	1.546559	-2.174313	-0.566797	-2.357514	-0.946120	3.631880	-0.061040	-0.837522	0.017151	0.535643	-1.000000	-1.000000	-1.000000	-1.000000	-1.000000	-1.000000	-1.000000	54.000000	0.000000	-1.000000	-1.000000	2650109.000000	1776581704.540100
3617.235000	-6192.045000	23303.250000	58605.210000	43988.580000	31042.890000	-285.390000	43.245000	-5.232839	-5.391235	-1.168838	2.134461	-2.254129	-2.427852	-1.818898	-3.325995	-0.946120	3.631880	-0.061040	-0.837522	0.017151	0.535643	-1.000000	-1.000000	-1.000000	-1.000000	-1.000000	-1.000000	-1.000000	54.000000	0.000000	-1.000000	-1.000000	2650110.000000	1776581704.544510
3611.385000	-6206.265000	23285.835000	58606.155000	43999.470000	31057.830000	-283.815000	37.395000	-3.427077	1.072222	7.109735	0.733735	-3.712079	-0.739123	-2.303132	-2.988734	-0.946120	3.631880	-0.061040	-0.837522	0.017151	0.535643	-1.000000	-1.000000	-1.000000	-1.000000	-1.000000	-1.000000	-1.000000	54.000000	0.000000	-1.000000	-1.000000	2650111.000000	1776581704.544522
3610.935000	-6205.365000	23282.595000	58603.230000	43993.260000	31054.860000	-288.135000	37.260000	-1.084927	5.214446	10.898877	0.426667	-1.721636	3.100254	-1.603934	-1.819453	-1.129240	1.892240	-1.144500	-0.839781	0.014465	0.534606	-1.000000	-1.000000	-1.000000	-1.000000	-1.000000	-1.000000	-1.000000	54.000000	0.000000	-1.000000	-1.000000	2650112.000000	1776581704.548499
3622.410000	-6195.510000	23284.485000	58599.270000	43989.930000	31054.860000	-284.625000	46.260000	1.186892	5.353220	7.668034	0.607819	1.240935	6.613056	-0.287617	-0.388822	-1.129240	1.892240	-1.144500	-0.839781	0.014465	0.534606	-1.000000	-1.000000	-1.000000	-1.000000	-1.000000	-1.000000	-1.000000	54.000000	0.000000	-1.000000	-1.000000	2650113.000000	1776581704.548510
3630.780000	-6189.615000	23295.060000	58614.120000	44001.540000	31061.745000	-278.190000	54.495000	3.544552	3.380030	0.671468	0.302183	2.272345	7.014758	1.104296	1.505926	-1.129240	1.892240	-1.144500	-0.839781	0.014465	0.534606	-1.000000	-1.000000	-1.000000	-1.000000	-1.000000	-1.000000	-1.000000	54.000000	0.000000	-1.000000	-1.000000	2650114.000000	1776581704.551994
3628.215000	-6197.535000	23291.685000	58613.355000	43999.605000	31061.475000	-277.605000	52.785000	5.686250	1.563865	-4.762997	0.006304	1.303604	4.145252	2.409797	3.681214	-1.129240	1.892240	-1.144500	-0.839781	0.014465	0.534606	-1.000000	-1.000000	-1.000000	-1.000000	-1.000000	-1.000000	-1.000000	54.000000	0.000000	-1.000000	-1.000000	2650115.000000	1776581704.552000
3624.480000	-6200.775000	23283.540000	58600.800000	43984.305000	31050.720000	-280.620000	49.185000	6.014980	-0.012480	-6.397988	-0.041462	-0.554365	-0.341401	3.099288	4.668297	-1.129240	1.892240	-1.144500	-0.839781	0.014465	0.534606	-1.000000	-1.000000	-1.000000	-1.000000	-1.000000	-1.000000	-1.000000	54.000000	0.000000	-1.000000	-1.000000	2650116.000000	1776581704.556070
3623.130000	-6202.260000	23280.570000	58592.880000	43964.325000	31021.560000	-279.540000	52.155000	3.391456	-1.929022	-5.532481	-1.002997	-3.301312	-5.356441	2.429136	3.234315	-1.129240	1.892240	-1.144500	-0.839781	0.014465	0.534606	-1.000000	-1.000000	-1.000000	-1.000000	-1.000000	-1.000000	-1.000000	54.000000	0.000000	-1.000000	-1.000000	2650117.000000	1776581704.556078
3627.135000	-6199.695000	23283.090000	58597.065000	43960.275000	31004.865000	-277.605000	55.980000	-1.018011	-3.544510	-3.822346	-3.096724	-6.638092	-10.351999	0.595788	0.178276	-1.129240	1.892240	-1.144500	-0.839781	0.014465	0.534606	-1.000000	-1.000000	-1.000000	-1.000000	-1.000000	-1.000000	-1.000000	54.000000	0.000000	-1.000000	-1.000000	2650118.000000	1776581704.560009
3623.355000	-6205.140000	23278.635000	58595.985000	43975.080000	31026.060000	-275.265000	54.405000	-4.644813	-3.751973	-1.696798	-4.386861	-7.991554	-12.926158	-1.226050	-2.498489	-1.129240	1.892240	-1.144500	-0.839781	0.014465	0.534606	-1.000000	-1.000000	-1.000000	-1.000000	-1.000000	-1.000000	-1.000000	54.000000	0.000000	-1.000000	-1.000000	2650119.000000	1776581704.560028
3614.580000	-6212.880000	23273.685000	58597.695000	43999.785000	31074.705000	-271.710000	49.860000	-6.016438	-2.608481	0.528393	-3.179019	-4.070997	-8.430452	-1.996061	-3.723470	-1.129240	1.892240	-1.144500	-0.839781	0.014465	0.534606	-1.000000	-1.000000	-1.000000	-1.000000	-1.000000	-1.000000	-1.000000	54.000000	0.000000	-1.000000	-1.000000	2650120.000000	1776581704.564224
3608.595000	-6215.670000	23272.110000	58598.505000	44001.720000	31065.930000	-281.655000	41.445000	-5.554680	-1.167448	2.132619	0.067401	4.903457	4.271040	-1.748957	-3.881894	-1.129240	1.892240	-1.144500	-0.839781	0.014465	0.534606	-1.000000	-1.000000	-1.000000	-1.000000	-1.000000	-1.000000	-1.000000	54.000000	0.000000	-1.000000	-1.000000	2650121.000000	1776581704.564237
3615.030000	-6210.630000	23277.285000	58604.085000	44002.305000	31060.080000	-284.895000	44.010000	-3.950664	0.104503	2.916426	3.569283	13.546173	17.552190	-1.513388	-3.563048	-1.327620	0.412020	-1.266580	-0.839170	0.012817	0.535887	-1.000000	-1.000000	-1.000000	-1.000000	-1.000000	-1.000000	-1.000000	54.000000	0.000000	-1.000000	-1.000000	2650122.000000	1776581704.568107
3621.285000	-6203.295000	23281.830000	58602.960000	43990.155000	31049.955000	-294.525000	42.480000	-1.048387	1.758583	3.450255	5.696365	15.438534	21.054912	-2.019925	-2.552834	-1.327620	0.412020	-1.266580	-0.839170	0.012817	0.535887	-1.000000	-1.000000	-1.000000	-1.000000	-1.000000	-1.000000	-1.000000	54.000000	0.000000	-1.000000	-1.000000	2650123.000000	1776581704.568118
3627.225000	-6195.330000	23288.040000	58605.885000	43988.535000	31046.625000	-288.675000	44.775000	3.038399	4.109209	4.116772	5.607606	8.741465	12.154379	-2.673927	-0.485346	-1.327620	0.412020	-1.266580	-0.839170	0.012817	0.535887	-1.000000	-1.000000	-1.000000	-1.000000	-1.000000	-1.000000	-1.000000	54.000000	0.000000	-1.000000	-1.000000	2650124.000000	1776581704.573637
3620.115000	-6200.505000	23285.385000	58604.085000	43981.695000	31037.670000	-289.125000	40.500000	6.633159	6.097937	4.392191	3.452647	-2.526812	-2.822839	-2.089661	2.096257	-1.327620	0.412020	-1.266580	-0.839170	0.012817	0.535887	-1.000000	-1.000000	-1.000000	-1.000000	-1.000000	-1.000000	-1.000000	54.000000	0.000000	-1.000000	-1.000000	2650125.000000	1776581704.573644
3614.310000	-6205.320000	23282.775000	58604.310000	43987.770000	31043.430000	-284.715000	40.500000	7.279226	5.758318	3.227207	0.225601	-11.829861	-14.922539	0.317553	3.944323	-1.327620	0.412020	-1.266580	-0.839170	0.012817	0.535887	-1.000000	-1.000000	-1.000000	-1.000000	-1.000000	-1.000000	-1.000000	54.000000	0.000000	-1.000000	-1.000000	2650126.000000	1776581704.576254
3621.645000	-6200.595000	23288.400000	58606.920000	44000.865000	31055.355000	-273.420000	53.370000	4.298079	2.399424	0.416298	-2.709161	-14.290243	-18.132297	3.688073	4.460513	-1.327620	0.412020	-1.266580	-0.839170	0.012817	0.535887	-1.000000	-1.000000	-1.000000	-1.000000	-1.000000	-1.000000	-1.000000	54.000000	0.000000	-1.000000	-1.000000	2650127.000000	1776581704.576267
3622.680000	-6201.315000	23292.315000	58609.395000	43999.425000	31053.195000	-273.690000	56.475000	-0.073260	-2.125810	-2.611887	-4.150830	-9.299426	-12.015811	6.481921	4.266738	-1.327620	0.412020	-1.266580	-0.839170	0.012817	0.535887	-1.000000	-1.000000	-1.000000	-1.000000	-1.000000	-1.000000	-1.000000	54.000000	0.000000	-1.000000	-1.000000	2650128.000000	1776581704.580085
3610.530000	-6217.515000	23281.650000	58606.470000	43999.020000	31048.155000	-282.015000	48.195000	-3.269864	-5.519497	-4.350345	-3.786045	-0.839428	-1.603928	6.907714	3.606244	-1.327620	0.412020	-1.266580	-0.839170	0.012817	0.535887	-1.000000	-1.000000	-1.000000	-1.000000	-1.000000	-1.000000	-1.000000	54.000000	0.000000	-1.000000	-1.000000	2650129.000000	1776581704.580120
3609.495000	-6221.340000	23277.510000	58604.535000	43991.370000	31033.080000	-294.120000	38.430000	-4.788058	-7.175035	-4.886392	-2.440088	5.546779	6.264065	3.669015	1.462314	-1.327620	0.412020	-1.266580	-0.839170	0.012817	0.535887	-1.000000	-1.000000	-1.000000	-1.000000	-1.000000	-1.000000	-1.000000	54.000000	0.000000	-1.000000	-1.000000	2650130.000000	1776581704.584167
3621.780000	-6208.470000	23269.815000	58608.540000	43999.020000	31031.370000	-290.925000	44.505000	-4.731387	-6.821585	-4.936941	-1.091314	6.996534	7.863553	-2.230457	-2.312417	-1.327620	0.412020	-1.266580	-0.839170	0.012817	0.535887	-1.000000	-1.000000	-1.000000	-1.000000	-1.000000	-1.000000	-1.000000	54.000000	0.000000	-1.000000	-1.000000	2650131.000000	1776581704.584184
3630.060000	-6195.420000	23287.500000	58608.225000	43993.530000	31033.575000	-283.095000	50.580000	-2.469965	-3.383688	-4.093588	0.032123	4.589920	4.652902	-7.130168	-5.440891	-1.388660	-0.274680	-0.854560	-0.835996	0.012085	0.537779	-1.000000	-1.000000	-1.000000	-1.000000	-1.000000	-1.000000	-1.000000	54.000000	0.000000	-1.000000	-1.000000	2650132.000000	1776581704.588071
3622.995000	-6203.835000	23275.935000	58597.155000	43983.045000	31026.690000	-288.495000	42.885000	1.447802	2.578353	-1.421836	0.789784	0.846408	0.777591	-7.743719	-5.618299	-1.388660	-0.274680	-0.854560	-0.835996	0.012085	0.537779	-1.000000	-1.000000	-1.000000	-1.000000	-1.000000	-1.000000	-1.000000	54.000000	0.000000	-1.000000	-1.000000	2650133.000000	1776581704.588077
3615.930000	-6209.505000	23244.750000	58587.480000	43980.345000	31029.840000	-287.910000	40.410000	4.230842	7.372543	1.671062	0.486571	-2.573989	-1.012642	-4.357547	-3.339602	-1.388660	-0.274680	-0.854560	-0.835996	0.012085	0.537779	-1.000000	-1.000000	-1.000000	-1.000000	-1.000000	-1.000000	-1.000000	54.000000	0.000000	-1.000000	-1.000000	2650134.000000	1776581704.592102
3613.500000	-6221.340000	23234.265000	58576.185000	43959.060000	31012.110000	-301.455000	35.595000	3.569823	7.379959	1.919152	-1.134959	-4.846376	-0.765069	-0.069980	-0.787657	-1.388660	-0.274680	-0.854560	-0.835996	0.012085	0.537779	-1.000000	-1.000000	-1.000000	-1.000000	-1.000000	-1.000000	-1.000000	54.000000	0.000000	-1.000000	-1.000000	2650135.000000	1776581704.592114
3616.920000	-6208.425000	23278.680000	58601.160000	43984.395000	31043.925000	-296.685000	38.430000	0.320535	2.961679	-0.000954	-2.469093	-5.152569	0.469360	2.385876	0.788363	-1.388660	-0.274680	-0.854560	-0.835996	0.012085	0.537779	-1.000000	-1.000000	-1.000000	-1.000000	-1.000000	-1.000000	-1.000000	54.000000	0.000000	-1.000000	-1.000000	2650136.000000	1776581704.596106
3613.410000	-6187.005000	23319.045000	58611.015000	43991.460000	31059.360000	-299.070000	30.870000	-2.652687	-1.502134	1.739421	-0.728257	-2.158313	2.947548	2.695720	1.482340	-1.388660	-0.274680	-0.854560	-0.835996	0.012085	0.537779	-1.000000	-1.000000	-1.000000	-1.000000	-1.000000	-1.000000	-1.000000	54.000000	0.000000	-1.000000	-1.000000	2650137.000000	1776581704.596114
3619.260000	-6190.020000	23296.860000	58588.560000	43980.120000	31054.725000	-285.795000	41.445000	-3.369722	-2.074101	9.150138	3.911950	3.611463	6.467324	2.422876	1.825142	-1.388660	-0.274680	-0.854560	-0.835996	0.012085	0.537779	-1.000000	-1.000000	-1.000000	-1.000000	-1.000000	-1.000000	-1.000000	54.000000	0.000000	-1.000000	-1.000000	2650138.000000	1776581704.600130
3612.690000	-6205.815000	23280.210000	58588.515000	43976.655000	31056.885000	-285.930000	37.755000	-1.894315	0.084620	14.706847	6.929056	8.049130	7.941802	2.901818	2.303437	-1.388660	-0.274680	-0.854560	-0.835996	0.012085	0.537779	-1.000000	-1.000000	-1.000000	-1.000000	-1.000000	-1.000000	-1.000000	54.000000	0.000000	-1.000000	-1.000000	2650139.000000	1776581704.600139
3612.240000	-6207.255000	23280.030000	58592.655000	43963.830000	31031.145000	-295.425000	36.180000	0.256081	0.667877	10.402319	5.266841	7.461505	4.281817	3.572518	2.759662	-1.388660	-0.274680	-0.854560	-0.835996	0.012085	0.537779	-1.000000	-1.000000	-1.000000	-1.000000	-1.000000	-1.000000	-1.000000	54.000000	0.000000	-1.000000	-1.000000	2650140.000000	1776581704.604250
3614.850000	-6202.755000	23289.075000	58608.495000	43958.970000	31004.955000	-301.095000	36.855000	1.636715	-1.677914	-1.753370	1.199177	2.260941	-4.431742	2.559555	2.429542	-1.388660	-0.274680	-0.854560	-0.835996	0.012085	0.537779	-1.000000	-1.000000	-1.000000	-1.000000	-1.000000	-1.000000	-1.000000	54.000000	0.000000	-1.000000	-1.000000	2650141.000000	1776581704.604259
3624.030000	-6193.620000	23296.995000	58608.585000	43954.965000	30989.745000	-299.790000	45.270000	2.177700	-4.110615	-12.639047	-1.358438	-3.968750	-14.608227	-0.568615	1.295350	-0.457800	0.000000	-1.480220	-0.834715	0.011353	0.539366	-1.000000	-1.000000	-1.000000	-1.000000	-1.000000	-1.000000	-1.000000	54.000000	0.000000	-1.000000	-1.000000	2650142.000000	1776581704.608290
3619.395000	-6206.940000	23267.745000	58565.475000	43952.355000	31005.900000	-292.005000	45.945000	2.457832	-3.999074	-16.155991	-2.209119	-7.410591	-19.962963	-3.645495	0.267978	-0.457800	0.000000	-1.480220	-0.834715	0.011353	0.539366	-1.000000	-1.000000	-1.000000	-1.000000	-1.000000	-1.000000	-1.000000	54.000000	0.000000	-1.000000	-1.000000	2650143.000000	1776581704.608307
3610.575000	-6211.710000	23272.920000	58586.220000	43994.655000	31052.385000	-291.195000	37.935000	2.098502	-2.080852	-13.351072	-4.018425	-5.738743	-14.546972	-4.197960	-0.374943	-0.457800	0.000000	-1.480220	-0.834715	0.011353	0.539366	-1.000000	-1.000000	-1.000000	-1.000000	-1.000000	-1.000000	-1.000000	54.000000	0.000000	-1.000000	-1.000000	2650144.000000	1776581704.612265
3591.045000	-6232.095000	23258.250000	58581.495000	43991.055000	31069.395000	-300.015000	19.980000	-0.026420	-0.807531	-7.909263	-6.303213	1.073743	1.905566	-2.243640	-1.650780	-0.457800	0.000000	-1.480220	-0.834715	0.011353	0.539366	-1.000000	-1.000000	-1.000000	-1.000000	-1.000000	-1.000000	-1.000000	54.000000	0.000000	-1.000000	-1.000000	2650145.000000	1776581704.612287
3595.005000	-6232.365000	23255.775000	58581.810000	43983.180000	31059.585000	-299.655000	22.455000	-3.699408	-1.216971	-2.129541	-5.851451	8.732417	20.521320	-0.021943	-4.096515	-0.457800	0.000000	-1.480220	-0.834715	0.011353	0.539366	-1.000000	-1.000000	-1.000000	-1.000000	-1.000000	-1.000000	-1.000000	54.000000	0.000000	-1.000000	-1.000000	2650146.000000	1776581704.616157
3608.100000	-6219.450000	23262.030000	58594.635000	43987.545000	31049.280000	-299.565000	30.870000	-6.065464	-1.641584	3.070815	-1.871346	10.918381	28.493369	0.873008	-5.834382	-0.457800	0.000000	-1.480220	-0.834715	0.011353	0.539366	-1.000000	-1.000000	-1.000000	-1.000000	-1.000000	-1.000000	-1.000000	54.000000	0.000000	-1.000000	-1.000000	2650147.000000	1776581704.616167
3606.930000	-6212.745000	23267.070000	58596.165000	43985.160000	31033.980000	-307.305000	25.560000	-4.170691	0.539111	7.596457	3.725303	5.920693	20.007331	0.602903	-4.396086	-0.457800	0.000000	-1.480220	-0.834715	0.011353	0.539366	-1.000000	-1.000000	-1.000000	-1.000000	-1.000000	-1.000000	-1.000000	54.000000	0.000000	-1.000000	-1.000000	2650148.000000	1776581704.620168
3605.670000	-6219.450000	23265.450000	58574.970000	43970.760000	31024.665000	-297.585000	32.985000	1.108347	5.111239	10.941190	7.663144	-2.689023	0.615840	0.025635	-0.064657	-0.457800	0.000000	-1.480220	-0.834715	0.011353	0.539366	-1.000000	-1.000000	-1.000000	-1.000000	-1.000000	-1.000000	-1.000000	54.000000	0.000000	-1.000000	-1.000000	2650149.000000	1776581704.620179
3601.980000	-6227.955000	23264.955000	58564.170000	43957.485000	31019.085000	-299.790000	30.555000	5.760143	8.377490	11.609322	6.686885	-10.562451	-18.083612	0.059706	4.542749	-0.457800	0.000000	-1.480220	-0.834715	0.011353	0.539366	-1.000000	-1.000000	-1.000000	-1.000000	-1.000000	-1.000000	-1.000000	54.000000	0.000000	-1.000000	-1.000000	2650150.000000	1776581704.624199
3600.135000	-6219.855000	23269.590000	58575.555000	43972.335000	31033.035000	-308.205000	23.445000	6.744777	7.373621	8.800782	1.234863	-14.336231	-26.253117	0.752209	6.807848	-0.457800	0.000000	-1.480220	-0.834715	0.011353	0.539366	-1.000000	-1.000000	-1.000000	-1.000000	-1.000000	-1.000000	-1.000000	54.000000	0.000000	-1.000000	-1.000000	2650151.000000	1776581704.624209
3606.660000	-6212.025000	23274.720000	58586.355000	43980.570000	31042.845000	-303.930000	29.835000	4.237218	3.251994	3.768142	-3.769055	-11.575969	-20.649880	1.083483	5.648864	-0.442540	-0.015260	0.244160	-0.835203	0.011291	0.539671	-1.000000	-1.000000	-1.000000	-1.000000	-1.000000	-1.000000	-1.000000	54.000000	0.000000	-1.000000	-1.000000	2650152.000000	1776581704.628092
3605.985000	-6215.850000	23270.985000	58584.150000	43974.315000	31037.085000	-302.895000	30.330000	0.665299	-0.765964	-1.296933	-4.159257	-3.067353	-5.822459	0.723948	2.354445	-0.442540	-0.015260	0.244160	-0.835203	0.011291	0.539671	-1.000000	-1.000000	-1.000000	-1.000000	-1.000000	-1.000000	-1.000000	54.000000	0.000000	-1.000000	-1.000000	2650153.000000	1776581704.628100
3612.870000	-6210.630000	23273.685000	58582.575000	43962.390000	31032.090000	-295.290000	39.735000	-1.743792	-3.066498	-5.014753	-0.847166	5.988988	8.878487	0.483193	-0.613337	-0.442540	-0.015260	0.244160	-0.835203	0.011291	0.539671	-1.000000	-1.000000	-1.000000	-1.000000	-1.000000	-1.000000	-1.000000	54.000000	0.000000	-1.000000	-1.000000	2650154.000000	1776581704.632202
3615.345000	-6207.390000	23277.645000	58590.360000	43969.050000	31038.750000	-293.445000	41.805000	-2.281503	-3.766548	-6.814382	2.480290	10.278067	16.025376	0.933083	-1.753729	-0.442540	-0.015260	0.244160	-0.835203	0.011291	0.539671	-1.000000	-1.000000	-1.000000	-1.000000	-1.000000	-1.000000	-1.000000	54.000000	0.000000	-1.000000	-1.000000	2650155.000000	1776581704.632212
3614.220000	-6206.940000	23281.155000	58596.930000	43982.640000	31040.505000	-299.070000	38.295000	-1.591882	-3.366824	-6.430207	3.746064	9.314710	14.653240	1.500141	-1.441679	-0.442540	-0.015260	0.244160	-0.835203	0.011291	0.539671	-1.000000	-1.000000	-1.000000	-1.000000	-1.000000	-1.000000	-1.000000	54.000000	0.000000	-1.000000	-1.000000	2650156.000000	1776581704.636199
3612.915000	-6207.165000	23280.975000	58597.470000	43989.345000	31040.010000	-298.035000	37.350000	-0.967284	-2.547957	-4.314628	3.098781	6.408682	8.375963	1.030204	-1.201839	-0.442540	-0.015260	0.244160	-0.835203	0.011291	0.539671	-1.000000	-1.000000	-1.000000	-1.000000	-1.000000	-1.000000	-1.000000	54.000000	0.000000	-1.000000	-1.000000	2650157.000000	1776581704.636226
3613.770000	-6205.950000	23283.135000	58600.980000	43987.320000	31038.795000	-293.085000	38.655000	-1.173336	-1.907353	-1.697361	1.238031	3.899271	1.209902	-0.546107	-1.844934	-0.442540	-0.015260	0.244160	-0.835203	0.011291	0.539671	-1.000000	-1.000000	-1.000000	-1.000000	-1.000000	-1.000000	-1.000000	54.000000	0.000000	-1.000000	-1.000000	2650158.000000	1776581704.640209
3621.735000	-6200.505000	23287.815000	58604.220000	43995.645000	31048.245000	-284.445000	48.060000	-1.704888	-1.425954	0.356366	-1.089354	1.602092	-4.091954	-1.812612	-2.559267	-0.442540	-0.015260	0.244160	-0.835203	0.011291	0.539671	-1.000000	-1.000000	-1.000000	-1.000000	-1.000000	-1.000000	-1.000000	54.000000	0.000000	-1.000000	-1.000000	2650159.000000	1776581704.640233
3619.935000	-6204.555000	23282.595000	58596.435000	43991.370000	31048.110000	-286.650000	45.405000	-1.548781	-0.779793	1.426819	-3.159186	-1.080258	-6.108590	-1.643449	-2.145705	-0.442540	-0.015260	0.244160	-0.835203	0.011291	0.539671	-1.000000	-1.000000	-1.000000	-1.000000	-1.000000	-1.000000	-1.000000	54.000000	0.000000	-1.000000	-1.000000	2650160.000000	1776581704.644131
3620.835000	-6202.890000	23287.230000	58603.770000	43987.950000	31042.305000	-288.630000	45.630000	-0.610007	-0.089408	1.440977	-4.531911	-4.023218	-5.306019	-0.655703	-0.735616	-0.442540	-0.015260	0.244160	-0.835203	0.011291	0.539671	-1.000000	-1.000000	-1.000000	-1.000000	-1.000000	-1.000000	-1.000000	54.000000	0.000000	-1.000000	-1.000000	2650161.000000	1776581704.644157
3613.140000	-6208.470000	23281.380000	58601.925000	43982.055000	31036.635000	-288.630000	43.110000	0.160963	0.212599	0.678286	-4.698517	-6.668838	-3.706100	-0.239994	0.438252	-1.831200	1.068200	1.358140	-0.835813	0.011047	0.539061	-1.000000	-1.000000	-1.000000	-1.000000	-1.000000	-1.000000	-1.000000	54.000000	0.000000	-1.000000	-1.000000	2650162.000000	1776581704.649944
3615.075000	-6212.070000	23267.430000	58583.115000	43974.855000	31033.125000	-284.040000	47.835000	0.007476	-0.074439	-0.582310	-3.724474	-8.176930	-2.847591	-0.682146	0.693374	-1.831200	1.068200	1.358140	-0.835813	0.011047	0.539061	-1.000000	-1.000000	-1.000000	-1.000000	-1.000000	-1.000000	-1.000000	54.000000	0.000000	-1.000000	-1.000000	2650163.000000	1776581704.649954
3617.460000	-6206.040000	23278.050000	58594.905000	43975.170000	31008.555000	-294.705000	44.100000	-0.633387	-0.562359	-2.012843	-2.538988	-7.714117	-2.966377	-1.296226	0.391175	-1.831200	1.068200	1.358140	-0.835813	0.011047	0.539061	-1.000000	-1.000000	-1.000000	-1.000000	-1.000000	-1.000000	-1.000000	54.000000	0.000000	-1.000000	-1.000000	2650164.000000	1776581704.652243
3614.535000	-6209.280000	23270.895000	58582.260000	43965.135000	31000.545000	-305.775000	39.555000	-0.725107	-0.406516	-2.460730	-1.298119	-5.041879	-3.782952	-1.952886	-0.047174	-1.831200	1.068200	1.358140	-0.835813	0.011047	0.539061	-1.000000	-1.000000	-1.000000	-1.000000	-1.000000	-1.000000	-1.000000	54.000000	0.000000	-1.000000	-1.000000	2650165.000000	1776581704.652250
3608.415000	-6215.265000	23265.945000	58579.110000	43972.740000	31032.675000	-299.475000	36.405000	-0.143033	0.487521	-1.250679	0.284407	-0.857568	-3.548740	-2.692460	-0.621766	-1.831200	1.068200	1.358140	-0.835813	0.011047	0.539061	-1.000000	-1.000000	-1.000000	-1.000000	-1.000000	-1.000000	-1.000000	54.000000	0.000000	-1.000000	-1.000000	2650166.000000	1776581704.656229
3599.370000	-6221.745000	23263.110000	58580.100000	43981.830000	31061.790000	-299.880000	28.260000	0.211687	1.093108	0.633648	1.861259	3.884634	1.068956	-2.445793	-1.272106	-1.831200	1.068200	1.358140	-0.835813	0.011047	0.539061	-1.000000	-1.000000	-1.000000	-1.000000	-1.000000	-1.000000	-1.000000	54.000000	0.000000	-1.000000	-1.000000	2650167.000000	1776581704.656239
3603.690000	-6214.320000	23271.255000	58589.100000	43985.115000	31050.225000	-301.230000	29.025000	-0.110141	0.885449	2.205150	3.394638	8.238738	9.826265	-0.361159	-1.635629	-1.831200	1.068200	1.358140	-0.835813	0.011047	0.539061	-1.000000	-1.000000	-1.000000	-1.000000	-1.000000	-1.000000	-1.000000	54.000000	0.000000	-1.000000	-1.000000	2650168.000000	1776581704.660169
3608.055000	-6213.195000	23275.305000	58594.905000	43992.405000	31049.010000	-295.110000	34.335000	-0.197727	0.725009	3.551097	5.180079	10.695336	16.145294	2.707690	-1.048015	-1.831200	1.068200	1.358140	-0.835813	0.011047	0.539061	-1.000000	-1.000000	-1.000000	-1.000000	-1.000000	-1.000000	-1.000000	54.000000	0.000000	-1.000000	-1.000000	2650169.000000	1776581704.660178
3599.685000	-6224.445000	23273.190000	58593.195000	43984.260000	31041.585000	-301.680000	28.755000	0.806616	1.165103	4.624850	6.586498	9.735594	13.768982	5.086289	0.800364	-1.831200	1.068200	1.358140	-0.835813	0.011047	0.539061	-1.000000	-1.000000	-1.000000	-1.000000	-1.000000	-1.000000	-1.000000	54.000000	0.000000	-1.000000	-1.000000	2650170.000000	1776581704.664213
3598.110000	-6221.655000	23280.705000	58599.450000	43978.635000	31029.525000	-305.685000	30.420000	2.088399	1.361518	4.632790	6.224708	4.951904	3.270508	5.338939	2.952186	-1.831200	1.068200	1.358140	-0.835813	0.011047	0.539061	-1.000000	-1.000000	-1.000000	-1.000000	-1.000000	-1.000000	-1.000000	54.000000	0.000000	-1.000000	-1.000000	2650171.000000	1776581704.664239
3607.335000	-6224.310000	23249.340000	58588.020000	43969.455000	31013.955000	-302.760000	39.600000	2.544431	0.742480	2.627992	3.403509	-2.259620	-9.583525	3.202073	4.193670	-3.723440	1.831200	2.319520	-0.834409	0.008850	0.541930	-1.000000	-1.000000	-1.000000	-1.000000	-1.000000	-1.000000	-1.000000	54.000000	0.000000	-1.000000	-1.000000	2650172.000000	1776581704.668340
3613.500000	-6223.590000	23235.840000	58572.630000	43962.705000	31011.120000	-299.835000	42.750000	2.523142	-0.102405	-2.056638	-1.528937	-8.947601	-18.424796	0.194982	4.387142	-3.723440	1.831200	2.319520	-0.834409	0.008850	0.541930	-1.000000	-1.000000	-1.000000	-1.000000	-1.000000	-1.000000	-1.000000	54.000000	0.000000	-1.000000	-1.000000	2650173.000000	1776581704.668354
3612.015000	-6201.405000	23274.045000	58584.735000	43963.110000	31011.210000	-307.575000	34.155000	2.599302	-0.092447	-7.268001	-6.913858	-12.084731	-19.167214	-1.903523	3.548977	-3.723440	1.831200	2.319520	-0.834409	0.008850	0.541930	-1.000000	-1.000000	-1.000000	-1.000000	-1.000000	-1.000000	-1.000000	54.000000	0.000000	-1.000000	-1.000000	2650174.000000	1776581704.672398
3607.965000	-6201.855000	23281.650000	58585.815000	43959.555000	31010.760000	-309.645000	27.675000	2.108813	1.517030	-7.582152	-9.492411	-10.225279	-11.686008	-2.789343	1.097789	-3.723440	1.831200	2.319520	-0.834409	0.008850	0.541930	-1.000000	-1.000000	-1.000000	-1.000000	-1.000000	-1.000000	-1.000000	54.000000	0.000000	-1.000000	-1.000000	2650175.000000	1776581704.672411
3596.130000	-6230.205000	23255.370000	58574.745000	43964.145000	31026.285000	-308.025000	22.410000	0.011201	3.080526	-1.713686	-7.424952	-4.342946	0.356399	-2.903001	-2.784614	-3.723440	1.831200	2.319520	-0.834409	0.008850	0.541930	-1.000000	-1.000000	-1.000000	-1.000000	-1.000000	-1.000000	-1.000000	54.000000	0.000000	-1.000000	-1.000000	2650176.000000	1776581704.676196
3596.400000	-6236.325000	23252.085000	58568.805000	43960.230000	31040.775000	-309.420000	23.580000	-3.445898	1.230240	4.235040	-2.787858	2.763229	12.062811	-2.268532	-6.237304	-3.723440	1.831200	2.319520	-0.834409	0.008850	0.541930	-1.000000	-1.000000	-1.000000	-1.000000	-1.000000	-1.000000	-1.000000	54.000000	0.000000	-1.000000	-1.000000	2650177.000000	1776581704.676210
3597.255000	-6221.970000	23266.305000	58585.770000	43970.220000	31041.540000	-310.050000	22.680000	-6.240610	-3.749528	5.252035	1.497200	8.150069	19.237404	-0.946674	-7.043929	-3.723440	1.831200	2.319520	-0.834409	0.008850	0.541930	-1.000000	-1.000000	-1.000000	-1.000000	-1.000000	-1.000000	-1.000000	54.000000	0.000000	-1.000000	-1.000000	2650178.000000	1776581704.680156
3592.935000	-6222.735000	23244.930000	58573.215000	43972.380000	31041.360000	-307.440000	19.980000	-6.273045	-7.032376	2.538298	4.549813	10.280912	19.011642	0.570940	-4.642303	-3.723440	1.831200	2.319520	-0.834409	0.008850	0.541930	-1.000000	-1.000000	-1.000000	-1.000000	-1.000000	-1.000000	-1.000000	54.000000	0.000000	-1.000000	-1.000000	2650179.000000	1776581704.680180
3589.065000	-6223.725000	23253.570000	58560.660000	43967.250000	31039.920000	-307.665000	16.830000	-3.548543	-5.461699	-0.868689	5.698473	9.002732	11.331669	1.776816	-0.583907	-3.723440	1.831200	2.319520	-0.834409	0.008850	0.541930	-1.000000	-1.000000	-1.000000	-1.000000	-1.000000	-1.000000	-1.000000	54.000000	0.000000	-1.000000	-1.000000	2650180.000000	1776581704.684372
3595.095000	-6218.730000	23274.990000	58573.665000	43965.495000	31035.150000	-306.135000	20.295000	0.264749	-0.643049	-2.555054	4.228605	4.796136	-0.323997	2.328372	2.998122	-3.723440	1.831200	2.319520	-0.834409	0.008850	0.541930	-1.000000	-1.000000	-1.000000	-1.000000	-1.000000	-1.000000	-1.000000	54.000000	0.000000	-1.000000	-1.000000	2650181.000000	1776581704.684380
3603.060000	-6212.745000	23282.280000	58582.620000	43957.080000	31026.690000	-300.780000	28.125000	3.824175	4.144751	-0.715480	1.839283	-1.006806	-10.997749	2.165310	5.112143	-2.319520	1.388660	1.831200	-0.831053	0.004456	0.546263	-1.000000	-1.000000	-1.000000	-1.000000	-1.000000	-1.000000	-1.000000	54.000000	0.000000	-1.000000	-1.000000	2650182.000000	1776581704.688221
3604.365000	-6212.880000	23272.110000	58576.905000	43946.955000	31014.810000	-302.805000	30.060000	6.410210	6.712165	3.238963	0.876411	-6.408321	-17.048351	1.528972	5.879626	-2.319520	1.388660	1.831200	-0.831053	0.004456	0.546263	-1.000000	-1.000000	-1.000000	-1.000000	-1.000000	-1.000000	-1.000000	54.000000	0.000000	-1.000000	-1.000000	2650183.000000	1776581704.688229
3611.205000	-6207.120000	23276.295000	58585.410000	43971.885000	31028.040000	-296.190000	39.195000	7.215942	6.317330	5.121846	1.146844	-9.099682	-16.928881	0.646817	5.490414	-2.319520	1.388660	1.831200	-0.831053	0.004456	0.546263	-1.000000	-1.000000	-1.000000	-1.000000	-1.000000	-1.000000	-1.000000	54.000000	0.000000	-1.000000	-1.000000	2650184.000000	1776581704.692429
3606.930000	-6216.615000	23272.830000	58583.610000	43987.770000	31039.380000	-297.045000	35.010000	5.657539	3.395403	2.815142	1.168931	-6.755510	-10.533045	-0.271845	3.887930	-2.319520	1.388660	1.831200	-0.831053	0.004456	0.546263	-1.000000	-1.000000	-1.000000	-1.000000	-1.000000	-1.000000	-1.000000	54.000000	0.000000	-1.000000	-1.000000	2650185.000000	1776581704.692443
3603.240000	-6221.700000	23266.215000	58579.875000	43985.160000	31040.910000	-299.115000	31.365000	1.901577	-1.010345	-2.065912	0.138807	0.133424	0.012381	-1.121077	0.945894	-2.319520	1.388660	1.831200	-0.831053	0.004456	0.546263	-1.000000	-1.000000	-1.000000	-1.000000	-1.000000	-1.000000	-1.000000	54.000000	0.000000	-1.000000	-1.000000	2650186.000000	1776581704.696359
3611.565000	-6207.435000	23277.105000	58590.270000	43987.770000	31044.825000	-291.780000	39.780000	-2.747751	-5.085291	-6.368916	-1.710937	6.784122	9.851820	-1.854541	-2.779752	-2.319520	1.388660	1.831200	-0.831053	0.004456	0.546263	-1.000000	-1.000000	-1.000000	-1.000000	-1.000000	-1.000000	-1.000000	54.000000	0.000000	-1.000000	-1.000000	2650187.000000	1776581704.696374
3612.285000	-6206.085000	23281.425000	58596.390000	43988.985000	31044.240000	-294.390000	38.835000	-5.983705	-6.354187	-7.316335	-3.007636	8.474242	14.309663	-2.117269	-5.557854	-2.319520	1.388660	1.831200	-0.831053	0.004456	0.546263	-1.000000	-1.000000	-1.000000	-1.000000	-1.000000	-1.000000	-1.000000	54.000000	0.000000	-1.000000	-1.000000	2650188.000000	1776581704.700267
3618.405000	-6197.715000	23295.330000	58615.380000	43999.155000	31047.660000	-292.950000	42.210000	-6.230144	-3.951147	-4.090120	-2.315101	4.909097	12.108199	-1.740953	-5.985281	-2.319520	1.388660	1.831200	-0.831053	0.004456	0.546263	-1.000000	-1.000000	-1.000000	-1.000000	-1.000000	-1.000000	-1.000000	54.000000	0.000000	-1.000000	-1.000000	2650189.000000	1776581704.700279
3620.160000	-6196.410000	23293.710000	58611.105000	43990.380000	31038.030000	-295.965000	42.795000	-3.900084	0.273966	1.366199	0.141261	-0.810484	5.349077	-1.130196	-4.280577	-2.319520	1.388660	1.831200	-0.831053	0.004456	0.546263	-1.000000	-1.000000	-1.000000	-1.000000	-1.000000	-1.000000	-1.000000	54.000000	0.000000	-1.000000	-1.000000	2650190.000000	1776581704.704243
3624.075000	-6199.425000	23277.915000	58584.195000	43975.260000	31031.595000	-286.425000	52.245000	-0.685863	3.444470	5.257342	1.646598	-5.989634	-2.648832	-0.535123	-1.530038	-2.319520	1.388660	1.831200	-0.831053	0.004456	0.546263	-1.000000	-1.000000	-1.000000	-1.000000	-1.000000	-1.000000	-1.000000	54.000000	0.000000	-1.000000	-1.000000	2650191.000000	1776581704.704253
3620.880000	-6199.875000	23282.505000	58592.160000	43964.910000	31009.770000	-295.065000	48.105000	1.649288	3.685079	4.686524	-0.538927	-9.679648	-9.180513	0.151407	1.160197	2.319520	2.578940	1.098720	-0.829222	0.001831	0.548705	-1.000000	-1.000000	-1.000000	-1.000000	-1.000000	-1.000000	-1.000000	54.000000	0.000000	-1.000000	-1.000000	2650192.000000	1776581704.708366
3623.130000	-6197.085000	23286.645000	58602.825000	43969.095000	31011.705000	-295.470000	49.185000	2.144782	1.347815	0.731937	-4.688289	-10.885791	-12.481154	0.616072	2.676936	2.319520	2.578940	1.098720	-0.829222	0.001831	0.548705	-1.000000	-1.000000	-1.000000	-1.000000	-1.000000	-1.000000	-1.000000	54.000000	0.000000	-1.000000	-1.000000	2650193.000000	1776581704.708391
3621.870000	-6205.770000	23271.570000	58600.080000	43981.020000	31029.885000	-292.095000	49.455000	1.080282	-1.657490	-3.050401	-6.161297	-7.906052	-10.867357	0.484894	2.420146	2.319520	2.578940	1.098720	-0.829222	0.001831	0.548705	-1.000000	-1.000000	-1.000000	-1.000000	-1.000000	-1.000000	-1.000000	54.000000	0.000000	-1.000000	-1.000000	2650194.000000	1776581704.712209
3612.555000	-6219.630000	23259.060000	58583.835000	43967.385000	31010.355000	-300.870000	40.230000	-0.615547	-3.998441	-4.968136	-3.728880	-0.860345	-4.033876	0.060522	0.784238	2.319520	2.578940	1.098720	-0.829222	0.001831	0.548705	-1.000000	-1.000000	-1.000000	-1.000000	-1.000000	-1.000000	-1.000000	54.000000	0.000000	-1.000000	-1.000000	2650195.000000	1776581704.712227
3613.230000	-6203.565000	23285.970000	58594.725000	43978.860000	30997.260000	-308.250000	35.280000	-2.189214	-5.027584	-4.815053	-0.104283	6.816396	4.151821	-0.495510	-1.443039	2.319520	2.578940	1.098720	-0.829222	0.001831	0.548705	-1.000000	-1.000000	-1.000000	-1.000000	-1.000000	-1.000000	-1.000000	54.000000	0.000000	-1.000000	-1.000000	2650196.000000	1776581704.716342
3625.920000	-6178.455000	23307.750000	58606.515000	43978.140000	30985.965000	-308.160000	41.715000	-2.624123	-3.147097	-1.264235	2.914611	11.389581	8.315360	-1.229310	-3.140792	2.319520	2.578940	1.098720	-0.829222	0.001831	0.548705	-1.000000	-1.000000	-1.000000	-1.000000	-1.000000	-1.000000	-1.000000	54.000000	0.000000	-1.000000	-1.000000	2650197.000000	1776581704.716356
3621.060000	-6191.910000	23295.645000	58609.170000	43991.460000	31012.155000	-302.805000	41.895000	-0.967213	2.184090	5.375824	5.539066	11.768938	7.619997	-1.379257	-2.889787	2.319520	2.578940	1.098720	-0.829222	0.001831	0.548705	-1.000000	-1.000000	-1.000000	-1.000000	-1.000000	-1.000000	-1.000000	54.000000	0.000000	-1.000000	-1.000000	2650198.000000	1776581704.720190
3609.135000	-6210.720000	23275.170000	58589.730000	43981.380000	31041.360000	-298.170000	36.090000	1.673075	7.011168	9.995480	6.874593	8.766005	6.378644	0.040487	-0.575461	2.319520	2.578940	1.098720	-0.829222	0.001831	0.548705	-1.000000	-1.000000	-1.000000	-1.000000	-1.000000	-1.000000	-1.000000	54.000000	0.000000	-1.000000	-1.000000	2650199.000000	1776581704.720199
3606.120000	-6210.765000	23277.375000	58593.690000	43983.135000	31041.945000	-295.020000	36.180000	2.729001	6.441506	7.630337	4.965265	3.498958	7.925245	2.726781	2.073830	2.319520	2.578940	1.098720	-0.829222	0.001831	0.548705	-1.000000	-1.000000	-1.000000	-1.000000	-1.000000	-1.000000	-1.000000	54.000000	0.000000	-1.000000	-1.000000	2650200.000000	1776581704.724391
3606.345000	-6209.280000	23283.855000	58604.310000	43992.585000	31071.060000	-290.070000	35.280000	1.482857	1.037384	0.025775	0.540105	-2.338889	10.296845	5.069413	3.419197	2.319520	2.578940	1.098720	-0.829222	0.001831	0.548705	-1.000000	-1.000000	-1.000000	-1.000000	-1.000000	-1.000000	-1.000000	54.000000	0.000000	-1.000000	-1.000000	2650201.000000	1776581704.724414
3609.630000	-6215.670000	23265.765000	58575.240000	43975.620000	31067.955000	-289.305000	39.645000	-0.238484	-4.335199	-6.818547	-3.428926	-6.587336	9.543032	5.527814	3.308269	5.737760	2.975700	3.692920	-0.828550	0.004272	0.548827	-1.000000	-1.000000	-1.000000	-1.000000	-1.000000	-1.000000	-1.000000	54.000000	0.000000	-1.000000	-1.000000	2650202.000000	1776581704.728444
3611.250000	-6214.185000	23265.360000	58574.520000	43986.510000	31061.160000	-290.655000	41.445000	-0.517845	-6.145860	-9.409025	-5.799035	-8.287686	3.675234	3.602146	2.540007	5.737760	2.975700	3.692920	-0.828550	0.004272	0.548827	-1.000000	-1.000000	-1.000000	-1.000000	-1.000000	-1.000000	-1.000000	54.000000	0.000000	-1.000000	-1.000000	2650203.000000	1776581704.728456
3604.635000	-6218.640000	23268.645000	58588.155000	43997.310000	31070.835000	-288.990000	36.045000	0.658362	-4.231774	-7.722930	-6.342268	-7.216914	-6.135419	0.003506	1.629452	5.737760	2.975700	3.692920	-0.828550	0.004272	0.548827	-1.000000	-1.000000	-1.000000	-1.000000	-1.000000	-1.000000	-1.000000	54.000000	0.000000	-1.000000	-1.000000	2650204.000000	1776581704.732412
3596.355000	-6227.640000	23261.985000	58585.905000	43987.410000	31059.315000	-297.540000	28.170000	1.612058	-0.647067	-3.054255	-3.831302	-3.573370	-15.518456	-3.789054	0.251929	5.737760	2.975700	3.692920	-0.828550	0.004272	0.548827	-1.000000	-1.000000	-1.000000	-1.000000	-1.000000	-1.000000	-1.000000	54.000000	0.000000	-1.000000	-1.000000	2650205.000000	1776581704.732426
3597.615000	-6225.210000	23262.885000	58584.285000	43974.630000	31041.630000	-301.320000	28.260000	1.042487	2.225193	2.320039	1.173276	0.315051	-20.350895	-6.490810	-1.787971	5.737760	2.975700	3.692920	-0.828550	0.004272	0.548827	-1.000000	-1.000000	-1.000000	-1.000000	-1.000000	-1.000000	-1.000000	54.000000	0.000000	-1.000000	-1.000000	2650206.000000	1776581704.736331
3604.410000	-6217.065000	23268.150000	58581.090000	43970.985000	31036.635000	-302.355000	32.580000	-0.286410	3.661616	6.163725	5.522007	1.601786	-19.575117	-7.305524	-3.433542	5.737760	2.975700	3.692920	-0.828550	0.004272	0.548827	-1.000000	-1.000000	-1.000000	-1.000000	-1.000000	-1.000000	-1.000000	54.000000	0.000000	-1.000000	-1.000000	2650207.000000	1776581704.736341
3605.085000	-6215.805000	23268.690000	58577.715000	43967.835000	31029.345000	-305.370000	31.860000	-0.621465	4.428416	7.652249	6.629825	0.323363	-13.864724	-5.818899	-3.253784	5.737760	2.975700	3.692920	-0.828550	0.004272	0.548827	-1.000000	-1.000000	-1.000000	-1.000000	-1.000000	-1.000000	-1.000000	54.000000	0.000000	-1.000000	-1.000000	2650208.000000	1776581704.740223
3604.230000	-6217.245000	23268.285000	58579.110000	43970.220000	31031.280000	-302.220000	32.310000	0.396490	4.716346	6.870539	4.463401	-1.039750	-4.585320	-2.393435	-1.239732	5.737760	2.975700	3.692920	-0.828550	0.004272	0.548827	-1.000000	-1.000000	-1.000000	-1.000000	-1.000000	-1.000000	-1.000000	54.000000	0.000000	-1.000000	-1.000000	2650209.000000	1776581704.740251
3605.760000	-6217.695000	23267.610000	58580.055000	43970.670000	31032.000000	-299.295000	35.910000	1.527511	3.752038	4.191534	0.991897	-0.467049	5.891732	1.855567	1.255591	5.737760	2.975700	3.692920	-0.828550	0.004272	0.548827	-1.000000	-1.000000	-1.000000	-1.000000	-1.000000	-1.000000	-1.000000	54.000000	0.000000	-1.000000	-1.000000	2650210.000000	1776581704.744353
3608.595000	-6215.265000	23270.535000	58581.810000	43968.195000	31029.435000	-298.215000	38.610000	1.705833	1.332146	0.556841	-1.612828	1.899941	14.443793	5.508670	2.976933	5.737760	2.975700	3.692920	-0.828550	0.004272	0.548827	-1.000000	-1.000000	-1.000000	-1.000000	-1.000000	-1.000000	-1.000000	54.000000	0.000000	-1.000000	-1.000000	2650211.000000	1776581704.744381
3611.925000	-6210.090000	23278.635000	58590.135000	43970.850000	31028.085000	-301.995000	38.655000	0.982804	-1.446732	-2.484740	-2.288181	4.319843	18.253058	7.144617	3.371878	3.448760	2.350040	5.371520	-0.829893	0.011963	0.548033	-1.000000	-1.000000	-1.000000	-1.000000	-1.000000	-1.000000	-1.000000	54.000000	0.000000	-1.000000	-1.000000	2650212.000000	1776581704.748363
3621.555000	-6201.540000	23286.600000	58601.745000	43982.820000	31037.670000	-292.545000	49.410000	0.119215	-3.038204	-3.553605	-1.041706	5.471889	16.521591	6.174862	2.572221	3.448760	2.350040	5.371520	-0.829893	0.011963	0.548033	-1.000000	-1.000000	-1.000000	-1.000000	-1.000000	-1.000000	-1.000000	54.000000	0.000000	-1.000000	-1.000000	2650213.000000	1776581704.748380
3619.845000	-6202.170000	23281.920000	58600.305000	43987.185000	31044.330000	-285.030000	51.120000	-0.285588	-2.821050	-2.691093	1.151353	5.387137	11.131844	3.668128	1.324896	3.448760	2.350040	5.371520	-0.829893	0.011963	0.548033	-1.000000	-1.000000	-1.000000	-1.000000	-1.000000	-1.000000	-1.000000	54.000000	0.000000	-1.000000	-1.000000	2650214.000000	1776581704.752180
3603.960000	-6218.505000	23266.170000	58587.885000	43974.495000	31031.280000	-297.405000	37.215000	-0.806014	-2.000224	-1.810261	2.168101	4.035774	4.550037	1.026909	-0.107619	3.448760	2.350040	5.371520	-0.829893	0.011963	0.548033	-1.000000	-1.000000	-1.000000	-1.000000	-1.000000	-1.000000	-1.000000	54.000000	0.000000	-1.000000	-1.000000	2650215.000000	1776581704.752186
3597.075000	-6237.945000	23244.120000	58580.415000	43968.465000	31028.220000	-296.955000	35.280000	-2.667614	-2.772321	-3.136378	0.139219	0.653704	-2.152287	-1.668296	-2.339329	3.448760	2.350040	5.371520	-0.829893	0.011963	0.548033	-1.000000	-1.000000	-1.000000	-1.000000	-1.000000	-1.000000	-1.000000	54.000000	0.000000	-1.000000	-1.000000	2650216.000000	1776581704.756236
3602.385000	-6242.130000	23234.895000	58585.905000	43968.780000	31020.885000	-299.655000	36.720000	-5.297744	-5.575304	-6.627135	-4.024229	-4.243606	-8.175260	-4.411045	-4.944020	3.448760	2.350040	5.371520	-0.829893	0.011963	0.548033	-1.000000	-1.000000	-1.000000	-1.000000	-1.000000	-1.000000	-1.000000	54.000000	0.000000	-1.000000	-1.000000	2650217.000000	1776581704.756246
3618.180000	-6221.160000	23250.735000	58592.565000	43978.905000	31022.820000	-296.370000	46.035000	-5.788904	-7.319143	-8.885852	-6.744983	-7.810037	-11.764572	-6.016915	-5.812481	3.448760	2.350040	5.371520	-0.829893	0.011963	0.548033	-1.000000	-1.000000	-1.000000	-1.000000	-1.000000	-1.000000	-1.000000	54.000000	0.000000	-1.000000	-1.000000	2650218.000000	1776581704.760360
3623.805000	-6192.405000	23288.310000	58589.775000	43967.115000	31007.070000	-299.520000	49.410000	-2.083962	-3.698950	-5.250885	-5.435555	-7.571567	-11.590473	-5.394477	-3.457015	3.448760	2.350040	5.371520	-0.829893	0.011963	0.548033	-1.000000	-1.000000	-1.000000	-1.000000	-1.000000	-1.000000	-1.000000	54.000000	0.000000	-1.000000	-1.000000	2650219.000000	1776581704.760381
3622.230000	-6178.230000	23316.480000	58587.255000	43947.045000	30976.515000	-308.070000	46.485000	4.012154	5.732035	5.587849	-1.184660	-4.603332	-8.765753	-3.017048	0.967016	3.448760	2.350040	5.371520	-0.829893	0.011963	0.548033	-1.000000	-1.000000	-1.000000	-1.000000	-1.000000	-1.000000	-1.000000	54.000000	0.000000	-1.000000	-1.000000	2650220.000000	1776581704.764350
3633.030000	-6179.670000	23314.140000	58604.310000	43954.155000	30956.310000	-305.640000	57.285000	8.341957	15.351408	18.180638	3.169560	-1.873622	-6.043924	-0.431999	4.685129	3.448760	2.350040	5.371520	-0.829893	0.011963	0.548033	-1.000000	-1.000000	-1.000000	-1.000000	-1.000000	-1.000000	-1.000000	54.000000	0.000000	-1.000000	-1.000000	2650221.000000	1776581704.764366
3628.530000	-6193.890000	23295.465000	58600.485000	43972.875000	30989.160000	-302.535000	53.100000	8.382588	17.515351	22.891405	5.990571	0.303624	-3.580816	1.546704	5.903346	0.259420	4.532220	4.974760	-0.831724	0.019653	0.544310	-1.000000	-1.000000	-1.000000	-1.000000	-1.000000	-1.000000	-1.000000	54.000000	0.000000	-1.000000	-1.000000	2650222.000000	1776581704.768283
3615.435000	-6200.235000	23286.960000	58592.520000	43985.610000	31053.915000	-297.720000	40.365000	4.224582	9.238742	14.155973	6.385241	3.905467	2.919332	3.179906	4.212871	0.259420	4.532220	4.974760	-0.831724	0.019653	0.544310	-1.000000	-1.000000	-1.000000	-1.000000	-1.000000	-1.000000	-1.000000	54.000000	0.000000	-1.000000	-1.000000	2650223.000000	1776581704.768292
3615.345000	-6199.965000	23287.590000	58598.775000	43996.950000	31068.855000	-293.535000	41.805000	-2.381791	-4.906489	-3.635285	3.841327	8.816505	15.774465	4.575385	0.138250	0.259420	4.532220	4.974760	-0.831724	0.019653	0.544310	-1.000000	-1.000000	-1.000000	-1.000000	-1.000000	-1.000000	-1.000000	54.000000	0.000000	-1.000000	-1.000000	2650224.000000	1776581704.772310
3596.850000	-6221.970000	23267.835000	58586.130000	43991.910000	31060.215000	-298.935000	28.530000	-8.484767	-16.786464	-19.916375	-0.461217	11.777767	27.823046	5.047353	-4.390289	0.259420	4.532220	4.974760	-0.831724	0.019653	0.544310	-1.000000	-1.000000	-1.000000	-1.000000	-1.000000	-1.000000	-1.000000	54.000000	0.000000	-1.000000	-1.000000	2650225.000000	1776581704.772316
3595.905000	-6224.940000	23265.495000	58581.270000	43980.705000	31053.870000	-298.215000	27.945000	-11.389568	-21.119112	-26.706958	-4.499441	9.319838	27.475278	3.703312	-7.031675	0.259420	4.532220	4.974760	-0.831724	0.019653	0.544310	-1.000000	-1.000000	-1.000000	-1.000000	-1.000000	-1.000000	-1.000000	54.000000	0.000000	-1.000000	-1.000000	2650226.000000	1776581704.779273
3599.910000	-6218.865000	23274.135000	58592.160000	43991.595000	31073.310000	-294.390000	30.825000	-9.732316	-17.031378	-22.139530	-6.538199	1.440586	11.884514	0.791898	-6.425394	0.259420	4.532220	4.974760	-0.831724	0.019653	0.544310	-1.000000	-1.000000	-1.000000	-1.000000	-1.000000	-1.000000	-1.000000	54.000000	0.000000	-1.000000	-1.000000	2650227.000000	1776581704.779298
3600.675000	-6219.630000	23269.455000	58584.735000	43977.600000	31050.630000	-302.040000	31.545000	-3.731854	-6.541530	-9.161930	-5.353239	-7.645895	-10.109951	-2.237748	-2.585799	0.259420	4.532220	4.974760	-0.831724	0.019653	0.544310	-1.000000	-1.000000	-1.000000	-1.000000	-1.000000	-1.000000	-1.000000	54.000000	0.000000	-1.000000	-1.000000	2650228.000000	1776581704.780390
3602.205000	-6219.765000	23262.480000	58566.735000	43962.345000	31034.790000	-307.575000	32.130000	4.177659	5.852890	5.784506	-1.971840	-13.590914	-27.623309	-4.348108	2.753958	0.259420	4.532220	4.974760	-0.831724	0.019653	0.544310	-1.000000	-1.000000	-1.000000	-1.000000	-1.000000	-1.000000	-1.000000	54.000000	0.000000	-1.000000	-1.000000	2650229.000000	1776581704.780398
3597.030000	-6222.555000	23272.830000	58583.835000	43975.215000	31035.195000	-307.575000	26.145000	10.214286	14.778928	16.075697	1.031904	-14.611132	-34.648422	-5.256414	6.811226	0.259420	4.532220	4.974760	-0.831724	0.019653	0.544310	-1.000000	-1.000000	-1.000000	-1.000000	-1.000000	-1.000000	-1.000000	54.000000	0.000000	-1.000000	-1.000000	2650230.000000	1776581704.784379
3602.295000	-6224.040000	23262.435000	58578.930000	43983.630000	31047.705000	-299.520000	33.660000	11.744235	17.029052	18.853754	2.949527	-10.102957	-29.351826	-4.461727	7.699771	0.259420	4.532220	4.974760	-0.831724	0.019653	0.544310	-1.000000	-1.000000	-1.000000	-1.000000	-1.000000	-1.000000	-1.000000	54.000000	0.000000	-1.000000	-1.000000	2650231.000000	1776581704.784391
3598.020000	-6226.470000	23245.605000	58566.735000	43966.395000	31033.035000	-306.450000	28.755000	8.846251	12.952623	14.656895	4.104688	-1.516150	-14.101834	-1.755195	5.667140	-3.555580	4.471180	4.074420	-0.832884	0.023010	0.543334	-1.000000	-1.000000	-1.000000	-1.000000	-1.000000	-1.000000	-1.000000	54.000000	0.000000	-1.000000	-1.000000	2650232.000000	1776581704.788363
3603.285000	-6214.950000	23264.820000	58571.370000	43965.135000	31027.365000	-304.830000	33.120000	3.638042	5.732128	6.209614	3.851897	6.453904	3.826908	1.586462	2.270218	-3.555580	4.471180	4.074420	-0.832884	0.023010	0.543334	-1.000000	-1.000000	-1.000000	-1.000000	-1.000000	-1.000000	-1.000000	54.000000	0.000000	-1.000000	-1.000000	2650233.000000	1776581704.788373
3608.460000	-6210.630000	23273.280000	58577.985000	43967.700000	31027.185000	-298.440000	39.645000	-1.254085	-0.614078	-1.447171	2.419008	9.876691	16.553858	3.872872	-0.812609	-3.555580	4.471180	4.074420	-0.832884	0.023010	0.543334	-1.000000	-1.000000	-1.000000	-1.000000	-1.000000	-1.000000	-1.000000	54.000000	0.000000	-1.000000	-1.000000	2650234.000000	1776581704.792422
3609.720000	-6212.340000	23270.670000	58579.065000	43967.610000	31022.955000	-298.665000	41.355000	-3.995107	-3.915551	-4.436264	1.333080	8.924195	20.800050	4.604178	-2.377837	-3.555580	4.471180	4.074420	-0.832884	0.023010	0.543334	-1.000000	-1.000000	-1.000000	-1.000000	-1.000000	-1.000000	-1.000000	54.000000	0.000000	-1.000000	-1.000000	2650235.000000	1776581704.792437
3604.995000	-6219.630000	23264.010000	58579.695000	43967.430000	31021.155000	-302.670000	37.305000	-4.563100	-4.954543	-3.750347	1.131691	5.903629	17.902850	3.881757	-2.531506	-3.555580	4.471180	4.074420	-0.832884	0.023010	0.543334	-1.000000	-1.000000	-1.000000	-1.000000	-1.000000	-1.000000	-1.000000	54.000000	0.000000	-1.000000	-1.000000	2650236.000000	1776581704.796469
3601.845000	-6220.890000	23264.685000	58581.495000	43966.710000	31019.715000	-308.520000	31.770000	-4.279660	-5.520807	-2.798793	1.002030	2.629318	11.160734	1.700229	-2.522552	-3.555580	4.471180	4.074420	-0.832884	0.023010	0.543334	-1.000000	-1.000000	-1.000000	-1.000000	-1.000000	-1.000000	-1.000000	54.000000	0.000000	-1.000000	-1.000000	2650237.000000	1776581704.796488
3606.975000	-6208.920000	23278.815000	58590.855000	43971.435000	31023.000000	-309.780000	33.480000	-3.973718	-5.813909	-2.841133	0.395930	0.043427	3.994033	-1.389509	-3.102100	-3.555580	4.471180	4.074420	-0.832884	0.023010	0.543334	-1.000000	-1.000000	-1.000000	-1.000000	-1.000000	-1.000000	-1.000000	54.000000	0.000000	-1.000000	-1.000000	2650238.000000	1776581704.800367
3616.470000	-6197.580000	23289.435000	58604.310000	43982.955000	31032.270000	-302.805000	42.390000	-3.055087	-4.379695	-2.425319	-0.132749	-1.217026	-1.044778	-3.801126	-3.434306	-3.555580	4.471180	4.074420	-0.832884	0.023010	0.543334	-1.000000	-1.000000	-1.000000	-1.000000	-1.000000	-1.000000	-1.000000	54.000000	0.000000	-1.000000	-1.000000	2650239.000000	1776581704.800379
3616.740000	-6199.065000	23286.060000	58599.810000	43978.095000	31028.985000	-303.120000	43.425000	-0.827120	-0.767031	-0.607686	-0.071341	-1.050096	-3.060312	-3.922561	-2.197294	-3.555580	4.471180	4.074420	-0.832884	0.023010	0.543334	-1.000000	-1.000000	-1.000000	-1.000000	-1.000000	-1.000000	-1.000000	54.000000	0.000000	-1.000000	-1.000000	2650240.000000	1776581704.804304
3610.530000	-6209.820000	23271.660000	58580.415000	43962.480000	31022.280000	-305.280000	39.150000	1.736849	2.713171	0.872042	-0.606535	-0.860377	-3.283975	-1.853507	0.311012	-3.555580	4.471180	4.074420	-0.832884	0.023010	0.543334	-1.000000	-1.000000	-1.000000	-1.000000	-1.000000	-1.000000	-1.000000	54.000000	0.000000	-1.000000	-1.000000	2650241.000000	1776581704.804312
3604.860000	-6217.155000	23264.280000	58574.925000	43959.330000	31014.405000	-306.945000	34.200000	2.609171	3.065692	-0.338471	-3.383166	-2.427510	-3.800721	0.609063	2.157012	-7.263760	4.104940	2.639980	-0.833738	0.018921	0.541686	-1.000000	-1.000000	-1.000000	-1.000000	-1.000000	-1.000000	-1.000000	54.000000	0.000000	-1.000000	-1.000000	2650242.000000	1776581704.808437
3608.280000	-6213.555000	23266.080000	58572.360000	43952.670000	30999.105000	-307.260000	37.350000	1.172251	0.135369	-3.737294	-7.334481	-5.254779	-5.479017	1.865438	2.069527	-7.263760	4.104940	2.639980	-0.833738	0.018921	0.541686	-1.000000	-1.000000	-1.000000	-1.000000	-1.000000	-1.000000	-1.000000	54.000000	0.000000	-1.000000	-1.000000	2650243.000000	1776581704.808455
3613.185000	-6207.480000	23274.855000	58582.170000	43958.655000	30991.770000	-306.090000	41.895000	-0.867968	-2.986823	-5.916264	-8.853161	-6.736181	-7.469804	1.717349	0.851739	-7.263760	4.104940	2.639980	-0.833738	0.018921	0.541686	-1.000000	-1.000000	-1.000000	-1.000000	-1.000000	-1.000000	-1.000000	54.000000	0.000000	-1.000000	-1.000000	2650244.000000	1776581704.812431
3613.680000	-6207.075000	23278.320000	58592.070000	43971.705000	31004.595000	-302.760000	43.470000	-1.444049	-3.283042	-4.099612	-5.349035	-4.622408	-7.636632	0.989615	0.130240	-7.263760	4.104940	2.639980	-0.833738	0.018921	0.541686	-1.000000	-1.000000	-1.000000	-1.000000	-1.000000	-1.000000	-1.000000	54.000000	0.000000	-1.000000	-1.000000	2650245.000000	1776581704.812445
3604.005000	-6217.155000	23271.030000	58592.070000	43978.770000	31031.415000	-300.960000	36.180000	-0.482218	-0.903812	0.821696	2.024021	1.056049	-3.522475	0.541241	0.282401	-7.263760	4.104940	2.639980	-0.833738	0.018921	0.541686	-1.000000	-1.000000	-1.000000	-1.000000	-1.000000	-1.000000	-1.000000	54.000000	0.000000	-1.000000	-1.000000	2650246.000000	1776581704.817946
3610.080000	-6212.385000	23272.470000	58590.180000	43971.525000	31022.505000	-300.825000	41.715000	0.524100	1.657391	5.223965	8.859437	7.248820	4.612177	0.539697	0.439125	-7.263760	4.104940	2.639980	-0.833738	0.018921	0.541686	-1.000000	-1.000000	-1.000000	-1.000000	-1.000000	-1.000000	-1.000000	54.000000	0.000000	-1.000000	-1.000000	2650247.000000	1776581704.817955
3610.485000	-6212.340000	23270.670000	58584.735000	43980.840000	31039.200000	-296.955000	43.065000	0.858400	2.795528	6.447809	10.937264	9.904637	12.144946	0.592283	0.220782	-7.263760	4.104940	2.639980	-0.833738	0.018921	0.541686	-1.000000	-1.000000	-1.000000	-1.000000	-1.000000	-1.000000	-1.000000	54.000000	0.000000	-1.000000	-1.000000	2650248.000000	1776581704.823159
3602.880000	-6217.785000	23264.820000	58572.315000	43971.930000	31043.430000	-301.005000	35.910000	0.806992	2.622427	4.518548	7.214988	7.523288	14.270290	0.322167	-0.087369	-7.263760	4.104940	2.639980	-0.833738	0.018921	0.541686	-1.000000	-1.000000	-1.000000	-1.000000	-1.000000	-1.000000	-1.000000	54.000000	0.000000	-1.000000	-1.000000	2650249.000000	1776581704.823166
3603.735000	-6214.995000	23271.570000	58579.245000	43965.720000	31023.585000	-304.245000	35.145000	0.394700	1.643410	1.151575	0.201906	1.629042	9.730081	-0.496208	-0.563396	-7.263760	4.104940	2.639980	-0.833738	0.018921	0.541686	-1.000000	-1.000000	-1.000000	-1.000000	-1.000000	-1.000000	-1.000000	54.000000	0.000000	-1.000000	-1.000000	2650250.000000	1776581704.824440
3607.290000	-6210.765000	23277.285000	58585.680000	43965.180000	31015.035000	-303.480000	37.485000	-0.191877	0.557611	-1.378722	-5.521241	-4.907084	0.055486	-1.721395	-1.165580	-7.263760	4.104940	2.639980	-0.833738	0.018921	0.541686	-1.000000	-1.000000	-1.000000	-1.000000	-1.000000	-1.000000	-1.000000	54.000000	0.000000	-1.000000	-1.000000	2650251.000000	1776581704.824448
3601.755000	-6215.850000	23267.070000	58575.645000	43965.585000	31028.085000	-306.900000	31.995000	-0.348740	0.042719	-1.884830	-6.769536	-8.962203	-10.432805	-2.632811	-1.334022	-5.096840	4.837420	3.494540	-0.835264	0.015198	0.537230	-1.000000	-1.000000	-1.000000	-1.000000	-1.000000	-1.000000	-1.000000	54.000000	0.000000	-1.000000	-1.000000	2650252.000000	1776581704.828556
3605.175000	-6216.255000	23258.745000	58576.635000	43973.010000	31040.055000	-305.820000	34.650000	-0.008364	-0.098699	-1.503589	-4.339526	-8.565930	-15.510906	-2.554315	-0.847394	-5.096840	4.837420	3.494540	-0.835264	0.015198	0.537230	-1.000000	-1.000000	-1.000000	-1.000000	-1.000000	-1.000000	-1.000000	54.000000	0.000000	-1.000000	-1.000000	2650253.000000	1776581704.828570
3615.210000	-6212.205000	23254.740000	58589.955000	43982.145000	31031.100000	-298.710000	46.620000	0.655582	-0.335597	-1.878813	-0.744534	-3.999334	-12.287507	-1.275206	0.279722	-5.096840	4.837420	3.494540	-0.835264	0.015198	0.537230	-1.000000	-1.000000	-1.000000	-1.000000	-1.000000	-1.000000	-1.000000	54.000000	0.000000	-1.000000	-1.000000	2650254.000000	1776581704.832608
3612.060000	-6224.175000	23247.630000	58590.540000	43979.535000	31027.995000	-299.205000	47.205000	1.639186	-0.705159	-2.913005	2.658903	2.273734	-4.258508	0.935172	2.080195	-5.096840	4.837420	3.494540	-0.835264	0.015198	0.537230	-1.000000	-1.000000	-1.000000	-1.000000	-1.000000	-1.000000	-1.000000	54.000000	0.000000	-1.000000	-1.000000	2650255.000000	1776581704.832629
3601.395000	-6237.405000	23254.290000	58590.270000	43978.815000	31032.675000	-300.510000	42.210000	2.081476	-1.542746	-3.174301	4.900922	6.695337	2.869329	3.001181	3.606846	-5.096840	4.837420	3.494540	-0.835264	0.015198	0.537230	-1.000000	-1.000000	-1.000000	-1.000000	-1.000000	-1.000000	-1.000000	54.000000	0.000000	-1.000000	-1.000000	2650256.000000	1776581704.836564
3596.895000	-6223.410000	23274.405000	58594.770000	43979.940000	31030.020000	-305.325000	32.535000	0.668203	-2.776748	-1.117527	4.885894	6.994615	6.305658	3.495812	3.071712	-5.096840	4.837420	3.494540	-0.835264	0.015198	0.537230	-1.000000	-1.000000	-1.000000	-1.000000	-1.000000	-1.000000	-1.000000	54.000000	0.000000	-1.000000	-1.000000	2650257.000000	1776581704.836594
3606.030000	-6190.020000	23307.480000	58606.020000	43984.260000	31039.920000	-303.345000	33.255000	-2.039337	-2.131255	4.027522	2.883089	3.865594	6.478704	2.013826	0.015743	-5.096840	4.837420	3.494540	-0.835264	0.015198	0.537230	-1.000000	-1.000000	-1.000000	-1.000000	-1.000000	-1.000000	-1.000000	54.000000	0.000000	-1.000000	-1.000000	2650258.000000	1776581704.840316
3605.760000	-6195.150000	23301.495000	58601.745000	43981.155000	31043.205000	-303.480000	33.390000	-3.575659	2.299698	10.442906	0.372181	-0.198756	5.114563	-0.317422	-3.597118	-5.096840	4.837420	3.494540	-0.835264	0.015198	0.537230	-1.000000	-1.000000	-1.000000	-1.000000	-1.000000	-1.000000	-1.000000	54.000000	0.000000	-1.000000	-1.000000	2650259.000000	1776581704.840328
3616.020000	-6205.185000	23280.840000	58575.735000	43972.380000	31039.380000	-296.955000	45.855000	-2.381641	7.455463	12.804459	-2.290179	-3.369145	3.433166	-1.824196	-4.942246	-5.096840	4.837420	3.494540	-0.835264	0.015198	0.537230	-1.000000	-1.000000	-1.000000	-1.000000	-1.000000	-1.000000	-1.000000	54.000000	0.000000	-1.000000	-1.000000	2650260.000000	1776581704.846369
3625.425000	-6195.690000	23289.570000	58588.425000	43978.635000	31032.945000	-296.010000	53.415000	0.900455	8.050987	6.955716	-5.566769	-5.055974	1.292559	-1.628429	-2.677595	-5.096840	4.837420	3.494540	-0.835264	0.015198	0.537230	-1.000000	-1.000000	-1.000000	-1.000000	-1.000000	-1.000000	-1.000000	54.000000	0.000000	-1.000000	-1.000000	2650261.000000	1776581704.846379
3619.980000	-6197.535000	23284.395000	58594.275000	43976.295000	31021.695000	-305.055000	45.990000	4.180237	3.272729	-4.291476	-7.682382	-4.861307	-1.757024	-0.425144	1.667951	0.381500	5.005280	2.609460	-0.837950	0.012878	0.534361	-1.000000	-1.000000	-1.000000	-1.000000	-1.000000	-1.000000	-1.000000	54.000000	0.000000	-1.000000	-1.000000	2650262.000000	1776581704.852585
3618.180000	-6198.840000	23286.645000	58602.645000	43985.385000	31031.865000	-299.340000	46.620000	4.974102	-3.294937	-13.696676	-5.816891	-2.640112	-4.844993	0.269451	4.615209	0.381500	5.005280	2.609460	-0.837950	0.012878	0.534361	-1.000000	-1.000000	-1.000000	-1.000000	-1.000000	-1.000000	-1.000000	54.000000	0.000000	-1.000000	-1.000000	2650263.000000	1776581704.852594
3616.830000	-6200.145000	23285.790000	58596.750000	43985.160000	31040.505000	-292.365000	49.815000	2.340399	-8.039893	-16.311333	-0.407385	0.805613	-5.641680	0.168044	4.111465	0.381500	5.005280	2.609460	-0.837950	0.012878	0.534361	-1.000000	-1.000000	-1.000000	-1.000000	-1.000000	-1.000000	-1.000000	54.000000	0.000000	-1.000000	-1.000000	2650264.000000	1776581704.852809
3611.745000	-6206.175000	23278.140000	58582.575000	43973.550000	31040.010000	-294.480000	44.100000	-2.119857	-9.355016	-12.108392	4.569141	3.615893	-2.825933	0.203484	1.126192	0.381500	5.005280	2.609460	-0.837950	0.012878	0.534361	-1.000000	-1.000000	-1.000000	-1.000000	-1.000000	-1.000000	-1.000000	54.000000	0.000000	-1.000000	-1.000000	2650265.000000	1776581704.852817
3616.155000	-6203.295000	23282.505000	58588.425000	43970.625000	31031.685000	-297.180000	42.930000	-5.703770	-7.470620	-4.467862	5.634803	3.818547	1.605517	0.500473	-2.245797	0.381500	5.005280	2.609460	-0.837950	0.012878	0.534361	-1.000000	-1.000000	-1.000000	-1.000000	-1.000000	-1.000000	-1.000000	54.000000	0.000000	-1.000000	-1.000000	2650266.000000	1776581704.856421
3628.080000	-6192.270000	23290.875000	58599.990000	43973.820000	31034.070000	-293.265000	52.020000	-6.193690	-3.307548	3.116810	3.467427	1.482259	4.205269	0.379261	-4.229136	0.381500	5.005280	2.609460	-0.837950	0.012878	0.534361	-1.000000	-1.000000	-1.000000	-1.000000	-1.000000	-1.000000	-1.000000	54.000000	0.000000	-1.000000	-1.000000	2650267.000000	1776581704.856427
3634.020000	-6188.220000	23291.505000	58597.965000	43975.980000	31037.130000	-296.055000	57.600000	-2.971701	2.080160	8.688397	1.356399	-1.026720	3.774538	-0.233646	-3.608650	0.381500	5.005280	2.609460	-0.837950	0.012878	0.534361	-1.000000	-1.000000	-1.000000	-1.000000	-1.000000	-1.000000	-1.000000	54.000000	0.000000	-1.000000	-1.000000	2650268.000000	1776581704.860464
3622.680000	-6199.830000	23281.515000	58589.280000	43977.195000	31033.620000	-297.270000	51.120000	1.858457	6.603306	10.850140	0.612766	-1.650527	1.704522	-0.912895	-0.842068	0.381500	5.005280	2.609460	-0.837950	0.012878	0.534361	-1.000000	-1.000000	-1.000000	-1.000000	-1.000000	-1.000000	-1.000000	54.000000	0.000000	-1.000000	-1.000000	2650269.000000	1776581704.860480
3618.720000	-6202.755000	23280.120000	58590.990000	43983.630000	31035.870000	-297.270000	48.420000	4.544865	7.589577	8.717951	0.023268	-0.313018	-0.342507	-1.354943	1.714218	0.381500	5.005280	2.609460	-0.837950	0.012878	0.534361	-1.000000	-1.000000	-1.000000	-1.000000	-1.000000	-1.000000	-1.000000	54.000000	0.000000	-1.000000	-1.000000	2650270.000000	1776581704.864442
3618.360000	-6203.430000	23278.905000	58591.440000	43980.750000	31034.070000	-292.365000	49.545000	3.308270	4.526973	3.473592	-1.089408	1.673562	-1.547636	-1.235533	2.179136	0.381500	5.005280	2.609460	-0.837950	0.012878	0.534361	-1.000000	-1.000000	-1.000000	-1.000000	-1.000000	-1.000000	-1.000000	54.000000	0.000000	-1.000000	-1.000000	2650271.000000	1776581704.864452
3617.820000	-6208.470000	23270.985000	58588.020000	43974.720000	31031.370000	-289.980000	51.345000	-0.072159	-0.166924	-2.000734	-2.013258	2.586360	-1.824663	-0.283430	0.968511	4.501700	5.951400	2.685760	-0.839903	0.011047	0.534789	-1.000000	-1.000000	-1.000000	-1.000000	-1.000000	-1.000000	-1.000000	54.000000	0.000000	-1.000000	-1.000000	2650272.000000	1776581704.868506
3612.555000	-6219.675000	23261.400000	58587.480000	43982.595000	31042.980000	-292.095000	47.700000	-2.727324	-3.797835	-5.540588	-2.147832	1.572571	-1.343037	1.114004	-0.374624	4.501700	5.951400	2.685760	-0.839903	0.011047	0.534789	-1.000000	-1.000000	-1.000000	-1.000000	-1.000000	-1.000000	-1.000000	54.000000	0.000000	-1.000000	-1.000000	2650273.000000	1776581704.868515
3616.335000	-6212.565000	23278.860000	58598.955000	43990.020000	31048.155000	-291.105000	48.375000	-3.221290	-5.108126	-6.217031	-1.315550	-0.223293	0.024911	1.953718	-0.993278	4.501700	5.951400	2.685760	-0.839903	0.011047	0.534789	-1.000000	-1.000000	-1.000000	-1.000000	-1.000000	-1.000000	-1.000000	54.000000	0.000000	-1.000000	-1.000000	2650274.000000	1776581704.872409
