Channel1	Channel2	Channel3	Channel4	Channel5	Channel6	Channel7	Channel8	FilteredChannel1	FilteredChannel2	FilteredChannel3	FilteredChannel4	FilteredChannel5	FilteredChannel6	FilteredChannel7	FilteredChannel8	GyroX	GyroY	GyroZ	AccX	AccY	AccZ	PPG1	PPG2	rawPPG1	rawPPG2	rawPPG3	Hr	Hrv	Battery	Trigger	PhysicalTrigger	AutoTrigger	NumMeasurements	Timestamp
-14917.815000	-33647.355000	24857.325000	49076.505000	-1305.720000	-8286.660000	-36973.845000	15833.790000	-15.519698	-12.571820	-9.121025	-6.305185	-0.559702	-8.843539	-2.350935	-11.824197	-3.723440	-1.190280	-0.717220	-0.573058	0.266540	0.760191	-1.000000	-1.000000	-1.000000	-1.000000	-1.000000	-1.000000	-1.000000	63.000000	0.000000	-1.000000	-1.000000	664305.000000	1776577727.914347
-14958.090000	-33674.715000	24843.240000	49066.830000	-1320.390000	-8326.620000	-36979.380000	15816.825000	-5.242214	1.522190	3.492385	6.164224	19.277696	29.481048	1.121123	-4.220347	-3.723440	-1.190280	-0.717220	-0.573058	0.266540	0.760191	-1.000000	-1.000000	-1.000000	-1.000000	-1.000000	-1.000000	-1.000000	63.000000	0.000000	-1.000000	-1.000000	664306.000000	1776577727.917122
-14931.495000	-33663.780000	24844.185000	49055.535000	-1243.170000	-8311.140000	-36977.670000	15829.110000	6.466397	15.799013	16.911233	19.580564	32.364177	58.737118	4.851727	5.308370	-3.723440	-1.190280	-0.717220	-0.573058	0.266540	0.760191	-1.000000	-1.000000	-1.000000	-1.000000	-1.000000	-1.000000	-1.000000	63.000000	0.000000	-1.000000	-1.000000	664307.000000	1776577727.917148
-14931.495000	-33663.780000	24844.185000	49055.535000	-1243.170000	-8311.140000	-36977.670000	15829.110000	13.116824	21.334961	22.595547	25.137270	36.336853	60.449162	6.951117	11.663407	-3.723440	-1.190280	-0.717220	-0.573058	0.266540	0.760191	-1.000000	-1.000000	-1.000000	-1.000000	-1.000000	-1.000000	-1.000000	63.000000	0.000000	-1.000000	-1.000000	664308.000000	1776577727.921369
-14931.495000	-33663.780000	24844.185000	49055.535000	-1243.170000	-8311.140000	-36977.670000	15829.110000	13.828343	16.662675	17.937676	19.540917	31.777457	38.315802	6.618133	12.866544	-3.723440	-1.190280	-0.717220	-0.573058	0.266540	0.760191	-1.000000	-1.000000	-1.000000	-1.000000	-1.000000	-1.000000	-1.000000	63.000000	0.000000	-1.000000	-1.000000	664309.000000	1776577727.921379
-14931.495000	-33663.780000	24844.185000	49055.535000	-1243.170000	-8311.140000	-36977.670000	15829.110000	10.012744	6.191267	6.900581	7.301515	17.880593	7.201985	4.320027	9.475840	-3.723440	-1.190280	-0.717220	-0.573058	0.266540	0.760191	-1.000000	-1.000000	-1.000000	-1.000000	-1.000000	-1.000000	-1.000000	63.000000	0.000000	-1.000000	-1.000000	664310.000000	1776577727.921384
-14949.540000	-33676.695000	24836.355000	49049.145000	-1306.530000	-8320.815000	-36984.825000	15808.455000	3.331864	-4.634443	-4.567327	-4.779271	-3.663968	-18.973694	1.049590	3.155584	-5.463080	0.000000	-1.861720	-0.571715	0.264282	0.763365	-1.000000	-1.000000	-1.000000	-1.000000	-1.000000	-1.000000	-1.000000	63.000000	0.000000	-1.000000	-1.000000	664312.000000	1776577727.930570
-14941.530000	-33679.080000	24857.955000	49094.955000	-1204.965000	-8225.190000	-36973.800000	15827.760000	-4.001677	-12.085670	-11.771315	-11.411436	-25.099236	-31.036481	-2.011581	-3.689525	-5.463080	0.000000	-1.861720	-0.571715	0.264282	0.763365	-1.000000	-1.000000	-1.000000	-1.000000	-1.000000	-1.000000	-1.000000	63.000000	0.000000	-1.000000	-1.000000	664313.000000	1776577727.930581
-14901.255000	-33643.980000	24883.245000	49118.535000	-1185.480000	-8214.345000	-36966.060000	15848.145000	-8.262243	-13.798772	-11.922913	-9.613155	-33.490416	-25.220772	-3.377171	-7.387092	-5.463080	0.000000	-1.861720	-0.571715	0.264282	0.763365	-1.000000	-1.000000	-1.000000	-1.000000	-1.000000	-1.000000	-1.000000	63.000000	0.000000	-1.000000	-1.000000	664314.000000	1776577727.932972
-14897.565000	-33637.815000	24874.290000	49099.680000	-1225.035000	-8383.590000	-36960.300000	15850.080000	-5.985897	-8.495258	-5.725075	-1.766840	-23.894253	-11.104648	-2.265303	-5.387687	-5.463080	0.000000	-1.861720	-0.571715	0.264282	0.763365	-1.000000	-1.000000	-1.000000	-1.000000	-1.000000	-1.000000	-1.000000	63.000000	0.000000	-1.000000	-1.000000	664315.000000	1776577727.932989
-14922.765000	-33667.065000	24843.780000	49058.955000	-1249.965000	-8304.255000	-36958.590000	15827.895000	0.409577	0.518856	0.903250	3.345846	-8.357760	-6.842930	0.148610	-0.415966	-5.463080	0.000000	-1.861720	-0.571715	0.264282	0.763365	-1.000000	-1.000000	-1.000000	-1.000000	-1.000000	-1.000000	-1.000000	63.000000	0.000000	-1.000000	-1.000000	664316.000000	1776577727.938200
-14956.920000	-33693.885000	24829.875000	49049.865000	-1265.040000	-8188.155000	-36961.920000	15804.585000	3.082794	5.445818	1.340374	-1.102716	-0.906291	-11.407504	1.597871	1.419548	-5.463080	0.000000	-1.861720	-0.571715	0.264282	0.763365	-1.000000	-1.000000	-1.000000	-1.000000	-1.000000	-1.000000	-1.000000	63.000000	0.000000	-1.000000	-1.000000	664317.000000	1776577727.938215
-14957.280000	-33710.895000	24801.480000	49027.230000	-1298.295000	-8287.200000	-36971.370000	15799.320000	-2.054145	1.905308	-4.812369	-11.915012	-3.163571	-7.868420	0.562840	-2.439808	-2.411080	-1.495480	-0.763000	-0.568541	0.258727	0.764341	-1.000000	-1.000000	-1.000000	-1.000000	-1.000000	-1.000000	-1.000000	63.000000	0.000000	-1.000000	-1.000000	664318.000000	1776577727.941051
-14951.385000	-33694.155000	24821.955000	49042.935000	-1317.645000	-8350.380000	-36967.815000	15801.120000	-9.877078	-5.692354	-11.387106	-19.307529	-8.314310	2.375599	-2.514719	-7.973662	-2.411080	-1.495480	-0.763000	-0.568541	0.258727	0.764341	-1.000000	-1.000000	-1.000000	-1.000000	-1.000000	-1.000000	-1.000000	63.000000	0.000000	-1.000000	-1.000000	664319.000000	1776577727.941064
-14930.550000	-33673.455000	24835.410000	49048.110000	-1260.720000	-8294.490000	-36963.180000	15812.820000	-11.653868	-8.419175	-10.888707	-15.859419	-8.207138	5.031363	-5.192874	-8.930801	-2.411080	-1.495480	-0.763000	-0.568541	0.258727	0.764341	-1.000000	-1.000000	-1.000000	-1.000000	-1.000000	-1.000000	-1.000000	63.000000	0.000000	-1.000000	-1.000000	664320.000000	1776577727.944861
-14935.905000	-33676.245000	24842.430000	49068.900000	-1210.680000	-8290.530000	-36975.105000	15815.070000	-4.267358	-2.064607	-1.084594	-1.862567	3.144206	1.114081	-5.296347	-3.024497	-2.411080	-1.495480	-0.763000	-0.568541	0.258727	0.764341	-1.000000	-1.000000	-1.000000	-1.000000	-1.000000	-1.000000	-1.000000	63.000000	0.000000	-1.000000	-1.000000	664321.000000	1776577727.944867
-14929.515000	-33666.840000	24851.250000	49073.265000	-1228.455000	-8303.580000	-36978.750000	15823.845000	7.185624	8.723478	12.390754	15.321216	22.690731	0.699629	-3.239639	6.372608	-2.411080	-1.495480	-0.763000	-0.568541	0.258727	0.764341	-1.000000	-1.000000	-1.000000	-1.000000	-1.000000	-1.000000	-1.000000	63.000000	0.000000	-1.000000	-1.000000	664322.000000	1776577727.948945
-14925.105000	-33676.200000	24834.105000	49053.825000	-1240.515000	-8311.950000	-36973.530000	15827.805000	15.053003	15.745843	20.746017	25.980062	36.218138	4.901428	-0.643273	13.599684	-2.411080	-1.495480	-0.763000	-0.568541	0.258727	0.764341	-1.000000	-1.000000	-1.000000	-1.000000	-1.000000	-1.000000	-1.000000	63.000000	0.000000	-1.000000	-1.000000	664323.000000	1776577727.948956
-14942.295000	-33681.105000	24835.005000	49054.095000	-1245.330000	-8232.705000	-36976.410000	15812.820000	15.167210	14.288164	18.671638	23.947876	31.445408	9.795583	1.836771	14.587053	-2.411080	-1.495480	-0.763000	-0.568541	0.258727	0.764341	-1.000000	-1.000000	-1.000000	-1.000000	-1.000000	-1.000000	-1.000000	63.000000	0.000000	-1.000000	-1.000000	664324.000000	1776577727.952990
-14932.035000	-33674.310000	24845.265000	49071.285000	-1256.220000	-8225.730000	-36983.610000	15813.405000	8.157221	5.690935	8.067940	11.467372	10.395522	14.823865	3.763607	8.613000	-2.411080	-1.495480	-0.763000	-0.568541	0.258727	0.764341	-1.000000	-1.000000	-1.000000	-1.000000	-1.000000	-1.000000	-1.000000	63.000000	0.000000	-1.000000	-1.000000	664325.000000	1776577727.953032
-14919.750000	-33658.290000	24869.025000	49120.020000	-1229.265000	-8304.615000	-36979.830000	15820.470000	-1.197985	-4.054853	-3.451324	-1.839310	-13.700516	16.790401	4.352899	-0.910776	-2.411080	-1.495480	-0.763000	-0.568541	0.258727	0.764341	-1.000000	-1.000000	-1.000000	-1.000000	-1.000000	-1.000000	-1.000000	63.000000	0.000000	-1.000000	-1.000000	664326.000000	1776577727.957145
-14926.725000	-33658.650000	24872.535000	49120.785000	-1185.255000	-8284.050000	-36971.595000	15821.145000	-7.339352	-9.187017	-9.155651	-7.505205	-26.601936	8.332268	3.793850	-8.379766	-2.411080	-1.495480	-0.763000	-0.568541	0.258727	0.764341	-1.000000	-1.000000	-1.000000	-1.000000	-1.000000	-1.000000	-1.000000	63.000000	0.000000	-1.000000	-1.000000	664327.000000	1776577727.957165
-14919.660000	-33666.345000	24857.010000	49057.290000	-1176.480000	-8183.790000	-36966.465000	15827.580000	-8.518683	-8.845586	-8.769232	-7.149274	-22.367257	-6.919741	3.233016	-10.386185	-0.137340	-1.556520	-1.297100	-0.567259	0.256042	0.766844	-1.000000	-1.000000	-1.000000	-1.000000	-1.000000	-1.000000	-1.000000	63.000000	0.000000	-1.000000	-1.000000	664328.000000	1776577727.961020
-14909.355000	-33651.405000	24866.370000	49075.875000	-1188.945000	-8159.040000	-36967.005000	15829.785000	-6.240170	-5.955032	-6.695306	-8.936142	-7.881582	-13.513688	3.005137	-7.448960	-0.137340	-1.556520	-1.297100	-0.567259	0.256042	0.766844	-1.000000	-1.000000	-1.000000	-1.000000	-1.000000	-1.000000	-1.000000	63.000000	0.000000	-1.000000	-1.000000	664329.000000	1776577727.961030
-14925.330000	-33668.730000	24847.515000	49064.985000	-1213.380000	-8130.465000	-36972.540000	15818.445000	-2.743989	-3.099794	-5.993061	-14.340994	3.378827	-5.561568	2.107821	-2.660665	-0.137340	-1.556520	-1.297100	-0.567259	0.256042	0.766844	-1.000000	-1.000000	-1.000000	-1.000000	-1.000000	-1.000000	-1.000000	63.000000	0.000000	-1.000000	-1.000000	664330.000000	1776577727.964901
-14920.020000	-33675.795000	24826.185000	49037.265000	-1265.490000	-8352.090000	-36982.665000	15820.020000	-0.407556	-1.713464	-6.908342	-17.482493	2.758872	2.318861	-0.467283	0.614242	-0.137340	-1.556520	-1.297100	-0.567259	0.256042	0.766844	-1.000000	-1.000000	-1.000000	-1.000000	-1.000000	-1.000000	-1.000000	63.000000	0.000000	-1.000000	-1.000000	664331.000000	1776577727.964910
-14926.995000	-33685.515000	24828.480000	49042.530000	-1268.910000	-8475.480000	-36981.540000	15817.095000	-0.226383	-2.243662	-8.229505	-14.732408	-7.773224	-11.129126	-4.207961	1.226631	-0.137340	-1.556520	-1.297100	-0.567259	0.256042	0.766844	-1.000000	-1.000000	-1.000000	-1.000000	-1.000000	-1.000000	-1.000000	63.000000	0.000000	-1.000000	-1.000000	664332.000000	1776577727.968985
-14944.320000	-33696.765000	24824.700000	49045.455000	-1259.865000	-8456.085000	-36982.800000	15803.460000	-1.430566	-3.499380	-7.360448	-6.364089	-17.420814	-44.068127	-6.938044	0.200115	-0.137340	-1.556520	-1.297100	-0.567259	0.256042	0.766844	-1.000000	-1.000000	-1.000000	-1.000000	-1.000000	-1.000000	-1.000000	63.000000	0.000000	-1.000000	-1.000000	664333.000000	1776577727.968998
-14926.815000	-33679.305000	24839.820000	49061.925000	-1234.665000	-8339.715000	-36981.180000	15812.325000	-2.642954	-3.289647	-2.240993	5.600588	-15.184563	-62.008908	-6.647321	-1.034796	-0.137340	-1.556520	-1.297100	-0.567259	0.256042	0.766844	-1.000000	-1.000000	-1.000000	-1.000000	-1.000000	-1.000000	-1.000000	63.000000	0.000000	-1.000000	-1.000000	664334.000000	1776577727.972992
-14929.650000	-33681.645000	24835.770000	49063.320000	-1219.770000	-8307.810000	-36981.450000	15814.485000	-1.979751	0.065437	6.039946	17.181167	0.496518	-34.062183	-3.335532	-0.993578	-0.137340	-1.556520	-1.297100	-0.567259	0.256042	0.766844	-1.000000	-1.000000	-1.000000	-1.000000	-1.000000	-1.000000	-1.000000	63.000000	0.000000	-1.000000	-1.000000	664335.000000	1776577727.973008
-14920.515000	-33666.300000	24857.235000	49086.405000	-1208.115000	-8383.950000	-36988.020000	15820.020000	1.325554	5.853705	13.734359	23.753870	20.572754	27.406394	1.029135	1.100100	-0.137340	-1.556520	-1.297100	-0.567259	0.256042	0.766844	-1.000000	-1.000000	-1.000000	-1.000000	-1.000000	-1.000000	-1.000000	63.000000	0.000000	-1.000000	-1.000000	664336.000000	1776577727.976885
-14914.755000	-33657.255000	24864.705000	49093.065000	-1227.645000	-8433.765000	-36994.005000	15812.055000	5.583929	11.157089	17.415961	22.935924	32.446253	76.468979	3.933603	3.974456	-0.137340	-1.556520	-1.297100	-0.567259	0.256042	0.766844	-1.000000	-1.000000	-1.000000	-1.000000	-1.000000	-1.000000	-1.000000	63.000000	0.000000	-1.000000	-1.000000	664337.000000	1776577727.976892
-14932.755000	-33667.965000	24860.340000	49084.875000	-1215.000000	-8374.545000	-36988.515000	15798.420000	7.915466	12.849491	15.539128	15.137323	28.863970	81.334318	4.280102	4.979236	-2.426340	0.152600	-2.227960	-0.567503	0.259582	0.765501	-1.000000	-1.000000	-1.000000	-1.000000	-1.000000	-1.000000	-1.000000	63.000000	0.000000	-1.000000	-1.000000	664338.000000	1776577727.980926
-14945.625000	-33681.150000	24839.280000	49047.030000	-1230.975000	-8223.255000	-36977.715000	15790.185000	5.846517	8.813314	7.815289	1.842461	12.603871	52.926193	3.318468	2.518394	-2.426340	0.152600	-2.227960	-0.567503	0.259582	0.765501	-1.000000	-1.000000	-1.000000	-1.000000	-1.000000	-1.000000	-1.000000	63.000000	0.000000	-1.000000	-1.000000	664339.000000	1776577727.980935
-14956.065000	-33703.740000	24818.355000	49032.495000	-1236.330000	-8177.445000	-36972.315000	15791.580000	-0.450295	-0.521787	-4.307020	-14.089805	-7.117283	23.499990	2.974788	-1.963641	-2.426340	0.152600	-2.227960	-0.567503	0.259582	0.765501	-1.000000	-1.000000	-1.000000	-1.000000	-1.000000	-1.000000	-1.000000	63.000000	0.000000	-1.000000	-1.000000	664340.000000	1776577727.984893
-14919.165000	-33665.670000	24855.255000	49067.010000	-1219.005000	-8233.020000	-36971.415000	15808.095000	-6.544025	-10.450010	-15.664219	-25.925968	-21.098335	6.433632	3.426740	-4.686588	-2.426340	0.152600	-2.227960	-0.567503	0.259582	0.765501	-1.000000	-1.000000	-1.000000	-1.000000	-1.000000	-1.000000	-1.000000	63.000000	0.000000	-1.000000	-1.000000	664341.000000	1776577727.984900
-14929.290000	-33675.345000	24841.620000	49070.250000	-1195.155000	-8224.065000	-36976.590000	15797.610000	-7.004846	-14.123052	-19.166469	-25.615345	-23.439351	-9.865237	3.065291	-3.158867	-2.426340	0.152600	-2.227960	-0.567503	0.259582	0.765501	-1.000000	-1.000000	-1.000000	-1.000000	-1.000000	-1.000000	-1.000000	63.000000	0.000000	-1.000000	-1.000000	664342.000000	1776577727.991315
-14918.625000	-33661.080000	24865.605000	49090.635000	-1166.175000	-8187.975000	-36971.505000	15809.220000	-1.592629	-9.237127	-12.630392	-12.178363	-13.836631	-32.993656	0.739508	1.149808	-2.426340	0.152600	-2.227960	-0.567503	0.259582	0.765501	-1.000000	-1.000000	-1.000000	-1.000000	-1.000000	-1.000000	-1.000000	63.000000	0.000000	-1.000000	-1.000000	664343.000000	1776577727.991320
-14910.120000	-33644.295000	24881.085000	49099.995000	-1177.245000	-8265.690000	-36977.265000	15811.605000	4.883704	0.144327	-0.496620	6.337584	1.208146	-54.195173	-2.736785	4.924143	-2.426340	0.152600	-2.227960	-0.567503	0.259582	0.765501	-1.000000	-1.000000	-1.000000	-1.000000	-1.000000	-1.000000	-1.000000	63.000000	0.000000	-1.000000	-1.000000	664344.000000	1776577727.992920
-14942.565000	-33661.440000	24871.545000	49093.965000	-1181.565000	-8222.130000	-36983.070000	15788.430000	7.561078	8.108413	10.496033	19.549784	11.652249	-62.752670	-5.684032	5.697114	-2.426340	0.152600	-2.227960	-0.567503	0.259582	0.765501	-1.000000	-1.000000	-1.000000	-1.000000	-1.000000	-1.000000	-1.000000	63.000000	0.000000	-1.000000	-1.000000	664345.000000	1776577727.992927
-14954.805000	-33651.765000	24895.305000	49128.570000	-1160.910000	-8157.645000	-36965.430000	15795.495000	3.852331	10.194244	14.918589	21.762968	11.784995	-52.221232	-6.668809	2.510501	-2.426340	0.152600	-2.227960	-0.567503	0.259582	0.765501	-1.000000	-1.000000	-1.000000	-1.000000	-1.000000	-1.000000	-1.000000	63.000000	0.000000	-1.000000	-1.000000	664346.000000	1776577727.997092
-14884.290000	-33628.995000	24904.935000	49130.640000	-1166.670000	-8277.165000	-36947.790000	15845.850000	-3.129869	6.413149	12.013081	14.850111	4.491187	-24.192853	-4.312691	-1.744106	-2.426340	0.152600	-2.227960	-0.567503	0.259582	0.765501	-1.000000	-1.000000	-1.000000	-1.000000	-1.000000	-1.000000	-1.000000	63.000000	0.000000	-1.000000	-1.000000	664347.000000	1776577727.997128
-14886.315000	-33656.670000	24862.770000	49086.720000	-1183.410000	-8276.490000	-36963.630000	15841.710000	-5.202965	0.632217	4.369877	3.433308	-4.202414	5.249204	0.836861	-1.911130	-5.356260	1.693860	-1.052940	-0.566527	0.263366	0.765745	-1.000000	-1.000000	-1.000000	-1.000000	-1.000000	-1.000000	-1.000000	63.000000	0.000000	-1.000000	-1.000000	664348.000000	1776577728.001075
-14928.030000	-33670.575000	24860.385000	49084.470000	-1197.000000	-8236.440000	-36971.955000	15814.530000	-0.744427	-4.991272	-6.006187	-9.833713	-10.919778	21.886305	4.759392	1.384088	-5.356260	1.693860	-1.052940	-0.566527	0.263366	0.765745	-1.000000	-1.000000	-1.000000	-1.000000	-1.000000	-1.000000	-1.000000	63.000000	0.000000	-1.000000	-1.000000	664349.000000	1776577728.001110
-14937.030000	-33695.505000	24830.595000	49049.190000	-1301.130000	-8406.630000	-36998.550000	15793.920000	2.048943	-10.453685	-16.121496	-21.469651	-15.837809	25.316054	3.546811	1.452013	-5.356260	1.693860	-1.052940	-0.566527	0.263366	0.765745	-1.000000	-1.000000	-1.000000	-1.000000	-1.000000	-1.000000	-1.000000	63.000000	0.000000	-1.000000	-1.000000	664350.000000	1776577728.005009
-14924.655000	-33694.965000	24817.095000	49010.715000	-1326.240000	-8394.750000	-37005.255000	15787.350000	-1.565728	-14.129503	-21.368745	-27.021551	-20.728208	17.560128	-2.356390	-4.656469	-5.356260	1.693860	-1.052940	-0.566527	0.263366	0.765745	-1.000000	-1.000000	-1.000000	-1.000000	-1.000000	-1.000000	-1.000000	63.000000	0.000000	-1.000000	-1.000000	664351.000000	1776577728.005020
-14928.165000	-33703.740000	24805.890000	49016.520000	-1208.880000	-8374.905000	-36995.940000	15792.660000	-6.753572	-12.949280	-18.861028	-24.169588	-20.520178	5.177673	-8.069997	-11.879339	-5.356260	1.693860	-1.052940	-0.566527	0.263366	0.765745	-1.000000	-1.000000	-1.000000	-1.000000	-1.000000	-1.000000	-1.000000	63.000000	0.000000	-1.000000	-1.000000	664352.000000	1776577728.009121
-14921.325000	-33685.290000	24831.360000	49056.750000	-1200.330000	-8319.375000	-36997.875000	15798.825000	-7.469108	-5.543401	-8.514651	-11.684177	-4.207817	2.870999	-8.224613	-13.061194	-5.356260	1.693860	-1.052940	-0.566527	0.263366	0.765745	-1.000000	-1.000000	-1.000000	-1.000000	-1.000000	-1.000000	-1.000000	63.000000	0.000000	-1.000000	-1.000000	664353.000000	1776577728.009132
-14913.990000	-33673.275000	24848.010000	49079.115000	-1192.680000	-8280.450000	-36998.505000	15803.730000	-2.802158	6.183664	7.326242	9.421740	25.534044	17.190884	-2.086804	-6.041116	-5.356260	1.693860	-1.052940	-0.566527	0.263366	0.765745	-1.000000	-1.000000	-1.000000	-1.000000	-1.000000	-1.000000	-1.000000	63.000000	0.000000	-1.000000	-1.000000	664354.000000	1776577728.012950
-14911.200000	-33665.670000	24859.710000	49089.240000	-1202.985000	-8235.810000	-36987.975000	15808.995000	4.150718	17.552361	23.195190	31.469144	48.337683	38.122706	6.266823	5.096352	-5.356260	1.693860	-1.052940	-0.566527	0.263366	0.765745	-1.000000	-1.000000	-1.000000	-1.000000	-1.000000	-1.000000	-1.000000	63.000000	0.000000	-1.000000	-1.000000	664355.000000	1776577728.012992
-14924.070000	-33676.560000	24842.385000	49049.055000	-1204.740000	-8251.200000	-36978.615000	15801.480000	8.987667	22.783087	31.325561	41.903364	47.382755	48.301853	12.401003	13.802281	-5.356260	1.693860	-1.052940	-0.566527	0.263366	0.765745	-1.000000	-1.000000	-1.000000	-1.000000	-1.000000	-1.000000	-1.000000	63.000000	0.000000	-1.000000	-1.000000	664356.000000	1776577728.018633
-14947.605000	-33694.920000	24833.520000	49048.785000	-1179.720000	-8334.315000	-36982.980000	15782.580000	8.216911	18.108688	26.229716	32.701439	24.247631	34.548767	13.900444	15.182102	-5.356260	1.693860	-1.052940	-0.566527	0.263366	0.765745	-1.000000	-1.000000	-1.000000	-1.000000	-1.000000	-1.000000	-1.000000	63.000000	0.000000	-1.000000	-1.000000	664357.000000	1776577728.018650
-14934.555000	-33690.420000	24833.160000	49053.150000	-1188.810000	-8332.920000	-36990.495000	15784.785000	2.082862	5.144112	9.840376	8.754406	-5.863659	-2.600499	9.983890	8.765444	-2.563680	0.106820	0.198380	-0.569884	0.257873	0.765013	-1.000000	-1.000000	-1.000000	-1.000000	-1.000000	-1.000000	-1.000000	63.000000	0.000000	-1.000000	-1.000000	664358.000000	1776577728.021007
-14913.000000	-33664.005000	24856.920000	49074.570000	-1201.995000	-8252.325000	-36994.500000	15791.490000	-4.123704	-8.517322	-8.512901	-15.044598	-28.428197	-42.905117	1.831905	-0.708068	-2.563680	0.106820	0.198380	-0.569884	0.257873	0.765013	-1.000000	-1.000000	-1.000000	-1.000000	-1.000000	-1.000000	-1.000000	63.000000	0.000000	-1.000000	-1.000000	664359.000000	1776577728.021012
-14902.020000	-33647.490000	24880.590000	49116.915000	-1170.405000	-8305.470000	-36986.850000	15798.870000	-4.613684	-14.372469	-18.494850	-25.459150	-37.051907	-60.376863	-6.853498	-6.814876	-2.563680	0.106820	0.198380	-0.569884	0.257873	0.765013	-1.000000	-1.000000	-1.000000	-1.000000	-1.000000	-1.000000	-1.000000	63.000000	0.000000	-1.000000	-1.000000	664360.000000	1776577728.024933
-14910.615000	-33666.525000	24864.930000	49125.825000	-1157.670000	-8409.240000	-36980.595000	15798.285000	0.347208	-10.829576	-16.833829	-19.531457	-31.136788	-50.918367	-11.569951	-6.798577	-2.563680	0.106820	0.198380	-0.569884	0.257873	0.765013	-1.000000	-1.000000	-1.000000	-1.000000	-1.000000	-1.000000	-1.000000	63.000000	0.000000	-1.000000	-1.000000	664361.000000	1776577728.024939
-14936.085000	-33694.515000	24835.500000	49045.410000	-1162.620000	-8336.745000	-36974.565000	15790.860000	4.578166	-4.671073	-9.763562	-6.843788	-15.228926	-30.368943	-10.267809	-3.005297	-2.563680	0.106820	0.198380	-0.569884	0.257873	0.765013	-1.000000	-1.000000	-1.000000	-1.000000	-1.000000	-1.000000	-1.000000	64.000000	0.000000	-1.000000	-1.000000	664362.000000	1776577728.029132
-14937.390000	-33698.610000	24828.165000	49036.455000	-1169.415000	-8279.145000	-36971.055000	15800.400000	2.888496	-3.004809	-5.732032	-1.745094	1.312587	-7.000772	-4.712989	0.529516	-2.563680	0.106820	0.198380	-0.569884	0.257873	0.765013	-1.000000	-1.000000	-1.000000	-1.000000	-1.000000	-1.000000	-1.000000	64.000000	0.000000	-1.000000	-1.000000	664363.000000	1776577728.029151
-14905.125000	-33666.840000	24857.775000	49074.930000	-1156.140000	-8215.335000	-36971.775000	15813.990000	-2.702990	-4.995513	-5.800968	-6.882676	10.736676	21.007394	1.240631	2.210786	-2.563680	0.106820	0.198380	-0.569884	0.257873	0.765013	-1.000000	-1.000000	-1.000000	-1.000000	-1.000000	-1.000000	-1.000000	64.000000	0.000000	-1.000000	-1.000000	664364.000000	1776577728.033117
-14898.645000	-33646.860000	24886.800000	49120.605000	-1124.370000	-8174.430000	-36984.600000	15808.680000	-5.317727	-3.957177	-3.884940	-10.114150	12.659260	48.267972	4.165604	2.733299	-2.563680	0.106820	0.198380	-0.569884	0.257873	0.765013	-1.000000	-1.000000	-1.000000	-1.000000	-1.000000	-1.000000	-1.000000	64.000000	0.000000	-1.000000	-1.000000	664365.000000	1776577728.033151
-14899.725000	-33643.620000	24891.885000	49150.575000	-1103.985000	-8161.740000	-36982.215000	15799.770000	-2.118174	3.002029	3.732584	-1.378871	11.714396	60.958888	2.918799	2.053190	-2.563680	0.106820	0.198380	-0.569884	0.257873	0.765013	-1.000000	-1.000000	-1.000000	-1.000000	-1.000000	-1.000000	-1.000000	64.000000	0.000000	-1.000000	-1.000000	664366.000000	1776577728.039843
-14922.630000	-33676.515000	24849.630000	49067.820000	-1155.555000	-8309.430000	-36970.155000	15785.370000	2.488681	10.390050	11.938323	13.352059	9.709036	46.432389	-0.345962	-0.746059	-2.563680	0.106820	0.198380	-0.569884	0.257873	0.765013	-1.000000	-1.000000	-1.000000	-1.000000	-1.000000	-1.000000	-1.000000	64.000000	0.000000	-1.000000	-1.000000	664367.000000	1776577728.039856
-14940.765000	-33703.785000	24811.335000	49016.295000	-1224.450000	-8375.175000	-36982.575000	15771.285000	2.631781	10.090187	11.519871	17.457775	2.363732	2.383345	-2.265678	-5.246255	-0.045780	0.198380	-1.678600	-0.570067	0.252014	0.766111	-1.000000	-1.000000	-1.000000	-1.000000	-1.000000	-1.000000	-1.000000	64.000000	0.000000	-1.000000	-1.000000	664368.000000	1776577728.041114
-14938.695000	-33696.990000	24819.345000	49035.915000	-1247.445000	-8346.240000	-36991.215000	15776.190000	-2.404153	0.845118	0.528581	4.185486	-12.542532	-51.936320	-2.137694	-8.905297	-0.045780	0.198380	-1.678600	-0.570067	0.252014	0.766111	-1.000000	-1.000000	-1.000000	-1.000000	-1.000000	-1.000000	-1.000000	64.000000	0.000000	-1.000000	-1.000000	664369.000000	1776577728.041123
-14919.840000	-33688.080000	24826.770000	49055.310000	-1185.120000	-8281.530000	-36990.225000	15786.900000	-7.245571	-9.409848	-11.710143	-13.257088	-25.564331	-80.669402	-1.487331	-8.341283	-0.045780	0.198380	-1.678600	-0.570067	0.252014	0.766111	-1.000000	-1.000000	-1.000000	-1.000000	-1.000000	-1.000000	-1.000000	64.000000	0.000000	-1.000000	-1.000000	664370.000000	1776577728.045169
-14915.070000	-33689.295000	24827.220000	49039.965000	-1175.085000	-8271.225000	-36989.955000	15797.115000	-6.122174	-11.948393	-14.471942	-18.112384	-22.164166	-62.044483	-0.833338	-2.218556	-0.045780	0.198380	-1.678600	-0.570067	0.252014	0.766111	-1.000000	-1.000000	-1.000000	-1.000000	-1.000000	-1.000000	-1.000000	64.000000	0.000000	-1.000000	-1.000000	664371.000000	1776577728.045187
-14917.455000	-33687.360000	24832.170000	49046.355000	-1195.155000	-8364.240000	-36998.775000	15794.460000	0.784841	-5.699928	-6.208782	-8.194019	-1.185543	-11.493767	0.244047	6.599155	-0.045780	0.198380	-1.678600	-0.570067	0.252014	0.766111	-1.000000	-1.000000	-1.000000	-1.000000	-1.000000	-1.000000	-1.000000	64.000000	0.000000	-1.000000	-1.000000	664372.000000	1776577728.049252
-14924.520000	-33685.830000	24837.255000	49052.430000	-1189.755000	-8388.990000	-36994.320000	15789.150000	7.792918	3.827163	6.425042	7.051696	21.957927	32.909413	1.534159	12.602134	-0.045780	0.198380	-1.678600	-0.570067	0.252014	0.766111	-1.000000	-1.000000	-1.000000	-1.000000	-1.000000	-1.000000	-1.000000	64.000000	0.000000	-1.000000	-1.000000	664373.000000	1776577728.049311
-14968.080000	-33709.545000	24830.955000	49049.640000	-1187.955000	-8338.635000	-36989.100000	15765.120000	8.965893	10.144093	15.480982	17.969576	32.242217	47.930813	2.725829	11.627125	-0.045780	0.198380	-1.678600	-0.570067	0.252014	0.766111	-1.000000	-1.000000	-1.000000	-1.000000	-1.000000	-1.000000	-1.000000	64.000000	0.000000	-1.000000	-1.000000	664374.000000	1776577728.053017
-14965.605000	-33723.090000	24814.305000	49043.880000	-1173.465000	-8252.640000	-36990.090000	15763.995000	2.709724	9.437901	16.170452	19.697241	27.038368	41.705497	3.793654	3.920409	-0.045780	0.198380	-1.678600	-0.570067	0.252014	0.766111	-1.000000	-1.000000	-1.000000	-1.000000	-1.000000	-1.000000	-1.000000	64.000000	0.000000	-1.000000	-1.000000	664375.000000	1776577728.053030
-14909.265000	-33678.090000	24853.455000	49078.080000	-1149.120000	-8281.170000	-36989.595000	15785.415000	-5.039889	3.654985	9.367283	13.299240	13.417026	32.393415	4.197745	-5.144357	-0.045780	0.198380	-1.678600	-0.570067	0.252014	0.766111	-1.000000	-1.000000	-1.000000	-1.000000	-1.000000	-1.000000	-1.000000	64.000000	0.000000	-1.000000	-1.000000	664376.000000	1776577728.057240
-14887.665000	-33653.565000	24868.485000	49094.415000	-1134.720000	-8326.755000	-36984.015000	15791.220000	-4.878134	-0.014040	1.467260	4.699929	0.289196	22.903355	3.328430	-8.743669	-0.045780	0.198380	-1.678600	-0.570067	0.252014	0.766111	-1.000000	-1.000000	-1.000000	-1.000000	-1.000000	-1.000000	-1.000000	64.000000	0.000000	-1.000000	-1.000000	664377.000000	1776577728.057257
-14898.330000	-33663.240000	24856.605000	49084.020000	-1142.280000	-8311.545000	-36975.915000	15792.030000	4.228111	2.271878	-2.433810	-1.373223	-8.014631	6.104094	1.613983	-5.111129	-1.800680	-0.015260	-1.434440	-0.567687	0.256957	0.766722	-1.000000	-1.000000	-1.000000	-1.000000	-1.000000	-1.000000	-1.000000	64.000000	0.000000	-1.000000	-1.000000	664378.000000	1776577728.061281
-14920.380000	-33689.115000	24838.740000	49057.245000	-1184.940000	-8284.005000	-36986.445000	15780.735000	12.205292	5.336870	-4.090867	-6.003109	-13.359115	-15.298318	-0.184902	1.102633	-1.800680	-0.015260	-1.434440	-0.567687	0.256957	0.766722	-1.000000	-1.000000	-1.000000	-1.000000	-1.000000	-1.000000	-1.000000	64.000000	0.000000	-1.000000	-1.000000	664379.000000	1776577728.061316
-14919.165000	-33688.800000	24828.030000	49039.110000	-1208.700000	-8317.845000	-36996.390000	15779.295000	9.855096	2.298844	-7.468445	-12.202627	-19.334111	-29.812006	-2.320567	4.199266	-1.800680	-0.015260	-1.434440	-0.567687	0.256957	0.766722	-1.000000	-1.000000	-1.000000	-1.000000	-1.000000	-1.000000	-1.000000	64.000000	0.000000	-1.000000	-1.000000	664380.000000	1776577728.065237
-14931.720000	-33675.165000	24853.995000	49079.520000	-1152.495000	-8283.195000	-36989.820000	15773.265000	-1.500133	-5.867146	-11.692128	-17.959941	-23.773209	-31.498093	-4.909846	2.491513	-1.800680	-0.015260	-1.434440	-0.567687	0.256957	0.766722	-1.000000	-1.000000	-1.000000	-1.000000	-1.000000	-1.000000	-1.000000	64.000000	0.000000	-1.000000	-1.000000	664381.000000	1776577728.065263
-14939.325000	-33685.695000	24850.530000	49076.775000	-1134.720000	-8198.055000	-36990.945000	15772.590000	-13.498105	-12.183785	-11.923112	-16.926765	-18.811774	-20.650507	-6.361265	-1.599513	-1.800680	-0.015260	-1.434440	-0.567687	0.256957	0.766722	-1.000000	-1.000000	-1.000000	-1.000000	-1.000000	-1.000000	-1.000000	64.000000	0.000000	-1.000000	-1.000000	664382.000000	1776577728.069110
-14892.840000	-33652.440000	24898.995000	49128.030000	-1076.265000	-8063.955000	-36988.335000	15803.460000	-18.074856	-11.779299	-5.482487	-6.465077	-1.557649	1.914670	-5.079968	-4.058268	-1.800680	-0.015260	-1.434440	-0.567687	0.256957	0.766722	-1.000000	-1.000000	-1.000000	-1.000000	-1.000000	-1.000000	-1.000000	64.000000	0.000000	-1.000000	-1.000000	664383.000000	1776577728.069122
-14867.640000	-33603.795000	24946.245000	49173.930000	-1027.080000	-8067.015000	-36977.895000	15817.770000	-11.116193	-3.962754	6.203952	9.571755	20.805676	29.448924	-1.354950	-1.826213	-1.800680	-0.015260	-1.434440	-0.567687	0.256957	0.766722	-1.000000	-1.000000	-1.000000	-1.000000	-1.000000	-1.000000	-1.000000	64.000000	0.000000	-1.000000	-1.000000	664384.000000	1776577728.073154
-14898.510000	-33645.330000	24887.925000	49119.570000	-1096.155000	-8383.275000	-36992.520000	15801.885000	3.355230	7.492737	17.137316	22.652054	35.038527	38.578706	2.884741	3.719483	-1.800680	-0.015260	-1.434440	-0.567687	0.256957	0.766722	-1.000000	-1.000000	-1.000000	-1.000000	-1.000000	-1.000000	-1.000000	64.000000	0.000000	-1.000000	-1.000000	664385.000000	1776577728.073164
-14883.885000	-33641.505000	24881.670000	49104.675000	-1153.035000	-8493.120000	-36997.695000	15798.825000	14.212295	13.786291	17.524678	22.187806	27.999020	3.701935	4.915305	6.848517	-1.800680	-0.015260	-1.434440	-0.567687	0.256957	0.766722	-1.000000	-1.000000	-1.000000	-1.000000	-1.000000	-1.000000	-1.000000	64.000000	0.000000	-1.000000	-1.000000	664386.000000	1776577728.077141
-14909.940000	-33692.355000	24826.230000	49048.425000	-1193.940000	-8341.605000	-37006.515000	15775.830000	13.907992	8.431694	3.304315	4.853239	-1.352897	-58.835325	3.312961	3.559211	-1.800680	-0.015260	-1.434440	-0.567687	0.256957	0.766722	-1.000000	-1.000000	-1.000000	-1.000000	-1.000000	-1.000000	-1.000000	64.000000	0.000000	-1.000000	-1.000000	664387.000000	1776577728.077152
-14923.350000	-33703.650000	24818.535000	49043.070000	-1185.930000	-8273.025000	-36993.600000	15771.600000	4.022816	-5.921878	-17.646199	-19.689340	-35.355054	-89.461143	-0.176424	-4.466819	-5.341000	1.953280	-1.480220	-0.566893	0.263427	0.765989	-1.000000	-1.000000	-1.000000	-1.000000	-1.000000	-1.000000	-1.000000	64.000000	0.000000	-1.000000	-1.000000	664388.000000	1776577728.081145
-14929.155000	-33706.980000	24813.945000	49033.395000	-1210.185000	-8379.540000	-36994.590000	15768.270000	-8.474386	-19.566766	-31.572909	-35.690214	-51.011905	-54.709952	-2.153954	-11.661704	-5.341000	1.953280	-1.480220	-0.566893	0.263427	0.765989	-1.000000	-1.000000	-1.000000	-1.000000	-1.000000	-1.000000	-1.000000	64.000000	0.000000	-1.000000	-1.000000	664389.000000	1776577728.081163
-14932.620000	-33700.005000	24827.625000	49053.735000	-1172.160000	-8298.765000	-36988.290000	15765.705000	-15.917656	-22.516291	-28.615814	-32.447612	-38.593132	15.839453	-1.035272	-12.942915	-5.341000	1.953280	-1.480220	-0.566893	0.263427	0.765989	-1.000000	-1.000000	-1.000000	-1.000000	-1.000000	-1.000000	-1.000000	64.000000	0.000000	-1.000000	-1.000000	664390.000000	1776577728.085029
-14934.420000	-33692.040000	24832.620000	49050.855000	-1146.285000	-8244.360000	-36980.955000	15772.320000	-14.311470	-11.869887	-9.529510	-11.320432	-5.404124	74.468212	1.924591	-7.298878	-5.341000	1.953280	-1.480220	-0.566893	0.263427	0.765989	-1.000000	-1.000000	-1.000000	-1.000000	-1.000000	-1.000000	-1.000000	64.000000	0.000000	-1.000000	-1.000000	664391.000000	1776577728.085045
-14919.975000	-33674.805000	24855.255000	49074.705000	-1134.675000	-8286.795000	-36980.910000	15781.680000	-5.099369	6.539870	15.439714	15.990353	31.464754	96.441578	4.434187	2.355495	-5.341000	1.953280	-1.480220	-0.566893	0.263427	0.765989	-1.000000	-1.000000	-1.000000	-1.000000	-1.000000	-1.000000	-1.000000	64.000000	0.000000	-1.000000	-1.000000	664392.000000	1776577728.089079
-14907.870000	-33674.445000	24848.640000	49069.260000	-1149.750000	-8315.685000	-36983.700000	15787.260000	7.083582	22.950434	33.813317	35.804633	53.569989	77.196297	4.637232	11.542346	-5.341000	1.953280	-1.480220	-0.566893	0.263427	0.765989	-1.000000	-1.000000	-1.000000	-1.000000	-1.000000	-1.000000	-1.000000	64.000000	0.000000	-1.000000	-1.000000	664393.000000	1776577728.089088
-14904.270000	-33681.555000	24836.490000	49059.945000	-1180.035000	-8410.455000	-36994.320000	15781.140000	16.865683	29.156241	37.140896	39.594274	50.069734	26.218815	1.832993	16.068395	-5.341000	1.953280	-1.480220	-0.566893	0.263427	0.765989	-1.000000	-1.000000	-1.000000	-1.000000	-1.000000	-1.000000	-1.000000	64.000000	0.000000	-1.000000	-1.000000	664394.000000	1776577728.093215
-14913.135000	-33688.215000	24833.745000	49057.920000	-1176.615000	-8358.480000	-37001.250000	15773.175000	19.655102	22.404739	24.626656	27.023292	24.236222	-32.711719	-3.020681	13.614674	-5.341000	1.953280	-1.480220	-0.566893	0.263427	0.765989	-1.000000	-1.000000	-1.000000	-1.000000	-1.000000	-1.000000	-1.000000	64.000000	0.000000	-1.000000	-1.000000	664395.000000	1776577728.093223
-14913.990000	-33687.765000	24835.860000	49060.125000	-1125.675000	-8268.930000	-36995.490000	15777.495000	13.842881	6.865909	3.766365	5.752972	-7.382289	-68.133214	-7.346123	5.422090	-5.341000	1.953280	-1.480220	-0.566893	0.263427	0.765989	-1.000000	-1.000000	-1.000000	-1.000000	-1.000000	-1.000000	-1.000000	64.000000	0.000000	-1.000000	-1.000000	664396.000000	1776577728.097171
-14895.225000	-33665.220000	24861.555000	49084.020000	-1102.185000	-8251.965000	-36991.395000	15791.985000	2.822055	-8.688015	-14.075686	-12.972342	-25.873312	-60.649224	-8.160638	-3.646630	-5.341000	1.953280	-1.480220	-0.566893	0.263427	0.765989	-1.000000	-1.000000	-1.000000	-1.000000	-1.000000	-1.000000	-1.000000	64.000000	0.000000	-1.000000	-1.000000	664397.000000	1776577728.097178
-14883.210000	-33650.955000	24879.105000	49106.835000	-1079.595000	-8284.455000	-36987.390000	15798.825000	-6.710460	-16.248288	-20.628984	-20.760012	-24.460111	-22.229676	-4.510476	-8.413451	-3.128300	-0.427280	-0.808780	-0.568114	0.255309	0.766050	-1.000000	-1.000000	-1.000000	-1.000000	-1.000000	-1.000000	-1.000000	64.000000	0.000000	-1.000000	-1.000000	664398.000000	1776577728.101085
-14883.750000	-33647.265000	24885.675000	49118.625000	-1072.215000	-8294.670000	-36988.110000	15793.335000	-10.339087	-13.932683	-15.543786	-16.574431	-11.306443	14.516452	1.427498	-7.680857	-3.128300	-0.427280	-0.808780	-0.568114	0.255309	0.766050	-1.000000	-1.000000	-1.000000	-1.000000	-1.000000	-1.000000	-1.000000	64.000000	0.000000	-1.000000	-1.000000	664399.000000	1776577728.101092
-14898.240000	-33657.795000	24878.655000	49112.460000	-1095.795000	-8316.180000	-36992.070000	15777.180000	-9.310281	-6.773003	-5.755585	-6.774670	0.118678	26.880308	6.028851	-4.769035	-3.128300	-0.427280	-0.808780	-0.568114	0.255309	0.766050	-1.000000	-1.000000	-1.000000	-1.000000	-1.000000	-1.000000	-1.000000	64.000000	0.000000	-1.000000	-1.000000	664400.000000	1776577728.105163
-14901.840000	-33657.840000	24880.545000	49116.555000	-1105.335000	-8321.445000	-37000.755000	15768.945000	-7.628408	-1.511982	0.765456	0.334535	1.213596	15.701834	6.749788	-3.585537	-3.128300	-0.427280	-0.808780	-0.568114	0.255309	0.766050	-1.000000	-1.000000	-1.000000	-1.000000	-1.000000	-1.000000	-1.000000	64.000000	0.000000	-1.000000	-1.000000	664401.000000	1776577728.105191
-14894.730000	-33642.855000	24907.860000	49163.490000	-1112.940000	-8289.135000	-36998.415000	15771.375000	-6.903132	-0.512032	1.601939	1.869970	-6.804461	-3.043623	3.698526	-4.552527	-3.128300	-0.427280	-0.808780	-0.568114	0.255309	0.766050	-1.000000	-1.000000	-1.000000	-1.000000	-1.000000	-1.000000	-1.000000	64.000000	0.000000	-1.000000	-1.000000	664402.000000	1776577728.109245
-14893.155000	-33636.600000	24922.530000	49174.830000	-1101.195000	-8249.265000	-36998.145000	15770.205000	-5.474823	-1.175316	0.288288	1.432794	-15.250157	-12.504626	-0.538845	-4.892919	-3.128300	-0.427280	-0.808780	-0.568114	0.255309	0.766050	-1.000000	-1.000000	-1.000000	-1.000000	-1.000000	-1.000000	-1.000000	64.000000	0.000000	-1.000000	-1.000000	664403.000000	1776577728.109261
-14877.270000	-33627.645000	24921.720000	49127.580000	-997.605000	-8142.525000	-36989.280000	15784.605000	-1.691767	-0.559233	0.252100	1.022551	-14.098004	-4.918290	-2.944248	-2.202583	-3.128300	-0.427280	-0.808780	-0.568114	0.255309	0.766050	-1.000000	-1.000000	-1.000000	-1.000000	-1.000000	-1.000000	-1.000000	64.000000	0.000000	-1.000000	-1.000000	664404.000000	1776577728.113106
-14867.145000	-33630.120000	24905.205000	49114.980000	-1000.935000	-8118.855000	-36986.580000	15797.025000	3.982866	1.368782	0.491090	-2.719881	0.756687	15.008483	-2.268146	3.435305	-3.128300	-0.427280	-0.808780	-0.568114	0.255309	0.766050	-1.000000	-1.000000	-1.000000	-1.000000	-1.000000	-1.000000	-1.000000	64.000000	0.000000	-1.000000	-1.000000	664405.000000	1776577728.113117
-14857.290000	-33628.275000	24903.675000	49124.520000	-1017.765000	-8220.870000	-36981.090000	15808.500000	9.275319	2.689872	-1.604592	-10.197753	19.858910	29.875786	0.406080	9.663137	-3.128300	-0.427280	-0.808780	-0.568114	0.255309	0.766050	-1.000000	-1.000000	-1.000000	-1.000000	-1.000000	-1.000000	-1.000000	64.000000	0.000000	-1.000000	-1.000000	664406.000000	1776577728.117092
-14874.705000	-33656.400000	24863.355000	49079.205000	-1092.240000	-8396.865000	-36988.110000	15797.340000	11.034207	1.590748	-6.198621	-15.657203	25.401381	17.803838	2.684894	12.803025	-3.128300	-0.427280	-0.808780	-0.568114	0.255309	0.766050	-1.000000	-1.000000	-1.000000	-1.000000	-1.000000	-1.000000	-1.000000	64.000000	0.000000	-1.000000	-1.000000	664407.000000	1776577728.117102
-14929.785000	-33693.975000	24836.985000	49060.485000	-1125.540000	-8406.495000	-36996.570000	15767.820000	6.191053	-2.888716	-11.437491	-15.264529	9.067110	-24.256247	2.462183	9.464649	-0.244160	-1.007160	-3.753960	-0.568419	0.253295	0.765257	-1.000000	-1.000000	-1.000000	-1.000000	-1.000000	-1.000000	-1.000000	64.000000	0.000000	-1.000000	-1.000000	664408.000000	1776577728.121065
-14982.660000	-33714.315000	24841.080000	49082.040000	-1107.990000	-8347.725000	-36987.525000	15749.190000	-6.114283	-9.677450	-14.172419	-9.166022	-17.992110	-66.027985	-0.321195	-0.703306	-0.244160	-1.007160	-3.753960	-0.568419	0.253295	0.765257	-1.000000	-1.000000	-1.000000	-1.000000	-1.000000	-1.000000	-1.000000	64.000000	0.000000	-1.000000	-1.000000	664409.000000	1776577728.121076
-14981.805000	-33721.920000	24835.860000	49079.790000	-1122.525000	-8327.835000	-36996.435000	15738.390000	-20.556678	-14.349872	-10.449117	2.124624	-34.558826	-68.907717	-3.397454	-12.916821	-0.244160	-1.007160	-3.753960	-0.568419	0.253295	0.765257	-1.000000	-1.000000	-1.000000	-1.000000	-1.000000	-1.000000	-1.000000	64.000000	0.000000	-1.000000	-1.000000	664410.000000	1776577728.126429
-14924.430000	-33694.335000	24851.115000	49080.060000	-1124.415000	-8298.225000	-37004.220000	15746.265000	-25.233639	-11.299334	0.650665	15.620859	-29.070823	-25.667609	-4.804443	-19.490534	-0.244160	-1.007160	-3.753960	-0.568419	0.253295	0.765257	-1.000000	-1.000000	-1.000000	-1.000000	-1.000000	-1.000000	-1.000000	64.000000	0.000000	-1.000000	-1.000000	664411.000000	1776577728.126440
-14873.265000	-33672.690000	24846.840000	49067.730000	-1109.880000	-8274.690000	-36999.090000	15757.965000	-10.758600	1.448547	14.727226	24.772342	-6.914865	35.504147	-4.343829	-15.401789	-0.244160	-1.007160	-3.753960	-0.568419	0.253295	0.765257	-1.000000	-1.000000	-1.000000	-1.000000	-1.000000	-1.000000	-1.000000	64.000000	0.000000	-1.000000	-1.000000	664412.000000	1776577728.129383
-14881.365000	-33660.315000	24855.525000	49075.245000	-1087.785000	-8224.920000	-36994.140000	15751.170000	17.520558	18.897052	24.801099	24.691282	18.796487	79.359190	-2.161060	-2.472959	-0.244160	-1.007160	-3.753960	-0.568419	0.253295	0.765257	-1.000000	-1.000000	-1.000000	-1.000000	-1.000000	-1.000000	-1.000000	64.000000	0.000000	-1.000000	-1.000000	664413.000000	1776577728.129415
-14897.655000	-33662.745000	24862.905000	49076.415000	-1084.275000	-8141.445000	-36997.155000	15748.020000	40.090976	30.995881	26.112562	16.333536	36.457426	88.468216	1.306881	11.446057	-0.244160	-1.007160	-3.753960	-0.568419	0.253295	0.765257	-1.000000	-1.000000	-1.000000	-1.000000	-1.000000	-1.000000	-1.000000	64.000000	0.000000	-1.000000	-1.000000	664414.000000	1776577728.133157
-14898.690000	-33665.175000	24868.710000	49073.355000	-1079.955000	-8102.520000	-36992.160000	15758.595000	40.325929	29.754012	18.865146	4.686926	39.378685	66.987353	4.506813	18.781567	-0.244160	-1.007160	-3.753960	-0.568419	0.253295	0.765257	-1.000000	-1.000000	-1.000000	-1.000000	-1.000000	-1.000000	-1.000000	64.000000	0.000000	-1.000000	-1.000000	664415.000000	1776577728.133181
-14904.180000	-33677.370000	24855.435000	49071.960000	-1118.430000	-8250.345000	-36991.530000	15765.075000	18.931999	15.062732	6.552817	-5.581549	26.781133	25.447557	5.882049	17.726281	-0.244160	-1.007160	-3.753960	-0.568419	0.253295	0.765257	-1.000000	-1.000000	-1.000000	-1.000000	-1.000000	-1.000000	-1.000000	64.000000	0.000000	-1.000000	-1.000000	664416.000000	1776577728.137454
-14909.445000	-33700.455000	24819.660000	49024.980000	-1202.400000	-8338.995000	-37005.795000	15762.510000	-9.657612	-6.083344	-7.370086	-12.728543	2.362092	-29.818951	4.766816	11.075020	-0.244160	-1.007160	-3.753960	-0.568419	0.253295	0.765257	-1.000000	-1.000000	-1.000000	-1.000000	-1.000000	-1.000000	-1.000000	64.000000	0.000000	-1.000000	-1.000000	664417.000000	1776577728.137468
-14905.530000	-33710.445000	24806.610000	49006.755000	-1152.720000	-8374.005000	-37006.965000	15763.815000	-30.129539	-24.469794	-20.008290	-17.607642	-24.923540	-85.094409	1.289500	2.332451	-2.807840	-1.968540	-8.118320	-0.570433	0.261901	0.767149	-1.000000	-1.000000	-1.000000	-1.000000	-1.000000	-1.000000	-1.000000	64.000000	0.000000	-1.000000	-1.000000	664418.000000	1776577728.142596
-14914.935000	-33721.065000	24804.360000	49010.220000	-1161.675000	-8398.395000	-37005.255000	15760.170000	-34.914673	-32.805168	-27.120302	-19.694172	-39.998140	-113.698516	-2.918517	-5.698165	-2.807840	-1.968540	-8.118320	-0.570433	0.261901	0.767149	-1.000000	-1.000000	-1.000000	-1.000000	-1.000000	-1.000000	-1.000000	64.000000	0.000000	-1.000000	-1.000000	664419.000000	1776577728.142612
-14918.670000	-33731.955000	24799.500000	49004.460000	-1181.880000	-8417.970000	-37011.330000	15757.155000	-25.855842	-28.566624	-24.494976	-15.770693	-33.603108	-96.802878	-5.325155	-10.993450	-2.807840	-1.968540	-8.118320	-0.570433	0.261901	0.767149	-1.000000	-1.000000	-1.000000	-1.000000	-1.000000	-1.000000	-1.000000	64.000000	0.000000	-1.000000	-1.000000	664420.000000	1776577728.145042
-14925.150000	-33718.545000	24803.235000	49011.210000	-1154.295000	-8374.140000	-37007.145000	15751.395000	-10.399512	-14.586622	-12.357460	-4.938411	-12.009423	-40.393263	-4.780763	-12.657493	-2.807840	-1.968540	-8.118320	-0.570433	0.261901	0.767149	-1.000000	-1.000000	-1.000000	-1.000000	-1.000000	-1.000000	-1.000000	64.000000	0.000000	-1.000000	-1.000000	664421.000000	1776577728.145051
-14936.400000	-33706.395000	24805.350000	49028.355000	-1132.695000	-8336.880000	-37002.510000	15747.120000	3.822922	3.514823	3.954968	9.020245	12.175383	31.174188	-1.898280	-10.969514	-2.807840	-1.968540	-8.118320	-0.570433	0.261901	0.767149	-1.000000	-1.000000	-1.000000	-1.000000	-1.000000	-1.000000	-1.000000	64.000000	0.000000	-1.000000	-1.000000	664422.000000	1776577728.149072
-14933.430000	-33711.210000	24816.600000	49042.035000	-1133.145000	-8349.570000	-37001.205000	15743.520000	12.357089	19.305373	17.630774	20.649105	29.280106	88.584023	1.884985	-6.979511	-2.807840	-1.968540	-8.118320	-0.570433	0.261901	0.767149	-1.000000	-1.000000	-1.000000	-1.000000	-1.000000	-1.000000	-1.000000	64.000000	0.000000	-1.000000	-1.000000	664423.000000	1776577728.149081
-14926.680000	-33710.400000	24835.140000	49059.360000	-1122.570000	-8343.945000	-37000.755000	15738.795000	14.978262	26.748126	24.259202	25.644108	33.413893	108.908947	4.731943	-2.060931	-2.807840	-1.968540	-8.118320	-0.570433	0.261901	0.767149	-1.000000	-1.000000	-1.000000	-1.000000	-1.000000	-1.000000	-1.000000	64.000000	0.000000	-1.000000	-1.000000	664424.000000	1776577728.153057
-14912.910000	-33692.040000	24837.840000	49048.245000	-1082.205000	-8254.530000	-37002.060000	15739.920000	14.191347	23.722907	23.007097	21.930508	24.817907	88.714014	5.205416	2.479316	-2.807840	-1.968540	-8.118320	-0.570433	0.261901	0.767149	-1.000000	-1.000000	-1.000000	-1.000000	-1.000000	-1.000000	-1.000000	64.000000	0.000000	-1.000000	-1.000000	664425.000000	1776577728.153066
-14866.155000	-33663.690000	24857.010000	49060.530000	-1083.555000	-8248.545000	-36997.785000	15762.555000	12.925751	14.186673	15.450540	10.364241	9.975229	45.687863	3.282042	6.191180	-2.807840	-1.968540	-8.118320	-0.570433	0.261901	0.767149	-1.000000	-1.000000	-1.000000	-1.000000	-1.000000	-1.000000	-1.000000	64.000000	0.000000	-1.000000	-1.000000	664426.000000	1776577728.157034
-14856.030000	-33651.945000	24871.185000	49064.040000	-1138.095000	-8263.755000	-36990.495000	15777.270000	12.697591	4.382877	4.846483	-4.496481	-5.772778	0.345006	0.447801	9.552006	-2.807840	-1.968540	-8.118320	-0.570433	0.261901	0.767149	-1.000000	-1.000000	-1.000000	-1.000000	-1.000000	-1.000000	-1.000000	64.000000	0.000000	-1.000000	-1.000000	664427.000000	1776577728.157054
-14884.605000	-33680.970000	24839.370000	49040.775000	-1189.170000	-8331.660000	-37003.905000	15761.385000	10.928068	-3.332659	-5.715300	-16.800250	-22.044509	-38.044424	-1.804063	11.667959	-7.980980	-0.412020	-11.048240	-0.565123	0.275512	0.772764	-1.000000	-1.000000	-1.000000	-1.000000	-1.000000	-1.000000	-1.000000	64.000000	0.000000	-1.000000	-1.000000	664428.000000	1776577728.161039
-14907.915000	-33679.845000	24852.195000	49071.960000	-1065.285000	-8438.490000	-37008.720000	15750.405000	2.506591	-10.778580	-14.952469	-22.805555	-34.282673	-67.790165	-3.480316	9.435222	-7.980980	-0.412020	-11.048240	-0.565123	0.275512	0.772764	-1.000000	-1.000000	-1.000000	-1.000000	-1.000000	-1.000000	-1.000000	64.000000	0.000000	-1.000000	-1.000000	664429.000000	1776577728.161052
-14909.760000	-33677.145000	24870.600000	49100.670000	-975.960000	-8320.365000	-37005.480000	15748.020000	-12.356099	-17.830766	-20.506055	-20.163809	-28.902175	-82.953887	-4.839556	1.714523	-7.980980	-0.412020	-11.048240	-0.565123	0.275512	0.772764	-1.000000	-1.000000	-1.000000	-1.000000	-1.000000	-1.000000	-1.000000	64.000000	0.000000	-1.000000	-1.000000	664430.000000	1776577728.165107
-14888.655000	-33667.650000	24878.430000	49093.155000	-1018.305000	-8158.095000	-36994.230000	15754.860000	-25.006787	-20.436487	-18.738254	-9.384043	-2.301551	-67.325910	-4.709381	-7.517558	-7.980980	-0.412020	-11.048240	-0.565123	0.275512	0.772764	-1.000000	-1.000000	-1.000000	-1.000000	-1.000000	-1.000000	-1.000000	64.000000	0.000000	-1.000000	-1.000000	664431.000000	1776577728.165117
-14881.275000	-33682.095000	24850.935000	49083.705000	-1032.975000	-8223.705000	-36991.440000	15753.645000	-25.950012	-16.024399	-10.549255	2.911759	25.027323	-16.000611	-1.947781	-12.511316	-7.980980	-0.412020	-11.048240	-0.565123	0.275512	0.772764	-1.000000	-1.000000	-1.000000	-1.000000	-1.000000	-1.000000	-1.000000	64.000000	0.000000	-1.000000	-1.000000	664432.000000	1776577728.169104
-14897.115000	-33698.295000	24825.510000	49051.980000	-1096.425000	-8303.220000	-37016.550000	15736.230000	-14.516117	-7.340022	-2.476406	8.320062	29.071288	40.239882	1.854977	-11.303595	-7.980980	-0.412020	-11.048240	-0.565123	0.275512	0.772764	-1.000000	-1.000000	-1.000000	-1.000000	-1.000000	-1.000000	-1.000000	64.000000	0.000000	-1.000000	-1.000000	664433.000000	1776577728.169120
-14894.235000	-33687.540000	24840.495000	49056.795000	-1104.075000	-8333.370000	-37027.485000	15739.335000	0.919248	0.824421	0.749349	4.468443	7.186521	60.381140	3.030271	-6.491932	-7.980980	-0.412020	-11.048240	-0.565123	0.275512	0.772764	-1.000000	-1.000000	-1.000000	-1.000000	-1.000000	-1.000000	-1.000000	64.000000	0.000000	-1.000000	-1.000000	664434.000000	1776577728.173168
-14904.450000	-33693.210000	24830.235000	49050.945000	-1106.415000	-8350.965000	-37025.955000	15739.560000	11.550908	6.481693	1.163429	-3.165820	-22.194739	36.998941	0.433711	-1.147309	-7.980980	-0.412020	-11.048240	-0.565123	0.275512	0.772764	-1.000000	-1.000000	-1.000000	-1.000000	-1.000000	-1.000000	-1.000000	64.000000	0.000000	-1.000000	-1.000000	664435.000000	1776577728.173183
-14926.005000	-33689.925000	24859.530000	49085.955000	-1065.645000	-8252.280000	-37013.265000	15745.095000	13.828923	9.904935	3.246166	-6.468670	-36.372328	-1.381990	-2.480671	3.534413	-7.980980	-0.412020	-11.048240	-0.565123	0.275512	0.772764	-1.000000	-1.000000	-1.000000	-1.000000	-1.000000	-1.000000	-1.000000	64.000000	0.000000	-1.000000	-1.000000	664436.000000	1776577728.177138
-14895.315000	-33661.665000	24900.210000	49131.225000	-1044.315000	-8267.760000	-36993.510000	15771.555000	9.671009	11.677861	9.127901	-0.765534	-25.246015	-21.717103	-1.466201	7.483331	-7.980980	-0.412020	-11.048240	-0.565123	0.275512	0.772764	-1.000000	-1.000000	-1.000000	-1.000000	-1.000000	-1.000000	-1.000000	64.000000	0.000000	-1.000000	-1.000000	664437.000000	1776577728.177152
-14872.230000	-33648.300000	24920.460000	49188.015000	-1046.115000	-8164.980000	-36987.435000	15777.180000	5.165577	12.703633	17.413008	12.550285	2.680142	-13.631346	3.910186	10.681192	-5.615680	0.885080	-6.378680	-0.561034	0.273071	0.770445	-1.000000	-1.000000	-1.000000	-1.000000	-1.000000	-1.000000	-1.000000	64.000000	0.000000	-1.000000	-1.000000	664438.000000	1776577728.181245
-14827.320000	-33644.205000	24882.705000	49116.915000	-1022.625000	-8085.240000	-36991.620000	15786.270000	5.711692	12.651256	21.890802	24.440378	28.622349	11.573403	9.475834	11.879976	-5.615680	0.885080	-6.378680	-0.561034	0.273071	0.770445	-1.000000	-1.000000	-1.000000	-1.000000	-1.000000	-1.000000	-1.000000	64.000000	0.000000	-1.000000	-1.000000	664439.000000	1776577728.181257
-14847.165000	-33674.400000	24828.750000	49011.435000	-1038.015000	-8233.470000	-36995.580000	15768.990000	10.115248	8.837085	14.344340	20.329988	38.262722	32.556582	10.086793	8.863379	-5.615680	0.885080	-6.378680	-0.561034	0.273071	0.770445	-1.000000	-1.000000	-1.000000	-1.000000	-1.000000	-1.000000	-1.000000	64.000000	0.000000	-1.000000	-1.000000	664440.000000	1776577728.185462
-14899.050000	-33708.015000	24810.345000	49002.615000	-1151.550000	-8589.870000	-37010.205000	15731.370000	10.248755	-1.128794	-6.163018	-5.341294	26.962422	20.890157	4.164839	0.330856	-5.615680	0.885080	-6.378680	-0.561034	0.273071	0.770445	-1.000000	-1.000000	-1.000000	-1.000000	-1.000000	-1.000000	-1.000000	64.000000	0.000000	-1.000000	-1.000000	664441.000000	1776577728.185477
-14926.500000	-33731.595000	24787.890000	48995.415000	-1155.825000	-8502.120000	-37014.120000	15709.545000	-0.794056	-15.199908	-28.587814	-36.352436	-1.214187	-32.890526	-5.293755	-12.133751	-5.615680	0.885080	-6.378680	-0.561034	0.273071	0.770445	-1.000000	-1.000000	-1.000000	-1.000000	-1.000000	-1.000000	-1.000000	64.000000	0.000000	-1.000000	-1.000000	664442.000000	1776577728.189174
-14919.120000	-33718.140000	24804.990000	49016.970000	-1094.220000	-8339.490000	-37012.680000	15715.485000	-18.548836	-25.720887	-38.018703	-47.821229	-29.394698	-85.103989	-12.895917	-22.493505	-5.615680	0.885080	-6.378680	-0.561034	0.273071	0.770445	-1.000000	-1.000000	-1.000000	-1.000000	-1.000000	-1.000000	-1.000000	64.000000	0.000000	-1.000000	-1.000000	664443.000000	1776577728.189190
-14900.490000	-33697.890000	24832.170000	49049.820000	-1062.990000	-8322.345000	-37012.725000	15729.930000	-29.168154	-24.117921	-27.052951	-29.533116	-35.521373	-76.434090	-14.279578	-22.904712	-5.615680	0.885080	-6.378680	-0.561034	0.273071	0.770445	-1.000000	-1.000000	-1.000000	-1.000000	-1.000000	-1.000000	-1.000000	64.000000	0.000000	-1.000000	-1.000000	664444.000000	1776577728.193135
-14888.430000	-33688.755000	24841.800000	49061.970000	-1052.820000	-8304.705000	-37004.805000	15741.045000	-22.964443	-8.746661	-0.607206	7.773568	-14.591163	-5.193781	-8.890320	-10.698132	-5.615680	0.885080	-6.378680	-0.561034	0.273071	0.770445	-1.000000	-1.000000	-1.000000	-1.000000	-1.000000	-1.000000	-1.000000	64.000000	0.000000	-1.000000	-1.000000	664445.000000	1776577728.193147
-14885.145000	-33686.820000	24845.310000	49065.030000	-1049.040000	-8278.560000	-36999.495000	15742.440000	-3.370287	12.142633	26.788412	42.051908	15.993756	74.649905	0.207875	8.047326	-5.615680	0.885080	-6.378680	-0.561034	0.273071	0.770445	-1.000000	-1.000000	-1.000000	-1.000000	-1.000000	-1.000000	-1.000000	64.000000	0.000000	-1.000000	-1.000000	664446.000000	1776577728.197137
-14886.990000	-33688.890000	24843.510000	49060.350000	-1055.115000	-8281.755000	-37002.465000	15738.300000	16.999622	26.482216	40.427544	54.835519	34.334290	111.931737	8.445709	22.704213	-5.615680	0.885080	-6.378680	-0.561034	0.273071	0.770445	-1.000000	-1.000000	-1.000000	-1.000000	-1.000000	-1.000000	-1.000000	64.000000	0.000000	-1.000000	-1.000000	664447.000000	1776577728.197146
-14887.440000	-33690.330000	24841.575000	49056.885000	-1062.315000	-8310.330000	-37001.115000	15740.640000	26.817162	27.259930	34.815151	41.841151	30.792052	91.620717	12.020533	25.850384	-2.105880	-5.218920	0.869820	-0.566954	0.241271	0.770323	-1.000000	-1.000000	-1.000000	-1.000000	-1.000000	-1.000000	-1.000000	64.000000	0.000000	-1.000000	-1.000000	664448.000000	1776577728.201265
-14888.205000	-33687.765000	24845.400000	49060.215000	-1076.670000	-8356.815000	-37006.155000	15739.020000	23.005116	16.142890	15.447544	12.969499	10.604779	31.029183	9.871702	17.660617	-2.105880	-5.218920	0.869820	-0.566954	0.241271	0.770323	-1.000000	-1.000000	-1.000000	-1.000000	-1.000000	-1.000000	-1.000000	64.000000	0.000000	-1.000000	-1.000000	664449.000000	1776577728.201274
-14885.010000	-33677.100000	24859.035000	49067.730000	-1079.640000	-8359.335000	-37013.445000	15738.435000	10.384785	0.784566	-6.240781	-15.839142	-13.160230	-36.912914	3.798432	4.045188	-2.105880	-5.218920	0.869820	-0.566954	0.241271	0.770323	-1.000000	-1.000000	-1.000000	-1.000000	-1.000000	-1.000000	-1.000000	64.000000	0.000000	-1.000000	-1.000000	664450.000000	1776577728.205128
-14879.430000	-33665.355000	24873.030000	49081.860000	-1057.635000	-8341.020000	-37016.145000	15745.995000	-3.137055	-10.678084	-20.012000	-32.067399	-27.827866	-80.272401	-3.064270	-8.020343	-2.105880	-5.218920	0.869820	-0.566954	0.241271	0.770323	-1.000000	-1.000000	-1.000000	-1.000000	-1.000000	-1.000000	-1.000000	64.000000	0.000000	-1.000000	-1.000000	664451.000000	1776577728.205137
-14878.485000	-33633.765000	24931.620000	49165.200000	-1028.430000	-8283.330000	-37009.845000	15756.705000	-11.542248	-13.805207	-21.131134	-30.660587	-26.577718	-81.794715	-7.513295	-13.787488	-2.105880	-5.218920	0.869820	-0.566954	0.241271	0.770323	-1.000000	-1.000000	-1.000000	-1.000000	-1.000000	-1.000000	-1.000000	64.000000	0.000000	-1.000000	-1.000000	664452.000000	1776577728.209195
-14865.435000	-33651.225000	24930.135000	49174.335000	-986.670000	-8104.815000	-36993.240000	15770.520000	-12.982277	-9.619939	-11.429555	-14.185415	-11.048434	-43.463385	-7.281190	-12.180547	-2.105880	-5.218920	0.869820	-0.566954	0.241271	0.770323	-1.000000	-1.000000	-1.000000	-1.000000	-1.000000	-1.000000	-1.000000	64.000000	0.000000	-1.000000	-1.000000	664453.000000	1776577728.209212
-14804.100000	-33593.940000	24960.240000	49187.835000	-858.735000	-7949.745000	-36964.665000	15804.765000	-7.994076	-2.862031	1.266420	6.314864	11.657194	18.376711	-2.036568	-5.259222	-2.105880	-5.218920	0.869820	-0.566954	0.241271	0.770323	-1.000000	-1.000000	-1.000000	-1.000000	-1.000000	-1.000000	-1.000000	64.000000	0.000000	-1.000000	-1.000000	664454.000000	1776577728.213178
-14850.135000	-33673.005000	24862.950000	49081.410000	-983.340000	-8169.480000	-37003.590000	15766.695000	0.807333	1.453656	6.602689	15.088702	30.509041	71.007901	4.993378	2.502952	-2.105880	-5.218920	0.869820	-0.566954	0.241271	0.770323	-1.000000	-1.000000	-1.000000	-1.000000	-1.000000	-1.000000	-1.000000	64.000000	0.000000	-1.000000	-1.000000	664455.000000	1776577728.213188
-14903.145000	-33716.925000	24806.070000	49018.500000	-1087.065000	-8379.855000	-37015.335000	15717.285000	5.539150	-1.709638	-2.622730	2.398688	28.172660	70.199483	7.353761	4.273134	-2.105880	-5.218920	0.869820	-0.566954	0.241271	0.770323	-1.000000	-1.000000	-1.000000	-1.000000	-1.000000	-1.000000	-1.000000	64.000000	0.000000	-1.000000	-1.000000	664456.000000	1776577728.217248
-14930.505000	-33743.970000	24765.030000	48968.685000	-1187.730000	-8619.615000	-37034.370000	15682.005000	-1.109737	-13.184707	-22.842045	-25.123356	-4.542718	-0.796712	1.681061	-4.018354	-2.105880	-5.218920	0.869820	-0.566954	0.241271	0.770323	-1.000000	-1.000000	-1.000000	-1.000000	-1.000000	-1.000000	-1.000000	64.000000	0.000000	-1.000000	-1.000000	664457.000000	1776577728.217262
-14919.345000	-33726.510000	24795.360000	49009.320000	-1112.130000	-8420.040000	-37029.600000	15692.130000	-14.474465	-23.676130	-37.723745	-45.607875	-48.074483	-96.116277	-7.617267	-16.566638	4.272800	-5.951400	-3.143560	-0.575133	0.224914	0.764402	-1.000000	-1.000000	-1.000000	-1.000000	-1.000000	-1.000000	-1.000000	64.000000	0.000000	-1.000000	-1.000000	664458.000000	1776577728.222537
-14898.690000	-33707.970000	24821.370000	49040.010000	-1071.045000	-8349.390000	-37026.495000	15707.250000	-20.776964	-20.783537	-30.600312	-38.469469	-65.043450	-134.407488	-12.647644	-20.926329	4.272800	-5.951400	-3.143560	-0.575133	0.224914	0.764402	-1.000000	-1.000000	-1.000000	-1.000000	-1.000000	-1.000000	-1.000000	64.000000	0.000000	-1.000000	-1.000000	664459.000000	1776577728.222553
-14882.895000	-33695.820000	24834.285000	49053.780000	-1052.370000	-8325.270000	-37025.010000	15718.410000	-11.577263	-1.953919	-0.512232	-2.907247	-37.044329	-76.684311	-9.259876	-10.187838	4.272800	-5.951400	-3.143560	-0.575133	0.224914	0.764402	-1.000000	-1.000000	-1.000000	-1.000000	-1.000000	-1.000000	-1.000000	64.000000	0.000000	-1.000000	-1.000000	664460.000000	1776577728.225346
-14869.710000	-33681.060000	24831.360000	49043.205000	-1047.105000	-8319.690000	-37006.245000	15724.350000	8.424564	22.700823	35.472187	39.915251	17.131300	35.078524	0.431440	10.193291	4.272800	-5.951400	-3.143560	-0.575133	0.224914	0.764402	-1.000000	-1.000000	-1.000000	-1.000000	-1.000000	-1.000000	-1.000000	64.000000	0.000000	-1.000000	-1.000000	664461.000000	1776577728.225361
-14872.140000	-33687.855000	24839.280000	49059.630000	-1042.020000	-8325.855000	-37007.100000	15729.795000	26.395397	38.837465	56.206498	64.411988	61.550516	124.558937	10.855826	27.711537	4.272800	-5.951400	-3.143560	-0.575133	0.224914	0.764402	-1.000000	-1.000000	-1.000000	-1.000000	-1.000000	-1.000000	-1.000000	64.000000	0.000000	-1.000000	-1.000000	664462.000000	1776577728.229154
-14877.045000	-33693.120000	24843.285000	49065.615000	-1042.650000	-8325.495000	-37011.825000	15725.835000	31.482754	37.721030	52.124090	59.829710	72.720304	144.644870	16.379931	32.689990	4.272800	-5.951400	-3.143560	-0.575133	0.224914	0.764402	-1.000000	-1.000000	-1.000000	-1.000000	-1.000000	-1.000000	-1.000000	64.000000	0.000000	-1.000000	-1.000000	664463.000000	1776577728.229163
-14886.225000	-33700.545000	24837.210000	49060.980000	-1047.915000	-8323.020000	-37012.365000	15716.205000	21.409700	20.637739	28.503932	33.105067	50.508419	98.139803	14.000418	23.403154	4.272800	-5.951400	-3.143560	-0.575133	0.224914	0.764402	-1.000000	-1.000000	-1.000000	-1.000000	-1.000000	-1.000000	-1.000000	64.000000	0.000000	-1.000000	-1.000000	664464.000000	1776577728.234633
-14881.545000	-33687.270000	24851.655000	49072.410000	-1039.680000	-8330.580000	-37010.745000	15719.220000	2.697048	-2.691775	-1.442608	-0.650276	11.492661	20.820580	5.456039	5.456439	4.272800	-5.951400	-3.143560	-0.575133	0.224914	0.764402	-1.000000	-1.000000	-1.000000	-1.000000	-1.000000	-1.000000	-1.000000	64.000000	0.000000	-1.000000	-1.000000	664465.000000	1776577728.234641
-14864.355000	-33670.170000	24870.240000	49089.555000	-1030.545000	-8366.940000	-37010.520000	15736.860000	-14.033579	-20.228108	-24.336830	-26.956453	-23.736410	-48.181466	-4.176204	-11.669462	4.272800	-5.951400	-3.143560	-0.575133	0.224914	0.764402	-1.000000	-1.000000	-1.000000	-1.000000	-1.000000	-1.000000	-1.000000	64.000000	0.000000	-1.000000	-1.000000	664466.000000	1776577728.237307
-14853.240000	-33664.050000	24867.360000	49082.850000	-1037.970000	-8412.660000	-37008.315000	15748.560000	-20.645243	-24.961252	-32.780188	-37.755894	-41.725806	-86.467027	-10.315044	-19.879864	4.272800	-5.951400	-3.143560	-0.575133	0.224914	0.764402	-1.000000	-1.000000	-1.000000	-1.000000	-1.000000	-1.000000	-1.000000	64.000000	0.000000	-1.000000	-1.000000	664467.000000	1776577728.237315
-14852.790000	-33669.945000	24858.630000	49072.905000	-1044.315000	-8355.555000	-37009.575000	15750.045000	-16.358474	-18.688446	-28.523888	-34.344748	-41.026274	-89.130633	-11.266044	-17.490651	4.883200	-8.042020	-4.043900	-0.580016	0.235656	0.758299	-1.000000	-1.000000	-1.000000	-1.000000	-1.000000	-1.000000	-1.000000	64.000000	0.000000	-1.000000	-1.000000	664468.000000	1776577728.241271
-14854.770000	-33670.170000	24869.070000	49087.485000	-1030.590000	-8245.485000	-36997.245000	15748.470000	-7.018804	-8.792696	-18.529060	-23.421642	-28.197962	-59.021085	-7.950802	-9.407646	4.883200	-8.042020	-4.043900	-0.580016	0.235656	0.758299	-1.000000	-1.000000	-1.000000	-1.000000	-1.000000	-1.000000	-1.000000	64.000000	0.000000	-1.000000	-1.000000	664469.000000	1776577728.241283
-14866.830000	-33672.015000	24871.950000	49096.620000	-1015.965000	-8193.240000	-36983.520000	15739.470000	0.352715	-1.476328	-8.151848	-10.363472	-10.637997	-6.166023	-2.226611	-2.245142	4.883200	-8.042020	-4.043900	-0.580016	0.235656	0.758299	-1.000000	-1.000000	-1.000000	-1.000000	-1.000000	-1.000000	-1.000000	64.000000	0.000000	-1.000000	-1.000000	664470.000000	1776577728.245503
-14869.305000	-33677.190000	24875.235000	49111.155000	-993.825000	-8185.680000	-36983.115000	15735.060000	2.361226	1.498620	0.434983	2.076300	6.241883	46.056626	3.716921	0.425335	4.883200	-8.042020	-4.043900	-0.580016	0.235656	0.758299	-1.000000	-1.000000	-1.000000	-1.000000	-1.000000	-1.000000	-1.000000	64.000000	0.000000	-1.000000	-1.000000	664471.000000	1776577728.245521
-14856.435000	-33664.770000	24889.455000	49106.970000	-970.155000	-8223.345000	-37002.015000	15737.085000	0.636754	1.723900	6.449668	11.397015	18.547750	69.357347	6.807260	-0.568024	4.883200	-8.042020	-4.043900	-0.580016	0.235656	0.758299	-1.000000	-1.000000	-1.000000	-1.000000	-1.000000	-1.000000	-1.000000	64.000000	0.000000	-1.000000	-1.000000	664472.000000	1776577728.249337
-14874.480000	-33691.635000	24847.560000	49053.960000	-1028.385000	-8344.395000	-37020.330000	15725.160000	-0.975017	1.367646	8.969878	14.029588	22.430041	49.466673	4.396394	-2.137952	4.883200	-8.042020	-4.043900	-0.580016	0.235656	0.758299	-1.000000	-1.000000	-1.000000	-1.000000	-1.000000	-1.000000	-1.000000	64.000000	0.000000	-1.000000	-1.000000	664473.000000	1776577728.249357
-14853.555000	-33662.970000	24889.410000	49120.830000	-948.915000	-8271.450000	-37003.905000	15733.530000	-0.507617	1.353860	7.350813	8.988930	16.123519	-1.435351	-2.186248	-2.057076	4.883200	-8.042020	-4.043900	-0.580016	0.235656	0.758299	-1.000000	-1.000000	-1.000000	-1.000000	-1.000000	-1.000000	-1.000000	64.000000	0.000000	-1.000000	-1.000000	664474.000000	1776577728.253219
-14814.000000	-33632.685000	24920.505000	49162.770000	-880.560000	-8152.830000	-36992.565000	15751.890000	2.617760	2.964193	4.706897	3.267023	6.552876	-46.363327	-7.088810	0.544273	4.883200	-8.042020	-4.043900	-0.580016	0.235656	0.758299	-1.000000	-1.000000	-1.000000	-1.000000	-1.000000	-1.000000	-1.000000	64.000000	0.000000	-1.000000	-1.000000	664475.000000	1776577728.253231
-14836.140000	-33659.505000	24872.445000	49097.700000	-978.570000	-8164.530000	-37008.180000	15734.970000	7.815920	6.698011	4.507856	3.281232	1.538338	-52.217393	-6.005009	4.987631	4.883200	-8.042020	-4.043900	-0.580016	0.235656	0.758299	-1.000000	-1.000000	-1.000000	-1.000000	-1.000000	-1.000000	-1.000000	64.000000	0.000000	-1.000000	-1.000000	664476.000000	1776577728.257088
-14869.170000	-33690.960000	24840.855000	49059.495000	-1064.880000	-8324.775000	-37040.940000	15703.335000	10.166953	8.153535	3.229195	3.312106	-5.059591	-25.523989	-1.557766	7.561564	4.883200	-8.042020	-4.043900	-0.580016	0.235656	0.758299	-1.000000	-1.000000	-1.000000	-1.000000	-1.000000	-1.000000	-1.000000	64.000000	0.000000	-1.000000	-1.000000	664477.000000	1776577728.257093
-14893.380000	-33716.970000	24817.995000	49040.550000	-1079.820000	-8448.525000	-37043.190000	15686.865000	4.157008	2.293068	-3.821456	-4.349700	-21.323516	-3.657576	0.705783	4.365006	-5.722500	-3.540320	-4.394880	-0.579344	0.263000	0.758421	-1.000000	-1.000000	-1.000000	-1.000000	-1.000000	-1.000000	-1.000000	64.000000	0.000000	-1.000000	-1.000000	664478.000000	1776577728.261414
-14898.330000	-33719.940000	24822.000000	49049.280000	-1075.140000	-8505.315000	-37030.365000	15690.195000	-8.047945	-8.550199	-13.057379	-15.373195	-37.787747	-8.727878	0.109567	-2.954014	-5.722500	-3.540320	-4.394880	-0.579344	0.263000	0.758421	-1.000000	-1.000000	-1.000000	-1.000000	-1.000000	-1.000000	-1.000000	64.000000	0.000000	-1.000000	-1.000000	664479.000000	1776577728.261427
-14873.940000	-33689.340000	24868.485000	49126.005000	-970.470000	-8312.940000	-37012.320000	15714.720000	-16.914357	-15.353225	-15.140620	-17.404486	-35.147284	-22.162255	0.903973	-7.477505	-5.722500	-3.540320	-4.394880	-0.579344	0.263000	0.758421	-1.000000	-1.000000	-1.000000	-1.000000	-1.000000	-1.000000	-1.000000	64.000000	0.000000	-1.000000	-1.000000	664480.000000	1776577728.265349
-14837.265000	-33656.130000	24904.845000	49180.680000	-898.155000	-8284.230000	-37008.540000	15742.755000	-13.830822	-10.396453	-4.183127	-2.718376	-4.843945	-9.090040	5.492591	-3.629455	-5.722500	-3.540320	-4.394880	-0.579344	0.263000	0.758421	-1.000000	-1.000000	-1.000000	-1.000000	-1.000000	-1.000000	-1.000000	64.000000	0.000000	-1.000000	-1.000000	664481.000000	1776577728.265364
-14834.790000	-33652.935000	24899.445000	49141.935000	-962.640000	-8349.615000	-37016.865000	15740.820000	0.903307	4.934695	14.919164	21.315493	38.027280	33.581667	10.738251	6.908326	-5.722500	-3.540320	-4.394880	-0.579344	0.263000	0.758421	-1.000000	-1.000000	-1.000000	-1.000000	-1.000000	-1.000000	-1.000000	64.000000	0.000000	-1.000000	-1.000000	664482.000000	1776577728.269340
-14875.155000	-33708.510000	24824.520000	49026.150000	-1074.330000	-8351.865000	-37021.005000	15714.540000	16.430663	18.977364	27.199983	33.155305	60.415849	70.036222	11.377848	15.363143	-5.722500	-3.540320	-4.394880	-0.579344	0.263000	0.758421	-1.000000	-1.000000	-1.000000	-1.000000	-1.000000	-1.000000	-1.000000	64.000000	0.000000	-1.000000	-1.000000	664483.000000	1776577728.269361
-14857.380000	-33702.345000	24822.135000	49025.430000	-1076.985000	-8322.390000	-37021.680000	15727.680000	20.492295	19.499365	20.291321	17.414464	41.416203	70.428858	5.754003	13.831217	-5.722500	-3.540320	-4.394880	-0.579344	0.263000	0.758421	-1.000000	-1.000000	-1.000000	-1.000000	-1.000000	-1.000000	-1.000000	64.000000	0.000000	-1.000000	-1.000000	664484.000000	1776577728.273282
-14833.395000	-33680.880000	24844.410000	49057.380000	-1056.915000	-8305.605000	-37019.520000	15743.205000	12.144298	6.981850	-1.060271	-14.501605	-3.486264	39.174059	-2.733692	3.760987	-5.722500	-3.540320	-4.394880	-0.579344	0.263000	0.758421	-1.000000	-1.000000	-1.000000	-1.000000	-1.000000	-1.000000	-1.000000	64.000000	0.000000	-1.000000	-1.000000	664485.000000	1776577728.273290
-14832.630000	-33675.030000	24854.985000	49058.550000	-1006.830000	-8309.340000	-37021.455000	15741.225000	0.679390	-6.505832	-18.889126	-34.972954	-37.827494	-0.946601	-9.148652	-6.613817	-5.722500	-3.540320	-4.394880	-0.579344	0.263000	0.758421	-1.000000	-1.000000	-1.000000	-1.000000	-1.000000	-1.000000	-1.000000	64.000000	0.000000	-1.000000	-1.000000	664486.000000	1776577728.277487
-14848.245000	-33689.835000	24844.860000	49054.320000	-1015.605000	-8353.665000	-37024.605000	15729.345000	-6.880518	-11.908055	-21.285250	-29.837812	-39.546109	-32.436490	-10.892274	-11.908109	-5.722500	-3.540320	-4.394880	-0.579344	0.263000	0.758421	-1.000000	-1.000000	-1.000000	-1.000000	-1.000000	-1.000000	-1.000000	64.000000	0.000000	-1.000000	-1.000000	664487.000000	1776577728.277506
-14864.715000	-33708.330000	24826.860000	49040.010000	-1040.670000	-8386.965000	-37028.430000	15715.305000	-10.689045	-10.361126	-11.577790	-7.766073	-16.345954	-49.890249	-8.564763	-12.700367	-11.704420	-11.612860	1.342880	-0.573363	0.262206	0.768431	-1.000000	-1.000000	-1.000000	-1.000000	-1.000000	-1.000000	-1.000000	64.000000	0.000000	-1.000000	-1.000000	664488.000000	1776577728.281460
-14854.860000	-33697.260000	24837.480000	49048.560000	-1036.485000	-8385.300000	-37037.340000	15720.570000	-12.531809	-6.950593	-0.004046	14.077401	8.677442	-53.291874	-4.462791	-11.169555	-11.704420	-11.612860	1.342880	-0.573363	0.262206	0.768431	-1.000000	-1.000000	-1.000000	-1.000000	-1.000000	-1.000000	-1.000000	64.000000	0.000000	-1.000000	-1.000000	664489.000000	1776577728.281484
-14832.180000	-33674.130000	24862.230000	49071.285000	-1021.365000	-8364.825000	-37033.695000	15733.035000	-11.128231	-3.168419	7.659944	25.295097	20.356363	-41.941771	-0.645995	-7.436759	-11.704420	-11.612860	1.342880	-0.573363	0.262206	0.768431	-1.000000	-1.000000	-1.000000	-1.000000	-1.000000	-1.000000	-1.000000	64.000000	0.000000	-1.000000	-1.000000	664490.000000	1776577728.285255
-14821.515000	-33657.165000	24884.460000	49100.715000	-994.455000	-8294.445000	-37032.030000	15733.980000	-4.525919	2.450020	11.953705	25.866479	19.129999	-16.299551	2.263142	-0.978074	-11.704420	-11.612860	1.342880	-0.573363	0.262206	0.768431	-1.000000	-1.000000	-1.000000	-1.000000	-1.000000	-1.000000	-1.000000	64.000000	0.000000	-1.000000	-1.000000	664491.000000	1776577728.285284
-14764.320000	-33567.795000	25003.170000	49262.265000	-784.890000	-8261.640000	-37030.320000	15762.195000	6.045745	10.557747	16.027872	22.883972	16.016214	17.339665	4.502388	6.780298	-11.704420	-11.612860	1.342880	-0.573363	0.262206	0.768431	-1.000000	-1.000000	-1.000000	-1.000000	-1.000000	-1.000000	-1.000000	64.000000	0.000000	-1.000000	-1.000000	664492.000000	1776577728.289256
-14676.165000	-33441.525000	25171.920000	49502.295000	-496.395000	-8266.905000	-37018.035000	15813.720000	17.927808	21.619381	24.534590	27.508774	26.627006	45.074890	6.086737	13.919454	-11.704420	-11.612860	1.342880	-0.573363	0.262206	0.768431	-1.000000	-1.000000	-1.000000	-1.000000	-1.000000	-1.000000	-1.000000	64.000000	0.000000	-1.000000	-1.000000	664493.000000	1776577728.289279
-14725.485000	-33508.575000	25099.200000	49419.315000	-694.035000	-8273.925000	-37055.610000	15787.935000	26.624538	31.667657	35.289856	40.303596	48.837591	51.727516	6.079465	18.398239	-11.704420	-11.612860	1.342880	-0.573363	0.262206	0.768431	-1.000000	-1.000000	-1.000000	-1.000000	-1.000000	-1.000000	-1.000000	64.000000	0.000000	-1.000000	-1.000000	664494.000000	1776577728.293435
-14808.600000	-33630.480000	24919.200000	49118.445000	-1086.615000	-8262.720000	-37113.480000	15741.810000	21.713540	25.329348	28.318662	33.103788	41.226209	33.457948	1.798813	15.122868	-11.704420	-11.612860	1.342880	-0.573363	0.262206	0.768431	-1.000000	-1.000000	-1.000000	-1.000000	-1.000000	-1.000000	-1.000000	64.000000	0.000000	-1.000000	-1.000000	664495.000000	1776577728.293448
-14770.395000	-33588.990000	24953.805000	49142.070000	-945.855000	-8197.965000	-37120.365000	15767.730000	-2.299267	-7.355550	-12.547850	-21.621245	-28.391911	3.010266	-7.617076	1.222529	-11.704420	-11.612860	1.342880	-0.573363	0.262206	0.768431	-1.000000	-1.000000	-1.000000	-1.000000	-1.000000	-1.000000	-1.000000	64.000000	0.000000	-1.000000	-1.000000	664496.000000	1776577728.297202
-14753.700000	-33581.430000	24975.495000	49216.005000	-847.350000	-8162.280000	-37075.230000	15783.210000	-31.024491	-47.938222	-65.900180	-96.659730	-114.544399	-20.085668	-15.270603	-15.326350	-11.704420	-11.612860	1.342880	-0.573363	0.262206	0.768431	-1.000000	-1.000000	-1.000000	-1.000000	-1.000000	-1.000000	-1.000000	64.000000	0.000000	-1.000000	-1.000000	664497.000000	1776577728.297216
-14752.350000	-33600.420000	24930.810000	49144.860000	-960.390000	-8257.095000	-37020.780000	15777.495000	-42.773759	-66.092056	-90.816300	-130.472933	-139.900045	-27.770197	-10.498530	-22.593328	-11.231360	-1.510740	-5.676720	-0.554564	0.260436	0.780149	-1.000000	-1.000000	-1.000000	-1.000000	-1.000000	-1.000000	-1.000000	64.000000	0.000000	-1.000000	-1.000000	664498.000000	1776577728.301262
-14833.080000	-33700.455000	24807.915000	48959.190000	-1075.635000	-8300.430000	-36914.940000	15726.465000	-32.939561	-53.425694	-73.778758	-101.315482	-90.887656	-29.142330	9.726634	-18.610217	-11.231360	-1.510740	-5.676720	-0.554564	0.260436	0.780149	-1.000000	-1.000000	-1.000000	-1.000000	-1.000000	-1.000000	-1.000000	64.000000	0.000000	-1.000000	-1.000000	664499.000000	1776577728.301273
-14917.590000	-33797.295000	24715.035000	48883.185000	-1160.640000	-8341.380000	-36948.780000	15667.380000	-15.936797	-26.780011	-35.404085	-41.142786	-15.284445	-33.274684	34.706123	-11.799636	-11.231360	-1.510740	-5.676720	-0.554564	0.260436	0.780149	-1.000000	-1.000000	-1.000000	-1.000000	-1.000000	-1.000000	-1.000000	64.000000	0.000000	-1.000000	-1.000000	664500.000000	1776577728.305299
-14871.285000	-33748.290000	24770.070000	48958.785000	-1086.390000	-8314.830000	-37017.990000	15695.685000	-4.689527	-3.307365	1.767214	15.742292	44.178066	-35.078092	43.397138	-8.414817	-11.231360	-1.510740	-5.676720	-0.554564	0.260436	0.780149	-1.000000	-1.000000	-1.000000	-1.000000	-1.000000	-1.000000	-1.000000	64.000000	0.000000	-1.000000	-1.000000	664501.000000	1776577728.305315
-14844.330000	-33718.455000	24802.200000	48999.870000	-1050.255000	-8300.880000	-37007.145000	15714.810000	4.416273	17.325615	34.376016	62.692503	79.574758	-23.339971	22.302879	-4.266753	-11.231360	-1.510740	-5.676720	-0.554564	0.260436	0.780149	-1.000000	-1.000000	-1.000000	-1.000000	-1.000000	-1.000000	-1.000000	64.000000	0.000000	-1.000000	-1.000000	664502.000000	1776577728.309326
-14881.860000	-33753.240000	24778.800000	48988.665000	-1076.625000	-8397.090000	-37000.530000	15679.710000	18.939099	40.119211	64.313327	100.046376	96.978523	1.776116	-16.718910	6.056978	-11.231360	-1.510740	-5.676720	-0.554564	0.260436	0.780149	-1.000000	-1.000000	-1.000000	-1.000000	-1.000000	-1.000000	-1.000000	64.000000	0.000000	-1.000000	-1.000000	664503.000000	1776577728.309338
-14887.305000	-33738.030000	24810.705000	49039.335000	-1000.350000	-8256.735000	-36990.090000	15670.845000	33.530580	57.792074	82.545534	116.621745	95.466543	27.713493	-46.790738	17.977346	-11.231360	-1.510740	-5.676720	-0.554564	0.260436	0.780149	-1.000000	-1.000000	-1.000000	-1.000000	-1.000000	-1.000000	-1.000000	64.000000	0.000000	-1.000000	-1.000000	664504.000000	1776577728.313273
-14853.555000	-33659.415000	24933.285000	49219.425000	-769.500000	-8208.090000	-36970.515000	15693.750000	38.151520	60.648603	80.622614	105.195555	77.759585	47.158083	-50.817890	23.553751	-11.231360	-1.510740	-5.676720	-0.554564	0.260436	0.780149	-1.000000	-1.000000	-1.000000	-1.000000	-1.000000	-1.000000	-1.000000	64.000000	0.000000	-1.000000	-1.000000	664505.000000	1776577728.313284
-14776.965000	-33551.370000	25084.980000	49437.630000	-508.905000	-8075.790000	-36961.470000	15743.475000	32.853083	51.144099	64.597987	77.564612	59.896608	60.704124	-30.794326	22.466515	-11.231360	-1.510740	-5.676720	-0.554564	0.260436	0.780149	-1.000000	-1.000000	-1.000000	-1.000000	-1.000000	-1.000000	-1.000000	64.000000	0.000000	-1.000000	-1.000000	664506.000000	1776577728.317273
-14681.565000	-33492.555000	25106.130000	49436.550000	-579.735000	-8259.525000	-36980.865000	15809.760000	25.938839	37.636718	44.207394	47.561398	48.051686	61.019076	-1.738171	20.262574	-11.231360	-1.510740	-5.676720	-0.554564	0.260436	0.780149	-1.000000	-1.000000	-1.000000	-1.000000	-1.000000	-1.000000	-1.000000	64.000000	0.000000	-1.000000	-1.000000	664507.000000	1776577728.317287
-14775.570000	-33648.390000	24879.420000	49087.215000	-1062.540000	-8445.510000	-37008.450000	15754.860000	19.708261	18.165341	13.122938	3.804204	12.528402	29.891819	19.193460	18.216622	-31.939180	1.175020	-13.321980	-0.544310	0.298949	0.774351	-1.000000	-1.000000	-1.000000	-1.000000	-1.000000	-1.000000	-1.000000	64.000000	0.000000	-1.000000	-1.000000	664508.000000	1776577728.321280
-14856.885000	-33760.845000	24722.505000	48857.310000	-1274.400000	-8338.185000	-37018.845000	15703.560000	3.451960	-19.264833	-43.942087	-76.733172	-80.633165	-32.628284	23.293527	8.745210	-31.939180	1.175020	-13.321980	-0.544310	0.298949	0.774351	-1.000000	-1.000000	-1.000000	-1.000000	-1.000000	-1.000000	-1.000000	64.000000	0.000000	-1.000000	-1.000000	664509.000000	1776577728.321289
-14835.240000	-33718.815000	24783.705000	48951.585000	-1134.855000	-8350.830000	-37040.580000	15714.450000	-28.454297	-70.568313	-114.613140	-174.033980	-197.278245	-86.982212	14.096236	-12.661178	-31.939180	1.175020	-13.321980	-0.544310	0.298949	0.774351	-1.000000	-1.000000	-1.000000	-1.000000	-1.000000	-1.000000	-1.000000	64.000000	0.000000	-1.000000	-1.000000	664510.000000	1776577728.325427
-14818.320000	-33692.580000	24822.405000	48995.595000	-1108.035000	-8356.410000	-37069.200000	15718.140000	-58.773499	-103.508507	-150.569218	-216.780879	-241.776963	-92.512600	1.225533	-35.344942	-31.939180	1.175020	-13.321980	-0.544310	0.298949	0.774351	-1.000000	-1.000000	-1.000000	-1.000000	-1.000000	-1.000000	-1.000000	64.000000	0.000000	-1.000000	-1.000000	664511.000000	1776577728.325447
-14834.745000	-33707.565000	24811.605000	48986.055000	-1082.295000	-8319.240000	-37049.715000	15701.310000	-64.362833	-89.936668	-116.542791	-156.745153	-160.524852	-49.498181	-7.000867	-43.676097	-31.939180	1.175020	-13.321980	-0.544310	0.298949	0.774351	-1.000000	-1.000000	-1.000000	-1.000000	-1.000000	-1.000000	-1.000000	64.000000	0.000000	-1.000000	-1.000000	664512.000000	1776577728.329385
-14871.240000	-33748.200000	24780.960000	48958.560000	-1082.880000	-8247.735000	-37000.125000	15677.730000	-42.280797	-37.568986	-30.290550	-23.993718	1.864836	13.171398	-5.171982	-33.778405	-31.939180	1.175020	-13.321980	-0.544310	0.298949	0.774351	-1.000000	-1.000000	-1.000000	-1.000000	-1.000000	-1.000000	-1.000000	64.000000	0.000000	-1.000000	-1.000000	664513.000000	1776577728.329404
-14884.380000	-33762.195000	24772.185000	48994.605000	-1015.110000	-8204.445000	-36995.670000	15668.595000	-8.759727	20.718228	57.300902	106.316092	153.197757	65.628195	6.923639	-13.841686	-31.939180	1.175020	-13.321980	-0.544310	0.298949	0.774351	-1.000000	-1.000000	-1.000000	-1.000000	-1.000000	-1.000000	-1.000000	64.000000	0.000000	-1.000000	-1.000000	664514.000000	1776577728.333354
-14843.070000	-33679.215000	24893.550000	49163.265000	-842.670000	-8195.445000	-37000.845000	15687.450000	19.957067	58.999419	108.008662	179.348547	228.769642	87.753046	20.743569	6.446884	-31.939180	1.175020	-13.321980	-0.544310	0.298949	0.774351	-1.000000	-1.000000	-1.000000	-1.000000	-1.000000	-1.000000	-1.000000	64.000000	0.000000	-1.000000	-1.000000	664515.000000	1776577728.333367
-14800.320000	-33550.515000	25118.820000	49509.585000	-464.220000	-8278.065000	-36974.115000	15700.905000	38.692157	74.751719	119.740322	191.047283	224.170959	71.157829	25.133551	22.143916	-31.939180	1.175020	-13.321980	-0.544310	0.298949	0.774351	-1.000000	-1.000000	-1.000000	-1.000000	-1.000000	-1.000000	-1.000000	64.000000	0.000000	-1.000000	-1.000000	664516.000000	1776577728.338704
-14803.515000	-33550.020000	25154.595000	49610.295000	-342.495000	-8206.830000	-36945.495000	15706.035000	47.624554	76.105824	109.418191	165.916355	172.489396	23.699899	17.529242	31.125915	-31.939180	1.175020	-13.321980	-0.544310	0.298949	0.774351	-1.000000	-1.000000	-1.000000	-1.000000	-1.000000	-1.000000	-1.000000	64.000000	0.000000	-1.000000	-1.000000	664517.000000	1776577728.338723
-14731.155000	-33574.320000	25020.495000	49378.635000	-625.455000	-8223.300000	-36982.890000	15764.895000	45.638835	61.815388	78.635750	109.560049	90.124750	-28.984881	3.254661	32.395307	-72.744420	1.999060	-7.538440	-0.555480	0.353637	0.773802	-1.000000	-1.000000	-1.000000	-1.000000	-1.000000	-1.000000	-1.000000	64.000000	0.000000	-1.000000	-1.000000	664518.000000	1776577728.341383
-14693.265000	-33600.420000	24876.720000	49061.565000	-1083.330000	-8456.670000	-37044.090000	15786.450000	33.863407	25.790863	13.915657	2.570561	-38.765576	-64.735531	-13.700799	27.490733	-72.744420	1.999060	-7.538440	-0.555480	0.353637	0.773802	-1.000000	-1.000000	-1.000000	-1.000000	-1.000000	-1.000000	-1.000000	64.000000	0.000000	-1.000000	-1.000000	664519.000000	1776577728.341395
-14851.170000	-33773.265000	24692.535000	48785.130000	-1325.880000	-8430.705000	-37030.275000	15691.545000	13.390713	-27.427323	-79.162913	-148.896440	-207.515311	-81.301862	-30.314276	16.379976	-72.744420	1.999060	-7.538440	-0.555480	0.353637	0.773802	-1.000000	-1.000000	-1.000000	-1.000000	-1.000000	-1.000000	-1.000000	64.000000	0.000000	-1.000000	-1.000000	664520.000000	1776577728.347972
-14862.420000	-33779.160000	24703.380000	48788.460000	-1217.880000	-8335.080000	-37045.485000	15682.320000	-18.137276	-80.724172	-160.990668	-279.984754	-339.575777	-75.351907	-38.758541	-4.134631	-72.744420	1.999060	-7.538440	-0.555480	0.353637	0.773802	-1.000000	-1.000000	-1.000000	-1.000000	-1.000000	-1.000000	-1.000000	64.000000	0.000000	-1.000000	-1.000000	664521.000000	1776577728.347997
-14814.720000	-33715.980000	24785.460000	48872.835000	-1108.170000	-8335.260000	-37061.685000	15710.535000	-51.541885	-107.283224	-179.926192	-303.332934	-333.605766	-36.770737	-32.269420	-28.727120	-72.744420	1.999060	-7.538440	-0.555480	0.353637	0.773802	-1.000000	-1.000000	-1.000000	-1.000000	-1.000000	-1.000000	-1.000000	64.000000	0.000000	-1.000000	-1.000000	664522.000000	1776577728.349255
-14812.830000	-33701.625000	24809.985000	48899.385000	-1068.255000	-8339.310000	-37030.905000	15713.100000	-63.895707	-85.225851	-113.413425	-184.456980	-164.493705	23.415407	-12.930740	-41.610997	-72.744420	1.999060	-7.538440	-0.555480	0.353637	0.773802	-1.000000	-1.000000	-1.000000	-1.000000	-1.000000	-1.000000	-1.000000	64.000000	0.000000	-1.000000	-1.000000	664523.000000	1776577728.349268
-14808.825000	-33693.660000	24825.960000	48923.505000	-1024.515000	-8323.605000	-37004.400000	15713.145000	-44.644360	-22.353421	6.511161	20.152431	81.471667	72.879444	11.741450	-33.870446	-72.744420	1.999060	-7.538440	-0.555480	0.353637	0.773802	-1.000000	-1.000000	-1.000000	-1.000000	-1.000000	-1.000000	-1.000000	64.000000	0.000000	-1.000000	-1.000000	664524.000000	1776577728.353332
-14780.250000	-33660.675000	24874.560000	48979.935000	-966.375000	-8321.355000	-36986.445000	15734.970000	-6.625330	46.588542	116.101937	205.406817	276.517457	87.665156	33.197773	-11.800472	-72.744420	1.999060	-7.538440	-0.555480	0.353637	0.773802	-1.000000	-1.000000	-1.000000	-1.000000	-1.000000	-1.000000	-1.000000	64.000000	0.000000	-1.000000	-1.000000	664525.000000	1776577728.353342
-14793.930000	-33672.645000	24868.575000	48967.020000	-981.540000	-8321.850000	-36976.140000	15724.710000	28.761937	88.007296	166.269457	290.700410	338.949765	66.718779	43.159204	11.540126	-72.744420	1.999060	-7.538440	-0.555480	0.353637	0.773802	-1.000000	-1.000000	-1.000000	-1.000000	-1.000000	-1.000000	-1.000000	64.000000	0.000000	-1.000000	-1.000000	664526.000000	1776577728.357278
-14786.640000	-33647.130000	24906.420000	49014.900000	-918.675000	-8288.100000	-37023.300000	15708.780000	45.815968	88.389628	145.961181	257.069041	265.530533	26.037050	36.354664	24.925958	-72.744420	1.999060	-7.538440	-0.555480	0.353637	0.773802	-1.000000	-1.000000	-1.000000	-1.000000	-1.000000	-1.000000	-1.000000	64.000000	0.000000	-1.000000	-1.000000	664527.000000	1776577728.357289
-14745.690000	-33572.565000	25021.215000	49181.940000	-692.190000	-8234.505000	-37029.825000	15723.495000	41.517901	57.234257	79.415010	143.937117	117.419742	-12.430835	13.893134	24.041233	-120.492960	24.492300	-12.223260	-0.551146	0.379455	0.775694	-1.000000	-1.000000	-1.000000	-1.000000	-1.000000	-1.000000	-1.000000	64.000000	0.000000	-1.000000	-1.000000	664528.000000	1776577728.361440
-14718.870000	-33570.270000	25010.595000	49143.825000	-738.495000	-8281.620000	-37014.480000	15751.395000	25.027707	16.819692	5.888763	16.110319	-25.129367	-34.155456	-13.950340	14.024058	-120.492960	24.492300	-12.223260	-0.551146	0.379455	0.775694	-1.000000	-1.000000	-1.000000	-1.000000	-1.000000	-1.000000	-1.000000	64.000000	0.000000	-1.000000	-1.000000	664529.000000	1776577728.361459
-14788.080000	-33675.435000	24858.225000	48882.195000	-1052.865000	-8412.930000	-37025.775000	15709.770000	6.163910	-18.133938	-51.253176	-86.191747	-123.013594	-42.406512	-32.403203	3.258117	-120.492960	24.492300	-12.223260	-0.551146	0.379455	0.775694	-1.000000	-1.000000	-1.000000	-1.000000	-1.000000	-1.000000	-1.000000	64.000000	0.000000	-1.000000	-1.000000	664530.000000	1776577728.365366
-14862.330000	-33765.660000	24742.440000	48702.105000	-1172.385000	-8404.200000	-37025.640000	15661.035000	-13.838261	-47.839912	-92.945780	-160.769763	-185.897532	-48.386406	-33.879162	-6.037742	-120.492960	24.492300	-12.223260	-0.551146	0.379455	0.775694	-1.000000	-1.000000	-1.000000	-1.000000	-1.000000	-1.000000	-1.000000	64.000000	0.000000	-1.000000	-1.000000	664531.000000	1776577728.365376
-14848.830000	-33746.580000	24775.425000	48743.595000	-1059.120000	-8351.190000	-37019.790000	15672.285000	-34.141223	-70.903201	-118.487471	-203.317841	-214.608920	-49.333806	-21.684121	-15.008586	-120.492960	24.492300	-12.223260	-0.551146	0.379455	0.775694	-1.000000	-1.000000	-1.000000	-1.000000	-1.000000	-1.000000	-1.000000	64.000000	0.000000	-1.000000	-1.000000	664532.000000	1776577728.369372
-14829.885000	-33717.960000	24816.060000	48768.435000	-1024.605000	-8328.105000	-37020.735000	15682.995000	-44.167703	-73.351552	-110.776037	-187.208217	-180.924660	-31.794515	-4.186420	-19.569651	-120.492960	24.492300	-12.223260	-0.551146	0.379455	0.775694	-1.000000	-1.000000	-1.000000	-1.000000	-1.000000	-1.000000	-1.000000	64.000000	0.000000	-1.000000	-1.000000	664533.000000	1776577728.369390
-14845.770000	-33729.255000	24811.920000	48753.045000	-1001.745000	-8254.575000	-36997.830000	15669.045000	-33.610812	-45.071957	-59.891016	-101.149788	-78.232388	5.319718	10.921242	-14.364740	-120.492960	24.492300	-12.223260	-0.551146	0.379455	0.775694	-1.000000	-1.000000	-1.000000	-1.000000	-1.000000	-1.000000	-1.000000	64.000000	0.000000	-1.000000	-1.000000	664534.000000	1776577728.373423
-14832.045000	-33704.955000	24837.030000	48751.605000	-993.060000	-8355.240000	-37001.250000	15675.255000	-6.812829	2.978820	14.841593	20.629847	50.034612	43.498534	19.319072	-1.528592	-120.492960	24.492300	-12.223260	-0.551146	0.379455	0.775694	-1.000000	-1.000000	-1.000000	-1.000000	-1.000000	-1.000000	-1.000000	64.000000	0.000000	-1.000000	-1.000000	664535.000000	1776577728.373452
-14800.635000	-33678.990000	24864.660000	48758.760000	-971.775000	-8472.465000	-37022.130000	15699.060000	21.939148	47.436407	78.461665	122.011613	144.025672	55.985080	19.271566	11.894794	-120.492960	24.492300	-12.223260	-0.551146	0.379455	0.775694	-1.000000	-1.000000	-1.000000	-1.000000	-1.000000	-1.000000	-1.000000	64.000000	0.000000	-1.000000	-1.000000	664536.000000	1776577728.377337
-14780.835000	-33669.405000	24870.645000	48741.525000	-982.440000	-8471.565000	-37040.175000	15712.920000	40.868978	70.273058	105.971774	164.453456	169.310061	31.368514	10.785940	20.812259	-120.492960	24.492300	-12.223260	-0.551146	0.379455	0.775694	-1.000000	-1.000000	-1.000000	-1.000000	-1.000000	-1.000000	-1.000000	64.000000	0.000000	-1.000000	-1.000000	664537.000000	1776577728.377345
-14766.030000	-33657.435000	24884.280000	48736.620000	-969.930000	-8424.990000	-37031.580000	15729.480000	44.559997	65.726234	92.465171	142.687430	129.339327	-9.279734	-2.168859	23.027000	-161.328720	52.204460	-7.340060	-0.535216	0.358947	0.779905	-1.000000	-1.000000	-1.000000	-1.000000	-1.000000	-1.000000	-1.000000	64.000000	0.000000	-1.000000	-1.000000	664538.000000	1776577728.381325
-14782.185000	-33678.270000	24868.035000	48717.270000	-935.145000	-8240.805000	-37011.915000	15721.335000	32.721423	39.093219	49.944588	78.383794	54.880965	-28.617546	-11.695144	17.834086	-161.328720	52.204460	-7.340060	-0.535216	0.358947	0.779905	-1.000000	-1.000000	-1.000000	-1.000000	-1.000000	-1.000000	-1.000000	64.000000	0.000000	-1.000000	-1.000000	664539.000000	1776577728.381336
-14791.995000	-33687.090000	24854.130000	48690.225000	-937.890000	-8165.700000	-36988.245000	15713.010000	9.569083	2.404322	-1.682132	3.894127	-16.732668	-7.494629	-11.537033	6.083596	-161.328720	52.204460	-7.340060	-0.535216	0.358947	0.779905	-1.000000	-1.000000	-1.000000	-1.000000	-1.000000	-1.000000	-1.000000	64.000000	0.000000	-1.000000	-1.000000	664540.000000	1776577728.385353
-14784.480000	-33669.540000	24879.780000	48707.010000	-938.070000	-8224.965000	-36984.645000	15715.665000	-16.103676	-29.932325	-43.017852	-53.022918	-61.599323	34.509763	-2.643959	-8.649714	-161.328720	52.204460	-7.340060	-0.535216	0.358947	0.779905	-1.000000	-1.000000	-1.000000	-1.000000	-1.000000	-1.000000	-1.000000	64.000000	0.000000	-1.000000	-1.000000	664541.000000	1776577728.385364
-14762.160000	-33636.915000	24928.380000	48773.115000	-875.700000	-8260.065000	-36983.070000	15730.785000	-33.116702	-45.309052	-59.968510	-75.860933	-73.966018	54.624612	7.497779	-19.990575	-161.328720	52.204460	-7.340060	-0.535216	0.358947	0.779905	-1.000000	-1.000000	-1.000000	-1.000000	-1.000000	-1.000000	-1.000000	64.000000	0.000000	-1.000000	-1.000000	664542.000000	1776577728.389376
-14685.795000	-33567.795000	24988.365000	48823.380000	-827.055000	-8341.785000	-36986.490000	15783.030000	-33.124730	-38.305779	-48.549179	-62.141359	-58.493915	28.734793	11.288110	-21.597092	-161.328720	52.204460	-7.340060	-0.535216	0.358947	0.779905	-1.000000	-1.000000	-1.000000	-1.000000	-1.000000	-1.000000	-1.000000	64.000000	0.000000	-1.000000	-1.000000	664543.000000	1776577728.389388
-14686.155000	-33565.815000	24992.190000	48812.670000	-846.675000	-8420.625000	-37002.420000	15777.495000	-16.470339	-14.701171	-18.629910	-26.306517	-27.566792	-28.977969	6.460267	-12.165943	-161.328720	52.204460	-7.340060	-0.535216	0.358947	0.779905	-1.000000	-1.000000	-1.000000	-1.000000	-1.000000	-1.000000	-1.000000	64.000000	0.000000	-1.000000	-1.000000	664544.000000	1776577728.393309
-14743.530000	-33602.085000	24984.720000	48834.675000	-788.985000	-8260.065000	-36985.815000	15731.505000	4.073190	9.184192	10.003167	7.023408	1.283194	-79.226141	-3.275627	0.533291	-161.328720	52.204460	-7.340060	-0.535216	0.358947	0.779905	-1.000000	-1.000000	-1.000000	-1.000000	-1.000000	-1.000000	-1.000000	64.000000	0.000000	-1.000000	-1.000000	664545.000000	1776577728.393317
-14778.180000	-33640.245000	24947.460000	48795.525000	-802.665000	-8061.480000	-36997.830000	15704.910000	11.247303	16.476465	20.290449	19.852654	16.334895	-80.709262	-11.273273	4.893970	-161.328720	52.204460	-7.340060	-0.535216	0.358947	0.779905	-1.000000	-1.000000	-1.000000	-1.000000	-1.000000	-1.000000	-1.000000	64.000000	0.000000	-1.000000	-1.000000	664546.000000	1776577728.397366
-14820.480000	-33720.885000	24827.040000	48621.915000	-991.890000	-8243.190000	-37033.020000	15676.560000	0.110697	2.883072	7.469748	7.385337	12.769005	-27.388370	-13.831015	-2.291797	-161.328720	52.204460	-7.340060	-0.535216	0.358947	0.779905	-1.000000	-1.000000	-1.000000	-1.000000	-1.000000	-1.000000	-1.000000	64.000000	0.000000	-1.000000	-1.000000	664547.000000	1776577728.397379
-14822.685000	-33741.720000	24779.790000	48538.035000	-1074.240000	-8477.100000	-37065.915000	15669.630000	-17.674800	-20.848986	-20.397233	-24.888460	-11.313637	30.489733	-12.864936	-12.936768	-190.292200	72.103500	1.281840	-0.526122	0.282287	0.787474	-1.000000	-1.000000	-1.000000	-1.000000	-1.000000	-1.000000	-1.000000	64.000000	0.000000	-1.000000	-1.000000	664548.000000	1776577728.401418
-14797.080000	-33714.990000	24803.235000	48550.860000	-1072.395000	-8401.500000	-37038.465000	15689.790000	-25.152474	-35.892851	-43.846054	-56.970799	-42.920226	39.414691	-10.296997	-15.951303	-190.292200	72.103500	1.281840	-0.526122	0.282287	0.787474	-1.000000	-1.000000	-1.000000	-1.000000	-1.000000	-1.000000	-1.000000	64.000000	0.000000	-1.000000	-1.000000	664549.000000	1776577728.401437
-14800.005000	-33716.970000	24805.485000	48551.985000	-1057.680000	-8368.470000	-36993.960000	15692.535000	-13.812312	-27.869177	-41.854653	-60.601773	-53.530923	8.243066	-3.179261	-6.231481	-190.292200	72.103500	1.281840	-0.526122	0.282287	0.787474	-1.000000	-1.000000	-1.000000	-1.000000	-1.000000	-1.000000	-1.000000	64.000000	0.000000	-1.000000	-1.000000	664550.000000	1776577728.405644
-14803.470000	-33714.270000	24814.665000	48557.745000	-1045.035000	-8356.320000	-37005.435000	15684.030000	9.718962	0.587012	-10.713884	-25.127206	-26.531718	-15.266671	10.279483	11.118174	-190.292200	72.103500	1.281840	-0.526122	0.282287	0.787474	-1.000000	-1.000000	-1.000000	-1.000000	-1.000000	-1.000000	-1.000000	64.000000	0.000000	-1.000000	-1.000000	664551.000000	1776577728.405668
-14808.870000	-33716.970000	24820.785000	48574.710000	-1013.355000	-8338.905000	-37026.765000	15676.515000	30.120006	32.066146	31.854915	31.202962	25.594135	-7.199075	22.893674	24.829260	-190.292200	72.103500	1.281840	-0.526122	0.282287	0.787474	-1.000000	-1.000000	-1.000000	-1.000000	-1.000000	-1.000000	-1.000000	64.000000	0.000000	-1.000000	-1.000000	664552.000000	1776577728.409428
-14811.390000	-33716.475000	24828.615000	48594.150000	-979.875000	-8347.590000	-37034.865000	15674.220000	36.257104	49.276115	62.322645	78.075730	74.039217	19.796590	24.317958	26.967384	-190.292200	72.103500	1.281840	-0.526122	0.282287	0.787474	-1.000000	-1.000000	-1.000000	-1.000000	-1.000000	-1.000000	-1.000000	64.000000	0.000000	-1.000000	-1.000000	664553.000000	1776577728.409438
-14791.860000	-33695.595000	24852.735000	48619.530000	-962.775000	-8356.230000	-37031.220000	15687.090000	27.739819	46.171138	67.454499	94.390856	94.863294	40.760419	13.070607	18.316687	-190.292200	72.103500	1.281840	-0.526122	0.282287	0.787474	-1.000000	-1.000000	-1.000000	-1.000000	-1.000000	-1.000000	-1.000000	64.000000	0.000000	-1.000000	-1.000000	664554.000000	1776577728.413385
-14761.800000	-33653.295000	24902.235000	48672.090000	-914.805000	-8353.980000	-37015.155000	15705.360000	12.657666	29.061283	49.777346	77.587791	80.785242	40.522709	-2.269040	5.967911	-190.292200	72.103500	1.281840	-0.526122	0.282287	0.787474	-1.000000	-1.000000	-1.000000	-1.000000	-1.000000	-1.000000	-1.000000	64.000000	0.000000	-1.000000	-1.000000	664555.000000	1776577728.413392
-14752.755000	-33631.290000	24940.035000	48732.975000	-812.070000	-8295.075000	-36977.895000	15710.085000	-0.042021	9.389122	22.082633	40.790147	43.078090	22.316471	-11.329215	-3.234587	-190.292200	72.103500	1.281840	-0.526122	0.282287	0.787474	-1.000000	-1.000000	-1.000000	-1.000000	-1.000000	-1.000000	-1.000000	64.000000	0.000000	-1.000000	-1.000000	664556.000000	1776577728.417458
-14756.760000	-33632.505000	24942.735000	48744.720000	-750.465000	-8196.165000	-36963.090000	15704.730000	-7.419219	-5.882820	-3.905998	1.212984	2.725721	2.354924	-9.687196	-7.562115	-190.292200	72.103500	1.281840	-0.526122	0.282287	0.787474	-1.000000	-1.000000	-1.000000	-1.000000	-1.000000	-1.000000	-1.000000	64.000000	0.000000	-1.000000	-1.000000	664557.000000	1776577728.417475
-14755.545000	-33630.345000	24946.785000	48738.375000	-769.680000	-8253.855000	-36983.070000	15701.400000	-11.912566	-16.795605	-23.928429	-31.150468	-26.960414	-7.308844	-1.965165	-9.438285	-185.759980	76.650980	-4.928980	-0.534422	0.176147	0.788694	-1.000000	-1.000000	-1.000000	-1.000000	-1.000000	-1.000000	-1.000000	64.000000	0.000000	-1.000000	-1.000000	664558.000000	1776577728.421489
-14748.255000	-33648.660000	24912.945000	48686.895000	-877.320000	-8360.955000	-36996.885000	15716.115000	-15.475382	-25.256167	-38.328505	-54.669802	-49.154738	-13.232896	2.356831	-10.674697	-185.759980	76.650980	-4.928980	-0.534422	0.176147	0.788694	-1.000000	-1.000000	-1.000000	-1.000000	-1.000000	-1.000000	-1.000000	64.000000	0.000000	-1.000000	-1.000000	664559.000000	1776577728.421507
-14729.175000	-33658.740000	24850.080000	48533.670000	-1132.875000	-8478.855000	-37005.120000	15733.080000	-16.739571	-30.991401	-47.965656	-71.647897	-75.171450	-30.102166	-1.613199	-10.120877	-185.759980	76.650980	-4.928980	-0.534422	0.176147	0.788694	-1.000000	-1.000000	-1.000000	-1.000000	-1.000000	-1.000000	-1.000000	64.000000	0.000000	-1.000000	-1.000000	664560.000000	1776577728.425422
-14771.655000	-33694.830000	24832.260000	48541.410000	-1043.280000	-8402.805000	-36986.940000	15704.685000	-14.442526	-32.180249	-51.932992	-81.734249	-103.259352	-54.413823	-9.604158	-6.951014	-185.759980	76.650980	-4.928980	-0.534422	0.176147	0.788694	-1.000000	-1.000000	-1.000000	-1.000000	-1.000000	-1.000000	-1.000000	64.000000	0.000000	-1.000000	-1.000000	664561.000000	1776577728.425434
-14785.245000	-33697.125000	24846.030000	48569.445000	-991.935000	-8373.285000	-36996.930000	15692.310000	-10.981058	-27.396522	-45.400320	-74.314477	-105.368460	-60.867364	-13.604377	-3.881566	-185.759980	76.650980	-4.928980	-0.534422	0.176147	0.788694	-1.000000	-1.000000	-1.000000	-1.000000	-1.000000	-1.000000	-1.000000	64.000000	0.000000	-1.000000	-1.000000	664562.000000	1776577728.429515
-14726.205000	-33630.930000	24917.220000	48658.410000	-871.560000	-8332.065000	-37020.195000	15723.135000	-7.576135	-14.914598	-22.642569	-36.940087	-54.652354	-31.916212	-10.668788	-2.912668	-185.759980	76.650980	-4.928980	-0.534422	0.176147	0.788694	-1.000000	-1.000000	-1.000000	-1.000000	-1.000000	-1.000000	-1.000000	64.000000	0.000000	-1.000000	-1.000000	664563.000000	1776577728.429523
-14706.630000	-33618.465000	24937.695000	48700.350000	-819.270000	-8361.270000	-37016.370000	15740.820000	-0.307500	6.060874	14.157817	24.727002	36.174279	18.980616	-4.223283	-1.125653	-185.759980	76.650980	-4.928980	-0.534422	0.176147	0.788694	-1.000000	-1.000000	-1.000000	-1.000000	-1.000000	-1.000000	-1.000000	64.000000	0.000000	-1.000000	-1.000000	664564.000000	1776577728.433530
-14776.110000	-33705.990000	24827.670000	48531.285000	-1021.500000	-8424.855000	-36999.045000	15700.635000	10.376290	27.272790	47.963443	80.061583	115.604414	58.708162	2.425102	3.302587	-185.759980	76.650980	-4.928980	-0.534422	0.176147	0.788694	-1.000000	-1.000000	-1.000000	-1.000000	-1.000000	-1.000000	-1.000000	64.000000	0.000000	-1.000000	-1.000000	664565.000000	1776577728.433543
-14766.570000	-33703.695000	24817.770000	48500.235000	-1007.055000	-8390.610000	-36993.420000	15705.450000	15.255482	33.506624	56.133763	92.487131	131.764418	64.115445	8.795025	6.287098	-185.759980	76.650980	-4.928980	-0.534422	0.176147	0.788694	-1.000000	-1.000000	-1.000000	-1.000000	-1.000000	-1.000000	-1.000000	64.000000	0.000000	-1.000000	-1.000000	664566.000000	1776577728.438832
-14743.845000	-33679.980000	24840.135000	48527.055000	-966.330000	-8375.805000	-37004.085000	15715.620000	10.229910	21.397033	34.957810	56.272119	80.762635	40.321216	13.613172	4.816150	-185.759980	76.650980	-4.928980	-0.534422	0.176147	0.788694	-1.000000	-1.000000	-1.000000	-1.000000	-1.000000	-1.000000	-1.000000	64.000000	0.000000	-1.000000	-1.000000	664567.000000	1776577728.438871
-14778.630000	-33708.915000	24815.160000	48488.355000	-1021.545000	-8337.015000	-37003.950000	15686.505000	1.838067	3.641947	4.103817	3.354185	6.871253	10.127323	13.912191	1.159027	-146.175540	81.091640	-20.295800	-0.558348	0.095031	0.777525	-1.000000	-1.000000	-1.000000	-1.000000	-1.000000	-1.000000	-1.000000	64.000000	0.000000	-1.000000	-1.000000	664568.000000	1776577728.441569
-14784.930000	-33701.220000	24829.155000	48506.490000	-993.105000	-8352.405000	-37015.020000	15674.760000	-4.130158	-7.865160	-16.266602	-31.968045	-46.207255	-9.513752	8.627525	-2.389065	-146.175540	81.091640	-20.295800	-0.558348	0.095031	0.777525	-1.000000	-1.000000	-1.000000	-1.000000	-1.000000	-1.000000	-1.000000	64.000000	0.000000	-1.000000	-1.000000	664569.000000	1776577728.441580
-14768.685000	-33683.130000	24851.790000	48531.420000	-959.985000	-8339.670000	-37011.240000	15683.580000	-6.413282	-9.944816	-19.388958	-37.176061	-61.448925	-16.704751	0.325976	-4.823166	-146.175540	81.091640	-20.295800	-0.558348	0.095031	0.777525	-1.000000	-1.000000	-1.000000	-1.000000	-1.000000	-1.000000	-1.000000	64.000000	0.000000	-1.000000	-1.000000	664570.000000	1776577728.445281
-14758.920000	-33671.205000	24867.360000	48535.200000	-961.920000	-8340.930000	-37000.890000	15686.865000	-4.054798	-4.260716	-8.957746	-18.902532	-43.774811	-17.345000	-6.465086	-4.130839	-146.175540	81.091640	-20.295800	-0.558348	0.095031	0.777525	-1.000000	-1.000000	-1.000000	-1.000000	-1.000000	-1.000000	-1.000000	64.000000	0.000000	-1.000000	-1.000000	664571.000000	1776577728.445291
-14769.315000	-33676.020000	24872.670000	48550.590000	-919.080000	-8331.930000	-36998.505000	15678.135000	2.034274	4.236489	5.547542	6.109972	-11.522869	-15.976717	-8.292565	0.259696	-146.175540	81.091640	-20.295800	-0.558348	0.095031	0.777525	-1.000000	-1.000000	-1.000000	-1.000000	-1.000000	-1.000000	-1.000000	64.000000	0.000000	-1.000000	-1.000000	664572.000000	1776577728.449486
-14753.970000	-33653.565000	24909.390000	48610.845000	-838.890000	-8334.720000	-37004.940000	15692.400000	7.669083	9.512037	14.766705	23.064392	17.224372	-13.841722	-5.527755	5.687353	-146.175540	81.091640	-20.295800	-0.558348	0.095031	0.777525	-1.000000	-1.000000	-1.000000	-1.000000	-1.000000	-1.000000	-1.000000	64.000000	0.000000	-1.000000	-1.000000	664573.000000	1776577728.449494
-14694.120000	-33609.465000	24939.405000	48635.325000	-830.925000	-8382.420000	-37011.870000	15735.825000	10.514887	9.721727	15.535278	27.332761	33.443330	-11.760314	-1.746194	9.953155	-146.175540	81.091640	-20.295800	-0.558348	0.095031	0.777525	-1.000000	-1.000000	-1.000000	-1.000000	-1.000000	-1.000000	-1.000000	64.000000	0.000000	-1.000000	-1.000000	664574.000000	1776577728.453288
-14712.165000	-33644.025000	24875.145000	48516.885000	-983.880000	-8415.585000	-37006.695000	15724.935000	11.577004	6.635464	8.693345	18.339966	30.242915	-11.698518	0.138110	12.675911	-146.175540	81.091640	-20.295800	-0.558348	0.095031	0.777525	-1.000000	-1.000000	-1.000000	-1.000000	-1.000000	-1.000000	-1.000000	64.000000	0.000000	-1.000000	-1.000000	664575.000000	1776577728.453298
-14763.690000	-33694.515000	24828.795000	48469.545000	-985.995000	-8346.600000	-36998.505000	15693.885000	8.663880	-0.678885	-6.168707	-5.813045	2.877362	-11.896910	0.370210	11.277919	-146.175540	81.091640	-20.295800	-0.558348	0.095031	0.777525	-1.000000	-1.000000	-1.000000	-1.000000	-1.000000	-1.000000	-1.000000	64.000000	0.000000	-1.000000	-1.000000	664576.000000	1776577728.457449
-14764.590000	-33687.315000	24838.065000	48482.955000	-967.185000	-8363.295000	-37002.735000	15691.635000	-2.304483	-13.294310	-25.575416	-37.251221	-35.014358	-5.608598	0.651430	2.538735	-146.175540	81.091640	-20.295800	-0.558348	0.095031	0.777525	-1.000000	-1.000000	-1.000000	-1.000000	-1.000000	-1.000000	-1.000000	64.000000	0.000000	-1.000000	-1.000000	664577.000000	1776577728.457475
-14747.130000	-33667.650000	24858.000000	48500.595000	-932.715000	-8356.635000	-37000.935000	15703.830000	-16.945735	-24.281650	-37.138428	-54.719099	-54.785245	8.055635	1.324391	-10.192806	-95.466560	66.091060	-33.678820	-0.590575	0.062012	0.770628	-1.000000	-1.000000	-1.000000	-1.000000	-1.000000	-1.000000	-1.000000	64.000000	0.000000	-1.000000	-1.000000	664578.000000	1776577728.461465
-14731.335000	-33652.755000	24876.945000	48506.445000	-926.055000	-8369.910000	-37004.985000	15711.975000	-23.788620	-23.431150	-29.841650	-43.337138	-41.028850	20.330508	1.510690	-18.165888	-95.466560	66.091060	-33.678820	-0.590575	0.062012	0.770628	-1.000000	-1.000000	-1.000000	-1.000000	-1.000000	-1.000000	-1.000000	64.000000	0.000000	-1.000000	-1.000000	664579.000000	1776577728.461495
-14728.860000	-33661.080000	24867.090000	48482.955000	-940.455000	-8382.510000	-37015.515000	15712.785000	-17.070168	-9.530179	-6.479879	-10.145079	-5.096803	22.788931	0.546289	-16.281601	-95.466560	66.091060	-33.678820	-0.590575	0.062012	0.770628	-1.000000	-1.000000	-1.000000	-1.000000	-1.000000	-1.000000	-1.000000	64.000000	0.000000	-1.000000	-1.000000	664580.000000	1776577728.465340
-14734.350000	-33673.005000	24852.375000	48459.915000	-963.540000	-8407.440000	-37023.615000	15705.180000	-2.195130	7.870274	18.183800	23.325483	28.024084	14.166466	-1.549297	-7.337520	-95.466560	66.091060	-33.678820	-0.590575	0.062012	0.770628	-1.000000	-1.000000	-1.000000	-1.000000	-1.000000	-1.000000	-1.000000	64.000000	0.000000	-1.000000	-1.000000	664581.000000	1776577728.465348
-14719.095000	-33650.775000	24878.520000	48485.205000	-921.555000	-8362.215000	-37017.045000	15713.055000	10.920805	18.403843	30.678661	40.053410	41.283768	0.635989	-3.600322	2.110806	-95.466560	66.091060	-33.678820	-0.590575	0.062012	0.770628	-1.000000	-1.000000	-1.000000	-1.000000	-1.000000	-1.000000	-1.000000	64.000000	0.000000	-1.000000	-1.000000	664582.000000	1776577728.469384
-14695.245000	-33620.220000	24911.325000	48513.510000	-888.255000	-8322.930000	-36987.660000	15732.585000	16.845282	19.911877	29.271759	38.830618	36.057967	-7.396158	-3.107607	8.048191	-95.466560	66.091060	-33.678820	-0.590575	0.062012	0.770628	-1.000000	-1.000000	-1.000000	-1.000000	-1.000000	-1.000000	-1.000000	64.000000	0.000000	-1.000000	-1.000000	664583.000000	1776577728.469407
-14707.350000	-33638.040000	24892.110000	48475.170000	-915.705000	-8381.475000	-36974.880000	15727.725000	15.874911	16.024931	20.172659	27.546467	22.657793	-5.473496	1.622187	10.250842	-95.466560	66.091060	-33.678820	-0.590575	0.062012	0.770628	-1.000000	-1.000000	-1.000000	-1.000000	-1.000000	-1.000000	-1.000000	64.000000	0.000000	-1.000000	-1.000000	664584.000000	1776577728.473425
-14722.245000	-33641.460000	24898.185000	48477.465000	-886.770000	-8446.185000	-36958.545000	15714.945000	9.355047	8.710981	7.932842	11.653204	7.393407	-2.162328	8.521319	8.864389	-95.466560	66.091060	-33.678820	-0.590575	0.062012	0.770628	-1.000000	-1.000000	-1.000000	-1.000000	-1.000000	-1.000000	-1.000000	64.000000	0.000000	-1.000000	-1.000000	664585.000000	1776577728.473436
-14716.575000	-33610.725000	24961.095000	48595.770000	-701.775000	-8373.555000	-36964.080000	15709.815000	-0.934785	-0.771519	-3.938896	-3.120107	-3.362165	-5.836525	12.501003	3.656159	-95.466560	66.091060	-33.678820	-0.590575	0.062012	0.770628	-1.000000	-1.000000	-1.000000	-1.000000	-1.000000	-1.000000	-1.000000	64.000000	0.000000	-1.000000	-1.000000	664586.000000	1776577728.477443
-14683.770000	-33592.185000	24972.390000	48607.065000	-691.965000	-8320.275000	-36989.775000	15732.450000	-9.872051	-7.962269	-9.973720	-7.786647	-1.127572	-9.393843	9.192678	-2.997883	-95.466560	66.091060	-33.678820	-0.590575	0.062012	0.770628	-1.000000	-1.000000	-1.000000	-1.000000	-1.000000	-1.000000	-1.000000	64.000000	0.000000	-1.000000	-1.000000	664587.000000	1776577728.477456
-14710.635000	-33654.465000	24858.945000	48402.450000	-991.935000	-8456.940000	-37001.880000	15719.850000	-12.172619	-10.433593	-11.029924	-5.985024	3.627713	-4.697174	-1.657016	-6.735526	-58.842560	47.779060	-38.363640	-0.610777	0.065491	0.767881	-1.000000	-1.000000	-1.000000	-1.000000	-1.000000	-1.000000	-1.000000	64.000000	0.000000	-1.000000	-1.000000	664588.000000	1776577728.481505
-14753.475000	-33699.915000	24804.450000	48322.305000	-1027.530000	-8379.315000	-36979.605000	15691.815000	-9.463968	-12.700614	-16.879738	-16.673870	-16.099152	1.477417	-14.140808	-6.597129	-58.842560	47.779060	-38.363640	-0.610777	0.065491	0.767881	-1.000000	-1.000000	-1.000000	-1.000000	-1.000000	-1.000000	-1.000000	64.000000	0.000000	-1.000000	-1.000000	664589.000000	1776577728.481518
-14743.575000	-33684.255000	24827.940000	48351.510000	-979.245000	-8367.030000	-36976.365000	15697.305000	-7.458174	-17.720939	-29.253831	-42.314279	-57.105050	3.409485	-19.416741	-5.439404	-58.842560	47.779060	-38.363640	-0.610777	0.065491	0.767881	-1.000000	-1.000000	-1.000000	-1.000000	-1.000000	-1.000000	-1.000000	64.000000	0.000000	-1.000000	-1.000000	664590.000000	1776577728.485484
-14727.105000	-33662.340000	24857.820000	48390.975000	-929.160000	-8380.530000	-36975.555000	15705.180000	-6.296757	-18.940209	-33.616297	-56.049879	-77.485956	5.069123	-13.923606	-4.145775	-58.842560	47.779060	-38.363640	-0.610777	0.065491	0.767881	-1.000000	-1.000000	-1.000000	-1.000000	-1.000000	-1.000000	-1.000000	64.000000	0.000000	-1.000000	-1.000000	664591.000000	1776577728.485494
-14716.080000	-33646.545000	24879.285000	48419.190000	-902.700000	-8425.935000	-36997.785000	15707.610000	-1.483683	-8.768657	-17.324932	-34.739453	-48.677677	6.335036	-2.740759	-0.922433	-58.842560	47.779060	-38.363640	-0.610777	0.065491	0.767881	-1.000000	-1.000000	-1.000000	-1.000000	-1.000000	-1.000000	-1.000000	64.000000	0.000000	-1.000000	-1.000000	664592.000000	1776577728.489380
-14716.710000	-33647.895000	24879.555000	48422.745000	-899.145000	-8406.090000	-37001.880000	15705.405000	7.376870	9.931563	13.622212	13.307219	13.580984	2.934792	5.978980	4.121286	-58.842560	47.779060	-38.363640	-0.610777	0.065491	0.767881	-1.000000	-1.000000	-1.000000	-1.000000	-1.000000	-1.000000	-1.000000	64.000000	0.000000	-1.000000	-1.000000	664593.000000	1776577728.489388
-14711.130000	-33645.150000	24880.725000	48421.710000	-907.110000	-8380.215000	-36989.955000	15712.740000	15.096716	25.844207	40.317876	57.998425	69.177694	-2.785580	8.647582	8.291665	-58.842560	47.779060	-38.363640	-0.610777	0.065491	0.767881	-1.000000	-1.000000	-1.000000	-1.000000	-1.000000	-1.000000	-1.000000	64.000000	0.000000	-1.000000	-1.000000	664594.000000	1776577728.493495
-14695.560000	-33625.575000	24904.890000	48446.280000	-884.250000	-8386.200000	-36995.130000	15722.865000	16.932018	30.035735	48.092591	74.355360	88.162449	-4.250492	7.557320	9.556894	-58.842560	47.779060	-38.363640	-0.610777	0.065491	0.767881	-1.000000	-1.000000	-1.000000	-1.000000	-1.000000	-1.000000	-1.000000	64.000000	0.000000	-1.000000	-1.000000	664595.000000	1776577728.493507
-14702.265000	-33633.180000	24901.335000	48442.545000	-873.585000	-8363.790000	-37006.020000	15721.335000	12.425244	22.099092	36.033882	58.372378	68.132557	-0.159293	5.601942	7.875005	-58.842560	47.779060	-38.363640	-0.610777	0.065491	0.767881	-1.000000	-1.000000	-1.000000	-1.000000	-1.000000	-1.000000	-1.000000	64.000000	0.000000	-1.000000	-1.000000	664596.000000	1776577728.497490
-14691.150000	-33630.120000	24900.570000	48444.570000	-847.125000	-8302.455000	-37002.690000	15733.260000	4.050243	7.280129	12.821237	22.831917	27.395848	6.367449	3.361917	4.152594	-58.842560	47.779060	-38.363640	-0.610777	0.065491	0.767881	-1.000000	-1.000000	-1.000000	-1.000000	-1.000000	-1.000000	-1.000000	64.000000	0.000000	-1.000000	-1.000000	664597.000000	1776577728.497500
-14664.420000	-33596.325000	24934.185000	48473.820000	-819.990000	-8286.525000	-37001.925000	15748.695000	-4.219232	-7.360764	-10.454430	-14.171964	-11.732285	12.822174	1.159747	0.002416	-47.306000	36.471400	-36.913940	-0.618712	0.075683	0.764830	-1.000000	-1.000000	-1.000000	-1.000000	-1.000000	-1.000000	-1.000000	64.000000	0.000000	-1.000000	-1.000000	664598.000000	1776577728.501460
-14681.070000	-33609.465000	24923.205000	48459.060000	-835.650000	-8438.220000	-37008.900000	15731.820000	-8.823571	-15.657854	-24.713948	-38.135606	-35.573405	12.742016	-0.257938	-3.173840	-47.306000	36.471400	-36.913940	-0.618712	0.075683	0.764830	-1.000000	-1.000000	-1.000000	-1.000000	-1.000000	-1.000000	-1.000000	64.000000	0.000000	-1.000000	-1.000000	664599.000000	1776577728.501467
-14711.040000	-33640.830000	24893.505000	48436.065000	-855.450000	-8449.920000	-37017.315000	15703.830000	-10.457541	-17.169764	-28.013728	-44.842413	-43.284392	-2.980437	-1.064203	-6.279275	-47.306000	36.471400	-36.913940	-0.618712	0.075683	0.764830	-1.000000	-1.000000	-1.000000	-1.000000	-1.000000	-1.000000	-1.000000	64.000000	0.000000	-1.000000	-1.000000	664600.000000	1776577728.505498
-14735.610000	-33664.095000	24884.055000	48456.405000	-811.080000	-8359.830000	-37017.090000	15684.030000	-12.664419	-16.646823	-25.118058	-38.742272	-39.992573	-27.079476	-1.868111	-10.888609	-47.306000	36.471400	-36.913940	-0.618712	0.075683	0.764830	-1.000000	-1.000000	-1.000000	-1.000000	-1.000000	-1.000000	-1.000000	64.000000	0.000000	-1.000000	-1.000000	664601.000000	1776577728.505504
-14714.640000	-33635.295000	24915.060000	48482.415000	-798.705000	-8439.615000	-37016.370000	15695.235000	-15.140442	-15.876271	-19.184102	-24.482531	-28.222067	-37.126192	-2.329861	-14.958391	-47.306000	36.471400	-36.913940	-0.618712	0.075683	0.764830	-1.000000	-1.000000	-1.000000	-1.000000	-1.000000	-1.000000	-1.000000	64.000000	0.000000	-1.000000	-1.000000	664602.000000	1776577728.509648
-14688.135000	-33603.210000	24946.335000	48510.225000	-735.750000	-8388.855000	-36981.450000	15713.730000	-12.388478	-10.534089	-8.500447	-5.027737	-9.427952	-24.289234	-1.041169	-13.190648	-47.306000	36.471400	-36.913940	-0.618712	0.075683	0.764830	-1.000000	-1.000000	-1.000000	-1.000000	-1.000000	-1.000000	-1.000000	64.000000	0.000000	-1.000000	-1.000000	664603.000000	1776577728.509662
-14684.085000	-33622.650000	24904.980000	48442.455000	-820.665000	-8402.715000	-36951.120000	15725.025000	-1.213060	1.685509	6.062757	12.928770	9.683152	0.778905	3.405681	-3.068827	-47.306000	36.471400	-36.913940	-0.618712	0.075683	0.764830	-1.000000	-1.000000	-1.000000	-1.000000	-1.000000	-1.000000	-1.000000	64.000000	0.000000	-1.000000	-1.000000	664604.000000	1776577728.513567
-14701.725000	-33655.365000	24844.545000	48334.635000	-983.970000	-8477.325000	-36967.410000	15712.155000	12.882118	13.874161	15.573876	17.705177	14.888486	22.119698	9.294064	10.662212	-47.306000	36.471400	-36.913940	-0.618712	0.075683	0.764830	-1.000000	-1.000000	-1.000000	-1.000000	-1.000000	-1.000000	-1.000000	64.000000	0.000000	-1.000000	-1.000000	664605.000000	1776577728.513583
-14717.295000	-33660.045000	24860.295000	48379.095000	-914.265000	-8472.690000	-36988.830000	15697.845000	19.946955	16.661779	12.421198	4.969478	-1.102669	27.420084	10.498737	19.022882	-47.306000	36.471400	-36.913940	-0.618712	0.075683	0.764830	-1.000000	-1.000000	-1.000000	-1.000000	-1.000000	-1.000000	-1.000000	64.000000	0.000000	-1.000000	-1.000000	664606.000000	1776577728.517545
-14689.530000	-33631.380000	24887.385000	48401.280000	-894.285000	-8434.260000	-37014.030000	15712.695000	16.008935	10.012810	2.332957	-10.781972	-20.639892	18.140047	2.447139	17.063167	-47.306000	36.471400	-36.913940	-0.618712	0.075683	0.764830	-1.000000	-1.000000	-1.000000	-1.000000	-1.000000	-1.000000	-1.000000	64.000000	0.000000	-1.000000	-1.000000	664607.000000	1776577728.517561
-14689.530000	-33633.180000	24885.180000	48398.130000	-876.870000	-8293.590000	-37004.895000	15713.280000	6.490815	2.357566	-2.326416	-11.119548	-18.822401	10.095579	-11.233730	8.111935	-53.287920	30.779420	-36.852900	-0.623350	0.077820	0.761351	-1.000000	-1.000000	-1.000000	-1.000000	-1.000000	-1.000000	-1.000000	64.000000	0.000000	-1.000000	-1.000000	664608.000000	1776577728.521525
-14698.080000	-33642.810000	24876.045000	48393.540000	-880.290000	-8381.700000	-36987.030000	15711.750000	-1.550566	-0.639657	1.882648	4.425512	5.799440	13.859605	-20.493150	-1.113867	-53.287920	30.779420	-36.852900	-0.623350	0.077820	0.761351	-1.000000	-1.000000	-1.000000	-1.000000	-1.000000	-1.000000	-1.000000	64.000000	0.000000	-1.000000	-1.000000	664609.000000	1776577728.521535
-14706.945000	-33654.735000	24864.300000	48389.670000	-875.070000	-8433.405000	-36976.230000	15706.620000	-6.198595	-0.720011	8.138240	21.664320	33.664758	18.125600	-17.727633	-6.850506	-53.287920	30.779420	-36.852900	-0.623350	0.077820	0.761351	-1.000000	-1.000000	-1.000000	-1.000000	-1.000000	-1.000000	-1.000000	64.000000	0.000000	-1.000000	-1.000000	664610.000000	1776577728.525563
-14712.210000	-33658.740000	24863.580000	48393.630000	-869.175000	-8398.980000	-36976.455000	15704.910000	-8.580833	-1.499283	9.510712	28.340430	46.072176	6.663214	-4.748942	-8.839371	-53.287920	30.779420	-36.852900	-0.623350	0.077820	0.761351	-1.000000	-1.000000	-1.000000	-1.000000	-1.000000	-1.000000	-1.000000	64.000000	0.000000	-1.000000	-1.000000	664611.000000	1776577728.525570
-14696.595000	-33639.795000	24882.345000	48413.700000	-843.030000	-8371.260000	-36971.055000	15715.665000	-8.791961	-3.100431	5.635683	22.514463	38.261800	-15.103842	9.491823	-7.838325	-53.287920	30.779420	-36.852900	-0.623350	0.077820	0.761351	-1.000000	-1.000000	-1.000000	-1.000000	-1.000000	-1.000000	-1.000000	64.000000	0.000000	-1.000000	-1.000000	664612.000000	1776577728.529417
-14704.695000	-33641.730000	24885.630000	48424.770000	-828.045000	-8376.615000	-36967.680000	15705.855000	-5.991818	-2.997320	0.916195	10.254598	18.106829	-28.876831	16.978397	-4.659639	-53.287920	30.779420	-36.852900	-0.623350	0.077820	0.761351	-1.000000	-1.000000	-1.000000	-1.000000	-1.000000	-1.000000	-1.000000	64.000000	0.000000	-1.000000	-1.000000	664613.000000	1776577728.529426
-14712.480000	-33642.405000	24893.820000	48443.805000	-793.215000	-8379.045000	-36983.430000	15696.720000	-1.253971	-0.489262	-1.375122	-1.334563	-2.786338	-27.062996	15.213352	-1.110930	-53.287920	30.779420	-36.852900	-0.623350	0.077820	0.761351	-1.000000	-1.000000	-1.000000	-1.000000	-1.000000	-1.000000	-1.000000	64.000000	0.000000	-1.000000	-1.000000	664614.000000	1776577728.533381
