Channel1	Channel2	Channel3	Channel4	Channel5	Channel6	Channel7	Channel8	FilteredChannel1	FilteredChannel2	FilteredChannel3	FilteredChannel4	FilteredChannel5	FilteredChannel6	FilteredChannel7	FilteredChannel8	GyroX	GyroY	GyroZ	AccX	AccY	AccZ	PPG1	PPG2	rawPPG1	rawPPG2	rawPPG3	Hr	Hrv	Battery	Trigger	PhysicalTrigger	AutoTrigger	NumMeasurements	Timestamp
30969.495000	-84137.715000	-8090.595000	8163.360000	832.590000	2134.710000	6389.280000	-29165.220000	0.492946	0.288359	1.467431	0.519462	14.540219	-3.786403	6.561278	4.273818	-0.625660	4.471180	-3.738700	-0.576292	0.141784	0.790403	-1.000000	-1.000000	-1.000000	-1.000000	-1.000000	-1.000000	-1.000000	66.000000	0.000000	-1.000000	-1.000000	290653.000000	1776576980.148766
30971.340000	-84138.300000	-8085.645000	8171.955000	839.205000	2114.955000	6388.560000	-29164.410000	1.893641	2.107538	5.233233	8.609244	20.665432	18.975446	6.074981	6.036926	-0.625660	4.471180	-3.738700	-0.576292	0.141784	0.790403	-1.000000	-1.000000	-1.000000	-1.000000	-1.000000	-1.000000	-1.000000	66.000000	0.000000	-1.000000	-1.000000	290654.000000	1776576980.152562
30979.035000	-84138.210000	-8088.615000	8162.460000	806.985000	2086.470000	6390.405000	-29161.395000	3.052154	3.692006	7.266872	13.379961	17.664857	29.292723	3.530284	6.720063	-0.625660	4.471180	-3.738700	-0.576292	0.141784	0.790403	-1.000000	-1.000000	-1.000000	-1.000000	-1.000000	-1.000000	-1.000000	66.000000	0.000000	-1.000000	-1.000000	290655.000000	1776576980.152581
30986.370000	-84135.420000	-8092.620000	8149.590000	785.340000	2039.445000	6389.055000	-29158.740000	4.629838	4.218762	6.508274	11.457516	4.204356	14.454534	0.024310	6.219328	-1.007160	2.594200	-3.631880	-0.575743	0.144409	0.790098	-1.000000	-1.000000	-1.000000	-1.000000	-1.000000	-1.000000	-1.000000	66.000000	0.000000	-1.000000	-1.000000	290656.000000	1776576980.156650
30992.625000	-84128.220000	-8087.445000	8150.400000	789.660000	2039.895000	6386.130000	-29156.670000	6.296301	3.437312	3.048682	3.096100	-14.441079	-17.968036	-3.025226	4.503803	-1.007160	2.594200	-3.631880	-0.575743	0.144409	0.790098	-1.000000	-1.000000	-1.000000	-1.000000	-1.000000	-1.000000	-1.000000	66.000000	0.000000	-1.000000	-1.000000	290657.000000	1776576980.156668
30985.110000	-84132.180000	-8084.745000	8163.180000	800.235000	2042.145000	6393.735000	-29161.890000	6.569113	1.872709	-1.194831	-6.628788	-27.421918	-46.198510	-4.599331	1.778050	-1.007160	2.594200	-3.631880	-0.575743	0.144409	0.790098	-1.000000	-1.000000	-1.000000	-1.000000	-1.000000	-1.000000	-1.000000	66.000000	0.000000	-1.000000	-1.000000	290658.000000	1776576980.160709
30975.480000	-84136.095000	-8083.305000	8171.280000	807.705000	2056.680000	6400.440000	-29167.560000	3.858645	-0.180820	-3.975374	-11.448818	-26.621102	-51.696029	-4.031913	-1.629926	-1.007160	2.594200	-3.631880	-0.575743	0.144409	0.790098	-1.000000	-1.000000	-1.000000	-1.000000	-1.000000	-1.000000	-1.000000	66.000000	0.000000	-1.000000	-1.000000	290659.000000	1776576980.160725
30979.710000	-84133.710000	-8085.465000	8161.785000	803.970000	2071.260000	6394.005000	-29167.965000	-1.546764	-2.535065	-4.591620	-9.448384	-13.472174	-31.918971	-1.678679	-4.935147	-1.007160	2.594200	-3.631880	-0.575743	0.144409	0.790098	-1.000000	-1.000000	-1.000000	-1.000000	-1.000000	-1.000000	-1.000000	66.000000	0.000000	-1.000000	-1.000000	290660.000000	1776576980.164570
30985.245000	-84129.120000	-8079.075000	8179.830000	835.470000	2077.155000	6381.675000	-29172.600000	-6.614346	-4.203019	-3.708675	-3.776339	3.676618	0.690233	0.415712	-6.812518	-1.007160	2.594200	-3.631880	-0.575743	0.144409	0.790098	-1.000000	-1.000000	-1.000000	-1.000000	-1.000000	-1.000000	-1.000000	66.000000	0.000000	-1.000000	-1.000000	290661.000000	1776576980.164588
30988.260000	-84127.365000	-8078.580000	8177.085000	818.145000	2071.080000	6380.730000	-29174.490000	-8.045482	-4.042478	-2.110179	1.677173	16.590765	28.582044	0.325215	-6.376822	-1.007160	2.594200	-3.631880	-0.575743	0.144409	0.790098	-1.000000	-1.000000	-1.000000	-1.000000	-1.000000	-1.000000	-1.000000	66.000000	0.000000	-1.000000	-1.000000	290662.000000	1776576980.168534
30989.835000	-84117.735000	-8069.715000	8181.495000	801.135000	2050.290000	6385.635000	-29173.005000	-5.386195	-2.007628	-0.289155	4.719326	19.898742	39.174691	-1.255768	-3.844069	-1.007160	2.594200	-3.631880	-0.575743	0.144409	0.790098	-1.000000	-1.000000	-1.000000	-1.000000	-1.000000	-1.000000	-1.000000	66.000000	0.000000	-1.000000	-1.000000	290663.000000	1776576980.168564
30978.270000	-84120.705000	-8073.990000	8173.485000	796.815000	2046.510000	6386.310000	-29183.220000	-1.163836	0.781806	1.237957	4.483593	12.553149	30.587791	-1.869226	-0.363023	-1.007160	2.594200	-3.631880	-0.575743	0.144409	0.790098	-1.000000	-1.000000	-1.000000	-1.000000	-1.000000	-1.000000	-1.000000	66.000000	0.000000	-1.000000	-1.000000	290664.000000	1776576980.172595
30972.060000	-84131.505000	-8087.175000	8155.755000	780.660000	2049.705000	6386.310000	-29184.030000	1.413398	2.438654	1.504776	1.173422	-0.430949	11.307222	-0.385523	2.429065	-1.007160	2.594200	-3.631880	-0.575743	0.144409	0.790098	-1.000000	-1.000000	-1.000000	-1.000000	-1.000000	-1.000000	-1.000000	66.000000	0.000000	-1.000000	-1.000000	290665.000000	1776576980.172605
30973.860000	-84140.820000	-8095.455000	8153.730000	789.480000	2058.885000	6391.170000	-29176.020000	1.242686	1.374857	-0.351454	-3.792542	-11.156146	-6.242514	2.147357	3.758882	1.068200	1.129240	-4.379620	-0.575194	0.143371	0.789183	-1.000000	-1.000000	-1.000000	-1.000000	-1.000000	-1.000000	-1.000000	66.000000	0.000000	-1.000000	-1.000000	290666.000000	1776576980.176650
30981.105000	-84140.775000	-8099.955000	8148.510000	780.210000	2050.605000	6384.780000	-29166.705000	0.121636	-1.836457	-3.478762	-7.584660	-14.178549	-14.186338	3.978891	4.435212	1.068200	1.129240	-4.379620	-0.575194	0.143371	0.789183	-1.000000	-1.000000	-1.000000	-1.000000	-1.000000	-1.000000	-1.000000	66.000000	0.000000	-1.000000	-1.000000	290667.000000	1776576980.176660
30981.510000	-84139.245000	-8095.635000	8157.375000	788.220000	2059.920000	6381.270000	-29166.345000	0.344202	-4.407534	-5.288197	-7.354823	-9.216852	-12.606490	3.803699	5.172752	1.068200	1.129240	-4.379620	-0.575194	0.143371	0.789183	-1.000000	-1.000000	-1.000000	-1.000000	-1.000000	-1.000000	-1.000000	66.000000	0.000000	-1.000000	-1.000000	290668.000000	1776576980.182360
30981.870000	-84133.665000	-8083.890000	8176.995000	812.655000	2072.745000	6377.130000	-29173.635000	2.066040	-3.840887	-3.514678	-2.218677	0.268978	-5.903092	1.501580	5.031707	1.068200	1.129240	-4.379620	-0.575194	0.143371	0.789183	-1.000000	-1.000000	-1.000000	-1.000000	-1.000000	-1.000000	-1.000000	66.000000	0.000000	-1.000000	-1.000000	290669.000000	1776576980.182404
30992.940000	-84126.105000	-8082.585000	8167.545000	797.130000	2070.045000	6380.055000	-29166.345000	3.804338	-0.023839	1.688367	5.695098	9.711401	1.433984	-1.504741	2.773210	1.068200	1.129240	-4.379620	-0.575194	0.143371	0.789183	-1.000000	-1.000000	-1.000000	-1.000000	-1.000000	-1.000000	-1.000000	66.000000	0.000000	-1.000000	-1.000000	290670.000000	1776576980.184698
30989.835000	-84094.065000	-8084.745000	8154.225000	774.045000	2028.150000	6384.915000	-29149.560000	4.395260	5.408280	7.244710	11.301746	13.783124	5.047684	-3.147840	-0.605303	1.068200	1.129240	-4.379620	-0.575194	0.143371	0.789183	-1.000000	-1.000000	-1.000000	-1.000000	-1.000000	-1.000000	-1.000000	66.000000	0.000000	-1.000000	-1.000000	290671.000000	1776576980.184734
30997.395000	-84095.415000	-8078.670000	8170.335000	787.860000	2015.505000	6389.235000	-29149.380000	3.441171	10.296497	9.522375	10.625348	9.567052	1.818271	-2.316861	-2.645971	1.068200	1.129240	-4.379620	-0.575194	0.143371	0.789183	-1.000000	-1.000000	-1.000000	-1.000000	-1.000000	-1.000000	-1.000000	66.000000	0.000000	-1.000000	-1.000000	290672.000000	1776576980.188696
31014.810000	-84106.080000	-8068.905000	8186.580000	793.305000	2022.210000	6394.410000	-29149.695000	1.528412	11.462722	7.628668	5.454146	0.888071	-5.748239	0.299914	-2.767624	1.068200	1.129240	-4.379620	-0.575194	0.143371	0.789183	-1.000000	-1.000000	-1.000000	-1.000000	-1.000000	-1.000000	-1.000000	66.000000	0.000000	-1.000000	-1.000000	290673.000000	1776576980.188706
31012.470000	-84106.575000	-8067.330000	8187.705000	784.260000	2024.550000	6395.670000	-29149.470000	-0.068920	6.339430	3.465106	0.616147	-5.663890	-10.203348	2.856371	-2.521297	1.068200	1.129240	-4.379620	-0.575194	0.143371	0.789183	-1.000000	-1.000000	-1.000000	-1.000000	-1.000000	-1.000000	-1.000000	66.000000	0.000000	-1.000000	-1.000000	290674.000000	1776576980.192522
31002.930000	-84117.870000	-8083.395000	8160.435000	760.680000	2036.385000	6399.135000	-29154.555000	-1.396654	-3.414237	-1.180435	-2.425474	-7.957003	-6.691887	3.723270	-3.071544	1.068200	1.129240	-4.379620	-0.575194	0.143371	0.789183	-1.000000	-1.000000	-1.000000	-1.000000	-1.000000	-1.000000	-1.000000	66.000000	0.000000	-1.000000	-1.000000	290675.000000	1776576980.192531
30994.920000	-84127.635000	-8091.360000	8155.170000	768.195000	2045.340000	6400.530000	-29159.100000	-3.745319	-12.782673	-5.909387	-5.754073	-7.811803	2.926506	2.494021	-4.233429	1.800680	0.457800	-5.325740	-0.575865	0.144226	0.789854	-1.000000	-1.000000	-1.000000	-1.000000	-1.000000	-1.000000	-1.000000	66.000000	0.000000	-1.000000	-1.000000	290676.000000	1776576980.196660
30995.460000	-84127.455000	-8090.775000	8160.435000	774.945000	2048.310000	6395.130000	-29160.495000	-6.895818	-17.206023	-9.818688	-9.527166	-5.929728	12.623782	-0.127869	-5.026514	1.800680	0.457800	-5.325740	-0.575865	0.144226	0.789854	-1.000000	-1.000000	-1.000000	-1.000000	-1.000000	-1.000000	-1.000000	66.000000	0.000000	-1.000000	-1.000000	290677.000000	1776576980.196674
30990.600000	-84130.065000	-8091.765000	8165.295000	785.970000	2067.705000	6400.080000	-29164.950000	-8.597737	-14.675051	-10.687041	-10.445798	-1.464307	16.965299	-2.977641	-4.430706	1.800680	0.457800	-5.325740	-0.575865	0.144226	0.789854	-1.000000	-1.000000	-1.000000	-1.000000	-1.000000	-1.000000	-1.000000	66.000000	0.000000	-1.000000	-1.000000	290678.000000	1776576980.200596
30994.290000	-84120.210000	-8076.150000	8189.100000	798.975000	2041.830000	6395.490000	-29163.555000	-6.993023	-6.318492	-7.015237	-5.936613	4.899435	13.933930	-4.776382	-2.172610	1.800680	0.457800	-5.325740	-0.575865	0.144226	0.789854	-1.000000	-1.000000	-1.000000	-1.000000	-1.000000	-1.000000	-1.000000	66.000000	0.000000	-1.000000	-1.000000	290679.000000	1776576980.200607
31009.095000	-84110.445000	-8079.390000	8161.965000	758.295000	2007.405000	6398.775000	-29151.135000	-2.041201	4.434532	0.162514	2.211862	9.543862	3.902569	-4.752993	1.351371	1.800680	0.457800	-5.325740	-0.575865	0.144226	0.789854	-1.000000	-1.000000	-1.000000	-1.000000	-1.000000	-1.000000	-1.000000	66.000000	0.000000	-1.000000	-1.000000	290680.000000	1776576980.208387
31001.625000	-84119.355000	-8091.090000	8146.755000	754.560000	1984.005000	6402.915000	-29155.950000	4.497707	13.204343	7.043023	8.082225	7.985619	-10.529726	-2.980801	5.261952	1.800680	0.457800	-5.325740	-0.575865	0.144226	0.789854	-1.000000	-1.000000	-1.000000	-1.000000	-1.000000	-1.000000	-1.000000	66.000000	0.000000	-1.000000	-1.000000	290681.000000	1776576980.208402
30987.180000	-84132.585000	-8098.920000	8149.545000	764.730000	2072.475000	6401.295000	-29169.855000	9.036790	15.827773	9.332728	7.313760	0.624318	-21.193626	-0.185600	7.513869	1.800680	0.457800	-5.325740	-0.575865	0.144226	0.789854	-1.000000	-1.000000	-1.000000	-1.000000	-1.000000	-1.000000	-1.000000	66.000000	0.000000	-1.000000	-1.000000	290682.000000	1776576980.213296
30985.155000	-84115.440000	-8088.750000	8166.915000	796.545000	2159.505000	6400.890000	-29168.910000	8.458384	11.305431	6.345746	2.434123	-5.638036	-16.295014	2.315803	6.096848	1.800680	0.457800	-5.325740	-0.575865	0.144226	0.789854	-1.000000	-1.000000	-1.000000	-1.000000	-1.000000	-1.000000	-1.000000	66.000000	0.000000	-1.000000	-1.000000	290683.000000	1776576980.213335
30988.305000	-84097.620000	-8072.730000	8189.460000	808.965000	2114.595000	6401.160000	-29164.545000	3.657024	3.866323	1.887573	-0.294724	-4.650183	4.940641	3.351083	1.920328	1.800680	0.457800	-5.325740	-0.575865	0.144226	0.789854	-1.000000	-1.000000	-1.000000	-1.000000	-1.000000	-1.000000	-1.000000	66.000000	0.000000	-1.000000	-1.000000	290684.000000	1776576980.213355
30992.445000	-84098.700000	-8066.565000	8198.730000	802.980000	2031.930000	6400.305000	-29167.380000	-1.225771	-1.133861	0.078576	2.029006	2.061929	23.056527	2.787933	-1.824248	1.800680	0.457800	-5.325740	-0.575865	0.144226	0.789854	-1.000000	-1.000000	-1.000000	-1.000000	-1.000000	-1.000000	-1.000000	66.000000	0.000000	-1.000000	-1.000000	290685.000000	1776576980.213361
30999.060000	-84105.855000	-8073.315000	8176.275000	769.860000	1993.230000	6381.585000	-29172.645000	-2.917334	-2.840567	1.021573	5.975789	6.693876	17.194963	1.011076	-3.260087	0.610400	0.457800	-5.081580	-0.574156	0.144043	0.790525	-1.000000	-1.000000	-1.000000	-1.000000	-1.000000	-1.000000	-1.000000	66.000000	0.000000	-1.000000	-1.000000	290686.000000	1776576980.216625
31001.490000	-84114.945000	-8084.700000	8160.795000	758.700000	1988.910000	6378.345000	-29172.195000	-1.275629	-4.032198	1.374376	5.333119	3.132110	-9.606630	-1.668218	-2.848757	0.610400	0.457800	-5.081580	-0.574156	0.144043	0.790525	-1.000000	-1.000000	-1.000000	-1.000000	-1.000000	-1.000000	-1.000000	66.000000	0.000000	-1.000000	-1.000000	290687.000000	1776576980.216639
30997.845000	-84120.300000	-8089.020000	8164.260000	762.435000	2014.920000	6384.060000	-29168.190000	1.378608	-6.407126	-1.277222	-1.660892	-6.392287	-33.514044	-3.953893	-1.551717	0.610400	0.457800	-5.081580	-0.574156	0.144043	0.790525	-1.000000	-1.000000	-1.000000	-1.000000	-1.000000	-1.000000	-1.000000	66.000000	0.000000	-1.000000	-1.000000	290688.000000	1776576980.220636
30997.170000	-84124.170000	-8095.680000	8156.880000	752.580000	2047.680000	6398.145000	-29160.045000	2.415774	-8.753207	-5.710088	-9.985235	-13.719240	-33.854698	-3.460213	0.292731	0.610400	0.457800	-5.081580	-0.574156	0.144043	0.790525	-1.000000	-1.000000	-1.000000	-1.000000	-1.000000	-1.000000	-1.000000	66.000000	0.000000	-1.000000	-1.000000	290689.000000	1776576980.220645
31009.590000	-84116.700000	-8094.330000	8156.070000	746.955000	2062.440000	6403.365000	-29149.875000	1.241261	-8.602266	-8.593570	-13.515917	-13.358278	-9.798950	0.692802	2.522335	0.610400	0.457800	-5.081580	-0.574156	0.144043	0.790525	-1.000000	-1.000000	-1.000000	-1.000000	-1.000000	-1.000000	-1.000000	66.000000	0.000000	-1.000000	-1.000000	290690.000000	1776576980.224696
31003.155000	-84118.140000	-8093.835000	8161.740000	752.670000	2047.320000	6397.020000	-29159.505000	-0.638575	-4.719129	-7.543344	-10.236070	-6.126117	21.369965	5.940979	4.209113	0.610400	0.457800	-5.081580	-0.574156	0.144043	0.790525	-1.000000	-1.000000	-1.000000	-1.000000	-1.000000	-1.000000	-1.000000	66.000000	0.000000	-1.000000	-1.000000	290691.000000	1776576980.224705
31003.380000	-84111.030000	-8079.615000	8181.405000	771.930000	2041.245000	6395.445000	-29163.105000	-2.027103	1.567560	-2.545868	-1.895248	4.151553	39.028908	8.126034	3.632258	0.610400	0.457800	-5.081580	-0.574156	0.144043	0.790525	-1.000000	-1.000000	-1.000000	-1.000000	-1.000000	-1.000000	-1.000000	66.000000	0.000000	-1.000000	-1.000000	290692.000000	1776576980.228780
31018.410000	-84087.540000	-8045.955000	8229.555000	816.660000	2042.325000	6391.395000	-29155.230000	-2.594677	7.720006	4.879987	8.645336	14.262650	34.521061	5.413516	0.418633	0.610400	0.457800	-5.081580	-0.574156	0.144043	0.790525	-1.000000	-1.000000	-1.000000	-1.000000	-1.000000	-1.000000	-1.000000	66.000000	0.000000	-1.000000	-1.000000	290693.000000	1776576980.228799
31031.055000	-84070.935000	-8033.805000	8230.275000	811.710000	2052.810000	6390.630000	-29150.820000	-1.639064	12.092373	12.460776	18.033200	21.444538	14.803457	-0.315955	-3.135832	0.610400	0.457800	-5.081580	-0.574156	0.144043	0.790525	-1.000000	-1.000000	-1.000000	-1.000000	-1.000000	-1.000000	-1.000000	66.000000	0.000000	-1.000000	-1.000000	290694.000000	1776576980.232606
30999.285000	-84111.525000	-8089.065000	8154.270000	742.590000	2056.590000	6397.290000	-29171.340000	0.276730	12.658213	15.472426	19.835750	20.364431	-6.280022	-5.380308	-4.887557	0.610400	0.457800	-5.081580	-0.574156	0.144043	0.790525	-1.000000	-1.000000	-1.000000	-1.000000	-1.000000	-1.000000	-1.000000	66.000000	0.000000	-1.000000	-1.000000	290695.000000	1776576980.232623
30987.360000	-84122.640000	-8094.150000	8159.535000	757.710000	2066.040000	6402.870000	-29177.820000	0.071722	6.434400	8.576498	8.144081	6.802147	-18.593035	-6.865312	-5.338759	0.564620	0.045780	-4.043900	-0.571227	0.140625	0.793638	-1.000000	-1.000000	-1.000000	-1.000000	-1.000000	-1.000000	-1.000000	66.000000	0.000000	-1.000000	-1.000000	290696.000000	1776576980.236764
30998.880000	-84110.265000	-8081.235000	8173.485000	762.300000	2050.650000	6397.560000	-29169.180000	-3.287317	-5.107854	-5.826203	-11.487863	-12.764294	-20.165205	-4.563959	-5.228769	0.564620	0.045780	-4.043900	-0.571227	0.140625	0.793638	-1.000000	-1.000000	-1.000000	-1.000000	-1.000000	-1.000000	-1.000000	66.000000	0.000000	-1.000000	-1.000000	290697.000000	1776576980.236774
31009.230000	-84099.375000	-8071.425000	8186.445000	773.820000	2050.245000	6399.495000	-29163.330000	-5.777303	-14.069774	-16.935712	-24.086734	-24.602758	-15.200508	-0.893416	-3.365125	0.564620	0.045780	-4.043900	-0.571227	0.140625	0.793638	-1.000000	-1.000000	-1.000000	-1.000000	-1.000000	-1.000000	-1.000000	66.000000	0.000000	-1.000000	-1.000000	290698.000000	1776576980.240694
31013.820000	-84095.955000	-8069.040000	8192.340000	775.260000	2059.830000	6404.535000	-29159.460000	-3.432092	-13.963400	-16.822960	-20.936263	-21.737084	-8.489461	1.724886	0.974484	0.564620	0.045780	-4.043900	-0.571227	0.140625	0.793638	-1.000000	-1.000000	-1.000000	-1.000000	-1.000000	-1.000000	-1.000000	66.000000	0.000000	-1.000000	-1.000000	290699.000000	1776576980.240703
31003.920000	-84110.040000	-8089.785000	8156.205000	740.430000	2057.670000	6400.440000	-29166.840000	2.419357	-6.297818	-7.707688	-7.023145	-9.143272	-2.058837	2.606176	5.768206	0.564620	0.045780	-4.043900	-0.571227	0.140625	0.793638	-1.000000	-1.000000	-1.000000	-1.000000	-1.000000	-1.000000	-1.000000	66.000000	0.000000	-1.000000	-1.000000	290700.000000	1776576980.244708
30994.245000	-84119.220000	-8093.970000	8158.545000	760.995000	2043.450000	6404.220000	-29174.940000	6.775246	1.995443	2.153173	5.872031	3.093855	2.977725	2.083823	7.706812	0.564620	0.045780	-4.043900	-0.571227	0.140625	0.793638	-1.000000	-1.000000	-1.000000	-1.000000	-1.000000	-1.000000	-1.000000	66.000000	0.000000	-1.000000	-1.000000	290701.000000	1776576980.244718
30995.955000	-84115.980000	-8086.365000	8174.565000	768.645000	2014.695000	6405.885000	-29174.175000	6.365788	5.740391	7.125640	11.141493	9.794849	4.628724	0.880294	5.401500	0.564620	0.045780	-4.043900	-0.571227	0.140625	0.793638	-1.000000	-1.000000	-1.000000	-1.000000	-1.000000	-1.000000	-1.000000	66.000000	0.000000	-1.000000	-1.000000	290702.000000	1776576980.248536
30998.025000	-84118.140000	-8094.780000	8162.730000	742.410000	2044.395000	6394.995000	-29171.835000	2.532297	5.131534	7.490040	10.655686	11.536450	2.719922	-0.356061	0.835230	0.564620	0.045780	-4.043900	-0.571227	0.140625	0.793638	-1.000000	-1.000000	-1.000000	-1.000000	-1.000000	-1.000000	-1.000000	66.000000	0.000000	-1.000000	-1.000000	290703.000000	1776576980.248544
30999.555000	-84120.750000	-8102.070000	8156.925000	743.580000	2078.910000	6392.745000	-29170.170000	-1.084413	3.062754	5.570387	7.812922	9.073886	1.685656	-1.630842	-2.661761	0.564620	0.045780	-4.043900	-0.571227	0.140625	0.793638	-1.000000	-1.000000	-1.000000	-1.000000	-1.000000	-1.000000	-1.000000	66.000000	0.000000	-1.000000	-1.000000	290704.000000	1776576980.252513
31004.145000	-84112.605000	-8095.095000	8161.920000	753.345000	2062.530000	6401.295000	-29165.670000	-2.223672	1.665970	2.944581	4.003770	3.880688	5.334617	-2.605700	-3.311923	0.564620	0.045780	-4.043900	-0.571227	0.140625	0.793638	-1.000000	-1.000000	-1.000000	-1.000000	-1.000000	-1.000000	-1.000000	66.000000	0.000000	-1.000000	-1.000000	290705.000000	1776576980.252521
31011.435000	-84100.770000	-8085.105000	8168.670000	752.445000	2047.680000	6404.760000	-29160.630000	-0.944620	1.850344	1.200835	0.664127	-0.446856	9.872955	-2.056444	-1.550435	0.366240	-1.556520	-1.968540	-0.569396	0.136535	0.794859	-1.000000	-1.000000	-1.000000	-1.000000	-1.000000	-1.000000	-1.000000	66.000000	0.000000	-1.000000	-1.000000	290706.000000	1776576980.256773
31007.070000	-84102.030000	-8085.870000	8171.055000	751.635000	2040.480000	6402.195000	-29169.090000	1.214823	3.294389	1.348124	-0.783972	-1.807627	8.575144	0.247299	0.790002	0.366240	-1.556520	-1.968540	-0.569396	0.136535	0.794859	-1.000000	-1.000000	-1.000000	-1.000000	-1.000000	-1.000000	-1.000000	66.000000	0.000000	-1.000000	-1.000000	290707.000000	1776576980.256787
30999.285000	-84108.240000	-8090.145000	8168.355000	748.980000	2051.145000	6400.755000	-29181.780000	2.113004	4.062711	2.244956	-0.633258	-1.242132	1.100158	2.609721	1.426387	0.366240	-1.556520	-1.968540	-0.569396	0.136535	0.794859	-1.000000	-1.000000	-1.000000	-1.000000	-1.000000	-1.000000	-1.000000	66.000000	0.000000	-1.000000	-1.000000	290708.000000	1776576980.260922
30991.230000	-84114.180000	-8092.170000	8172.495000	767.655000	2074.500000	6402.645000	-29194.515000	0.421451	2.134330	1.760054	-0.396464	-0.307176	-6.204250	3.299303	-0.795458	0.366240	-1.556520	-1.968540	-0.569396	0.136535	0.794859	-1.000000	-1.000000	-1.000000	-1.000000	-1.000000	-1.000000	-1.000000	66.000000	0.000000	-1.000000	-1.000000	290709.000000	1776576980.260934
31000.230000	-84104.055000	-8083.215000	8181.270000	761.220000	2065.275000	6403.230000	-29191.815000	-2.795501	-1.998328	-0.481487	-0.766319	0.622839	-7.745255	2.237778	-4.391778	0.366240	-1.556520	-1.968540	-0.569396	0.136535	0.794859	-1.000000	-1.000000	-1.000000	-1.000000	-1.000000	-1.000000	-1.000000	66.000000	0.000000	-1.000000	-1.000000	290710.000000	1776576980.264664
31000.230000	-84098.880000	-8082.045000	8176.320000	747.585000	2074.950000	6404.625000	-29194.830000	-4.665642	-5.296134	-2.724751	-1.305390	0.809827	-4.164258	0.512506	-6.107847	0.366240	-1.556520	-1.968540	-0.569396	0.136535	0.794859	-1.000000	-1.000000	-1.000000	-1.000000	-1.000000	-1.000000	-1.000000	66.000000	0.000000	-1.000000	-1.000000	290711.000000	1776576980.264675
31002.120000	-84099.150000	-8080.920000	8175.195000	752.265000	2106.180000	6404.310000	-29186.955000	-3.473627	-5.408512	-3.438694	-1.887112	-0.919293	0.733024	-0.866285	-3.887343	0.366240	-1.556520	-1.968540	-0.569396	0.136535	0.794859	-1.000000	-1.000000	-1.000000	-1.000000	-1.000000	-1.000000	-1.000000	66.000000	0.000000	-1.000000	-1.000000	290712.000000	1776576980.268708
31008.060000	-84102.660000	-8088.345000	8163.495000	738.450000	2127.510000	6405.480000	-29169.900000	-0.141361	-3.053719	-2.918445	-2.917262	-3.872277	5.108193	-1.501822	1.695910	0.366240	-1.556520	-1.968540	-0.569396	0.136535	0.794859	-1.000000	-1.000000	-1.000000	-1.000000	-1.000000	-1.000000	-1.000000	66.000000	0.000000	-1.000000	-1.000000	290713.000000	1776576980.268717
31008.960000	-84108.780000	-8095.545000	8157.375000	731.385000	2067.930000	6404.805000	-29161.035000	3.228746	-0.709988	-2.488810	-4.396957	-6.120608	6.831458	-1.483697	8.249927	0.366240	-1.556520	-1.968540	-0.569396	0.136535	0.794859	-1.000000	-1.000000	-1.000000	-1.000000	-1.000000	-1.000000	-1.000000	66.000000	0.000000	-1.000000	-1.000000	290714.000000	1776576980.272644
31014.090000	-84103.380000	-8089.470000	8163.495000	732.645000	2002.725000	6400.935000	-29160.405000	4.954565	0.150625	-2.641412	-5.261976	-6.321913	0.721550	-1.181962	12.380198	0.366240	-1.556520	-1.968540	-0.569396	0.136535	0.794859	-1.000000	-1.000000	-1.000000	-1.000000	-1.000000	-1.000000	-1.000000	66.000000	0.000000	-1.000000	-1.000000	290715.000000	1776576980.272657
31010.850000	-84101.445000	-8086.455000	8166.465000	729.000000	2021.310000	6393.105000	-29174.040000	4.376398	0.142420	-2.283178	-3.844192	-3.898892	-13.534351	-1.123737	10.957434	0.473060	-2.945180	0.747740	-0.567931	0.133545	0.796507	-1.000000	-1.000000	-1.000000	-1.000000	-1.000000	-1.000000	-1.000000	66.000000	0.000000	-1.000000	-1.000000	290716.000000	1776576980.276752
31005.270000	-84100.050000	-8078.580000	8183.070000	740.025000	1994.085000	6397.740000	-29183.805000	1.755644	0.514109	-0.283749	0.418279	0.663454	-25.280265	-1.425888	3.390890	0.473060	-2.945180	0.747740	-0.567931	0.133545	0.796507	-1.000000	-1.000000	-1.000000	-1.000000	-1.000000	-1.000000	-1.000000	66.000000	0.000000	-1.000000	-1.000000	290717.000000	1776576980.276772
31001.760000	-84104.595000	-8082.225000	8188.920000	750.285000	2003.130000	6390.855000	-29191.500000	-1.959736	1.345509	2.756806	6.055959	5.961475	-23.463754	-1.450988	-7.059774	0.473060	-2.945180	0.747740	-0.567931	0.133545	0.796507	-1.000000	-1.000000	-1.000000	-1.000000	-1.000000	-1.000000	-1.000000	66.000000	0.000000	-1.000000	-1.000000	290718.000000	1776576980.282115
31001.895000	-84112.155000	-8098.155000	8163.495000	732.330000	2017.170000	6384.105000	-29189.655000	-5.117203	1.612970	4.534232	9.642327	9.746663	-7.482987	-0.846882	-14.815667	0.473060	-2.945180	0.747740	-0.567931	0.133545	0.796507	-1.000000	-1.000000	-1.000000	-1.000000	-1.000000	-1.000000	-1.000000	66.000000	0.000000	-1.000000	-1.000000	290719.000000	1776576980.282129
31006.170000	-84109.005000	-8096.175000	8162.235000	733.230000	2083.005000	6397.425000	-29180.520000	-5.949256	0.705955	3.153545	7.665021	9.311208	15.613507	0.195379	-15.467301	0.473060	-2.945180	0.747740	-0.567931	0.133545	0.796507	-1.000000	-1.000000	-1.000000	-1.000000	-1.000000	-1.000000	-1.000000	66.000000	0.000000	-1.000000	-1.000000	290720.000000	1776576980.284715
31015.260000	-84090.735000	-8086.320000	8174.070000	742.635000	2098.530000	6403.770000	-29164.365000	-3.686258	-0.224681	-0.177944	0.948969	4.525929	36.681817	1.970604	-8.386652	0.473060	-2.945180	0.747740	-0.567931	0.133545	0.796507	-1.000000	-1.000000	-1.000000	-1.000000	-1.000000	-1.000000	-1.000000	66.000000	0.000000	-1.000000	-1.000000	290721.000000	1776576980.284727
31026.960000	-84083.130000	-8077.455000	8180.730000	742.500000	2056.770000	6411.780000	-29152.305000	0.895597	0.717385	-2.016284	-5.050890	-1.163002	45.085516	4.495493	2.987957	0.473060	-2.945180	0.747740	-0.567931	0.133545	0.796507	-1.000000	-1.000000	-1.000000	-1.000000	-1.000000	-1.000000	-1.000000	66.000000	0.000000	-1.000000	-1.000000	290722.000000	1776576980.288758
31027.545000	-84089.385000	-8081.010000	8179.605000	738.180000	2015.145000	6415.830000	-29150.145000	5.617082	3.164205	-0.802634	-6.253193	-4.660138	32.103635	6.405563	12.851433	0.473060	-2.945180	0.747740	-0.567931	0.133545	0.796507	-1.000000	-1.000000	-1.000000	-1.000000	-1.000000	-1.000000	-1.000000	66.000000	0.000000	-1.000000	-1.000000	290723.000000	1776576980.288772
31021.605000	-84094.920000	-8088.885000	8167.770000	720.045000	2021.310000	6416.685000	-29155.140000	7.622371	4.133348	1.421101	-3.733463	-5.962545	1.104988	6.000576	15.989174	0.473060	-2.945180	0.747740	-0.567931	0.133545	0.796507	-1.000000	-1.000000	-1.000000	-1.000000	-1.000000	-1.000000	-1.000000	66.000000	0.000000	-1.000000	-1.000000	290724.000000	1776576980.292953
31015.665000	-84101.445000	-8095.995000	8157.375000	713.835000	2054.430000	6418.755000	-29159.370000	5.162411	1.548760	1.669401	-1.321766	-6.590370	-29.715220	2.803926	10.832530	0.473060	-2.945180	0.747740	-0.567931	0.133545	0.796507	-1.000000	-1.000000	-1.000000	-1.000000	-1.000000	-1.000000	-1.000000	66.000000	0.000000	-1.000000	-1.000000	290725.000000	1776576980.292966
31016.385000	-84103.515000	-8097.435000	8155.980000	725.490000	2079.495000	6423.210000	-29156.085000	-0.588964	-3.332930	-0.651930	-1.163862	-6.528378	-41.122758	-1.872439	0.623756	4.242280	-3.250380	5.417300	-0.564879	0.129516	0.800718	-1.000000	-1.000000	-1.000000	-1.000000	-1.000000	-1.000000	-1.000000	66.000000	0.000000	-1.000000	-1.000000	290726.000000	1776576980.296667
31018.365000	-84099.420000	-8086.815000	8180.055000	760.005000	2094.660000	6423.435000	-29156.265000	-6.028994	-7.134318	-3.239405	-1.645881	-3.447515	-28.833215	-5.788007	-8.749007	4.242280	-3.250380	5.417300	-0.564879	0.129516	0.800718	-1.000000	-1.000000	-1.000000	-1.000000	-1.000000	-1.000000	-1.000000	66.000000	0.000000	-1.000000	-1.000000	290727.000000	1776576980.296680
31013.685000	-84100.365000	-8085.105000	8188.380000	765.495000	2081.385000	6418.800000	-29164.050000	-8.032994	-7.201989	-3.322622	0.354742	3.847088	-5.077387	-7.514674	-12.979432	4.242280	-3.250380	5.417300	-0.564879	0.129516	0.800718	-1.000000	-1.000000	-1.000000	-1.000000	-1.000000	-1.000000	-1.000000	66.000000	0.000000	-1.000000	-1.000000	290728.000000	1776576980.300662
31012.920000	-84098.745000	-8086.455000	8176.455000	733.545000	2060.145000	6408.495000	-29170.080000	-6.229221	-3.602690	-0.633659	4.678345	11.089579	12.843548	-7.278982	-11.730385	4.242280	-3.250380	5.417300	-0.564879	0.129516	0.800718	-1.000000	-1.000000	-1.000000	-1.000000	-1.000000	-1.000000	-1.000000	66.000000	0.000000	-1.000000	-1.000000	290729.000000	1776576980.300677
31031.415000	-84074.985000	-8060.265000	8204.580000	742.230000	2038.230000	6398.820000	-29160.765000	-2.027056	1.750201	2.941484	7.732337	11.435991	15.206702	-6.156763	-7.002757	4.242280	-3.250380	5.417300	-0.564879	0.129516	0.800718	-1.000000	-1.000000	-1.000000	-1.000000	-1.000000	-1.000000	-1.000000	66.000000	0.000000	-1.000000	-1.000000	290730.000000	1776576980.304693
31034.925000	-84064.365000	-8044.155000	8230.320000	750.645000	2008.620000	6398.820000	-29161.440000	3.170271	7.115878	6.141124	7.959473	4.197113	4.413741	-4.603822	-0.726690	4.242280	-3.250380	5.417300	-0.564879	0.129516	0.800718	-1.000000	-1.000000	-1.000000	-1.000000	-1.000000	-1.000000	-1.000000	66.000000	0.000000	-1.000000	-1.000000	290731.000000	1776576980.304707
31009.230000	-84096.270000	-8091.540000	8157.780000	691.560000	1987.560000	6399.810000	-29181.780000	6.988269	9.988964	7.224147	5.315296	-5.404928	-9.769199	-2.018897	4.826666	4.242280	-3.250380	5.417300	-0.564879	0.129516	0.800718	-1.000000	-1.000000	-1.000000	-1.000000	-1.000000	-1.000000	-1.000000	66.000000	0.000000	-1.000000	-1.000000	290732.000000	1776576980.311015
31002.705000	-84108.285000	-8109.045000	8130.420000	681.795000	2002.770000	6398.055000	-29185.020000	6.185452	6.860842	2.622194	-2.798793	-13.730619	-17.194769	1.913364	6.931387	4.242280	-3.250380	5.417300	-0.564879	0.129516	0.800718	-1.000000	-1.000000	-1.000000	-1.000000	-1.000000	-1.000000	-1.000000	66.000000	0.000000	-1.000000	-1.000000	290733.000000	1776576980.311033
31004.100000	-84108.915000	-8105.130000	8148.915000	714.240000	2029.140000	6404.895000	-29179.395000	0.823224	-1.946323	-7.252228	-15.094564	-17.570723	-11.855906	6.153656	5.316831	4.242280	-3.250380	5.417300	-0.564879	0.129516	0.800718	-1.000000	-1.000000	-1.000000	-1.000000	-1.000000	-1.000000	-1.000000	66.000000	0.000000	-1.000000	-1.000000	290734.000000	1776576980.312692
31010.580000	-84084.840000	-8088.390000	8166.105000	730.260000	2058.030000	6411.780000	-29165.625000	-4.518960	-9.972321	-14.802158	-21.637662	-11.956106	4.907260	9.186493	3.062893	4.242280	-3.250380	5.417300	-0.564879	0.129516	0.800718	-1.000000	-1.000000	-1.000000	-1.000000	-1.000000	-1.000000	-1.000000	66.000000	0.000000	-1.000000	-1.000000	290735.000000	1776576980.312701
30999.735000	-84088.980000	-8091.720000	8169.930000	754.155000	2148.615000	6424.920000	-29172.420000	-5.729432	-10.651566	-13.019397	-14.643372	3.065090	25.489550	10.175636	2.798606	-1.022420	-1.388660	5.768280	-0.563292	0.129394	0.800535	-1.000000	-1.000000	-1.000000	-1.000000	-1.000000	-1.000000	-1.000000	66.000000	0.000000	-1.000000	-1.000000	290736.000000	1776576980.316717
31006.215000	-84097.710000	-8084.520000	8190.585000	773.685000	2155.905000	6426.810000	-29172.780000	-2.929365	-4.342400	-3.003491	2.263483	19.616877	40.614734	8.923048	3.670004	-1.022420	-1.388660	5.768280	-0.563292	0.129394	0.800535	-1.000000	-1.000000	-1.000000	-1.000000	-1.000000	-1.000000	-1.000000	66.000000	0.000000	-1.000000	-1.000000	290737.000000	1776576980.316725
31019.940000	-84085.875000	-8075.745000	8192.610000	757.260000	2090.160000	6416.730000	-29161.845000	1.534454	3.121908	8.436062	18.646153	27.830123	39.899881	5.169332	3.481281	-1.022420	-1.388660	5.768280	-0.563292	0.129394	0.800535	-1.000000	-1.000000	-1.000000	-1.000000	-1.000000	-1.000000	-1.000000	66.000000	0.000000	-1.000000	-1.000000	290738.000000	1776576980.320688
31009.095000	-84095.865000	-8089.200000	8174.385000	735.705000	2065.905000	6412.545000	-29171.205000	5.528506	7.158236	14.955008	25.288646	21.777702	16.366750	-1.064924	1.712467	-1.022420	-1.388660	5.768280	-0.563292	0.129394	0.800535	-1.000000	-1.000000	-1.000000	-1.000000	-1.000000	-1.000000	-1.000000	66.000000	0.000000	-1.000000	-1.000000	290739.000000	1776576980.320702
31004.100000	-84098.520000	-8095.545000	8159.490000	708.705000	2043.360000	6404.445000	-29177.145000	6.801838	6.693904	13.532361	18.598521	3.147917	-21.932219	-8.094101	-1.168799	-1.022420	-1.388660	5.768280	-0.563292	0.129394	0.800535	-1.000000	-1.000000	-1.000000	-1.000000	-1.000000	-1.000000	-1.000000	66.000000	0.000000	-1.000000	-1.000000	290740.000000	1776576980.324653
31006.125000	-84094.155000	-8092.845000	8160.120000	702.585000	2025.045000	6399.945000	-29178.630000	4.229433	3.064885	5.644114	2.743633	-18.628864	-53.837182	-12.895567	-4.492935	-1.022420	-1.388660	5.768280	-0.563292	0.129394	0.800535	-1.000000	-1.000000	-1.000000	-1.000000	-1.000000	-1.000000	-1.000000	66.000000	0.000000	-1.000000	-1.000000	290741.000000	1776576980.324670
31002.705000	-84091.995000	-8084.655000	8177.310000	722.205000	2041.470000	6407.190000	-29180.970000	-0.421504	-0.848837	-3.289571	-12.307824	-31.301387	-61.557927	-13.007096	-6.783490	-1.022420	-1.388660	5.768280	-0.563292	0.129394	0.800535	-1.000000	-1.000000	-1.000000	-1.000000	-1.000000	-1.000000	-1.000000	66.000000	0.000000	-1.000000	-1.000000	290742.000000	1776576980.328674
31010.580000	-84082.365000	-8080.065000	8167.590000	700.290000	2077.875000	6406.245000	-29174.265000	-4.077310	-2.559707	-7.964919	-18.081970	-27.951105	-41.142306	-7.972370	-6.491203	-1.022420	-1.388660	5.768280	-0.563292	0.129394	0.800535	-1.000000	-1.000000	-1.000000	-1.000000	-1.000000	-1.000000	-1.000000	66.000000	0.000000	-1.000000	-1.000000	290743.000000	1776576980.328690
31005.180000	-84085.740000	-8080.245000	8168.445000	707.805000	2133.720000	6412.005000	-29179.260000	-4.913139	-1.708751	-7.088392	-13.894199	-12.257147	-2.044246	0.045753	-3.438184	-1.022420	-1.388660	5.768280	-0.563292	0.129394	0.800535	-1.000000	-1.000000	-1.000000	-1.000000	-1.000000	-1.000000	-1.000000	66.000000	0.000000	-1.000000	-1.000000	290744.000000	1776576980.332650
31003.380000	-84089.790000	-8080.155000	8182.035000	729.855000	2128.545000	6417.495000	-29177.280000	-3.392939	-0.040642	-3.248804	-4.887476	6.326324	37.581566	7.459256	0.762438	-1.022420	-1.388660	5.768280	-0.563292	0.129394	0.800535	-1.000000	-1.000000	-1.000000	-1.000000	-1.000000	-1.000000	-1.000000	66.000000	0.000000	-1.000000	-1.000000	290745.000000	1776576980.332660
31015.305000	-84083.445000	-8075.475000	8193.195000	742.545000	2027.115000	6418.080000	-29165.220000	-1.060620	0.520974	0.254209	4.018713	20.578851	56.572122	11.407718	4.176859	-3.418240	-0.457800	6.180300	-0.565367	0.135009	0.800230	-1.000000	-1.000000	-1.000000	-1.000000	-1.000000	-1.000000	-1.000000	66.000000	0.000000	-1.000000	-1.000000	290746.000000	1776576980.336823
31008.150000	-84094.200000	-8093.610000	8166.510000	711.090000	1983.735000	6417.900000	-29170.170000	1.129494	-0.311205	1.549903	9.407915	26.040462	41.948661	10.742903	5.946758	-3.418240	-0.457800	6.180300	-0.565367	0.135009	0.800230	-1.000000	-1.000000	-1.000000	-1.000000	-1.000000	-1.000000	-1.000000	66.000000	0.000000	-1.000000	-1.000000	290747.000000	1776576980.336836
30992.850000	-84109.995000	-8111.340000	8147.745000	691.785000	2052.315000	6412.995000	-29186.145000	2.118688	-2.074727	-0.086442	8.335976	19.812003	4.328419	6.123877	5.333770	-3.418240	-0.457800	6.180300	-0.565367	0.135009	0.800230	-1.000000	-1.000000	-1.000000	-1.000000	-1.000000	-1.000000	-1.000000	66.000000	0.000000	-1.000000	-1.000000	290748.000000	1776576980.340633
31005.405000	-84095.865000	-8097.615000	8163.585000	703.350000	2022.660000	6399.270000	-29182.005000	1.046325	-3.993001	-3.513129	1.437399	4.556544	-27.127277	-0.531387	1.860402	-3.418240	-0.457800	6.180300	-0.565367	0.135009	0.800230	-1.000000	-1.000000	-1.000000	-1.000000	-1.000000	-1.000000	-1.000000	66.000000	0.000000	-1.000000	-1.000000	290749.000000	1776576980.340649
31016.070000	-84088.350000	-8092.485000	8165.970000	702.270000	2016.945000	6398.370000	-29176.740000	-0.524365	-3.957836	-5.039557	-5.317044	-10.395691	-33.693962	-6.811951	-2.558282	-3.418240	-0.457800	6.180300	-0.565367	0.135009	0.800230	-1.000000	-1.000000	-1.000000	-1.000000	-1.000000	-1.000000	-1.000000	66.000000	0.000000	-1.000000	-1.000000	290750.000000	1776576980.344707
31011.255000	-84090.015000	-8096.220000	8156.835000	697.680000	2075.670000	6408.360000	-29182.365000	-0.292943	-0.648704	-2.174975	-6.673274	-16.788740	-18.880364	-9.948221	-4.808090	-3.418240	-0.457800	6.180300	-0.565367	0.135009	0.800230	-1.000000	-1.000000	-1.000000	-1.000000	-1.000000	-1.000000	-1.000000	66.000000	0.000000	-1.000000	-1.000000	290751.000000	1776576980.344724
31008.555000	-84084.795000	-8086.005000	8172.225000	717.390000	2111.085000	6418.710000	-29183.445000	1.215890	3.989472	3.271289	-2.998462	-13.425161	5.418455	-7.842824	-4.044708	-3.418240	-0.457800	6.180300	-0.565367	0.135009	0.800230	-1.000000	-1.000000	-1.000000	-1.000000	-1.000000	-1.000000	-1.000000	66.000000	0.000000	-1.000000	-1.000000	290752.000000	1776576980.348578
31002.300000	-84084.930000	-8078.580000	8191.890000	740.385000	2118.105000	6421.050000	-29184.030000	1.684853	6.796052	7.845506	2.789882	-3.753933	27.056608	-1.341015	-1.730438	-3.418240	-0.457800	6.180300	-0.565367	0.135009	0.800230	-1.000000	-1.000000	-1.000000	-1.000000	-1.000000	-1.000000	-1.000000	66.000000	0.000000	-1.000000	-1.000000	290753.000000	1776576980.348585
31006.260000	-84080.565000	-8071.155000	8205.120000	760.545000	2097.900000	6424.785000	-29174.895000	0.282232	6.327051	9.524084	8.362100	7.504243	34.292529	5.607659	0.729425	-3.418240	-0.457800	6.180300	-0.565367	0.135009	0.800230	-1.000000	-1.000000	-1.000000	-1.000000	-1.000000	-1.000000	-1.000000	66.000000	0.000000	-1.000000	-1.000000	290754.000000	1776576980.352737
31011.705000	-84083.940000	-8082.630000	8182.080000	733.995000	2084.985000	6422.625000	-29162.970000	-1.537591	3.210860	7.603600	10.820592	14.590408	21.879228	8.918317	3.009066	-3.418240	-0.457800	6.180300	-0.565367	0.135009	0.800230	-1.000000	-1.000000	-1.000000	-1.000000	-1.000000	-1.000000	-1.000000	66.000000	0.000000	-1.000000	-1.000000	290755.000000	1776576980.352750
30994.290000	-84108.105000	-8116.065000	8138.745000	691.110000	2135.160000	6421.275000	-29173.005000	-2.247785	-1.352826	1.704848	6.392260	11.726023	-2.539729	7.139006	4.736911	-0.274680	-0.122080	8.209880	-0.563780	0.134338	0.801206	-1.000000	-1.000000	-1.000000	-1.000000	-1.000000	-1.000000	-1.000000	66.000000	0.000000	-1.000000	-1.000000	290756.000000	1776576980.356682
31002.480000	-84094.875000	-8100.450000	8163.765000	702.540000	2075.535000	6428.385000	-29168.685000	-2.046877	-6.096958	-6.846638	-4.719091	-1.322874	-23.861047	1.985664	4.587011	-0.274680	-0.122080	8.209880	-0.563780	0.134338	0.801206	-1.000000	-1.000000	-1.000000	-1.000000	-1.000000	-1.000000	-1.000000	66.000000	0.000000	-1.000000	-1.000000	290757.000000	1776576980.356700
31007.430000	-84088.845000	-8093.430000	8176.770000	693.315000	2008.530000	6422.850000	-29171.655000	-1.285625	-8.409016	-12.966268	-14.556670	-15.741237	-34.637865	-3.227836	1.948758	-0.274680	-0.122080	8.209880	-0.563780	0.134338	0.801206	-1.000000	-1.000000	-1.000000	-1.000000	-1.000000	-1.000000	-1.000000	66.000000	0.000000	-1.000000	-1.000000	290758.000000	1776576980.360611
31007.520000	-84087.945000	-8093.790000	8168.400000	696.330000	2040.255000	6413.895000	-29177.235000	0.384010	-6.043401	-11.752138	-14.872688	-21.108227	-36.288468	-6.343243	-1.936969	-0.274680	-0.122080	8.209880	-0.563780	0.134338	0.801206	-1.000000	-1.000000	-1.000000	-1.000000	-1.000000	-1.000000	-1.000000	66.000000	0.000000	-1.000000	-1.000000	290759.000000	1776576980.360630
31007.295000	-84088.620000	-8093.880000	8163.045000	696.015000	2079.045000	6411.330000	-29179.575000	2.391192	-0.414481	-4.218594	-6.597946	-14.636800	-27.018104	-7.226647	-5.253332	-0.274680	-0.122080	8.209880	-0.563780	0.134338	0.801206	-1.000000	-1.000000	-1.000000	-1.000000	-1.000000	-1.000000	-1.000000	66.000000	0.000000	-1.000000	-1.000000	290760.000000	1776576980.364466
31008.645000	-84088.035000	-8093.790000	8166.105000	693.450000	2088.675000	6411.555000	-29180.970000	3.377026	4.667870	4.240842	3.089527	-1.347352	-4.525526	-6.184358	-6.601447	-0.274680	-0.122080	8.209880	-0.563780	0.134338	0.801206	-1.000000	-1.000000	-1.000000	-1.000000	-1.000000	-1.000000	-1.000000	66.000000	0.000000	-1.000000	-1.000000	290761.000000	1776576980.364478
31014.270000	-84080.205000	-8085.420000	8177.760000	705.510000	2078.955000	6419.970000	-29177.955000	2.848797	6.698874	9.205263	9.093890	11.269515	22.620458	-3.156938	-5.324626	-0.274680	-0.122080	8.209880	-0.563780	0.134338	0.801206	-1.000000	-1.000000	-1.000000	-1.000000	-1.000000	-1.000000	-1.000000	66.000000	0.000000	-1.000000	-1.000000	290762.000000	1776576980.368575
31025.835000	-84068.010000	-8074.215000	8187.525000	715.500000	2076.570000	6421.050000	-29166.210000	1.650518	5.969297	9.802973	10.841094	18.285168	39.139734	1.412223	-1.681507	-0.274680	-0.122080	8.209880	-0.563780	0.134338	0.801206	-1.000000	-1.000000	-1.000000	-1.000000	-1.000000	-1.000000	-1.000000	66.000000	0.000000	-1.000000	-1.000000	290763.000000	1776576980.368596
31022.415000	-84077.505000	-8082.720000	8185.725000	719.820000	2100.960000	6420.510000	-29163.870000	0.775125	3.910253	7.335294	9.539242	18.588531	37.289594	5.771618	3.134791	-0.274680	-0.122080	8.209880	-0.563780	0.134338	0.801206	-1.000000	-1.000000	-1.000000	-1.000000	-1.000000	-1.000000	-1.000000	66.000000	0.000000	-1.000000	-1.000000	290764.000000	1776576980.372515
31016.250000	-84085.200000	-8098.020000	8163.180000	701.595000	2090.205000	6422.625000	-29163.870000	-0.105006	0.825388	2.625517	5.441800	12.858535	21.730041	7.736375	6.919817	-0.274680	-0.122080	8.209880	-0.563780	0.134338	0.801206	-1.000000	-1.000000	-1.000000	-1.000000	-1.000000	-1.000000	-1.000000	66.000000	0.000000	-1.000000	-1.000000	290765.000000	1776576980.372548
31008.375000	-84088.170000	-8099.595000	8160.795000	696.690000	2082.735000	6417.990000	-29171.925000	-2.024636	-3.324631	-3.667245	-1.439708	2.630182	1.921793	6.424705	7.359278	3.891300	2.441600	7.248500	-0.558104	0.129333	0.803037	-1.000000	-1.000000	-1.000000	-1.000000	-1.000000	-1.000000	-1.000000	66.000000	0.000000	-1.000000	-1.000000	290766.000000	1776576980.376568
31003.335000	-84088.980000	-8097.255000	8164.710000	688.635000	2055.825000	6417.675000	-29178.090000	-4.804671	-7.002564	-9.012320	-8.551682	-8.606871	-15.180588	2.680610	3.794952	3.891300	2.441600	7.248500	-0.558104	0.129333	0.803037	-1.000000	-1.000000	-1.000000	-1.000000	-1.000000	-1.000000	-1.000000	66.000000	0.000000	-1.000000	-1.000000	290767.000000	1776576980.376575
30995.190000	-84090.240000	-8091.630000	8178.795000	714.870000	2060.460000	6424.380000	-29186.010000	-6.853837	-7.998018	-10.102396	-11.336469	-15.548892	-25.534629	-1.471775	-2.025835	3.891300	2.441600	7.248500	-0.558104	0.129333	0.803037	-1.000000	-1.000000	-1.000000	-1.000000	-1.000000	-1.000000	-1.000000	66.000000	0.000000	-1.000000	-1.000000	290768.000000	1776576980.380562
30994.515000	-84087.045000	-8085.240000	8188.695000	724.770000	2089.665000	6424.695000	-29188.440000	-6.617078	-5.541962	-5.989594	-7.446073	-14.097952	-25.937729	-3.867658	-6.979623	3.891300	2.441600	7.248500	-0.558104	0.129333	0.803037	-1.000000	-1.000000	-1.000000	-1.000000	-1.000000	-1.000000	-1.000000	66.000000	0.000000	-1.000000	-1.000000	290769.000000	1776576980.380579
30998.295000	-84086.595000	-8086.230000	8189.910000	714.600000	2080.710000	6422.625000	-29187.495000	-3.561720	-0.800184	0.911729	0.690197	-5.568555	-15.623672	-3.845090	-8.414635	3.891300	2.441600	7.248500	-0.558104	0.129333	0.803037	-1.000000	-1.000000	-1.000000	-1.000000	-1.000000	-1.000000	-1.000000	66.000000	0.000000	-1.000000	-1.000000	290770.000000	1776576980.384773
31003.290000	-84089.745000	-8098.020000	8167.545000	695.970000	2081.880000	6415.155000	-29187.495000	1.603153	3.903068	6.359514	7.259023	3.086672	-0.042628	-2.636945	-5.627100	3.891300	2.441600	7.248500	-0.558104	0.129333	0.803037	-1.000000	-1.000000	-1.000000	-1.000000	-1.000000	-1.000000	-1.000000	66.000000	0.000000	-1.000000	-1.000000	290771.000000	1776576980.384787
31005.180000	-84084.930000	-8092.440000	8173.710000	703.395000	2077.785000	6412.005000	-29188.170000	6.936139	6.468362	7.310737	7.634715	5.836804	12.015887	-1.814773	-0.258106	3.891300	2.441600	7.248500	-0.558104	0.129333	0.803037	-1.000000	-1.000000	-1.000000	-1.000000	-1.000000	-1.000000	-1.000000	66.000000	0.000000	-1.000000	-1.000000	290772.000000	1776576980.392944
31006.665000	-84078.945000	-8090.640000	8168.310000	689.670000	2043.180000	6409.755000	-29185.830000	10.001508	6.443796	4.402323	2.597344	2.975359	14.945269	-1.725844	4.866969	3.891300	2.441600	7.248500	-0.558104	0.129333	0.803037	-1.000000	-1.000000	-1.000000	-1.000000	-1.000000	-1.000000	-1.000000	66.000000	0.000000	-1.000000	-1.000000	290773.000000	1776576980.392957
31011.345000	-84070.890000	-8083.305000	8175.330000	695.025000	2038.770000	6411.555000	-29178.720000	9.407108	4.923392	0.805976	-3.029263	-1.249950	8.678044	-1.508695	7.702136	3.891300	2.441600	7.248500	-0.558104	0.129333	0.803037	-1.000000	-1.000000	-1.000000	-1.000000	-1.000000	-1.000000	-1.000000	66.000000	0.000000	-1.000000	-1.000000	290774.000000	1776576980.392971
31010.760000	-84050.820000	-8072.505000	8183.925000	708.255000	2069.910000	6413.985000	-29168.370000	5.674317	3.355854	-0.903661	-5.108059	-2.948115	-0.801096	-0.281290	7.970185	3.891300	2.441600	7.248500	-0.558104	0.129333	0.803037	-1.000000	-1.000000	-1.000000	-1.000000	-1.000000	-1.000000	-1.000000	66.000000	0.000000	-1.000000	-1.000000	290775.000000	1776576980.392976
31009.095000	-84043.080000	-8069.355000	8187.390000	712.395000	2100.420000	6418.485000	-29161.890000	0.504828	2.583306	-0.309791	-2.787777	-0.563702	-4.532980	1.926686	6.479398	4.944240	2.227960	6.027700	-0.555541	0.132995	0.804808	-1.000000	-1.000000	-1.000000	-1.000000	-1.000000	-1.000000	-1.000000	66.000000	0.000000	-1.000000	-1.000000	290776.000000	1776576980.400491
31004.685000	-84069.990000	-8079.615000	8185.860000	706.635000	2143.935000	6431.670000	-29171.205000	-4.363577	1.463105	0.818253	1.517680	3.929101	1.535352	4.353418	3.655595	4.944240	2.227960	6.027700	-0.555541	0.132995	0.804808	-1.000000	-1.000000	-1.000000	-1.000000	-1.000000	-1.000000	-1.000000	66.000000	0.000000	-1.000000	-1.000000	290777.000000	1776576980.400514
31005.090000	-84081.015000	-8086.365000	8187.615000	712.305000	2112.660000	6433.470000	-29172.420000	-7.556148	-2.579803	0.042385	4.338571	6.627247	11.854054	6.061978	-0.675401	4.944240	2.227960	6.027700	-0.555541	0.132995	0.804808	-1.000000	-1.000000	-1.000000	-1.000000	-1.000000	-1.000000	-1.000000	66.000000	0.000000	-1.000000	-1.000000	290778.000000	1776576980.400640
31011.435000	-84077.820000	-8084.745000	8188.560000	709.875000	2028.330000	6429.195000	-29168.325000	-8.034410	-9.146069	-2.980211	4.017609	5.552640	13.934548	5.855087	-5.602768	4.944240	2.227960	6.027700	-0.555541	0.132995	0.804808	-1.000000	-1.000000	-1.000000	-1.000000	-1.000000	-1.000000	-1.000000	66.000000	0.000000	-1.000000	-1.000000	290779.000000	1776576980.400651
31004.235000	-84084.570000	-8098.065000	8165.070000	689.940000	2051.055000	6431.220000	-29173.545000	-5.672011	-13.601841	-6.063132	0.961348	1.360926	0.442968	2.900435	-8.828005	4.944240	2.227960	6.027700	-0.555541	0.132995	0.804808	-1.000000	-1.000000	-1.000000	-1.000000	-1.000000	-1.000000	-1.000000	66.000000	0.000000	-1.000000	-1.000000	290780.000000	1776576980.407987
30991.860000	-84103.020000	-8122.995000	8134.335000	661.050000	2027.835000	6420.060000	-29182.140000	-2.155127	-12.467781	-7.486897	-4.139573	-4.727480	-19.648357	-2.008303	-9.029125	4.944240	2.227960	6.027700	-0.555541	0.132995	0.804808	-1.000000	-1.000000	-1.000000	-1.000000	-1.000000	-1.000000	-1.000000	66.000000	0.000000	-1.000000	-1.000000	290781.000000	1776576980.408006
30983.085000	-84109.365000	-8124.390000	8140.860000	676.350000	2124.900000	6413.895000	-29193.615000	0.074325	-6.886552	-7.227677	-9.637581	-10.498475	-28.396686	-6.897365	-7.017697	4.944240	2.227960	6.027700	-0.555541	0.132995	0.804808	-1.000000	-1.000000	-1.000000	-1.000000	-1.000000	-1.000000	-1.000000	66.000000	0.000000	-1.000000	-1.000000	290782.000000	1776576980.412376
30987.900000	-84102.120000	-8112.735000	8165.070000	710.235000	2113.740000	6423.390000	-29191.095000	0.464246	0.273114	-4.689523	-11.027719	-11.143536	-16.259214	-9.525283	-4.102677	4.944240	2.227960	6.027700	-0.555541	0.132995	0.804808	-1.000000	-1.000000	-1.000000	-1.000000	-1.000000	-1.000000	-1.000000	66.000000	0.000000	-1.000000	-1.000000	290783.000000	1776576980.412389
31009.455000	-84079.350000	-8094.510000	8168.760000	690.075000	2081.160000	6413.715000	-29179.395000	1.118491	7.656821	1.450670	-4.550994	-3.771023	7.634169	-8.242811	-0.379345	4.944240	2.227960	6.027700	-0.555541	0.132995	0.804808	-1.000000	-1.000000	-1.000000	-1.000000	-1.000000	-1.000000	-1.000000	66.000000	0.000000	-1.000000	-1.000000	290784.000000	1776576980.412710
31009.860000	-84057.705000	-8087.220000	8168.355000	684.000000	2110.185000	6412.725000	-29171.160000	4.031240	14.763052	10.131746	6.928115	6.659947	24.005468	-3.737350	4.549928	4.944240	2.227960	6.027700	-0.555541	0.132995	0.804808	-1.000000	-1.000000	-1.000000	-1.000000	-1.000000	-1.000000	-1.000000	66.000000	0.000000	-1.000000	-1.000000	290785.000000	1776576980.412722
30996.360000	-84051.990000	-8086.770000	8175.420000	704.835000	2143.980000	6421.140000	-29172.105000	7.546943	19.611841	16.844270	15.794817	12.446780	24.382072	1.556454	9.431948	2.090620	1.434440	4.394880	-0.555480	0.144165	0.805967	-1.000000	-1.000000	-1.000000	-1.000000	-1.000000	-1.000000	-1.000000	66.000000	0.000000	-1.000000	-1.000000	290786.000000	1776576980.416661
31011.030000	-84060.675000	-8076.780000	8191.980000	712.980000	2122.110000	6429.060000	-29169.945000	7.951822	18.563883	17.078402	17.190158	11.864667	14.505958	5.961057	11.457265	2.090620	1.434440	4.394880	-0.555480	0.144165	0.805967	-1.000000	-1.000000	-1.000000	-1.000000	-1.000000	-1.000000	-1.000000	66.000000	0.000000	-1.000000	-1.000000	290787.000000	1776576980.416678
31023.855000	-84061.665000	-8075.700000	8192.070000	703.080000	2071.170000	6427.935000	-29164.365000	4.781137	9.645588	10.357330	11.884060	7.560745	0.456384	8.613499	9.074534	2.090620	1.434440	4.394880	-0.555480	0.144165	0.805967	-1.000000	-1.000000	-1.000000	-1.000000	-1.000000	-1.000000	-1.000000	66.000000	0.000000	-1.000000	-1.000000	290788.000000	1776576980.420672
31014.000000	-84068.865000	-8081.595000	8187.165000	695.655000	2045.295000	6423.345000	-29172.645000	0.656684	-4.243383	-0.045338	3.071588	1.291204	-15.538930	8.418667	3.403451	2.090620	1.434440	4.394880	-0.555480	0.144165	0.805967	-1.000000	-1.000000	-1.000000	-1.000000	-1.000000	-1.000000	-1.000000	66.000000	0.000000	-1.000000	-1.000000	290789.000000	1776576980.420684
31006.800000	-84069.855000	-8077.095000	8191.215000	693.045000	2041.020000	6425.595000	-29175.570000	-3.115852	-16.726259	-9.885535	-6.173443	-5.692452	-28.482385	4.968080	-3.221614	2.090620	1.434440	4.394880	-0.555480	0.144165	0.805967	-1.000000	-1.000000	-1.000000	-1.000000	-1.000000	-1.000000	-1.000000	66.000000	0.000000	-1.000000	-1.000000	290790.000000	1776576980.424620
30998.070000	-84080.655000	-8088.615000	8179.425000	682.830000	2058.840000	6419.385000	-29184.255000	-6.730939	-22.437527	-15.761901	-13.032589	-11.032997	-30.044951	-0.294983	-8.594842	2.090620	1.434440	4.394880	-0.555480	0.144165	0.805967	-1.000000	-1.000000	-1.000000	-1.000000	-1.000000	-1.000000	-1.000000	66.000000	0.000000	-1.000000	-1.000000	290791.000000	1776576980.424636
30997.935000	-84085.470000	-8091.180000	8179.965000	691.020000	2098.260000	6420.420000	-29187.495000	-9.382116	-20.034385	-16.372565	-15.649524	-12.391762	-15.874626	-4.963671	-11.040451	2.090620	1.434440	4.394880	-0.555480	0.144165	0.805967	-1.000000	-1.000000	-1.000000	-1.000000	-1.000000	-1.000000	-1.000000	66.000000	0.000000	-1.000000	-1.000000	290792.000000	1776576980.428719
30998.115000	-84091.050000	-8100.630000	8164.305000	683.595000	2123.505000	6430.365000	-29188.710000	-9.272497	-11.828718	-12.620305	-13.888129	-9.032411	9.212392	-6.975816	-9.807799	2.090620	1.434440	4.394880	-0.555480	0.144165	0.805967	-1.000000	-1.000000	-1.000000	-1.000000	-1.000000	-1.000000	-1.000000	66.000000	0.000000	-1.000000	-1.000000	290793.000000	1776576980.428754
31001.400000	-84093.570000	-8106.705000	8162.595000	700.965000	2141.955000	6438.420000	-29184.030000	-5.546146	-1.583338	-6.488180	-9.038402	-2.306457	32.824612	-5.306835	-5.268284	2.090620	1.434440	4.394880	-0.555480	0.144165	0.805967	-1.000000	-1.000000	-1.000000	-1.000000	-1.000000	-1.000000	-1.000000	66.000000	0.000000	-1.000000	-1.000000	290794.000000	1776576980.432730
31019.580000	-84076.155000	-8091.405000	8179.605000	701.910000	2117.610000	6436.080000	-29172.465000	0.838318	7.619742	0.304072	-2.431658	5.181143	41.833794	-1.024216	1.233087	2.090620	1.434440	4.394880	-0.555480	0.144165	0.805967	-1.000000	-1.000000	-1.000000	-1.000000	-1.000000	-1.000000	-1.000000	66.000000	0.000000	-1.000000	-1.000000	290795.000000	1776576980.432766
31021.335000	-84073.095000	-8089.875000	8180.370000	695.790000	2101.635000	6436.800000	-29174.850000	7.653957	14.217114	6.912481	5.163656	10.364296	30.228936	2.886620	7.506054	-0.427280	1.220800	3.509800	-0.555907	0.150207	0.804258	-1.000000	-1.000000	-1.000000	-1.000000	-1.000000	-1.000000	-1.000000	66.000000	0.000000	-1.000000	-1.000000	290796.000000	1776576980.436727
31015.215000	-84070.395000	-8084.475000	8185.770000	699.570000	2104.785000	6430.815000	-29183.805000	11.728066	17.024715	12.115741	11.872678	10.756760	3.914615	3.896273	10.659022	-0.427280	1.220800	3.509800	-0.555907	0.150207	0.804258	-1.000000	-1.000000	-1.000000	-1.000000	-1.000000	-1.000000	-1.000000	66.000000	0.000000	-1.000000	-1.000000	290797.000000	1776576980.436741
31018.275000	-84069.360000	-8087.040000	8181.090000	688.995000	2113.740000	6432.705000	-29178.990000	10.475747	14.880427	13.832040	14.666402	6.398694	-22.072592	1.843245	8.860876	-0.427280	1.220800	3.509800	-0.555907	0.150207	0.804258	-1.000000	-1.000000	-1.000000	-1.000000	-1.000000	-1.000000	-1.000000	66.000000	0.000000	-1.000000	-1.000000	290798.000000	1776576980.440724
31005.450000	-84083.670000	-8108.775000	8146.620000	658.935000	2091.915000	6429.735000	-29183.040000	4.331413	7.980678	10.519758	11.323504	-0.732631	-34.668379	-1.368124	3.441199	-0.427280	1.220800	3.509800	-0.555907	0.150207	0.804258	-1.000000	-1.000000	-1.000000	-1.000000	-1.000000	-1.000000	-1.000000	66.000000	0.000000	-1.000000	-1.000000	290799.000000	1776576980.440732
30997.710000	-84080.655000	-8098.830000	8162.010000	678.195000	2093.670000	6433.830000	-29189.430000	-3.690787	-1.486019	2.878601	2.524337	-7.859560	-31.411534	-3.455134	-2.416215	-0.427280	1.220800	3.509800	-0.555907	0.150207	0.804258	-1.000000	-1.000000	-1.000000	-1.000000	-1.000000	-1.000000	-1.000000	66.000000	0.000000	-1.000000	-1.000000	290800.000000	1776576980.444776
31001.265000	-84076.110000	-8089.380000	8179.110000	697.230000	2083.230000	6434.055000	-29185.380000	-9.898625	-9.580801	-4.982386	-6.290587	-10.542305	-18.114661	-3.253181	-6.237740	-0.427280	1.220800	3.509800	-0.555907	0.150207	0.804258	-1.000000	-1.000000	-1.000000	-1.000000	-1.000000	-1.000000	-1.000000	66.000000	0.000000	-1.000000	-1.000000	290801.000000	1776576980.444790
31014.405000	-84074.895000	-8090.550000	8176.770000	696.060000	2083.680000	6425.820000	-29171.070000	-11.039884	-12.593026	-8.345388	-8.841153	-5.858074	-2.321924	-1.345360	-6.567268	-0.427280	1.220800	3.509800	-0.555907	0.150207	0.804258	-1.000000	-1.000000	-1.000000	-1.000000	-1.000000	-1.000000	-1.000000	66.000000	0.000000	-1.000000	-1.000000	290802.000000	1776576980.448611
31021.830000	-84076.515000	-8092.080000	8180.595000	709.200000	2129.760000	6432.255000	-29165.670000	-6.130728	-9.986561	-6.564344	-4.822152	3.130372	11.144438	0.662412	-3.152100	-0.427280	1.220800	3.509800	-0.555907	0.150207	0.804258	-1.000000	-1.000000	-1.000000	-1.000000	-1.000000	-1.000000	-1.000000	66.000000	0.000000	-1.000000	-1.000000	290803.000000	1776576980.448629
31031.235000	-84069.090000	-8084.565000	8188.560000	717.480000	2125.485000	6434.280000	-29163.645000	2.159687	-4.306344	-2.547435	1.096892	10.336293	20.826427	1.941514	1.976101	-0.427280	1.220800	3.509800	-0.555907	0.150207	0.804258	-1.000000	-1.000000	-1.000000	-1.000000	-1.000000	-1.000000	-1.000000	66.000000	0.000000	-1.000000	-1.000000	290804.000000	1776576980.452622
31035.735000	-84058.695000	-8076.555000	8184.330000	691.020000	2102.535000	6429.870000	-29170.395000	9.123199	1.576235	1.099870	4.731394	11.472245	24.296415	2.572700	5.266240	-0.427280	1.220800	3.509800	-0.555907	0.150207	0.804258	-1.000000	-1.000000	-1.000000	-1.000000	-1.000000	-1.000000	-1.000000	66.000000	0.000000	-1.000000	-1.000000	290805.000000	1776576980.452630
31026.555000	-84065.715000	-8083.845000	8177.670000	679.680000	2089.620000	6425.415000	-29183.715000	10.971127	5.693634	3.168807	4.322482	5.226010	17.887269	2.314115	4.214679	-1.815940	1.724380	2.060100	-0.556944	0.153625	0.801023	-1.000000	-1.000000	-1.000000	-1.000000	-1.000000	-1.000000	-1.000000	66.000000	0.000000	-1.000000	-1.000000	290806.000000	1776576980.456574
31024.170000	-84065.895000	-8085.510000	8176.230000	677.745000	2085.075000	6423.750000	-29186.955000	6.717867	6.553038	2.888782	0.452602	-5.372108	3.222698	0.942251	-0.711556	-1.815940	1.724380	2.060100	-0.556944	0.153625	0.801023	-1.000000	-1.000000	-1.000000	-1.000000	-1.000000	-1.000000	-1.000000	66.000000	0.000000	-1.000000	-1.000000	290807.000000	1776576980.456587
31017.105000	-84069.045000	-8089.695000	8171.730000	682.110000	2103.705000	6429.420000	-29188.575000	-1.231380	3.921692	0.361761	-4.293919	-13.531874	-11.278309	-0.728779	-6.121963	-1.815940	1.724380	2.060100	-0.556944	0.153625	0.801023	-1.000000	-1.000000	-1.000000	-1.000000	-1.000000	-1.000000	-1.000000	66.000000	0.000000	-1.000000	-1.000000	290808.000000	1776576980.460654
31008.960000	-84076.380000	-8092.845000	8172.900000	692.955000	2124.405000	6427.305000	-29192.175000	-8.612035	-0.539163	-2.864707	-7.003364	-13.784868	-16.775533	-1.399157	-8.262857	-1.815940	1.724380	2.060100	-0.556944	0.153625	0.801023	-1.000000	-1.000000	-1.000000	-1.000000	-1.000000	-1.000000	-1.000000	66.000000	0.000000	-1.000000	-1.000000	290809.000000	1776576980.460678
31015.620000	-84075.705000	-8090.955000	8177.445000	698.310000	2141.415000	6433.560000	-29184.030000	-11.867334	-4.454737	-4.792003	-6.171230	-6.111795	-10.846635	-0.668709	-5.795916	-1.815940	1.724380	2.060100	-0.556944	0.153625	0.801023	-1.000000	-1.000000	-1.000000	-1.000000	-1.000000	-1.000000	-1.000000	66.000000	0.000000	-1.000000	-1.000000	290810.000000	1776576980.464642
31017.960000	-84074.895000	-8086.320000	8188.470000	704.610000	2153.835000	6446.745000	-29181.690000	-9.501185	-5.902908	-4.146071	-2.088000	4.583018	1.140930	1.008646	-0.062872	-1.815940	1.724380	2.060100	-0.556944	0.153625	0.801023	-1.000000	-1.000000	-1.000000	-1.000000	-1.000000	-1.000000	-1.000000	66.000000	0.000000	-1.000000	-1.000000	290811.000000	1776576980.464655
31019.895000	-84078.990000	-8093.520000	8180.685000	698.895000	2089.035000	6442.200000	-29179.305000	-2.787880	-4.312603	-1.243887	3.230004	12.103594	9.495543	2.841644	6.019606	-1.815940	1.724380	2.060100	-0.556944	0.153625	0.801023	-1.000000	-1.000000	-1.000000	-1.000000	-1.000000	-1.000000	-1.000000	66.000000	0.000000	-1.000000	-1.000000	290812.000000	1776576980.468706
31026.375000	-84075.165000	-8099.145000	8162.865000	675.945000	2053.395000	6422.895000	-29178.855000	4.765166	-0.850160	1.871245	6.351200	12.342047	5.994487	3.064956	9.417550	-1.815940	1.724380	2.060100	-0.556944	0.153625	0.801023	-1.000000	-1.000000	-1.000000	-1.000000	-1.000000	-1.000000	-1.000000	66.000000	0.000000	-1.000000	-1.000000	290813.000000	1776576980.468715
31027.995000	-84076.290000	-8100.495000	8158.860000	667.665000	2075.490000	6424.470000	-29178.045000	9.728357	2.659506	3.195935	4.788039	5.178492	-7.507335	0.139962	8.696095	-1.815940	1.724380	2.060100	-0.556944	0.153625	0.801023	-1.000000	-1.000000	-1.000000	-1.000000	-1.000000	-1.000000	-1.000000	66.000000	0.000000	-1.000000	-1.000000	290814.000000	1776576980.472583
31028.805000	-84077.235000	-8100.270000	8165.295000	677.205000	2078.280000	6430.590000	-29175.390000	10.408213	4.797940	2.641901	0.076416	-4.649559	-18.101155	-4.258612	4.701602	-1.815940	1.724380	2.060100	-0.556944	0.153625	0.801023	-1.000000	-1.000000	-1.000000	-1.000000	-1.000000	-1.000000	-1.000000	66.000000	0.000000	-1.000000	-1.000000	290815.000000	1776576980.472593
31028.535000	-84071.790000	-8090.415000	8180.460000	690.120000	2085.840000	6433.605000	-29177.820000	7.081257	4.992704	1.707358	-3.156706	-10.070965	-15.307755	-6.262274	-0.351056	-1.907500	1.098720	0.000000	-0.561644	0.157104	0.797788	-1.000000	-1.000000	-1.000000	-1.000000	-1.000000	-1.000000	-1.000000	66.000000	0.000000	-1.000000	-1.000000	290816.000000	1776576980.476695
31038.795000	-84061.845000	-8083.620000	8181.270000	694.665000	2088.135000	6429.915000	-29170.440000	1.784019	3.891661	1.843575	-1.923660	-7.505327	-1.138360	-4.250981	-4.286682	-1.907500	1.098720	0.000000	-0.561644	0.157104	0.797788	-1.000000	-1.000000	-1.000000	-1.000000	-1.000000	-1.000000	-1.000000	66.000000	0.000000	-1.000000	-1.000000	290817.000000	1776576980.476714
31040.235000	-84062.160000	-8083.215000	8182.980000	696.510000	2090.070000	6429.870000	-29169.720000	-2.714895	2.595158	2.985827	2.199300	0.204992	14.383963	-0.178940	-5.778261	-1.907500	1.098720	0.000000	-0.561644	0.157104	0.797788	-1.000000	-1.000000	-1.000000	-1.000000	-1.000000	-1.000000	-1.000000	66.000000	0.000000	-1.000000	-1.000000	290818.000000	1776576980.480834
31025.970000	-84073.005000	-8088.210000	8184.645000	701.910000	2126.835000	6434.460000	-29182.320000	-5.118235	1.060319	3.429696	5.236709	7.084432	22.932536	3.178748	-5.085481	-1.907500	1.098720	0.000000	-0.561644	0.157104	0.797788	-1.000000	-1.000000	-1.000000	-1.000000	-1.000000	-1.000000	-1.000000	66.000000	0.000000	-1.000000	-1.000000	290819.000000	1776576980.480848
31027.815000	-84067.200000	-8083.035000	8187.210000	705.105000	2132.595000	6428.610000	-29188.080000	-6.177343	-1.412014	1.764671	4.859274	9.170963	22.728412	4.479055	-3.939918	-1.907500	1.098720	0.000000	-0.561644	0.157104	0.797788	-1.000000	-1.000000	-1.000000	-1.000000	-1.000000	-1.000000	-1.000000	66.000000	0.000000	-1.000000	-1.000000	290820.000000	1776576980.484884
31031.955000	-84063.735000	-8083.080000	8179.380000	687.555000	2108.295000	6428.565000	-29189.340000	-6.288758	-4.039831	-1.336346	1.501560	5.992597	15.215157	3.639636	-3.405123	-1.907500	1.098720	0.000000	-0.561644	0.157104	0.797788	-1.000000	-1.000000	-1.000000	-1.000000	-1.000000	-1.000000	-1.000000	66.000000	0.000000	-1.000000	-1.000000	290821.000000	1776576980.484902
31028.895000	-84071.565000	-8092.395000	8171.550000	674.415000	2075.355000	6433.650000	-29193.930000	-4.725726	-5.146162	-4.156030	-3.140141	-0.923388	1.306978	1.514831	-2.775235	-1.907500	1.098720	0.000000	-0.561644	0.157104	0.797788	-1.000000	-1.000000	-1.000000	-1.000000	-1.000000	-1.000000	-1.000000	66.000000	0.000000	-1.000000	-1.000000	290822.000000	1776576980.488705
31025.340000	-84075.660000	-8099.280000	8163.630000	663.210000	2072.160000	6429.060000	-29196.180000	-1.681549	-4.530838	-5.874693	-7.226171	-8.656327	-15.685978	-0.460169	-1.153995	-1.907500	1.098720	0.000000	-0.561644	0.157104	0.797788	-1.000000	-1.000000	-1.000000	-1.000000	-1.000000	-1.000000	-1.000000	66.000000	0.000000	-1.000000	-1.000000	290823.000000	1776576980.488731
31029.300000	-84069.270000	-8087.760000	8186.895000	692.865000	2099.970000	6428.430000	-29190.915000	1.447634	-3.002886	-6.076774	-8.571607	-12.707402	-27.286297	-1.539120	1.419728	-1.907500	1.098720	0.000000	-0.561644	0.157104	0.797788	-1.000000	-1.000000	-1.000000	-1.000000	-1.000000	-1.000000	-1.000000	66.000000	0.000000	-1.000000	-1.000000	290824.000000	1776576980.492846
31034.880000	-84059.415000	-8078.130000	8193.285000	699.795000	2088.270000	6431.580000	-29184.255000	3.740430	-0.635285	-3.770292	-5.243198	-9.194253	-25.667215	-1.812233	4.402230	-1.907500	1.098720	0.000000	-0.561644	0.157104	0.797788	-1.000000	-1.000000	-1.000000	-1.000000	-1.000000	-1.000000	-1.000000	66.000000	0.000000	-1.000000	-1.000000	290825.000000	1776576980.492876
31028.670000	-84065.895000	-8087.265000	8176.950000	690.435000	2088.585000	6427.260000	-29188.800000	4.930178	2.440552	0.817255	1.398337	0.443071	-12.204121	-1.453422	6.789319	-2.777320	1.129240	-2.212700	-0.565184	0.154602	0.794981	-1.000000	-1.000000	-1.000000	-1.000000	-1.000000	-1.000000	-1.000000	66.000000	0.000000	-1.000000	-1.000000	290826.000000	1776576980.496628
31026.780000	-84070.170000	-8087.760000	8183.070000	704.610000	2115.540000	6425.730000	-29190.420000	4.532494	4.599269	4.885362	6.498464	9.534238	4.490755	-0.832356	7.055853	-2.777320	1.129240	-2.212700	-0.565184	0.154602	0.794981	-1.000000	-1.000000	-1.000000	-1.000000	-1.000000	-1.000000	-1.000000	66.000000	0.000000	-1.000000	-1.000000	290827.000000	1776576980.496636
31035.870000	-84068.910000	-8088.300000	8185.545000	703.890000	2180.520000	6435.765000	-29180.295000	2.600801	4.201739	5.786611	7.016539	12.841542	18.158614	-0.212576	4.680831	-2.777320	1.129240	-2.212700	-0.565184	0.154602	0.794981	-1.000000	-1.000000	-1.000000	-1.000000	-1.000000	-1.000000	-1.000000	66.000000	0.000000	-1.000000	-1.000000	290828.000000	1776576980.501016
31038.210000	-84076.290000	-8106.840000	8158.185000	684.135000	2228.310000	6440.670000	-29174.940000	0.518907	1.626810	3.354826	3.719771	9.575408	27.573410	0.792109	1.247032	-2.777320	1.129240	-2.212700	-0.565184	0.154602	0.794981	-1.000000	-1.000000	-1.000000	-1.000000	-1.000000	-1.000000	-1.000000	66.000000	0.000000	-1.000000	-1.000000	290829.000000	1776576980.501027
31040.325000	-84073.095000	-8103.555000	8161.695000	688.725000	2075.535000	6441.570000	-29172.915000	-0.502661	-1.352802	-0.860982	-1.503021	1.707961	28.064100	2.215595	-1.314615	-2.777320	1.129240	-2.212700	-0.565184	0.154602	0.794981	-1.000000	-1.000000	-1.000000	-1.000000	-1.000000	-1.000000	-1.000000	66.000000	0.000000	-1.000000	-1.000000	290830.000000	1776576980.504692
31036.950000	-84070.935000	-8097.480000	8172.405000	686.700000	1985.580000	6438.465000	-29177.100000	-0.746096	-2.963189	-4.162585	-5.725615	-6.536877	8.941829	2.933234	-2.713515	-2.777320	1.129240	-2.212700	-0.565184	0.154602	0.794981	-1.000000	-1.000000	-1.000000	-1.000000	-1.000000	-1.000000	-1.000000	66.000000	0.000000	-1.000000	-1.000000	290831.000000	1776576980.504707
31025.745000	-84077.280000	-8101.800000	8168.445000	680.535000	2097.855000	6426.045000	-29190.600000	-1.355958	-2.499991	-4.131669	-5.732429	-10.751649	-25.687799	1.645297	-3.983878	-2.777320	1.129240	-2.212700	-0.565184	0.154602	0.794981	-1.000000	-1.000000	-1.000000	-1.000000	-1.000000	-1.000000	-1.000000	66.000000	0.000000	-1.000000	-1.000000	290832.000000	1776576980.508503
31025.520000	-84071.925000	-8093.520000	8176.320000	693.360000	2112.795000	6423.345000	-29194.065000	-2.909266	-0.786188	-0.995661	-1.536769	-9.429117	-47.308017	-1.667917	-5.803444	-2.777320	1.129240	-2.212700	-0.565184	0.154602	0.794981	-1.000000	-1.000000	-1.000000	-1.000000	-1.000000	-1.000000	-1.000000	66.000000	0.000000	-1.000000	-1.000000	290833.000000	1776576980.508515
31032.765000	-84068.010000	-8091.945000	8175.510000	683.010000	2085.435000	6424.740000	-29191.545000	-4.270931	1.073313	2.996273	3.727092	-4.046541	-35.830906	-5.080652	-7.109058	-2.777320	1.129240	-2.212700	-0.565184	0.154602	0.794981	-1.000000	-1.000000	-1.000000	-1.000000	-1.000000	-1.000000	-1.000000	66.000000	0.000000	-1.000000	-1.000000	290834.000000	1776576980.514783
31032.045000	-84069.855000	-8089.605000	8188.740000	696.195000	2089.125000	6424.425000	-29193.930000	-3.571541	2.486541	5.622518	7.063708	2.291598	-3.501635	-6.005311	-5.986796	-2.777320	1.129240	-2.212700	-0.565184	0.154602	0.794981	-1.000000	-1.000000	-1.000000	-1.000000	-1.000000	-1.000000	-1.000000	66.000000	0.000000	-1.000000	-1.000000	290835.000000	1776576980.514790
31036.230000	-84060.090000	-8077.005000	8197.605000	713.430000	2122.920000	6430.005000	-29196.315000	-0.616321	3.030802	5.834098	7.520959	7.095540	25.447677	-3.514625	-2.162166	0.686700	1.556520	-3.021480	-0.566954	0.148193	0.795957	-1.000000	-1.000000	-1.000000	-1.000000	-1.000000	-1.000000	-1.000000	66.000000	0.000000	-1.000000	-1.000000	290836.000000	1776576980.516670
31032.720000	-84052.215000	-8084.295000	8183.340000	710.685000	2138.355000	6441.120000	-29192.355000	2.787890	2.801514	3.962665	5.367523	9.507088	38.542313	1.228838	2.603400	0.686700	1.556520	-3.021480	-0.566954	0.148193	0.795957	-1.000000	-1.000000	-1.000000	-1.000000	-1.000000	-1.000000	-1.000000	66.000000	0.000000	-1.000000	-1.000000	290837.000000	1776576980.516677
31036.095000	-84051.540000	-8090.325000	8174.385000	693.270000	2114.595000	6439.995000	-29188.395000	4.621835	2.205896	0.568109	0.617370	8.395041	34.966276	5.976778	6.364957	0.686700	1.556520	-3.021480	-0.566954	0.148193	0.795957	-1.000000	-1.000000	-1.000000	-1.000000	-1.000000	-1.000000	-1.000000	66.000000	0.000000	-1.000000	-1.000000	290838.000000	1776576980.520552
31036.860000	-84070.890000	-8100.990000	8163.360000	671.985000	2079.810000	6437.025000	-29192.130000	4.209901	0.700020	-3.884321	-5.887526	2.474979	17.806870	8.145875	7.953908	0.686700	1.556520	-3.021480	-0.566954	0.148193	0.795957	-1.000000	-1.000000	-1.000000	-1.000000	-1.000000	-1.000000	-1.000000	66.000000	0.000000	-1.000000	-1.000000	290839.000000	1776576980.520561
31037.940000	-84070.170000	-8097.840000	8170.110000	674.235000	2074.185000	6437.745000	-29182.680000	2.300252	-2.570826	-7.890043	-11.117088	-6.472086	-6.481370	6.280254	7.001947	0.686700	1.556520	-3.021480	-0.566954	0.148193	0.795957	-1.000000	-1.000000	-1.000000	-1.000000	-1.000000	-1.000000	-1.000000	66.000000	0.000000	-1.000000	-1.000000	290840.000000	1776576980.525061
31034.160000	-84072.690000	-8100.315000	8171.730000	684.090000	2096.505000	6443.370000	-29182.005000	-0.015949	-6.394004	-9.127257	-11.544088	-12.838453	-26.420413	1.591824	4.261914	0.686700	1.556520	-3.021480	-0.566954	0.148193	0.795957	-1.000000	-1.000000	-1.000000	-1.000000	-1.000000	-1.000000	-1.000000	66.000000	0.000000	-1.000000	-1.000000	290841.000000	1776576980.525076
31040.325000	-84058.605000	-8081.325000	8200.305000	704.610000	2109.195000	6449.580000	-29181.195000	-1.903865	-7.680560	-6.171501	-5.886336	-11.399926	-31.128734	-2.866930	1.008866	0.686700	1.556520	-3.021480	-0.566954	0.148193	0.795957	-1.000000	-1.000000	-1.000000	-1.000000	-1.000000	-1.000000	-1.000000	66.000000	0.000000	-1.000000	-1.000000	290842.000000	1776576980.528896
31051.485000	-84050.145000	-8076.645000	8192.295000	687.825000	2122.605000	6454.395000	-29171.565000	-2.476305	-4.457825	0.302947	3.552950	-2.665979	-19.213539	-4.746705	-1.787665	0.686700	1.556520	-3.021480	-0.566954	0.148193	0.795957	-1.000000	-1.000000	-1.000000	-1.000000	-1.000000	-1.000000	-1.000000	66.000000	0.000000	-1.000000	-1.000000	290843.000000	1776576980.528944
31047.210000	-84063.375000	-8092.890000	8172.405000	702.135000	2144.295000	6445.485000	-29176.695000	-1.349782	1.643340	6.914301	10.988272	7.063048	0.622816	-4.128629	-3.487994	0.686700	1.556520	-3.021480	-0.566954	0.148193	0.795957	-1.000000	-1.000000	-1.000000	-1.000000	-1.000000	-1.000000	-1.000000	66.000000	0.000000	-1.000000	-1.000000	290844.000000	1776576980.532730
31038.255000	-84077.865000	-8111.070000	8155.710000	696.195000	2145.330000	6424.335000	-29184.705000	0.119958	5.929407	8.851977	10.730973	11.792918	17.020231	-3.277906	-4.306745	0.686700	1.556520	-3.021480	-0.566954	0.148193	0.795957	-1.000000	-1.000000	-1.000000	-1.000000	-1.000000	-1.000000	-1.000000	66.000000	0.000000	-1.000000	-1.000000	290845.000000	1776576980.532741
31032.270000	-84080.745000	-8108.730000	8171.100000	711.900000	2149.425000	6424.110000	-29192.625000	-0.085220	5.085752	4.437923	3.233777	10.350097	22.434702	-4.072859	-5.113328	0.488320	2.029580	-3.540320	-0.568236	0.143859	0.794676	-1.000000	-1.000000	-1.000000	-1.000000	-1.000000	-1.000000	-1.000000	66.000000	0.000000	-1.000000	-1.000000	290846.000000	1776576980.536575
31039.830000	-84066.660000	-8094.330000	8183.430000	703.935000	2080.755000	6433.695000	-29189.295000	-1.903399	0.935866	-2.162112	-4.483331	5.187168	14.729509	-5.173707	-5.791211	0.488320	2.029580	-3.540320	-0.568236	0.143859	0.794676	-1.000000	-1.000000	-1.000000	-1.000000	-1.000000	-1.000000	-1.000000	66.000000	0.000000	-1.000000	-1.000000	290847.000000	1776576980.536585
31043.565000	-84064.455000	-8097.705000	8169.075000	675.270000	2049.120000	6429.510000	-29185.740000	-3.003373	-1.777927	-5.116977	-6.446893	-1.323091	-3.452961	-3.602863	-4.909119	0.488320	2.029580	-3.540320	-0.568236	0.143859	0.794676	-1.000000	-1.000000	-1.000000	-1.000000	-1.000000	-1.000000	-1.000000	66.000000	0.000000	-1.000000	-1.000000	290848.000000	1776576980.540605
31045.635000	-84057.120000	-8086.455000	8186.760000	697.860000	2073.510000	6429.510000	-29184.795000	-1.675349	-0.714769	-2.830111	-3.163381	-7.650105	-22.761370	0.912589	-1.619641	0.488320	2.029580	-3.540320	-0.568236	0.143859	0.794676	-1.000000	-1.000000	-1.000000	-1.000000	-1.000000	-1.000000	-1.000000	66.000000	0.000000	-1.000000	-1.000000	290849.000000	1776576980.540619
31045.140000	-84053.520000	-8074.710000	8205.975000	721.935000	2111.085000	6449.895000	-29180.745000	1.236792	2.492799	2.113785	1.959174	-10.336938	-28.955073	6.000779	2.923329	0.488320	2.029580	-3.540320	-0.568236	0.143859	0.794676	-1.000000	-1.000000	-1.000000	-1.000000	-1.000000	-1.000000	-1.000000	66.000000	0.000000	-1.000000	-1.000000	290850.000000	1776576980.544683
31045.005000	-84066.885000	-8098.380000	8172.675000	692.280000	2116.935000	6440.130000	-29178.945000	3.527094	4.545625	5.874790	5.865429	-6.851288	-15.265857	9.459111	6.511982	0.488320	2.029580	-3.540320	-0.568236	0.143859	0.794676	-1.000000	-1.000000	-1.000000	-1.000000	-1.000000	-1.000000	-1.000000	66.000000	0.000000	-1.000000	-1.000000	290851.000000	1776576980.544699
31047.480000	-84068.100000	-8101.620000	8165.250000	695.745000	2127.780000	6437.205000	-29176.785000	3.817248	3.090554	5.085271	5.122786	-0.755873	9.353884	9.484927	7.561532	0.488320	2.029580	-3.540320	-0.568236	0.143859	0.794676	-1.000000	-1.000000	-1.000000	-1.000000	-1.000000	-1.000000	-1.000000	66.000000	0.000000	-1.000000	-1.000000	290852.000000	1776576980.548812
31042.935000	-84071.925000	-8105.220000	8163.990000	681.255000	2110.050000	6435.450000	-29181.780000	2.281342	-1.290502	-0.281878	-0.845092	2.563998	28.168250	5.312753	5.740204	0.488320	2.029580	-3.540320	-0.568236	0.143859	0.794676	-1.000000	-1.000000	-1.000000	-1.000000	-1.000000	-1.000000	-1.000000	66.000000	0.000000	-1.000000	-1.000000	290853.000000	1776576980.548826
31039.830000	-84068.280000	-8101.125000	8167.230000	679.500000	2110.095000	6434.595000	-29190.870000	-0.155571	-5.460194	-6.096358	-7.321147	1.942624	30.200252	-1.122376	1.692723	0.488320	2.029580	-3.540320	-0.568236	0.143859	0.794676	-1.000000	-1.000000	-1.000000	-1.000000	-1.000000	-1.000000	-1.000000	66.000000	0.000000	-1.000000	-1.000000	290854.000000	1776576980.552682
31040.595000	-84062.430000	-8096.085000	8168.940000	684.585000	2103.030000	6435.045000	-29195.280000	-2.427540	-6.462628	-7.965181	-9.056268	-0.133782	16.606748	-6.401530	-3.193674	0.488320	2.029580	-3.540320	-0.568236	0.143859	0.794676	-1.000000	-1.000000	-1.000000	-1.000000	-1.000000	-1.000000	-1.000000	66.000000	0.000000	-1.000000	-1.000000	290855.000000	1776576980.552690
31044.825000	-84055.680000	-8091.630000	8171.460000	681.435000	2071.530000	6434.685000	-29193.885000	-3.380055	-3.599909	-4.790237	-5.073034	-0.699150	-3.209053	-8.220328	-6.794481	-0.625660	1.800680	-4.272800	-0.568358	0.144348	0.794309	-1.000000	-1.000000	-1.000000	-1.000000	-1.000000	-1.000000	-1.000000	66.000000	0.000000	-1.000000	-1.000000	290856.000000	1776576980.556762
31051.800000	-84046.770000	-8082.540000	8182.845000	688.770000	2069.370000	6438.195000	-29188.575000	-2.287269	1.427588	1.162161	1.793345	1.110553	-19.545216	-6.425234	-7.068488	-0.625660	1.800680	-4.272800	-0.568358	0.144348	0.794309	-1.000000	-1.000000	-1.000000	-1.000000	-1.000000	-1.000000	-1.000000	66.000000	0.000000	-1.000000	-1.000000	290857.000000	1776576980.556772
31049.010000	-84050.415000	-8080.650000	8191.530000	702.495000	2079.495000	6441.660000	-29187.855000	0.301346	5.696283	6.407149	7.939825	4.178869	-25.760279	-2.437199	-3.674697	-0.625660	1.800680	-4.272800	-0.568358	0.144348	0.794309	-1.000000	-1.000000	-1.000000	-1.000000	-1.000000	-1.000000	-1.000000	66.000000	0.000000	-1.000000	-1.000000	290858.000000	1776576980.562741
31044.285000	-84057.840000	-8085.645000	8186.715000	697.500000	2090.430000	6440.265000	-29190.195000	2.494579	6.528901	8.167053	10.674610	6.779455	-19.359997	1.715470	1.345106	-0.625660	1.800680	-4.272800	-0.568358	0.144348	0.794309	-1.000000	-1.000000	-1.000000	-1.000000	-1.000000	-1.000000	-1.000000	66.000000	0.000000	-1.000000	-1.000000	290859.000000	1776576980.562756
31049.055000	-84060.630000	-8089.740000	8183.205000	702.135000	2126.070000	6441.975000	-29187.855000	2.688398	3.166071	5.464258	8.540132	6.980501	-3.524259	4.207708	5.050333	-0.625660	1.800680	-4.272800	-0.568358	0.144348	0.794309	-1.000000	-1.000000	-1.000000	-1.000000	-1.000000	-1.000000	-1.000000	66.000000	0.000000	-1.000000	-1.000000	290860.000000	1776576980.564519
31056.120000	-84060.810000	-8094.420000	8172.945000	690.165000	2115.045000	6443.145000	-29185.695000	1.342527	-2.264066	-0.249546	2.142014	3.757539	13.883584	4.324863	5.907934	-0.625660	1.800680	-4.272800	-0.568358	0.144348	0.794309	-1.000000	-1.000000	-1.000000	-1.000000	-1.000000	-1.000000	-1.000000	66.000000	0.000000	-1.000000	-1.000000	290861.000000	1776576980.564526
31051.890000	-84056.895000	-8083.170000	8194.815000	711.225000	2109.735000	6451.020000	-29191.095000	0.038862	-6.189046	-5.615406	-5.173407	-1.527389	23.486926	2.819274	4.251667	-0.625660	1.800680	-4.272800	-0.568358	0.144348	0.794309	-1.000000	-1.000000	-1.000000	-1.000000	-1.000000	-1.000000	-1.000000	66.000000	0.000000	-1.000000	-1.000000	290862.000000	1776576980.569247
31043.970000	-84061.080000	-8086.140000	8193.375000	706.095000	2127.960000	6454.395000	-29193.120000	-0.823901	-6.420002	-7.453463	-8.906645	-5.659646	20.406363	1.126712	1.154315	-0.625660	1.800680	-4.272800	-0.568358	0.144348	0.794309	-1.000000	-1.000000	-1.000000	-1.000000	-1.000000	-1.000000	-1.000000	66.000000	0.000000	-1.000000	-1.000000	290863.000000	1776576980.569276
31044.285000	-84063.555000	-8092.530000	8180.730000	691.875000	2166.345000	6450.345000	-29188.170000	-1.851118	-3.607752	-5.397928	-7.628174	-6.920061	9.121386	-0.035801	-1.975928	-0.625660	1.800680	-4.272800	-0.568358	0.144348	0.794309	-1.000000	-1.000000	-1.000000	-1.000000	-1.000000	-1.000000	-1.000000	66.000000	0.000000	-1.000000	-1.000000	290864.000000	1776576980.573283
31050.495000	-84062.610000	-8098.110000	8173.440000	685.755000	2117.295000	6447.780000	-29180.970000	-2.708622	0.003369	-1.951161	-4.316448	-6.627467	-2.347283	-1.121288	-3.459081	-0.625660	1.800680	-4.272800	-0.568358	0.144348	0.794309	-1.000000	-1.000000	-1.000000	-1.000000	-1.000000	-1.000000	-1.000000	66.000000	0.000000	-1.000000	-1.000000	290865.000000	1776576980.573298
31048.020000	-84066.075000	-8105.670000	8163.450000	675.630000	2069.955000	6439.410000	-29185.650000	-2.272488	2.656237	0.373120	-2.212185	-6.189050	-12.235443	-2.659028	-2.628757	-2.731540	2.227960	-4.364360	-0.567381	0.144226	0.796446	-1.000000	-1.000000	-1.000000	-1.000000	-1.000000	-1.000000	-1.000000	66.000000	0.000000	-1.000000	-1.000000	290866.000000	1776576980.576610
31050.540000	-84059.505000	-8095.365000	8177.355000	693.270000	2060.910000	6444.225000	-29187.450000	-0.471934	3.810432	1.202311	-1.399416	-4.873913	-22.030618	-4.174193	-0.782252	-2.731540	2.227960	-4.364360	-0.567381	0.144226	0.796446	-1.000000	-1.000000	-1.000000	-1.000000	-1.000000	-1.000000	-1.000000	66.000000	0.000000	-1.000000	-1.000000	290867.000000	1776576980.576620
31049.685000	-84062.655000	-8095.140000	8179.515000	698.535000	2125.395000	6440.805000	-29195.100000	1.540465	3.797429	1.904234	0.233685	-1.030542	-26.445381	-4.403635	0.149668	-2.731540	2.227960	-4.364360	-0.567381	0.144226	0.796446	-1.000000	-1.000000	-1.000000	-1.000000	-1.000000	-1.000000	-1.000000	66.000000	0.000000	-1.000000	-1.000000	290868.000000	1776576980.580563
31048.605000	-84062.880000	-8091.720000	8184.780000	707.445000	2174.940000	6442.785000	-29195.910000	2.611925	3.001074	3.343964	3.639050	5.083292	-16.193292	-2.675097	-0.478177	-2.731540	2.227960	-4.364360	-0.567381	0.144226	0.796446	-1.000000	-1.000000	-1.000000	-1.000000	-1.000000	-1.000000	-1.000000	66.000000	0.000000	-1.000000	-1.000000	290869.000000	1776576980.580573
31051.485000	-84062.700000	-8093.025000	8184.690000	707.445000	2183.805000	6451.335000	-29189.430000	2.366314	1.577396	4.674154	7.084255	10.394239	7.919397	0.456096	-1.538849	-2.731540	2.227960	-4.364360	-0.567381	0.144226	0.796446	-1.000000	-1.000000	-1.000000	-1.000000	-1.000000	-1.000000	-1.000000	66.000000	0.000000	-1.000000	-1.000000	290870.000000	1776576980.584623
31055.715000	-84059.820000	-8094.465000	8183.610000	705.240000	2177.640000	6452.640000	-29184.480000	1.375006	-0.021093	4.515966	8.059206	11.475304	30.678351	3.837688	-1.267634	-2.731540	2.227960	-4.364360	-0.567381	0.144226	0.796446	-1.000000	-1.000000	-1.000000	-1.000000	-1.000000	-1.000000	-1.000000	66.000000	0.000000	-1.000000	-1.000000	290871.000000	1776576980.584634
31067.145000	-84047.040000	-8081.820000	8193.195000	697.680000	2094.660000	6453.180000	-29176.290000	0.699050	-0.899659	2.678655	5.774515	7.220965	34.495822	6.006678	0.897546	-2.731540	2.227960	-4.364360	-0.567381	0.144226	0.796446	-1.000000	-1.000000	-1.000000	-1.000000	-1.000000	-1.000000	-1.000000	66.000000	0.000000	-1.000000	-1.000000	290872.000000	1776576980.588709
31066.200000	-84048.255000	-8080.830000	8198.370000	695.430000	1973.970000	6445.935000	-29181.690000	0.862570	-0.482008	0.465066	1.817103	-0.414607	12.267134	5.599769	3.574011	-2.731540	2.227960	-4.364360	-0.567381	0.144226	0.796446	-1.000000	-1.000000	-1.000000	-1.000000	-1.000000	-1.000000	-1.000000	66.000000	0.000000	-1.000000	-1.000000	290873.000000	1776576980.588719
31051.620000	-84065.040000	-8097.840000	8182.170000	699.480000	2062.260000	6445.215000	-29196.180000	0.861055	0.166582	-1.353806	-1.944316	-7.461432	-24.144461	2.456634	4.256749	-2.731540	2.227960	-4.364360	-0.567381	0.144226	0.796446	-1.000000	-1.000000	-1.000000	-1.000000	-1.000000	-1.000000	-1.000000	66.000000	0.000000	-1.000000	-1.000000	290874.000000	1776576980.592607
31053.510000	-84057.120000	-8087.940000	8193.870000	694.440000	2088.405000	6444.900000	-29194.965000	-0.825778	-0.749669	-3.293295	-4.957385	-10.423607	-45.935311	-1.804202	1.562947	-2.731540	2.227960	-4.364360	-0.567381	0.144226	0.796446	-1.000000	-1.000000	-1.000000	-1.000000	-1.000000	-1.000000	-1.000000	66.000000	0.000000	-1.000000	-1.000000	290875.000000	1776576980.592616
31056.615000	-84049.785000	-8078.580000	8200.485000	702.360000	2124.945000	6438.645000	-29193.615000	-3.579622	-2.658454	-4.702268	-6.414458	-8.490756	-33.033689	-4.892869	-2.727821	-3.082520	2.929920	-2.823100	-0.564452	0.141296	0.796873	-1.000000	-1.000000	-1.000000	-1.000000	-1.000000	-1.000000	-1.000000	66.000000	0.000000	-1.000000	-1.000000	290876.000000	1776576980.598594
31050.045000	-84060.090000	-8091.315000	8188.245000	710.370000	2102.760000	6444.135000	-29201.220000	-5.053831	-3.343457	-4.117048	-5.429018	-3.204969	4.235797	-5.512420	-5.351464	-3.082520	2.929920	-2.823100	-0.564452	0.141296	0.796873	-1.000000	-1.000000	-1.000000	-1.000000	-1.000000	-1.000000	-1.000000	66.000000	0.000000	-1.000000	-1.000000	290877.000000	1776576980.598606
31048.110000	-84056.670000	-8089.515000	8184.105000	714.060000	2110.905000	6449.220000	-29210.850000	-4.214579	-2.366376	-2.148537	-3.194165	2.947855	37.495594	-3.552485	-5.116017	-3.082520	2.929920	-2.823100	-0.564452	0.141296	0.796873	-1.000000	-1.000000	-1.000000	-1.000000	-1.000000	-1.000000	-1.000000	66.000000	0.000000	-1.000000	-1.000000	290878.000000	1776576980.600809
31045.050000	-84039.255000	-8088.615000	8173.980000	691.785000	2120.265000	6445.980000	-29208.105000	-1.907899	-0.456889	-0.414201	-1.705757	6.818011	46.884975	0.036803	-3.052372	-3.082520	2.929920	-2.823100	-0.564452	0.141296	0.796873	-1.000000	-1.000000	-1.000000	-1.000000	-1.000000	-1.000000	-1.000000	66.000000	0.000000	-1.000000	-1.000000	290879.000000	1776576980.600821
31053.150000	-84041.010000	-8087.175000	8180.055000	698.805000	2109.420000	6442.560000	-29197.215000	0.806754	2.149275	0.736739	-1.202615	5.989854	32.302318	3.164320	0.004927	-3.082520	2.929920	-2.823100	-0.564452	0.141296	0.796873	-1.000000	-1.000000	-1.000000	-1.000000	-1.000000	-1.000000	-1.000000	66.000000	0.000000	-1.000000	-1.000000	290880.000000	1776576980.604667
31058.595000	-84059.370000	-8094.780000	8178.075000	694.530000	2095.875000	6446.115000	-29188.530000	3.488228	4.064088	1.474624	-0.353768	1.557316	5.788520	4.077554	3.901360	-3.082520	2.929920	-2.823100	-0.564452	0.141296	0.796873	-1.000000	-1.000000	-1.000000	-1.000000	-1.000000	-1.000000	-1.000000	66.000000	0.000000	-1.000000	-1.000000	290881.000000	1776576980.604681
31064.895000	-84062.025000	-8104.185000	8165.385000	673.830000	2075.220000	6449.220000	-29173.545000	5.742613	2.913057	1.385975	1.427423	-3.115431	-19.458054	2.982582	7.809584	-3.082520	2.929920	-2.823100	-0.564452	0.141296	0.796873	-1.000000	-1.000000	-1.000000	-1.000000	-1.000000	-1.000000	-1.000000	66.000000	0.000000	-1.000000	-1.000000	290882.000000	1776576980.608670
31073.535000	-84059.145000	-8104.455000	8169.975000	677.610000	2074.365000	6457.320000	-29162.565000	6.790774	-0.994987	0.239527	3.065930	-5.916342	-34.118548	1.436416	10.090481	-3.082520	2.929920	-2.823100	-0.564452	0.141296	0.796873	-1.000000	-1.000000	-1.000000	-1.000000	-1.000000	-1.000000	-1.000000	66.000000	0.000000	-1.000000	-1.000000	290883.000000	1776576980.608685
31072.635000	-84057.120000	-8095.995000	8189.730000	703.620000	2087.415000	6457.230000	-29168.865000	5.917230	-4.244542	-0.825839	4.129178	-5.368437	-33.914640	0.582764	9.076298	-3.082520	2.929920	-2.823100	-0.564452	0.141296	0.796873	-1.000000	-1.000000	-1.000000	-1.000000	-1.000000	-1.000000	-1.000000	66.000000	0.000000	-1.000000	-1.000000	290884.000000	1776576980.612600
31068.180000	-84052.440000	-8086.635000	8196.030000	717.480000	2094.435000	6455.880000	-29183.625000	2.816421	-4.119875	-0.053428	5.579917	-0.162351	-20.189431	0.210578	3.665991	-3.082520	2.929920	-2.823100	-0.564452	0.141296	0.796873	-1.000000	-1.000000	-1.000000	-1.000000	-1.000000	-1.000000	-1.000000	66.000000	0.000000	-1.000000	-1.000000	290885.000000	1776576980.612609
31070.835000	-84047.355000	-8085.150000	8185.185000	702.270000	2093.400000	6446.970000	-29193.390000	-1.897439	-0.850237	2.694558	6.864814	7.348302	-0.150178	-0.705237	-5.275477	-0.701960	1.709120	-2.624720	-0.562315	0.140136	0.798643	-1.000000	-1.000000	-1.000000	-1.000000	-1.000000	-1.000000	-1.000000	66.000000	0.000000	-1.000000	-1.000000	290886.000000	1776576980.616604
31072.230000	-84048.795000	-8093.340000	8170.155000	681.615000	2071.305000	6431.760000	-29195.595000	-6.239380	3.210860	5.123693	5.211430	10.820409	15.980843	-2.841160	-13.887474	-0.701960	1.709120	-2.624720	-0.562315	0.140136	0.798643	-1.000000	-1.000000	-1.000000	-1.000000	-1.000000	-1.000000	-1.000000	66.000000	0.000000	-1.000000	-1.000000	290887.000000	1776576980.616613
31067.100000	-84053.295000	-8095.905000	8172.495000	688.455000	2084.580000	6442.965000	-29196.990000	-8.162767	5.326912	4.563202	-0.478956	6.449643	21.231192	-5.375139	-17.307443	-0.701960	1.709120	-2.624720	-0.562315	0.140136	0.798643	-1.000000	-1.000000	-1.000000	-1.000000	-1.000000	-1.000000	-1.000000	66.000000	0.000000	-1.000000	-1.000000	290888.000000	1776576980.620589
31070.160000	-84047.805000	-8088.120000	8185.770000	706.545000	2101.320000	6449.535000	-29191.590000	-7.193463	4.273653	0.986072	-6.823313	-1.915464	16.795991	-5.758346	-13.288391	-0.701960	1.709120	-2.624720	-0.562315	0.140136	0.798643	-1.000000	-1.000000	-1.000000	-1.000000	-1.000000	-1.000000	-1.000000	66.000000	0.000000	-1.000000	-1.000000	290889.000000	1776576980.620598
31078.125000	-84039.165000	-8080.065000	8196.570000	716.265000	2092.860000	6449.670000	-29178.855000	-4.001694	1.390406	-2.721921	-8.824826	-6.881725	8.986415	-2.385151	-3.527208	-0.701960	1.709120	-2.624720	-0.562315	0.140136	0.798643	-1.000000	-1.000000	-1.000000	-1.000000	-1.000000	-1.000000	-1.000000	66.000000	0.000000	-1.000000	-1.000000	290890.000000	1776576980.624712
31076.055000	-84040.560000	-8079.660000	8195.400000	703.710000	2104.605000	6454.080000	-29179.170000	0.320205	-0.973564	-3.919663	-5.156907	-5.719301	2.156035	2.967536	7.584282	-0.701960	1.709120	-2.624720	-0.562315	0.140136	0.798643	-1.000000	-1.000000	-1.000000	-1.000000	-1.000000	-1.000000	-1.000000	66.000000	0.000000	-1.000000	-1.000000	290891.000000	1776576980.624722
31071.015000	-84041.820000	-8080.740000	8190.855000	692.100000	2114.685000	6461.460000	-29183.895000	3.924910	-1.990611	-2.758900	0.595261	-2.205724	-2.414483	7.056841	14.848337	-0.701960	1.709120	-2.624720	-0.562315	0.140136	0.798643	-1.000000	-1.000000	-1.000000	-1.000000	-1.000000	-1.000000	-1.000000	66.000000	0.000000	-1.000000	-1.000000	290892.000000	1776576980.628556
31076.190000	-84036.240000	-8073.855000	8201.385000	708.705000	2124.045000	6462.945000	-29180.205000	5.112204	-2.259908	-1.070527	4.050784	-0.558497	-4.355905	8.040717	15.031293	-0.701960	1.709120	-2.624720	-0.562315	0.140136	0.798643	-1.000000	-1.000000	-1.000000	-1.000000	-1.000000	-1.000000	-1.000000	66.000000	0.000000	-1.000000	-1.000000	290893.000000	1776576980.628566
31075.110000	-84041.190000	-8075.970000	8206.380000	712.980000	2088.045000	6447.870000	-29184.075000	3.985030	-2.242464	-0.046537	4.130515	-0.499853	-4.961483	5.559345	9.063111	-0.701960	1.709120	-2.624720	-0.562315	0.140136	0.798643	-1.000000	-1.000000	-1.000000	-1.000000	-1.000000	-1.000000	-1.000000	66.000000	0.000000	-1.000000	-1.000000	290894.000000	1776576980.632765
31071.060000	-84045.375000	-8080.605000	8196.660000	696.870000	2056.365000	6444.135000	-29191.095000	1.844369	-2.188428	-0.007743	2.185555	-0.159249	-7.455662	0.184159	0.665607	-0.701960	1.709120	-2.624720	-0.562315	0.140136	0.798643	-1.000000	-1.000000	-1.000000	-1.000000	-1.000000	-1.000000	-1.000000	66.000000	0.000000	-1.000000	-1.000000	290895.000000	1776576980.632781
31065.030000	-84050.640000	-8090.235000	8180.370000	696.690000	2094.795000	6442.920000	-29199.285000	-0.405960	-2.366686	-1.059986	-0.981996	0.063865	-11.873431	-5.838769	-6.605919	0.167860	2.563680	-1.724380	-0.560790	0.140686	0.799742	-1.000000	-1.000000	-1.000000	-1.000000	-1.000000	-1.000000	-1.000000	66.000000	0.000000	-1.000000	-1.000000	290896.000000	1776576980.636590
31070.385000	-84042.720000	-8083.395000	8188.875000	702.135000	2075.130000	6441.660000	-29195.190000	-2.161952	-2.381754	-2.604255	-4.690423	-0.476299	-12.644821	-9.186368	-10.412362	0.167860	2.563680	-1.724380	-0.560790	0.140686	0.799742	-1.000000	-1.000000	-1.000000	-1.000000	-1.000000	-1.000000	-1.000000	66.000000	0.000000	-1.000000	-1.000000	290897.000000	1776576980.636609
31060.980000	-84050.235000	-8086.815000	8194.050000	703.935000	2038.680000	6455.295000	-29198.655000	-2.736226	-1.393452	-3.113364	-6.578108	-0.668057	-7.167657	-7.829871	-9.672884	0.167860	2.563680	-1.724380	-0.560790	0.140686	0.799742	-1.000000	-1.000000	-1.000000	-1.000000	-1.000000	-1.000000	-1.000000	66.000000	0.000000	-1.000000	-1.000000	290898.000000	1776576980.640651
31064.355000	-84052.530000	-8093.790000	8189.235000	697.320000	2051.145000	6459.435000	-29193.345000	-2.040407	0.435115	-1.817837	-4.643056	0.258864	0.165044	-2.279534	-5.106423	0.167860	2.563680	-1.724380	-0.560790	0.140686	0.799742	-1.000000	-1.000000	-1.000000	-1.000000	-1.000000	-1.000000	-1.000000	66.000000	0.000000	-1.000000	-1.000000	290899.000000	1776576980.640664
31062.420000	-84063.060000	-8109.135000	8168.985000	683.460000	2111.445000	6452.820000	-29191.905000	-0.592055	1.815419	0.046014	-0.475448	1.147760	6.942530	4.368906	0.986028	0.167860	2.563680	-1.724380	-0.560790	0.140686	0.799742	-1.000000	-1.000000	-1.000000	-1.000000	-1.000000	-1.000000	-1.000000	66.000000	0.000000	-1.000000	-1.000000	290900.000000	1776576980.644656
31065.975000	-84060.765000	-8103.735000	8174.880000	696.960000	2127.555000	6459.840000	-29185.065000	1.101836	1.928093	0.974016	2.453387	0.837984	15.305857	8.141624	6.057823	0.167860	2.563680	-1.724380	-0.560790	0.140686	0.799742	-1.000000	-1.000000	-1.000000	-1.000000	-1.000000	-1.000000	-1.000000	66.000000	0.000000	-1.000000	-1.000000	290901.000000	1776576980.644666
31073.580000	-84056.625000	-8098.650000	8181.990000	704.970000	2130.345000	6464.205000	-29179.575000	2.685103	1.455643	1.423864	3.283404	0.430319	23.295420	7.526518	8.482458	0.167860	2.563680	-1.724380	-0.560790	0.140686	0.799742	-1.000000	-1.000000	-1.000000	-1.000000	-1.000000	-1.000000	-1.000000	66.000000	0.000000	-1.000000	-1.000000	290902.000000	1776576980.648543
31080.375000	-84047.805000	-8091.135000	8186.580000	699.570000	2132.910000	6462.315000	-29179.620000	3.945264	1.785532	2.858618	3.830942	1.407715	23.662307	4.019444	7.837335	0.167860	2.563680	-1.724380	-0.560790	0.140686	0.799742	-1.000000	-1.000000	-1.000000	-1.000000	-1.000000	-1.000000	-1.000000	66.000000	0.000000	-1.000000	-1.000000	290903.000000	1776576980.648555
31072.185000	-84058.605000	-8104.905000	8168.040000	682.155000	2141.730000	6461.595000	-29184.120000	4.295903	3.028914	4.950789	4.614041	2.508732	12.973169	-0.276912	4.474510	0.167860	2.563680	-1.724380	-0.560790	0.140686	0.799742	-1.000000	-1.000000	-1.000000	-1.000000	-1.000000	-1.000000	-1.000000	66.000000	0.000000	-1.000000	-1.000000	290904.000000	1776576980.652585
31075.425000	-84050.235000	-8094.555000	8177.985000	674.820000	2139.570000	6458.130000	-29181.285000	2.785539	3.644223	5.605381	4.086903	1.246317	-4.083268	-3.914175	-0.491607	0.167860	2.563680	-1.724380	-0.560790	0.140686	0.799742	-1.000000	-1.000000	-1.000000	-1.000000	-1.000000	-1.000000	-1.000000	66.000000	0.000000	-1.000000	-1.000000	290905.000000	1776576980.652597
31071.960000	-84043.755000	-8084.475000	8193.915000	695.430000	2067.210000	6462.315000	-29188.440000	-0.450078	2.761102	4.131303	2.204868	-1.838333	-20.615540	-5.885423	-5.138436	0.045780	3.250380	-0.534100	-0.560057	0.140503	0.801267	-1.000000	-1.000000	-1.000000	-1.000000	-1.000000	-1.000000	-1.000000	66.000000	0.000000	-1.000000	-1.000000	290906.000000	1776576980.656630
31064.220000	-84046.140000	-8087.040000	8194.050000	701.280000	2007.855000	6466.500000	-29197.980000	-3.958184	1.096829	1.893800	0.961605	-3.041094	-33.666121	-5.509911	-7.911772	0.045780	3.250380	-0.534100	-0.560057	0.140503	0.801267	-1.000000	-1.000000	-1.000000	-1.000000	-1.000000	-1.000000	-1.000000	66.000000	0.000000	-1.000000	-1.000000	290907.000000	1776576980.656642
31079.970000	-84033.000000	-8077.005000	8202.195000	699.525000	2003.445000	6471.405000	-29188.530000	-5.993697	-0.495169	-0.107357	0.967465	-0.553010	-40.653189	-2.879935	-8.168313	0.045780	3.250380	-0.534100	-0.560057	0.140503	0.801267	-1.000000	-1.000000	-1.000000	-1.000000	-1.000000	-1.000000	-1.000000	66.000000	0.000000	-1.000000	-1.000000	290908.000000	1776576980.660540
31073.355000	-84037.365000	-8081.145000	8193.465000	695.250000	2012.580000	6461.730000	-29202.255000	-5.221380	-1.579848	-1.803895	0.749992	2.982763	-35.001005	0.544234	-5.783627	0.045780	3.250380	-0.534100	-0.560057	0.140503	0.801267	-1.000000	-1.000000	-1.000000	-1.000000	-1.000000	-1.000000	-1.000000	66.000000	0.000000	-1.000000	-1.000000	290909.000000	1776576980.660547
31070.655000	-84032.955000	-8068.230000	8211.060000	718.920000	2076.390000	6442.425000	-29214.990000	-2.177833	-2.210938	-3.118908	-0.765049	4.450660	-12.064563	2.225126	-2.031691	0.045780	3.250380	-0.534100	-0.560057	0.140503	0.801267	-1.000000	-1.000000	-1.000000	-1.000000	-1.000000	-1.000000	-1.000000	66.000000	0.000000	-1.000000	-1.000000	290910.000000	1776576980.664486
31076.820000	-84026.295000	-8058.915000	8224.200000	727.470000	2111.085000	6432.885000	-29210.130000	0.965770	-2.610113	-3.505877	-2.486200	3.978390	22.970709	0.561842	1.043491	0.045780	3.250380	-0.534100	-0.560057	0.140503	0.801267	-1.000000	-1.000000	-1.000000	-1.000000	-1.000000	-1.000000	-1.000000	66.000000	0.000000	-1.000000	-1.000000	290911.000000	1776576980.664492
31069.035000	-84042.270000	-8084.655000	8184.375000	687.420000	2094.210000	6447.645000	-29206.395000	2.743050	-2.850093	-3.071139	-3.426740	2.172696	54.021307	-2.631110	3.159847	0.045780	3.250380	-0.534100	-0.560057	0.140503	0.801267	-1.000000	-1.000000	-1.000000	-1.000000	-1.000000	-1.000000	-1.000000	66.000000	0.000000	-1.000000	-1.000000	290912.000000	1776576980.668520
31055.175000	-84062.880000	-8110.710000	8153.055000	677.205000	2106.360000	6456.015000	-29206.620000	2.582232	-3.728789	-3.929187	-5.703721	-2.509512	62.939137	-3.127167	5.171880	0.045780	3.250380	-0.534100	-0.560057	0.140503	0.801267	-1.000000	-1.000000	-1.000000	-1.000000	-1.000000	-1.000000	-1.000000	66.000000	0.000000	-1.000000	-1.000000	290913.000000	1776576980.668533
31058.910000	-84063.555000	-8108.595000	8167.185000	687.285000	2093.535000	6456.105000	-29196.810000	0.578046	-5.703794	-7.137331	-10.202092	-9.187797	44.069278	0.839686	6.930417	0.045780	3.250380	-0.534100	-0.560057	0.140503	0.801267	-1.000000	-1.000000	-1.000000	-1.000000	-1.000000	-1.000000	-1.000000	66.000000	0.000000	-1.000000	-1.000000	290914.000000	1776576980.672474
31071.645000	-84056.355000	-8104.185000	8173.260000	679.095000	2075.445000	6461.550000	-29181.510000	-1.345090	-6.653356	-9.316283	-12.045386	-12.607307	7.955628	6.377546	7.786510	0.045780	3.250380	-0.534100	-0.560057	0.140503	0.801267	-1.000000	-1.000000	-1.000000	-1.000000	-1.000000	-1.000000	-1.000000	66.000000	0.000000	-1.000000	-1.000000	290915.000000	1776576980.672484
31077.135000	-84051.900000	-8100.495000	8172.495000	674.550000	2070.900000	6465.510000	-29178.495000	-0.694052	-3.698390	-6.203543	-6.497436	-9.493804	-27.930156	9.376527	7.408419	-1.587040	3.586100	-0.442540	-0.559813	0.138610	0.801573	-1.000000	-1.000000	-1.000000	-1.000000	-1.000000	-1.000000	-1.000000	66.000000	0.000000	-1.000000	-1.000000	290916.000000	1776576980.676576
31077.900000	-84046.770000	-8095.770000	8170.290000	676.710000	2050.425000	6462.405000	-29185.065000	2.393021	2.930263	1.991146	4.229667	-1.907589	-49.089794	8.017037	5.061008	-1.587040	3.586100	-0.442540	-0.559813	0.138610	0.801573	-1.000000	-1.000000	-1.000000	-1.000000	-1.000000	-1.000000	-1.000000	66.000000	0.000000	-1.000000	-1.000000	290917.000000	1776576980.676583
31080.015000	-84034.440000	-8075.790000	8200.710000	706.545000	2056.860000	6459.840000	-29188.035000	5.104514	9.858811	11.130622	14.071273	6.556587	-49.689174	3.014087	0.061694	-1.587040	3.586100	-0.442540	-0.559813	0.138610	0.801573	-1.000000	-1.000000	-1.000000	-1.000000	-1.000000	-1.000000	-1.000000	66.000000	0.000000	-1.000000	-1.000000	290918.000000	1776576980.680515
31065.210000	-84046.050000	-8083.980000	8198.370000	706.005000	2071.710000	6463.530000	-29197.350000	4.769623	13.308813	16.737906	19.045369	13.507247	-32.629396	-3.211901	-6.496407	-1.587040	3.586100	-0.442540	-0.559813	0.138610	0.801573	-1.000000	-1.000000	-1.000000	-1.000000	-1.000000	-1.000000	-1.000000	66.000000	0.000000	-1.000000	-1.000000	290919.000000	1776576980.680537
31065.480000	-84047.715000	-8082.990000	8207.415000	712.170000	2078.280000	6469.380000	-29195.010000	0.896175	11.018254	15.825659	17.744500	16.498873	-6.353914	-7.551871	-11.746096	-1.587040	3.586100	-0.442540	-0.559813	0.138610	0.801573	-1.000000	-1.000000	-1.000000	-1.000000	-1.000000	-1.000000	-1.000000	66.000000	0.000000	-1.000000	-1.000000	290920.000000	1776576980.684794
31082.535000	-84036.150000	-8073.270000	8218.395000	729.405000	2072.835000	6470.505000	-29177.370000	-3.949246	4.022802	8.585529	10.689422	13.721832	17.950774	-8.065748	-12.536262	-1.587040	3.586100	-0.442540	-0.559813	0.138610	0.801573	-1.000000	-1.000000	-1.000000	-1.000000	-1.000000	-1.000000	-1.000000	66.000000	0.000000	-1.000000	-1.000000	290921.000000	1776576980.684813
31077.585000	-84042.945000	-8089.380000	8183.115000	682.920000	2061.810000	6471.225000	-29179.170000	-5.937219	-3.537490	-1.318978	0.180764	5.600112	30.530416	-5.324050	-7.607405	-1.587040	3.586100	-0.442540	-0.559813	0.138610	0.801573	-1.000000	-1.000000	-1.000000	-1.000000	-1.000000	-1.000000	-1.000000	66.000000	0.000000	-1.000000	-1.000000	290922.000000	1776576980.688599
31068.495000	-84049.515000	-8096.310000	8179.425000	670.230000	2049.795000	6466.770000	-29186.550000	-4.307586	-8.315253	-10.000243	-11.262266	-6.369872	27.967699	-1.654701	0.273686	-1.587040	3.586100	-0.442540	-0.559813	0.138610	0.801573	-1.000000	-1.000000	-1.000000	-1.000000	-1.000000	-1.000000	-1.000000	66.000000	0.000000	-1.000000	-1.000000	290923.000000	1776576980.688609
31075.785000	-84042.450000	-8094.330000	8172.315000	663.795000	2012.130000	6452.235000	-29187.945000	-1.581115	-9.612853	-14.976289	-20.169563	-18.349258	14.000462	0.555893	6.064647	-1.587040	3.586100	-0.442540	-0.559813	0.138610	0.801573	-1.000000	-1.000000	-1.000000	-1.000000	-1.000000	-1.000000	-1.000000	66.000000	0.000000	-1.000000	-1.000000	290924.000000	1776576980.694549
31067.190000	-84036.375000	-8082.450000	8190.990000	683.775000	2043.495000	6456.915000	-29204.865000	0.273276	-7.617582	-14.359503	-21.804372	-23.325287	-2.969089	0.418601	6.834952	-1.587040	3.586100	-0.442540	-0.559813	0.138610	0.801573	-1.000000	-1.000000	-1.000000	-1.000000	-1.000000	-1.000000	-1.000000	66.000000	0.000000	-1.000000	-1.000000	290925.000000	1776576980.694558
31066.020000	-84028.410000	-8065.845000	8218.350000	705.015000	2034.900000	6447.060000	-29210.940000	0.906488	-2.958804	-7.713446	-13.574633	-16.392652	-13.304170	-0.787733	3.225453	-1.449700	4.394880	0.946120	-0.560118	0.138794	0.801084	-1.000000	-1.000000	-1.000000	-1.000000	-1.000000	-1.000000	-1.000000	66.000000	0.000000	-1.000000	-1.000000	290926.000000	1776576980.696738
31069.890000	-83987.595000	-8050.005000	8220.420000	702.855000	2005.020000	6441.210000	-29188.350000	0.757702	3.146050	2.553736	1.641278	-0.295084	-13.110895	-1.316490	-1.216509	-1.449700	4.394880	0.946120	-0.560118	0.138794	0.801084	-1.000000	-1.000000	-1.000000	-1.000000	-1.000000	-1.000000	-1.000000	66.000000	0.000000	-1.000000	-1.000000	290927.000000	1776576980.696747
31069.080000	-83999.745000	-8062.695000	8210.655000	713.160000	2010.555000	6454.890000	-29184.525000	0.744658	8.950490	11.385367	15.489803	15.597110	-6.974461	-0.374145	-2.117824	-1.449700	4.394880	0.946120	-0.560118	0.138794	0.801084	-1.000000	-1.000000	-1.000000	-1.000000	-1.000000	-1.000000	-1.000000	66.000000	0.000000	-1.000000	-1.000000	290928.000000	1776576980.700684
31058.775000	-84048.480000	-8091.045000	8192.475000	702.540000	2105.820000	6460.335000	-29204.190000	1.102872	10.194384	13.065104	19.439632	22.427768	1.225106	2.350173	0.983027	-1.449700	4.394880	0.946120	-0.560118	0.138794	0.801084	-1.000000	-1.000000	-1.000000	-1.000000	-1.000000	-1.000000	-1.000000	66.000000	0.000000	-1.000000	-1.000000	290929.000000	1776576980.700692
31054.185000	-84062.070000	-8106.345000	8177.985000	691.110000	2136.555000	6457.410000	-29206.485000	0.962479	2.568065	5.437756	11.511266	17.461600	12.829372	5.911263	3.783392	-1.449700	4.394880	0.946120	-0.560118	0.138794	0.801084	-1.000000	-1.000000	-1.000000	-1.000000	-1.000000	-1.000000	-1.000000	66.000000	0.000000	-1.000000	-1.000000	290930.000000	1776576980.704621
31067.370000	-84056.670000	-8105.760000	8180.595000	685.665000	2089.935000	6468.705000	-29189.655000	0.203975	-10.436133	-6.716290	-2.286198	4.410585	23.889401	7.931368	3.406367	-1.449700	4.394880	0.946120	-0.560118	0.138794	0.801084	-1.000000	-1.000000	-1.000000	-1.000000	-1.000000	-1.000000	-1.000000	66.000000	0.000000	-1.000000	-1.000000	290931.000000	1776576980.704630
31059.765000	-84054.195000	-8099.685000	8187.705000	679.095000	2064.960000	6474.465000	-29193.255000	0.052690	-18.477590	-14.566493	-12.540014	-9.261628	22.210667	7.078702	1.538597	-1.449700	4.394880	0.946120	-0.560118	0.138794	0.801084	-1.000000	-1.000000	-1.000000	-1.000000	-1.000000	-1.000000	-1.000000	66.000000	0.000000	-1.000000	-1.000000	290932.000000	1776576980.708710
31050.360000	-84061.215000	-8110.440000	8163.900000	654.210000	2051.505000	6468.930000	-29194.290000	0.672410	-15.137447	-12.858536	-13.785391	-17.233636	2.957566	3.829678	0.289912	-1.449700	4.394880	0.946120	-0.560118	0.138794	0.801084	-1.000000	-1.000000	-1.000000	-1.000000	-1.000000	-1.000000	-1.000000	66.000000	0.000000	-1.000000	-1.000000	290933.000000	1776576980.708718
31056.750000	-84053.745000	-8103.465000	8168.670000	665.730000	2048.940000	6459.660000	-29190.915000	0.836354	-3.210360	-3.766970	-7.941213	-17.437482	-22.564725	-1.039382	-0.389607	-1.449700	4.394880	0.946120	-0.560118	0.138794	0.801084	-1.000000	-1.000000	-1.000000	-1.000000	-1.000000	-1.000000	-1.000000	66.000000	0.000000	-1.000000	-1.000000	290934.000000	1776576980.713216
31054.905000	-84050.145000	-8091.720000	8194.095000	699.435000	2079.045000	6464.025000	-29194.920000	0.369848	9.913971	6.860219	0.449897	-10.106769	-37.142468	-6.318243	-1.062209	-1.449700	4.394880	0.946120	-0.560118	0.138794	0.801084	-1.000000	-1.000000	-1.000000	-1.000000	-1.000000	-1.000000	-1.000000	66.000000	0.000000	-1.000000	-1.000000	290935.000000	1776576980.713226
31047.210000	-84051.225000	-8084.880000	8213.535000	722.025000	2114.190000	6462.090000	-29205.315000	-0.052006	18.025429	14.413675	9.024042	3.262943	-31.044639	-9.672625	-2.022470	-2.212700	4.700080	0.061040	-0.562193	0.140319	0.799986	-1.000000	-1.000000	-1.000000	-1.000000	-1.000000	-1.000000	-1.000000	66.000000	0.000000	-1.000000	-1.000000	290936.000000	1776576980.720075
31060.260000	-84040.155000	-8078.535000	8209.710000	715.995000	2120.310000	6461.145000	-29196.450000	-0.192193	18.530748	16.535646	15.566184	17.125824	-8.192398	-9.293905	-3.165312	-2.212700	4.700080	0.061040	-0.562193	0.140319	0.799986	-1.000000	-1.000000	-1.000000	-1.000000	-1.000000	-1.000000	-1.000000	66.000000	0.000000	-1.000000	-1.000000	290937.000000	1776576980.720088
31065.975000	-84040.515000	-8087.220000	8184.105000	677.295000	2080.305000	6464.610000	-29191.545000	0.380357	12.756777	12.667384	15.852995	22.392408	15.943692	-5.545078	-3.307566	-2.212700	4.700080	0.061040	-0.562193	0.140319	0.799986	-1.000000	-1.000000	-1.000000	-1.000000	-1.000000	-1.000000	-1.000000	66.000000	0.000000	-1.000000	-1.000000	290938.000000	1776576980.720763
31052.385000	-84037.455000	-8092.980000	8182.620000	675.090000	1998.540000	6464.430000	-29195.055000	1.544288	4.125320	4.037828	7.437935	13.832698	24.235961	-0.319921	-1.524658	-2.212700	4.700080	0.061040	-0.562193	0.140319	0.799986	-1.000000	-1.000000	-1.000000	-1.000000	-1.000000	-1.000000	-1.000000	66.000000	0.000000	-1.000000	-1.000000	290939.000000	1776576980.720775
31052.070000	-84025.215000	-8096.265000	8170.560000	647.820000	1984.635000	6450.705000	-29190.015000	1.651587	-3.883537	-6.175702	-5.894524	-3.753074	11.249103	3.931540	1.181150	-2.212700	4.700080	0.061040	-0.562193	0.140319	0.799986	-1.000000	-1.000000	-1.000000	-1.000000	-1.000000	-1.000000	-1.000000	66.000000	0.000000	-1.000000	-1.000000	290940.000000	1776576980.724638
31062.915000	-84035.070000	-8091.720000	8179.740000	660.150000	2042.460000	6450.885000	-29191.185000	0.049110	-8.865083	-13.566655	-16.296181	-19.147899	-9.557959	5.222621	3.076255	-2.212700	4.700080	0.061040	-0.562193	0.140319	0.799986	-1.000000	-1.000000	-1.000000	-1.000000	-1.000000	-1.000000	-1.000000	66.000000	0.000000	-1.000000	-1.000000	290941.000000	1776576980.724652
31069.935000	-84039.750000	-8090.595000	8186.670000	674.550000	2061.180000	6450.930000	-29189.790000	-1.394076	-10.660623	-14.869051	-17.857516	-22.983851	-16.952406	3.742596	3.309230	-2.212700	4.700080	0.061040	-0.562193	0.140319	0.799986	-1.000000	-1.000000	-1.000000	-1.000000	-1.000000	-1.000000	-1.000000	66.000000	0.000000	-1.000000	-1.000000	290942.000000	1776576980.729454
31076.280000	-84033.900000	-8081.685000	8203.860000	692.910000	2005.695000	6454.800000	-29184.840000	-0.969643	-10.325143	-10.026266	-10.098568	-13.138198	-5.045154	1.689511	2.140197	-2.212700	4.700080	0.061040	-0.562193	0.140319	0.799986	-1.000000	-1.000000	-1.000000	-1.000000	-1.000000	-1.000000	-1.000000	66.000000	0.000000	-1.000000	-1.000000	290943.000000	1776576980.729475
31075.920000	-84027.780000	-8072.505000	8214.570000	691.830000	1981.530000	6467.580000	-29183.895000	0.682342	-7.970125	-1.809401	2.395893	3.993576	11.344814	1.101830	0.549443	-2.212700	4.700080	0.061040	-0.562193	0.140319	0.799986	-1.000000	-1.000000	-1.000000	-1.000000	-1.000000	-1.000000	-1.000000	66.000000	0.000000	-1.000000	-1.000000	290944.000000	1776576980.732624
31059.810000	-84045.510000	-8097.390000	8176.680000	674.055000	2058.840000	6482.655000	-29190.555000	1.308944	-3.869578	5.479945	12.171616	17.441963	18.217571	2.592331	-0.810681	-2.212700	4.700080	0.061040	-0.562193	0.140319	0.799986	-1.000000	-1.000000	-1.000000	-1.000000	-1.000000	-1.000000	-1.000000	66.000000	0.000000	-1.000000	-1.000000	290945.000000	1776576980.732633
31052.250000	-84058.110000	-8115.705000	8159.355000	668.970000	2058.165000	6478.020000	-29190.555000	-0.824215	-0.217893	7.424833	12.528041	19.256624	17.326821	4.879967	-2.034939	-2.365300	4.059160	0.396760	-0.565855	0.140442	0.798338	-1.000000	-1.000000	-1.000000	-1.000000	-1.000000	-1.000000	-1.000000	66.000000	0.000000	-1.000000	-1.000000	290946.000000	1776576980.736634
31060.710000	-84044.655000	-8097.120000	8187.075000	682.605000	2011.095000	6472.080000	-29183.580000	-4.592673	1.339212	3.448184	3.953608	10.380735	13.737074	5.102527	-2.874183	-2.365300	4.059160	0.396760	-0.565855	0.140442	0.798338	-1.000000	-1.000000	-1.000000	-1.000000	-1.000000	-1.000000	-1.000000	66.000000	0.000000	-1.000000	-1.000000	290947.000000	1776576980.736642
31065.525000	-84032.370000	-8079.345000	8206.470000	686.565000	1970.505000	6477.795000	-29181.510000	-6.362666	2.410463	-1.115946	-4.572196	-1.098421	4.749807	1.587247	-2.441789	-2.365300	4.059160	0.396760	-0.565855	0.140442	0.798338	-1.000000	-1.000000	-1.000000	-1.000000	-1.000000	-1.000000	-1.000000	66.000000	0.000000	-1.000000	-1.000000	290948.000000	1776576980.740578
31073.085000	-84029.220000	-8082.855000	8192.250000	653.670000	1920.780000	6467.715000	-29179.890000	-3.803535	5.068451	-1.013321	-5.657712	-8.555666	-11.453673	-4.008027	-0.619075	-2.365300	4.059160	0.396760	-0.565855	0.140442	0.798338	-1.000000	-1.000000	-1.000000	-1.000000	-1.000000	-1.000000	-1.000000	66.000000	0.000000	-1.000000	-1.000000	290949.000000	1776576980.740586
31074.885000	-84030.120000	-8088.840000	8183.250000	663.795000	1973.835000	6462.720000	-29184.525000	1.692786	8.146374	2.619980	-1.431117	-11.304100	-26.843796	-8.656837	1.334569	-2.365300	4.059160	0.396760	-0.565855	0.140442	0.798338	-1.000000	-1.000000	-1.000000	-1.000000	-1.000000	-1.000000	-1.000000	66.000000	0.000000	-1.000000	-1.000000	290950.000000	1776576980.744504
31069.305000	-84028.680000	-8082.720000	8196.435000	696.870000	2041.785000	6469.245000	-29193.705000	6.399330	8.662007	5.024411	1.959048	-9.803657	-27.231299	-10.202998	1.817828	-2.365300	4.059160	0.396760	-0.565855	0.140442	0.798338	-1.000000	-1.000000	-1.000000	-1.000000	-1.000000	-1.000000	-1.000000	66.000000	0.000000	-1.000000	-1.000000	290951.000000	1776576980.744514
31048.245000	-84050.325000	-8097.390000	8188.290000	690.975000	2080.305000	6476.445000	-29206.260000	6.891070	5.046610	3.724578	2.274286	-3.442305	-6.379685	-7.573550	0.136570	-2.365300	4.059160	0.396760	-0.565855	0.140442	0.798338	-1.000000	-1.000000	-1.000000	-1.000000	-1.000000	-1.000000	-1.000000	66.000000	0.000000	-1.000000	-1.000000	290952.000000	1776576980.748708
31044.420000	-84057.120000	-8104.815000	8182.620000	689.040000	2105.190000	6470.145000	-29205.135000	2.408776	-1.884603	-0.589167	0.587493	4.848310	23.939660	-1.673126	-2.691290	-2.365300	4.059160	0.396760	-0.565855	0.140442	0.798338	-1.000000	-1.000000	-1.000000	-1.000000	-1.000000	-1.000000	-1.000000	66.000000	0.000000	-1.000000	-1.000000	290953.000000	1776576980.748721
31059.315000	-84039.210000	-8090.145000	8191.845000	685.305000	2058.435000	6465.285000	-29192.985000	-3.655537	-8.566464	-5.219197	-1.589390	9.283946	41.881625	4.183379	-4.035007	-2.365300	4.059160	0.396760	-0.565855	0.140442	0.798338	-1.000000	-1.000000	-1.000000	-1.000000	-1.000000	-1.000000	-1.000000	66.000000	0.000000	-1.000000	-1.000000	290954.000000	1776576980.752697
31059.630000	-84035.340000	-8086.725000	8197.245000	683.145000	2014.335000	6460.605000	-29193.615000	-6.113515	-10.186126	-6.595486	-2.469123	7.302531	32.513510	6.748210	-1.825426	-2.365300	4.059160	0.396760	-0.565855	0.140442	0.798338	-1.000000	-1.000000	-1.000000	-1.000000	-1.000000	-1.000000	-1.000000	66.000000	0.000000	-1.000000	-1.000000	290955.000000	1776576980.752713
31062.870000	-84028.455000	-8078.490000	8205.075000	679.275000	2002.590000	6460.650000	-29190.015000	-3.233353	-5.365654	-3.384435	-1.009859	1.172631	-0.257011	5.528485	2.875226	-1.617560	3.906560	0.198380	-0.567320	0.142089	0.796751	-1.000000	-1.000000	-1.000000	-1.000000	-1.000000	-1.000000	-1.000000	66.000000	0.000000	-1.000000	-1.000000	290956.000000	1776576980.756654
31071.015000	-84018.645000	-8069.670000	8215.020000	687.555000	2002.815000	6463.845000	-29183.760000	2.182559	2.388095	2.165769	1.930529	-4.743527	-35.363933	2.602741	6.863693	-1.617560	3.906560	0.198380	-0.567320	0.142089	0.796751	-1.000000	-1.000000	-1.000000	-1.000000	-1.000000	-1.000000	-1.000000	66.000000	0.000000	-1.000000	-1.000000	290957.000000	1776576980.756672
31069.710000	-84026.430000	-8080.740000	8205.885000	684.900000	1982.700000	6468.120000	-29183.895000	6.330221	8.120645	6.308730	4.204530	-7.037890	-51.326267	0.480449	7.840740	-1.617560	3.906560	0.198380	-0.567320	0.142089	0.796751	-1.000000	-1.000000	-1.000000	-1.000000	-1.000000	-1.000000	-1.000000	66.000000	0.000000	-1.000000	-1.000000	290958.000000	1776576980.760691
31057.425000	-84041.460000	-8103.465000	8169.930000	656.865000	2004.345000	6466.410000	-29199.240000	6.692917	8.335238	5.797569	3.070178	-5.773522	-41.462650	0.145923	5.182292	-1.617560	3.906560	0.198380	-0.567320	0.142089	0.796751	-1.000000	-1.000000	-1.000000	-1.000000	-1.000000	-1.000000	-1.000000	66.000000	0.000000	-1.000000	-1.000000	290959.000000	1776576980.760706
31052.295000	-84045.015000	-8104.635000	8175.060000	671.940000	2087.955000	6461.055000	-29212.200000	2.748490	2.761957	0.119885	-2.540518	-3.573010	-12.377325	0.626385	-0.591232	-1.617560	3.906560	0.198380	-0.567320	0.142089	0.796751	-1.000000	-1.000000	-1.000000	-1.000000	-1.000000	-1.000000	-1.000000	66.000000	0.000000	-1.000000	-1.000000	290960.000000	1776576980.764652
31050.270000	-84043.665000	-8095.275000	8193.870000	699.300000	2106.585000	6476.535000	-29209.590000	-3.305007	-4.811852	-6.658153	-8.573753	-0.883700	23.636362	0.701937	-7.159460	-1.617560	3.906560	0.198380	-0.567320	0.142089	0.796751	-1.000000	-1.000000	-1.000000	-1.000000	-1.000000	-1.000000	-1.000000	66.000000	0.000000	-1.000000	-1.000000	290961.000000	1776576980.764668
31047.705000	-84047.130000	-8099.640000	8193.285000	701.775000	2092.590000	6477.750000	-29206.350000	-7.708948	-9.251181	-9.002169	-8.830917	3.918827	49.983610	0.573886	-10.589961	-1.617560	3.906560	0.198380	-0.567320	0.142089	0.796751	-1.000000	-1.000000	-1.000000	-1.000000	-1.000000	-1.000000	-1.000000	66.000000	0.000000	-1.000000	-1.000000	290962.000000	1776576980.768616
31044.735000	-84044.880000	-8099.730000	8187.480000	691.920000	2068.425000	6478.110000	-29207.115000	-8.060939	-8.212320	-5.471698	-2.600358	9.109356	51.386831	0.681000	-8.422056	-1.617560	3.906560	0.198380	-0.567320	0.142089	0.796751	-1.000000	-1.000000	-1.000000	-1.000000	-1.000000	-1.000000	-1.000000	66.000000	0.000000	-1.000000	-1.000000	290963.000000	1776576980.768626
31044.870000	-84037.005000	-8091.540000	8190.270000	686.115000	2049.480000	6478.965000	-29207.790000	-4.702625	-2.929740	0.953656	4.916312	9.961590	26.188827	0.424535	-2.125303	-1.617560	3.906560	0.198380	-0.567320	0.142089	0.796751	-1.000000	-1.000000	-1.000000	-1.000000	-1.000000	-1.000000	-1.000000	66.000000	0.000000	-1.000000	-1.000000	290964.000000	1776576980.772722
31045.185000	-84023.820000	-8087.715000	8192.115000	678.555000	2010.960000	6481.350000	-29198.160000	0.288771	3.838952	6.668249	8.910678	4.646274	-11.396964	-0.664227	4.577829	-1.617560	3.906560	0.198380	-0.567320	0.142089	0.796751	-1.000000	-1.000000	-1.000000	-1.000000	-1.000000	-1.000000	-1.000000	66.000000	0.000000	-1.000000	-1.000000	290965.000000	1776576980.772730
31045.455000	-84030.390000	-8089.380000	8190.630000	667.530000	1977.435000	6480.945000	-29199.555000	4.633277	9.114005	9.336894	8.308685	-3.826382	-42.358349	-2.086632	8.770279	-2.411080	2.807840	1.724380	-0.568724	0.143493	0.795225	-1.000000	-1.000000	-1.000000	-1.000000	-1.000000	-1.000000	-1.000000	66.000000	0.000000	-1.000000	-1.000000	290966.000000	1776576980.776613
31043.700000	-84035.115000	-8086.365000	8205.390000	684.405000	2002.005000	6473.925000	-29205.720000	6.754344	10.109080	8.067047	4.839289	-10.289798	-53.120686	-3.188172	9.072603	-2.411080	2.807840	1.724380	-0.568724	0.143493	0.795225	-1.000000	-1.000000	-1.000000	-1.000000	-1.000000	-1.000000	-1.000000	66.000000	0.000000	-1.000000	-1.000000	290967.000000	1776576980.776624
31055.895000	-84018.915000	-8070.165000	8226.270000	697.725000	1954.890000	6469.290000	-29196.360000	6.408227	6.277289	4.065590	1.541228	-10.440063	-40.299869	-3.824864	5.685311	-2.411080	2.807840	1.724380	-0.568724	0.143493	0.795225	-1.000000	-1.000000	-1.000000	-1.000000	-1.000000	-1.000000	-1.000000	66.000000	0.000000	-1.000000	-1.000000	290968.000000	1776576980.780551
31060.260000	-84023.640000	-8080.920000	8199.630000	667.485000	1990.755000	6467.850000	-29196.180000	4.726814	0.467416	-0.208259	-0.029919	-4.516584	-12.099000	-3.889305	0.789849	-2.411080	2.807840	1.724380	-0.568724	0.143493	0.795225	-1.000000	-1.000000	-1.000000	-1.000000	-1.000000	-1.000000	-1.000000	66.000000	0.000000	-1.000000	-1.000000	290969.000000	1776576980.780560
31054.365000	-84034.215000	-8093.115000	8183.385000	674.370000	2049.660000	6475.815000	-29198.655000	2.674947	-4.328209	-3.788239	-2.031820	2.049614	19.122084	-2.763648	-3.100087	-2.411080	2.807840	1.724380	-0.568724	0.143493	0.795225	-1.000000	-1.000000	-1.000000	-1.000000	-1.000000	-1.000000	-1.000000	66.000000	0.000000	-1.000000	-1.000000	290970.000000	1776576980.784572
