Channel1	Channel2	Channel3	Channel4	Channel5	Channel6	Channel7	Channel8	FilteredChannel1	FilteredChannel2	FilteredChannel3	FilteredChannel4	FilteredChannel5	FilteredChannel6	FilteredChannel7	FilteredChannel8	GyroX	GyroY	GyroZ	AccX	AccY	AccZ	PPG1	PPG2	rawPPG1	rawPPG2	rawPPG3	Hr	Hrv	Battery	Trigger	PhysicalTrigger	AutoTrigger	NumMeasurements	Timestamp
-1910.250000	-38908.530000	6293.565000	38775.510000	-5333.085000	9041.130000	-27641.205000	11548.845000	-1.117731	-2.897631	-4.030288	-4.285656	-2.276769	-0.808430	-2.546465	-3.266968	12.604760	-17.320100	18.235700	-0.762693	-0.022644	0.638121	-1.000000	-1.000000	-1.000000	-1.000000	-1.000000	-1.000000	-1.000000	65.000000	0.000000	-1.000000	-1.000000	559108.000000	1776577517.334528
-1906.065000	-38907.585000	6289.605000	38763.225000	-5344.515000	9054.045000	-27631.845000	11554.920000	0.347359	-1.334027	-1.937914	-1.889615	-0.507743	-0.584173	-0.469024	0.305789	12.604760	-17.320100	18.235700	-0.762693	-0.022644	0.638121	-1.000000	-1.000000	-1.000000	-1.000000	-1.000000	-1.000000	-1.000000	65.000000	0.000000	-1.000000	-1.000000	559109.000000	1776577517.334543
-1905.120000	-38907.225000	6288.885000	38761.605000	-5347.890000	9053.595000	-27638.730000	11556.045000	1.479551	-0.286800	-0.800639	-1.364011	0.112074	1.888070	2.380521	4.044567	12.604760	-17.320100	18.235700	-0.762693	-0.022644	0.638121	-1.000000	-1.000000	-1.000000	-1.000000	-1.000000	-1.000000	-1.000000	65.000000	0.000000	-1.000000	-1.000000	559110.000000	1776577517.338606
-1896.390000	-38898.990000	6297.210000	38774.025000	-5336.595000	9053.280000	-27637.155000	11562.975000	2.507839	0.375117	-0.328000	-1.780138	-0.222471	4.615901	4.607733	6.856462	12.604760	-17.320100	18.235700	-0.762693	-0.022644	0.638121	-1.000000	-1.000000	-1.000000	-1.000000	-1.000000	-1.000000	-1.000000	65.000000	0.000000	-1.000000	-1.000000	559111.000000	1776577517.338620
-1900.755000	-38904.435000	6292.530000	38770.560000	-5337.720000	9046.935000	-27639.135000	11561.085000	3.277457	0.969410	0.383179	-1.018083	-0.229572	4.705687	4.738695	7.698249	12.604760	-17.320100	18.235700	-0.762693	-0.022644	0.638121	-1.000000	-1.000000	-1.000000	-1.000000	-1.000000	-1.000000	-1.000000	65.000000	0.000000	-1.000000	-1.000000	559112.000000	1776577517.342500
-1904.310000	-38905.290000	6292.260000	38767.635000	-5340.105000	9043.740000	-27639.270000	11557.755000	2.983462	1.201888	1.370352	1.292861	0.761030	1.340929	2.829232	5.961803	12.604760	-17.320100	18.235700	-0.762693	-0.022644	0.638121	-1.000000	-1.000000	-1.000000	-1.000000	-1.000000	-1.000000	-1.000000	65.000000	0.000000	-1.000000	-1.000000	559113.000000	1776577517.342513
-1904.355000	-38906.775000	6288.930000	38760.660000	-5348.790000	9038.880000	-27639.630000	11559.195000	1.067561	0.584387	1.805268	3.230324	1.609264	-3.637649	0.137868	2.023198	12.604760	-17.320100	18.235700	-0.762693	-0.022644	0.638121	-1.000000	-1.000000	-1.000000	-1.000000	-1.000000	-1.000000	-1.000000	65.000000	0.000000	-1.000000	-1.000000	559114.000000	1776577517.346363
-1904.850000	-38906.550000	6289.425000	38763.540000	-5350.005000	9035.730000	-27637.920000	11562.525000	-1.643755	-0.561065	1.316829	3.264259	1.087793	-7.372658	-1.944663	-2.364235	12.604760	-17.320100	18.235700	-0.762693	-0.022644	0.638121	-1.000000	-1.000000	-1.000000	-1.000000	-1.000000	-1.000000	-1.000000	65.000000	0.000000	-1.000000	-1.000000	559115.000000	1776577517.346398
-1903.095000	-38906.730000	6287.130000	38761.605000	-5351.445000	9035.820000	-27637.335000	11565.945000	-3.519985	-1.361103	0.364837	1.867332	-0.435637	-7.919734	-2.622657	-5.030752	12.604760	-17.320100	18.235700	-0.762693	-0.022644	0.638121	-1.000000	-1.000000	-1.000000	-1.000000	-1.000000	-1.000000	-1.000000	65.000000	0.000000	-1.000000	-1.000000	559116.000000	1776577517.350497
-1901.790000	-38907.540000	6284.070000	38757.870000	-5345.415000	9040.905000	-27636.390000	11566.755000	-3.551072	-1.287906	-0.431759	0.369698	-1.396082	-5.018864	-1.988082	-5.055730	12.604760	-17.320100	18.235700	-0.762693	-0.022644	0.638121	-1.000000	-1.000000	-1.000000	-1.000000	-1.000000	-1.000000	-1.000000	65.000000	0.000000	-1.000000	-1.000000	559117.000000	1776577517.350511
-1903.680000	-38908.395000	6283.845000	38760.840000	-5342.130000	9042.210000	-27638.685000	11564.910000	-1.992749	-0.505536	-0.784833	-0.475587	-0.619833	0.046883	-0.804878	-3.273556	-3.174080	-13.321980	20.845160	-0.753050	-0.012817	0.642638	-1.000000	-1.000000	-1.000000	-1.000000	-1.000000	-1.000000	-1.000000	65.000000	0.000000	-1.000000	-1.000000	559118.000000	1776577517.354503
-1907.865000	-38905.155000	6288.570000	38766.465000	-5337.630000	9044.415000	-27639.585000	11564.190000	-0.092583	0.500339	-0.523207	-0.370160	1.583303	4.968309	0.051604	-1.294133	-3.174080	-13.321980	20.845160	-0.753050	-0.012817	0.642638	-1.000000	-1.000000	-1.000000	-1.000000	-1.000000	-1.000000	-1.000000	65.000000	0.000000	-1.000000	-1.000000	559119.000000	1776577517.354521
-1913.220000	-38907.000000	6288.570000	38767.140000	-5337.000000	9042.705000	-27638.415000	11558.520000	0.866725	1.353135	0.445825	0.660006	3.671762	7.510179	0.235356	-0.238221	-3.174080	-13.321980	20.845160	-0.753050	-0.012817	0.642638	-1.000000	-1.000000	-1.000000	-1.000000	-1.000000	-1.000000	-1.000000	65.000000	0.000000	-1.000000	-1.000000	559120.000000	1776577517.358288
-1919.790000	-38910.870000	6285.060000	38763.900000	-5340.330000	9037.890000	-27639.990000	11551.365000	0.469156	1.658017	1.578492	1.752313	4.026150	6.644031	0.047581	-0.362678	-3.174080	-13.321980	20.845160	-0.753050	-0.012817	0.642638	-1.000000	-1.000000	-1.000000	-1.000000	-1.000000	-1.000000	-1.000000	65.000000	0.000000	-1.000000	-1.000000	559121.000000	1776577517.358299
-1921.455000	-38910.600000	6283.530000	38760.930000	-5347.530000	9032.040000	-27643.815000	11550.105000	-0.643660	1.109457	1.861782	1.661779	1.964099	2.915965	-0.181277	-1.164600	-3.174080	-13.321980	20.845160	-0.753050	-0.012817	0.642638	-1.000000	-1.000000	-1.000000	-1.000000	-1.000000	-1.000000	-1.000000	65.000000	0.000000	-1.000000	-1.000000	559122.000000	1776577517.362301
-1908.810000	-38901.465000	6291.360000	38766.510000	-5343.165000	9030.510000	-27650.880000	11553.210000	-1.024256	0.213309	1.087812	0.198565	-1.627368	-1.810084	-0.530103	-1.474585	-3.174080	-13.321980	20.845160	-0.753050	-0.012817	0.642638	-1.000000	-1.000000	-1.000000	-1.000000	-1.000000	-1.000000	-1.000000	65.000000	0.000000	-1.000000	-1.000000	559123.000000	1776577517.362310
-1905.210000	-38895.480000	6298.335000	38772.315000	-5340.330000	9023.850000	-27651.240000	11557.035000	0.594918	0.115432	0.317576	-1.318234	-4.475936	-5.274083	-1.065835	-0.235664	-3.174080	-13.321980	20.845160	-0.753050	-0.012817	0.642638	-1.000000	-1.000000	-1.000000	-1.000000	-1.000000	-1.000000	-1.000000	65.000000	0.000000	-1.000000	-1.000000	559124.000000	1776577517.366305
-1906.785000	-38895.255000	6303.285000	38785.410000	-5324.805000	9024.390000	-27650.520000	11556.315000	3.554399	1.083925	0.505895	-1.346001	-4.453536	-6.100272	-1.278283	2.305182	-3.174080	-13.321980	20.845160	-0.753050	-0.012817	0.642638	-1.000000	-1.000000	-1.000000	-1.000000	-1.000000	-1.000000	-1.000000	65.000000	0.000000	-1.000000	-1.000000	559125.000000	1776577517.366311
-1902.150000	-38888.775000	6311.385000	38793.555000	-5326.650000	9018.675000	-27653.760000	11555.280000	5.464586	2.017946	1.353130	0.411420	-1.401800	-4.342686	-0.579663	4.527330	-3.174080	-13.321980	20.845160	-0.753050	-0.012817	0.642638	-1.000000	-1.000000	-1.000000	-1.000000	-1.000000	-1.000000	-1.000000	65.000000	0.000000	-1.000000	-1.000000	559126.000000	1776577517.370246
-1902.915000	-38896.290000	6292.755000	38760.480000	-5364.495000	9022.455000	-27649.845000	11556.495000	4.733673	1.703232	1.471990	1.967522	1.678621	-1.100970	0.859899	4.882022	-3.174080	-13.321980	20.845160	-0.753050	-0.012817	0.642638	-1.000000	-1.000000	-1.000000	-1.000000	-1.000000	-1.000000	-1.000000	65.000000	0.000000	-1.000000	-1.000000	559127.000000	1776577517.370258
-1918.890000	-38911.590000	6282.135000	38760.660000	-5341.995000	9046.485000	-27642.780000	11549.160000	1.460289	-0.499905	-0.754510	0.252427	1.238135	2.708511	2.484096	3.089203	-1.007160	-10.361540	17.838940	-0.745909	-0.026916	0.647764	-1.000000	-1.000000	-1.000000	-1.000000	-1.000000	-1.000000	-1.000000	65.000000	0.000000	-1.000000	-1.000000	559128.000000	1776577517.374382
-1919.790000	-38911.725000	6278.805000	38754.990000	-5343.255000	9042.975000	-27644.400000	11552.760000	-3.289623	-4.183375	-5.071410	-4.526639	-1.563374	6.577905	3.767230	0.051957	-1.007160	-10.361540	17.838940	-0.745909	-0.026916	0.647764	-1.000000	-1.000000	-1.000000	-1.000000	-1.000000	-1.000000	-1.000000	65.000000	0.000000	-1.000000	-1.000000	559129.000000	1776577517.374394
-1906.065000	-38906.820000	6277.185000	38750.535000	-5354.145000	9027.135000	-27642.690000	11567.970000	-7.055039	-7.021682	-8.447185	-8.292278	-2.830576	8.469749	3.936367	-2.357927	-1.007160	-10.361540	17.838940	-0.745909	-0.026916	0.647764	-1.000000	-1.000000	-1.000000	-1.000000	-1.000000	-1.000000	-1.000000	65.000000	0.000000	-1.000000	-1.000000	559130.000000	1776577517.378487
-1903.365000	-38905.965000	6276.105000	38749.230000	-5357.970000	9017.325000	-27642.870000	11573.055000	-6.883770	-6.312494	-7.870750	-7.793118	-1.816734	5.567586	2.484904	-2.288895	-1.007160	-10.361540	17.838940	-0.745909	-0.026916	0.647764	-1.000000	-1.000000	-1.000000	-1.000000	-1.000000	-1.000000	-1.000000	65.000000	0.000000	-1.000000	-1.000000	559131.000000	1776577517.378503
-1914.525000	-38908.440000	6277.770000	38750.760000	-5355.945000	9019.845000	-27641.790000	11568.510000	-2.840146	-2.019660	-3.164403	-3.104852	-0.078313	-1.475780	-0.074252	-0.163668	-1.007160	-10.361540	17.838940	-0.745909	-0.026916	0.647764	-1.000000	-1.000000	-1.000000	-1.000000	-1.000000	-1.000000	-1.000000	65.000000	0.000000	-1.000000	-1.000000	559132.000000	1776577517.382354
-1921.545000	-38906.595000	6284.385000	38762.550000	-5339.880000	9039.780000	-27637.605000	11560.095000	1.433667	3.157914	3.371101	3.564172	1.894754	-7.618660	-2.487511	1.240873	-1.007160	-10.361540	17.838940	-0.745909	-0.026916	0.647764	-1.000000	-1.000000	-1.000000	-1.000000	-1.000000	-1.000000	-1.000000	65.000000	0.000000	-1.000000	-1.000000	559133.000000	1776577517.382368
-1910.070000	-38892.915000	6301.575000	38784.420000	-5320.035000	9053.370000	-27634.140000	11561.535000	3.079512	6.698491	9.098003	9.854183	4.709836	-7.850232	-3.576651	-0.019871	-1.007160	-10.361540	17.838940	-0.745909	-0.026916	0.647764	-1.000000	-1.000000	-1.000000	-1.000000	-1.000000	-1.000000	-1.000000	65.000000	0.000000	-1.000000	-1.000000	559134.000000	1776577517.386377
-1901.430000	-38883.240000	6309.360000	38789.460000	-5317.245000	9035.100000	-27647.190000	11562.300000	2.944100	8.079744	12.336179	13.903679	7.956835	-2.491482	-3.287331	-2.828795	-1.007160	-10.361540	17.838940	-0.745909	-0.026916	0.647764	-1.000000	-1.000000	-1.000000	-1.000000	-1.000000	-1.000000	-1.000000	65.000000	0.000000	-1.000000	-1.000000	559135.000000	1776577517.386396
-1911.825000	-38898.045000	6290.595000	38764.755000	-5337.585000	9020.160000	-27653.490000	11557.845000	2.856148	7.318734	11.603454	13.266134	8.742238	2.615776	-2.888377	-4.637212	-1.007160	-10.361540	17.838940	-0.745909	-0.026916	0.647764	-1.000000	-1.000000	-1.000000	-1.000000	-1.000000	-1.000000	-1.000000	65.000000	0.000000	-1.000000	-1.000000	559136.000000	1776577517.390361
-1926.900000	-38912.445000	6277.365000	38751.300000	-5345.595000	9019.980000	-27654.345000	11551.320000	2.238620	3.479372	5.522957	5.830068	4.004922	2.636499	-3.141467	-4.327803	-1.007160	-10.361540	17.838940	-0.745909	-0.026916	0.647764	-1.000000	-1.000000	-1.000000	-1.000000	-1.000000	-1.000000	-1.000000	65.000000	0.000000	-1.000000	-1.000000	559137.000000	1776577517.390377
-1932.480000	-38915.235000	6271.425000	38736.540000	-5366.385000	9015.930000	-27654.345000	11547.630000	-0.340576	-3.235579	-4.497367	-6.447484	-5.336756	-1.221312	-3.070266	-2.603487	12.955740	-6.699140	12.879440	-0.739927	-0.044617	0.655211	-1.000000	-1.000000	-1.000000	-1.000000	-1.000000	-1.000000	-1.000000	65.000000	0.000000	-1.000000	-1.000000	559138.000000	1776577517.394461
-1929.330000	-38912.670000	6270.795000	38728.935000	-5367.240000	9014.445000	-27651.240000	11550.330000	-3.821185	-9.417499	-13.305833	-17.228403	-14.222092	-4.462231	-1.409072	-0.401482	12.955740	-6.699140	12.879440	-0.739927	-0.044617	0.655211	-1.000000	-1.000000	-1.000000	-1.000000	-1.000000	-1.000000	-1.000000	65.000000	0.000000	-1.000000	-1.000000	559139.000000	1776577517.394478
-1930.680000	-38913.480000	6272.865000	38735.145000	-5357.745000	9004.995000	-27652.905000	11552.670000	-5.261360	-10.969906	-15.728292	-20.288118	-16.939927	-4.443951	1.680476	1.972880	12.955740	-6.699140	12.879440	-0.739927	-0.044617	0.655211	-1.000000	-1.000000	-1.000000	-1.000000	-1.000000	-1.000000	-1.000000	65.000000	0.000000	-1.000000	-1.000000	559140.000000	1776577517.403493
-1923.570000	-38904.390000	6284.745000	38750.445000	-5355.630000	8990.055000	-27659.880000	11560.185000	-3.128494	-6.851399	-10.419838	-13.414936	-10.994771	-1.977950	4.509551	4.353607	12.955740	-6.699140	12.879440	-0.739927	-0.044617	0.655211	-1.000000	-1.000000	-1.000000	-1.000000	-1.000000	-1.000000	-1.000000	65.000000	0.000000	-1.000000	-1.000000	559141.000000	1776577517.403561
-1916.055000	-38899.890000	6289.425000	38758.185000	-5336.280000	9010.170000	-27665.190000	11565.765000	1.530852	0.582807	-0.281465	0.367898	0.904199	1.029894	5.176424	6.211690	12.955740	-6.699140	12.879440	-0.739927	-0.044617	0.655211	-1.000000	-1.000000	-1.000000	-1.000000	-1.000000	-1.000000	-1.000000	65.000000	0.000000	-1.000000	-1.000000	559142.000000	1776577517.403591
-1912.050000	-38898.405000	6273.810000	38720.475000	-5361.975000	9016.875000	-27660.330000	11568.330000	6.240489	7.465280	9.102215	13.352842	12.298744	4.330531	3.432619	6.715340	12.955740	-6.699140	12.879440	-0.739927	-0.044617	0.655211	-1.000000	-1.000000	-1.000000	-1.000000	-1.000000	-1.000000	-1.000000	65.000000	0.000000	-1.000000	-1.000000	559143.000000	1776577517.403597
-1910.475000	-38889.180000	6277.410000	38720.655000	-5354.415000	9018.270000	-27646.290000	11568.735000	8.455943	10.617708	12.559436	17.446015	16.785510	7.863467	1.237406	5.146566	12.955740	-6.699140	12.879440	-0.739927	-0.044617	0.655211	-1.000000	-1.000000	-1.000000	-1.000000	-1.000000	-1.000000	-1.000000	65.000000	0.000000	-1.000000	-1.000000	559144.000000	1776577517.406386
-1895.940000	-38870.865000	6301.755000	38747.385000	-5339.475000	9027.270000	-27636.885000	11578.455000	7.126816	9.558134	9.712942	11.933100	13.052478	9.768061	0.858012	1.766968	12.955740	-6.699140	12.879440	-0.739927	-0.044617	0.655211	-1.000000	-1.000000	-1.000000	-1.000000	-1.000000	-1.000000	-1.000000	65.000000	0.000000	-1.000000	-1.000000	559145.000000	1776577517.406394
-1919.700000	-38905.425000	6267.105000	38709.135000	-5367.645000	9021.240000	-27647.280000	11561.400000	2.960876	5.442900	4.216962	3.319904	5.108307	8.194771	2.076064	-2.248876	12.955740	-6.699140	12.879440	-0.739927	-0.044617	0.655211	-1.000000	-1.000000	-1.000000	-1.000000	-1.000000	-1.000000	-1.000000	65.000000	0.000000	-1.000000	-1.000000	559146.000000	1776577517.410385
-1926.450000	-38912.490000	6258.960000	38700.720000	-5371.920000	9005.895000	-27652.500000	11556.315000	-3.088258	-1.409150	-1.852375	-3.808403	-3.303865	2.847293	2.143762	-6.088520	12.955740	-6.699140	12.879440	-0.739927	-0.044617	0.655211	-1.000000	-1.000000	-1.000000	-1.000000	-1.000000	-1.000000	-1.000000	65.000000	0.000000	-1.000000	-1.000000	559147.000000	1776577517.410399
-1925.640000	-38906.370000	6268.680000	38713.230000	-5359.590000	9014.220000	-27649.800000	11556.540000	-9.253855	-9.316055	-7.541370	-8.337057	-9.652639	-4.642614	-0.585485	-8.909223	20.646780	-10.437840	8.713460	-0.741575	-0.043518	0.659483	-1.000000	-1.000000	-1.000000	-1.000000	-1.000000	-1.000000	-1.000000	65.000000	0.000000	-1.000000	-1.000000	559148.000000	1776577517.414365
-1922.715000	-38902.185000	6275.655000	38723.310000	-5348.700000	9023.175000	-27646.920000	11560.680000	-12.117810	-13.498047	-9.745514	-8.327009	-10.803310	-10.337776	-4.338253	-8.976452	20.646780	-10.437840	8.713460	-0.741575	-0.043518	0.659483	-1.000000	-1.000000	-1.000000	-1.000000	-1.000000	-1.000000	-1.000000	65.000000	0.000000	-1.000000	-1.000000	559149.000000	1776577517.414372
-1923.300000	-38898.765000	6280.605000	38730.510000	-5343.615000	9027.720000	-27649.440000	11564.235000	-9.476708	-10.688591	-6.303076	-2.991652	-5.846530	-10.618206	-6.230273	-5.287237	20.646780	-10.437840	8.713460	-0.741575	-0.043518	0.659483	-1.000000	-1.000000	-1.000000	-1.000000	-1.000000	-1.000000	-1.000000	65.000000	0.000000	-1.000000	-1.000000	559150.000000	1776577517.418313
-1925.325000	-38902.005000	6277.410000	38729.925000	-5343.255000	9021.105000	-27668.070000	11562.885000	-2.822593	-2.796842	0.548862	4.400271	1.745824	-5.954378	-5.634070	0.731888	20.646780	-10.437840	8.713460	-0.741575	-0.043518	0.659483	-1.000000	-1.000000	-1.000000	-1.000000	-1.000000	-1.000000	-1.000000	65.000000	0.000000	-1.000000	-1.000000	559151.000000	1776577517.418319
-1930.815000	-38904.075000	6278.895000	38737.260000	-5339.745000	9008.865000	-27685.170000	11555.955000	3.980033	5.132001	6.189826	9.018512	6.994307	-0.507214	-4.397034	5.878870	20.646780	-10.437840	8.713460	-0.741575	-0.043518	0.659483	-1.000000	-1.000000	-1.000000	-1.000000	-1.000000	-1.000000	-1.000000	65.000000	0.000000	-1.000000	-1.000000	559152.000000	1776577517.422401
-1941.480000	-38912.670000	6269.265000	38724.705000	-5350.095000	9007.380000	-27696.465000	11548.260000	7.510312	8.924245	7.447160	8.233240	7.159020	2.002654	-4.034739	7.392993	20.646780	-10.437840	8.713460	-0.741575	-0.043518	0.659483	-1.000000	-1.000000	-1.000000	-1.000000	-1.000000	-1.000000	-1.000000	65.000000	0.000000	-1.000000	-1.000000	559153.000000	1776577517.422414
-1942.065000	-38914.650000	6265.980000	38718.135000	-5360.805000	9001.845000	-27691.605000	11550.780000	6.773541	7.602935	4.236154	2.536017	2.595797	1.357931	-3.546986	5.057400	20.646780	-10.437840	8.713460	-0.741575	-0.043518	0.659483	-1.000000	-1.000000	-1.000000	-1.000000	-1.000000	-1.000000	-1.000000	65.000000	0.000000	-1.000000	-1.000000	559154.000000	1776577517.426480
-1931.670000	-38905.560000	6273.630000	38724.075000	-5357.070000	9008.730000	-27665.865000	11560.455000	3.745375	3.443312	-0.820519	-4.960872	-3.883642	-0.009069	-0.283409	1.457838	20.646780	-10.437840	8.713460	-0.741575	-0.043518	0.659483	-1.000000	-1.000000	-1.000000	-1.000000	-1.000000	-1.000000	-1.000000	65.000000	0.000000	-1.000000	-1.000000	559155.000000	1776577517.426485
-1913.445000	-38887.245000	6290.865000	38740.590000	-5341.050000	9035.820000	-27612.000000	11577.330000	1.861180	0.294587	-3.848946	-9.544661	-7.898588	0.663126	7.623040	-0.129866	20.646780	-10.437840	8.713460	-0.741575	-0.043518	0.659483	-1.000000	-1.000000	-1.000000	-1.000000	-1.000000	-1.000000	-1.000000	65.000000	0.000000	-1.000000	-1.000000	559156.000000	1776577517.430266
-1925.010000	-38904.030000	6271.650000	38721.780000	-5357.430000	9013.545000	-27625.275000	11569.635000	2.547654	0.095970	-3.043016	-8.544185	-6.697838	3.948785	17.894601	1.156136	20.646780	-10.437840	8.713460	-0.741575	-0.043518	0.659483	-1.000000	-1.000000	-1.000000	-1.000000	-1.000000	-1.000000	-1.000000	65.000000	0.000000	-1.000000	-1.000000	559157.000000	1776577517.430271
-1929.330000	-38907.540000	6267.330000	38715.660000	-5367.960000	9003.465000	-27645.030000	11564.955000	3.429413	0.790868	-0.790872	-4.266526	-2.326661	6.404205	22.459941	2.712313	12.482680	-9.323860	8.454040	-0.745970	-0.024048	0.656492	-1.000000	-1.000000	-1.000000	-1.000000	-1.000000	-1.000000	-1.000000	65.000000	0.000000	-1.000000	-1.000000	559158.000000	1776577517.434331
-1926.765000	-38904.525000	6270.030000	38720.835000	-5361.750000	9010.260000	-27647.955000	11566.260000	1.685559	-0.289941	-0.169654	-0.641368	1.187166	4.506585	14.360946	1.633505	12.482680	-9.323860	8.454040	-0.745970	-0.024048	0.656492	-1.000000	-1.000000	-1.000000	-1.000000	-1.000000	-1.000000	-1.000000	65.000000	0.000000	-1.000000	-1.000000	559159.000000	1776577517.434341
-1922.580000	-38899.080000	6277.590000	38733.210000	-5345.820000	9019.890000	-27647.775000	11569.365000	-2.057052	-2.530285	-0.867472	1.570410	2.992335	-0.121677	-3.216193	-1.732685	12.482680	-9.323860	8.454040	-0.745970	-0.024048	0.656492	-1.000000	-1.000000	-1.000000	-1.000000	-1.000000	-1.000000	-1.000000	65.000000	0.000000	-1.000000	-1.000000	559160.000000	1776577517.438369
-1925.370000	-38899.215000	6278.355000	38735.235000	-5343.030000	9019.665000	-27649.530000	11568.195000	-5.052863	-3.615669	-0.781484	3.711235	4.724695	-3.215724	-19.485674	-4.738912	12.482680	-9.323860	8.454040	-0.745970	-0.024048	0.656492	-1.000000	-1.000000	-1.000000	-1.000000	-1.000000	-1.000000	-1.000000	65.000000	0.000000	-1.000000	-1.000000	559161.000000	1776577517.438377
-1930.185000	-38899.665000	6278.040000	38734.470000	-5347.440000	9012.375000	-27655.110000	11564.595000	-5.843334	-2.767852	0.602920	5.693715	6.364308	-3.328482	-25.921564	-5.607280	12.482680	-9.323860	8.454040	-0.745970	-0.024048	0.656492	-1.000000	-1.000000	-1.000000	-1.000000	-1.000000	-1.000000	-1.000000	65.000000	0.000000	-1.000000	-1.000000	559162.000000	1776577517.442419
-1929.465000	-38897.100000	6280.380000	38737.125000	-5344.065000	9009.990000	-27657.135000	11564.505000	-4.842205	-0.966060	2.038466	5.952965	5.987823	-2.230540	-21.305410	-4.460431	12.482680	-9.323860	8.454040	-0.745970	-0.024048	0.656492	-1.000000	-1.000000	-1.000000	-1.000000	-1.000000	-1.000000	-1.000000	65.000000	0.000000	-1.000000	-1.000000	559163.000000	1776577517.442434
-1929.870000	-38900.115000	6276.555000	38734.110000	-5344.155000	9005.130000	-27659.250000	11564.775000	-2.862555	0.556832	2.307344	3.746798	2.888052	-1.715580	-9.951468	-2.226998	12.482680	-9.323860	8.454040	-0.745970	-0.024048	0.656492	-1.000000	-1.000000	-1.000000	-1.000000	-1.000000	-1.000000	-1.000000	65.000000	0.000000	-1.000000	-1.000000	559164.000000	1776577517.446409
-1931.535000	-38900.655000	6277.545000	38735.775000	-5340.555000	9005.850000	-27658.800000	11563.785000	-0.498360	1.109054	1.181121	0.000479	-1.374972	-1.849503	2.343177	0.241629	12.482680	-9.323860	8.454040	-0.745970	-0.024048	0.656492	-1.000000	-1.000000	-1.000000	-1.000000	-1.000000	-1.000000	-1.000000	65.000000	0.000000	-1.000000	-1.000000	559165.000000	1776577517.446436
-1932.390000	-38900.745000	6277.185000	38731.185000	-5346.495000	9007.650000	-27660.330000	11562.840000	1.589391	0.707655	-0.615219	-3.571309	-4.741916	-1.627896	11.163122	2.209759	12.482680	-9.323860	8.454040	-0.745970	-0.024048	0.656492	-1.000000	-1.000000	-1.000000	-1.000000	-1.000000	-1.000000	-1.000000	65.000000	0.000000	-1.000000	-1.000000	559166.000000	1776577517.450221
-1933.065000	-38901.015000	6273.675000	38725.380000	-5354.010000	9009.720000	-27662.805000	11557.620000	2.826405	-0.020683	-2.038291	-5.683888	-6.358200	-0.304476	14.513396	3.075122	12.482680	-9.323860	8.454040	-0.745970	-0.024048	0.656492	-1.000000	-1.000000	-1.000000	-1.000000	-1.000000	-1.000000	-1.000000	65.000000	0.000000	-1.000000	-1.000000	559167.000000	1776577517.450231
-1938.240000	-38900.970000	6278.805000	38741.670000	-5336.955000	9011.070000	-27664.245000	11547.585000	2.973394	-0.427817	-2.448029	-5.655937	-6.109975	1.788866	12.702736	2.478640	0.579880	-5.554640	11.124540	-0.742674	-0.012756	0.654234	-1.000000	-1.000000	-1.000000	-1.000000	-1.000000	-1.000000	-1.000000	65.000000	0.000000	-1.000000	-1.000000	559168.000000	1776577517.454418
-1931.220000	-38887.110000	6293.610000	38752.470000	-5326.830000	9006.480000	-27669.420000	11548.395000	2.254035	-0.057594	-1.402567	-2.872684	-3.405615	3.422352	7.625689	0.693972	0.579880	-5.554640	11.124540	-0.742674	-0.012756	0.654234	-1.000000	-1.000000	-1.000000	-1.000000	-1.000000	-1.000000	-1.000000	65.000000	0.000000	-1.000000	-1.000000	559169.000000	1776577517.454438
-1920.690000	-38875.050000	6304.500000	38754.990000	-5337.270000	9002.745000	-27665.820000	11560.770000	1.619632	1.498152	1.305603	2.021474	1.215463	3.376601	1.797359	-0.758531	0.579880	-5.554640	11.124540	-0.742674	-0.012756	0.654234	-1.000000	-1.000000	-1.000000	-1.000000	-1.000000	-1.000000	-1.000000	65.000000	0.000000	-1.000000	-1.000000	559170.000000	1776577517.458347
-1930.770000	-38886.390000	6292.980000	38748.510000	-5348.880000	9005.310000	-27660.150000	11563.785000	1.725130	3.528842	4.281878	6.033109	4.520481	1.584325	-2.402942	-0.100146	0.579880	-5.554640	11.124540	-0.742674	-0.012756	0.654234	-1.000000	-1.000000	-1.000000	-1.000000	-1.000000	-1.000000	-1.000000	65.000000	0.000000	-1.000000	-1.000000	559171.000000	1776577517.458357
-1930.320000	-38888.865000	6289.785000	38741.220000	-5355.945000	8995.950000	-27662.355000	11572.290000	1.614925	3.700452	4.635705	5.991271	3.640372	-0.784061	-3.749468	2.505421	0.579880	-5.554640	11.124540	-0.742674	-0.012756	0.654234	-1.000000	-1.000000	-1.000000	-1.000000	-1.000000	-1.000000	-1.000000	65.000000	0.000000	-1.000000	-1.000000	559172.000000	1776577517.462520
-1937.970000	-38899.620000	6273.045000	38715.210000	-5356.170000	9008.910000	-27662.715000	11567.295000	0.099428	0.581948	0.918948	1.236465	-0.422538	-2.343706	-2.989004	4.810806	0.579880	-5.554640	11.124540	-0.742674	-0.012756	0.654234	-1.000000	-1.000000	-1.000000	-1.000000	-1.000000	-1.000000	-1.000000	65.000000	0.000000	-1.000000	-1.000000	559173.000000	1776577517.462534
-1939.365000	-38909.970000	6262.020000	38712.555000	-5345.325000	9013.005000	-27658.710000	11572.245000	-2.432550	-4.472515	-5.189576	-5.889807	-3.727022	-2.013930	-1.750636	4.603594	0.579880	-5.554640	11.124540	-0.742674	-0.012756	0.654234	-1.000000	-1.000000	-1.000000	-1.000000	-1.000000	-1.000000	-1.000000	65.000000	0.000000	-1.000000	-1.000000	559174.000000	1776577517.466360
-1936.080000	-38912.355000	6253.785000	38698.470000	-5384.385000	8980.560000	-27665.595000	11576.835000	-4.336821	-8.517058	-10.182868	-11.130536	-3.878203	-0.432944	-1.022067	1.752025	0.579880	-5.554640	11.124540	-0.742674	-0.012756	0.654234	-1.000000	-1.000000	-1.000000	-1.000000	-1.000000	-1.000000	-1.000000	65.000000	0.000000	-1.000000	-1.000000	559175.000000	1776577517.466377
-1935.090000	-38909.700000	6258.510000	38707.785000	-5368.545000	8993.745000	-27664.515000	11573.235000	-4.081615	-8.851287	-10.757820	-10.845699	-2.253590	-0.055057	-1.084748	-1.969858	0.579880	-5.554640	11.124540	-0.742674	-0.012756	0.654234	-1.000000	-1.000000	-1.000000	-1.000000	-1.000000	-1.000000	-1.000000	65.000000	0.000000	-1.000000	-1.000000	559176.000000	1776577517.470412
-1934.595000	-38906.325000	6266.250000	38722.680000	-5343.570000	9009.450000	-27661.005000	11569.635000	-1.629832	-4.616187	-5.619239	-4.178704	0.199098	-0.888998	-1.532289	-4.934191	0.579880	-5.554640	11.124540	-0.742674	-0.012756	0.654234	-1.000000	-1.000000	-1.000000	-1.000000	-1.000000	-1.000000	-1.000000	65.000000	0.000000	-1.000000	-1.000000	559177.000000	1776577517.470435
-1933.830000	-38900.385000	6274.575000	38728.260000	-5347.125000	9012.870000	-27658.395000	11566.800000	1.495998	2.413231	3.433492	6.365583	4.510374	-0.111431	-1.414446	-6.492624	1.220800	-1.388660	11.094020	-0.736387	-0.020935	0.658018	-1.000000	-1.000000	-1.000000	-1.000000	-1.000000	-1.000000	-1.000000	65.000000	0.000000	-1.000000	-1.000000	559178.000000	1776577517.474369
-1930.230000	-38892.240000	6283.395000	38738.385000	-5349.645000	9003.735000	-27658.035000	11568.780000	3.636702	8.965418	12.208293	15.615887	8.995561	2.558964	-0.354616	-6.306948	1.220800	-1.388660	11.094020	-0.736387	-0.020935	0.658018	-1.000000	-1.000000	-1.000000	-1.000000	-1.000000	-1.000000	-1.000000	65.000000	0.000000	-1.000000	-1.000000	559179.000000	1776577517.474381
-1940.265000	-38894.805000	6284.880000	38745.225000	-5338.755000	9015.480000	-27653.535000	11563.380000	3.902542	12.119040	16.463295	18.789525	9.852726	4.294528	1.035264	-4.314590	1.220800	-1.388660	11.094020	-0.736387	-0.020935	0.658018	-1.000000	-1.000000	-1.000000	-1.000000	-1.000000	-1.000000	-1.000000	65.000000	0.000000	-1.000000	-1.000000	559180.000000	1776577517.478465
-1939.545000	-38892.195000	6288.345000	38751.615000	-5323.230000	9010.350000	-27661.590000	11563.290000	2.169466	10.476182	14.198844	14.604898	6.478309	3.456590	1.802644	-1.248275	1.220800	-1.388660	11.094020	-0.736387	-0.020935	0.658018	-1.000000	-1.000000	-1.000000	-1.000000	-1.000000	-1.000000	-1.000000	65.000000	0.000000	-1.000000	-1.000000	559181.000000	1776577517.478480
-1934.055000	-38898.270000	6273.630000	38726.640000	-5350.005000	8982.540000	-27662.490000	11572.065000	-0.484303	4.783045	6.348825	4.884086	1.028540	0.219672	1.231353	1.897918	1.220800	-1.388660	11.094020	-0.736387	-0.020935	0.658018	-1.000000	-1.000000	-1.000000	-1.000000	-1.000000	-1.000000	-1.000000	65.000000	0.000000	-1.000000	-1.000000	559182.000000	1776577517.482584
-1940.040000	-38910.060000	6256.620000	38699.820000	-5379.165000	8976.330000	-27667.305000	11567.385000	-2.246507	-2.629207	-4.279941	-7.649792	-5.713806	-4.847954	-0.520512	4.500181	1.220800	-1.388660	11.094020	-0.736387	-0.020935	0.658018	-1.000000	-1.000000	-1.000000	-1.000000	-1.000000	-1.000000	-1.000000	65.000000	0.000000	-1.000000	-1.000000	559183.000000	1776577517.482613
-1934.280000	-38902.815000	6265.395000	38709.585000	-5369.310000	8988.840000	-27668.520000	11573.190000	-2.336943	-8.892636	-13.684079	-18.964944	-12.941477	-9.190357	-2.320603	5.858176	1.220800	-1.388660	11.094020	-0.736387	-0.020935	0.658018	-1.000000	-1.000000	-1.000000	-1.000000	-1.000000	-1.000000	-1.000000	65.000000	0.000000	-1.000000	-1.000000	559184.000000	1776577517.486422
-1938.240000	-38905.155000	6263.190000	38708.235000	-5371.650000	8986.365000	-27666.765000	11572.560000	-1.263923	-11.256687	-17.320299	-23.188497	-16.477772	-8.814231	-2.913069	5.428369	1.220800	-1.388660	11.094020	-0.736387	-0.020935	0.658018	-1.000000	-1.000000	-1.000000	-1.000000	-1.000000	-1.000000	-1.000000	65.000000	0.000000	-1.000000	-1.000000	559185.000000	1776577517.486434
-1944.990000	-38911.590000	6254.145000	38699.550000	-5373.495000	8985.645000	-27666.270000	11572.380000	-0.097644	-8.877107	-13.449282	-17.307260	-12.583592	-3.043428	-1.754648	3.426658	1.220800	-1.388660	11.094020	-0.736387	-0.020935	0.658018	-1.000000	-1.000000	-1.000000	-1.000000	-1.000000	-1.000000	-1.000000	65.000000	0.000000	-1.000000	-1.000000	559186.000000	1776577517.490482
-1944.405000	-38910.240000	6253.965000	38698.785000	-5376.330000	8980.785000	-27667.080000	11572.200000	0.206885	-3.729403	-5.036340	-4.883058	-2.919287	4.305693	0.560595	0.593217	1.220800	-1.388660	11.094020	-0.736387	-0.020935	0.658018	-1.000000	-1.000000	-1.000000	-1.000000	-1.000000	-1.000000	-1.000000	65.000000	0.000000	-1.000000	-1.000000	559187.000000	1776577517.490492
-1941.165000	-38903.760000	6262.335000	38709.855000	-5367.420000	8990.145000	-27664.155000	11570.670000	-0.144906	1.600008	3.531858	7.687082	7.389071	9.018179	2.720336	-2.112983	8.759240	2.868880	4.501700	-0.733580	-0.032288	0.661925	-1.000000	-1.000000	-1.000000	-1.000000	-1.000000	-1.000000	-1.000000	65.000000	0.000000	-1.000000	-1.000000	559188.000000	1776577517.494539
-1950.930000	-38911.185000	6255.585000	38702.385000	-5371.965000	8987.940000	-27664.650000	11559.195000	-0.284748	5.506109	9.481891	15.852382	14.015751	9.677768	3.720130	-4.029550	8.759240	2.868880	4.501700	-0.733580	-0.032288	0.661925	-1.000000	-1.000000	-1.000000	-1.000000	-1.000000	-1.000000	-1.000000	65.000000	0.000000	-1.000000	-1.000000	559189.000000	1776577517.494554
-1955.655000	-38915.460000	6249.600000	38694.735000	-5381.370000	8971.245000	-27676.305000	11548.575000	-0.223768	6.818532	11.292798	17.376459	14.780489	6.783049	3.072931	-5.218200	8.759240	2.868880	4.501700	-0.733580	-0.032288	0.661925	-1.000000	-1.000000	-1.000000	-1.000000	-1.000000	-1.000000	-1.000000	65.000000	0.000000	-1.000000	-1.000000	559190.000000	1776577517.498982
-1952.595000	-38912.715000	6252.705000	38699.505000	-5377.680000	8966.070000	-27683.280000	11551.680000	-0.330417	5.244072	8.769158	12.471831	9.913252	1.242871	0.640813	-5.595731	8.759240	2.868880	4.501700	-0.733580	-0.032288	0.661925	-1.000000	-1.000000	-1.000000	-1.000000	-1.000000	-1.000000	-1.000000	65.000000	0.000000	-1.000000	-1.000000	559191.000000	1776577517.499002
-1952.415000	-38914.470000	6250.680000	38699.010000	-5373.090000	8971.065000	-27675.000000	11557.665000	-0.153584	2.189848	3.847211	4.406836	2.511424	-4.686771	-2.466472	-4.110717	8.759240	2.868880	4.501700	-0.733580	-0.032288	0.661925	-1.000000	-1.000000	-1.000000	-1.000000	-1.000000	-1.000000	-1.000000	65.000000	0.000000	-1.000000	-1.000000	559192.000000	1776577517.503757
-1947.780000	-38906.775000	6259.815000	38706.885000	-5357.340000	8985.780000	-27667.170000	11563.155000	0.852288	-0.322262	-0.595613	-2.515704	-3.104429	-7.375409	-3.747177	-0.077715	8.759240	2.868880	4.501700	-0.733580	-0.032288	0.661925	-1.000000	-1.000000	-1.000000	-1.000000	-1.000000	-1.000000	-1.000000	65.000000	0.000000	-1.000000	-1.000000	559193.000000	1776577517.503780
-1936.665000	-38890.665000	6278.985000	38725.920000	-5343.885000	8996.400000	-27671.265000	11568.645000	2.535813	-0.881230	-2.367543	-5.486144	-4.353074	-4.746883	-1.890140	5.168855	8.759240	2.868880	4.501700	-0.733580	-0.032288	0.661925	-1.000000	-1.000000	-1.000000	-1.000000	-1.000000	-1.000000	-1.000000	65.000000	0.000000	-1.000000	-1.000000	559194.000000	1776577517.506905
-1941.030000	-38892.195000	6270.435000	38711.430000	-5358.780000	8991.720000	-27666.810000	11565.495000	4.096272	0.591781	-1.205106	-4.481702	-2.330767	1.211702	1.452495	8.831938	8.759240	2.868880	4.501700	-0.733580	-0.032288	0.661925	-1.000000	-1.000000	-1.000000	-1.000000	-1.000000	-1.000000	-1.000000	65.000000	0.000000	-1.000000	-1.000000	559195.000000	1776577517.506916
-1946.430000	-38898.720000	6264.495000	38709.495000	-5360.760000	8990.460000	-27667.890000	11564.280000	4.061177	2.102772	0.355083	-2.504366	-0.941790	5.707247	3.660787	8.625421	8.759240	2.868880	4.501700	-0.733580	-0.032288	0.661925	-1.000000	-1.000000	-1.000000	-1.000000	-1.000000	-1.000000	-1.000000	65.000000	0.000000	-1.000000	-1.000000	559196.000000	1776577517.510567
-1948.725000	-38900.925000	6266.610000	38715.030000	-5356.530000	8987.445000	-27672.075000	11564.595000	1.449628	1.171992	-0.480452	-2.352953	-2.478943	5.414214	3.446378	4.518673	8.759240	2.868880	4.501700	-0.733580	-0.032288	0.661925	-1.000000	-1.000000	-1.000000	-1.000000	-1.000000	-1.000000	-1.000000	65.000000	0.000000	-1.000000	-1.000000	559197.000000	1776577517.510581
-1948.185000	-38900.340000	6267.420000	38714.355000	-5359.905000	8980.695000	-27673.875000	11566.080000	-2.615804	-2.196387	-3.307731	-3.525350	-5.255989	0.929945	1.087510	-1.141576	10.285240	3.540320	0.991900	-0.736387	-0.023743	0.662962	-1.000000	-1.000000	-1.000000	-1.000000	-1.000000	-1.000000	-1.000000	65.000000	0.000000	-1.000000	-1.000000	559198.000000	1776577517.515040
-1953.540000	-38906.685000	6259.320000	38705.130000	-5369.805000	8973.855000	-27677.790000	11562.480000	-5.722974	-5.618569	-5.674714	-4.233669	-6.699258	-4.701527	-2.029824	-5.511737	10.285240	3.540320	0.991900	-0.736387	-0.023743	0.662962	-1.000000	-1.000000	-1.000000	-1.000000	-1.000000	-1.000000	-1.000000	65.000000	0.000000	-1.000000	-1.000000	559199.000000	1776577517.515067
-1957.320000	-38910.465000	6252.930000	38700.540000	-5372.055000	8976.420000	-27677.520000	11559.465000	-6.410950	-6.996403	-6.209901	-4.029778	-6.088795	-8.298108	-4.204021	-7.196571	10.285240	3.540320	0.991900	-0.736387	-0.023743	0.662962	-1.000000	-1.000000	-1.000000	-1.000000	-1.000000	-1.000000	-1.000000	65.000000	0.000000	-1.000000	-1.000000	559200.000000	1776577517.518572
-1957.680000	-38907.810000	6257.745000	38705.580000	-5365.890000	8982.810000	-27683.145000	11557.530000	-4.807991	-5.744527	-4.893511	-3.041541	-3.664074	-7.783421	-4.446791	-6.420174	10.285240	3.540320	0.991900	-0.736387	-0.023743	0.662962	-1.000000	-1.000000	-1.000000	-1.000000	-1.000000	-1.000000	-1.000000	65.000000	0.000000	-1.000000	-1.000000	559201.000000	1776577517.518589
-1950.345000	-38892.870000	6275.565000	38724.210000	-5349.285000	8990.460000	-27688.500000	11559.285000	-1.649873	-2.059402	-1.595383	-0.622978	0.570655	-3.098300	-3.042886	-4.018373	10.285240	3.540320	0.991900	-0.736387	-0.023743	0.662962	-1.000000	-1.000000	-1.000000	-1.000000	-1.000000	-1.000000	-1.000000	65.000000	0.000000	-1.000000	-1.000000	559202.000000	1776577517.522508
-1947.465000	-38888.280000	6281.145000	38730.645000	-5344.920000	8987.310000	-27681.795000	11561.940000	2.245361	3.254252	3.568499	3.655868	6.004987	3.337538	-0.888455	-0.789215	10.285240	3.540320	0.991900	-0.736387	-0.023743	0.662962	-1.000000	-1.000000	-1.000000	-1.000000	-1.000000	-1.000000	-1.000000	65.000000	0.000000	-1.000000	-1.000000	559203.000000	1776577517.522521
-1946.565000	-38892.195000	6276.060000	38725.335000	-5347.935000	8984.385000	-27664.290000	11565.225000	5.576323	7.917638	8.425857	7.918221	10.182000	7.771402	1.844044	2.460593	10.285240	3.540320	0.991900	-0.736387	-0.023743	0.662962	-1.000000	-1.000000	-1.000000	-1.000000	-1.000000	-1.000000	-1.000000	65.000000	0.000000	-1.000000	-1.000000	559204.000000	1776577517.526611
-1948.140000	-38899.755000	6264.585000	38713.410000	-5359.095000	8978.580000	-27663.840000	11566.845000	6.749869	8.876312	9.374027	8.578391	9.933623	7.708489	5.169801	4.800993	10.285240	3.540320	0.991900	-0.736387	-0.023743	0.662962	-1.000000	-1.000000	-1.000000	-1.000000	-1.000000	-1.000000	-1.000000	65.000000	0.000000	-1.000000	-1.000000	559205.000000	1776577517.526623
-1949.940000	-38903.895000	6257.655000	38704.455000	-5369.715000	8966.520000	-27680.040000	11565.585000	5.042322	5.027974	4.841410	3.914217	4.299623	3.481688	7.229473	5.392685	10.285240	3.540320	0.991900	-0.736387	-0.023743	0.662962	-1.000000	-1.000000	-1.000000	-1.000000	-1.000000	-1.000000	-1.000000	65.000000	0.000000	-1.000000	-1.000000	559206.000000	1776577517.530936
-1950.975000	-38903.040000	6257.790000	38702.475000	-5370.165000	8965.755000	-27682.785000	11563.380000	1.300382	-1.340417	-2.630022	-3.674027	-3.978204	-2.344525	5.304433	3.923132	10.285240	3.540320	0.991900	-0.736387	-0.023743	0.662962	-1.000000	-1.000000	-1.000000	-1.000000	-1.000000	-1.000000	-1.000000	65.000000	0.000000	-1.000000	-1.000000	559207.000000	1776577517.530969
-1944.090000	-38891.970000	6269.355000	38715.795000	-5352.120000	8980.830000	-27672.615000	11566.125000	-2.450440	-6.101607	-8.055045	-9.134659	-9.718695	-6.131236	-0.094686	1.045911	3.494540	3.189340	0.579880	-0.738951	-0.007996	0.661375	-1.000000	-1.000000	-1.000000	-1.000000	-1.000000	-1.000000	-1.000000	65.000000	0.000000	-1.000000	-1.000000	559208.000000	1776577517.534559
-1935.990000	-38879.370000	6285.330000	38733.075000	-5333.310000	9001.665000	-27657.315000	11574.405000	-4.109805	-6.201444	-7.665125	-8.388189	-8.702399	-4.840747	-4.644322	-1.615167	3.494540	3.189340	0.579880	-0.738951	-0.007996	0.661375	-1.000000	-1.000000	-1.000000	-1.000000	-1.000000	-1.000000	-1.000000	65.000000	0.000000	-1.000000	-1.000000	559209.000000	1776577517.534597
-1937.430000	-38879.775000	6285.420000	38733.435000	-5336.370000	8999.820000	-27666.315000	11575.440000	-3.059986	-1.979334	-1.858985	-1.703931	-1.514633	1.121382	-5.040661	-2.556855	3.494540	3.189340	0.579880	-0.738951	-0.007996	0.661375	-1.000000	-1.000000	-1.000000	-1.000000	-1.000000	-1.000000	-1.000000	65.000000	0.000000	-1.000000	-1.000000	559210.000000	1776577517.538444
-1945.620000	-38889.585000	6272.595000	38718.720000	-5355.405000	8977.185000	-27692.460000	11571.030000	-0.961420	2.776580	4.622206	5.740452	5.857492	6.710378	-2.997597	-1.903492	3.494540	3.189340	0.579880	-0.738951	-0.007996	0.661375	-1.000000	-1.000000	-1.000000	-1.000000	-1.000000	-1.000000	-1.000000	65.000000	0.000000	-1.000000	-1.000000	559211.000000	1776577517.538460
-1958.130000	-38906.955000	6257.025000	38707.200000	-5362.695000	8952.660000	-27708.165000	11564.775000	-0.329069	3.770965	6.326677	7.910318	7.117852	6.009616	-2.771429	-1.235625	3.494540	3.189340	0.579880	-0.738951	-0.007996	0.661375	-1.000000	-1.000000	-1.000000	-1.000000	-1.000000	-1.000000	-1.000000	65.000000	0.000000	-1.000000	-1.000000	559212.000000	1776577517.542451
-1974.015000	-38923.695000	6242.760000	38696.535000	-5376.015000	8922.825000	-27710.190000	11553.030000	-2.196655	-0.234158	1.767377	3.298607	1.586444	-2.048565	-5.244238	-1.827648	3.494540	3.189340	0.579880	-0.738951	-0.007996	0.661375	-1.000000	-1.000000	-1.000000	-1.000000	-1.000000	-1.000000	-1.000000	65.000000	0.000000	-1.000000	-1.000000	559213.000000	1776577517.542466
-1960.830000	-38909.205000	6254.685000	38702.025000	-5370.840000	8946.225000	-27690.120000	11559.105000	-4.857217	-6.007872	-5.176721	-3.999968	-5.800470	-11.719824	-6.449234	-3.261912	3.494540	3.189340	0.579880	-0.738951	-0.007996	0.661375	-1.000000	-1.000000	-1.000000	-1.000000	-1.000000	-1.000000	-1.000000	65.000000	0.000000	-1.000000	-1.000000	559214.000000	1776577517.546850
-1933.335000	-38881.530000	6280.515000	38726.505000	-5350.005000	8992.080000	-27646.515000	11580.930000	-4.422689	-7.606712	-8.011547	-7.704981	-8.830516	-13.638075	-1.672249	-3.233413	3.494540	3.189340	0.579880	-0.738951	-0.007996	0.661375	-1.000000	-1.000000	-1.000000	-1.000000	-1.000000	-1.000000	-1.000000	65.000000	0.000000	-1.000000	-1.000000	559215.000000	1776577517.546865
-1942.290000	-38887.740000	6275.745000	38725.605000	-5351.130000	8984.745000	-27675.630000	11570.670000	1.132740	-1.970039	-3.409501	-4.422403	-4.674362	-3.393671	8.491146	-0.016461	3.494540	3.189340	0.579880	-0.738951	-0.007996	0.661375	-1.000000	-1.000000	-1.000000	-1.000000	-1.000000	-1.000000	-1.000000	65.000000	0.000000	-1.000000	-1.000000	559216.000000	1776577517.550440
-1929.465000	-38869.245000	6290.415000	38733.075000	-5342.265000	9003.555000	-27656.325000	11578.410000	8.374605	7.130649	5.163283	3.162098	3.658139	12.218206	16.542657	4.521301	3.494540	3.189340	0.579880	-0.738951	-0.007996	0.661375	-1.000000	-1.000000	-1.000000	-1.000000	-1.000000	-1.000000	-1.000000	65.000000	0.000000	-1.000000	-1.000000	559217.000000	1776577517.550468
-1953.405000	-38892.555000	6272.145000	38722.230000	-5342.805000	8996.220000	-27662.490000	11557.305000	11.457058	12.712389	10.934712	8.855264	10.190890	21.621214	15.848358	6.515028	-4.059160	2.304260	1.876980	-0.741758	0.000183	0.659483	-1.000000	-1.000000	-1.000000	-1.000000	-1.000000	-1.000000	-1.000000	65.000000	0.000000	-1.000000	-1.000000	559218.000000	1776577517.554492
-1951.200000	-38893.365000	6271.335000	38727.720000	-5347.980000	8964.630000	-27680.490000	11557.395000	7.556827	10.472821	9.623048	8.591816	10.918145	18.263171	6.726454	4.001329	-4.059160	2.304260	1.876980	-0.741758	0.000183	0.659483	-1.000000	-1.000000	-1.000000	-1.000000	-1.000000	-1.000000	-1.000000	65.000000	0.000000	-1.000000	-1.000000	559219.000000	1776577517.554506
-1946.385000	-38893.365000	6265.170000	38713.860000	-5369.940000	8960.535000	-27678.195000	11569.365000	-0.766756	1.813286	2.183969	3.004625	5.403886	3.606678	-5.937708	-1.051325	-4.059160	2.304260	1.876980	-0.741758	0.000183	0.659483	-1.000000	-1.000000	-1.000000	-1.000000	-1.000000	-1.000000	-1.000000	65.000000	0.000000	-1.000000	-1.000000	559220.000000	1776577517.558379
-1948.905000	-38894.040000	6264.765000	38713.050000	-5363.010000	8971.155000	-27675.180000	11573.100000	-7.744132	-7.334340	-6.353613	-4.271151	-3.523060	-13.483824	-15.684472	-4.248071	-4.059160	2.304260	1.876980	-0.741758	0.000183	0.659483	-1.000000	-1.000000	-1.000000	-1.000000	-1.000000	-1.000000	-1.000000	65.000000	0.000000	-1.000000	-1.000000	559221.000000	1776577517.558388
-1950.300000	-38892.195000	6270.435000	38725.245000	-5344.380000	8977.950000	-27666.045000	11575.755000	-9.679031	-11.625175	-10.873492	-9.075477	-10.265309	-22.151727	-17.437908	-3.333927	-4.059160	2.304260	1.876980	-0.741758	0.000183	0.659483	-1.000000	-1.000000	-1.000000	-1.000000	-1.000000	-1.000000	-1.000000	65.000000	0.000000	-1.000000	-1.000000	559222.000000	1776577517.562730
-1956.690000	-38900.565000	6259.455000	38717.010000	-5356.755000	8962.560000	-27664.155000	11578.095000	-7.140451	-9.937753	-9.548457	-8.771011	-10.273341	-18.416625	-10.947822	0.007454	-4.059160	2.304260	1.876980	-0.741758	0.000183	0.659483	-1.000000	-1.000000	-1.000000	-1.000000	-1.000000	-1.000000	-1.000000	65.000000	0.000000	-1.000000	-1.000000	559223.000000	1776577517.562759
-1953.720000	-38897.415000	6260.130000	38713.815000	-5371.740000	8946.855000	-27681.120000	11578.905000	-2.770390	-4.718081	-4.445787	-4.373267	-5.028790	-7.634529	-1.023466	2.765691	-4.059160	2.304260	1.876980	-0.741758	0.000183	0.659483	-1.000000	-1.000000	-1.000000	-1.000000	-1.000000	-1.000000	-1.000000	65.000000	0.000000	-1.000000	-1.000000	559224.000000	1776577517.566331
-1952.955000	-38893.590000	6262.605000	38711.115000	-5368.365000	8960.265000	-27689.040000	11572.380000	1.303155	0.960499	1.071781	0.579756	0.194346	2.417203	5.950041	3.070798	-4.059160	2.304260	1.876980	-0.741758	0.000183	0.659483	-1.000000	-1.000000	-1.000000	-1.000000	-1.000000	-1.000000	-1.000000	65.000000	0.000000	-1.000000	-1.000000	559225.000000	1776577517.566342
-1950.750000	-38888.550000	6274.260000	38732.490000	-5342.805000	8968.860000	-27673.920000	11575.170000	4.153319	5.331812	5.226705	3.972330	3.226363	8.676969	7.323574	0.917722	-4.059160	2.304260	1.876980	-0.741758	0.000183	0.659483	-1.000000	-1.000000	-1.000000	-1.000000	-1.000000	-1.000000	-1.000000	65.000000	0.000000	-1.000000	-1.000000	559226.000000	1776577517.572012
-1957.455000	-38901.780000	6257.520000	38715.570000	-5358.915000	8977.770000	-27664.155000	11571.840000	5.298854	7.332330	7.371706	5.832873	5.374274	11.984902	5.841698	-2.075255	-4.059160	2.304260	1.876980	-0.741758	0.000183	0.659483	-1.000000	-1.000000	-1.000000	-1.000000	-1.000000	-1.000000	-1.000000	65.000000	0.000000	-1.000000	-1.000000	559227.000000	1776577517.572019
-1960.290000	-38912.130000	6233.670000	38672.730000	-5398.740000	8962.920000	-27676.215000	11564.595000	4.384835	5.934763	6.163526	5.014804	5.768684	12.521387	4.776127	-4.109986	-5.279960	2.639980	2.136400	-0.744017	-0.007080	0.657652	-1.000000	-1.000000	-1.000000	-1.000000	-1.000000	-1.000000	-1.000000	65.000000	0.000000	-1.000000	-1.000000	559228.000000	1776577517.574531
-1957.320000	-38901.240000	6243.660000	38680.290000	-5396.580000	8972.955000	-27673.830000	11560.905000	1.920707	1.744592	1.248189	-0.062811	1.793512	9.312785	3.919321	-4.558238	-5.279960	2.639980	2.136400	-0.744017	-0.007080	0.657652	-1.000000	-1.000000	-1.000000	-1.000000	-1.000000	-1.000000	-1.000000	65.000000	0.000000	-1.000000	-1.000000	559229.000000	1776577517.574538
-1957.905000	-38897.865000	6254.145000	38701.215000	-5379.255000	8940.870000	-27672.300000	11562.840000	-0.534524	-2.067843	-3.797197	-5.906051	-4.232434	2.627733	1.981116	-3.509790	-5.279960	2.639980	2.136400	-0.744017	-0.007080	0.657652	-1.000000	-1.000000	-1.000000	-1.000000	-1.000000	-1.000000	-1.000000	65.000000	0.000000	-1.000000	-1.000000	559230.000000	1776577517.578448
-1958.130000	-38897.055000	6257.205000	38705.175000	-5374.440000	8920.620000	-27677.430000	11566.170000	-1.712240	-2.795783	-4.461987	-6.067193	-6.000703	-5.901526	-0.687600	-1.060072	-5.279960	2.639980	2.136400	-0.744017	-0.007080	0.657652	-1.000000	-1.000000	-1.000000	-1.000000	-1.000000	-1.000000	-1.000000	65.000000	0.000000	-1.000000	-1.000000	559231.000000	1776577517.578481
-1956.825000	-38893.815000	6259.815000	38708.010000	-5368.320000	8950.410000	-27674.235000	11569.770000	-1.554133	-0.892547	-0.603731	0.377705	-1.319083	-12.876540	-2.955704	2.295667	-5.279960	2.639980	2.136400	-0.744017	-0.007080	0.657652	-1.000000	-1.000000	-1.000000	-1.000000	-1.000000	-1.000000	-1.000000	65.000000	0.000000	-1.000000	-1.000000	559232.000000	1776577517.582546
-1956.195000	-38890.170000	6266.970000	38719.980000	-5357.295000	8960.895000	-27674.865000	11570.760000	-0.696571	1.446644	4.135523	8.124614	5.941666	-12.960592	-3.930193	5.290732	-5.279960	2.639980	2.136400	-0.744017	-0.007080	0.657652	-1.000000	-1.000000	-1.000000	-1.000000	-1.000000	-1.000000	-1.000000	65.000000	0.000000	-1.000000	-1.000000	559233.000000	1776577517.582556
-1957.815000	-38888.055000	6270.435000	38724.525000	-5354.370000	8961.930000	-27680.985000	11566.530000	0.140648	2.579999	6.448156	11.918270	10.647967	-4.591678	-3.426326	6.372419	-5.279960	2.639980	2.136400	-0.744017	-0.007080	0.657652	-1.000000	-1.000000	-1.000000	-1.000000	-1.000000	-1.000000	-1.000000	65.000000	0.000000	-1.000000	-1.000000	559234.000000	1776577517.586508
-1959.030000	-38886.750000	6271.785000	38725.920000	-5352.705000	8962.470000	-27686.070000	11562.660000	0.408398	2.042401	5.296686	9.979964	10.029365	6.481560	-2.261048	4.687081	-5.279960	2.639980	2.136400	-0.744017	-0.007080	0.657652	-1.000000	-1.000000	-1.000000	-1.000000	-1.000000	-1.000000	-1.000000	65.000000	0.000000	-1.000000	-1.000000	559235.000000	1776577517.586529
-1961.865000	-38887.830000	6270.615000	38725.560000	-5353.200000	8960.805000	-27689.355000	11558.835000	-0.028998	0.243680	1.486337	3.535730	4.446233	12.774563	-1.332121	0.870474	-5.279960	2.639980	2.136400	-0.744017	-0.007080	0.657652	-1.000000	-1.000000	-1.000000	-1.000000	-1.000000	-1.000000	-1.000000	65.000000	0.000000	-1.000000	-1.000000	559236.000000	1776577517.590401
-1967.445000	-38891.610000	6268.320000	38726.460000	-5353.695000	8957.520000	-27691.695000	11552.850000	-0.912277	-2.023218	-3.222225	-4.375442	-3.283955	11.255733	-0.696995	-3.234533	-5.279960	2.639980	2.136400	-0.744017	-0.007080	0.657652	-1.000000	-1.000000	-1.000000	-1.000000	-1.000000	-1.000000	-1.000000	65.000000	0.000000	-1.000000	-1.000000	559237.000000	1776577517.590409
-1971.495000	-38897.145000	6263.505000	38723.535000	-5358.960000	8951.130000	-27688.905000	11552.220000	-1.836124	-3.998881	-6.971000	-10.408182	-9.694753	3.994815	0.163077	-5.746145	0.488320	3.509800	-0.167860	-0.745237	-0.022461	0.654661	-1.000000	-1.000000	-1.000000	-1.000000	-1.000000	-1.000000	-1.000000	65.000000	0.000000	-1.000000	-1.000000	559238.000000	1776577517.594578
-1968.795000	-38900.115000	6255.405000	38713.230000	-5371.740000	8940.825000	-27682.605000	11562.435000	-2.214984	-5.058138	-8.599903	-12.690102	-12.690537	-4.608804	1.693051	-5.432141	0.488320	3.509800	-0.167860	-0.745237	-0.022461	0.654661	-1.000000	-1.000000	-1.000000	-1.000000	-1.000000	-1.000000	-1.000000	65.000000	0.000000	-1.000000	-1.000000	559239.000000	1776577517.594587
-1957.095000	-38901.015000	6248.115000	38706.255000	-5377.365000	8928.990000	-27687.105000	11578.320000	-1.204787	-4.662219	-7.953853	-11.443338	-12.114998	-10.750946	3.586798	-1.903885	0.488320	3.509800	-0.167860	-0.745237	-0.022461	0.654661	-1.000000	-1.000000	-1.000000	-1.000000	-1.000000	-1.000000	-1.000000	65.000000	0.000000	-1.000000	-1.000000	559240.000000	1776577517.601458
-1952.505000	-38897.325000	6253.920000	38718.405000	-5361.570000	8930.070000	-27691.920000	11583.405000	1.526961	-2.550211	-5.309145	-7.556449	-8.311246	-12.372007	4.489276	3.629344	0.488320	3.509800	-0.167860	-0.745237	-0.022461	0.654661	-1.000000	-1.000000	-1.000000	-1.000000	-1.000000	-1.000000	-1.000000	65.000000	0.000000	-1.000000	-1.000000	559241.000000	1776577517.601480
-1949.625000	-38886.705000	6267.870000	38729.250000	-5355.180000	8939.385000	-27683.325000	11584.395000	4.714405	1.017590	-0.685090	-1.346977	-1.412091	-8.838282	3.417834	8.034663	0.488320	3.509800	-0.167860	-0.745237	-0.022461	0.654661	-1.000000	-1.000000	-1.000000	-1.000000	-1.000000	-1.000000	-1.000000	65.000000	0.000000	-1.000000	-1.000000	559242.000000	1776577517.602692
-1959.030000	-38894.310000	6256.395000	38707.245000	-5371.695000	8944.920000	-27676.440000	11579.850000	5.919125	4.866698	5.078272	5.649543	6.506153	-1.152308	1.341638	8.138040	0.488320	3.509800	-0.167860	-0.745237	-0.022461	0.654661	-1.000000	-1.000000	-1.000000	-1.000000	-1.000000	-1.000000	-1.000000	65.000000	0.000000	-1.000000	-1.000000	559243.000000	1776577517.602699
-1967.850000	-38908.440000	6239.430000	38689.155000	-5388.435000	8943.390000	-27676.395000	11574.045000	3.453682	6.614188	8.849629	9.357602	10.812897	7.371071	-0.105064	3.314648	0.488320	3.509800	-0.167860	-0.745237	-0.022461	0.654661	-1.000000	-1.000000	-1.000000	-1.000000	-1.000000	-1.000000	-1.000000	65.000000	0.000000	-1.000000	-1.000000	559244.000000	1776577517.606476
-1966.275000	-38906.325000	6240.735000	38691.990000	-5387.265000	8943.120000	-27685.800000	11571.435000	-1.784378	4.547442	7.722547	7.220319	8.763091	12.404861	-0.897824	-3.936665	0.488320	3.509800	-0.167860	-0.745237	-0.022461	0.654661	-1.000000	-1.000000	-1.000000	-1.000000	-1.000000	-1.000000	-1.000000	65.000000	0.000000	-1.000000	-1.000000	559245.000000	1776577517.606484
-1969.785000	-38904.345000	6248.295000	38708.820000	-5364.855000	8945.280000	-27687.105000	11565.585000	-6.517078	0.202815	3.060863	2.296552	3.349059	11.681462	-2.149874	-9.740566	0.488320	3.509800	-0.167860	-0.745237	-0.022461	0.654661	-1.000000	-1.000000	-1.000000	-1.000000	-1.000000	-1.000000	-1.000000	65.000000	0.000000	-1.000000	-1.000000	559246.000000	1776577517.610654
-1969.245000	-38902.230000	6252.705000	38718.765000	-5355.495000	8936.190000	-27688.905000	11564.010000	-7.826593	-2.962247	-0.810927	0.071842	0.299984	6.252893	-3.916503	-11.346139	0.488320	3.509800	-0.167860	-0.745237	-0.022461	0.654661	-1.000000	-1.000000	-1.000000	-1.000000	-1.000000	-1.000000	-1.000000	65.000000	0.000000	-1.000000	-1.000000	559247.000000	1776577517.610666
-1973.565000	-38904.255000	6248.115000	38702.520000	-5376.645000	8941.095000	-27688.635000	11558.610000	-5.381233	-3.167906	-1.543032	1.866321	1.202565	-0.889939	-4.869116	-8.465552	6.027700	3.952340	-3.326680	-0.745359	-0.028198	0.652647	-1.000000	-1.000000	-1.000000	-1.000000	-1.000000	-1.000000	-1.000000	65.000000	0.000000	-1.000000	-1.000000	559248.000000	1776577517.614620
-1969.380000	-38895.165000	6257.070000	38709.180000	-5364.945000	8956.305000	-27688.140000	11558.070000	-0.961339	-1.153550	-0.218164	3.998654	2.421081	-6.148319	-3.919810	-2.880949	6.027700	3.952340	-3.326680	-0.745359	-0.028198	0.652647	-1.000000	-1.000000	-1.000000	-1.000000	-1.000000	-1.000000	-1.000000	65.000000	0.000000	-1.000000	-1.000000	559249.000000	1776577517.614633
-1964.520000	-38890.665000	6260.670000	38713.230000	-5365.935000	8954.235000	-27692.370000	11558.295000	3.376137	1.527522	1.256181	3.412021	1.215721	-7.014875	-1.366530	2.958080	6.027700	3.952340	-3.326680	-0.745359	-0.028198	0.652647	-1.000000	-1.000000	-1.000000	-1.000000	-1.000000	-1.000000	-1.000000	65.000000	0.000000	-1.000000	-1.000000	559250.000000	1776577517.618742
-1962.720000	-38891.295000	6258.240000	38712.195000	-5373.405000	8942.760000	-27694.710000	11560.410000	6.290014	3.463131	1.785510	0.709182	-1.600004	-4.513197	1.362300	7.199525	6.027700	3.952340	-3.326680	-0.745359	-0.028198	0.652647	-1.000000	-1.000000	-1.000000	-1.000000	-1.000000	-1.000000	-1.000000	65.000000	0.000000	-1.000000	-1.000000	559251.000000	1776577517.618762
-1967.670000	-38896.605000	6254.280000	38711.295000	-5370.840000	8941.185000	-27695.520000	11561.850000	6.874061	3.384684	0.756957	-2.259600	-4.339813	-2.118044	2.960071	8.962174	6.027700	3.952340	-3.326680	-0.745359	-0.028198	0.652647	-1.000000	-1.000000	-1.000000	-1.000000	-1.000000	-1.000000	-1.000000	65.000000	0.000000	-1.000000	-1.000000	559252.000000	1776577517.622665
-1962.495000	-38889.855000	6263.280000	38723.220000	-5355.765000	8949.735000	-27687.465000	11571.840000	4.850398	1.071376	-1.498673	-4.128366	-5.388042	-1.442971	3.333234	8.338836	6.027700	3.952340	-3.326680	-0.745359	-0.028198	0.652647	-1.000000	-1.000000	-1.000000	-1.000000	-1.000000	-1.000000	-1.000000	65.000000	0.000000	-1.000000	-1.000000	559253.000000	1776577517.622702
-1964.610000	-38893.995000	6258.825000	38719.080000	-5362.470000	8944.065000	-27685.125000	11575.530000	1.272489	-2.010338	-3.449597	-4.098390	-3.677983	-1.253983	3.299466	6.195706	6.027700	3.952340	-3.326680	-0.745359	-0.028198	0.652647	-1.000000	-1.000000	-1.000000	-1.000000	-1.000000	-1.000000	-1.000000	65.000000	0.000000	-1.000000	-1.000000	559254.000000	1776577517.626495
-1968.345000	-38896.380000	6253.875000	38709.630000	-5370.030000	8938.755000	-27689.805000	11571.570000	-2.198754	-4.143456	-4.062992	-2.844090	-0.578709	-0.539235	3.133825	3.228571	6.027700	3.952340	-3.326680	-0.745359	-0.028198	0.652647	-1.000000	-1.000000	-1.000000	-1.000000	-1.000000	-1.000000	-1.000000	65.000000	0.000000	-1.000000	-1.000000	559255.000000	1776577517.626505
-1971.900000	-38896.515000	6254.550000	38709.405000	-5369.220000	8935.965000	-27694.980000	11565.495000	-4.554351	-4.680518	-3.625082	-2.047323	1.216192	0.214578	2.058247	-0.561920	6.027700	3.952340	-3.326680	-0.745359	-0.028198	0.652647	-1.000000	-1.000000	-1.000000	-1.000000	-1.000000	-1.000000	-1.000000	65.000000	0.000000	-1.000000	-1.000000	559256.000000	1776577517.630505
-1975.500000	-38898.045000	6252.795000	38710.350000	-5369.445000	8933.760000	-27702.270000	11559.645000	-5.448726	-3.713286	-2.546510	-2.069341	0.964441	0.543203	-0.442205	-4.900078	6.027700	3.952340	-3.326680	-0.745359	-0.028198	0.652647	-1.000000	-1.000000	-1.000000	-1.000000	-1.000000	-1.000000	-1.000000	65.000000	0.000000	-1.000000	-1.000000	559257.000000	1776577517.630520
-1979.100000	-38901.420000	6248.790000	38708.145000	-5372.640000	8929.530000	-27709.605000	11554.380000	-4.848875	-1.768500	-1.011025	-1.788676	-0.028959	0.652669	-3.600132	-8.457237	2.914660	5.707240	-4.715340	-0.744810	-0.020630	0.651793	-1.000000	-1.000000	-1.000000	-1.000000	-1.000000	-1.000000	-1.000000	65.000000	0.000000	-1.000000	-1.000000	559258.000000	1776577517.634528
-1978.110000	-38897.190000	6255.360000	38717.010000	-5366.880000	8932.725000	-27714.735000	11553.885000	-2.981674	0.384289	0.686532	-0.372836	-0.446199	0.903169	-5.856867	-9.528079	2.914660	5.707240	-4.715340	-0.744810	-0.020630	0.651793	-1.000000	-1.000000	-1.000000	-1.000000	-1.000000	-1.000000	-1.000000	65.000000	0.000000	-1.000000	-1.000000	559259.000000	1776577517.634537
-1975.995000	-38893.995000	6261.300000	38730.510000	-5357.115000	8934.660000	-27715.590000	11558.205000	-0.247584	2.304877	2.473910	2.247521	0.395277	1.576986	-5.862172	-7.168174	2.914660	5.707240	-4.715340	-0.744810	-0.020630	0.651793	-1.000000	-1.000000	-1.000000	-1.000000	-1.000000	-1.000000	-1.000000	65.000000	0.000000	-1.000000	-1.000000	559260.000000	1776577517.638642
-1975.320000	-38893.770000	6258.420000	38724.390000	-5362.740000	8930.475000	-27710.190000	11559.420000	2.684191	3.752939	4.128625	5.199462	2.232740	2.496077	-3.156389	-1.964585	2.914660	5.707240	-4.715340	-0.744810	-0.020630	0.651793	-1.000000	-1.000000	-1.000000	-1.000000	-1.000000	-1.000000	-1.000000	65.000000	0.000000	-1.000000	-1.000000	559261.000000	1776577517.638651
-1976.670000	-38893.590000	6258.330000	38725.920000	-5353.965000	8935.515000	-27698.445000	11560.860000	4.768020	4.207511	4.655145	6.396383	3.634430	2.924352	1.641768	3.906075	2.914660	5.707240	-4.715340	-0.744810	-0.020630	0.651793	-1.000000	-1.000000	-1.000000	-1.000000	-1.000000	-1.000000	-1.000000	65.000000	0.000000	-1.000000	-1.000000	559262.000000	1776577517.642632
-1966.680000	-38882.655000	6262.740000	38723.670000	-5357.385000	8944.425000	-27674.595000	11571.705000	5.253872	3.454018	3.369835	4.365666	3.376644	2.620541	7.187558	8.005262	2.914660	5.707240	-4.715340	-0.744810	-0.020630	0.651793	-1.000000	-1.000000	-1.000000	-1.000000	-1.000000	-1.000000	-1.000000	65.000000	0.000000	-1.000000	-1.000000	559263.000000	1776577517.642642
-1964.340000	-38883.960000	6254.820000	38707.245000	-5380.695000	8927.280000	-27678.870000	11575.215000	4.409727	2.084049	0.833484	-0.253001	1.035687	1.758260	11.419593	9.214040	2.914660	5.707240	-4.715340	-0.744810	-0.020630	0.651793	-1.000000	-1.000000	-1.000000	-1.000000	-1.000000	-1.000000	-1.000000	65.000000	0.000000	-1.000000	-1.000000	559264.000000	1776577517.646750
-1961.955000	-38888.100000	6249.510000	38703.735000	-5382.180000	8918.865000	-27683.595000	11580.570000	2.855435	0.479400	-2.047086	-5.554404	-3.214887	-0.280240	11.393880	7.666055	2.914660	5.707240	-4.715340	-0.744810	-0.020630	0.651793	-1.000000	-1.000000	-1.000000	-1.000000	-1.000000	-1.000000	-1.000000	65.000000	0.000000	-1.000000	-1.000000	559265.000000	1776577517.646788
-1952.370000	-38878.605000	6261.390000	38716.605000	-5371.740000	8935.830000	-27676.665000	11587.905000	0.949750	-1.380816	-4.226681	-8.774747	-7.095912	-3.262954	5.670843	4.152898	2.914660	5.707240	-4.715340	-0.744810	-0.020630	0.651793	-1.000000	-1.000000	-1.000000	-1.000000	-1.000000	-1.000000	-1.000000	65.000000	0.000000	-1.000000	-1.000000	559266.000000	1776577517.650686
-1955.565000	-38881.755000	6258.105000	38713.320000	-5371.380000	8939.835000	-27677.745000	11587.635000	-0.933668	-2.894193	-4.321479	-7.398037	-7.076155	-4.589170	-3.096180	-0.082124	2.914660	5.707240	-4.715340	-0.744810	-0.020630	0.651793	-1.000000	-1.000000	-1.000000	-1.000000	-1.000000	-1.000000	-1.000000	65.000000	0.000000	-1.000000	-1.000000	559267.000000	1776577517.650695
-1968.255000	-38899.710000	6240.240000	38700.495000	-5377.815000	8936.505000	-27682.695000	11582.370000	-2.873728	-3.737064	-2.529555	-2.243336	-2.662061	-2.654808	-10.375194	-4.030488	-2.899400	4.165980	-1.938020	-0.745054	-0.010681	0.654356	-1.000000	-1.000000	-1.000000	-1.000000	-1.000000	-1.000000	-1.000000	65.000000	0.000000	-1.000000	-1.000000	559268.000000	1776577517.654613
-1970.280000	-38901.465000	6238.350000	38699.010000	-5387.130000	8920.215000	-27687.555000	11580.480000	-5.251082	-4.581238	-1.029447	2.768820	2.658824	0.352213	-13.488248	-7.155469	-2.899400	4.165980	-1.938020	-0.745054	-0.010681	0.654356	-1.000000	-1.000000	-1.000000	-1.000000	-1.000000	-1.000000	-1.000000	65.000000	0.000000	-1.000000	-1.000000	559269.000000	1776577517.654621
-1973.205000	-38901.735000	6237.585000	38701.170000	-5386.050000	8913.780000	-27689.040000	11576.655000	-7.233352	-5.162925	-0.804441	4.986654	5.307026	1.113520	-12.193576	-8.781645	-2.899400	4.165980	-1.938020	-0.745054	-0.010681	0.654356	-1.000000	-1.000000	-1.000000	-1.000000	-1.000000	-1.000000	-1.000000	65.000000	0.000000	-1.000000	-1.000000	559270.000000	1776577517.658739
-1972.125000	-38897.820000	6242.130000	38706.525000	-5374.755000	8925.435000	-27697.635000	11574.045000	-7.039062	-3.898651	-0.494507	4.973907	5.002295	-0.588015	-7.712566	-8.202700	-2.899400	4.165980	-1.938020	-0.745054	-0.010681	0.654356	-1.000000	-1.000000	-1.000000	-1.000000	-1.000000	-1.000000	-1.000000	65.000000	0.000000	-1.000000	-1.000000	559271.000000	1776577517.658762
-1969.020000	-38892.105000	6246.540000	38709.945000	-5371.245000	8925.750000	-27698.715000	11575.845000	-3.879658	-0.115242	1.250946	4.403089	3.931693	-1.789673	-2.020422	-5.340602	-2.899400	4.165980	-1.938020	-0.745054	-0.010681	0.654356	-1.000000	-1.000000	-1.000000	-1.000000	-1.000000	-1.000000	-1.000000	65.000000	0.000000	-1.000000	-1.000000	559272.000000	1776577517.662560
-1975.455000	-38897.505000	6243.525000	38708.685000	-5373.945000	8922.420000	-27697.635000	11572.245000	1.052229	4.675968	3.934341	3.863104	3.354638	-0.563799	3.148994	-0.990839	-2.899400	4.165980	-1.938020	-0.745054	-0.010681	0.654356	-1.000000	-1.000000	-1.000000	-1.000000	-1.000000	-1.000000	-1.000000	65.000000	0.000000	-1.000000	-1.000000	559273.000000	1776577517.662571
-1980.045000	-38898.630000	6243.570000	38709.810000	-5378.490000	8920.980000	-27699.750000	11566.890000	5.172680	7.682773	5.627923	2.789222	2.391725	1.818623	6.870523	3.225788	-2.899400	4.165980	-1.938020	-0.745054	-0.010681	0.654356	-1.000000	-1.000000	-1.000000	-1.000000	-1.000000	-1.000000	-1.000000	65.000000	0.000000	-1.000000	-1.000000	559274.000000	1776577517.666522
-1974.330000	-38893.005000	6247.845000	38713.410000	-5378.805000	8919.900000	-27699.255000	11569.950000	6.604716	7.274949	5.000922	0.842310	0.068750	3.193535	8.608744	5.731257	-2.899400	4.165980	-1.938020	-0.745054	-0.010681	0.654356	-1.000000	-1.000000	-1.000000	-1.000000	-1.000000	-1.000000	-1.000000	65.000000	0.000000	-1.000000	-1.000000	559275.000000	1776577517.666536
-1969.830000	-38888.100000	6252.705000	38719.485000	-5370.120000	8928.270000	-27695.205000	11573.730000	5.773383	4.426581	2.632758	-1.272045	-2.768904	2.952777	8.223345	6.274543	-2.899400	4.165980	-1.938020	-0.745054	-0.010681	0.654356	-1.000000	-1.000000	-1.000000	-1.000000	-1.000000	-1.000000	-1.000000	65.000000	0.000000	-1.000000	-1.000000	559276.000000	1776577517.670588
-1973.340000	-38889.585000	6252.435000	38720.925000	-5367.735000	8929.170000	-27698.670000	11569.905000	4.116436	1.166570	0.010881	-2.550938	-4.156692	1.997195	6.173184	5.558110	-2.899400	4.165980	-1.938020	-0.745054	-0.010681	0.654356	-1.000000	-1.000000	-1.000000	-1.000000	-1.000000	-1.000000	-1.000000	65.000000	0.000000	-1.000000	-1.000000	559277.000000	1776577517.670605
-1975.545000	-38890.845000	6251.265000	38720.835000	-5368.905000	8924.985000	-27702.090000	11567.970000	2.140906	-1.474579	-2.039784	-2.808795	-3.340113	1.030968	3.024025	3.921885	-6.454980	3.418240	-0.610400	-0.745176	-0.010803	0.654173	-1.000000	-1.000000	-1.000000	-1.000000	-1.000000	-1.000000	-1.000000	65.000000	0.000000	-1.000000	-1.000000	559278.000000	1776577517.674759
-1974.555000	-38887.110000	6253.380000	38721.735000	-5366.340000	8923.050000	-27701.190000	11567.925000	-0.188573	-3.329440	-3.414976	-2.619392	-1.468391	-0.221991	-0.579635	1.503133	-6.454980	3.418240	-0.610400	-0.745176	-0.010803	0.654173	-1.000000	-1.000000	-1.000000	-1.000000	-1.000000	-1.000000	-1.000000	65.000000	0.000000	-1.000000	-1.000000	559279.000000	1776577517.674774
-1978.470000	-38884.545000	6257.520000	38725.605000	-5363.370000	8923.995000	-27699.165000	11564.055000	-2.387924	-4.099140	-3.913505	-2.354233	0.062942	-1.860946	-3.477079	-1.054251	-6.454980	3.418240	-0.610400	-0.745176	-0.010803	0.654173	-1.000000	-1.000000	-1.000000	-1.000000	-1.000000	-1.000000	-1.000000	65.000000	0.000000	-1.000000	-1.000000	559280.000000	1776577517.678656
-1989.720000	-38891.790000	6253.245000	38722.725000	-5372.910000	8913.375000	-27709.920000	11550.330000	-3.941835	-3.695103	-3.349117	-1.921321	0.591112	-3.287743	-4.758998	-3.159448	-6.454980	3.418240	-0.610400	-0.745176	-0.010803	0.654173	-1.000000	-1.000000	-1.000000	-1.000000	-1.000000	-1.000000	-1.000000	65.000000	0.000000	-1.000000	-1.000000	559281.000000	1776577517.678674
-1984.635000	-38882.205000	6267.105000	38749.365000	-5345.190000	8914.320000	-27715.230000	11547.540000	-4.659609	-2.626858	-1.941492	-0.873003	0.395027	-3.982260	-4.768964	-4.685605	-6.454980	3.418240	-0.610400	-0.745176	-0.010803	0.654173	-1.000000	-1.000000	-1.000000	-1.000000	-1.000000	-1.000000	-1.000000	65.000000	0.000000	-1.000000	-1.000000	559282.000000	1776577517.682634
-1970.280000	-38869.290000	6282.900000	38773.710000	-5321.790000	8921.115000	-27709.965000	11560.680000	-3.746094	-0.960839	0.304724	1.782408	1.246565	-3.425462	-4.081269	-4.875036	-6.454980	3.418240	-0.610400	-0.745176	-0.010803	0.654173	-1.000000	-1.000000	-1.000000	-1.000000	-1.000000	-1.000000	-1.000000	65.000000	0.000000	-1.000000	-1.000000	559283.000000	1776577517.682647
-1972.440000	-38879.145000	6263.460000	38734.380000	-5364.540000	8927.235000	-27703.305000	11567.295000	-0.507461	1.323001	2.825661	5.086237	3.340092	-1.045770	-2.265419	-2.360568	-6.454980	3.418240	-0.610400	-0.745176	-0.010803	0.654173	-1.000000	-1.000000	-1.000000	-1.000000	-1.000000	-1.000000	-1.000000	65.000000	0.000000	-1.000000	-1.000000	559284.000000	1776577517.686634
-1984.320000	-38890.215000	6251.445000	38726.775000	-5355.810000	8940.285000	-27694.890000	11568.870000	3.311153	2.608977	3.137566	4.561322	2.950809	2.768774	1.063640	2.426498	-6.454980	3.418240	-0.610400	-0.745176	-0.010803	0.654173	-1.000000	-1.000000	-1.000000	-1.000000	-1.000000	-1.000000	-1.000000	65.000000	0.000000	-1.000000	-1.000000	559285.000000	1776577517.686669
-1982.340000	-38886.840000	6254.820000	38734.695000	-5369.895000	8902.260000	-27702.630000	11573.370000	4.597314	1.260190	-0.198289	-1.539542	-1.797816	5.643974	4.633109	6.617881	-6.454980	3.418240	-0.610400	-0.745176	-0.010803	0.654173	-1.000000	-1.000000	-1.000000	-1.000000	-1.000000	-1.000000	-1.000000	65.000000	0.000000	-1.000000	-1.000000	559286.000000	1776577517.690564
-1983.060000	-38887.470000	6252.480000	38729.655000	-5375.475000	8895.465000	-27708.480000	11574.135000	2.662288	-1.540403	-4.543622	-8.251030	-7.554977	4.167137	5.893308	7.550531	-6.454980	3.418240	-0.610400	-0.745176	-0.010803	0.654173	-1.000000	-1.000000	-1.000000	-1.000000	-1.000000	-1.000000	-1.000000	65.000000	0.000000	-1.000000	-1.000000	559287.000000	1776577517.690586
-1987.470000	-38895.795000	6238.935000	38706.660000	-5385.645000	8905.860000	-27715.905000	11572.245000	-0.443132	-3.284327	-6.351160	-10.482518	-10.238590	-1.446126	3.422673	4.769896	-5.691980	3.280900	0.000000	-0.745543	-0.018188	0.653075	-1.000000	-1.000000	-1.000000	-1.000000	-1.000000	-1.000000	-1.000000	65.000000	0.000000	-1.000000	-1.000000	559288.000000	1776577517.694704
-1994.670000	-38905.020000	6226.920000	38690.145000	-5401.890000	8892.180000	-27723.060000	11568.510000	-2.765576	-3.215670	-5.143383	-8.423956	-8.570301	-6.222569	-1.466245	-0.272580	-5.691980	3.280900	0.000000	-0.745543	-0.018188	0.653075	-1.000000	-1.000000	-1.000000	-1.000000	-1.000000	-1.000000	-1.000000	65.000000	0.000000	-1.000000	-1.000000	559289.000000	1776577517.694717
-1988.235000	-38901.960000	6230.520000	38703.420000	-5386.455000	8903.430000	-27707.895000	11574.810000	-3.516406	-2.032765	-2.379773	-4.281926	-3.548247	-6.308100	-5.493801	-5.137371	-5.691980	3.280900	0.000000	-0.745543	-0.018188	0.653075	-1.000000	-1.000000	-1.000000	-1.000000	-1.000000	-1.000000	-1.000000	65.000000	0.000000	-1.000000	-1.000000	559290.000000	1776577517.698700
-1975.950000	-38895.795000	6230.835000	38700.855000	-5390.640000	8917.785000	-27697.815000	11584.575000	-2.177449	0.028790	1.178285	1.431207	3.359342	-1.753642	-5.451885	-7.277295	-5.691980	3.280900	0.000000	-0.745543	-0.018188	0.653075	-1.000000	-1.000000	-1.000000	-1.000000	-1.000000	-1.000000	-1.000000	65.000000	0.000000	-1.000000	-1.000000	559291.000000	1776577517.698710
-1974.555000	-38895.705000	6226.920000	38687.310000	-5403.645000	8918.325000	-27694.935000	11587.320000	1.165342	2.961109	5.034156	7.755483	9.767341	4.995223	-0.988423	-5.580737	-5.691980	3.280900	0.000000	-0.745543	-0.018188	0.653075	-1.000000	-1.000000	-1.000000	-1.000000	-1.000000	-1.000000	-1.000000	65.000000	0.000000	-1.000000	-1.000000	559292.000000	1776577517.703142
-1980.450000	-38897.190000	6230.070000	38697.975000	-5391.090000	8916.570000	-27696.735000	11579.985000	4.530914	5.617528	7.837642	11.846624	12.580495	9.929371	4.459947	-1.691683	-5.691980	3.280900	0.000000	-0.745543	-0.018188	0.653075	-1.000000	-1.000000	-1.000000	-1.000000	-1.000000	-1.000000	-1.000000	65.000000	0.000000	-1.000000	-1.000000	559293.000000	1776577517.703150
-1976.670000	-38891.115000	6237.630000	38709.585000	-5383.305000	8913.960000	-27685.305000	11583.945000	5.263093	6.386176	8.512528	12.324554	11.245183	9.688384	6.948613	1.330316	-5.691980	3.280900	0.000000	-0.745543	-0.018188	0.653075	-1.000000	-1.000000	-1.000000	-1.000000	-1.000000	-1.000000	-1.000000	65.000000	0.000000	-1.000000	-1.000000	559294.000000	1776577517.709225
-1980.630000	-38890.890000	6237.495000	38710.845000	-5383.035000	8913.960000	-27684.360000	11581.470000	2.805786	4.905327	7.161076	10.270494	7.719112	4.359065	5.522768	1.980444	-5.691980	3.280900	0.000000	-0.745543	-0.018188	0.653075	-1.000000	-1.000000	-1.000000	-1.000000	-1.000000	-1.000000	-1.000000	65.000000	0.000000	-1.000000	-1.000000	559295.000000	1776577517.709238
-1980.180000	-38886.795000	6243.930000	38717.910000	-5376.645000	8915.535000	-27693.945000	11580.750000	-1.104957	2.082968	4.364785	6.675367	3.489880	-2.750705	1.533568	0.946585	-5.691980	3.280900	0.000000	-0.745543	-0.018188	0.653075	-1.000000	-1.000000	-1.000000	-1.000000	-1.000000	-1.000000	-1.000000	65.000000	0.000000	-1.000000	-1.000000	559296.000000	1776577517.710796
-1982.340000	-38882.430000	6244.020000	38712.555000	-5377.455000	8911.080000	-27695.745000	11576.115000	-4.280238	-0.827339	0.812274	1.815590	-0.843011	-7.885266	-3.429939	-0.481853	-5.691980	3.280900	0.000000	-0.745543	-0.018188	0.653075	-1.000000	-1.000000	-1.000000	-1.000000	-1.000000	-1.000000	-1.000000	65.000000	0.000000	-1.000000	-1.000000	559297.000000	1776577517.710827
-1981.620000	-38878.875000	6246.315000	38714.040000	-5377.590000	8904.285000	-27699.615000	11573.820000	-5.361237	-2.803190	-2.670949	-3.731068	-4.738769	-9.384821	-7.562823	-1.452546	-0.045780	1.617560	-2.166920	-0.748716	-0.028137	0.652891	-1.000000	-1.000000	-1.000000	-1.000000	-1.000000	-1.000000	-1.000000	65.000000	0.000000	-1.000000	-1.000000	559298.000000	1776577517.714756
-1979.820000	-38882.205000	6249.195000	38724.750000	-5375.880000	8905.905000	-27704.475000	11574.585000	-4.168532	-3.599262	-5.276032	-8.373864	-7.538697	-7.773135	-9.047868	-1.541153	-0.045780	1.617560	-2.166920	-0.748716	-0.028137	0.652891	-1.000000	-1.000000	-1.000000	-1.000000	-1.000000	-1.000000	-1.000000	65.000000	0.000000	-1.000000	-1.000000	559299.000000	1776577517.714774
-1979.055000	-38883.240000	6246.810000	38723.355000	-5375.565000	8908.920000	-27704.520000	11574.450000	-1.484828	-3.773689	-6.429295	-10.095935	-8.513013	-4.145056	-7.265150	-0.603893	-0.045780	1.617560	-2.166920	-0.748716	-0.028137	0.652891	-1.000000	-1.000000	-1.000000	-1.000000	-1.000000	-1.000000	-1.000000	65.000000	0.000000	-1.000000	-1.000000	559300.000000	1776577517.718680
-1981.800000	-38890.395000	6236.190000	38709.720000	-5383.170000	8906.310000	-27703.845000	11576.520000	1.322048	-3.906835	-6.314799	-8.749153	-7.504975	0.368318	-2.988183	1.058748	-0.045780	1.617560	-2.166920	-0.748716	-0.028137	0.652891	-1.000000	-1.000000	-1.000000	-1.000000	-1.000000	-1.000000	-1.000000	65.000000	0.000000	-1.000000	-1.000000	559301.000000	1776577517.718690
-1979.820000	-38884.995000	6245.820000	38727.045000	-5366.025000	8909.910000	-27703.665000	11580.525000	2.968582	-3.882844	-5.461437	-5.998277	-4.966821	4.262163	2.161565	2.769896	-0.045780	1.617560	-2.166920	-0.748716	-0.028137	0.652891	-1.000000	-1.000000	-1.000000	-1.000000	-1.000000	-1.000000	-1.000000	65.000000	0.000000	-1.000000	-1.000000	559302.000000	1776577517.724558
-1982.070000	-38883.195000	6248.655000	38726.685000	-5366.790000	8910.945000	-27706.050000	11575.215000	3.039959	-2.900717	-3.560426	-2.623653	-1.206306	6.289427	6.231012	3.731127	-0.045780	1.617560	-2.166920	-0.748716	-0.028137	0.652891	-1.000000	-1.000000	-1.000000	-1.000000	-1.000000	-1.000000	-1.000000	65.000000	0.000000	-1.000000	-1.000000	559303.000000	1776577517.724570
-1986.885000	-38888.325000	6242.400000	38718.675000	-5376.555000	8903.385000	-27708.705000	11568.600000	1.887963	-0.656706	-0.430463	1.003012	2.667657	5.985521	7.703440	3.105951	-0.045780	1.617560	-2.166920	-0.748716	-0.028137	0.652891	-1.000000	-1.000000	-1.000000	-1.000000	-1.000000	-1.000000	-1.000000	65.000000	0.000000	-1.000000	-1.000000	559304.000000	1776577517.726749
-1992.825000	-38889.855000	6243.705000	38725.695000	-5370.660000	8901.045000	-27707.805000	11564.055000	0.037113	1.762059	2.589170	3.480195	4.551631	3.491987	6.347467	0.686062	-0.045780	1.617560	-2.166920	-0.748716	-0.028137	0.652891	-1.000000	-1.000000	-1.000000	-1.000000	-1.000000	-1.000000	-1.000000	65.000000	0.000000	-1.000000	-1.000000	559305.000000	1776577517.726758
-1998.720000	-38890.080000	6242.850000	38721.195000	-5374.800000	8897.895000	-27710.145000	11557.755000	-1.895077	3.062978	4.036082	4.011467	3.804306	-0.159897	3.300616	-2.443062	-0.045780	1.617560	-2.166920	-0.748716	-0.028137	0.652891	-1.000000	-1.000000	-1.000000	-1.000000	-1.000000	-1.000000	-1.000000	65.000000	0.000000	-1.000000	-1.000000	559306.000000	1776577517.730715
-1998.720000	-38891.205000	6238.080000	38714.985000	-5381.685000	8895.285000	-27709.920000	11558.250000	-3.062324	3.047744	3.698697	2.989754	1.587281	-3.220755	0.135989	-4.511057	-0.045780	1.617560	-2.166920	-0.748716	-0.028137	0.652891	-1.000000	-1.000000	-1.000000	-1.000000	-1.000000	-1.000000	-1.000000	65.000000	0.000000	-1.000000	-1.000000	559307.000000	1776577517.730724
-1994.895000	-38888.865000	6237.495000	38717.235000	-5378.715000	8899.425000	-27702.855000	11566.170000	-2.585593	2.324319	2.159126	1.105531	-0.749481	-4.273449	-1.896997	-4.095927	-0.503580	2.365300	-0.473060	-0.749205	-0.029114	0.649473	-1.000000	-1.000000	-1.000000	-1.000000	-1.000000	-1.000000	-1.000000	65.000000	0.000000	-1.000000	-1.000000	559308.000000	1776577517.734842
-1987.020000	-38884.455000	6241.680000	38723.400000	-5372.820000	8901.990000	-27697.410000	11577.780000	-0.152932	1.640665	0.446239	-0.431647	-1.877699	-2.907717	-2.090859	-0.821233	-0.503580	2.365300	-0.473060	-0.749205	-0.029114	0.649473	-1.000000	-1.000000	-1.000000	-1.000000	-1.000000	-1.000000	-1.000000	65.000000	0.000000	-1.000000	-1.000000	559309.000000	1776577517.734859
-1983.060000	-38881.215000	6246.945000	38730.195000	-5368.635000	8902.080000	-27695.475000	11583.990000	3.379118	1.439886	-0.259142	-0.332883	-0.913732	0.014154	-0.769818	4.037631	-0.503580	2.365300	-0.473060	-0.749205	-0.029114	0.649473	-1.000000	-1.000000	-1.000000	-1.000000	-1.000000	-1.000000	-1.000000	65.000000	0.000000	-1.000000	-1.000000	559310.000000	1776577517.738770
-1985.625000	-38879.955000	6249.780000	38733.210000	-5372.190000	8896.455000	-27699.525000	11584.440000	6.032340	1.514366	0.430725	1.366647	1.393574	2.591586	0.577820	7.717559	-0.503580	2.365300	-0.473060	-0.749205	-0.029114	0.649473	-1.000000	-1.000000	-1.000000	-1.000000	-1.000000	-1.000000	-1.000000	65.000000	0.000000	-1.000000	-1.000000	559311.000000	1776577517.738785
-1987.965000	-38874.015000	6254.910000	38735.325000	-5374.755000	8895.600000	-27711.450000	11579.175000	5.847469	1.304890	1.714009	3.136748	2.981008	3.162362	0.263848	7.565231	-0.503580	2.365300	-0.473060	-0.749205	-0.029114	0.649473	-1.000000	-1.000000	-1.000000	-1.000000	-1.000000	-1.000000	-1.000000	65.000000	0.000000	-1.000000	-1.000000	559312.000000	1776577517.742728
-1994.895000	-38878.605000	6253.155000	38737.305000	-5366.385000	8896.095000	-27718.200000	11572.335000	2.448588	0.481439	2.332662	3.355275	2.611560	1.699176	-2.192617	3.002351	-0.503580	2.365300	-0.473060	-0.749205	-0.029114	0.649473	-1.000000	-1.000000	-1.000000	-1.000000	-1.000000	-1.000000	-1.000000	65.000000	0.000000	-1.000000	-1.000000	559313.000000	1776577517.742740
-1991.250000	-38878.065000	6253.245000	38737.935000	-5360.670000	8886.645000	-27723.285000	11572.560000	-2.441067	-0.996675	1.467716	1.638827	1.154828	-0.522273	-5.313219	-3.763276	-0.503580	2.365300	-0.473060	-0.749205	-0.029114	0.649473	-1.000000	-1.000000	-1.000000	-1.000000	-1.000000	-1.000000	-1.000000	65.000000	0.000000	-1.000000	-1.000000	559314.000000	1776577517.746714
-1987.695000	-38881.215000	6247.800000	38730.195000	-5365.935000	8885.115000	-27714.915000	11574.360000	-5.956292	-2.777981	-0.784321	-1.263861	-0.030964	-2.386058	-6.455537	-8.934457	-0.503580	2.365300	-0.473060	-0.749205	-0.029114	0.649473	-1.000000	-1.000000	-1.000000	-1.000000	-1.000000	-1.000000	-1.000000	65.000000	0.000000	-1.000000	-1.000000	559315.000000	1776577517.746722
-1995.390000	-38893.770000	6232.995000	38715.165000	-5375.970000	8896.005000	-27709.245000	11570.490000	-6.280448	-4.276228	-3.687442	-4.494665	-1.089569	-2.998065	-3.801484	-9.783529	-0.503580	2.365300	-0.473060	-0.749205	-0.029114	0.649473	-1.000000	-1.000000	-1.000000	-1.000000	-1.000000	-1.000000	-1.000000	65.000000	0.000000	-1.000000	-1.000000	559316.000000	1776577517.750693
-1977.390000	-38870.505000	6256.170000	38738.925000	-5345.910000	8925.345000	-27711.360000	11581.920000	-3.787514	-4.667202	-5.818173	-6.741129	-2.204657	-1.034349	1.765497	-6.310941	-0.503580	2.365300	-0.473060	-0.749205	-0.029114	0.649473	-1.000000	-1.000000	-1.000000	-1.000000	-1.000000	-1.000000	-1.000000	65.000000	0.000000	-1.000000	-1.000000	559317.000000	1776577517.750703
-1965.015000	-38857.365000	6268.140000	38751.525000	-5334.120000	8939.340000	-27701.370000	11594.925000	0.417433	-2.441907	-4.782822	-5.536839	-1.649478	3.924605	7.053890	-0.244375	0.320460	1.297100	0.457800	-0.748106	-0.027283	0.651182	-1.000000	-1.000000	-1.000000	-1.000000	-1.000000	-1.000000	-1.000000	65.000000	0.000000	-1.000000	-1.000000	559318.000000	1776577517.754644
-1974.600000	-38873.160000	6252.030000	38741.445000	-5341.230000	8941.905000	-27694.755000	11594.430000	4.731259	2.224408	-0.188696	-0.346251	1.218153	9.167865	9.433448	5.978128	0.320460	1.297100	0.457800	-0.748106	-0.027283	0.651182	-1.000000	-1.000000	-1.000000	-1.000000	-1.000000	-1.000000	-1.000000	65.000000	0.000000	-1.000000	-1.000000	559319.000000	1776577517.754658
-1989.945000	-38892.195000	6229.530000	38715.435000	-5376.960000	8936.010000	-27688.905000	11585.205000	6.097011	5.319508	3.797299	4.556309	2.801984	9.987927	8.417526	9.189191	0.320460	1.297100	0.457800	-0.748106	-0.027283	0.651182	-1.000000	-1.000000	-1.000000	-1.000000	-1.000000	-1.000000	-1.000000	65.000000	0.000000	-1.000000	-1.000000	559320.000000	1776577517.758667
-2002.770000	-38902.230000	6216.615000	38691.810000	-5416.560000	8849.610000	-27705.465000	11572.245000	2.400941	3.154064	2.787748	3.972557	-1.376383	2.671973	4.499405	7.021337	0.320460	1.297100	0.457800	-0.748106	-0.027283	0.651182	-1.000000	-1.000000	-1.000000	-1.000000	-1.000000	-1.000000	-1.000000	65.000000	0.000000	-1.000000	-1.000000	559321.000000	1776577517.758688
-2001.780000	-38898.135000	6220.170000	38693.790000	-5423.850000	8830.755000	-27714.555000	11570.805000	-4.306077	-2.593665	-2.147970	-1.937273	-10.434877	-12.663521	-1.740789	0.413308	0.320460	1.297100	0.457800	-0.748106	-0.027283	0.651182	-1.000000	-1.000000	-1.000000	-1.000000	-1.000000	-1.000000	-1.000000	65.000000	0.000000	-1.000000	-1.000000	559322.000000	1776577517.762559
-2001.690000	-38896.965000	6219.810000	38695.995000	-5411.925000	8858.340000	-27714.015000	11569.905000	-8.976549	-6.523285	-5.680008	-7.247867	-16.759771	-27.399509	-8.424631	-6.374864	0.320460	1.297100	0.457800	-0.748106	-0.027283	0.651182	-1.000000	-1.000000	-1.000000	-1.000000	-1.000000	-1.000000	-1.000000	65.000000	0.000000	-1.000000	-1.000000	559323.000000	1776577517.762569
-2001.780000	-38891.340000	6231.285000	38716.110000	-5375.520000	8884.890000	-27713.295000	11566.080000	-8.093636	-5.105798	-3.942733	-6.131943	-12.221104	-27.707873	-12.047725	-9.111778	0.320460	1.297100	0.457800	-0.748106	-0.027283	0.651182	-1.000000	-1.000000	-1.000000	-1.000000	-1.000000	-1.000000	-1.000000	65.000000	0.000000	-1.000000	-1.000000	559324.000000	1776577517.766679
-1995.390000	-38880.495000	6244.560000	38732.355000	-5358.420000	8898.390000	-27710.865000	11567.430000	-2.306494	0.760873	2.519692	2.032633	3.803338	-9.056269	-10.222832	-6.763574	0.320460	1.297100	0.457800	-0.748106	-0.027283	0.651182	-1.000000	-1.000000	-1.000000	-1.000000	-1.000000	-1.000000	-1.000000	65.000000	0.000000	-1.000000	-1.000000	559325.000000	1776577517.766688
-1995.390000	-38878.155000	6247.035000	38735.730000	-5364.450000	8891.865000	-27713.655000	11564.955000	4.899490	7.409491	9.871252	12.357711	22.206087	17.350157	-3.991763	-1.362317	0.320460	1.297100	0.457800	-0.748106	-0.027283	0.651182	-1.000000	-1.000000	-1.000000	-1.000000	-1.000000	-1.000000	-1.000000	65.000000	0.000000	-1.000000	-1.000000	559326.000000	1776577517.770698
-1997.370000	-38879.370000	6240.645000	38723.085000	-5381.370000	8886.150000	-27721.350000	11561.715000	9.707561	10.888866	13.309513	17.610908	30.317750	34.488648	2.956063	3.953418	0.320460	1.297100	0.457800	-0.748106	-0.027283	0.651182	-1.000000	-1.000000	-1.000000	-1.000000	-1.000000	-1.000000	-1.000000	65.000000	0.000000	-1.000000	-1.000000	559327.000000	1776577517.770708
-2002.770000	-38887.245000	6231.555000	38715.705000	-5383.485000	8886.465000	-27726.390000	11559.285000	9.827980	8.964436	9.933242	13.295552	22.190778	33.233050	6.972186	6.733938	-0.534100	0.625660	1.129240	-0.748960	-0.025268	0.651610	-1.000000	-1.000000	-1.000000	-1.000000	-1.000000	-1.000000	-1.000000	65.000000	0.000000	-1.000000	-1.000000	559328.000000	1776577517.774713
-2002.095000	-38884.680000	6236.955000	38723.850000	-5376.510000	8885.430000	-27724.995000	11564.235000	5.632159	2.524550	1.202719	1.610018	3.469871	17.182657	6.956635	6.463150	-0.534100	0.625660	1.129240	-0.748960	-0.025268	0.651610	-1.000000	-1.000000	-1.000000	-1.000000	-1.000000	-1.000000	-1.000000	65.000000	0.000000	-1.000000	-1.000000	559329.000000	1776577517.774720
-1996.020000	-38880.540000	6238.980000	38724.750000	-5377.680000	8881.740000	-27718.020000	11577.420000	-0.072889	-4.704254	-7.687060	-10.069637	-14.080502	-2.957675	4.690727	4.637917	-0.534100	0.625660	1.129240	-0.748960	-0.025268	0.651610	-1.000000	-1.000000	-1.000000	-1.000000	-1.000000	-1.000000	-1.000000	65.000000	0.000000	-1.000000	-1.000000	559330.000000	1776577517.778703
-1996.245000	-38880.855000	6237.900000	38723.310000	-5379.885000	8878.680000	-27716.805000	11578.590000	-4.046780	-8.781131	-11.932541	-15.487920	-22.129546	-17.619138	2.682157	3.115769	-0.534100	0.625660	1.129240	-0.748960	-0.025268	0.651610	-1.000000	-1.000000	-1.000000	-1.000000	-1.000000	-1.000000	-1.000000	65.000000	0.000000	-1.000000	-1.000000	559331.000000	1776577517.778712
-1995.705000	-38880.450000	6241.005000	38727.900000	-5375.565000	8882.190000	-27714.105000	11577.960000	-4.988148	-8.410072	-10.475876	-13.562379	-19.754748	-22.437592	1.852491	2.076525	-0.534100	0.625660	1.129240	-0.748960	-0.025268	0.651610	-1.000000	-1.000000	-1.000000	-1.000000	-1.000000	-1.000000	-1.000000	65.000000	0.000000	-1.000000	-1.000000	559332.000000	1776577517.782789
-1998.270000	-38885.400000	6236.055000	38724.030000	-5381.190000	8877.735000	-27711.900000	11581.785000	-3.846514	-5.144121	-5.522830	-7.141406	-11.002262	-18.174375	1.491250	0.451555	-0.534100	0.625660	1.129240	-0.748960	-0.025268	0.651610	-1.000000	-1.000000	-1.000000	-1.000000	-1.000000	-1.000000	-1.000000	65.000000	0.000000	-1.000000	-1.000000	559333.000000	1776577517.782807
-1999.215000	-38890.215000	6229.170000	38716.200000	-5390.730000	8872.245000	-27713.880000	11583.495000	-2.255143	-1.540393	-0.393054	-0.329873	-1.426432	-9.053490	0.652600	-1.975883	-0.534100	0.625660	1.129240	-0.748960	-0.025268	0.651610	-1.000000	-1.000000	-1.000000	-1.000000	-1.000000	-1.000000	-1.000000	65.000000	0.000000	-1.000000	-1.000000	559334.000000	1776577517.788054
-2002.815000	-38892.375000	6228.810000	38717.010000	-5384.295000	8879.175000	-27718.290000	11580.255000	-1.215920	0.696330	2.533364	3.778230	4.888974	0.075471	-1.066470	-4.314125	-0.534100	0.625660	1.129240	-0.748960	-0.025268	0.651610	-1.000000	-1.000000	-1.000000	-1.000000	-1.000000	-1.000000	-1.000000	65.000000	0.000000	-1.000000	-1.000000	559335.000000	1776577517.788069
-2006.190000	-38893.680000	6224.625000	38713.905000	-5384.880000	8874.360000	-27722.115000	11576.970000	-0.876521	1.490311	3.050900	4.682311	7.283597	6.351270	-3.359695	-5.779739	-0.534100	0.625660	1.129240	-0.748960	-0.025268	0.651610	-1.000000	-1.000000	-1.000000	-1.000000	-1.000000	-1.000000	-1.000000	65.000000	0.000000	-1.000000	-1.000000	559336.000000	1776577517.790781
-2013.795000	-38884.635000	6215.760000	38692.305000	-5393.565000	8862.615000	-27713.385000	11565.135000	-0.965004	1.885336	2.244217	3.414945	7.060943	8.718200	-5.046251	-6.222034	-0.534100	0.625660	1.129240	-0.748960	-0.025268	0.651610	-1.000000	-1.000000	-1.000000	-1.000000	-1.000000	-1.000000	-1.000000	65.000000	0.000000	-1.000000	-1.000000	559337.000000	1776577517.790791
-2014.965000	-38890.170000	6220.620000	38703.960000	-5395.455000	8866.260000	-27710.145000	11561.760000	-1.100488	2.736169	1.181909	1.099911	5.146650	7.242454	-4.614130	-5.796716	-1.510740	1.113980	3.036740	-0.747313	-0.023498	0.652830	-1.000000	-1.000000	-1.000000	-1.000000	-1.000000	-1.000000	-1.000000	65.000000	0.000000	-1.000000	-1.000000	559338.000000	1776577517.795131
-2009.160000	-38889.945000	6227.910000	38719.980000	-5384.025000	8875.080000	-27712.395000	11567.385000	-0.640655	3.583874	0.971279	-0.124466	2.581537	3.913922	-1.920122	-4.201292	-1.510740	1.113980	3.036740	-0.747313	-0.023498	0.652830	-1.000000	-1.000000	-1.000000	-1.000000	-1.000000	-1.000000	-1.000000	65.000000	0.000000	-1.000000	-1.000000	559339.000000	1776577517.795147
-1995.120000	-38873.610000	6244.245000	38734.110000	-5374.350000	8879.760000	-27715.140000	11579.220000	1.222010	3.653934	2.497509	1.963409	1.174397	1.624284	1.174957	-0.650251	-1.510740	1.113980	3.036740	-0.747313	-0.023498	0.652830	-1.000000	-1.000000	-1.000000	-1.000000	-1.000000	-1.000000	-1.000000	65.000000	0.000000	-1.000000	-1.000000	559340.000000	1776577517.798876
-1998.000000	-38876.670000	6241.365000	38733.345000	-5375.475000	8870.220000	-27719.010000	11578.230000	4.280057	3.201376	5.126208	6.296801	1.646640	1.165016	2.598667	4.514860	-1.510740	1.113980	3.036740	-0.747313	-0.023498	0.652830	-1.000000	-1.000000	-1.000000	-1.000000	-1.000000	-1.000000	-1.000000	65.000000	0.000000	-1.000000	-1.000000	559341.000000	1776577517.798889
-2000.880000	-38881.620000	6236.100000	38729.295000	-5379.885000	8869.455000	-27708.705000	11580.795000	6.419306	2.217050	6.305361	8.659687	2.329371	0.833007	2.088867	8.851977	-1.510740	1.113980	3.036740	-0.747313	-0.023498	0.652830	-1.000000	-1.000000	-1.000000	-1.000000	-1.000000	-1.000000	-1.000000	65.000000	0.000000	-1.000000	-1.000000	559342.000000	1776577517.802810
-2002.005000	-38881.395000	6235.920000	38730.420000	-5373.270000	8878.725000	-27709.695000	11579.760000	5.387453	-0.003599	3.829569	5.957408	1.261470	-0.508147	1.095037	9.678439	-1.510740	1.113980	3.036740	-0.747313	-0.023498	0.652830	-1.000000	-1.000000	-1.000000	-1.000000	-1.000000	-1.000000	-1.000000	65.000000	0.000000	-1.000000	-1.000000	559343.000000	1776577517.802823
-1995.120000	-38871.045000	6247.080000	38738.250000	-5367.285000	8886.735000	-27712.890000	11583.090000	1.495113	-2.839191	-1.265440	-0.556896	-1.208240	-1.722122	0.649737	6.522959	-1.510740	1.113980	3.036740	-0.747313	-0.023498	0.652830	-1.000000	-1.000000	-1.000000	-1.000000	-1.000000	-1.000000	-1.000000	65.000000	0.000000	-1.000000	-1.000000	559344.000000	1776577517.811382
-1991.880000	-38870.730000	6243.975000	38730.285000	-5375.385000	8877.735000	-27715.365000	11586.285000	-2.601773	-4.336354	-5.564751	-6.856748	-3.372991	-1.681689	0.315506	1.325272	-1.510740	1.113980	3.036740	-0.747313	-0.023498	0.652830	-1.000000	-1.000000	-1.000000	-1.000000	-1.000000	-1.000000	-1.000000	65.000000	0.000000	-1.000000	-1.000000	559345.000000	1776577517.811393
-1996.110000	-38877.840000	6236.550000	38722.995000	-5383.620000	8866.575000	-27722.250000	11580.570000	-4.716980	-3.803978	-7.081359	-10.209132	-4.684206	-1.438366	-0.572007	-3.384686	-1.510740	1.113980	3.036740	-0.747313	-0.023498	0.652830	-1.000000	-1.000000	-1.000000	-1.000000	-1.000000	-1.000000	-1.000000	65.000000	0.000000	-1.000000	-1.000000	559346.000000	1776577517.811403
-1999.305000	-38880.180000	6235.560000	38721.645000	-5383.215000	8867.430000	-27720.765000	11577.195000	-4.850920	-2.565967	-6.451630	-10.323208	-5.447406	-2.427424	-1.813066	-6.283328	-1.510740	1.113980	3.036740	-0.747313	-0.023498	0.652830	-1.000000	-1.000000	-1.000000	-1.000000	-1.000000	-1.000000	-1.000000	65.000000	0.000000	-1.000000	-1.000000	559347.000000	1776577517.811407
-2003.805000	-38883.330000	6232.185000	38717.685000	-5385.645000	8865.945000	-27718.830000	11575.035000	-4.145331	-1.859506	-4.804716	-7.769049	-5.211366	-3.900357	-2.398873	-7.200734	0.579880	0.564620	2.243220	-0.745726	-0.024902	0.653441	-1.000000	-1.000000	-1.000000	-1.000000	-1.000000	-1.000000	-1.000000	65.000000	0.000000	-1.000000	-1.000000	559348.000000	1776577517.814717
-2002.185000	-38875.455000	6237.945000	38722.680000	-5377.905000	8868.420000	-27717.390000	11574.045000	-3.198114	-1.388285	-2.450318	-3.278756	-3.157969	-3.882903	-1.470558	-6.215282	0.579880	0.564620	2.243220	-0.745726	-0.024902	0.653441	-1.000000	-1.000000	-1.000000	-1.000000	-1.000000	-1.000000	-1.000000	65.000000	0.000000	-1.000000	-1.000000	559349.000000	1776577517.814725
-1996.740000	-38871.675000	6246.585000	38736.135000	-5368.320000	8876.520000	-27718.425000	11576.160000	-1.688074	-0.084600	0.723466	2.262443	0.769610	-1.487757	0.606849	-3.569378	0.579880	0.564620	2.243220	-0.745726	-0.024902	0.653441	-1.000000	-1.000000	-1.000000	-1.000000	-1.000000	-1.000000	-1.000000	65.000000	0.000000	-1.000000	-1.000000	559350.000000	1776577517.818786
-2003.175000	-38875.320000	6245.955000	38737.890000	-5368.545000	8873.685000	-27722.655000	11571.345000	0.584282	2.125015	4.284300	7.651097	5.318187	2.359057	2.413778	-0.064861	0.579880	0.564620	2.243220	-0.745726	-0.024902	0.653441	-1.000000	-1.000000	-1.000000	-1.000000	-1.000000	-1.000000	-1.000000	65.000000	0.000000	-1.000000	-1.000000	559351.000000	1776577517.818794
-2008.980000	-38877.975000	6244.110000	38736.855000	-5366.835000	8873.775000	-27726.120000	11568.555000	2.598420	3.750523	6.632333	10.816364	8.121937	5.424927	2.679669	2.901997	0.579880	0.564620	2.243220	-0.745726	-0.024902	0.653441	-1.000000	-1.000000	-1.000000	-1.000000	-1.000000	-1.000000	-1.000000	65.000000	0.000000	-1.000000	-1.000000	559352.000000	1776577517.822762
-2006.370000	-38877.210000	6243.840000	38739.285000	-5364.495000	8867.565000	-27729.180000	11573.235000	3.114022	3.459900	6.182690	9.873251	7.451625	5.729064	1.304543	4.300114	0.579880	0.564620	2.243220	-0.745726	-0.024902	0.653441	-1.000000	-1.000000	-1.000000	-1.000000	-1.000000	-1.000000	-1.000000	65.000000	0.000000	-1.000000	-1.000000	559353.000000	1776577517.822770
-2007.945000	-38884.815000	6230.295000	38722.230000	-5389.830000	8858.520000	-27726.840000	11576.700000	2.329330	1.473836	2.876370	4.850128	3.303390	2.958496	-0.588191	4.372014	0.579880	0.564620	2.243220	-0.745726	-0.024902	0.653441	-1.000000	-1.000000	-1.000000	-1.000000	-1.000000	-1.000000	-1.000000	65.000000	0.000000	-1.000000	-1.000000	559354.000000	1776577517.826798
-2010.600000	-38888.640000	6225.345000	38716.920000	-5393.250000	8861.985000	-27721.080000	11576.925000	1.272705	-1.103647	-1.949266	-2.411837	-3.110728	-1.331551	-1.471830	3.863298	0.579880	0.564620	2.243220	-0.745726	-0.024902	0.653441	-1.000000	-1.000000	-1.000000	-1.000000	-1.000000	-1.000000	-1.000000	65.000000	0.000000	-1.000000	-1.000000	559355.000000	1776577517.826806
-2010.555000	-38883.735000	6234.210000	38731.545000	-5375.970000	8857.395000	-27727.695000	11574.045000	0.491095	-2.971964	-5.875452	-8.538027	-8.623277	-4.539984	-0.757529	2.860246	0.579880	0.564620	2.243220	-0.745726	-0.024902	0.653441	-1.000000	-1.000000	-1.000000	-1.000000	-1.000000	-1.000000	-1.000000	65.000000	0.000000	-1.000000	-1.000000	559356.000000	1776577517.830822
-2014.830000	-38879.190000	6245.055000	38747.880000	-5358.645000	8854.920000	-27731.655000	11569.635000	0.013475	-2.857511	-6.122501	-9.520944	-8.768491	-4.983589	0.457504	1.014775	0.579880	0.564620	2.243220	-0.745726	-0.024902	0.653441	-1.000000	-1.000000	-1.000000	-1.000000	-1.000000	-1.000000	-1.000000	65.000000	0.000000	-1.000000	-1.000000	559357.000000	1776577517.830832
-2025.405000	-38887.785000	6233.220000	38730.060000	-5375.565000	8858.430000	-27732.690000	11562.030000	-0.476639	-0.753861	-2.288052	-4.666244	-2.808497	-2.940159	0.731223	-1.600017	-0.625660	0.412020	3.586100	-0.745604	-0.025207	0.653013	-1.000000	-1.000000	-1.000000	-1.000000	-1.000000	-1.000000	-1.000000	65.000000	0.000000	-1.000000	-1.000000	559358.000000	1776577517.834822
-2022.030000	-38877.885000	6242.085000	38732.985000	-5379.570000	8872.650000	-27738.090000	11562.075000	-1.225782	1.711656	2.574136	1.613990	4.093011	0.548874	-0.079875	-4.110669	-0.625660	0.412020	3.586100	-0.745604	-0.025207	0.653013	-1.000000	-1.000000	-1.000000	-1.000000	-1.000000	-1.000000	-1.000000	65.000000	0.000000	-1.000000	-1.000000	559359.000000	1776577517.834834
-2012.040000	-38871.045000	6246.180000	38739.735000	-5372.955000	8872.065000	-27747.990000	11572.335000	-1.438888	3.293212	5.363542	4.815293	6.662698	4.369685	-1.297998	-4.948712	-0.625660	0.412020	3.586100	-0.745604	-0.025207	0.653013	-1.000000	-1.000000	-1.000000	-1.000000	-1.000000	-1.000000	-1.000000	65.000000	0.000000	-1.000000	-1.000000	559360.000000	1776577517.838916
-2018.745000	-38885.895000	6231.870000	38740.275000	-5366.655000	8844.030000	-27758.970000	11568.420000	-0.136353	3.621908	5.169581	4.574225	4.887317	6.221084	-2.478774	-3.055701	-0.625660	0.412020	3.586100	-0.745604	-0.025207	0.653013	-1.000000	-1.000000	-1.000000	-1.000000	-1.000000	-1.000000	-1.000000	65.000000	0.000000	-1.000000	-1.000000	559361.000000	1776577517.838934
-2031.390000	-38901.555000	6216.120000	38724.210000	-5374.170000	8830.755000	-27742.635000	11560.500000	1.627016	1.784692	1.954351	2.392454	1.759868	3.398374	-2.865822	0.342991	-0.625660	0.412020	3.586100	-0.745604	-0.025207	0.653013	-1.000000	-1.000000	-1.000000	-1.000000	-1.000000	-1.000000	-1.000000	65.000000	0.000000	-1.000000	-1.000000	559362.000000	1776577517.842903
-2036.250000	-38907.720000	6202.980000	38694.105000	-5412.195000	8827.695000	-27716.580000	11559.195000	1.636037	-2.460316	-3.453347	-1.383664	-1.592020	-3.272901	-0.627930	2.592571	-0.625660	0.412020	3.586100	-0.745604	-0.025207	0.653013	-1.000000	-1.000000	-1.000000	-1.000000	-1.000000	-1.000000	-1.000000	65.000000	0.000000	-1.000000	-1.000000	559363.000000	1776577517.842915
-2009.340000	-38885.850000	6218.415000	38699.235000	-5411.115000	8869.005000	-27687.960000	11583.360000	0.155769	-6.291757	-7.979368	-6.197396	-5.783658	-8.023683	5.305036	2.985768	-0.625660	0.412020	3.586100	-0.745604	-0.025207	0.653013	-1.000000	-1.000000	-1.000000	-1.000000	-1.000000	-1.000000	-1.000000	65.000000	0.000000	-1.000000	-1.000000	559364.000000	1776577517.846830
-2002.545000	-38879.100000	6227.325000	38712.105000	-5398.470000	8859.150000	-27712.665000	11585.745000	0.149360	-5.586002	-7.577476	-8.674938	-8.855253	-5.474674	11.806480	3.288870	-0.625660	0.412020	3.586100	-0.745604	-0.025207	0.653013	-1.000000	-1.000000	-1.000000	-1.000000	-1.000000	-1.000000	-1.000000	65.000000	0.000000	-1.000000	-1.000000	559365.000000	1776577517.846838
-2008.665000	-38882.745000	6227.145000	38715.885000	-5387.310000	8864.685000	-27727.155000	11581.650000	2.522506	-0.000308	-1.428435	-5.190654	-6.684449	2.611073	12.185392	4.072506	-0.625660	0.412020	3.586100	-0.745604	-0.025207	0.653013	-1.000000	-1.000000	-1.000000	-1.000000	-1.000000	-1.000000	-1.000000	65.000000	0.000000	-1.000000	-1.000000	559366.000000	1776577517.850756
-2009.430000	-38882.205000	6227.955000	38717.550000	-5389.740000	8855.190000	-27732.105000	11580.750000	4.242190	5.976827	6.353765	3.055093	1.089915	9.055274	3.332105	3.462187	-0.625660	0.412020	3.586100	-0.745604	-0.025207	0.653013	-1.000000	-1.000000	-1.000000	-1.000000	-1.000000	-1.000000	-1.000000	65.000000	0.000000	-1.000000	-1.000000	559367.000000	1776577517.850763
-2002.365000	-38876.355000	6233.535000	38725.020000	-5384.475000	8856.045000	-27728.190000	11588.850000	2.771092	8.022788	10.658744	10.771196	9.532117	8.988696	-9.477966	0.531647	1.983800	-2.380560	3.143560	-0.748350	-0.023193	0.655272	-1.000000	-1.000000	-1.000000	-1.000000	-1.000000	-1.000000	-1.000000	65.000000	0.000000	-1.000000	-1.000000	559368.000000	1776577517.854805
-1992.420000	-38862.765000	6248.565000	38741.310000	-5371.695000	8873.820000	-27713.655000	11596.635000	-0.691910	5.925758	9.870728	13.827586	13.517529	3.625413	-17.251637	-2.884087	1.983800	-2.380560	3.143560	-0.748350	-0.023193	0.655272	-1.000000	-1.000000	-1.000000	-1.000000	-1.000000	-1.000000	-1.000000	65.000000	0.000000	-1.000000	-1.000000	559369.000000	1776577517.854813
-1990.485000	-38857.005000	6255.360000	38751.255000	-5360.670000	8883.540000	-27698.580000	11599.470000	-3.341746	2.330832	5.935675	11.853338	11.936680	-1.948176	-14.900008	-4.469428	1.983800	-2.380560	3.143560	-0.748350	-0.023193	0.655272	-1.000000	-1.000000	-1.000000	-1.000000	-1.000000	-1.000000	-1.000000	65.000000	0.000000	-1.000000	-1.000000	559370.000000	1776577517.858958
-2002.005000	-38873.295000	6233.445000	38725.290000	-5389.830000	8860.500000	-27707.715000	11594.610000	-4.235991	-0.997747	0.860949	6.038644	6.139468	-4.551317	-4.740265	-3.974922	1.983800	-2.380560	3.143560	-0.748350	-0.023193	0.655272	-1.000000	-1.000000	-1.000000	-1.000000	-1.000000	-1.000000	-1.000000	65.000000	0.000000	-1.000000	-1.000000	559371.000000	1776577517.858970
-2016.405000	-38888.640000	6218.505000	38713.860000	-5399.145000	8843.220000	-27725.580000	11584.980000	-4.765158	-4.639839	-5.255516	-2.932866	-2.744821	-5.832223	5.403592	-3.061951	1.983800	-2.380560	3.143560	-0.748350	-0.023193	0.655272	-1.000000	-1.000000	-1.000000	-1.000000	-1.000000	-1.000000	-1.000000	65.000000	0.000000	-1.000000	-1.000000	559372.000000	1776577517.862917
-2021.490000	-38892.420000	6215.850000	38713.590000	-5398.380000	8839.665000	-27725.490000	11582.505000	-6.015091	-8.851370	-11.633570	-12.704029	-12.102652	-7.974894	8.821005	-3.108255	1.983800	-2.380560	3.143560	-0.748350	-0.023193	0.655272	-1.000000	-1.000000	-1.000000	-1.000000	-1.000000	-1.000000	-1.000000	65.000000	0.000000	-1.000000	-1.000000	559373.000000	1776577517.862959
-2017.620000	-38883.465000	6229.305000	38732.355000	-5381.820000	8843.085000	-27726.480000	11582.685000	-6.689182	-11.159523	-14.653408	-17.904582	-16.679137	-9.378480	5.487536	-3.582122	1.983800	-2.380560	3.143560	-0.748350	-0.023193	0.655272	-1.000000	-1.000000	-1.000000	-1.000000	-1.000000	-1.000000	-1.000000	65.000000	0.000000	-1.000000	-1.000000	559374.000000	1776577517.866827
-2014.920000	-38876.310000	6235.560000	38737.755000	-5377.635000	8849.790000	-27733.590000	11578.005000	-4.499819	-8.454668	-10.864049	-14.358545	-12.821575	-6.838743	0.198739	-2.957023	1.983800	-2.380560	3.143560	-0.748350	-0.023193	0.655272	-1.000000	-1.000000	-1.000000	-1.000000	-1.000000	-1.000000	-1.000000	65.000000	0.000000	-1.000000	-1.000000	559375.000000	1776577517.866839
-2019.420000	-38878.920000	6228.675000	38719.620000	-5396.895000	8854.065000	-27738.720000	11567.745000	0.705267	-0.998467	-1.512497	-4.193605	-3.062228	0.073426	-3.068868	-0.913113	1.983800	-2.380560	3.143560	-0.748350	-0.023193	0.655272	-1.000000	-1.000000	-1.000000	-1.000000	-1.000000	-1.000000	-1.000000	65.000000	0.000000	-1.000000	-1.000000	559376.000000	1776577517.870804
-2025.900000	-38883.555000	6229.080000	38730.330000	-5376.285000	8860.860000	-27744.840000	11557.530000	6.146450	6.938725	7.748004	5.623588	6.013011	8.202929	-3.357239	1.252998	1.983800	-2.380560	3.143560	-0.748350	-0.023193	0.655272	-1.000000	-1.000000	-1.000000	-1.000000	-1.000000	-1.000000	-1.000000	65.000000	0.000000	-1.000000	-1.000000	559377.000000	1776577517.870812
-2012.040000	-38876.130000	6231.870000	38732.985000	-5381.685000	8851.185000	-27748.305000	11571.210000	8.951670	10.921014	12.020669	10.296372	10.328813	13.174155	-1.581741	2.663335	0.732480	-1.098720	2.258480	-0.747557	-0.020386	0.652281	-1.000000	-1.000000	-1.000000	-1.000000	-1.000000	-1.000000	-1.000000	65.000000	0.000000	-1.000000	-1.000000	559378.000000	1776577517.874891
-2001.420000	-38871.495000	6228.360000	38722.635000	-5389.335000	8850.555000	-27736.515000	11587.725000	8.977227	10.037991	10.552185	9.745986	9.714683	12.188931	1.160398	4.356843	0.732480	-1.098720	2.258480	-0.747557	-0.020386	0.652281	-1.000000	-1.000000	-1.000000	-1.000000	-1.000000	-1.000000	-1.000000	65.000000	0.000000	-1.000000	-1.000000	559379.000000	1776577517.874899
-2012.490000	-38879.280000	6223.230000	38716.560000	-5387.400000	8851.545000	-27730.080000	11586.465000	7.361112	6.106058	5.428477	5.601824	5.419783	6.005256	4.360244	7.160368	0.732480	-1.098720	2.258480	-0.747557	-0.020386	0.652281	-1.000000	-1.000000	-1.000000	-1.000000	-1.000000	-1.000000	-1.000000	65.000000	0.000000	-1.000000	-1.000000	559380.000000	1776577517.878756
-2023.020000	-38887.515000	6213.960000	38701.260000	-5416.875000	8823.150000	-27738.720000	11578.005000	3.840765	0.861343	-0.736957	-0.255697	-0.633085	-2.071269	6.978482	8.974084	0.732480	-1.098720	2.258480	-0.747557	-0.020386	0.652281	-1.000000	-1.000000	-1.000000	-1.000000	-1.000000	-1.000000	-1.000000	65.000000	0.000000	-1.000000	-1.000000	559381.000000	1776577517.878764
-2023.740000	-38883.015000	6223.320000	38714.580000	-5410.170000	8821.260000	-27728.595000	11576.925000	-1.789923	-4.252103	-5.487292	-5.206578	-6.284742	-9.079959	7.162658	6.799859	0.732480	-1.098720	2.258480	-0.747557	-0.020386	0.652281	-1.000000	-1.000000	-1.000000	-1.000000	-1.000000	-1.000000	-1.000000	65.000000	0.000000	-1.000000	-1.000000	559382.000000	1776577517.883068
-2026.575000	-38879.955000	6230.295000	38727.000000	-5388.660000	8842.545000	-27725.040000	11572.155000	-7.326169	-7.155795	-6.647255	-6.191682	-8.592390	-12.164290	4.526305	0.738480	0.732480	-1.098720	2.258480	-0.747557	-0.020386	0.652281	-1.000000	-1.000000	-1.000000	-1.000000	-1.000000	-1.000000	-1.000000	65.000000	0.000000	-1.000000	-1.000000	559383.000000	1776577517.883077
-2026.890000	-38879.280000	6230.925000	38729.655000	-5377.725000	8857.485000	-27718.695000	11571.210000	-9.722830	-6.438293	-3.770512	-2.153334	-4.832939	-8.480530	0.743864	-5.949780	0.732480	-1.098720	2.258480	-0.747557	-0.020386	0.652281	-1.000000	-1.000000	-1.000000	-1.000000	-1.000000	-1.000000	-1.000000	65.000000	0.000000	-1.000000	-1.000000	559384.000000	1776577517.886702
-2025.495000	-38877.435000	6233.085000	38733.390000	-5378.535000	8856.585000	-27720.180000	11575.575000	-7.841111	-2.950397	0.844318	3.997714	3.333112	0.853359	-2.511975	-9.687768	0.732480	-1.098720	2.258480	-0.747557	-0.020386	0.652281	-1.000000	-1.000000	-1.000000	-1.000000	-1.000000	-1.000000	-1.000000	65.000000	0.000000	-1.000000	-1.000000	559385.000000	1776577517.886710
-2023.245000	-38876.310000	6233.760000	38734.065000	-5380.290000	8851.050000	-27725.940000	11579.130000	-2.915034	1.016503	4.046738	7.778144	9.943838	9.634967	-4.809609	-8.762989	0.732480	-1.098720	2.258480	-0.747557	-0.020386	0.652281	-1.000000	-1.000000	-1.000000	-1.000000	-1.000000	-1.000000	-1.000000	65.000000	0.000000	-1.000000	-1.000000	559386.000000	1776577517.890870
-2017.665000	-38874.735000	6231.555000	38731.905000	-5380.605000	8846.865000	-27725.220000	11585.700000	2.645066	3.535894	4.241334	6.861998	10.294096	11.841941	-6.341628	-4.041279	0.732480	-1.098720	2.258480	-0.747557	-0.020386	0.652281	-1.000000	-1.000000	-1.000000	-1.000000	-1.000000	-1.000000	-1.000000	65.000000	0.000000	-1.000000	-1.000000	559387.000000	1776577517.890877
-2012.445000	-38873.790000	6229.035000	38729.745000	-5380.470000	8841.960000	-27724.050000	11591.910000	6.669576	3.922607	1.812012	2.065921	4.678021	6.660634	-6.769262	1.851471	-0.167860	0.747740	3.799740	-0.743284	-0.019165	0.654600	-1.000000	-1.000000	-1.000000	-1.000000	-1.000000	-1.000000	-1.000000	65.000000	0.000000	-1.000000	-1.000000	559388.000000	1776577517.895073
-2011.455000	-38874.240000	6225.300000	38725.110000	-5382.585000	8834.400000	-27726.165000	11592.810000	7.937782	2.592174	-1.656704	-3.866570	-2.955203	-1.947566	-5.468856	6.109831	-0.167860	0.747740	3.799740	-0.743284	-0.019165	0.654600	-1.000000	-1.000000	-1.000000	-1.000000	-1.000000	-1.000000	-1.000000	65.000000	0.000000	-1.000000	-1.000000	559389.000000	1776577517.895081
-2018.565000	-38877.165000	6225.840000	38727.630000	-5380.740000	8836.245000	-27729.270000	11586.285000	6.079574	0.428062	-4.321315	-8.001099	-8.460159	-8.875535	-2.735238	6.824590	-0.167860	0.747740	3.799740	-0.743284	-0.019165	0.654600	-1.000000	-1.000000	-1.000000	-1.000000	-1.000000	-1.000000	-1.000000	65.000000	0.000000	-1.000000	-1.000000	559390.000000	1776577517.898852
-2024.775000	-38882.340000	6220.845000	38721.060000	-5389.875000	8841.960000	-27730.440000	11579.895000	1.572004	-1.770751	-4.970152	-8.646006	-9.864763	-10.653620	0.251967	3.663450	-0.167860	0.747740	3.799740	-0.743284	-0.019165	0.654600	-1.000000	-1.000000	-1.000000	-1.000000	-1.000000	-1.000000	-1.000000	65.000000	0.000000	-1.000000	-1.000000	559391.000000	1776577517.898861
-2018.565000	-38874.600000	6224.310000	38720.160000	-5396.580000	8836.875000	-27736.065000	11581.425000	-3.710516	-3.213411	-3.531362	-6.103239	-7.871524	-6.947955	2.399968	-1.593993	-0.167860	0.747740	3.799740	-0.743284	-0.019165	0.654600	-1.000000	-1.000000	-1.000000	-1.000000	-1.000000	-1.000000	-1.000000	65.000000	0.000000	-1.000000	-1.000000	559392.000000	1776577517.902932
-2016.855000	-38872.800000	6224.805000	38720.970000	-5404.860000	8825.130000	-27739.170000	11581.650000	-6.880724	-2.992371	-0.759144	-1.983700	-4.497469	-0.855211	3.197683	-5.753422	-0.167860	0.747740	3.799740	-0.743284	-0.019165	0.654600	-1.000000	-1.000000	-1.000000	-1.000000	-1.000000	-1.000000	-1.000000	65.000000	0.000000	-1.000000	-1.000000	559393.000000	1776577517.902948
-2018.565000	-38869.515000	6233.760000	38736.135000	-5385.015000	8836.110000	-27737.370000	11575.530000	-6.334393	-0.982255	2.374396	2.384654	-0.803383	3.772235	2.895321	-6.587747	-0.167860	0.747740	3.799740	-0.743284	-0.019165	0.654600	-1.000000	-1.000000	-1.000000	-1.000000	-1.000000	-1.000000	-1.000000	65.000000	0.000000	-1.000000	-1.000000	559394.000000	1776577517.906912
-2023.470000	-38870.820000	6236.010000	38742.480000	-5374.755000	8837.595000	-27738.315000	11570.760000	-3.229625	1.552798	4.925910	6.365882	3.709346	5.755049	2.331404	-4.474160	-0.167860	0.747740	3.799740	-0.743284	-0.019165	0.654600	-1.000000	-1.000000	-1.000000	-1.000000	-1.000000	-1.000000	-1.000000	65.000000	0.000000	-1.000000	-1.000000	559395.000000	1776577517.906952
-2033.955000	-38876.670000	6229.620000	38732.895000	-5386.365000	8833.770000	-27738.810000	11562.705000	-0.185059	2.847400	5.801761	8.716630	8.440062	5.897062	2.062655	-1.396363	-0.167860	0.747740	3.799740	-0.743284	-0.019165	0.654600	-1.000000	-1.000000	-1.000000	-1.000000	-1.000000	-1.000000	-1.000000	65.000000	0.000000	-1.000000	-1.000000	559396.000000	1776577517.913615
-2039.715000	-38883.330000	6222.285000	38727.720000	-5383.620000	8846.190000	-27731.115000	11564.415000	0.971120	1.906837	3.980652	7.436718	10.358594	4.820036	2.066892	1.083452	-0.167860	0.747740	3.799740	-0.743284	-0.019165	0.654600	-1.000000	-1.000000	-1.000000	-1.000000	-1.000000	-1.000000	-1.000000	65.000000	0.000000	-1.000000	-1.000000	559397.000000	1776577517.913626
-2037.690000	-38884.680000	6218.820000	38723.445000	-5382.405000	8842.770000	-27733.860000	11572.110000	0.522629	-0.684762	-0.214422	2.259363	7.616178	3.080486	2.141276	2.880948	-1.464960	1.983800	1.693860	-0.741392	-0.021851	0.655760	-1.000000	-1.000000	-1.000000	-1.000000	-1.000000	-1.000000	-1.000000	65.000000	0.000000	-1.000000	-1.000000	559398.000000	1776577517.914841
-2025.990000	-38874.825000	6223.050000	38719.530000	-5401.755000	8823.870000	-27735.885000	11582.910000	0.458797	-2.834083	-4.481990	-4.143376	1.623811	0.731473	1.771924	4.779060	-1.464960	1.983800	1.693860	-0.741392	-0.021851	0.655760	-1.000000	-1.000000	-1.000000	-1.000000	-1.000000	-1.000000	-1.000000	65.000000	0.000000	-1.000000	-1.000000	559399.000000	1776577517.914850
-2019.420000	-38872.575000	6224.895000	38728.035000	-5387.940000	8832.195000	-27728.865000	11589.525000	2.370557	-2.491741	-6.073825	-8.107848	-4.752563	-2.605205	0.563494	6.834740	-1.464960	1.983800	1.693860	-0.741392	-0.021851	0.655760	-1.000000	-1.000000	-1.000000	-1.000000	-1.000000	-1.000000	-1.000000	65.000000	0.000000	-1.000000	-1.000000	559400.000000	1776577517.918924
-2020.410000	-38871.855000	6226.695000	38731.455000	-5384.160000	8832.600000	-27730.305000	11590.155000	5.425291	0.234625	-4.121145	-7.420316	-8.231285	-5.581013	-0.938919	7.707125	-1.464960	1.983800	1.693860	-0.741392	-0.021851	0.655760	-1.000000	-1.000000	-1.000000	-1.000000	-1.000000	-1.000000	-1.000000	65.000000	0.000000	-1.000000	-1.000000	559401.000000	1776577517.918933
-2025.720000	-38874.915000	6225.480000	38728.035000	-5386.320000	8836.830000	-27733.095000	11585.295000	6.813358	3.050753	-0.236811	-2.880040	-6.960784	-5.859697	-2.041296	5.725003	-1.464960	1.983800	1.693860	-0.741392	-0.021851	0.655760	-1.000000	-1.000000	-1.000000	-1.000000	-1.000000	-1.000000	-1.000000	65.000000	0.000000	-1.000000	-1.000000	559402.000000	1776577517.922909
-2027.970000	-38877.255000	6222.780000	38727.585000	-5385.240000	8837.595000	-27736.155000	11581.335000	4.556907	3.732602	2.990540	2.209520	-2.581136	-3.090113	-2.754989	0.640050	-1.464960	1.983800	1.693860	-0.741392	-0.021851	0.655760	-1.000000	-1.000000	-1.000000	-1.000000	-1.000000	-1.000000	-1.000000	65.000000	0.000000	-1.000000	-1.000000	559403.000000	1776577517.922917
-2029.500000	-38874.915000	6224.175000	38728.395000	-5388.345000	8832.645000	-27738.450000	11579.940000	-0.449195	2.003796	3.936356	4.904846	1.590835	0.735028	-3.201164	-5.589102	-1.464960	1.983800	1.693860	-0.741392	-0.021851	0.655760	-1.000000	-1.000000	-1.000000	-1.000000	-1.000000	-1.000000	-1.000000	65.000000	0.000000	-1.000000	-1.000000	559404.000000	1776577517.927037
-2030.805000	-38874.060000	6223.455000	38727.000000	-5393.790000	8825.265000	-27735.750000	11580.885000	-5.309360	-0.570934	2.789454	4.594779	3.355276	3.024730	-3.054285	-9.861060	-1.464960	1.983800	1.693860	-0.741392	-0.021851	0.655760	-1.000000	-1.000000	-1.000000	-1.000000	-1.000000	-1.000000	-1.000000	65.000000	0.000000	-1.000000	-1.000000	559405.000000	1776577517.927049
-2033.685000	-38877.030000	6222.285000	38728.305000	-5390.325000	8821.575000	-27735.165000	11575.350000	-7.560612	-2.296243	0.801993	2.433386	2.549854	2.543431	-1.868018	-10.154698	-1.464960	1.983800	1.693860	-0.741392	-0.021851	0.655760	-1.000000	-1.000000	-1.000000	-1.000000	-1.000000	-1.000000	-1.000000	65.000000	0.000000	-1.000000	-1.000000	559406.000000	1776577517.930911
-2037.060000	-38879.640000	6220.935000	38728.305000	-5384.745000	8825.265000	-27741.915000	11564.280000	-6.661379	-2.715759	-0.922202	0.017946	0.817436	0.377924	0.066612	-7.045122	-1.464960	1.983800	1.693860	-0.741392	-0.021851	0.655760	-1.000000	-1.000000	-1.000000	-1.000000	-1.000000	-1.000000	-1.000000	65.000000	0.000000	-1.000000	-1.000000	559407.000000	1776577517.930924
-2030.355000	-38867.445000	6237.945000	38753.685000	-5362.335000	8827.965000	-27746.595000	11563.515000	-3.548851	-2.044382	-1.534999	-1.086778	0.397993	-1.132055	1.544564	-2.778222	0.289940	2.701020	1.892240	-0.742369	-0.020142	0.656798	-1.000000	-1.000000	-1.000000	-1.000000	-1.000000	-1.000000	-1.000000	65.000000	0.000000	-1.000000	-1.000000	559408.000000	1776577517.934982
-2033.865000	-38858.715000	6261.030000	38800.170000	-5321.115000	8828.370000	-27748.845000	11558.610000	0.425783	-0.173334	-0.034376	0.916572	2.901327	-0.656255	1.698673	0.978783	0.289940	2.701020	1.892240	-0.742369	-0.020142	0.656798	-1.000000	-1.000000	-1.000000	-1.000000	-1.000000	-1.000000	-1.000000	65.000000	0.000000	-1.000000	-1.000000	559409.000000	1776577517.934998
-2042.055000	-38865.105000	6249.195000	38768.220000	-5370.930000	8844.075000	-27746.460000	11556.900000	3.586474	2.376526	3.186159	5.514092	6.740962	1.366697	1.018659	3.734911	0.289940	2.701020	1.892240	-0.742369	-0.020142	0.656798	-1.000000	-1.000000	-1.000000	-1.000000	-1.000000	-1.000000	-1.000000	65.000000	0.000000	-1.000000	-1.000000	559410.000000	1776577517.938856
-2050.245000	-38888.415000	6209.640000	38710.845000	-5398.515000	8841.510000	-27760.815000	11559.555000	4.287202	3.257855	4.242520	6.297023	5.657091	3.679891	0.412957	5.467060	0.289940	2.701020	1.892240	-0.742369	-0.020142	0.656798	-1.000000	-1.000000	-1.000000	-1.000000	-1.000000	-1.000000	-1.000000	65.000000	0.000000	-1.000000	-1.000000	559411.000000	1776577517.938865
-2021.715000	-38872.890000	6217.830000	38719.485000	-5396.850000	8801.010000	-27772.650000	11585.880000	2.950965	0.771826	-0.492852	-2.429633	-3.702101	3.916941	-0.254891	6.732572	0.289940	2.701020	1.892240	-0.742369	-0.020142	0.656798	-1.000000	-1.000000	-1.000000	-1.000000	-1.000000	-1.000000	-1.000000	65.000000	0.000000	-1.000000	-1.000000	559412.000000	1776577517.942750
-2014.380000	-38872.260000	6214.680000	38711.970000	-5413.140000	8803.890000	-27752.040000	11598.480000	2.396722	-2.856633	-8.105577	-15.339165	-15.091392	-0.222372	-0.971412	8.413017	0.289940	2.701020	1.892240	-0.742369	-0.020142	0.656798	-1.000000	-1.000000	-1.000000	-1.000000	-1.000000	-1.000000	-1.000000	65.000000	0.000000	-1.000000	-1.000000	559413.000000	1776577517.942759
-2019.555000	-38877.570000	6208.425000	38710.350000	-5412.510000	8814.735000	-27736.380000	11596.860000	3.763981	-4.114905	-11.891379	-21.160040	-19.499819	-6.392725	0.098417	9.669756	0.289940	2.701020	1.892240	-0.742369	-0.020142	0.656798	-1.000000	-1.000000	-1.000000	-1.000000	-1.000000	-1.000000	-1.000000	65.000000	0.000000	-1.000000	-1.000000	559414.000000	1776577517.946876
-2014.470000	-38870.370000	6215.535000	38718.495000	-5405.265000	8821.665000	-27726.615000	11597.085000	4.552159	-2.459413	-8.871287	-14.928705	-13.592348	-8.533850	4.034276	7.748157	0.289940	2.701020	1.892240	-0.742369	-0.020142	0.656798	-1.000000	-1.000000	-1.000000	-1.000000	-1.000000	-1.000000	-1.000000	65.000000	0.000000	-1.000000	-1.000000	559415.000000	1776577517.946890
-2018.835000	-38869.470000	6214.410000	38711.610000	-5412.465000	8821.170000	-27728.730000	11590.920000	2.456607	0.518628	-1.062692	-0.594709	-0.593411	-4.166041	8.219304	1.369171	0.289940	2.701020	1.892240	-0.742369	-0.020142	0.656798	-1.000000	-1.000000	-1.000000	-1.000000	-1.000000	-1.000000	-1.000000	65.000000	0.000000	-1.000000	-1.000000	559416.000000	1776577517.950828
-2033.235000	-38880.270000	6205.230000	38704.095000	-5411.880000	8824.860000	-27730.530000	11582.820000	-2.191976	2.925079	7.032028	13.381837	12.427700	3.217854	8.493659	-7.339617	0.289940	2.701020	1.892240	-0.742369	-0.020142	0.656798	-1.000000	-1.000000	-1.000000	-1.000000	-1.000000	-1.000000	-1.000000	65.000000	0.000000	-1.000000	-1.000000	559417.000000	1776577517.950842
-2041.875000	-38884.905000	6207.255000	38713.320000	-5403.915000	8824.005000	-27730.125000	11578.590000	-7.572131	3.077369	11.155403	20.094585	19.378051	8.476662	3.476659	-14.447094	1.770160	1.434440	0.671440	-0.743650	-0.016479	0.657103	-1.000000	-1.000000	-1.000000	-1.000000	-1.000000	-1.000000	-1.000000	65.000000	0.000000	-1.000000	-1.000000	559418.000000	1776577517.954845
-2035.215000	-38878.020000	6215.940000	38725.065000	-5395.680000	8829.360000	-27728.055000	11586.060000	-10.988790	1.059433	10.288124	18.606486	18.843667	8.995145	-4.113104	-16.430855	1.770160	1.434440	0.671440	-0.743650	-0.016479	0.657103	-1.000000	-1.000000	-1.000000	-1.000000	-1.000000	-1.000000	-1.000000	65.000000	0.000000	-1.000000	-1.000000	559419.000000	1776577517.954859
-2033.910000	-38877.165000	6214.725000	38724.300000	-5398.920000	8821.755000	-27726.525000	11588.445000	-9.778973	-0.939827	6.619890	12.357389	12.948864	5.364898	-9.943859	-11.922501	1.770160	1.434440	0.671440	-0.743650	-0.016479	0.657103	-1.000000	-1.000000	-1.000000	-1.000000	-1.000000	-1.000000	-1.000000	65.000000	0.000000	-1.000000	-1.000000	559420.000000	1776577517.958774
-2035.395000	-38875.275000	6217.830000	38728.215000	-5390.235000	8823.240000	-27731.835000	11583.405000	-3.859543	-1.140350	2.519883	4.691188	4.589022	-0.170091	-11.427570	-3.037489	1.770160	1.434440	0.671440	-0.743650	-0.016479	0.657103	-1.000000	-1.000000	-1.000000	-1.000000	-1.000000	-1.000000	-1.000000	65.000000	0.000000	-1.000000	-1.000000	559421.000000	1776577517.958785
-2033.775000	-38871.225000	6222.285000	38733.795000	-5382.720000	8828.640000	-27736.785000	11583.000000	3.610843	0.209460	-0.874371	-2.408012	-3.311597	-4.932689	-8.997275	5.595779	1.770160	1.434440	0.671440	-0.743650	-0.016479	0.657103	-1.000000	-1.000000	-1.000000	-1.000000	-1.000000	-1.000000	-1.000000	65.000000	0.000000	-1.000000	-1.000000	559422.000000	1776577517.962675
