Channel1	Channel2	Channel3	Channel4	Channel5	Channel6	Channel7	Channel8	FilteredChannel1	FilteredChannel2	FilteredChannel3	FilteredChannel4	FilteredChannel5	FilteredChannel6	FilteredChannel7	FilteredChannel8	GyroX	GyroY	GyroZ	AccX	AccY	AccZ	PPG1	PPG2	rawPPG1	rawPPG2	rawPPG3	Hr	Hrv	Battery	Trigger	PhysicalTrigger	AutoTrigger	NumMeasurements	Timestamp
-9102.105000	-12688.020000	6751.485000	29450.970000	19291.590000	7285.860000	-15937.920000	-16407.540000	1.055235	-1.204558	3.340868	12.245211	8.525838	-2.192908	-0.313408	0.814869	18.907140	-5.966660	-5.478340	-0.733458	0.214477	0.620970	-1.000000	-1.000000	-1.000000	-1.000000	-1.000000	-1.000000	-1.000000	57.000000	0.000000	-1.000000	-1.000000	2009246.000000	1776580421.171596
-9123.120000	-12699.540000	6752.250000	29460.780000	19292.580000	7350.255000	-15929.685000	-16431.525000	0.643815	0.833631	1.372161	5.641255	16.248333	16.030616	1.022140	-0.940241	18.907140	-5.966660	-5.478340	-0.733458	0.214477	0.620970	-1.000000	-1.000000	-1.000000	-1.000000	-1.000000	-1.000000	-1.000000	57.000000	0.000000	-1.000000	-1.000000	2009247.000000	1776580421.171606
-9121.860000	-12695.535000	6766.155000	29479.995000	19282.995000	7320.960000	-15927.390000	-16432.380000	-2.082983	-1.012653	-6.933959	-10.501964	15.322389	37.343163	4.447556	-4.285081	18.907140	-5.966660	-5.478340	-0.733458	0.214477	0.620970	-1.000000	-1.000000	-1.000000	-1.000000	-1.000000	-1.000000	-1.000000	57.000000	0.000000	-1.000000	-1.000000	2009248.000000	1776580421.175732
-9107.820000	-12695.580000	6754.680000	29462.670000	19265.715000	7284.420000	-15927.615000	-16416.405000	-4.644931	-3.694152	-11.917789	-20.970056	5.192814	42.686436	7.113398	-6.630068	18.907140	-5.966660	-5.478340	-0.733458	0.214477	0.620970	-1.000000	-1.000000	-1.000000	-1.000000	-1.000000	-1.000000	-1.000000	57.000000	0.000000	-1.000000	-1.000000	2009249.000000	1776580421.175745
-9090.045000	-12674.295000	6779.655000	29493.135000	19267.920000	7274.385000	-15921.765000	-16399.350000	-3.331535	-3.209383	-8.003204	-17.053847	-8.699548	21.394822	6.363812	-4.360135	18.907140	-5.966660	-5.478340	-0.733458	0.214477	0.620970	-1.000000	-1.000000	-1.000000	-1.000000	-1.000000	-1.000000	-1.000000	57.000000	0.000000	-1.000000	-1.000000	2009250.000000	1776580421.179706
-9088.380000	-12672.045000	6775.650000	29475.495000	19282.275000	7286.895000	-15913.440000	-16394.175000	2.359268	1.407659	2.384461	-2.572660	-18.284342	-15.240946	2.486324	2.754562	18.907140	-5.966660	-5.478340	-0.733458	0.214477	0.620970	-1.000000	-1.000000	-1.000000	-1.000000	-1.000000	-1.000000	-1.000000	57.000000	0.000000	-1.000000	-1.000000	2009251.000000	1776580421.179713
-9091.440000	-12680.595000	6766.470000	29466.270000	19285.785000	7283.205000	-15916.005000	-16391.970000	8.264488	7.015639	12.385850	12.199316	-17.955916	-44.110494	-2.154445	10.140370	17.701600	-7.217980	-6.104000	-0.736937	0.235595	0.623289	-1.000000	-1.000000	-1.000000	-1.000000	-1.000000	-1.000000	-1.000000	57.000000	0.000000	-1.000000	-1.000000	2009252.000000	1776580421.183666
-9099.270000	-12684.960000	6769.440000	29477.295000	19286.820000	7288.110000	-15924.240000	-16399.755000	9.348491	8.814722	15.620068	18.607396	-8.885087	-50.222226	-5.836445	12.317892	17.701600	-7.217980	-6.104000	-0.736937	0.235595	0.623289	-1.000000	-1.000000	-1.000000	-1.000000	-1.000000	-1.000000	-1.000000	57.000000	0.000000	-1.000000	-1.000000	2009253.000000	1776580421.183677
-9095.310000	-12678.345000	6776.955000	29487.735000	19291.320000	7310.160000	-15916.320000	-16396.245000	4.447004	5.211684	11.178686	15.887124	2.510416	-34.311926	-7.998264	7.524187	17.701600	-7.217980	-6.104000	-0.736937	0.235595	0.623289	-1.000000	-1.000000	-1.000000	-1.000000	-1.000000	-1.000000	-1.000000	57.000000	0.000000	-1.000000	-1.000000	2009254.000000	1776580421.187737
-9102.555000	-12683.070000	6773.130000	29485.260000	19285.920000	7297.830000	-15923.340000	-16405.065000	-3.082170	-0.869059	3.226270	8.834135	10.024687	-7.594669	-8.069385	-1.278694	17.701600	-7.217980	-6.104000	-0.736937	0.235595	0.623289	-1.000000	-1.000000	-1.000000	-1.000000	-1.000000	-1.000000	-1.000000	57.000000	0.000000	-1.000000	-1.000000	2009255.000000	1776580421.187765
-9103.455000	-12684.735000	6770.790000	29482.560000	19280.655000	7278.030000	-15927.930000	-16407.675000	-8.808811	-5.641189	-3.906216	1.434751	10.954112	15.521786	-6.018429	-9.272670	17.701600	-7.217980	-6.104000	-0.736937	0.235595	0.623289	-1.000000	-1.000000	-1.000000	-1.000000	-1.000000	-1.000000	-1.000000	57.000000	0.000000	-1.000000	-1.000000	2009256.000000	1776580421.191597
-9104.490000	-12685.815000	6769.755000	29480.490000	19274.400000	7267.185000	-15931.890000	-16409.790000	-10.274570	-7.341059	-8.169057	-4.725366	6.322073	24.870998	-2.951242	-12.957681	17.701600	-7.217980	-6.104000	-0.736937	0.235595	0.623289	-1.000000	-1.000000	-1.000000	-1.000000	-1.000000	-1.000000	-1.000000	57.000000	0.000000	-1.000000	-1.000000	2009257.000000	1776580421.191606
-9104.445000	-12684.420000	6771.555000	29480.580000	19268.190000	7266.510000	-15934.815000	-16412.715000	-7.484815	-6.040230	-9.079983	-8.775115	-0.427864	20.298876	0.009245	-11.337743	17.701600	-7.217980	-6.104000	-0.736937	0.235595	0.623289	-1.000000	-1.000000	-1.000000	-1.000000	-1.000000	-1.000000	-1.000000	57.000000	0.000000	-1.000000	-1.000000	2009258.000000	1776580421.195769
-9100.935000	-12678.840000	6776.460000	29479.455000	19260.045000	7262.595000	-15937.920000	-16410.690000	-2.186290	-2.703372	-6.958944	-9.945801	-5.681321	9.553612	2.365119	-5.786208	17.701600	-7.217980	-6.104000	-0.736937	0.235595	0.623289	-1.000000	-1.000000	-1.000000	-1.000000	-1.000000	-1.000000	-1.000000	57.000000	0.000000	-1.000000	-1.000000	2009259.000000	1776580421.195777
-9098.595000	-12674.520000	6783.885000	29491.470000	19272.240000	7255.395000	-15945.165000	-16410.105000	3.272689	1.345762	-2.787751	-7.988033	-7.143386	0.601278	3.843841	1.061548	17.701600	-7.217980	-6.104000	-0.736937	0.235595	0.623289	-1.000000	-1.000000	-1.000000	-1.000000	-1.000000	-1.000000	-1.000000	57.000000	0.000000	-1.000000	-1.000000	2009260.000000	1776580421.199749
-9092.790000	-12673.080000	6790.320000	29506.095000	19280.925000	7248.195000	-15943.545000	-16401.195000	6.994661	4.616765	1.904500	-3.269746	-4.051773	-3.332638	4.284746	6.761078	17.701600	-7.217980	-6.104000	-0.736937	0.235595	0.623289	-1.000000	-1.000000	-1.000000	-1.000000	-1.000000	-1.000000	-1.000000	57.000000	0.000000	-1.000000	-1.000000	2009261.000000	1776580421.199759
-9098.280000	-12683.385000	6788.430000	29516.625000	19292.220000	7243.110000	-15940.935000	-16399.980000	7.921807	5.588515	5.251493	2.870437	2.287958	-3.170634	4.056255	9.845380	7.004340	-8.240400	-0.152600	-0.736876	0.251891	0.624266	-1.000000	-1.000000	-1.000000	-1.000000	-1.000000	-1.000000	-1.000000	57.000000	0.000000	-1.000000	-1.000000	2009262.000000	1776580421.204374
-9103.725000	-12690.270000	6780.645000	29510.055000	19288.530000	7246.980000	-15934.545000	-16402.410000	5.754096	3.407214	5.558677	7.596879	8.322529	-1.018809	3.887924	9.652930	7.004340	-8.240400	-0.152600	-0.736876	0.251891	0.624266	-1.000000	-1.000000	-1.000000	-1.000000	-1.000000	-1.000000	-1.000000	57.000000	0.000000	-1.000000	-1.000000	2009263.000000	1776580421.204386
-9108.990000	-12687.570000	6781.320000	29518.740000	19294.650000	7264.485000	-15938.055000	-16413.390000	1.227890	-0.853200	2.523678	8.022844	10.278296	1.944823	3.885669	6.068527	7.004340	-8.240400	-0.152600	-0.736876	0.251891	0.624266	-1.000000	-1.000000	-1.000000	-1.000000	-1.000000	-1.000000	-1.000000	57.000000	0.000000	-1.000000	-1.000000	2009264.000000	1776580421.207788
-9103.545000	-12685.185000	6773.355000	29492.010000	19285.335000	7277.940000	-15927.615000	-16407.855000	-3.493837	-4.272479	-2.044606	3.556206	6.894690	5.405148	3.404491	0.243705	7.004340	-8.240400	-0.152600	-0.736876	0.251891	0.624266	-1.000000	-1.000000	-1.000000	-1.000000	-1.000000	-1.000000	-1.000000	57.000000	0.000000	-1.000000	-1.000000	2009265.000000	1776580421.207797
-9097.920000	-12682.395000	6762.870000	29455.200000	19274.805000	7296.660000	-15912.270000	-16398.630000	-5.708098	-4.507033	-5.704814	-4.520853	-0.200835	8.482922	2.375985	-4.843415	7.004340	-8.240400	-0.152600	-0.736876	0.251891	0.624266	-1.000000	-1.000000	-1.000000	-1.000000	-1.000000	-1.000000	-1.000000	57.000000	0.000000	-1.000000	-1.000000	2009266.000000	1776580421.211707
-9106.560000	-12688.335000	6765.255000	29470.860000	19276.245000	7290.990000	-15918.390000	-16406.055000	-4.440444	-1.888367	-6.957771	-13.062417	-7.717101	9.148831	1.299508	-6.461279	7.004340	-8.240400	-0.152600	-0.736876	0.251891	0.624266	-1.000000	-1.000000	-1.000000	-1.000000	-1.000000	-1.000000	-1.000000	57.000000	0.000000	-1.000000	-1.000000	2009267.000000	1776580421.211715
-9104.310000	-12685.230000	6771.645000	29481.930000	19280.520000	7279.875000	-15923.430000	-16404.615000	-1.417949	1.274152	-5.055321	-15.980590	-11.799301	5.183141	-0.387203	-4.839036	7.004340	-8.240400	-0.152600	-0.736876	0.251891	0.624266	-1.000000	-1.000000	-1.000000	-1.000000	-1.000000	-1.000000	-1.000000	57.000000	0.000000	-1.000000	-1.000000	2009268.000000	1776580421.215749
-9103.320000	-12683.700000	6777.045000	29490.165000	19284.165000	7275.825000	-15926.265000	-16404.480000	1.099557	3.118439	-0.215420	-9.027987	-10.136970	-3.425283	-3.505234	-2.145835	7.004340	-8.240400	-0.152600	-0.736876	0.251891	0.624266	-1.000000	-1.000000	-1.000000	-1.000000	-1.000000	-1.000000	-1.000000	57.000000	0.000000	-1.000000	-1.000000	2009269.000000	1776580421.215762
-9098.640000	-12678.030000	6783.885000	29496.240000	19288.755000	7282.935000	-15925.455000	-16401.375000	2.380646	3.429235	5.631506	4.519823	-3.826596	-12.696358	-6.990772	0.112438	7.004340	-8.240400	-0.152600	-0.736876	0.251891	0.624266	-1.000000	-1.000000	-1.000000	-1.000000	-1.000000	-1.000000	-1.000000	57.000000	0.000000	-1.000000	-1.000000	2009270.000000	1776580421.219758
-9096.525000	-12675.420000	6792.120000	29507.625000	19301.400000	7285.140000	-15924.555000	-16398.765000	2.760168	2.863791	9.738480	16.646062	3.707526	-17.037653	-8.511637	1.572502	7.004340	-8.240400	-0.152600	-0.736876	0.251891	0.624266	-1.000000	-1.000000	-1.000000	-1.000000	-1.000000	-1.000000	-1.000000	57.000000	0.000000	-1.000000	-1.000000	2009271.000000	1776580421.219787
-9100.575000	-12681.945000	6782.805000	29501.595000	19295.325000	7271.820000	-15930.270000	-16399.935000	2.440149	1.755280	10.047986	21.016666	9.006066	-14.268384	-6.883554	2.244764	-4.455920	-4.913720	1.236060	-0.729857	0.258910	0.623411	-1.000000	-1.000000	-1.000000	-1.000000	-1.000000	-1.000000	-1.000000	57.000000	0.000000	-1.000000	-1.000000	2009272.000000	1776580421.223658
-9092.160000	-12670.605000	6785.820000	29504.205000	19292.670000	7270.200000	-15933.735000	-16397.415000	1.399694	0.124085	6.020799	16.040545	9.702699	-7.159244	-3.135273	2.089736	-4.455920	-4.913720	1.236060	-0.729857	0.258910	0.623411	-1.000000	-1.000000	-1.000000	-1.000000	-1.000000	-1.000000	-1.000000	57.000000	0.000000	-1.000000	-1.000000	2009273.000000	1776580421.223664
-9094.230000	-12664.080000	6793.965000	29507.220000	19293.255000	7276.905000	-15934.365000	-16404.120000	0.064593	-1.266380	-0.437597	4.949090	5.644888	0.326643	0.767047	1.125649	-4.455920	-4.913720	1.236060	-0.729857	0.258910	0.623411	-1.000000	-1.000000	-1.000000	-1.000000	-1.000000	-1.000000	-1.000000	57.000000	0.000000	-1.000000	-1.000000	2009274.000000	1776580421.227769
-9109.080000	-12687.345000	6771.285000	29486.295000	19270.890000	7262.595000	-15930.675000	-16409.025000	-1.292211	-1.918811	-6.160493	-6.778114	-0.937302	5.958052	3.669209	-0.511242	-4.455920	-4.913720	1.236060	-0.729857	0.258910	0.623411	-1.000000	-1.000000	-1.000000	-1.000000	-1.000000	-1.000000	-1.000000	57.000000	0.000000	-1.000000	-1.000000	2009275.000000	1776580421.227777
-9095.715000	-12678.165000	6775.065000	29485.620000	19261.305000	7260.885000	-15927.390000	-16397.235000	-2.766521	-2.773343	-9.520278	-15.033832	-7.357764	8.507401	5.458661	-2.103745	-4.455920	-4.913720	1.236060	-0.729857	0.258910	0.623411	-1.000000	-1.000000	-1.000000	-1.000000	-1.000000	-1.000000	-1.000000	57.000000	0.000000	-1.000000	-1.000000	2009276.000000	1776580421.231741
-9097.065000	-12682.080000	6770.430000	29484.315000	19266.885000	7263.855000	-15930.540000	-16397.730000	-3.436457	-3.910356	-10.047017	-17.632795	-11.035192	7.877576	6.116081	-2.252081	-4.455920	-4.913720	1.236060	-0.729857	0.258910	0.623411	-1.000000	-1.000000	-1.000000	-1.000000	-1.000000	-1.000000	-1.000000	57.000000	0.000000	-1.000000	-1.000000	2009277.000000	1776580421.231754
-9101.565000	-12691.620000	6758.775000	29489.355000	19278.000000	7265.070000	-15934.680000	-16401.195000	-2.372497	-4.063716	-7.597669	-13.799937	-9.378658	5.712930	5.188972	-0.669758	-4.455920	-4.913720	1.236060	-0.729857	0.258910	0.623411	-1.000000	-1.000000	-1.000000	-1.000000	-1.000000	-1.000000	-1.000000	57.000000	0.000000	-1.000000	-1.000000	2009278.000000	1776580421.235796
-9099.135000	-12705.615000	6741.045000	29497.725000	19288.800000	7266.555000	-15930.675000	-16395.975000	-0.387218	-3.149847	-3.585290	-5.012989	-2.034473	3.740538	2.644233	1.194137	-4.455920	-4.913720	1.236060	-0.729857	0.258910	0.623411	-1.000000	-1.000000	-1.000000	-1.000000	-1.000000	-1.000000	-1.000000	57.000000	0.000000	-1.000000	-1.000000	2009279.000000	1776580421.235808
-9097.830000	-12717.720000	6733.620000	29496.960000	19287.045000	7265.565000	-15924.555000	-16391.700000	1.280466	-2.212251	-0.162485	5.029781	7.405632	2.351703	-0.231172	2.188039	-4.455920	-4.913720	1.236060	-0.729857	0.258910	0.623411	-1.000000	-1.000000	-1.000000	-1.000000	-1.000000	-1.000000	-1.000000	57.000000	0.000000	-1.000000	-1.000000	2009280.000000	1776580421.239716
-9093.465000	-12685.410000	6769.350000	29489.985000	19271.880000	7263.090000	-15922.890000	-16393.455000	2.277395	-0.871366	2.774493	11.824016	13.126887	1.023103	-1.814299	2.246207	-4.455920	-4.913720	1.236060	-0.729857	0.258910	0.623411	-1.000000	-1.000000	-1.000000	-1.000000	-1.000000	-1.000000	-1.000000	57.000000	0.000000	-1.000000	-1.000000	2009281.000000	1776580421.239751
-9095.445000	-12648.150000	6814.710000	29489.940000	19265.580000	7265.610000	-15924.510000	-16401.105000	2.631280	3.466226	8.066571	12.485510	11.270116	-0.609836	-1.864820	1.315080	-13.337240	-0.839300	-0.152600	-0.724424	0.255370	0.624327	-1.000000	-1.000000	-1.000000	-1.000000	-1.000000	-1.000000	-1.000000	57.000000	0.000000	-1.000000	-1.000000	2009282.000000	1776580421.244241
-9099.540000	-12656.295000	6809.085000	29485.620000	19260.495000	7257.825000	-15925.320000	-16402.995000	2.130320	11.124532	16.052484	7.731607	3.236067	-2.290437	-1.462206	-0.686343	-13.337240	-0.839300	-0.152600	-0.724424	0.255370	0.624327	-1.000000	-1.000000	-1.000000	-1.000000	-1.000000	-1.000000	-1.000000	57.000000	0.000000	-1.000000	-1.000000	2009283.000000	1776580421.244267
-9094.230000	-12667.905000	6791.580000	29488.185000	19270.575000	7269.660000	-15922.125000	-16393.950000	0.729899	16.221394	20.275173	1.031535	-5.327592	-3.380697	-1.440421	-2.748468	-13.337240	-0.839300	-0.152600	-0.724424	0.255370	0.624327	-1.000000	-1.000000	-1.000000	-1.000000	-1.000000	-1.000000	-1.000000	57.000000	0.000000	-1.000000	-1.000000	2009284.000000	1776580421.247910
-9095.580000	-12672.045000	6785.055000	29489.355000	19271.070000	7261.605000	-15925.950000	-16392.915000	-0.804326	12.312161	13.668781	-3.982297	-9.050127	-3.241345	-1.682843	-3.097049	-13.337240	-0.839300	-0.152600	-0.724424	0.255370	0.624327	-1.000000	-1.000000	-1.000000	-1.000000	-1.000000	-1.000000	-1.000000	57.000000	0.000000	-1.000000	-1.000000	2009285.000000	1776580421.247924
-9097.380000	-12674.520000	6783.210000	29494.980000	19276.470000	7259.715000	-15926.130000	-16392.375000	-1.644336	0.371024	-2.162171	-5.416354	-6.684671	-2.118474	-1.821115	-1.298875	-13.337240	-0.839300	-0.152600	-0.724424	0.255370	0.624327	-1.000000	-1.000000	-1.000000	-1.000000	-1.000000	-1.000000	-1.000000	57.000000	0.000000	-1.000000	-1.000000	2009286.000000	1776580421.251812
-9106.245000	-12687.480000	6776.280000	29493.540000	19274.535000	7251.210000	-15930.315000	-16398.270000	-1.899691	-12.465386	-17.993267	-3.684606	-1.128431	-1.175277	-1.730036	1.030940	-13.337240	-0.839300	-0.152600	-0.724424	0.255370	0.624327	-1.000000	-1.000000	-1.000000	-1.000000	-1.000000	-1.000000	-1.000000	57.000000	0.000000	-1.000000	-1.000000	2009287.000000	1776580421.251828
-9110.295000	-12694.905000	6774.390000	29490.300000	19274.085000	7253.010000	-15931.215000	-16401.555000	-2.166598	-19.678793	-25.388091	-0.886634	3.536595	-1.001380	-1.389785	1.941476	-13.337240	-0.839300	-0.152600	-0.724424	0.255370	0.624327	-1.000000	-1.000000	-1.000000	-1.000000	-1.000000	-1.000000	-1.000000	57.000000	0.000000	-1.000000	-1.000000	2009288.000000	1776580421.255900
-9109.035000	-12690.855000	6776.955000	29483.955000	19273.320000	7267.230000	-15927.660000	-16400.970000	-2.382275	-18.733614	-21.835860	0.719881	4.876577	-0.688033	-0.669040	1.008062	-13.337240	-0.839300	-0.152600	-0.724424	0.255370	0.624327	-1.000000	-1.000000	-1.000000	-1.000000	-1.000000	-1.000000	-1.000000	57.000000	0.000000	-1.000000	-1.000000	2009289.000000	1776580421.255913
-9114.300000	-12689.955000	6778.935000	29482.830000	19268.145000	7263.045000	-15933.780000	-16408.935000	-1.818534	-10.638681	-10.347593	0.320889	2.991109	0.964003	0.486084	-0.658890	-13.337240	-0.839300	-0.152600	-0.724424	0.255370	0.624327	-1.000000	-1.000000	-1.000000	-1.000000	-1.000000	-1.000000	-1.000000	57.000000	0.000000	-1.000000	-1.000000	2009290.000000	1776580421.259762
-9100.575000	-12679.155000	6784.335000	29494.710000	19276.470000	7269.795000	-15926.715000	-16399.215000	-0.029436	1.033218	3.291720	-0.844907	-0.247725	3.371500	1.699029	-1.671091	-13.337240	-0.839300	-0.152600	-0.724424	0.255370	0.624327	-1.000000	-1.000000	-1.000000	-1.000000	-1.000000	-1.000000	-1.000000	57.000000	0.000000	-1.000000	-1.000000	2009291.000000	1776580421.259776
-9092.835000	-12672.045000	6782.895000	29499.795000	19279.305000	7273.800000	-15932.610000	-16398.810000	2.897049	11.674487	13.509211	-0.693922	-2.452835	4.764563	2.478420	-1.092167	-10.575180	0.457800	-0.976640	-0.726622	0.246459	0.625487	-1.000000	-1.000000	-1.000000	-1.000000	-1.000000	-1.000000	-1.000000	57.000000	0.000000	-1.000000	-1.000000	2009292.000000	1776580421.263898
-9091.530000	-12667.005000	6784.695000	29502.045000	19285.290000	7277.985000	-15935.490000	-16399.620000	5.968406	17.510885	17.094226	1.274384	-2.309896	4.276965	2.402927	0.860134	-10.575180	0.457800	-0.976640	-0.726622	0.246459	0.625487	-1.000000	-1.000000	-1.000000	-1.000000	-1.000000	-1.000000	-1.000000	57.000000	0.000000	-1.000000	-1.000000	2009293.000000	1776580421.263914
-9090.765000	-12670.155000	6785.730000	29504.790000	19291.905000	7281.360000	-15930.360000	-16394.265000	7.140351	16.692816	14.094331	3.363473	-0.373754	2.237438	1.394166	2.754971	-10.575180	0.457800	-0.976640	-0.726622	0.246459	0.625487	-1.000000	-1.000000	-1.000000	-1.000000	-1.000000	-1.000000	-1.000000	57.000000	0.000000	-1.000000	-1.000000	2009294.000000	1776580421.269535
-9090.945000	-12675.420000	6778.755000	29494.485000	19282.140000	7258.410000	-15931.935000	-16391.250000	5.036144	9.786975	7.059874	3.501318	1.558233	-0.913951	0.198515	3.462081	-10.575180	0.457800	-0.976640	-0.726622	0.246459	0.625487	-1.000000	-1.000000	-1.000000	-1.000000	-1.000000	-1.000000	-1.000000	57.000000	0.000000	-1.000000	-1.000000	2009295.000000	1776580421.269557
-9092.205000	-12676.455000	6778.395000	29495.970000	19273.815000	7221.780000	-15940.440000	-16393.590000	0.405046	-0.226442	-0.781273	1.002368	1.474586	-5.601280	-0.597921	2.791406	-10.575180	0.457800	-0.976640	-0.726622	0.246459	0.625487	-1.000000	-1.000000	-1.000000	-1.000000	-1.000000	-1.000000	-1.000000	57.000000	0.000000	-1.000000	-1.000000	2009296.000000	1776580421.272047
-9093.825000	-12674.070000	6788.340000	29518.650000	19278.225000	7217.325000	-15941.295000	-16392.555000	-4.535233	-8.950362	-6.442315	-2.293866	-1.007475	-11.397862	-1.289211	0.964869	-10.575180	0.457800	-0.976640	-0.726622	0.246459	0.625487	-1.000000	-1.000000	-1.000000	-1.000000	-1.000000	-1.000000	-1.000000	57.000000	0.000000	-1.000000	-1.000000	2009297.000000	1776580421.272066
-9099.315000	-12680.505000	6785.415000	29508.570000	19275.435000	7250.130000	-15931.305000	-16392.105000	-7.700718	-12.920527	-7.949389	-3.435203	-3.753539	-13.909919	-1.737237	-1.350835	-10.575180	0.457800	-0.976640	-0.726622	0.246459	0.625487	-1.000000	-1.000000	-1.000000	-1.000000	-1.000000	-1.000000	-1.000000	57.000000	0.000000	-1.000000	-1.000000	2009298.000000	1776580421.275911
-9115.920000	-12704.670000	6756.210000	29449.260000	19254.915000	7286.985000	-15921.720000	-16401.645000	-8.437888	-12.028151	-6.302394	-3.220931	-4.768130	-7.262521	-0.852433	-3.294775	-10.575180	0.457800	-0.976640	-0.726622	0.246459	0.625487	-1.000000	-1.000000	-1.000000	-1.000000	-1.000000	-1.000000	-1.000000	57.000000	0.000000	-1.000000	-1.000000	2009299.000000	1776580421.275923
-9120.645000	-12715.830000	6738.795000	29448.045000	19242.450000	7270.425000	-15928.470000	-16405.965000	-7.406694	-8.961651	-5.026413	-5.573520	-4.471609	7.585236	1.447115	-4.511829	-10.575180	0.457800	-0.976640	-0.726622	0.246459	0.625487	-1.000000	-1.000000	-1.000000	-1.000000	-1.000000	-1.000000	-1.000000	57.000000	0.000000	-1.000000	-1.000000	2009300.000000	1776580421.279917
-9120.015000	-12715.470000	6738.570000	29462.400000	19252.395000	7251.570000	-15942.015000	-16411.455000	-4.998603	-5.548991	-5.589869	-9.362712	-3.527662	20.156066	2.939993	-4.870176	-10.575180	0.457800	-0.976640	-0.726622	0.246459	0.625487	-1.000000	-1.000000	-1.000000	-1.000000	-1.000000	-1.000000	-1.000000	57.000000	0.000000	-1.000000	-1.000000	2009301.000000	1776580421.279932
-9110.745000	-12690.225000	6770.385000	29489.985000	19276.560000	7237.980000	-15968.205000	-16418.115000	-0.795924	-0.763678	-4.787310	-7.735875	-0.488624	20.122714	1.013893	-4.093756	-4.623780	0.366240	-3.464020	-0.731016	0.239257	0.627867	-1.000000	-1.000000	-1.000000	-1.000000	-1.000000	-1.000000	-1.000000	57.000000	0.000000	-1.000000	-1.000000	2009302.000000	1776580421.285400
-9112.590000	-12690.540000	6770.115000	29492.010000	19275.210000	7237.395000	-15959.250000	-16417.170000	4.834335	6.524282	1.013455	2.241709	5.598817	7.773802	-3.930753	-2.111489	-4.623780	0.366240	-3.464020	-0.731016	0.239257	0.627867	-1.000000	-1.000000	-1.000000	-1.000000	-1.000000	-1.000000	-1.000000	57.000000	0.000000	-1.000000	-1.000000	2009303.000000	1776580421.285420
-9112.680000	-12693.915000	6767.865000	29490.660000	19272.150000	7240.770000	-15944.985000	-16412.490000	9.628924	13.717779	9.757079	14.625221	11.606666	-7.324687	-7.393724	0.899887	-4.623780	0.366240	-3.464020	-0.731016	0.239257	0.627867	-1.000000	-1.000000	-1.000000	-1.000000	-1.000000	-1.000000	-1.000000	57.000000	0.000000	-1.000000	-1.000000	2009304.000000	1776580421.287758
-9099.765000	-12680.910000	6773.085000	29488.320000	19280.295000	7257.870000	-15930.765000	-16396.470000	11.198277	16.188847	15.082511	20.399375	12.827809	-15.259644	-4.838914	4.648884	-4.623780	0.366240	-3.464020	-0.731016	0.239257	0.627867	-1.000000	-1.000000	-1.000000	-1.000000	-1.000000	-1.000000	-1.000000	57.000000	0.000000	-1.000000	-1.000000	2009305.000000	1776580421.287767
-9090.810000	-12674.295000	6779.070000	29493.990000	19292.805000	7294.230000	-15916.500000	-16387.335000	9.422111	12.542954	13.385799	15.876491	8.423082	-11.968974	3.197856	8.397071	-4.623780	0.366240	-3.464020	-0.731016	0.239257	0.627867	-1.000000	-1.000000	-1.000000	-1.000000	-1.000000	-1.000000	-1.000000	57.000000	0.000000	-1.000000	-1.000000	2009306.000000	1776580421.291703
-9101.295000	-12687.525000	6766.785000	29482.560000	19277.145000	7287.435000	-15924.510000	-16396.785000	5.504962	4.949426	6.094922	4.465928	1.279115	-0.685518	11.222879	10.246545	-4.623780	0.366240	-3.464020	-0.731016	0.239257	0.627867	-1.000000	-1.000000	-1.000000	-1.000000	-1.000000	-1.000000	-1.000000	57.000000	0.000000	-1.000000	-1.000000	2009307.000000	1776580421.291715
-9101.880000	-12686.310000	6767.730000	29482.020000	19271.520000	7281.855000	-15929.280000	-16398.855000	0.074767	-3.904355	-3.216315	-7.656593	-5.990623	9.769238	13.164946	7.851135	-4.623780	0.366240	-3.464020	-0.731016	0.239257	0.627867	-1.000000	-1.000000	-1.000000	-1.000000	-1.000000	-1.000000	-1.000000	57.000000	0.000000	-1.000000	-1.000000	2009308.000000	1776580421.295736
-9096.615000	-12681.765000	6772.500000	29485.035000	19271.700000	7270.335000	-15934.680000	-16394.355000	-5.718531	-11.118491	-10.624710	-15.315429	-11.601446	11.379574	7.148330	1.351137	-4.623780	0.366240	-3.464020	-0.731016	0.239257	0.627867	-1.000000	-1.000000	-1.000000	-1.000000	-1.000000	-1.000000	-1.000000	57.000000	0.000000	-1.000000	-1.000000	2009309.000000	1776580421.295748
-9090.900000	-12672.630000	6784.965000	29499.570000	19284.750000	7267.950000	-15941.970000	-16394.580000	-9.326230	-13.632103	-12.803369	-15.687827	-13.197548	3.577687	-3.195949	-5.758720	-4.623780	0.366240	-3.464020	-0.731016	0.239257	0.627867	-1.000000	-1.000000	-1.000000	-1.000000	-1.000000	-1.000000	-1.000000	57.000000	0.000000	-1.000000	-1.000000	2009310.000000	1776580421.299994
-9089.235000	-12672.855000	6787.260000	29505.645000	19288.845000	7258.320000	-15939.765000	-16393.365000	-8.968421	-10.527523	-9.057850	-9.232909	-9.292158	-7.434433	-11.890769	-9.776481	-4.623780	0.366240	-3.464020	-0.731016	0.239257	0.627867	-1.000000	-1.000000	-1.000000	-1.000000	-1.000000	-1.000000	-1.000000	57.000000	0.000000	-1.000000	-1.000000	2009311.000000	1776580421.300009
-9094.455000	-12678.930000	6782.580000	29504.430000	19292.310000	7263.540000	-15934.095000	-16396.425000	-5.552796	-4.323692	-2.339159	0.079539	-1.620578	-14.449557	-14.433243	-9.553503	1.358140	-2.411080	-2.350040	-0.733336	0.234924	0.627562	-1.000000	-1.000000	-1.000000	-1.000000	-1.000000	-1.000000	-1.000000	57.000000	0.000000	-1.000000	-1.000000	2009312.000000	1776580421.303974
-9107.100000	-12685.635000	6783.345000	29515.815000	19292.805000	7267.230000	-15934.275000	-16410.015000	-1.903292	0.928695	2.930747	7.138463	5.600351	-13.670429	-10.043586	-6.574972	1.358140	-2.411080	-2.350040	-0.733336	0.234924	0.627562	-1.000000	-1.000000	-1.000000	-1.000000	-1.000000	-1.000000	-1.000000	57.000000	0.000000	-1.000000	-1.000000	2009313.000000	1776580421.304035
-9104.940000	-12684.240000	6786.045000	29522.565000	19292.220000	7272.495000	-15932.790000	-16408.170000	-0.175031	2.961278	4.478284	9.366285	8.830463	-6.010407	-1.849257	-3.206848	1.358140	-2.411080	-2.350040	-0.733336	0.234924	0.627562	-1.000000	-1.000000	-1.000000	-1.000000	-1.000000	-1.000000	-1.000000	57.000000	0.000000	-1.000000	-1.000000	2009314.000000	1776580421.307804
-9105.930000	-12690.765000	6769.485000	29489.625000	19280.925000	7281.810000	-15935.715000	-16406.280000	0.032543	2.451675	2.873638	6.768614	7.124228	4.174976	5.496145	-0.414279	1.358140	-2.411080	-2.350040	-0.733336	0.234924	0.627562	-1.000000	-1.000000	-1.000000	-1.000000	-1.000000	-1.000000	-1.000000	57.000000	0.000000	-1.000000	-1.000000	2009315.000000	1776580421.307815
-9097.155000	-12685.050000	6767.055000	29474.370000	19277.100000	7276.545000	-15926.895000	-16393.635000	0.639033	1.368761	-0.384389	-0.110155	1.930789	11.842595	8.972923	2.466833	1.358140	-2.411080	-2.350040	-0.733336	0.234924	0.627562	-1.000000	-1.000000	-1.000000	-1.000000	-1.000000	-1.000000	-1.000000	57.000000	0.000000	-1.000000	-1.000000	2009316.000000	1776580421.311844
-9096.345000	-12687.705000	6767.955000	29479.545000	19278.045000	7272.045000	-15925.995000	-16390.620000	2.647563	1.168830	-3.358322	-8.511046	-3.658382	13.537115	8.492797	5.806851	1.358140	-2.411080	-2.350040	-0.733336	0.234924	0.627562	-1.000000	-1.000000	-1.000000	-1.000000	-1.000000	-1.000000	-1.000000	57.000000	0.000000	-1.000000	-1.000000	2009317.000000	1776580421.311853
-9098.100000	-12690.090000	6768.945000	29485.305000	19274.850000	7261.380000	-15935.535000	-16394.220000	5.050608	1.933466	-3.907211	-12.675774	-6.459499	8.806318	5.418861	8.272419	1.358140	-2.411080	-2.350040	-0.733336	0.234924	0.627562	-1.000000	-1.000000	-1.000000	-1.000000	-1.000000	-1.000000	-1.000000	57.000000	0.000000	-1.000000	-1.000000	2009318.000000	1776580421.315903
-9087.615000	-12671.415000	6788.655000	29505.420000	19280.835000	7249.770000	-15943.050000	-16390.440000	6.059499	2.985990	-1.113451	-8.608165	-5.237612	0.334648	0.820847	7.856745	1.358140	-2.411080	-2.350040	-0.733336	0.234924	0.627562	-1.000000	-1.000000	-1.000000	-1.000000	-1.000000	-1.000000	-1.000000	57.000000	0.000000	-1.000000	-1.000000	2009319.000000	1776580421.315917
-9081.990000	-12662.730000	6806.250000	29546.910000	19301.490000	7233.030000	-15955.965000	-16389.765000	5.189137	4.236384	4.274093	2.587303	-0.748420	-7.839756	-4.209316	4.301895	1.358140	-2.411080	-2.350040	-0.733336	0.234924	0.627562	-1.000000	-1.000000	-1.000000	-1.000000	-1.000000	-1.000000	-1.000000	57.000000	0.000000	-1.000000	-1.000000	2009320.000000	1776580421.320034
-9094.230000	-12676.275000	6797.655000	29570.130000	19320.885000	7251.255000	-15952.815000	-16399.890000	2.907909	5.084602	9.573562	15.892505	5.457942	-11.920739	-7.821561	-0.736183	1.358140	-2.411080	-2.350040	-0.733336	0.234924	0.627562	-1.000000	-1.000000	-1.000000	-1.000000	-1.000000	-1.000000	-1.000000	57.000000	0.000000	-1.000000	-1.000000	2009321.000000	1776580421.320051
-9105.885000	-12698.280000	6753.555000	29502.630000	19297.305000	7280.325000	-15928.335000	-16401.420000	-0.850508	3.175320	9.921184	22.899438	10.342217	-8.899332	-7.535274	-5.398191	2.350040	-1.709120	0.885080	-0.731688	0.233520	0.624815	-1.000000	-1.000000	-1.000000	-1.000000	-1.000000	-1.000000	-1.000000	57.000000	0.000000	-1.000000	-1.000000	2009322.000000	1776580421.323987
-9099.540000	-12702.330000	6728.445000	29415.375000	19257.705000	7271.460000	-15911.415000	-16388.280000	-5.449524	-2.636288	1.819044	14.033503	8.972220	0.729486	-1.866211	-7.845385	2.350040	-1.709120	0.885080	-0.731688	0.233520	0.624815	-1.000000	-1.000000	-1.000000	-1.000000	-1.000000	-1.000000	-1.000000	57.000000	0.000000	-1.000000	-1.000000	2009323.000000	1776580421.324020
-9100.125000	-12690.810000	6759.810000	29446.470000	19254.060000	7253.010000	-15924.510000	-16392.870000	-8.282409	-8.969822	-10.578396	-10.077146	-0.617718	10.382353	6.547392	-6.623971	2.350040	-1.709120	0.885080	-0.731688	0.233520	0.624815	-1.000000	-1.000000	-1.000000	-1.000000	-1.000000	-1.000000	-1.000000	57.000000	0.000000	-1.000000	-1.000000	2009324.000000	1776580421.327926
-9104.895000	-12696.840000	6756.750000	29460.240000	19263.960000	7278.570000	-15921.675000	-16396.740000	-7.284223	-10.606663	-16.834908	-31.768540	-12.318880	12.931796	11.482576	-2.651573	2.350040	-1.709120	0.885080	-0.731688	0.233520	0.624815	-1.000000	-1.000000	-1.000000	-1.000000	-1.000000	-1.000000	-1.000000	57.000000	0.000000	-1.000000	-1.000000	2009325.000000	1776580421.327938
-9105.615000	-12696.795000	6755.085000	29459.790000	19257.570000	7274.025000	-15926.310000	-16398.225000	-3.315073	-6.249535	-11.520088	-32.665160	-16.774619	8.330600	9.123608	1.175066	2.350040	-1.709120	0.885080	-0.731688	0.233520	0.624815	-1.000000	-1.000000	-1.000000	-1.000000	-1.000000	-1.000000	-1.000000	57.000000	0.000000	-1.000000	-1.000000	2009326.000000	1776580421.331735
-9101.880000	-12688.380000	6770.160000	29478.870000	19270.620000	7270.470000	-15930.090000	-16397.955000	1.278092	0.941918	0.774065	-12.531820	-10.745758	1.196110	1.395278	2.956551	2.350040	-1.709120	0.885080	-0.731688	0.233520	0.624815	-1.000000	-1.000000	-1.000000	-1.000000	-1.000000	-1.000000	-1.000000	57.000000	0.000000	-1.000000	-1.000000	2009327.000000	1776580421.331742
-9106.695000	-12696.840000	6762.735000	29477.025000	19276.515000	7271.820000	-15930.090000	-16400.700000	4.685291	7.012922	11.954668	14.138548	1.503115	-5.031098	-6.754480	2.832374	2.350040	-1.709120	0.885080	-0.731688	0.233520	0.624815	-1.000000	-1.000000	-1.000000	-1.000000	-1.000000	-1.000000	-1.000000	57.000000	0.000000	-1.000000	-1.000000	2009328.000000	1776580421.335984
-9107.010000	-12699.675000	6754.365000	29472.705000	19277.910000	7274.430000	-15930.090000	-16400.070000	5.896994	9.200135	16.185873	31.717475	12.901504	-8.543121	-11.055131	1.814440	2.350040	-1.709120	0.885080	-0.731688	0.233520	0.624815	-1.000000	-1.000000	-1.000000	-1.000000	-1.000000	-1.000000	-1.000000	57.000000	0.000000	-1.000000	-1.000000	2009329.000000	1776580421.335999
-9101.430000	-12695.580000	6757.380000	29476.935000	19276.470000	7271.775000	-15928.110000	-16394.265000	4.944301	7.010130	12.048642	32.510490	17.705366	-8.579805	-9.956586	0.933112	2.350040	-1.709120	0.885080	-0.731688	0.233520	0.624815	-1.000000	-1.000000	-1.000000	-1.000000	-1.000000	-1.000000	-1.000000	57.000000	0.000000	-1.000000	-1.000000	2009330.000000	1776580421.339929
-9099.720000	-12689.685000	6766.830000	29474.865000	19269.090000	7260.030000	-15932.745000	-16395.030000	3.007865	2.716839	3.318908	19.322738	14.099762	-6.131861	-4.946666	0.822638	2.350040	-1.709120	0.885080	-0.731688	0.233520	0.624815	-1.000000	-1.000000	-1.000000	-1.000000	-1.000000	-1.000000	-1.000000	57.000000	0.000000	-1.000000	-1.000000	2009331.000000	1776580421.339938
-9097.740000	-12682.395000	6771.555000	29475.855000	19264.635000	7252.470000	-15936.345000	-16397.190000	1.245304	-0.643655	-4.114248	1.150664	4.592496	-3.334078	0.770903	1.155842	1.129240	1.342880	-1.953280	-0.729673	0.232055	0.622252	-1.000000	-1.000000	-1.000000	-1.000000	-1.000000	-1.000000	-1.000000	57.000000	0.000000	-1.000000	-1.000000	2009332.000000	1776580421.343907
-9091.620000	-12681.045000	6770.565000	29479.185000	19265.715000	7256.340000	-15928.920000	-16388.775000	0.021795	-1.762778	-7.062960	-13.313801	-5.738603	-1.319724	4.628349	1.163266	1.129240	1.342880	-1.953280	-0.729673	0.232055	0.622252	-1.000000	-1.000000	-1.000000	-1.000000	-1.000000	-1.000000	-1.000000	57.000000	0.000000	-1.000000	-1.000000	2009333.000000	1776580421.343917
-9089.145000	-12676.680000	6772.185000	29478.870000	19263.195000	7256.385000	-15928.110000	-16387.830000	-0.682582	-1.425572	-6.320245	-19.443722	-12.044951	0.606595	6.155924	0.792845	1.129240	1.342880	-1.953280	-0.729673	0.232055	0.622252	-1.000000	-1.000000	-1.000000	-1.000000	-1.000000	-1.000000	-1.000000	57.000000	0.000000	-1.000000	-1.000000	2009334.000000	1776580421.348073
-9093.060000	-12684.870000	6770.430000	29479.365000	19259.460000	7249.680000	-15937.920000	-16392.780000	-1.177520	-1.218982	-4.274392	-17.427920	-12.382585	3.024330	5.789845	0.237778	1.129240	1.342880	-1.953280	-0.729673	0.232055	0.622252	-1.000000	-1.000000	-1.000000	-1.000000	-1.000000	-1.000000	-1.000000	57.000000	0.000000	-1.000000	-1.000000	2009335.000000	1776580421.348087
-9092.880000	-12697.560000	6771.825000	29492.010000	19270.125000	7242.705000	-15940.350000	-16390.530000	-1.989540	-2.383397	-2.572084	-10.409428	-7.950771	4.903891	3.594183	-0.725761	1.129240	1.342880	-1.953280	-0.729673	0.232055	0.622252	-1.000000	-1.000000	-1.000000	-1.000000	-1.000000	-1.000000	-1.000000	57.000000	0.000000	-1.000000	-1.000000	2009336.000000	1776580421.352298
-9095.985000	-12705.615000	6772.950000	29498.130000	19273.860000	7240.005000	-15938.145000	-16393.365000	-3.126379	-4.970878	-1.538059	-1.861315	-1.213902	4.948909	0.287897	-1.969505	1.129240	1.342880	-1.953280	-0.729673	0.232055	0.622252	-1.000000	-1.000000	-1.000000	-1.000000	-1.000000	-1.000000	-1.000000	57.000000	0.000000	-1.000000	-1.000000	2009337.000000	1776580421.352319
-9095.805000	-12691.530000	6779.070000	29502.495000	19281.375000	7249.995000	-15938.370000	-16396.470000	-3.895329	-6.977105	-0.659933	5.261918	5.185660	3.534299	-2.301692	-2.873508	1.129240	1.342880	-1.953280	-0.729673	0.232055	0.622252	-1.000000	-1.000000	-1.000000	-1.000000	-1.000000	-1.000000	-1.000000	57.000000	0.000000	-1.000000	-1.000000	2009338.000000	1776580421.355938
-9094.635000	-12668.175000	6779.025000	29496.645000	19280.610000	7248.780000	-15938.190000	-16396.695000	-3.542428	-5.145227	0.516450	8.542648	8.816307	2.297574	-2.888676	-3.001219	1.129240	1.342880	-1.953280	-0.729673	0.232055	0.622252	-1.000000	-1.000000	-1.000000	-1.000000	-1.000000	-1.000000	-1.000000	57.000000	0.000000	-1.000000	-1.000000	2009339.000000	1776580421.355968
-9088.425000	-12667.905000	6775.560000	29493.135000	19279.530000	7258.860000	-15928.515000	-16388.730000	-1.760792	1.426403	1.623219	6.981220	8.319170	2.093532	-1.583942	-2.048058	1.129240	1.342880	-1.953280	-0.729673	0.232055	0.622252	-1.000000	-1.000000	-1.000000	-1.000000	-1.000000	-1.000000	-1.000000	57.000000	0.000000	-1.000000	-1.000000	2009340.000000	1776580421.359914
-9092.070000	-12677.130000	6774.210000	29488.410000	19268.685000	7265.745000	-15921.180000	-16389.450000	0.934102	8.628974	1.788621	1.901424	3.999423	2.487240	0.843459	0.063040	1.129240	1.342880	-1.953280	-0.729673	0.232055	0.622252	-1.000000	-1.000000	-1.000000	-1.000000	-1.000000	-1.000000	-1.000000	57.000000	0.000000	-1.000000	-1.000000	2009341.000000	1776580421.359928
-9092.475000	-12680.865000	6772.500000	29484.900000	19265.625000	7268.310000	-15918.975000	-16386.570000	3.149757	10.670852	0.807224	-3.642473	-2.247727	2.578863	3.236799	2.506518	3.021480	3.937080	-2.990960	-0.731321	0.231445	0.623289	-1.000000	-1.000000	-1.000000	-1.000000	-1.000000	-1.000000	-1.000000	57.000000	0.000000	-1.000000	-1.000000	2009342.000000	1776580421.363751
-9094.005000	-12685.815000	6763.815000	29480.670000	19269.450000	7271.730000	-15924.060000	-16389.450000	3.644655	5.960337	-0.689150	-6.796765	-7.377509	1.505112	3.973804	3.860497	3.021480	3.937080	-2.990960	-0.731321	0.231445	0.623289	-1.000000	-1.000000	-1.000000	-1.000000	-1.000000	-1.000000	-1.000000	57.000000	0.000000	-1.000000	-1.000000	2009343.000000	1776580421.363759
-9095.355000	-12686.580000	6760.620000	29482.785000	19275.030000	7263.900000	-15926.355000	-16389.180000	2.411472	-1.923712	-2.007497	-6.346458	-8.522430	-1.061363	1.992077	3.299965	3.021480	3.937080	-2.990960	-0.731321	0.231445	0.623289	-1.000000	-1.000000	-1.000000	-1.000000	-1.000000	-1.000000	-1.000000	57.000000	0.000000	-1.000000	-1.000000	2009344.000000	1776580421.368001
-9097.065000	-12686.760000	6764.715000	29489.940000	19281.600000	7242.840000	-15931.080000	-16389.315000	0.426253	-7.919541	-2.427601	-2.707913	-5.014180	-4.923763	-1.968662	1.232943	3.021480	3.937080	-2.990960	-0.731321	0.231445	0.623289	-1.000000	-1.000000	-1.000000	-1.000000	-1.000000	-1.000000	-1.000000	57.000000	0.000000	-1.000000	-1.000000	2009345.000000	1776580421.368019
-9097.200000	-12685.275000	6768.045000	29486.925000	19274.400000	7254.180000	-15928.740000	-16391.520000	-1.203808	-9.050947	-1.184732	2.438711	0.800425	-8.937148	-5.641270	-1.116566	3.021480	3.937080	-2.990960	-0.731321	0.231445	0.623289	-1.000000	-1.000000	-1.000000	-1.000000	-1.000000	-1.000000	-1.000000	57.000000	0.000000	-1.000000	-1.000000	2009346.000000	1776580421.372115
-9100.170000	-12685.680000	6766.245000	29480.670000	19272.645000	7264.980000	-15926.715000	-16391.925000	-1.837458	-5.633589	1.485261	6.401470	5.102325	-10.086296	-6.767834	-2.667614	3.021480	3.937080	-2.990960	-0.731321	0.231445	0.623289	-1.000000	-1.000000	-1.000000	-1.000000	-1.000000	-1.000000	-1.000000	57.000000	0.000000	-1.000000	-1.000000	2009347.000000	1776580421.372130
-9096.300000	-12688.965000	6757.695000	29471.805000	19263.690000	7261.830000	-15922.665000	-16384.275000	-1.435081	-0.337377	3.814216	6.831196	5.472689	-6.086840	-4.595776	-2.815488	3.021480	3.937080	-2.990960	-0.731321	0.231445	0.623289	-1.000000	-1.000000	-1.000000	-1.000000	-1.000000	-1.000000	-1.000000	57.000000	0.000000	-1.000000	-1.000000	2009348.000000	1776580421.375937
-9098.865000	-12696.390000	6754.770000	29475.855000	19257.795000	7258.410000	-15931.125000	-16392.015000	-0.327771	3.714560	3.926831	3.760783	2.355449	0.981912	-0.516779	-1.568599	3.021480	3.937080	-2.990960	-0.731321	0.231445	0.623289	-1.000000	-1.000000	-1.000000	-1.000000	-1.000000	-1.000000	-1.000000	57.000000	0.000000	-1.000000	-1.000000	2009349.000000	1776580421.375950
-9103.005000	-12697.920000	6747.795000	29485.440000	19267.560000	7254.900000	-15934.725000	-16395.255000	0.790425	4.783246	1.686772	-0.057851	-1.581750	6.493188	2.802256	-0.009367	3.021480	3.937080	-2.990960	-0.731321	0.231445	0.623289	-1.000000	-1.000000	-1.000000	-1.000000	-1.000000	-1.000000	-1.000000	57.000000	0.000000	-1.000000	-1.000000	2009350.000000	1776580421.379853
-9110.790000	-12704.265000	6740.865000	29477.655000	19259.145000	7239.285000	-15938.145000	-16401.015000	1.019767	3.284976	-1.402118	-1.812084	-3.397567	7.490646	3.612082	0.524706	3.021480	3.937080	-2.990960	-0.731321	0.231445	0.623289	-1.000000	-1.000000	-1.000000	-1.000000	-1.000000	-1.000000	-1.000000	57.000000	0.000000	-1.000000	-1.000000	2009351.000000	1776580421.379870
-9111.735000	-12703.230000	6759.945000	29472.480000	19250.460000	7218.270000	-15945.390000	-16401.915000	0.103649	0.948970	-3.210085	-1.532803	-2.539689	3.854831	2.253766	-0.084623	5.203660	5.035800	-3.479280	-0.733580	0.233642	0.626952	-1.000000	-1.000000	-1.000000	-1.000000	-1.000000	-1.000000	-1.000000	57.000000	0.000000	-1.000000	-1.000000	2009352.000000	1776580421.383840
-9105.885000	-12699.765000	6763.725000	29472.570000	19250.235000	7223.670000	-15946.830000	-16398.990000	-0.948590	-0.472072	-1.914202	-1.048342	-0.775241	-1.956046	0.216144	-0.726998	5.203660	5.035800	-3.479280	-0.733580	0.233642	0.626952	-1.000000	-1.000000	-1.000000	-1.000000	-1.000000	-1.000000	-1.000000	57.000000	0.000000	-1.000000	-1.000000	2009353.000000	1776580421.383853
-9089.955000	-12679.965000	6778.710000	29491.830000	19265.895000	7239.240000	-15946.155000	-16393.230000	-0.459071	0.188172	2.203682	-0.761637	0.902577	-5.334734	-0.998943	-0.188060	5.203660	5.035800	-3.479280	-0.733580	0.233642	0.626952	-1.000000	-1.000000	-1.000000	-1.000000	-1.000000	-1.000000	-1.000000	57.000000	0.000000	-1.000000	-1.000000	2009354.000000	1776580421.389205
-9073.305000	-12661.695000	6791.220000	29506.095000	19280.970000	7261.155000	-15926.580000	-16380.135000	2.390287	3.146106	6.577335	0.687149	3.239455	-2.547106	-0.229600	1.876282	5.203660	5.035800	-3.479280	-0.733580	0.233642	0.626952	-1.000000	-1.000000	-1.000000	-1.000000	-1.000000	-1.000000	-1.000000	57.000000	0.000000	-1.000000	-1.000000	2009355.000000	1776580421.389218
-9081.945000	-12671.955000	6785.235000	29494.620000	19284.120000	7285.635000	-15915.285000	-16381.665000	6.000332	6.571160	8.257183	3.276290	6.268480	5.637993	2.867934	4.506688	5.203660	5.035800	-3.479280	-0.733580	0.233642	0.626952	-1.000000	-1.000000	-1.000000	-1.000000	-1.000000	-1.000000	-1.000000	57.000000	0.000000	-1.000000	-1.000000	2009356.000000	1776580421.392038
-9092.340000	-12689.280000	6757.110000	29483.550000	19281.960000	7287.660000	-15919.155000	-16386.210000	6.652308	6.490231	4.893554	4.041885	7.762201	13.932325	6.581155	5.583007	5.203660	5.035800	-3.479280	-0.733580	0.233642	0.626952	-1.000000	-1.000000	-1.000000	-1.000000	-1.000000	-1.000000	-1.000000	57.000000	0.000000	-1.000000	-1.000000	2009357.000000	1776580421.392050
-9087.075000	-12688.740000	6750.630000	29502.810000	19283.715000	7274.385000	-15922.620000	-16381.530000	2.295013	0.682201	-3.644517	1.070660	5.414572	15.721236	7.442022	3.555583	5.203660	5.035800	-3.479280	-0.733580	0.233642	0.626952	-1.000000	-1.000000	-1.000000	-1.000000	-1.000000	-1.000000	-1.000000	57.000000	0.000000	-1.000000	-1.000000	2009358.000000	1776580421.395957
-9082.710000	-12672.315000	6777.720000	29530.530000	19287.540000	7275.375000	-15924.285000	-16380.495000	-4.388722	-7.369853	-12.554771	-2.621754	-0.212280	7.961305	3.567648	-0.592470	5.203660	5.035800	-3.479280	-0.733580	0.233642	0.626952	-1.000000	-1.000000	-1.000000	-1.000000	-1.000000	-1.000000	-1.000000	57.000000	0.000000	-1.000000	-1.000000	2009359.000000	1776580421.395998
-9081.810000	-12663.540000	6787.935000	29481.525000	19268.190000	7263.495000	-15922.890000	-16377.255000	-8.684197	-11.231599	-14.477152	-3.704765	-6.387096	-5.707524	-3.091363	-4.279329	5.203660	5.035800	-3.479280	-0.733580	0.233642	0.626952	-1.000000	-1.000000	-1.000000	-1.000000	-1.000000	-1.000000	-1.000000	57.000000	0.000000	-1.000000	-1.000000	2009360.000000	1776580421.400008
-9087.030000	-12675.465000	6776.460000	29474.235000	19269.720000	7246.980000	-15929.910000	-16379.775000	-8.539185	-8.472216	-7.517278	-4.281686	-10.812268	-18.052986	-8.676681	-5.770614	5.203660	5.035800	-3.479280	-0.733580	0.233642	0.626952	-1.000000	-1.000000	-1.000000	-1.000000	-1.000000	-1.000000	-1.000000	57.000000	0.000000	-1.000000	-1.000000	2009361.000000	1776580421.400035
-9097.650000	-12688.650000	6765.975000	29484.585000	19287.270000	7264.755000	-15931.530000	-16389.720000	-5.519238	-2.879225	2.129007	-6.630301	-11.572393	-23.172598	-10.648489	-5.264097	2.655240	3.769220	-1.129240	-0.732969	0.240234	0.628416	-1.000000	-1.000000	-1.000000	-1.000000	-1.000000	-1.000000	-1.000000	57.000000	0.000000	-1.000000	-1.000000	2009362.000000	1776580421.404014
-9102.195000	-12692.430000	6762.870000	29483.730000	19287.630000	7286.310000	-15926.805000	-16393.905000	-2.332103	0.577243	7.269077	-7.713366	-7.242351	-18.070068	-8.640086	-4.091772	2.655240	3.769220	-1.129240	-0.732969	0.240234	0.628416	-1.000000	-1.000000	-1.000000	-1.000000	-1.000000	-1.000000	-1.000000	57.000000	0.000000	-1.000000	-1.000000	2009363.000000	1776580421.404051
-9091.305000	-12683.205000	6768.945000	29487.690000	19286.235000	7285.860000	-15919.650000	-16384.320000	0.019100	1.060282	6.470628	-4.298700	0.419213	-4.428248	-3.561011	-2.755670	2.655240	3.769220	-1.129240	-0.732969	0.240234	0.628416	-1.000000	-1.000000	-1.000000	-1.000000	-1.000000	-1.000000	-1.000000	57.000000	0.000000	-1.000000	-1.000000	2009364.000000	1776580421.408320
-9088.965000	-12679.155000	6772.545000	29490.480000	19281.060000	7273.215000	-15923.970000	-16385.715000	2.465008	1.255166	3.246634	2.395172	6.786058	10.157200	2.602798	-0.519594	2.655240	3.769220	-1.129240	-0.732969	0.240234	0.628416	-1.000000	-1.000000	-1.000000	-1.000000	-1.000000	-1.000000	-1.000000	57.000000	0.000000	-1.000000	-1.000000	2009365.000000	1776580421.408337
-9081.765000	-12672.270000	6777.180000	29493.360000	19274.580000	7264.845000	-15922.485000	-16380.990000	5.452923	3.107249	1.209042	8.632274	8.394573	17.050912	7.048351	2.660235	2.655240	3.769220	-1.129240	-0.732969	0.240234	0.628416	-1.000000	-1.000000	-1.000000	-1.000000	-1.000000	-1.000000	-1.000000	57.000000	0.000000	-1.000000	-1.000000	2009366.000000	1776580421.412047
-9085.185000	-12676.140000	6773.895000	29496.510000	19274.985000	7256.070000	-15924.060000	-16382.250000	7.665663	5.675784	1.124754	11.335732	5.384945	13.559204	7.899368	5.383615	2.655240	3.769220	-1.129240	-0.732969	0.240234	0.628416	-1.000000	-1.000000	-1.000000	-1.000000	-1.000000	-1.000000	-1.000000	57.000000	0.000000	-1.000000	-1.000000	2009367.000000	1776580421.412060
-9080.190000	-12667.365000	6790.140000	29521.485000	19291.860000	7260.345000	-15925.185000	-16378.245000	7.399299	6.709815	1.812494	10.078670	1.026488	4.128334	5.460748	6.202926	2.655240	3.769220	-1.129240	-0.732969	0.240234	0.628416	-1.000000	-1.000000	-1.000000	-1.000000	-1.000000	-1.000000	-1.000000	57.000000	0.000000	-1.000000	-1.000000	2009368.000000	1776580421.416039
-9080.415000	-12664.170000	6801.120000	29538.360000	19297.170000	7255.845000	-15936.030000	-16380.540000	4.405755	5.266299	2.507731	7.043101	-0.944181	-4.244147	1.347310	4.772660	2.655240	3.769220	-1.129240	-0.732969	0.240234	0.628416	-1.000000	-1.000000	-1.000000	-1.000000	-1.000000	-1.000000	-1.000000	57.000000	0.000000	-1.000000	-1.000000	2009369.000000	1776580421.416052
-9085.455000	-12675.330000	6779.385000	29505.555000	19290.375000	7257.555000	-15937.965000	-16383.420000	-0.028380	1.948214	2.542075	3.469538	0.110299	-7.276612	-2.763223	1.754248	2.655240	3.769220	-1.129240	-0.732969	0.240234	0.628416	-1.000000	-1.000000	-1.000000	-1.000000	-1.000000	-1.000000	-1.000000	57.000000	0.000000	-1.000000	-1.000000	2009370.000000	1776580421.420370
-9086.130000	-12681.045000	6762.645000	29475.135000	19279.485000	7270.470000	-15926.670000	-16379.595000	-4.263947	-2.452851	0.026340	-2.748976	1.278499	-4.866139	-5.088863	-1.617317	2.655240	3.769220	-1.129240	-0.732969	0.240234	0.628416	-1.000000	-1.000000	-1.000000	-1.000000	-1.000000	-1.000000	-1.000000	57.000000	0.000000	-1.000000	-1.000000	2009371.000000	1776580421.420382
-9091.440000	-12680.145000	6777.045000	29509.110000	19286.685000	7275.330000	-15924.690000	-16384.590000	-6.935525	-6.638587	-5.152709	-11.600090	0.093549	0.664644	-4.115821	-3.950577	-3.601360	1.907500	1.007160	-0.731260	0.245727	0.624815	-1.000000	-1.000000	-1.000000	-1.000000	-1.000000	-1.000000	-1.000000	57.000000	0.000000	-1.000000	-1.000000	2009372.000000	1776580421.423890
-9092.115000	-12691.035000	6750.810000	29454.795000	19264.365000	7277.490000	-15913.575000	-16379.235000	-7.263833	-8.655661	-9.428786	-17.667541	-2.821836	5.950387	-0.231449	-4.457755	-3.601360	1.907500	1.007160	-0.731260	0.245727	0.624815	-1.000000	-1.000000	-1.000000	-1.000000	-1.000000	-1.000000	-1.000000	57.000000	0.000000	-1.000000	-1.000000	2009373.000000	1776580421.423899
-9092.655000	-12691.620000	6748.470000	29448.810000	19255.725000	7268.355000	-15917.355000	-16379.100000	-5.296983	-7.579830	-9.908637	-17.408814	-5.715175	7.709793	4.070966	-3.210480	-3.601360	1.907500	1.007160	-0.731260	0.245727	0.624815	-1.000000	-1.000000	-1.000000	-1.000000	-1.000000	-1.000000	-1.000000	57.000000	0.000000	-1.000000	-1.000000	2009374.000000	1776580421.428103
-9099.540000	-12697.425000	6746.310000	29461.905000	19261.035000	7268.670000	-15922.980000	-16386.615000	-1.930392	-4.092623	-6.662385	-11.617309	-7.006391	4.688842	5.823743	-1.091621	-3.601360	1.907500	1.007160	-0.731260	0.245727	0.624815	-1.000000	-1.000000	-1.000000	-1.000000	-1.000000	-1.000000	-1.000000	57.000000	0.000000	-1.000000	-1.000000	2009375.000000	1776580421.428114
-9095.040000	-12695.535000	6750.450000	29468.745000	19267.110000	7267.365000	-15922.035000	-16382.475000	1.439500	0.408504	-0.799533	-1.183259	-4.915175	-1.188708	3.690923	0.567532	-3.601360	1.907500	1.007160	-0.731260	0.245727	0.624815	-1.000000	-1.000000	-1.000000	-1.000000	-1.000000	-1.000000	-1.000000	57.000000	0.000000	-1.000000	-1.000000	2009376.000000	1776580421.432318
-9097.065000	-12693.105000	6752.025000	29472.975000	19274.895000	7265.430000	-15929.955000	-16387.335000	3.843987	4.565302	5.954173	11.472873	0.839570	-6.301037	-0.908242	1.175650	-3.601360	1.907500	1.007160	-0.731260	0.245727	0.624815	-1.000000	-1.000000	-1.000000	-1.000000	-1.000000	-1.000000	-1.000000	57.000000	0.000000	-1.000000	-1.000000	2009377.000000	1776580421.432334
-9094.770000	-12683.025000	6759.945000	29480.985000	19279.035000	7264.755000	-15934.770000	-16389.405000	4.990700	7.525829	11.224031	21.070525	7.699817	-8.126491	-5.258492	1.014452	-3.601360	1.907500	1.007160	-0.731260	0.245727	0.624815	-1.000000	-1.000000	-1.000000	-1.000000	-1.000000	-1.000000	-1.000000	57.000000	0.000000	-1.000000	-1.000000	2009378.000000	1776580421.436019
-9094.095000	-12681.765000	6766.020000	29486.790000	19281.690000	7266.060000	-15934.905000	-16389.810000	4.864253	8.825236	13.172130	23.259047	11.915192	-6.386277	-7.272906	0.520245	-3.601360	1.907500	1.007160	-0.731260	0.245727	0.624815	-1.000000	-1.000000	-1.000000	-1.000000	-1.000000	-1.000000	-1.000000	57.000000	0.000000	-1.000000	-1.000000	2009379.000000	1776580421.436029
-9094.410000	-12684.915000	6760.035000	29481.120000	19276.515000	7262.550000	-15932.430000	-16389.000000	3.651818	7.853520	11.117307	17.338846	11.052308	-2.491304	-6.020570	0.197953	-3.601360	1.907500	1.007160	-0.731260	0.245727	0.624815	-1.000000	-1.000000	-1.000000	-1.000000	-1.000000	-1.000000	-1.000000	57.000000	0.000000	-1.000000	-1.000000	2009380.000000	1776580421.442857
-9092.205000	-12683.565000	6760.890000	29481.255000	19273.050000	7260.210000	-15928.920000	-16386.840000	1.753650	4.275390	5.471931	5.884912	5.318017	1.420145	-1.967649	0.439673	-3.601360	1.907500	1.007160	-0.731260	0.245727	0.624815	-1.000000	-1.000000	-1.000000	-1.000000	-1.000000	-1.000000	-1.000000	57.000000	0.000000	-1.000000	-1.000000	2009381.000000	1776580421.442874
-9093.375000	-12684.465000	6762.780000	29485.800000	19265.670000	7253.820000	-15930.765000	-16387.470000	-0.261950	-0.850080	-1.828117	-6.408138	-2.672373	3.610043	2.979188	1.132029	-8.927100	1.297100	2.502640	-0.732664	0.247558	0.618834	-1.000000	-1.000000	-1.000000	-1.000000	-1.000000	-1.000000	-1.000000	57.000000	0.000000	-1.000000	-1.000000	2009382.000000	1776580421.444074
-9089.640000	-12675.240000	6781.095000	29514.285000	19270.125000	7245.180000	-15935.355000	-16387.245000	-1.815339	-5.220771	-7.442848	-14.153893	-9.224466	3.472950	6.280420	1.684444	-8.927100	1.297100	2.502640	-0.732664	0.247558	0.618834	-1.000000	-1.000000	-1.000000	-1.000000	-1.000000	-1.000000	-1.000000	57.000000	0.000000	-1.000000	-1.000000	2009383.000000	1776580421.444087
-9091.620000	-12678.795000	6772.095000	29496.645000	19270.665000	7237.845000	-15934.995000	-16388.280000	-2.548779	-6.916150	-8.895149	-14.505468	-11.349774	1.554332	6.360435	1.536057	-8.927100	1.297100	2.502640	-0.732664	0.247558	0.618834	-1.000000	-1.000000	-1.000000	-1.000000	-1.000000	-1.000000	-1.000000	57.000000	0.000000	-1.000000	-1.000000	2009384.000000	1776580421.448029
-9097.200000	-12691.080000	6753.555000	29479.140000	19264.770000	7228.125000	-15941.160000	-16393.860000	-2.625451	-6.128108	-7.295422	-10.275795	-8.591100	-0.849000	3.657508	0.540737	-8.927100	1.297100	2.502640	-0.732664	0.247558	0.618834	-1.000000	-1.000000	-1.000000	-1.000000	-1.000000	-1.000000	-1.000000	57.000000	0.000000	-1.000000	-1.000000	2009385.000000	1776580421.448037
-9087.930000	-12690.000000	6752.655000	29489.670000	19282.950000	7256.610000	-15934.095000	-16384.005000	-2.381129	-4.642548	-5.851922	-6.529330	-2.955108	-1.792328	0.082733	-0.820829	-8.927100	1.297100	2.502640	-0.732664	0.247558	0.618834	-1.000000	-1.000000	-1.000000	-1.000000	-1.000000	-1.000000	-1.000000	57.000000	0.000000	-1.000000	-1.000000	2009386.000000	1776580421.452102
-9086.670000	-12686.355000	6763.995000	29497.185000	19296.945000	7278.750000	-15924.060000	-16380.585000	-1.554550	-3.207485	-5.158805	-4.171945	3.409410	0.941499	-2.083380	-1.413655	-8.927100	1.297100	2.502640	-0.732664	0.247558	0.618834	-1.000000	-1.000000	-1.000000	-1.000000	-1.000000	-1.000000	-1.000000	57.000000	0.000000	-1.000000	-1.000000	2009387.000000	1776580421.452110
-9097.650000	-12680.415000	6794.370000	29527.380000	19298.430000	7248.825000	-15935.355000	-16390.080000	-0.201028	-1.029034	-2.486248	-0.524520	8.693574	6.371898	-1.863322	-0.816199	-8.927100	1.297100	2.502640	-0.732664	0.247558	0.618834	-1.000000	-1.000000	-1.000000	-1.000000	-1.000000	-1.000000	-1.000000	57.000000	0.000000	-1.000000	-1.000000	2009388.000000	1776580421.456281
-9094.005000	-12684.150000	6784.560000	29519.190000	19286.685000	7232.760000	-15935.670000	-16384.140000	0.596757	2.060281	3.505147	5.324518	10.276546	8.570674	-0.727721	-0.108715	-8.927100	1.297100	2.502640	-0.732664	0.247558	0.618834	-1.000000	-1.000000	-1.000000	-1.000000	-1.000000	-1.000000	-1.000000	57.000000	0.000000	-1.000000	-1.000000	2009389.000000	1776580421.456287
-9084.510000	-12687.255000	6754.140000	29460.375000	19272.195000	7267.635000	-15915.780000	-16373.565000	0.587706	4.570333	8.756964	9.043784	6.126749	4.110369	-0.165562	0.122658	-8.927100	1.297100	2.502640	-0.732664	0.247558	0.618834	-1.000000	-1.000000	-1.000000	-1.000000	-1.000000	-1.000000	-1.000000	57.000000	0.000000	-1.000000	-1.000000	2009390.000000	1776580421.460637
-9083.880000	-12681.135000	6751.530000	29459.385000	19263.330000	7274.205000	-15920.145000	-16379.280000	0.869430	5.015196	7.577596	4.963258	-2.439087	-2.257322	0.348944	0.447290	-8.927100	1.297100	2.502640	-0.732664	0.247558	0.618834	-1.000000	-1.000000	-1.000000	-1.000000	-1.000000	-1.000000	-1.000000	57.000000	0.000000	-1.000000	-1.000000	2009391.000000	1776580421.460653
-9094.050000	-12688.560000	6751.980000	29468.430000	19267.155000	7254.810000	-15929.190000	-16389.000000	1.547982	3.503875	0.429811	-4.660644	-10.548620	-5.087039	0.883720	0.541243	-7.355320	0.534100	0.091560	-0.735411	0.243469	0.618651	-1.000000	-1.000000	-1.000000	-1.000000	-1.000000	-1.000000	-1.000000	57.000000	0.000000	-1.000000	-1.000000	2009392.000000	1776580421.464158
-9092.070000	-12685.995000	6760.260000	29472.435000	19269.090000	7247.700000	-15929.415000	-16385.085000	1.339594	1.069169	-6.202498	-10.459168	-13.011497	-5.281884	0.099088	-0.537282	-7.355320	0.534100	0.091560	-0.735411	0.243469	0.618651	-1.000000	-1.000000	-1.000000	-1.000000	-1.000000	-1.000000	-1.000000	57.000000	0.000000	-1.000000	-1.000000	2009393.000000	1776580421.464209
-9089.820000	-12684.150000	6761.520000	29476.935000	19273.680000	7251.885000	-15931.665000	-16383.375000	-0.033261	-1.143887	-7.058587	-6.999313	-8.302716	-5.599850	-2.064468	-2.119654	-7.355320	0.534100	0.091560	-0.735411	0.243469	0.618651	-1.000000	-1.000000	-1.000000	-1.000000	-1.000000	-1.000000	-1.000000	57.000000	0.000000	-1.000000	-1.000000	2009394.000000	1776580421.468066
-9095.850000	-12692.655000	6753.645000	29479.590000	19284.930000	7280.775000	-15928.380000	-16389.045000	-1.391181	-2.308004	-2.566159	2.650530	0.703567	-5.132901	-3.819890	-2.638923	-7.355320	0.534100	0.091560	-0.735411	0.243469	0.618651	-1.000000	-1.000000	-1.000000	-1.000000	-1.000000	-1.000000	-1.000000	57.000000	0.000000	-1.000000	-1.000000	2009395.000000	1776580421.468079
-9097.155000	-12693.465000	6754.365000	29481.525000	19281.465000	7278.255000	-15928.065000	-16391.070000	-1.951559	-2.555362	2.895398	11.568524	9.179250	-1.558647	-3.580156	-1.833156	-7.355320	0.534100	0.091560	-0.735411	0.243469	0.618651	-1.000000	-1.000000	-1.000000	-1.000000	-1.000000	-1.000000	-1.000000	57.000000	0.000000	-1.000000	-1.000000	2009396.000000	1776580421.472082
-9093.330000	-12686.895000	6759.495000	29481.345000	19273.725000	7263.675000	-15929.595000	-16387.740000	-1.665880	-2.183013	5.787326	14.619693	12.792459	3.584322	-1.398906	-0.438792	-7.355320	0.534100	0.091560	-0.735411	0.243469	0.618651	-1.000000	-1.000000	-1.000000	-1.000000	-1.000000	-1.000000	-1.000000	57.000000	0.000000	-1.000000	-1.000000	2009397.000000	1776580421.472099
-9090.270000	-12682.530000	6764.220000	29483.055000	19271.700000	7258.545000	-15925.365000	-16382.790000	-0.480706	-0.844617	5.776172	10.955847	9.843600	5.620564	1.350140	1.173055	-7.355320	0.534100	0.091560	-0.735411	0.243469	0.618651	-1.000000	-1.000000	-1.000000	-1.000000	-1.000000	-1.000000	-1.000000	57.000000	0.000000	-1.000000	-1.000000	2009398.000000	1776580421.476309
-9094.860000	-12687.210000	6761.880000	29483.415000	19270.260000	7256.205000	-15927.390000	-16387.560000	1.226991	1.260057	4.103507	3.335402	2.580842	2.738870	3.298520	2.722900	-7.355320	0.534100	0.091560	-0.735411	0.243469	0.618651	-1.000000	-1.000000	-1.000000	-1.000000	-1.000000	-1.000000	-1.000000	57.000000	0.000000	-1.000000	-1.000000	2009399.000000	1776580421.476330
-9090.270000	-12681.675000	6769.395000	29491.200000	19273.320000	7244.730000	-15934.635000	-16386.345000	2.419898	2.821945	1.763759	-4.148504	-4.455267	-2.330237	3.609563	3.389296	-7.355320	0.534100	0.091560	-0.735411	0.243469	0.618651	-1.000000	-1.000000	-1.000000	-1.000000	-1.000000	-1.000000	-1.000000	57.000000	0.000000	-1.000000	-1.000000	2009400.000000	1776580421.480142
-9086.265000	-12680.055000	6768.495000	29491.740000	19272.780000	7233.030000	-15937.515000	-16382.520000	2.548974	2.941517	-0.517627	-8.368635	-7.750583	-6.120246	2.042172	2.695868	-7.355320	0.534100	0.091560	-0.735411	0.243469	0.618651	-1.000000	-1.000000	-1.000000	-1.000000	-1.000000	-1.000000	-1.000000	57.000000	0.000000	-1.000000	-1.000000	2009401.000000	1776580421.480157
-9085.455000	-12677.265000	6771.420000	29490.660000	19260.630000	7219.260000	-15938.505000	-16382.160000	1.967645	1.917599	-2.211356	-8.661216	-6.944211	-7.117903	-0.520222	1.243130	-3.036740	-0.244160	0.686700	-0.737425	0.236389	0.621336	-1.000000	-1.000000	-1.000000	-1.000000	-1.000000	-1.000000	-1.000000	57.000000	0.000000	-1.000000	-1.000000	2009402.000000	1776580421.484201
-9076.140000	-12665.340000	6782.535000	29495.430000	19253.880000	7196.130000	-15947.055000	-16376.715000	1.182509	0.644147	-2.973800	-6.425647	-4.318072	-5.717528	-2.539635	-0.066484	-3.036740	-0.244160	0.686700	-0.737425	0.236389	0.621336	-1.000000	-1.000000	-1.000000	-1.000000	-1.000000	-1.000000	-1.000000	57.000000	0.000000	-1.000000	-1.000000	2009403.000000	1776580421.484225
-9074.430000	-12669.030000	6776.055000	29494.620000	19257.210000	7197.435000	-15949.800000	-16375.455000	0.540580	-0.140512	-2.663344	-3.364203	-1.925184	-2.943074	-3.183431	-0.761608	-3.036740	-0.244160	0.686700	-0.737425	0.236389	0.621336	-1.000000	-1.000000	-1.000000	-1.000000	-1.000000	-1.000000	-1.000000	57.000000	0.000000	-1.000000	-1.000000	2009404.000000	1776580421.490851
-9082.215000	-12684.420000	6753.645000	29483.595000	19258.245000	7208.370000	-15945.615000	-16377.750000	-0.154956	-0.938936	-2.373294	-0.863348	0.181704	1.230975	-2.362137	-0.992558	-3.036740	-0.244160	0.686700	-0.737425	0.236389	0.621336	-1.000000	-1.000000	-1.000000	-1.000000	-1.000000	-1.000000	-1.000000	57.000000	0.000000	-1.000000	-1.000000	2009405.000000	1776580421.490867
-9099.990000	-12699.180000	6743.070000	29477.700000	19266.570000	7255.080000	-15937.920000	-16391.520000	-1.882863	-3.134820	-3.820540	-0.019645	2.667380	7.913667	-0.063834	-1.549389	-3.036740	-0.244160	0.686700	-0.737425	0.236389	0.621336	-1.000000	-1.000000	-1.000000	-1.000000	-1.000000	-1.000000	-1.000000	57.000000	0.000000	-1.000000	-1.000000	2009406.000000	1776580421.492335
-9117.675000	-12709.665000	6741.225000	29454.570000	19261.350000	7289.955000	-15925.455000	-16402.815000	-5.211550	-6.603743	-6.366223	-1.045627	5.163330	17.023257	3.358399	-3.181577	-3.036740	-0.244160	0.686700	-0.737425	0.236389	0.621336	-1.000000	-1.000000	-1.000000	-1.000000	-1.000000	-1.000000	-1.000000	57.000000	0.000000	-1.000000	-1.000000	2009407.000000	1776580421.492353
-9119.790000	-12716.325000	6731.010000	29436.660000	19254.645000	7286.220000	-15921.135000	-16400.430000	-8.679267	-8.953641	-7.039085	-3.240804	6.071901	24.342180	6.626895	-5.215643	-3.036740	-0.244160	0.686700	-0.737425	0.236389	0.621336	-1.000000	-1.000000	-1.000000	-1.000000	-1.000000	-1.000000	-1.000000	57.000000	0.000000	-1.000000	-1.000000	2009408.000000	1776580421.496180
-9121.230000	-12720.195000	6731.910000	29454.165000	19263.555000	7282.755000	-15931.215000	-16406.820000	-9.158712	-7.681441	-4.055133	-4.619426	4.343814	22.604805	7.560788	-5.565281	-3.036740	-0.244160	0.686700	-0.737425	0.236389	0.621336	-1.000000	-1.000000	-1.000000	-1.000000	-1.000000	-1.000000	-1.000000	57.000000	0.000000	-1.000000	-1.000000	2009409.000000	1776580421.496193
-9105.120000	-12700.440000	6751.710000	29476.800000	19271.880000	7263.720000	-15934.365000	-16396.290000	-4.497444	-2.077439	2.025129	-1.827646	1.319956	8.474828	4.427280	-2.855451	-3.036740	-0.244160	0.686700	-0.737425	0.236389	0.621336	-1.000000	-1.000000	-1.000000	-1.000000	-1.000000	-1.000000	-1.000000	57.000000	0.000000	-1.000000	-1.000000	2009410.000000	1776580421.500300
-9107.145000	-12701.790000	6750.585000	29476.710000	19270.620000	7252.515000	-15937.965000	-16395.210000	4.148415	6.337815	9.273513	6.045160	-0.785099	-12.910266	-1.867398	2.244992	-3.036740	-0.244160	0.686700	-0.737425	0.236389	0.621336	-1.000000	-1.000000	-1.000000	-1.000000	-1.000000	-1.000000	-1.000000	57.000000	0.000000	-1.000000	-1.000000	2009411.000000	1776580421.500318
-9113.895000	-12706.695000	6745.410000	29469.555000	19266.660000	7253.325000	-15943.455000	-16404.390000	12.200620	13.588731	14.226396	14.129463	-1.634460	-30.976734	-7.943084	7.173694	1.403920	-3.662400	-0.518840	-0.739012	0.232849	0.623228	-1.000000	-1.000000	-1.000000	-1.000000	-1.000000	-1.000000	-1.000000	57.000000	0.000000	-1.000000	-1.000000	2009412.000000	1776580421.504334
-9111.060000	-12701.745000	6747.075000	29467.215000	19264.320000	7258.860000	-15945.075000	-16408.080000	14.793180	15.356376	13.498259	15.822221	-2.375737	-36.369514	-10.661331	8.799997	1.403920	-3.662400	-0.518840	-0.739012	0.232849	0.623228	-1.000000	-1.000000	-1.000000	-1.000000	-1.000000	-1.000000	-1.000000	57.000000	0.000000	-1.000000	-1.000000	2009413.000000	1776580421.504372
-9098.100000	-12691.530000	6756.705000	29475.765000	19269.585000	7267.545000	-15934.995000	-16398.360000	11.154604	11.022935	7.354287	9.609767	-3.370196	-26.623769	-8.782637	6.337904	1.403920	-3.662400	-0.518840	-0.739012	0.232849	0.623228	-1.000000	-1.000000	-1.000000	-1.000000	-1.000000	-1.000000	-1.000000	57.000000	0.000000	-1.000000	-1.000000	2009414.000000	1776580421.508093
-9095.220000	-12694.320000	6755.085000	29472.705000	19262.430000	7259.580000	-15933.465000	-16393.365000	4.676166	3.735441	-0.435812	-0.169940	-3.821533	-7.499380	-3.062049	2.281104	1.403920	-3.662400	-0.518840	-0.739012	0.232849	0.623228	-1.000000	-1.000000	-1.000000	-1.000000	-1.000000	-1.000000	-1.000000	57.000000	0.000000	-1.000000	-1.000000	2009415.000000	1776580421.508107
-9093.645000	-12695.220000	6755.580000	29472.840000	19260.225000	7252.785000	-15935.355000	-16386.390000	-1.172033	-3.239845	-6.360365	-8.200904	-3.306526	10.858978	3.737054	-0.493159	1.403920	-3.662400	-0.518840	-0.739012	0.232849	0.623228	-1.000000	-1.000000	-1.000000	-1.000000	-1.000000	-1.000000	-1.000000	57.000000	0.000000	-1.000000	-1.000000	2009416.000000	1776580421.512050
-9092.250000	-12687.570000	6763.725000	29488.545000	19272.105000	7244.910000	-15935.895000	-16381.575000	-5.144507	-8.059772	-9.000002	-11.508517	-1.935644	20.406611	8.076778	-1.238666	1.403920	-3.662400	-0.518840	-0.739012	0.232849	0.623228	-1.000000	-1.000000	-1.000000	-1.000000	-1.000000	-1.000000	-1.000000	57.000000	0.000000	-1.000000	-1.000000	2009417.000000	1776580421.512059
-9086.580000	-12673.440000	6775.200000	29499.795000	19273.590000	7237.305000	-15938.865000	-16380.900000	-7.189455	-9.441753	-8.145314	-9.398223	0.410034	19.429975	8.108599	-1.028396	1.403920	-3.662400	-0.518840	-0.739012	0.232849	0.623228	-1.000000	-1.000000	-1.000000	-1.000000	-1.000000	-1.000000	-1.000000	57.000000	0.000000	-1.000000	-1.000000	2009418.000000	1776580421.516039
-9086.490000	-12675.195000	6776.910000	29505.330000	19264.410000	7232.265000	-15944.490000	-16385.130000	-7.356911	-7.145255	-4.583953	-3.551171	2.992490	11.687951	4.551141	-1.358419	1.403920	-3.662400	-0.518840	-0.739012	0.232849	0.623228	-1.000000	-1.000000	-1.000000	-1.000000	-1.000000	-1.000000	-1.000000	57.000000	0.000000	-1.000000	-1.000000	2009419.000000	1776580421.516052
-9076.860000	-12659.490000	6802.380000	29555.955000	19287.945000	7245.360000	-15941.340000	-16382.745000	-5.859448	-2.883954	-0.073746	3.135932	4.337575	3.073983	-0.273656	-2.836480	1.403920	-3.662400	-0.518840	-0.739012	0.232849	0.623228	-1.000000	-1.000000	-1.000000	-1.000000	-1.000000	-1.000000	-1.000000	57.000000	0.000000	-1.000000	-1.000000	2009420.000000	1776580421.520176
-9071.190000	-12656.880000	6803.505000	29540.385000	19297.125000	7259.130000	-15934.680000	-16377.840000	-3.138728	1.019473	3.721517	8.355712	4.562906	-1.469061	-3.623526	-4.483301	1.403920	-3.662400	-0.518840	-0.739012	0.232849	0.623228	-1.000000	-1.000000	-1.000000	-1.000000	-1.000000	-1.000000	-1.000000	57.000000	0.000000	-1.000000	-1.000000	2009421.000000	1776580421.520186
-9083.925000	-12685.005000	6764.895000	29484.945000	19296.810000	7278.660000	-15925.905000	-16379.820000	-0.295595	2.464562	4.539945	8.186011	4.451905	-0.397777	-3.721390	-4.763639	1.968540	-4.608520	-0.244160	-0.737059	0.231445	0.621031	-1.000000	-1.000000	-1.000000	-1.000000	-1.000000	-1.000000	-1.000000	57.000000	0.000000	-1.000000	-1.000000	2009422.000000	1776580421.524198
-9085.500000	-12700.710000	6726.015000	29419.695000	19264.680000	7285.095000	-15914.385000	-16373.430000	0.899456	-0.317673	-0.605034	-2.117461	2.639535	3.772871	-0.851023	-3.241080	1.968540	-4.608520	-0.244160	-0.737059	0.231445	0.621031	-1.000000	-1.000000	-1.000000	-1.000000	-1.000000	-1.000000	-1.000000	57.000000	0.000000	-1.000000	-1.000000	2009423.000000	1776580421.524209
-9087.795000	-12699.630000	6720.705000	29427.075000	19245.285000	7263.720000	-15918.165000	-16375.680000	-0.065197	-6.033497	-10.639561	-19.440885	-2.974986	6.007659	2.760236	-0.706655	1.968540	-4.608520	-0.244160	-0.737059	0.231445	0.621031	-1.000000	-1.000000	-1.000000	-1.000000	-1.000000	-1.000000	-1.000000	57.000000	0.000000	-1.000000	-1.000000	2009424.000000	1776580421.528185
-9084.780000	-12683.340000	6752.160000	29461.410000	19249.560000	7259.085000	-15925.095000	-16376.580000	-1.520516	-9.346824	-17.428666	-29.812976	-10.676203	2.283901	4.107248	1.540828	1.968540	-4.608520	-0.244160	-0.737059	0.231445	0.621031	-1.000000	-1.000000	-1.000000	-1.000000	-1.000000	-1.000000	-1.000000	57.000000	0.000000	-1.000000	-1.000000	2009425.000000	1776580421.528200
-9085.005000	-12690.090000	6751.170000	29473.065000	19263.105000	7261.965000	-15923.880000	-16375.950000	-1.524308	-5.999638	-12.679108	-20.878995	-14.322235	-6.151066	1.708924	2.485118	1.968540	-4.608520	-0.244160	-0.737059	0.231445	0.621031	-1.000000	-1.000000	-1.000000	-1.000000	-1.000000	-1.000000	-1.000000	57.000000	0.000000	-1.000000	-1.000000	2009426.000000	1776580421.532086
-9085.365000	-12698.145000	6720.615000	29445.795000	19265.985000	7264.530000	-15921.315000	-16373.700000	0.247153	2.082177	1.683226	3.490531	-9.396276	-13.269955	-2.707167	2.158307	1.968540	-4.608520	-0.244160	-0.737059	0.231445	0.621031	-1.000000	-1.000000	-1.000000	-1.000000	-1.000000	-1.000000	-1.000000	57.000000	0.000000	-1.000000	-1.000000	2009427.000000	1776580421.532093
-9087.435000	-12690.675000	6735.600000	29456.010000	19273.320000	7269.705000	-15927.615000	-16378.965000	2.533522	9.144821	15.019574	26.407691	1.839027	-14.031135	-5.953707	1.263831	1.968540	-4.608520	-0.244160	-0.737059	0.231445	0.621031	-1.000000	-1.000000	-1.000000	-1.000000	-1.000000	-1.000000	-1.000000	57.000000	0.000000	-1.000000	-1.000000	2009428.000000	1776580421.536151
-9090.405000	-12686.040000	6759.630000	29464.875000	19269.945000	7261.875000	-15934.365000	-16383.015000	3.793484	11.762605	20.388221	34.951256	12.470163	-8.435486	-6.516096	0.189884	1.968540	-4.608520	-0.244160	-0.737059	0.231445	0.621031	-1.000000	-1.000000	-1.000000	-1.000000	-1.000000	-1.000000	-1.000000	57.000000	0.000000	-1.000000	-1.000000	2009429.000000	1776580421.536186
-9094.590000	-12691.395000	6752.970000	29465.235000	19263.735000	7254.630000	-15937.695000	-16386.030000	3.319348	10.140955	18.775762	28.561942	16.463247	-0.676502	-4.965796	-0.939340	1.968540	-4.608520	-0.244160	-0.737059	0.231445	0.621031	-1.000000	-1.000000	-1.000000	-1.000000	-1.000000	-1.000000	-1.000000	57.000000	0.000000	-1.000000	-1.000000	2009430.000000	1776580421.540339
-9094.635000	-12696.120000	6743.205000	29460.915000	19258.560000	7240.230000	-15936.660000	-16383.780000	1.550860	5.588825	12.516962	13.696029	12.225120	4.571867	-2.266997	-1.628743	1.968540	-4.608520	-0.244160	-0.737059	0.231445	0.621031	-1.000000	-1.000000	-1.000000	-1.000000	-1.000000	-1.000000	-1.000000	57.000000	0.000000	-1.000000	-1.000000	2009431.000000	1776580421.540371
-9086.715000	-12683.565000	6755.130000	29470.185000	19256.355000	7236.765000	-15936.120000	-16378.830000	-0.152763	-0.042969	3.045066	-2.366802	2.940775	5.464347	1.001401	-1.128482	3.311420	0.213640	1.831200	-0.731504	0.233398	0.619078	-1.000000	-1.000000	-1.000000	-1.000000	-1.000000	-1.000000	-1.000000	57.000000	0.000000	-1.000000	-1.000000	2009432.000000	1776580421.544278
-9085.140000	-12682.395000	6757.155000	29475.630000	19257.660000	7243.785000	-15934.005000	-16377.345000	-0.469865	-4.125065	-6.352258	-13.711860	-5.937142	3.769028	4.183347	0.698886	3.311420	0.213640	1.831200	-0.731504	0.233398	0.619078	-1.000000	-1.000000	-1.000000	-1.000000	-1.000000	-1.000000	-1.000000	57.000000	0.000000	-1.000000	-1.000000	2009433.000000	1776580421.544310
-9086.355000	-12704.130000	6734.475000	29461.185000	19232.595000	7216.605000	-15934.995000	-16373.115000	0.507227	-5.587979	-12.320603	-17.805346	-10.651860	2.215361	6.302547	2.900734	3.311420	0.213640	1.831200	-0.731504	0.233398	0.619078	-1.000000	-1.000000	-1.000000	-1.000000	-1.000000	-1.000000	-1.000000	57.000000	0.000000	-1.000000	-1.000000	2009434.000000	1776580421.548269
-9090.990000	-12731.355000	6726.690000	29457.945000	19199.745000	7187.130000	-15942.420000	-16375.095000	1.273105	-6.442234	-14.590619	-16.333256	-11.618226	0.807083	6.371664	4.068960	3.311420	0.213640	1.831200	-0.731504	0.233398	0.619078	-1.000000	-1.000000	-1.000000	-1.000000	-1.000000	-1.000000	-1.000000	57.000000	0.000000	-1.000000	-1.000000	2009435.000000	1776580421.548288
-9089.775000	-12731.040000	6754.410000	29488.230000	19226.475000	7193.430000	-15943.680000	-16374.015000	0.645479	-8.329526	-13.460648	-11.679199	-10.433513	-1.544416	4.064700	3.351036	3.311420	0.213640	1.831200	-0.731504	0.233398	0.619078	-1.000000	-1.000000	-1.000000	-1.000000	-1.000000	-1.000000	-1.000000	57.000000	0.000000	-1.000000	-1.000000	2009436.000000	1776580421.552220
-9084.780000	-12660.615000	6802.380000	29533.005000	19292.895000	7243.110000	-15949.260000	-16388.100000	-0.886597	-7.857821	-6.933552	-3.635657	-4.680434	-2.048967	0.353266	0.787907	3.311420	0.213640	1.831200	-0.731504	0.233398	0.619078	-1.000000	-1.000000	-1.000000	-1.000000	-1.000000	-1.000000	-1.000000	57.000000	0.000000	-1.000000	-1.000000	2009437.000000	1776580421.552236
-9083.700000	-12646.080000	6782.445000	29498.355000	19329.840000	7309.710000	-15929.370000	-16387.155000	-1.855306	0.351639	4.753148	6.638706	8.757861	4.557731	-2.595154	-2.776241	3.311420	0.213640	1.831200	-0.731504	0.233398	0.619078	-1.000000	-1.000000	-1.000000	-1.000000	-1.000000	-1.000000	-1.000000	57.000000	0.000000	-1.000000	-1.000000	2009438.000000	1776580421.556171
-9083.115000	-12671.730000	6746.355000	29447.415000	19291.770000	7296.390000	-15919.155000	-16375.140000	-1.576267	13.326439	13.855805	11.710042	23.912556	17.252771	-2.546537	-5.345670	3.311420	0.213640	1.831200	-0.731504	0.233398	0.619078	-1.000000	-1.000000	-1.000000	-1.000000	-1.000000	-1.000000	-1.000000	57.000000	0.000000	-1.000000	-1.000000	2009439.000000	1776580421.556183
-9087.165000	-12677.670000	6756.885000	29466.225000	19280.970000	7267.185000	-15927.660000	-16378.785000	-0.706562	19.492698	12.013387	5.421723	27.165990	24.631694	0.308322	-4.794258	3.311420	0.213640	1.831200	-0.731504	0.233398	0.619078	-1.000000	-1.000000	-1.000000	-1.000000	-1.000000	-1.000000	-1.000000	57.000000	0.000000	-1.000000	-1.000000	2009440.000000	1776580421.560241
-9081.135000	-12673.440000	6761.655000	29474.865000	19278.495000	7261.560000	-15925.770000	-16373.745000	-0.143997	12.475846	1.362609	-6.434371	12.610219	15.810489	2.709510	-1.393666	3.311420	0.213640	1.831200	-0.731504	0.233398	0.619078	-1.000000	-1.000000	-1.000000	-1.000000	-1.000000	-1.000000	-1.000000	57.000000	0.000000	-1.000000	-1.000000	2009441.000000	1776580421.560251
-9083.250000	-12677.715000	6756.480000	29471.895000	19270.440000	7256.025000	-15929.775000	-16374.600000	0.005391	-2.184703	-8.490678	-12.397180	-10.619588	-6.177353	1.976559	2.387466	3.647140	2.823100	1.068200	-0.727659	0.232787	0.625304	-1.000000	-1.000000	-1.000000	-1.000000	-1.000000	-1.000000	-1.000000	57.000000	0.000000	-1.000000	-1.000000	2009442.000000	1776580421.564274
-9083.205000	-12679.560000	6755.220000	29474.955000	19275.615000	7271.010000	-15927.930000	-16373.970000	0.022896	-14.624767	-11.428093	-8.481470	-27.990778	-26.954354	-1.297561	4.343236	3.647140	2.823100	1.068200	-0.727659	0.232787	0.625304	-1.000000	-1.000000	-1.000000	-1.000000	-1.000000	-1.000000	-1.000000	57.000000	0.000000	-1.000000	-1.000000	2009443.000000	1776580421.564284
-9075.015000	-12670.155000	6768.585000	29490.885000	19290.420000	7271.280000	-15929.325000	-16368.390000	0.100413	-18.712977	-7.650720	1.065376	-30.646142	-33.924759	-4.576079	3.901970	3.647140	2.823100	1.068200	-0.727659	0.232787	0.625304	-1.000000	-1.000000	-1.000000	-1.000000	-1.000000	-1.000000	-1.000000	57.000000	0.000000	-1.000000	-1.000000	2009444.000000	1776580421.568259
-9075.870000	-12669.030000	6774.300000	29498.535000	19295.280000	7263.630000	-15936.255000	-16370.325000	0.480659	-13.891712	-0.233645	10.318039	-18.946254	-25.210527	-5.900629	1.972583	3.647140	2.823100	1.068200	-0.727659	0.232787	0.625304	-1.000000	-1.000000	-1.000000	-1.000000	-1.000000	-1.000000	-1.000000	57.000000	0.000000	-1.000000	-1.000000	2009445.000000	1776580421.568280
-9079.695000	-12674.970000	6766.515000	29490.705000	19286.280000	7257.510000	-15936.885000	-16372.395000	0.905266	-4.172590	6.775453	14.798320	-0.964186	-8.603701	-5.050180	-0.302967	3.647140	2.823100	1.068200	-0.727659	0.232787	0.625304	-1.000000	-1.000000	-1.000000	-1.000000	-1.000000	-1.000000	-1.000000	57.000000	0.000000	-1.000000	-1.000000	2009446.000000	1776580421.572351
-9090.675000	-12685.770000	6752.565000	29474.910000	19275.885000	7263.135000	-15934.140000	-16381.305000	0.414705	4.453878	9.309914	12.003980	12.893488	6.460770	-2.692126	-2.421752	3.647140	2.823100	1.068200	-0.727659	0.232787	0.625304	-1.000000	-1.000000	-1.000000	-1.000000	-1.000000	-1.000000	-1.000000	57.000000	0.000000	-1.000000	-1.000000	2009447.000000	1776580421.572367
-9093.690000	-12687.165000	6750.900000	29468.610000	19267.650000	7269.525000	-15929.595000	-16385.850000	-1.409657	8.009453	5.930010	2.841764	16.644039	15.222579	0.565230	-4.173437	3.647140	2.823100	1.068200	-0.727659	0.232787	0.625304	-1.000000	-1.000000	-1.000000	-1.000000	-1.000000	-1.000000	-1.000000	57.000000	0.000000	-1.000000	-1.000000	2009448.000000	1776580421.576355
-9092.430000	-12688.020000	6751.710000	29469.600000	19265.760000	7257.330000	-15931.575000	-16384.545000	-3.386391	6.804486	-0.477390	-7.718820	11.590811	17.302363	3.835319	-4.940815	3.647140	2.823100	1.068200	-0.727659	0.232787	0.625304	-1.000000	-1.000000	-1.000000	-1.000000	-1.000000	-1.000000	-1.000000	57.000000	0.000000	-1.000000	-1.000000	2009449.000000	1776580421.576371
-9089.280000	-12688.290000	6754.095000	29474.640000	19267.470000	7247.520000	-15933.690000	-16380.990000	-3.553523	3.854518	-5.129685	-13.524079	3.618184	13.666900	5.701935	-3.773486	3.647140	2.823100	1.068200	-0.727659	0.232787	0.625304	-1.000000	-1.000000	-1.000000	-1.000000	-1.000000	-1.000000	-1.000000	57.000000	0.000000	-1.000000	-1.000000	2009450.000000	1776580421.580288
-9088.515000	-12688.560000	6759.765000	29484.675000	19276.470000	7252.650000	-15934.230000	-16380.720000	-1.190903	1.725933	-5.303332	-11.541617	-1.620313	6.374438	5.179618	-0.560805	3.647140	2.823100	1.068200	-0.727659	0.232787	0.625304	-1.000000	-1.000000	-1.000000	-1.000000	-1.000000	-1.000000	-1.000000	57.000000	0.000000	-1.000000	-1.000000	2009451.000000	1776580421.580319
-9081.315000	-12683.745000	6765.345000	29492.145000	19283.085000	7256.835000	-15926.355000	-16369.560000	2.493685	1.194864	-1.646753	-3.521932	-1.871145	-0.689334	2.859723	3.447442	5.646200	5.005280	-2.823100	-0.727415	0.235046	0.632811	-1.000000	-1.000000	-1.000000	-1.000000	-1.000000	-1.000000	-1.000000	57.000000	0.000000	-1.000000	-1.000000	2009452.000000	1776580421.584528
-9070.560000	-12671.730000	6763.860000	29486.700000	19274.940000	7250.895000	-15924.870000	-16357.815000	5.707795	1.952912	3.002249	5.460138	1.088050	-4.259074	0.483605	6.752902	5.646200	5.005280	-2.823100	-0.727415	0.235046	0.632811	-1.000000	-1.000000	-1.000000	-1.000000	-1.000000	-1.000000	-1.000000	57.000000	0.000000	-1.000000	-1.000000	2009453.000000	1776580421.584545
-9072.855000	-12672.720000	6763.230000	29485.845000	19273.995000	7243.290000	-15924.780000	-16358.670000	7.124566	3.202900	5.556218	10.170199	3.353551	-4.406342	-0.838801	8.209566	5.646200	5.005280	-2.823100	-0.727415	0.235046	0.632811	-1.000000	-1.000000	-1.000000	-1.000000	-1.000000	-1.000000	-1.000000	57.000000	0.000000	-1.000000	-1.000000	2009454.000000	1776580421.588439
-9079.245000	-12678.795000	6757.830000	29476.845000	19263.060000	7230.420000	-15933.600000	-16367.220000	5.700058	3.414840	4.536467	8.493804	2.358988	-3.478126	-1.528170	6.588074	5.646200	5.005280	-2.823100	-0.727415	0.235046	0.632811	-1.000000	-1.000000	-1.000000	-1.000000	-1.000000	-1.000000	-1.000000	57.000000	0.000000	-1.000000	-1.000000	2009455.000000	1776580421.588453
-9071.370000	-12666.465000	6776.595000	29508.975000	19292.580000	7250.760000	-15936.570000	-16365.330000	1.466450	1.483816	1.133436	2.919197	-0.813798	-2.746520	-2.526372	1.577279	5.646200	5.005280	-2.823100	-0.727415	0.235046	0.632811	-1.000000	-1.000000	-1.000000	-1.000000	-1.000000	-1.000000	-1.000000	57.000000	0.000000	-1.000000	-1.000000	2009456.000000	1776580421.593494
-9080.505000	-12674.565000	6775.920000	29521.080000	19303.920000	7259.085000	-15933.915000	-16370.505000	-3.583620	-1.687935	-1.725287	-1.280163	-2.410694	-1.003745	-3.698323	-4.758703	5.646200	5.005280	-2.823100	-0.727415	0.235046	0.632811	-1.000000	-1.000000	-1.000000	-1.000000	-1.000000	-1.000000	-1.000000	57.000000	0.000000	-1.000000	-1.000000	2009457.000000	1776580421.593516
-9088.785000	-12693.015000	6739.155000	29446.785000	19252.530000	7260.885000	-15915.645000	-16368.255000	-7.249480	-4.784608	-3.097732	-2.650351	-1.481074	2.546904	-3.468243	-9.163664	5.646200	5.005280	-2.823100	-0.727415	0.235046	0.632811	-1.000000	-1.000000	-1.000000	-1.000000	-1.000000	-1.000000	-1.000000	57.000000	0.000000	-1.000000	-1.000000	2009458.000000	1776580421.596198
-9093.105000	-12697.290000	6732.855000	29437.560000	19242.585000	7257.960000	-15922.215000	-16372.080000	-8.664421	-7.476595	-5.094986	-5.874729	-2.250980	5.733710	-0.761319	-9.641154	5.646200	5.005280	-2.823100	-0.727415	0.235046	0.632811	-1.000000	-1.000000	-1.000000	-1.000000	-1.000000	-1.000000	-1.000000	57.000000	0.000000	-1.000000	-1.000000	2009459.000000	1776580421.596205
-9096.930000	-12699.720000	6734.745000	29449.305000	19255.230000	7262.325000	-15926.400000	-16377.390000	-7.621573	-8.780956	-7.904286	-11.934859	-6.376489	5.780853	2.720043	-6.581049	5.646200	5.005280	-2.823100	-0.727415	0.235046	0.632811	-1.000000	-1.000000	-1.000000	-1.000000	-1.000000	-1.000000	-1.000000	57.000000	0.000000	-1.000000	-1.000000	2009460.000000	1776580421.600443
-9097.740000	-12700.530000	6737.355000	29459.160000	19264.860000	7261.875000	-15926.580000	-16376.850000	-4.281398	-7.014203	-8.036638	-13.723796	-8.643748	2.505354	4.012987	-2.014048	5.646200	5.005280	-2.823100	-0.727415	0.235046	0.632811	-1.000000	-1.000000	-1.000000	-1.000000	-1.000000	-1.000000	-1.000000	57.000000	0.000000	-1.000000	-1.000000	2009461.000000	1776580421.600458
-9090.450000	-12691.440000	6745.905000	29467.170000	19269.630000	7263.855000	-15926.220000	-16373.880000	0.562586	-1.875922	-3.158120	-6.129560	-4.483601	-1.966904	2.407920	2.225422	3.570840	4.669560	-2.884140	-0.726805	0.239562	0.633238	-1.000000	-1.000000	-1.000000	-1.000000	-1.000000	-1.000000	-1.000000	57.000000	0.000000	-1.000000	-1.000000	2009462.000000	1776580421.604368
-9079.965000	-12678.300000	6757.560000	29477.160000	19276.245000	7269.795000	-15925.005000	-16369.830000	5.757317	5.104477	5.060411	7.322452	4.141102	-5.194012	-0.317818	5.336910	3.570840	4.669560	-2.884140	-0.726805	0.239562	0.633238	-1.000000	-1.000000	-1.000000	-1.000000	-1.000000	-1.000000	-1.000000	57.000000	0.000000	-1.000000	-1.000000	2009463.000000	1776580421.604381
-9076.680000	-12678.120000	6755.805000	29472.795000	19270.530000	7262.910000	-15922.665000	-16365.330000	9.834095	11.233635	12.408587	18.453899	11.409367	-5.938978	-2.120841	7.021323	3.570840	4.669560	-2.884140	-0.726805	0.239562	0.633238	-1.000000	-1.000000	-1.000000	-1.000000	-1.000000	-1.000000	-1.000000	57.000000	0.000000	-1.000000	-1.000000	2009464.000000	1776580421.608248
-9078.885000	-12681.315000	6751.620000	29468.250000	19265.310000	7254.360000	-15921.765000	-16365.690000	10.933283	13.349897	14.642185	20.783307	12.653778	-4.909459	-2.157765	6.984902	3.570840	4.669560	-2.884140	-0.726805	0.239562	0.633238	-1.000000	-1.000000	-1.000000	-1.000000	-1.000000	-1.000000	-1.000000	57.000000	0.000000	-1.000000	-1.000000	2009465.000000	1776580421.608259
-9081.090000	-12681.180000	6754.995000	29476.755000	19270.485000	7250.490000	-15923.520000	-16366.680000	7.859127	9.794252	10.265436	13.583813	7.479239	-3.662975	-0.969233	5.012755	3.570840	4.669560	-2.884140	-0.726805	0.239562	0.633238	-1.000000	-1.000000	-1.000000	-1.000000	-1.000000	-1.000000	-1.000000	57.000000	0.000000	-1.000000	-1.000000	2009466.000000	1776580421.612636
-9077.175000	-12674.880000	6764.895000	29491.920000	19275.705000	7245.270000	-15930.585000	-16365.375000	1.644904	2.341083	2.041831	2.110041	-0.244608	-2.707531	0.136985	1.516523	3.570840	4.669560	-2.884140	-0.726805	0.239562	0.633238	-1.000000	-1.000000	-1.000000	-1.000000	-1.000000	-1.000000	-1.000000	57.000000	0.000000	-1.000000	-1.000000	2009467.000000	1776580421.612645
-9077.220000	-12672.810000	6769.305000	29495.250000	19280.340000	7258.455000	-15932.925000	-16367.670000	-4.669297	-4.903852	-5.181258	-6.903193	-5.796733	-1.209333	0.158726	-2.247822	3.570840	4.669560	-2.884140	-0.726805	0.239562	0.633238	-1.000000	-1.000000	-1.000000	-1.000000	-1.000000	-1.000000	-1.000000	57.000000	0.000000	-1.000000	-1.000000	2009468.000000	1776580421.616362
-9082.890000	-12679.290000	6762.645000	29477.610000	19271.610000	7264.305000	-15933.375000	-16372.170000	-8.397702	-8.889818	-8.575743	-10.816507	-7.313518	1.843342	-0.672931	-4.975929	3.570840	4.669560	-2.884140	-0.726805	0.239562	0.633238	-1.000000	-1.000000	-1.000000	-1.000000	-1.000000	-1.000000	-1.000000	57.000000	0.000000	-1.000000	-1.000000	2009469.000000	1776580421.616386
-9078.930000	-12674.205000	6768.225000	29481.120000	19274.490000	7267.500000	-15932.205000	-16368.930000	-8.804530	-9.245380	-8.591437	-11.418111	-6.102386	5.915340	-1.173659	-5.956032	3.570840	4.669560	-2.884140	-0.726805	0.239562	0.633238	-1.000000	-1.000000	-1.000000	-1.000000	-1.000000	-1.000000	-1.000000	57.000000	0.000000	-1.000000	-1.000000	2009470.000000	1776580421.620821
-9076.590000	-12675.015000	6764.310000	29477.745000	19269.045000	7263.945000	-15927.660000	-16364.655000	-6.423929	-6.973684	-6.786978	-10.499617	-4.117096	8.551397	-0.435818	-4.862230	3.570840	4.669560	-2.884140	-0.726805	0.239562	0.633238	-1.000000	-1.000000	-1.000000	-1.000000	-1.000000	-1.000000	-1.000000	57.000000	0.000000	-1.000000	-1.000000	2009471.000000	1776580421.620831
-9073.440000	-12675.015000	6756.300000	29470.230000	19258.740000	7250.760000	-15926.445000	-16360.875000	-2.320545	-3.338681	-4.435365	-8.132244	-2.480312	7.311347	1.385976	-1.913464	2.823100	1.968540	-0.976640	-0.727232	0.246276	0.629454	-1.000000	-1.000000	-1.000000	-1.000000	-1.000000	-1.000000	-1.000000	57.000000	0.000000	-1.000000	-1.000000	2009472.000000	1776580421.624406
-9074.745000	-12677.085000	6752.160000	29467.215000	19255.005000	7240.770000	-15927.345000	-16361.865000	1.868870	0.203177	-2.536614	-4.498414	-1.637178	1.893912	3.142460	1.620828	2.823100	1.968540	-0.976640	-0.727232	0.246276	0.629454	-1.000000	-1.000000	-1.000000	-1.000000	-1.000000	-1.000000	-1.000000	57.000000	0.000000	-1.000000	-1.000000	2009473.000000	1776580421.624414
-9073.575000	-12674.970000	6757.380000	29472.030000	19255.995000	7236.000000	-15927.705000	-16359.750000	4.459717	2.547510	-1.126165	-0.257191	-1.093515	-5.145828	3.529482	3.952171	2.823100	1.968540	-0.976640	-0.727232	0.246276	0.629454	-1.000000	-1.000000	-1.000000	-1.000000	-1.000000	-1.000000	-1.000000	57.000000	0.000000	-1.000000	-1.000000	2009474.000000	1776580421.628354
-9078.165000	-12677.220000	6758.280000	29473.065000	19255.410000	7238.115000	-15930.855000	-16363.080000	4.638865	3.436451	0.713024	4.054627	0.218361	-9.703763	2.131926	4.045510	2.823100	1.968540	-0.976640	-0.727232	0.246276	0.629454	-1.000000	-1.000000	-1.000000	-1.000000	-1.000000	-1.000000	-1.000000	57.000000	0.000000	-1.000000	-1.000000	2009475.000000	1776580421.628360
-9080.235000	-12682.305000	6753.015000	29471.220000	19264.005000	7256.880000	-15924.780000	-16360.920000	2.751482	3.073385	3.146178	7.512944	2.660909	-8.674715	-0.224545	2.205921	2.823100	1.968540	-0.976640	-0.727232	0.246276	0.629454	-1.000000	-1.000000	-1.000000	-1.000000	-1.000000	-1.000000	-1.000000	57.000000	0.000000	-1.000000	-1.000000	2009476.000000	1776580421.632364
-9084.690000	-12686.805000	6748.695000	29469.825000	19264.365000	7257.060000	-15929.640000	-16364.790000	-0.033542	1.718395	4.861415	8.758324	5.461869	-2.139490	-2.131569	-0.338455	2.823100	1.968540	-0.976640	-0.727232	0.246276	0.629454	-1.000000	-1.000000	-1.000000	-1.000000	-1.000000	-1.000000	-1.000000	57.000000	0.000000	-1.000000	-1.000000	2009477.000000	1776580421.632372
-9080.235000	-12680.415000	6756.885000	29477.430000	19263.735000	7236.000000	-15937.200000	-16364.115000	-2.209719	0.091778	4.826950	7.331323	7.066097	5.561026	-2.982214	-2.318429	2.823100	1.968540	-0.976640	-0.727232	0.246276	0.629454	-1.000000	-1.000000	-1.000000	-1.000000	-1.000000	-1.000000	-1.000000	57.000000	0.000000	-1.000000	-1.000000	2009478.000000	1776580421.636352
-9079.650000	-12678.255000	6760.215000	29480.895000	19271.655000	7239.195000	-15940.440000	-16367.130000	-2.576420	-0.560817	3.713139	4.381653	6.266025	8.709620	-3.227690	-3.050235	2.823100	1.968540	-0.976640	-0.727232	0.246276	0.629454	-1.000000	-1.000000	-1.000000	-1.000000	-1.000000	-1.000000	-1.000000	57.000000	0.000000	-1.000000	-1.000000	2009479.000000	1776580421.636359
-9083.115000	-12679.470000	6759.405000	29478.555000	19275.120000	7253.010000	-15942.330000	-16372.980000	-1.151506	0.239749	2.602284	1.347868	3.475987	6.178946	-3.083925	-2.626266	2.823100	1.968540	-0.976640	-0.727232	0.246276	0.629454	-1.000000	-1.000000	-1.000000	-1.000000	-1.000000	-1.000000	-1.000000	57.000000	0.000000	-1.000000	-1.000000	2009480.000000	1776580421.640323
-9085.050000	-12681.045000	6756.840000	29473.335000	19273.455000	7274.745000	-15928.425000	-16369.965000	0.709744	1.460825	1.451816	-1.394839	0.064974	2.288933	-1.885525	-1.582080	2.823100	1.968540	-0.976640	-0.727232	0.246276	0.629454	-1.000000	-1.000000	-1.000000	-1.000000	-1.000000	-1.000000	-1.000000	57.000000	0.000000	-1.000000	-1.000000	2009481.000000	1776580421.640331
-9092.205000	-12691.755000	6746.490000	29464.155000	19266.165000	7271.820000	-15924.015000	-16371.855000	1.556893	1.593035	-0.413945	-4.078717	-3.169646	0.933255	1.014451	-0.217988	-5.844580	2.060100	1.510740	-0.728209	0.254150	0.622862	-1.000000	-1.000000	-1.000000	-1.000000	-1.000000	-1.000000	-1.000000	57.000000	0.000000	-1.000000	-1.000000	2009482.000000	1776580421.644274
-9091.665000	-12702.780000	6730.020000	29454.840000	19253.070000	7254.270000	-15929.370000	-16370.820000	1.012003	-0.121503	-3.298345	-6.513307	-6.115083	1.025307	4.561022	1.299664	-5.844580	2.060100	1.510740	-0.728209	0.254150	0.622862	-1.000000	-1.000000	-1.000000	-1.000000	-1.000000	-1.000000	-1.000000	57.000000	0.000000	-1.000000	-1.000000	2009483.000000	1776580421.644279
-9085.005000	-12702.375000	6723.720000	29457.045000	19252.575000	7250.760000	-15928.020000	-16364.565000	0.045116	-2.902348	-6.497937	-7.677390	-8.320876	-0.998725	6.172997	2.647472	-5.844580	2.060100	1.510740	-0.728209	0.254150	0.622862	-1.000000	-1.000000	-1.000000	-1.000000	-1.000000	-1.000000	-1.000000	57.000000	0.000000	-1.000000	-1.000000	2009484.000000	1776580421.648274
-9085.410000	-12686.895000	6746.220000	29478.240000	19259.235000	7243.605000	-15936.480000	-16371.720000	0.012097	-4.267224	-7.625043	-5.848613	-8.286914	-5.624720	4.361687	3.409389	-5.844580	2.060100	1.510740	-0.728209	0.254150	0.622862	-1.000000	-1.000000	-1.000000	-1.000000	-1.000000	-1.000000	-1.000000	57.000000	0.000000	-1.000000	-1.000000	2009485.000000	1776580421.648291
-9092.880000	-12674.880000	6789.510000	29545.740000	19280.790000	7228.035000	-15951.780000	-16383.870000	0.875689	-1.872641	-3.346673	0.905781	-4.369343	-9.862171	-0.177241	2.764654	-5.844580	2.060100	1.510740	-0.728209	0.254150	0.622862	-1.000000	-1.000000	-1.000000	-1.000000	-1.000000	-1.000000	-1.000000	57.000000	0.000000	-1.000000	-1.000000	2009486.000000	1776580421.652365
-9090.045000	-12678.705000	6779.520000	29526.345000	19284.300000	7216.380000	-15951.330000	-16380.270000	1.314925	3.454785	6.285243	11.565623	2.969967	-11.071751	-5.337982	0.319246	-5.844580	2.060100	1.510740	-0.728209	0.254150	0.622862	-1.000000	-1.000000	-1.000000	-1.000000	-1.000000	-1.000000	-1.000000	57.000000	0.000000	-1.000000	-1.000000	2009487.000000	1776580421.652375
-9071.865000	-12676.140000	6750.360000	29420.505000	19239.345000	7217.280000	-15934.995000	-16359.120000	1.082248	7.661928	14.201575	16.875719	9.195450	-8.462564	-7.910873	-2.059153	-5.844580	2.060100	1.510740	-0.728209	0.254150	0.622862	-1.000000	-1.000000	-1.000000	-1.000000	-1.000000	-1.000000	-1.000000	57.000000	0.000000	-1.000000	-1.000000	2009488.000000	1776580421.656478
-9069.570000	-12676.095000	6750.945000	29435.130000	19242.000000	7221.195000	-15933.960000	-16355.970000	1.381019	7.439589	12.289570	6.560631	8.540778	-2.357023	-5.410407	-1.598202	-5.844580	2.060100	1.510740	-0.728209	0.254150	0.622862	-1.000000	-1.000000	-1.000000	-1.000000	-1.000000	-1.000000	-1.000000	57.000000	0.000000	-1.000000	-1.000000	2009489.000000	1776580421.656489
-9077.580000	-12669.930000	6768.720000	29479.725000	19276.245000	7264.620000	-15934.770000	-16368.120000	2.136349	3.177342	1.614948	-12.959362	1.975505	6.363966	0.801447	1.248770	-5.844580	2.060100	1.510740	-0.728209	0.254150	0.622862	-1.000000	-1.000000	-1.000000	-1.000000	-1.000000	-1.000000	-1.000000	57.000000	0.000000	-1.000000	-1.000000	2009490.000000	1776580421.660393
-9083.745000	-12678.390000	6759.360000	29470.545000	19282.410000	7291.260000	-15929.595000	-16370.820000	1.386827	-2.314122	-8.920203	-22.886009	-2.696313	16.215883	6.366402	2.794862	-5.844580	2.060100	1.510740	-0.728209	0.254150	0.622862	-1.000000	-1.000000	-1.000000	-1.000000	-1.000000	-1.000000	-1.000000	57.000000	0.000000	-1.000000	-1.000000	2009491.000000	1776580421.660406
-9082.530000	-12686.445000	6743.385000	29446.380000	19258.560000	7271.595000	-15923.070000	-16362.765000	-1.637937	-6.710537	-13.218435	-15.934450	-1.703929	23.026236	8.230995	1.119132	-13.123600	1.678600	1.373400	-0.731443	0.252136	0.621580	-1.000000	-1.000000	-1.000000	-1.000000	-1.000000	-1.000000	-1.000000	57.000000	0.000000	-1.000000	-1.000000	2009492.000000	1776580421.666036
-9083.160000	-12689.145000	6744.420000	29453.985000	19254.645000	7260.210000	-15924.195000	-16362.135000	-4.990533	-9.006284	-11.795114	-1.312868	0.652340	20.277461	6.356230	-1.803793	-13.123600	1.678600	1.373400	-0.731443	0.252136	0.621580	-1.000000	-1.000000	-1.000000	-1.000000	-1.000000	-1.000000	-1.000000	57.000000	0.000000	-1.000000	-1.000000	2009493.000000	1776580421.666046
-9082.170000	-12682.260000	6750.180000	29462.040000	19260.585000	7255.170000	-15930.585000	-16364.205000	-6.152829	-8.452874	-7.047546	10.381670	0.157384	6.192845	2.103764	-3.392651	-13.123600	1.678600	1.373400	-0.731443	0.252136	0.621580	-1.000000	-1.000000	-1.000000	-1.000000	-1.000000	-1.000000	-1.000000	57.000000	0.000000	-1.000000	-1.000000	2009494.000000	1776580421.668421
-9089.280000	-12688.200000	6752.160000	29468.385000	19273.005000	7263.945000	-15934.365000	-16371.720000	-4.501818	-4.785507	-0.508344	15.602255	-1.838167	-11.975529	-2.990897	-3.282891	-13.123600	1.678600	1.373400	-0.731443	0.252136	0.621580	-1.000000	-1.000000	-1.000000	-1.000000	-1.000000	-1.000000	-1.000000	57.000000	0.000000	-1.000000	-1.000000	2009495.000000	1776580421.668429
-9087.345000	-12692.340000	6745.455000	29457.540000	19263.105000	7263.045000	-15929.145000	-16367.490000	-1.387554	0.421141	5.792160	14.821248	-2.255399	-23.751387	-6.988663	-2.444667	-13.123600	1.678600	1.373400	-0.731443	0.252136	0.621580	-1.000000	-1.000000	-1.000000	-1.000000	-1.000000	-1.000000	-1.000000	57.000000	0.000000	-1.000000	-1.000000	2009496.000000	1776580421.672304
-9081.270000	-12682.440000	6748.470000	29460.330000	19258.290000	7260.885000	-15924.555000	-16364.385000	1.696382	4.730226	9.273984	9.308320	-1.052509	-23.949906	-7.850101	-1.244608	-13.123600	1.678600	1.373400	-0.731443	0.252136	0.621580	-1.000000	-1.000000	-1.000000	-1.000000	-1.000000	-1.000000	-1.000000	57.000000	0.000000	-1.000000	-1.000000	2009497.000000	1776580421.672312
-9083.205000	-12674.970000	6752.835000	29459.295000	19255.185000	7251.885000	-15928.695000	-16370.325000	4.072835	7.177278	8.980831	1.479367	-0.211012	-15.122871	-5.156511	0.375014	-13.123600	1.678600	1.373400	-0.731443	0.252136	0.621580	-1.000000	-1.000000	-1.000000	-1.000000	-1.000000	-1.000000	-1.000000	57.000000	0.000000	-1.000000	-1.000000	2009498.000000	1776580421.676436
-9085.185000	-12682.620000	6746.850000	29455.875000	19256.130000	7245.900000	-15930.765000	-16369.875000	5.124658	7.789503	6.044209	-5.369971	-0.424906	-3.697370	-0.909342	1.775471	-13.123600	1.678600	1.373400	-0.731443	0.252136	0.621580	-1.000000	-1.000000	-1.000000	-1.000000	-1.000000	-1.000000	-1.000000	57.000000	0.000000	-1.000000	-1.000000	2009499.000000	1776580421.676451
-9083.205000	-12684.420000	6749.145000	29462.220000	19262.205000	7247.745000	-15929.730000	-16366.545000	4.331778	6.061173	2.036915	-8.878281	-0.631288	5.162168	2.340583	2.304861	-13.123600	1.678600	1.373400	-0.731443	0.252136	0.621580	-1.000000	-1.000000	-1.000000	-1.000000	-1.000000	-1.000000	-1.000000	57.000000	0.000000	-1.000000	-1.000000	2009500.000000	1776580421.680443
-9088.470000	-12688.020000	6751.305000	29467.260000	19261.710000	7239.555000	-15930.135000	-16368.570000	2.076715	1.990233	-1.629952	-8.318138	0.224814	9.687986	3.581817	2.140113	-13.123600	1.678600	1.373400	-0.731443	0.252136	0.621580	-1.000000	-1.000000	-1.000000	-1.000000	-1.000000	-1.000000	-1.000000	57.000000	0.000000	-1.000000	-1.000000	2009501.000000	1776580421.680460
-9086.130000	-12685.230000	6759.180000	29477.340000	19266.660000	7223.355000	-15939.450000	-16366.635000	-0.584865	-2.693335	-3.606614	-4.467611	1.883576	10.060686	3.088338	1.643468	-11.963840	1.464960	1.083460	-0.735655	0.242370	0.622923	-1.000000	-1.000000	-1.000000	-1.000000	-1.000000	-1.000000	-1.000000	57.000000	0.000000	-1.000000	-1.000000	2009502.000000	1776580421.684516
-9079.830000	-12677.895000	6771.870000	29486.430000	19271.790000	7234.290000	-15936.165000	-16362.495000	-2.389909	-5.482153	-3.155535	0.694681	3.271333	7.375054	1.488244	1.041139	-11.963840	1.464960	1.083460	-0.735655	0.242370	0.622923	-1.000000	-1.000000	-1.000000	-1.000000	-1.000000	-1.000000	-1.000000	57.000000	0.000000	-1.000000	-1.000000	2009503.000000	1776580421.684533
-9077.130000	-12678.255000	6759.360000	29471.985000	19265.535000	7249.410000	-15929.550000	-16361.415000	-2.388692	-5.023512	-1.074884	4.460309	3.457704	4.409287	-0.013807	0.596748	-11.963840	1.464960	1.083460	-0.735655	0.242370	0.622923	-1.000000	-1.000000	-1.000000	-1.000000	-1.000000	-1.000000	-1.000000	57.000000	0.000000	-1.000000	-1.000000	2009504.000000	1776580421.688410
-9082.665000	-12689.910000	6730.830000	29457.495000	19257.435000	7242.660000	-15929.100000	-16363.665000	-1.003717	-2.481263	-0.232294	4.148486	1.764635	3.651119	-0.131840	0.254362	-11.963840	1.464960	1.083460	-0.735655	0.242370	0.622923	-1.000000	-1.000000	-1.000000	-1.000000	-1.000000	-1.000000	-1.000000	57.000000	0.000000	-1.000000	-1.000000	2009505.000000	1776580421.688415
-9082.305000	-12685.905000	6743.520000	29463.435000	19266.660000	7253.640000	-15925.365000	-16364.160000	0.157640	-0.377519	-2.684188	-0.384195	-1.403959	4.328386	1.032477	-0.379927	-11.963840	1.464960	1.083460	-0.735655	0.242370	0.622923	-1.000000	-1.000000	-1.000000	-1.000000	-1.000000	-1.000000	-1.000000	57.000000	0.000000	-1.000000	-1.000000	2009506.000000	1776580421.695884
-9087.210000	-12687.075000	6751.620000	29476.530000	19269.495000	7256.700000	-15924.015000	-16370.055000	0.043358	0.262597	-5.777427	-5.149444	-3.896172	4.160296	2.188013	-1.448331	-11.963840	1.464960	1.083460	-0.735655	0.242370	0.622923	-1.000000	-1.000000	-1.000000	-1.000000	-1.000000	-1.000000	-1.000000	57.000000	0.000000	-1.000000	-1.000000	2009507.000000	1776580421.695895
-9082.305000	-12672.315000	6766.695000	29494.440000	19262.160000	7246.800000	-15927.075000	-16368.390000	-0.920379	0.527926	-4.844908	-5.352837	-3.999786	1.989314	2.180112	-2.555383	-11.963840	1.464960	1.083460	-0.735655	0.242370	0.622923	-1.000000	-1.000000	-1.000000	-1.000000	-1.000000	-1.000000	-1.000000	57.000000	0.000000	-1.000000	-1.000000	2009508.000000	1776580421.696291
-9083.970000	-12680.505000	6747.750000	29461.860000	19261.035000	7252.740000	-15926.805000	-16365.285000	-1.523232	1.517864	0.448429	-0.929390	-2.445764	-2.026524	0.688256	-2.859948	-11.963840	1.464960	1.083460	-0.735655	0.242370	0.622923	-1.000000	-1.000000	-1.000000	-1.000000	-1.000000	-1.000000	-1.000000	57.000000	0.000000	-1.000000	-1.000000	2009509.000000	1776580421.696298
-9080.775000	-12687.930000	6730.155000	29434.410000	19255.185000	7260.840000	-15916.230000	-16355.295000	-1.033248	2.426548	5.173210	2.499603	-0.934338	-6.036541	-1.367503	-1.564425	-11.963840	1.464960	1.083460	-0.735655	0.242370	0.622923	-1.000000	-1.000000	-1.000000	-1.000000	-1.000000	-1.000000	-1.000000	57.000000	0.000000	-1.000000	-1.000000	2009510.000000	1776580421.700854
-9085.500000	-12691.845000	6735.375000	29450.385000	19257.210000	7253.505000	-15923.340000	-16362.045000	0.178621	1.596248	5.023050	0.770143	-0.145369	-7.664476	-2.517689	1.018241	-11.963840	1.464960	1.083460	-0.735655	0.242370	0.622923	-1.000000	-1.000000	-1.000000	-1.000000	-1.000000	-1.000000	-1.000000	57.000000	0.000000	-1.000000	-1.000000	2009511.000000	1776580421.700864
-9089.505000	-12695.805000	6735.195000	29452.860000	19256.580000	7242.615000	-15928.020000	-16366.005000	1.055258	-0.889260	1.326223	-2.848903	0.350888	-6.804784	-2.574755	3.026038	-6.882260	3.265640	-0.167860	-0.735045	0.230773	0.624571	-1.000000	-1.000000	-1.000000	-1.000000	-1.000000	-1.000000	-1.000000	57.000000	0.000000	-1.000000	-1.000000	2009512.000000	1776580421.704407
-9088.245000	-12691.890000	6740.235000	29455.785000	19253.610000	7243.155000	-15925.230000	-16364.295000	0.926751	-3.086576	-1.523505	-2.835985	1.047360	-5.119357	-2.390811	2.809982	-6.882260	3.265640	-0.167860	-0.735045	0.230773	0.624571	-1.000000	-1.000000	-1.000000	-1.000000	-1.000000	-1.000000	-1.000000	57.000000	0.000000	-1.000000	-1.000000	2009513.000000	1776580421.704417
-9078.885000	-12678.930000	6753.060000	29466.405000	19259.370000	7249.185000	-15925.320000	-16359.255000	0.405603	-2.934815	-1.015666	1.586357	1.865294	-3.155804	-2.051854	0.941435	-6.882260	3.265640	-0.167860	-0.735045	0.230773	0.624571	-1.000000	-1.000000	-1.000000	-1.000000	-1.000000	-1.000000	-1.000000	57.000000	0.000000	-1.000000	-1.000000	2009514.000000	1776580421.708302
-9084.240000	-12685.005000	6747.075000	29458.710000	19249.245000	7237.395000	-15928.695000	-16365.375000	0.541822	-0.060222	2.064717	6.978409	2.380796	-0.473723	-1.151382	-0.794149	-6.882260	3.265640	-0.167860	-0.735045	0.230773	0.624571	-1.000000	-1.000000	-1.000000	-1.000000	-1.000000	-1.000000	-1.000000	57.000000	0.000000	-1.000000	-1.000000	2009515.000000	1776580421.708329
-9086.670000	-12690.990000	6734.610000	29448.495000	19232.595000	7208.235000	-15933.645000	-16366.680000	1.086780	3.242156	4.443977	9.063523	1.724339	1.768208	0.004709	-1.630075	-6.882260	3.265640	-0.167860	-0.735045	0.230773	0.624571	-1.000000	-1.000000	-1.000000	-1.000000	-1.000000	-1.000000	-1.000000	57.000000	0.000000	-1.000000	-1.000000	2009516.000000	1776580421.712440
-9088.650000	-12697.740000	6729.660000	29449.125000	19232.055000	7196.805000	-15941.385000	-16368.345000	0.926322	3.969181	3.154853	5.894031	-0.623183	1.414866	0.634850	-1.834359	-6.882260	3.265640	-0.167860	-0.735045	0.230773	0.624571	-1.000000	-1.000000	-1.000000	-1.000000	-1.000000	-1.000000	-1.000000	57.000000	0.000000	-1.000000	-1.000000	2009517.000000	1776580421.712455
-9087.300000	-12694.950000	6732.540000	29461.815000	19245.870000	7211.610000	-15942.060000	-16369.605000	-0.122619	1.630860	-1.181025	-0.107966	-2.917292	-0.664128	0.465037	-1.602690	-6.882260	3.265640	-0.167860	-0.735045	0.230773	0.624571	-1.000000	-1.000000	-1.000000	-1.000000	-1.000000	-1.000000	-1.000000	57.000000	0.000000	-1.000000	-1.000000	2009518.000000	1776580421.716449
-9091.395000	-12697.020000	6721.830000	29462.580000	19256.175000	7216.830000	-15944.040000	-16373.430000	-1.229157	-1.522715	-5.170323	-4.400378	-2.186296	-0.443627	0.129674	-0.994267	-6.882260	3.265640	-0.167860	-0.735045	0.230773	0.624571	-1.000000	-1.000000	-1.000000	-1.000000	-1.000000	-1.000000	-1.000000	57.000000	0.000000	-1.000000	-1.000000	2009519.000000	1776580421.716468
-9098.505000	-12700.485000	6735.150000	29460.780000	19256.355000	7219.080000	-15946.290000	-16378.290000	-1.834028	-3.170794	-6.139169	-4.939901	1.910980	3.870917	0.407297	-0.295996	-6.882260	3.265640	-0.167860	-0.735045	0.230773	0.624571	-1.000000	-1.000000	-1.000000	-1.000000	-1.000000	-1.000000	-1.000000	57.000000	0.000000	-1.000000	-1.000000	2009520.000000	1776580421.720456
-9088.920000	-12688.065000	6751.440000	29461.050000	19250.910000	7245.315000	-15922.215000	-16366.500000	-1.812611	-2.567467	-3.226755	-3.221153	5.979244	9.708095	1.752933	0.411854	-6.882260	3.265640	-0.167860	-0.735045	0.230773	0.624571	-1.000000	-1.000000	-1.000000	-1.000000	-1.000000	-1.000000	-1.000000	57.000000	0.000000	-1.000000	-1.000000	2009521.000000	1776580421.720477
-9078.615000	-12681.405000	6750.945000	29464.560000	19260.540000	7273.080000	-15901.200000	-16353.540000	-0.611057	0.009151	2.463343	-1.416894	6.500571	13.915732	4.659697	1.810196	1.663340	3.723440	-2.884140	-0.731443	0.225341	0.626341	-1.000000	-1.000000	-1.000000	-1.000000	-1.000000	-1.000000	-1.000000	57.000000	0.000000	-1.000000	-1.000000	2009522.000000	1776580421.724409
-9080.505000	-12684.015000	6747.120000	29460.645000	19262.205000	7272.900000	-15916.230000	-16361.370000	1.923732	3.263112	7.318814	-0.440871	3.392615	14.586019	8.007117	3.969594	1.663340	3.723440	-2.884140	-0.731443	0.225341	0.626341	-1.000000	-1.000000	-1.000000	-1.000000	-1.000000	-1.000000	-1.000000	57.000000	0.000000	-1.000000	-1.000000	2009523.000000	1776580421.724425
-9074.205000	-12674.070000	6756.570000	29473.785000	19272.375000	7269.390000	-15923.430000	-16361.595000	4.278029	5.061910	7.850665	-0.095629	-0.763905	9.841597	7.940679	4.991737	1.663340	3.723440	-2.884140	-0.731443	0.225341	0.626341	-1.000000	-1.000000	-1.000000	-1.000000	-1.000000	-1.000000	-1.000000	57.000000	0.000000	-1.000000	-1.000000	2009524.000000	1776580421.728333
-9071.055000	-12663.540000	6767.145000	29484.090000	19277.235000	7268.805000	-15923.430000	-16360.605000	4.699857	4.498770	4.328443	0.541972	-3.533547	-0.533290	2.189306	3.189291	1.663340	3.723440	-2.884140	-0.731443	0.225341	0.626341	-1.000000	-1.000000	-1.000000	-1.000000	-1.000000	-1.000000	-1.000000	57.000000	0.000000	-1.000000	-1.000000	2009525.000000	1776580421.728347
-9068.985000	-12666.015000	6763.455000	29478.555000	19270.395000	7261.965000	-15923.655000	-16357.725000	2.936653	2.371887	-0.306973	1.821303	-4.341229	-12.848441	-6.209798	-0.515810	1.663340	3.723440	-2.884140	-0.731443	0.225341	0.626341	-1.000000	-1.000000	-1.000000	-1.000000	-1.000000	-1.000000	-1.000000	57.000000	0.000000	-1.000000	-1.000000	2009526.000000	1776580421.732346
-9072.810000	-12673.935000	6754.680000	29468.205000	19260.405000	7248.060000	-15923.970000	-16356.330000	-0.160847	-0.701566	-4.186138	2.219368	-4.506540	-21.744874	-11.925513	-3.733701	1.663340	3.723440	-2.884140	-0.731443	0.225341	0.626341	-1.000000	-1.000000	-1.000000	-1.000000	-1.000000	-1.000000	-1.000000	57.000000	0.000000	-1.000000	-1.000000	2009527.000000	1776580421.732353
-9071.010000	-12673.395000	6754.320000	29469.690000	19260.810000	7239.780000	-15926.670000	-16353.990000	-3.431412	-4.425835	-7.061997	0.223807	-5.199397	-23.884245	-12.098408	-4.866745	1.663340	3.723440	-2.884140	-0.731443	0.225341	0.626341	-1.000000	-1.000000	-1.000000	-1.000000	-1.000000	-1.000000	-1.000000	57.000000	0.000000	-1.000000	-1.000000	2009528.000000	1776580421.736396
-9064.935000	-12664.575000	6763.635000	29480.310000	19273.005000	7246.980000	-15925.005000	-16350.345000	-5.487359	-7.285433	-8.198321	-2.855691	-5.409694	-18.672988	-7.540584	-3.839358	1.663340	3.723440	-2.884140	-0.731443	0.225341	0.626341	-1.000000	-1.000000	-1.000000	-1.000000	-1.000000	-1.000000	-1.000000	57.000000	0.000000	-1.000000	-1.000000	2009529.000000	1776580421.736403
-9068.220000	-12669.255000	6757.650000	29478.645000	19271.745000	7251.435000	-15924.555000	-16352.640000	-5.308163	-7.288132	-6.471287	-4.094541	-3.250527	-7.539146	-1.036503	-1.666266	1.663340	3.723440	-2.884140	-0.731443	0.225341	0.626341	-1.000000	-1.000000	-1.000000	-1.000000	-1.000000	-1.000000	-1.000000	57.000000	0.000000	-1.000000	-1.000000	2009530.000000	1776580421.740675
-9071.235000	-12679.380000	6743.835000	29480.895000	19263.870000	7247.565000	-15924.240000	-16355.430000	-3.357672	-4.598482	-2.745675	-2.536167	0.827082	5.774226	4.600912	0.204741	1.663340	3.723440	-2.884140	-0.731443	0.225341	0.626341	-1.000000	-1.000000	-1.000000	-1.000000	-1.000000	-1.000000	-1.000000	57.000000	0.000000	-1.000000	-1.000000	2009531.000000	1776580421.740695
-9069.750000	-12674.745000	6751.710000	29501.010000	19270.350000	7264.170000	-15919.020000	-16355.295000	-1.088251	-1.319887	0.598823	0.589144	4.195301	16.237974	7.655747	0.824973	5.524120	1.632820	-0.152600	-0.731443	0.228515	0.623778	-1.000000	-1.000000	-1.000000	-1.000000	-1.000000	-1.000000	-1.000000	57.000000	0.000000	-1.000000	-1.000000	2009532.000000	1776580421.744539
-9069.390000	-12672.765000	6750.810000	29456.235000	19256.265000	7261.605000	-15908.265000	-16348.140000	0.648521	1.319750	2.689444	3.097421	5.057099	20.545891	8.053871	0.563245	5.524120	1.632820	-0.152600	-0.731443	0.228515	0.623778	-1.000000	-1.000000	-1.000000	-1.000000	-1.000000	-1.000000	-1.000000	57.000000	0.000000	-1.000000	-1.000000	2009533.000000	1776580421.744552
-9068.445000	-12670.245000	6760.485000	29447.595000	19245.780000	7247.520000	-15907.680000	-16343.145000	1.824397	3.451176	4.285579	1.973575	3.218275	17.829185	6.733164	0.624408	5.524120	1.632820	-0.152600	-0.731443	0.228515	0.623778	-1.000000	-1.000000	-1.000000	-1.000000	-1.000000	-1.000000	-1.000000	57.000000	0.000000	-1.000000	-1.000000	2009534.000000	1776580421.748590
-9073.080000	-12679.920000	6753.780000	29462.535000	19255.815000	7239.555000	-15920.730000	-16347.285000	2.431596	4.820266	5.610445	-2.716083	-0.071361	9.006134	4.014785	1.412636	5.524120	1.632820	-0.152600	-0.731443	0.228515	0.623778	-1.000000	-1.000000	-1.000000	-1.000000	-1.000000	-1.000000	-1.000000	57.000000	0.000000	-1.000000	-1.000000	2009535.000000	1776580421.748611
-9079.560000	-12684.420000	6751.305000	29465.550000	19259.685000	7239.960000	-15933.465000	-16356.375000	2.150194	4.454088	5.658499	-5.761136	-2.041505	-2.326250	-0.557700	1.770995	5.524120	1.632820	-0.152600	-0.731443	0.228515	0.623778	-1.000000	-1.000000	-1.000000	-1.000000	-1.000000	-1.000000	-1.000000	57.000000	0.000000	-1.000000	-1.000000	2009536.000000	1776580421.752498
-9081.720000	-12679.380000	6752.835000	29467.035000	19266.660000	7257.285000	-15929.820000	-16363.080000	0.886182	2.319265	3.649387	-3.287951	-0.798372	-10.452201	-6.064213	0.415456	5.524120	1.632820	-0.152600	-0.731443	0.228515	0.623778	-1.000000	-1.000000	-1.000000	-1.000000	-1.000000	-1.000000	-1.000000	57.000000	0.000000	-1.000000	-1.000000	2009537.000000	1776580421.752507
-9078.795000	-12675.420000	6762.285000	29474.460000	19264.905000	7254.405000	-15921.405000	-16361.595000	-0.540366	0.122919	0.628152	2.863786	2.494485	-11.388072	-9.256003	-2.125903	5.524120	1.632820	-0.152600	-0.731443	0.228515	0.623778	-1.000000	-1.000000	-1.000000	-1.000000	-1.000000	-1.000000	-1.000000	57.000000	0.000000	-1.000000	-1.000000	2009538.000000	1776580421.756392
-9070.695000	-12660.975000	6791.355000	29526.210000	19274.400000	7243.110000	-15924.870000	-16359.345000	-0.755532	-0.272339	-0.922689	9.188125	5.050988	-6.529078	-7.524665	-3.676807	5.524120	1.632820	-0.152600	-0.731443	0.228515	0.623778	-1.000000	-1.000000	-1.000000	-1.000000	-1.000000	-1.000000	-1.000000	57.000000	0.000000	-1.000000	-1.000000	2009539.000000	1776580421.756407
-9073.395000	-12674.070000	6762.915000	29498.445000	19264.815000	7235.595000	-15928.965000	-16358.895000	0.714064	1.075362	-0.049680	13.406350	4.975258	-1.132156	-2.123063	-2.648766	5.524120	1.632820	-0.152600	-0.731443	0.228515	0.623778	-1.000000	-1.000000	-1.000000	-1.000000	-1.000000	-1.000000	-1.000000	57.000000	0.000000	-1.000000	-1.000000	2009540.000000	1776580421.760395
-9066.285000	-12668.310000	6744.870000	29441.025000	19251.270000	7253.235000	-15920.640000	-16351.965000	2.712601	2.055905	0.172691	11.270821	1.789412	1.489797	3.317649	0.491900	5.524120	1.632820	-0.152600	-0.731443	0.228515	0.623778	-1.000000	-1.000000	-1.000000	-1.000000	-1.000000	-1.000000	-1.000000	57.000000	0.000000	-1.000000	-1.000000	2009541.000000	1776580421.760405
-9074.340000	-12672.000000	6750.315000	29463.795000	19272.780000	7270.425000	-15921.135000	-16358.490000	3.536908	1.052118	-3.216426	-0.255244	-3.111638	2.646640	6.415205	3.808917	4.181240	2.243220	1.205540	-0.732298	0.234619	0.622008	-1.000000	-1.000000	-1.000000	-1.000000	-1.000000	-1.000000	-1.000000	57.000000	0.000000	-1.000000	-1.000000	2009542.000000	1776580421.764583
-9085.095000	-12693.555000	6729.885000	29465.730000	19272.825000	7267.725000	-15917.580000	-16361.055000	2.069068	-1.730228	-8.067969	-14.436488	-6.185646	4.453431	6.765045	5.151617	4.181240	2.243220	1.205540	-0.732298	0.234619	0.622008	-1.000000	-1.000000	-1.000000	-1.000000	-1.000000	-1.000000	-1.000000	57.000000	0.000000	-1.000000	-1.000000	2009543.000000	1776580421.764591
-9079.740000	-12699.225000	6716.430000	29431.395000	19266.885000	7267.770000	-15911.955000	-16351.155000	-1.354959	-5.365669	-10.476238	-20.794639	-5.323211	5.855785	5.002155	3.838827	4.181240	2.243220	1.205540	-0.732298	0.234619	0.622008	-1.000000	-1.000000	-1.000000	-1.000000	-1.000000	-1.000000	-1.000000	57.000000	0.000000	-1.000000	-1.000000	2009544.000000	1776580421.768506
-9081.765000	-12692.655000	6735.735000	29434.680000	19261.305000	7264.710000	-15917.670000	-16355.520000	-4.474159	-7.865334	-8.535091	-17.068664	-2.429250	4.447165	2.163122	1.295089	4.181240	2.243220	1.205540	-0.732298	0.234619	0.622008	-1.000000	-1.000000	-1.000000	-1.000000	-1.000000	-1.000000	-1.000000	57.000000	0.000000	-1.000000	-1.000000	2009545.000000	1776580421.768514
-9078.390000	-12677.445000	6746.175000	29445.930000	19259.550000	7258.005000	-15921.945000	-16356.780000	-4.997631	-6.326301	-1.677794	-7.136524	-0.373122	-0.025613	-1.064272	-0.932740	4.181240	2.243220	1.205540	-0.732298	0.234619	0.622008	-1.000000	-1.000000	-1.000000	-1.000000	-1.000000	-1.000000	-1.000000	57.000000	0.000000	-1.000000	-1.000000	2009546.000000	1776580421.772586
-9073.845000	-12673.980000	6747.120000	29449.080000	19254.960000	7258.725000	-15915.555000	-16350.480000	-2.656099	-0.042451	8.123185	5.063583	0.066491	-5.366034	-4.004883	-2.322623	4.181240	2.243220	1.205540	-0.732298	0.234619	0.622008	-1.000000	-1.000000	-1.000000	-1.000000	-1.000000	-1.000000	-1.000000	57.000000	0.000000	-1.000000	-1.000000	2009547.000000	1776580421.772600
-9073.890000	-12673.395000	6749.235000	29453.895000	19253.970000	7254.630000	-15914.880000	-16350.705000	1.032292	7.590944	15.672261	15.416257	-0.220263	-8.665997	-5.357348	-2.596756	4.181240	2.243220	1.205540	-0.732298	0.234619	0.622008	-1.000000	-1.000000	-1.000000	-1.000000	-1.000000	-1.000000	-1.000000	57.000000	0.000000	-1.000000	-1.000000	2009548.000000	1776580421.776540
-9073.125000	-12672.180000	6753.645000	29457.270000	19252.530000	7246.260000	-15918.795000	-16351.380000	3.915607	11.658059	16.568244	19.954604	-0.152871	-8.421443	-4.458827	-1.872440	4.181240	2.243220	1.205540	-0.732298	0.234619	0.622008	-1.000000	-1.000000	-1.000000	-1.000000	-1.000000	-1.000000	-1.000000	57.000000	0.000000	-1.000000	-1.000000	2009549.000000	1776580421.776554
-9078.255000	-12680.730000	6747.885000	29453.400000	19248.120000	7236.900000	-15924.195000	-16354.755000	4.430021	9.720132	10.617682	17.142727	0.628125	-5.476794	-2.367026	-0.982333	4.181240	2.243220	1.205540	-0.732298	0.234619	0.622008	-1.000000	-1.000000	-1.000000	-1.000000	-1.000000	-1.000000	-1.000000	57.000000	0.000000	-1.000000	-1.000000	2009550.000000	1776580421.780475
-9077.445000	-12681.855000	6753.330000	29457.855000	19248.030000	7234.425000	-15923.700000	-16351.875000	2.486106	3.046338	1.103946	8.651919	1.667291	-1.679685	-0.586442	-0.589041	4.181240	2.243220	1.205540	-0.732298	0.234619	0.622008	-1.000000	-1.000000	-1.000000	-1.000000	-1.000000	-1.000000	-1.000000	57.000000	0.000000	-1.000000	-1.000000	2009551.000000	1776580421.780493
-9076.500000	-12677.940000	6764.085000	29470.230000	19248.435000	7224.030000	-15931.305000	-16353.225000	-0.502095	-4.518977	-7.308301	-1.318067	2.411558	1.696294	0.350911	-0.532146	1.648080	1.999060	0.000000	-0.732786	0.239196	0.623656	-1.000000	-1.000000	-1.000000	-1.000000	-1.000000	-1.000000	-1.000000	57.000000	0.000000	-1.000000	-1.000000	2009552.000000	1776580421.784500
-9074.070000	-12670.290000	6767.685000	29475.495000	19251.945000	7227.630000	-15933.015000	-16353.990000	-2.615247	-8.783293	-10.961031	-8.224388	2.750306	4.152074	0.647764	-0.374439	1.648080	1.999060	0.000000	-0.732786	0.239196	0.623656	-1.000000	-1.000000	-1.000000	-1.000000	-1.000000	-1.000000	-1.000000	57.000000	0.000000	-1.000000	-1.000000	2009553.000000	1776580421.784532
-9069.885000	-12665.925000	6769.035000	29475.270000	19266.075000	7246.080000	-15929.145000	-16352.550000	-2.779157	-7.875830	-9.511058	-10.242381	3.005819	6.108423	0.832750	-0.002377	1.648080	1.999060	0.000000	-0.732786	0.239196	0.623656	-1.000000	-1.000000	-1.000000	-1.000000	-1.000000	-1.000000	-1.000000	57.000000	0.000000	-1.000000	-1.000000	2009554.000000	1776580421.788602
-9067.365000	-12666.240000	6772.275000	29479.500000	19279.890000	7269.975000	-15919.830000	-16349.895000	-1.259448	-3.359038	-5.500709	-8.784511	3.674304	8.660018	1.707456	0.548877	1.648080	1.999060	0.000000	-0.732786	0.239196	0.623656	-1.000000	-1.000000	-1.000000	-1.000000	-1.000000	-1.000000	-1.000000	57.000000	0.000000	-1.000000	-1.000000	2009555.000000	1776580421.788612
-9074.115000	-12674.790000	6745.095000	29468.880000	19278.135000	7288.380000	-15907.590000	-16352.910000	0.597115	1.155395	-2.194015	-6.320420	4.399206	11.746734	3.677401	1.134316	1.648080	1.999060	0.000000	-0.732786	0.239196	0.623656	-1.000000	-1.000000	-1.000000	-1.000000	-1.000000	-1.000000	-1.000000	57.000000	0.000000	-1.000000	-1.000000	2009556.000000	1776580421.793874
-9074.475000	-12674.160000	6737.220000	29454.210000	19260.045000	7263.945000	-15910.920000	-16350.255000	1.238829	2.814516	-1.907484	-4.827160	3.199065	12.445938	5.797492	1.378912	1.648080	1.999060	0.000000	-0.732786	0.239196	0.623656	-1.000000	-1.000000	-1.000000	-1.000000	-1.000000	-1.000000	-1.000000	57.000000	0.000000	-1.000000	-1.000000	2009557.000000	1776580421.793887
-9068.265000	-12670.245000	6748.470000	29457.405000	19262.115000	7260.345000	-15911.190000	-16343.460000	0.441991	1.673255	-3.714779	-4.741241	-1.439015	6.833785	5.949758	1.224646	1.648080	1.999060	0.000000	-0.732786	0.239196	0.623656	-1.000000	-1.000000	-1.000000	-1.000000	-1.000000	-1.000000	-1.000000	57.000000	0.000000	-1.000000	-1.000000	2009558.000000	1776580421.798022
