Channel1	Channel2	Channel3	Channel4	Channel5	Channel6	Channel7	Channel8	FilteredChannel1	FilteredChannel2	FilteredChannel3	FilteredChannel4	FilteredChannel5	FilteredChannel6	FilteredChannel7	FilteredChannel8	GyroX	GyroY	GyroZ	AccX	AccY	AccZ	PPG1	PPG2	rawPPG1	rawPPG2	rawPPG3	Hr	Hrv	Battery	Trigger	PhysicalTrigger	AutoTrigger	NumMeasurements	Timestamp
-11994.615000	-10691.730000	-4252.320000	12428.055000	6552.360000	2446.335000	-22556.520000	-24924.285000	0.396079	-2.466148	1.245081	0.108444	-1.295604	-0.194041	2.320213	1.938278	-79.825060	46.787160	-29.497580	-0.836363	0.103637	0.487120	-1.000000	-1.000000	-1.000000	-1.000000	-1.000000	-1.000000	-1.000000	57.000000	0.000000	-1.000000	-1.000000	2169934.000000	1776580742.978370
-11999.520000	-10693.755000	-4262.175000	12413.160000	6530.625000	2425.455000	-22573.440000	-24928.290000	4.410009	3.504950	4.433017	3.895559	1.711691	-1.316833	2.251514	4.512393	-79.825060	46.787160	-29.497580	-0.836363	0.103637	0.487120	-1.000000	-1.000000	-1.000000	-1.000000	-1.000000	-1.000000	-1.000000	57.000000	0.000000	-1.000000	-1.000000	2169935.000000	1776580742.978388
-12013.830000	-10713.465000	-4278.465000	12390.480000	6515.100000	2432.520000	-22581.855000	-24940.530000	4.627900	5.329083	0.129620	1.386554	-0.095513	-1.175507	1.787386	4.250007	-79.825060	46.787160	-29.497580	-0.836363	0.103637	0.487120	-1.000000	-1.000000	-1.000000	-1.000000	-1.000000	-1.000000	-1.000000	57.000000	0.000000	-1.000000	-1.000000	2169936.000000	1776580742.982142
-12011.445000	-10714.410000	-4281.570000	12397.860000	6524.685000	2444.985000	-22574.880000	-24940.575000	0.557438	1.740363	-7.521568	-5.520703	-6.025622	-0.504549	0.086008	0.708757	-79.825060	46.787160	-29.497580	-0.836363	0.103637	0.487120	-1.000000	-1.000000	-1.000000	-1.000000	-1.000000	-1.000000	-1.000000	57.000000	0.000000	-1.000000	-1.000000	2169937.000000	1776580742.982159
-12005.955000	-10710.765000	-4280.850000	12402.810000	6527.340000	2446.110000	-22566.285000	-24935.355000	-4.404118	-3.897808	-11.560277	-10.458178	-10.198132	1.196605	-1.347397	-3.666179	-79.825060	46.787160	-29.497580	-0.836363	0.103637	0.487120	-1.000000	-1.000000	-1.000000	-1.000000	-1.000000	-1.000000	-1.000000	57.000000	0.000000	-1.000000	-1.000000	2169938.000000	1776580742.986128
-12004.515000	-10703.205000	-4256.550000	12406.680000	6527.745000	2438.370000	-22560.750000	-24933.060000	-6.160506	-6.561067	-7.933750	-8.493279	-8.128878	3.248911	-0.523979	-5.484905	-79.825060	46.787160	-29.497580	-0.836363	0.103637	0.487120	-1.000000	-1.000000	-1.000000	-1.000000	-1.000000	-1.000000	-1.000000	57.000000	0.000000	-1.000000	-1.000000	2169939.000000	1776580742.986147
-11996.730000	-10687.680000	-4226.895000	12431.205000	6544.800000	2438.280000	-22561.155000	-24927.795000	-3.579830	-3.802535	2.751727	-0.206168	-0.745061	3.509269	2.060052	-3.533603	-79.825060	46.787160	-29.497580	-0.836363	0.103637	0.487120	-1.000000	-1.000000	-1.000000	-1.000000	-1.000000	-1.000000	-1.000000	57.000000	0.000000	-1.000000	-1.000000	2169940.000000	1776580742.990170
-11991.015000	-10676.475000	-4218.120000	12449.340000	6560.055000	2449.710000	-22561.515000	-24925.365000	1.349030	2.804209	15.500541	10.100363	8.014047	1.489296	3.908895	0.576281	-79.825060	46.787160	-29.497580	-0.836363	0.103637	0.487120	-1.000000	-1.000000	-1.000000	-1.000000	-1.000000	-1.000000	-1.000000	57.000000	0.000000	-1.000000	-1.000000	2169941.000000	1776580742.990185
-11996.055000	-10685.205000	-4242.420000	12426.345000	6556.950000	2451.645000	-22559.895000	-24927.390000	5.491695	8.881603	22.296324	16.818651	14.015132	-0.852676	3.220105	4.081023	-5.020540	45.535840	-33.953500	-0.837827	0.071411	0.493285	-1.000000	-1.000000	-1.000000	-1.000000	-1.000000	-1.000000	-1.000000	57.000000	0.000000	-1.000000	-1.000000	2169942.000000	1776580743.011717
-11992.230000	-10682.685000	-4239.090000	12427.965000	6548.715000	2434.725000	-22570.290000	-24926.985000	6.389887	9.979649	17.184509	15.005317	13.827134	-2.187466	0.210983	4.938596	-5.020540	45.535840	-33.953500	-0.837827	0.071411	0.493285	-1.000000	-1.000000	-1.000000	-1.000000	-1.000000	-1.000000	-1.000000	57.000000	0.000000	-1.000000	-1.000000	2169943.000000	1776580743.011732
-12001.410000	-10696.590000	-4240.755000	12458.745000	6541.965000	2421.630000	-22577.355000	-24933.555000	3.697793	4.957413	2.476650	5.479714	6.685555	-3.518351	-3.761422	2.905716	-5.020540	45.535840	-33.953500	-0.837827	0.071411	0.493285	-1.000000	-1.000000	-1.000000	-1.000000	-1.000000	-1.000000	-1.000000	57.000000	0.000000	-1.000000	-1.000000	2169944.000000	1776580743.011747
-12015.990000	-10722.645000	-4268.430000	12452.400000	6536.880000	2404.260000	-22583.835000	-24940.890000	-1.169831	-3.766189	-13.259994	-4.723376	-4.003142	-5.831669	-7.037249	-0.791751	-5.020540	45.535840	-33.953500	-0.837827	0.071411	0.493285	-1.000000	-1.000000	-1.000000	-1.000000	-1.000000	-1.000000	-1.000000	57.000000	0.000000	-1.000000	-1.000000	2169945.000000	1776580743.011752
-12002.580000	-10724.220000	-4292.505000	12359.565000	6502.095000	2410.920000	-22567.590000	-24922.845000	-5.863170	-12.212147	-23.264619	-11.891831	-13.210391	-7.736769	-7.647675	-3.980096	-5.020540	45.535840	-33.953500	-0.837827	0.071411	0.493285	-1.000000	-1.000000	-1.000000	-1.000000	-1.000000	-1.000000	-1.000000	57.000000	0.000000	-1.000000	-1.000000	2169946.000000	1776580743.011758
-11995.965000	-10693.755000	-4238.415000	12385.260000	6508.890000	2417.760000	-22562.460000	-24921.630000	-7.288466	-15.285651	-24.060721	-18.237216	-17.604502	-6.286444	-4.156574	-4.241932	-5.020540	45.535840	-33.953500	-0.837827	0.071411	0.493285	-1.000000	-1.000000	-1.000000	-1.000000	-1.000000	-1.000000	-1.000000	57.000000	0.000000	-1.000000	-1.000000	2169947.000000	1776580743.011762
-12004.830000	-10695.645000	-4263.840000	12382.470000	6506.145000	2424.510000	-22566.510000	-24930.540000	-4.180193	-9.378229	-14.071179	-21.649458	-15.382142	-0.237930	2.161760	-1.484394	-5.020540	45.535840	-33.953500	-0.837827	0.071411	0.493285	-1.000000	-1.000000	-1.000000	-1.000000	-1.000000	-1.000000	-1.000000	57.000000	0.000000	-1.000000	-1.000000	2169948.000000	1776580743.011767
-12000.555000	-10694.880000	-4260.420000	12390.255000	6520.590000	2450.070000	-22559.940000	-24923.115000	0.907464	2.594862	2.114401	-15.738004	-6.410455	8.217616	7.434710	1.554039	-5.020540	45.535840	-33.953500	-0.837827	0.071411	0.493285	-1.000000	-1.000000	-1.000000	-1.000000	-1.000000	-1.000000	-1.000000	57.000000	0.000000	-1.000000	-1.000000	2169949.000000	1776580743.011772
-11990.790000	-10690.965000	-4251.420000	12400.875000	6523.920000	2452.140000	-22559.940000	-24913.890000	4.711213	12.791316	15.266387	-0.472369	6.152055	15.112305	8.755220	2.952888	-5.020540	45.535840	-33.953500	-0.837827	0.071411	0.493285	-1.000000	-1.000000	-1.000000	-1.000000	-1.000000	-1.000000	-1.000000	57.000000	0.000000	-1.000000	-1.000000	2169950.000000	1776580743.011777
-11996.325000	-10690.740000	-4232.745000	12448.530000	6526.530000	2435.175000	-22571.145000	-24924.510000	6.076210	15.688070	20.356306	17.433951	16.666360	16.278345	5.929507	2.865964	-5.020540	45.535840	-33.953500	-0.837827	0.071411	0.493285	-1.000000	-1.000000	-1.000000	-1.000000	-1.000000	-1.000000	-1.000000	57.000000	0.000000	-1.000000	-1.000000	2169951.000000	1776580743.011781
-12002.265000	-10704.060000	-4263.795000	12394.665000	6520.725000	2422.395000	-22567.410000	-24924.060000	4.857807	10.975975	17.672243	29.575001	20.111998	9.221987	0.541021	1.479910	32.061260	45.810520	-33.114200	-0.830747	0.075928	0.499571	-1.000000	-1.000000	-1.000000	-1.000000	-1.000000	-1.000000	-1.000000	57.000000	0.000000	-1.000000	-1.000000	2169952.000000	1776580743.040355
-11998.170000	-10705.680000	-4285.665000	12333.375000	6503.805000	2421.855000	-22563.495000	-24918.480000	1.488600	1.778426	8.352915	27.184567	14.827205	-3.532452	-4.536434	-0.789925	32.061260	45.810520	-33.114200	-0.830747	0.075928	0.499571	-1.000000	-1.000000	-1.000000	-1.000000	-1.000000	-1.000000	-1.000000	57.000000	0.000000	-1.000000	-1.000000	2169953.000000	1776580743.040390
-11996.190000	-10697.940000	-4266.135000	12374.370000	6523.605000	2424.420000	-22574.970000	-24924.870000	-2.160650	-7.001457	-4.430801	8.822557	3.810910	-14.795442	-6.746583	-2.576456	32.061260	45.810520	-33.114200	-0.830747	0.075928	0.499571	-1.000000	-1.000000	-1.000000	-1.000000	-1.000000	-1.000000	-1.000000	57.000000	0.000000	-1.000000	-1.000000	2169954.000000	1776580743.040415
-11996.100000	-10697.985000	-4262.220000	12385.260000	6528.510000	2445.390000	-22568.940000	-24925.230000	-3.992193	-10.870501	-13.510261	-12.277189	-6.340950	-17.891717	-5.881304	-3.064475	32.061260	45.810520	-33.114200	-0.830747	0.075928	0.499571	-1.000000	-1.000000	-1.000000	-1.000000	-1.000000	-1.000000	-1.000000	57.000000	0.000000	-1.000000	-1.000000	2169955.000000	1776580743.040425
-12001.500000	-10704.690000	-4264.110000	12383.370000	6518.385000	2452.230000	-22554.495000	-24922.710000	-3.642509	-8.922734	-13.623132	-20.661554	-10.652120	-11.311230	-2.876117	-2.440521	32.061260	45.810520	-33.114200	-0.830747	0.075928	0.499571	-1.000000	-1.000000	-1.000000	-1.000000	-1.000000	-1.000000	-1.000000	57.000000	0.000000	-1.000000	-1.000000	2169956.000000	1776580743.040435
-11997.720000	-10703.565000	-4257.315000	12384.990000	6511.500000	2443.545000	-22555.485000	-24915.690000	-2.208828	-3.990575	-6.593606	-14.445239	-9.813554	0.124966	1.439634	-0.881206	32.061260	45.810520	-33.114200	-0.830747	0.075928	0.499571	-1.000000	-1.000000	-1.000000	-1.000000	-1.000000	-1.000000	-1.000000	57.000000	0.000000	-1.000000	-1.000000	2169957.000000	1776580743.040444
-11983.815000	-10686.780000	-4234.590000	12413.655000	6513.120000	2426.670000	-22559.085000	-24906.420000	-0.383249	0.967614	2.332892	-1.885332	-7.142972	8.417922	5.136056	1.490859	32.061260	45.810520	-33.114200	-0.830747	0.075928	0.499571	-1.000000	-1.000000	-1.000000	-1.000000	-1.000000	-1.000000	-1.000000	57.000000	0.000000	-1.000000	-1.000000	2169958.000000	1776580743.040453
-11980.485000	-10682.865000	-4237.920000	12420.495000	6508.665000	2402.595000	-22569.570000	-24907.680000	1.929914	4.957264	9.092304	9.133551	-4.353825	8.332128	5.641802	3.887519	32.061260	45.810520	-33.114200	-0.830747	0.075928	0.499571	-1.000000	-1.000000	-1.000000	-1.000000	-1.000000	-1.000000	-1.000000	57.000000	0.000000	-1.000000	-1.000000	2169959.000000	1776580743.040460
-11975.220000	-10681.515000	-4248.315000	12380.535000	6501.870000	2399.130000	-22568.040000	-24902.865000	4.120539	7.335362	10.804934	13.315905	-1.746178	1.173827	2.400496	4.853876	32.061260	45.810520	-33.114200	-0.830747	0.075928	0.499571	-1.000000	-1.000000	-1.000000	-1.000000	-1.000000	-1.000000	-1.000000	57.000000	0.000000	-1.000000	-1.000000	2169960.000000	1776580743.040473
-11983.320000	-10683.720000	-4248.585000	12413.295000	6524.820000	2423.115000	-22567.365000	-24910.245000	4.570892	6.858767	6.278334	8.351116	0.839543	-6.093071	-2.158618	3.411772	32.061260	45.810520	-33.114200	-0.830747	0.075928	0.499571	-1.000000	-1.000000	-1.000000	-1.000000	-1.000000	-1.000000	-1.000000	57.000000	0.000000	-1.000000	-1.000000	2169961.000000	1776580743.040484
-11999.295000	-10696.455000	-4252.905000	12426.120000	6546.060000	2439.810000	-22575.015000	-24923.970000	1.957003	3.025853	-1.954228	-1.217509	4.371660	-6.220943	-4.934996	-0.303211	34.014540	43.353660	-26.766040	-0.829893	0.116455	0.499388	-1.000000	-1.000000	-1.000000	-1.000000	-1.000000	-1.000000	-1.000000	57.000000	0.000000	-1.000000	-1.000000	2169962.000000	1776580743.040495
-12007.665000	-10714.050000	-4280.040000	12362.670000	6539.310000	2459.340000	-22564.215000	-24921.855000	-3.332130	-3.167738	-9.488940	-8.704380	8.652633	1.848019	-4.667875	-4.952654	34.014540	43.353660	-26.766040	-0.829893	0.116455	0.499388	-1.000000	-1.000000	-1.000000	-1.000000	-1.000000	-1.000000	-1.000000	57.000000	0.000000	-1.000000	-1.000000	2169963.000000	1776580743.040504
-12000.465000	-10707.885000	-4273.515000	12373.020000	6526.080000	2437.020000	-22563.315000	-24917.040000	-8.321673	-9.115367	-13.390843	-13.207058	10.202158	11.632230	-1.804143	-7.817155	34.014540	43.353660	-26.766040	-0.829893	0.116455	0.499388	-1.000000	-1.000000	-1.000000	-1.000000	-1.000000	-1.000000	-1.000000	57.000000	0.000000	-1.000000	-1.000000	2169964.000000	1776580743.040516
-11991.150000	-10693.710000	-4255.110000	12397.230000	6535.170000	2438.055000	-22564.125000	-24912.180000	-8.961593	-10.893264	-11.715784	-14.452770	6.000834	14.613972	2.064863	-6.502437	34.014540	43.353660	-26.766040	-0.829893	0.116455	0.499388	-1.000000	-1.000000	-1.000000	-1.000000	-1.000000	-1.000000	-1.000000	57.000000	0.000000	-1.000000	-1.000000	2169965.000000	1776580743.040525
-11995.470000	-10699.470000	-4261.680000	12387.555000	6524.010000	2444.085000	-22556.115000	-24909.840000	-4.007346	-6.364262	-3.991788	-9.332576	-2.016357	8.200084	4.802054	-1.440096	34.014540	43.353660	-26.766040	-0.829893	0.116455	0.499388	-1.000000	-1.000000	-1.000000	-1.000000	-1.000000	-1.000000	-1.000000	57.000000	0.000000	-1.000000	-1.000000	2169966.000000	1776580743.042208
-12003.030000	-10709.550000	-4267.440000	12380.580000	6518.835000	2441.205000	-22561.110000	-24915.015000	3.139983	1.524524	5.922608	0.841204	-9.212594	-2.480877	5.203817	4.204449	34.014540	43.353660	-26.766040	-0.829893	0.116455	0.499388	-1.000000	-1.000000	-1.000000	-1.000000	-1.000000	-1.000000	-1.000000	57.000000	0.000000	-1.000000	-1.000000	2169967.000000	1776580743.042219
-12005.505000	-10713.330000	-4259.655000	12391.470000	6524.820000	2430.765000	-22571.370000	-24921.855000	7.595547	7.182439	12.208421	9.903191	-12.229238	-10.895042	3.127563	6.925751	34.014540	43.353660	-26.766040	-0.829893	0.116455	0.499388	-1.000000	-1.000000	-1.000000	-1.000000	-1.000000	-1.000000	-1.000000	57.000000	0.000000	-1.000000	-1.000000	2169968.000000	1776580743.046028
-11996.550000	-10698.795000	-4248.495000	12424.725000	6540.660000	2400.435000	-22593.240000	-24921.765000	7.573275	8.125787	12.710545	14.397537	-9.614880	-14.595554	-1.170505	5.460130	34.014540	43.353660	-26.766040	-0.829893	0.116455	0.499388	-1.000000	-1.000000	-1.000000	-1.000000	-1.000000	-1.000000	-1.000000	57.000000	0.000000	-1.000000	-1.000000	2169969.000000	1776580743.046035
-11996.595000	-10697.940000	-4255.245000	12416.895000	6534.945000	2392.560000	-22604.445000	-24921.585000	4.956952	6.261855	9.150538	14.975165	-2.416342	-14.543028	-6.510599	1.578999	34.014540	43.353660	-26.766040	-0.829893	0.116455	0.499388	-1.000000	-1.000000	-1.000000	-1.000000	-1.000000	-1.000000	-1.000000	57.000000	0.000000	-1.000000	-1.000000	2169970.000000	1776580743.050206
-12011.580000	-10725.795000	-4298.805000	12333.195000	6451.560000	2381.310000	-22589.685000	-24922.350000	1.865795	3.525534	2.845256	10.360429	3.774226	-11.541785	-9.849481	-1.790050	34.014540	43.353660	-26.766040	-0.829893	0.116455	0.499388	-1.000000	-1.000000	-1.000000	-1.000000	-1.000000	-1.000000	-1.000000	57.000000	0.000000	-1.000000	-1.000000	2169971.000000	1776580743.050219
-12007.935000	-10722.465000	-4295.835000	12341.970000	6460.425000	2399.265000	-22576.005000	-24919.245000	-1.216910	-0.355675	-5.776413	-2.063544	2.446448	-5.065761	-7.504875	-2.925854	18.846100	38.974040	-20.158460	-0.840269	0.170593	0.490111	-1.000000	-1.000000	-1.000000	-1.000000	-1.000000	-1.000000	-1.000000	57.000000	0.000000	-1.000000	-1.000000	2169972.000000	1776580743.054112
-12002.040000	-10707.165000	-4273.830000	12372.210000	6484.320000	2386.620000	-22578.480000	-24918.255000	-3.586641	-4.300206	-12.824756	-16.366973	-3.816165	4.456428	0.676852	-1.884611	18.846100	38.974040	-20.158460	-0.840269	0.170593	0.490111	-1.000000	-1.000000	-1.000000	-1.000000	-1.000000	-1.000000	-1.000000	57.000000	0.000000	-1.000000	-1.000000	2169973.000000	1776580743.054129
-11999.655000	-10704.465000	-4266.135000	12385.080000	6495.885000	2389.995000	-22571.190000	-24916.995000	-3.794018	-5.075044	-12.244066	-20.061319	-4.804023	13.591180	9.758952	0.145252	18.846100	38.974040	-20.158460	-0.840269	0.170593	0.490111	-1.000000	-1.000000	-1.000000	-1.000000	-1.000000	-1.000000	-1.000000	57.000000	0.000000	-1.000000	-1.000000	2169974.000000	1776580743.058139
-11989.125000	-10693.530000	-4255.470000	12397.455000	6512.175000	2422.845000	-22562.505000	-24912.630000	-1.586372	-1.729882	-3.349165	-9.125347	3.647793	18.574884	14.252454	1.809487	18.846100	38.974040	-20.158460	-0.840269	0.170593	0.490111	-1.000000	-1.000000	-1.000000	-1.000000	-1.000000	-1.000000	-1.000000	57.000000	0.000000	-1.000000	-1.000000	2169975.000000	1776580743.058156
-11991.420000	-10697.220000	-4257.765000	12394.935000	6520.545000	2446.785000	-22560.345000	-24911.820000	1.557240	2.973029	7.661934	7.783844	15.479911	19.173811	12.445766	2.392011	18.846100	38.974040	-20.158460	-0.840269	0.170593	0.490111	-1.000000	-1.000000	-1.000000	-1.000000	-1.000000	-1.000000	-1.000000	57.000000	0.000000	-1.000000	-1.000000	2169976.000000	1776580743.062027
-11992.050000	-10699.695000	-4257.945000	12399.615000	6524.190000	2432.160000	-22571.730000	-24911.955000	3.438864	5.313046	13.522608	18.846813	21.801791	16.193622	5.768643	1.808965	18.846100	38.974040	-20.158460	-0.840269	0.170593	0.490111	-1.000000	-1.000000	-1.000000	-1.000000	-1.000000	-1.000000	-1.000000	57.000000	0.000000	-1.000000	-1.000000	2169977.000000	1776580743.062046
-11993.040000	-10699.830000	-4262.625000	12405.960000	6528.330000	2432.205000	-22581.360000	-24915.240000	2.673538	3.573360	11.211529	18.472019	18.000566	8.401433	-3.281280	0.272813	18.846100	38.974040	-20.158460	-0.840269	0.170593	0.490111	-1.000000	-1.000000	-1.000000	-1.000000	-1.000000	-1.000000	-1.000000	57.000000	0.000000	-1.000000	-1.000000	2169978.000000	1776580743.066166
-12004.290000	-10710.855000	-4282.290000	12393.315000	6522.570000	2434.635000	-22581.180000	-24922.215000	-0.346228	-1.001458	2.715757	8.970503	5.889869	-3.801541	-11.442017	-1.810152	18.846100	38.974040	-20.158460	-0.840269	0.170593	0.490111	-1.000000	-1.000000	-1.000000	-1.000000	-1.000000	-1.000000	-1.000000	57.000000	0.000000	-1.000000	-1.000000	2169979.000000	1776580743.066178
-12003.075000	-10710.180000	-4266.945000	12387.780000	6503.445000	2400.930000	-22578.120000	-24916.455000	-3.987137	-5.695619	-7.050208	-3.803109	-8.960422	-16.236086	-15.056054	-3.640708	18.846100	38.974040	-20.158460	-0.840269	0.170593	0.490111	-1.000000	-1.000000	-1.000000	-1.000000	-1.000000	-1.000000	-1.000000	57.000000	0.000000	-1.000000	-1.000000	2169980.000000	1776580743.070233
-11993.310000	-10695.240000	-4232.070000	12424.095000	6520.905000	2405.790000	-22578.525000	-24914.565000	-5.962533	-7.682492	-11.861935	-13.428720	-20.451802	-24.347624	-12.308445	-3.973384	18.846100	38.974040	-20.158460	-0.840269	0.170593	0.490111	-1.000000	-1.000000	-1.000000	-1.000000	-1.000000	-1.000000	-1.000000	57.000000	0.000000	-1.000000	-1.000000	2169981.000000	1776580743.070244
-11978.055000	-10690.065000	-4254.120000	12424.635000	6549.705000	2467.620000	-22553.280000	-24900.030000	-4.250527	-5.183275	-8.390651	-14.759694	-23.042530	-23.725802	-4.491031	-1.975295	-9.110220	36.211980	-12.986260	-0.855589	0.210754	0.479064	-1.000000	-1.000000	-1.000000	-1.000000	-1.000000	-1.000000	-1.000000	57.000000	0.000000	-1.000000	-1.000000	2169982.000000	1776580743.074855
-11983.095000	-10710.990000	-4307.040000	12362.985000	6513.930000	2468.475000	-22547.115000	-24893.865000	0.716975	0.158853	-1.695190	-9.381736	-15.499063	-11.527068	5.230386	1.830789	-9.110220	36.211980	-12.986260	-0.855589	0.210754	0.479064	-1.000000	-1.000000	-1.000000	-1.000000	-1.000000	-1.000000	-1.000000	57.000000	0.000000	-1.000000	-1.000000	2169983.000000	1776580743.074881
-11983.050000	-10696.455000	-4266.090000	12394.665000	6516.045000	2452.635000	-22555.980000	-24898.185000	5.435241	4.120887	0.551519	-4.591596	-4.119821	6.500357	12.505857	5.325429	-9.110220	36.211980	-12.986260	-0.855589	0.210754	0.479064	-1.000000	-1.000000	-1.000000	-1.000000	-1.000000	-1.000000	-1.000000	57.000000	0.000000	-1.000000	-1.000000	2169984.000000	1776580743.078298
-11986.425000	-10682.055000	-4228.830000	12428.955000	6520.635000	2431.350000	-22564.890000	-24904.800000	6.411557	5.044875	-0.129496	-2.097998	3.824432	17.703813	13.053782	5.770060	-9.110220	36.211980	-12.986260	-0.855589	0.210754	0.479064	-1.000000	-1.000000	-1.000000	-1.000000	-1.000000	-1.000000	-1.000000	57.000000	0.000000	-1.000000	-1.000000	2169985.000000	1776580743.078305
-11990.925000	-10692.315000	-4247.595000	12378.555000	6499.395000	2426.130000	-22562.280000	-24905.925000	3.239833	4.483391	2.622097	1.741139	6.623870	15.059579	6.408899	2.269169	-9.110220	36.211980	-12.986260	-0.855589	0.210754	0.479064	-1.000000	-1.000000	-1.000000	-1.000000	-1.000000	-1.000000	-1.000000	57.000000	0.000000	-1.000000	-1.000000	2169986.000000	1776580743.082242
-11993.265000	-10704.915000	-4264.965000	12361.095000	6494.445000	2432.835000	-22548.510000	-24901.155000	-1.754508	2.832921	7.288548	5.069943	5.625775	3.313832	-2.619072	-2.886964	-9.110220	36.211980	-12.986260	-0.855589	0.210754	0.479064	-1.000000	-1.000000	-1.000000	-1.000000	-1.000000	-1.000000	-1.000000	57.000000	0.000000	-1.000000	-1.000000	2169987.000000	1776580743.082250
-11995.965000	-10706.490000	-4262.805000	12378.060000	6501.645000	2414.160000	-22559.310000	-24905.655000	-5.601859	-0.650510	7.372175	3.975171	3.044660	-7.505085	-8.204350	-6.233083	-9.110220	36.211980	-12.986260	-0.855589	0.210754	0.479064	-1.000000	-1.000000	-1.000000	-1.000000	-1.000000	-1.000000	-1.000000	57.000000	0.000000	-1.000000	-1.000000	2169988.000000	1776580743.086430
-11998.215000	-10711.980000	-4275.540000	12375.945000	6501.645000	2397.555000	-22573.530000	-24909.165000	-6.471851	-4.743762	1.689720	1.029202	1.787378	-11.680037	-8.877397	-6.261391	-9.110220	36.211980	-12.986260	-0.855589	0.210754	0.479064	-1.000000	-1.000000	-1.000000	-1.000000	-1.000000	-1.000000	-1.000000	57.000000	0.000000	-1.000000	-1.000000	2169989.000000	1776580743.086453
-11994.840000	-10701.630000	-4271.175000	12377.070000	6495.255000	2403.765000	-22578.570000	-24907.725000	-4.315073	-6.655705	-5.296499	0.713942	2.864957	-9.538624	-7.097627	-3.865224	-9.110220	36.211980	-12.986260	-0.855589	0.210754	0.479064	-1.000000	-1.000000	-1.000000	-1.000000	-1.000000	-1.000000	-1.000000	57.000000	0.000000	-1.000000	-1.000000	2169990.000000	1776580743.090337
-11999.295000	-10697.400000	-4263.840000	12382.335000	6501.555000	2437.560000	-22578.345000	-24915.420000	-0.438374	-4.597540	-8.623106	3.262327	4.591781	-2.613475	-4.724648	-0.694872	-9.110220	36.211980	-12.986260	-0.855589	0.210754	0.479064	-1.000000	-1.000000	-1.000000	-1.000000	-1.000000	-1.000000	-1.000000	57.000000	0.000000	-1.000000	-1.000000	2169991.000000	1776580743.090358
-11985.480000	-10687.005000	-4245.480000	12414.510000	6538.230000	2473.380000	-22566.015000	-24905.430000	3.432591	0.662278	-5.942857	6.680243	5.841285	8.163648	-1.394993	2.008391	-37.127580	31.267740	-6.256600	-0.864683	0.221130	0.474059	-1.000000	-1.000000	-1.000000	-1.000000	-1.000000	-1.000000	-1.000000	57.000000	0.000000	-1.000000	-1.000000	2169992.000000	1776580743.094226
-11975.310000	-10679.895000	-4229.280000	12446.640000	6542.460000	2457.810000	-22551.750000	-24895.035000	6.323106	6.283022	1.437745	10.011499	7.229667	18.957423	3.597555	4.091285	-37.127580	31.267740	-6.256600	-0.864683	0.221130	0.474059	-1.000000	-1.000000	-1.000000	-1.000000	-1.000000	-1.000000	-1.000000	57.000000	0.000000	-1.000000	-1.000000	2169993.000000	1776580743.094239
-11982.150000	-10698.030000	-4256.730000	12381.615000	6514.785000	2440.530000	-22548.510000	-24896.745000	7.637543	8.884785	8.661938	10.965713	7.336558	21.961636	9.159663	5.763041	-37.127580	31.267740	-6.256600	-0.864683	0.221130	0.474059	-1.000000	-1.000000	-1.000000	-1.000000	-1.000000	-1.000000	-1.000000	57.000000	0.000000	-1.000000	-1.000000	2169994.000000	1776580743.098184
-11990.115000	-10708.020000	-4248.495000	12378.915000	6512.580000	2446.560000	-22556.790000	-24903.630000	6.088306	6.104268	10.018815	4.569497	2.583366	12.655528	12.056501	6.008372	-37.127580	31.267740	-6.256600	-0.864683	0.221130	0.474059	-1.000000	-1.000000	-1.000000	-1.000000	-1.000000	-1.000000	-1.000000	57.000000	0.000000	-1.000000	-1.000000	2169995.000000	1776580743.098201
-11988.765000	-10706.805000	-4252.905000	12396.735000	6522.345000	2436.210000	-22563.675000	-24903.270000	1.282640	-1.012132	4.455524	-8.475184	-6.356092	-3.971886	9.373032	3.575582	-37.127580	31.267740	-6.256600	-0.864683	0.221130	0.474059	-1.000000	-1.000000	-1.000000	-1.000000	-1.000000	-1.000000	-1.000000	57.000000	0.000000	-1.000000	-1.000000	2169996.000000	1776580743.102175
-11979.000000	-10698.345000	-4273.965000	12392.550000	6521.580000	2442.375000	-22554.090000	-24892.830000	-4.281874	-7.572256	-3.859844	-18.692032	-13.432867	-18.020175	1.927960	-0.555207	-37.127580	31.267740	-6.256600	-0.864683	0.221130	0.474059	-1.000000	-1.000000	-1.000000	-1.000000	-1.000000	-1.000000	-1.000000	57.000000	0.000000	-1.000000	-1.000000	2169997.000000	1776580743.102184
-11971.845000	-10681.650000	-4259.835000	12387.060000	6509.385000	2451.510000	-22551.615000	-24888.915000	-6.911523	-8.677568	-10.183444	-18.889541	-14.234012	-22.469174	-5.666382	-3.575012	-37.127580	31.267740	-6.256600	-0.864683	0.221130	0.474059	-1.000000	-1.000000	-1.000000	-1.000000	-1.000000	-1.000000	-1.000000	57.000000	0.000000	-1.000000	-1.000000	2169998.000000	1776580743.106282
-11965.905000	-10667.655000	-4242.870000	12395.205000	6504.570000	2444.805000	-22559.940000	-24886.620000	-5.212589	-3.404729	-10.897868	-10.579199	-9.834233	-16.583245	-9.353801	-3.862163	-37.127580	31.267740	-6.256600	-0.864683	0.221130	0.474059	-1.000000	-1.000000	-1.000000	-1.000000	-1.000000	-1.000000	-1.000000	57.000000	0.000000	-1.000000	-1.000000	2169999.000000	1776580743.106291
-11966.670000	-10670.715000	-4241.655000	12401.100000	6514.155000	2432.295000	-22568.580000	-24886.350000	-1.126731	4.478064	-4.945915	0.695312	-3.456436	-5.614116	-8.970878	-2.312612	-37.127580	31.267740	-6.256600	-0.864683	0.221130	0.474059	-1.000000	-1.000000	-1.000000	-1.000000	-1.000000	-1.000000	-1.000000	57.000000	0.000000	-1.000000	-1.000000	2170000.000000	1776580743.110341
-11969.190000	-10675.755000	-4241.880000	12408.435000	6525.135000	2417.580000	-22570.380000	-24888.240000	2.051036	9.118515	3.870796	10.036639	3.116051	3.329604	-6.597358	-0.824651	-37.127580	31.267740	-6.256600	-0.864683	0.221130	0.474059	-1.000000	-1.000000	-1.000000	-1.000000	-1.000000	-1.000000	-1.000000	57.000000	0.000000	-1.000000	-1.000000	2170001.000000	1776580743.110350
-11977.380000	-10683.945000	-4241.070000	12431.700000	6528.645000	2426.355000	-22567.230000	-24893.550000	2.209608	7.061611	9.643522	14.806353	8.895399	6.842411	-3.492804	-0.595622	-58.903600	26.354020	-1.098720	-0.866697	0.211181	0.469908	-1.000000	-1.000000	-1.000000	-1.000000	-1.000000	-1.000000	-1.000000	57.000000	0.000000	-1.000000	-1.000000	2170002.000000	1776580743.114449
-11977.425000	-10681.065000	-4240.035000	12427.515000	6538.365000	2481.300000	-22552.200000	-24893.460000	-0.331124	-0.068957	9.464716	14.655304	12.215775	7.686005	0.446097	-1.526353	-58.903600	26.354020	-1.098720	-0.866697	0.211181	0.469908	-1.000000	-1.000000	-1.000000	-1.000000	-1.000000	-1.000000	-1.000000	57.000000	0.000000	-1.000000	-1.000000	2170003.000000	1776580743.114459
-11971.395000	-10683.045000	-4258.755000	12376.215000	6521.535000	2473.110000	-22548.690000	-24887.745000	-3.149683	-7.215789	4.354036	9.084972	11.318805	10.416323	5.152206	-2.348141	-58.903600	26.354020	-1.098720	-0.866697	0.211181	0.469908	-1.000000	-1.000000	-1.000000	-1.000000	-1.000000	-1.000000	-1.000000	57.000000	0.000000	-1.000000	-1.000000	2170004.000000	1776580743.118326
-11972.655000	-10686.825000	-4255.920000	12393.720000	6515.325000	2417.355000	-22555.620000	-24886.440000	-3.698548	-10.162603	-2.768573	-1.949200	5.613036	12.759119	8.802092	-1.688172	-58.903600	26.354020	-1.098720	-0.866697	0.211181	0.469908	-1.000000	-1.000000	-1.000000	-1.000000	-1.000000	-1.000000	-1.000000	57.000000	0.000000	-1.000000	-1.000000	2170005.000000	1776580743.118335
-11984.760000	-10699.515000	-4266.135000	12387.960000	6505.200000	2407.815000	-22559.085000	-24893.415000	-1.823845	-8.402748	-8.369871	-13.301537	-3.043410	7.383538	8.694155	0.309411	-58.903600	26.354020	-1.098720	-0.866697	0.211181	0.469908	-1.000000	-1.000000	-1.000000	-1.000000	-1.000000	-1.000000	-1.000000	57.000000	0.000000	-1.000000	-1.000000	2170006.000000	1776580743.122259
-11982.825000	-10693.170000	-4257.720000	12392.235000	6507.135000	2432.160000	-22557.420000	-24894.135000	0.440346	-4.079219	-9.652315	-17.423633	-10.432742	-5.108930	4.343215	2.006706	-58.903600	26.354020	-1.098720	-0.866697	0.211181	0.469908	-1.000000	-1.000000	-1.000000	-1.000000	-1.000000	-1.000000	-1.000000	57.000000	0.000000	-1.000000	-1.000000	2170007.000000	1776580743.122267
-11981.970000	-10687.680000	-4247.955000	12402.900000	6515.730000	2433.240000	-22566.690000	-24897.420000	1.746865	0.953761	-5.891848	-11.995250	-12.448538	-14.376240	-1.728317	2.226111	-58.903600	26.354020	-1.098720	-0.866697	0.211181	0.469908	-1.000000	-1.000000	-1.000000	-1.000000	-1.000000	-1.000000	-1.000000	57.000000	0.000000	-1.000000	-1.000000	2170008.000000	1776580743.126274
-11974.230000	-10682.100000	-4241.430000	12412.755000	6523.155000	2414.520000	-22569.210000	-24891.210000	2.540226	5.793733	1.266527	-0.677339	-7.841101	-13.581867	-6.488281	1.400236	-58.903600	26.354020	-1.098720	-0.866697	0.211181	0.469908	-1.000000	-1.000000	-1.000000	-1.000000	-1.000000	-1.000000	-1.000000	57.000000	0.000000	-1.000000	-1.000000	2170009.000000	1776580743.126279
-11966.715000	-10681.155000	-4236.480000	12416.445000	6514.560000	2402.460000	-22560.750000	-24881.670000	3.607887	9.206190	8.235809	10.394511	0.505635	-6.177024	-8.005183	0.937663	-58.903600	26.354020	-1.098720	-0.866697	0.211181	0.469908	-1.000000	-1.000000	-1.000000	-1.000000	-1.000000	-1.000000	-1.000000	57.000000	0.000000	-1.000000	-1.000000	2170010.000000	1776580743.131772
-11961.540000	-10680.255000	-4235.220000	12418.245000	6510.960000	2409.750000	-22563.630000	-24878.340000	4.819886	9.675875	11.364908	15.839429	7.224054	1.142843	-5.699380	1.719732	-58.903600	26.354020	-1.098720	-0.866697	0.211181	0.469908	-1.000000	-1.000000	-1.000000	-1.000000	-1.000000	-1.000000	-1.000000	57.000000	0.000000	-1.000000	-1.000000	2170011.000000	1776580743.131780
-11960.955000	-10682.280000	-4268.070000	12409.425000	6517.755000	2450.475000	-22556.565000	-24878.970000	5.084904	6.718967	8.624111	13.499649	8.851878	6.377958	-0.909017	2.934680	-58.827300	25.301080	0.549360	-0.865843	0.188232	0.462279	-1.000000	-1.000000	-1.000000	-1.000000	-1.000000	-1.000000	-1.000000	57.000000	0.000000	-1.000000	-1.000000	2170012.000000	1776580743.134464
-11974.545000	-10691.325000	-4279.770000	12395.970000	6517.665000	2463.525000	-22543.515000	-24884.145000	3.105494	1.350139	0.269650	4.896514	6.228936	11.313631	4.025396	2.773483	-58.827300	25.301080	0.549360	-0.865843	0.188232	0.462279	-1.000000	-1.000000	-1.000000	-1.000000	-1.000000	-1.000000	-1.000000	57.000000	0.000000	-1.000000	-1.000000	2170013.000000	1776580743.134473
-11979.540000	-10688.355000	-4254.480000	12389.220000	6497.055000	2439.090000	-22548.645000	-24887.970000	-1.426841	-4.376347	-9.262215	-5.840292	1.854988	14.828684	7.217675	0.359625	-58.827300	25.301080	0.549360	-0.865843	0.188232	0.462279	-1.000000	-1.000000	-1.000000	-1.000000	-1.000000	-1.000000	-1.000000	57.000000	0.000000	-1.000000	-1.000000	2170014.000000	1776580743.138397
-11977.515000	-10672.920000	-4226.760000	12420.900000	6502.320000	2431.755000	-22560.435000	-24894.090000	-6.626912	-7.704224	-12.312550	-13.008673	-2.718809	11.970637	7.008134	-3.328539	-58.827300	25.301080	0.549360	-0.865843	0.188232	0.462279	-1.000000	-1.000000	-1.000000	-1.000000	-1.000000	-1.000000	-1.000000	57.000000	0.000000	-1.000000	-1.000000	2170015.000000	1776580743.138409
-11972.070000	-10671.390000	-4229.910000	12424.410000	6507.900000	2431.035000	-22563.945000	-24889.725000	-9.108887	-6.618260	-5.578158	-11.957202	-5.724329	1.506988	2.738055	-6.128811	-58.827300	25.301080	0.549360	-0.865843	0.188232	0.462279	-1.000000	-1.000000	-1.000000	-1.000000	-1.000000	-1.000000	-1.000000	57.000000	0.000000	-1.000000	-1.000000	2170016.000000	1776580743.142428
-11969.415000	-10679.940000	-4253.760000	12366.360000	6480.900000	2423.295000	-22559.445000	-24881.445000	-6.922220	-2.358163	4.797901	-4.765636	-5.734974	-10.813278	-3.351015	-5.985741	-58.827300	25.301080	0.549360	-0.865843	0.188232	0.462279	-1.000000	-1.000000	-1.000000	-1.000000	-1.000000	-1.000000	-1.000000	57.000000	0.000000	-1.000000	-1.000000	2170017.000000	1776580743.142440
-11974.770000	-10684.215000	-4252.725000	12379.995000	6481.440000	2415.690000	-22566.105000	-24886.710000	-1.506356	1.241176	9.461912	0.628859	-3.935835	-18.076694	-7.380542	-2.580616	-58.827300	25.301080	0.549360	-0.865843	0.188232	0.462279	-1.000000	-1.000000	-1.000000	-1.000000	-1.000000	-1.000000	-1.000000	57.000000	0.000000	-1.000000	-1.000000	2170018.000000	1776580743.146307
-11970.270000	-10679.715000	-4247.145000	12391.830000	6499.440000	2424.960000	-22561.200000	-24884.640000	3.670601	1.865686	5.904758	1.189116	-1.616117	-17.276846	-7.290883	1.920051	-58.827300	25.301080	0.549360	-0.865843	0.188232	0.462279	-1.000000	-1.000000	-1.000000	-1.000000	-1.000000	-1.000000	-1.000000	57.000000	0.000000	-1.000000	-1.000000	2170019.000000	1776580743.146314
-11964.285000	-10671.570000	-4235.220000	12409.875000	6514.920000	2423.745000	-22555.170000	-24880.185000	6.273455	0.718513	-0.584360	1.577303	2.198736	-9.477302	-3.671678	4.874855	-58.827300	25.301080	0.549360	-0.865843	0.188232	0.462279	-1.000000	-1.000000	-1.000000	-1.000000	-1.000000	-1.000000	-1.000000	57.000000	0.000000	-1.000000	-1.000000	2170020.000000	1776580743.150671
-11965.185000	-10670.940000	-4229.145000	12420.810000	6509.745000	2402.775000	-22568.175000	-24884.145000	6.211964	0.164001	-4.023138	5.366087	7.336833	0.892464	1.228387	5.298011	-58.827300	25.301080	0.549360	-0.865843	0.188232	0.462279	-1.000000	-1.000000	-1.000000	-1.000000	-1.000000	-1.000000	-1.000000	57.000000	0.000000	-1.000000	-1.000000	2170021.000000	1776580743.150679
-11962.980000	-10673.820000	-4233.420000	12420.630000	6503.715000	2394.405000	-22573.305000	-24879.870000	4.286439	0.740407	-3.084215	10.348337	10.266244	8.011328	4.353671	3.622686	-41.552980	23.012080	0.396760	-0.867857	0.157775	0.453612	-1.000000	-1.000000	-1.000000	-1.000000	-1.000000	-1.000000	-1.000000	57.000000	0.000000	-1.000000	-1.000000	2170022.000000	1776580743.154399
-11955.015000	-10664.685000	-4221.540000	12444.435000	6528.915000	2412.090000	-22575.870000	-24875.370000	1.527284	1.385794	-0.348452	12.141439	8.266234	9.542696	4.066544	1.092171	-41.552980	23.012080	0.396760	-0.867857	0.157775	0.453612	-1.000000	-1.000000	-1.000000	-1.000000	-1.000000	-1.000000	-1.000000	57.000000	0.000000	-1.000000	-1.000000	2170023.000000	1776580743.154410
-11952.315000	-10658.115000	-4213.080000	12448.980000	6560.280000	2464.605000	-22554.495000	-24872.940000	-0.793017	1.585820	1.739391	9.144349	3.677651	9.121756	2.026973	-0.844721	-41.552980	23.012080	0.396760	-0.867857	0.157775	0.453612	-1.000000	-1.000000	-1.000000	-1.000000	-1.000000	-1.000000	-1.000000	57.000000	0.000000	-1.000000	-1.000000	2170024.000000	1776580743.158320
-11968.200000	-10679.040000	-4241.745000	12405.960000	6544.980000	2492.505000	-22531.995000	-24877.980000	-2.314824	1.177404	1.958605	1.974776	0.322859	11.625622	1.711709	-1.721493	-41.552980	23.012080	0.396760	-0.867857	0.157775	0.453612	-1.000000	-1.000000	-1.000000	-1.000000	-1.000000	-1.000000	-1.000000	57.000000	0.000000	-1.000000	-1.000000	2170025.000000	1776580743.158333
-11976.390000	-10694.745000	-4259.700000	12386.655000	6497.010000	2453.580000	-22542.750000	-24882.255000	-4.010761	-0.938122	-1.019601	-8.839328	-3.040242	15.165928	4.141470	-2.230847	-41.552980	23.012080	0.396760	-0.867857	0.157775	0.453612	-1.000000	-1.000000	-1.000000	-1.000000	-1.000000	-1.000000	-1.000000	57.000000	0.000000	-1.000000	-1.000000	2170026.000000	1776580743.162339
-11974.410000	-10695.690000	-4265.955000	12371.175000	6478.110000	2438.910000	-22544.055000	-24878.790000	-6.011732	-4.819582	-6.625296	-20.147629	-10.239000	11.489188	5.880804	-2.850497	-41.552980	23.012080	0.396760	-0.867857	0.157775	0.453612	-1.000000	-1.000000	-1.000000	-1.000000	-1.000000	-1.000000	-1.000000	57.000000	0.000000	-1.000000	-1.000000	2170027.000000	1776580743.162349
-11980.035000	-10699.515000	-4264.020000	12380.085000	6484.410000	2428.470000	-22549.500000	-24884.685000	-6.574422	-7.656977	-10.631980	-25.129631	-19.031783	-2.626813	3.310315	-3.082801	-41.552980	23.012080	0.396760	-0.867857	0.157775	0.453612	-1.000000	-1.000000	-1.000000	-1.000000	-1.000000	-1.000000	-1.000000	57.000000	0.000000	-1.000000	-1.000000	2170028.000000	1776580743.166265
-11973.240000	-10690.965000	-4254.435000	12385.665000	6482.475000	2412.945000	-22555.620000	-24882.615000	-4.268866	-6.363603	-8.659583	-18.697321	-21.337420	-19.730928	-2.956202	-2.396482	-41.552980	23.012080	0.396760	-0.867857	0.157775	0.453612	-1.000000	-1.000000	-1.000000	-1.000000	-1.000000	-1.000000	-1.000000	57.000000	0.000000	-1.000000	-1.000000	2170029.000000	1776580743.166286
-11968.290000	-10683.630000	-4250.295000	12386.835000	6478.020000	2398.860000	-22563.540000	-24883.245000	0.487263	-0.621534	-0.498676	-2.750907	-12.857956	-29.486555	-9.273927	-0.870974	-41.552980	23.012080	0.396760	-0.867857	0.157775	0.453612	-1.000000	-1.000000	-1.000000	-1.000000	-1.000000	-1.000000	-1.000000	57.000000	0.000000	-1.000000	-1.000000	2170030.000000	1776580743.170434
-11970.810000	-10686.015000	-4254.840000	12393.990000	6494.400000	2412.585000	-22565.205000	-24885.270000	5.692771	6.747343	9.358125	14.667549	2.537963	-26.655179	-12.187918	0.980113	-41.552980	23.012080	0.396760	-0.867857	0.157775	0.453612	-1.000000	-1.000000	-1.000000	-1.000000	-1.000000	-1.000000	-1.000000	57.000000	0.000000	-1.000000	-1.000000	2170031.000000	1776580743.170450
-11977.605000	-10696.095000	-4263.210000	12397.275000	6495.930000	2433.150000	-22565.700000	-24888.780000	8.544788	11.289222	14.898409	25.299705	17.359536	-12.106446	-10.183632	2.334061	-15.122660	19.456500	-0.228900	-0.871885	0.135803	0.449889	-1.000000	-1.000000	-1.000000	-1.000000	-1.000000	-1.000000	-1.000000	57.000000	0.000000	-1.000000	-1.000000	2170032.000000	1776580743.174397
-11982.870000	-10705.410000	-4275.630000	12392.865000	6486.480000	2443.500000	-22560.750000	-24892.290000	7.246421	9.916484	12.878219	25.366484	25.071127	8.248364	-4.065810	2.531434	-15.122660	19.456500	-0.228900	-0.871885	0.135803	0.449889	-1.000000	-1.000000	-1.000000	-1.000000	-1.000000	-1.000000	-1.000000	57.000000	0.000000	-1.000000	-1.000000	2170033.000000	1776580743.174414
-11978.190000	-10693.800000	-4259.565000	12391.560000	6477.660000	2419.245000	-22568.220000	-24892.155000	2.762854	3.725846	5.218207	16.169476	22.321618	24.683050	3.431008	1.677304	-15.122660	19.456500	-0.228900	-0.871885	0.135803	0.449889	-1.000000	-1.000000	-1.000000	-1.000000	-1.000000	-1.000000	-1.000000	57.000000	0.000000	-1.000000	-1.000000	2170034.000000	1776580743.178284
-11970.540000	-10673.190000	-4232.205000	12394.485000	6476.040000	2401.740000	-22586.175000	-24892.605000	-1.672475	-2.306706	-1.996571	2.718483	10.956561	28.197368	8.531422	0.585503	-15.122660	19.456500	-0.228900	-0.871885	0.135803	0.449889	-1.000000	-1.000000	-1.000000	-1.000000	-1.000000	-1.000000	-1.000000	57.000000	0.000000	-1.000000	-1.000000	2170035.000000	1776580743.178298
-11968.605000	-10669.320000	-4229.010000	12408.030000	6493.050000	2408.085000	-22597.470000	-24893.055000	-3.317003	-3.805532	-3.712773	-8.645414	-2.377776	17.681935	8.496708	0.026582	-15.122660	19.456500	-0.228900	-0.871885	0.135803	0.449889	-1.000000	-1.000000	-1.000000	-1.000000	-1.000000	-1.000000	-1.000000	57.000000	0.000000	-1.000000	-1.000000	2170036.000000	1776580743.199153
-11964.105000	-10669.860000	-4231.080000	12413.655000	6491.970000	2403.135000	-22590.720000	-24886.170000	-2.111681	-1.348619	-1.013086	-13.481849	-10.659405	1.371735	4.296043	0.243400	-15.122660	19.456500	-0.228900	-0.871885	0.135803	0.449889	-1.000000	-1.000000	-1.000000	-1.000000	-1.000000	-1.000000	-1.000000	57.000000	0.000000	-1.000000	-1.000000	2170037.000000	1776580743.199169
-11978.100000	-10692.810000	-4256.370000	12391.245000	6484.905000	2430.180000	-22556.565000	-24888.465000	-0.255127	0.553551	0.513443	-12.103395	-11.755258	-10.284674	0.726720	1.012011	-15.122660	19.456500	-0.228900	-0.871885	0.135803	0.449889	-1.000000	-1.000000	-1.000000	-1.000000	-1.000000	-1.000000	-1.000000	57.000000	0.000000	-1.000000	-1.000000	2170038.000000	1776580743.199183
-11985.120000	-10704.870000	-4270.455000	12376.620000	6496.560000	2465.820000	-22534.605000	-24887.160000	-0.202210	-1.723139	-3.056672	-8.936557	-8.464061	-11.382862	2.283584	1.617845	-15.122660	19.456500	-0.228900	-0.871885	0.135803	0.449889	-1.000000	-1.000000	-1.000000	-1.000000	-1.000000	-1.000000	-1.000000	57.000000	0.000000	-1.000000	-1.000000	2170039.000000	1776580743.199187
-11986.920000	-10701.270000	-4262.265000	12386.385000	6492.330000	2454.705000	-22544.100000	-24890.535000	-2.357595	-7.038102	-9.738872	-7.141557	-4.119621	-3.442244	7.718444	1.272240	-15.122660	19.456500	-0.228900	-0.871885	0.135803	0.449889	-1.000000	-1.000000	-1.000000	-1.000000	-1.000000	-1.000000	-1.000000	57.000000	0.000000	-1.000000	-1.000000	2170040.000000	1776580743.199192
-11981.475000	-10696.365000	-4258.350000	12391.110000	6488.010000	2433.330000	-22547.880000	-24883.560000	-4.445386	-10.268492	-13.228162	-5.262254	-0.761522	4.835379	10.330906	0.011320	-15.122660	19.456500	-0.228900	-0.871885	0.135803	0.449889	-1.000000	-1.000000	-1.000000	-1.000000	-1.000000	-1.000000	-1.000000	57.000000	0.000000	-1.000000	-1.000000	2170041.000000	1776580743.199198
-11979.360000	-10689.480000	-4244.265000	12414.330000	6490.845000	2418.480000	-22556.115000	-24885.315000	-3.889936	-7.530682	-9.220414	-0.564784	0.600681	4.782144	5.310736	-1.252230	8.301440	16.053520	1.587040	-0.873289	0.124756	0.449706	-1.000000	-1.000000	-1.000000	-1.000000	-1.000000	-1.000000	-1.000000	57.000000	0.000000	-1.000000	-1.000000	2170042.000000	1776580743.199203
-11970.270000	-10680.075000	-4239.405000	12412.395000	6493.005000	2417.355000	-22563.135000	-24880.905000	-0.361943	0.259391	0.677020	6.586392	0.501917	-3.649018	-5.324646	-1.741372	8.301440	16.053520	1.587040	-0.873289	0.124756	0.449706	-1.000000	-1.000000	-1.000000	-1.000000	-1.000000	-1.000000	-1.000000	57.000000	0.000000	-1.000000	-1.000000	2170043.000000	1776580743.199207
-11976.165000	-10684.575000	-4245.030000	12407.220000	6489.135000	2404.395000	-22580.370000	-24890.355000	4.060672	8.557062	10.541867	12.145479	0.218593	-12.926052	-15.503837	-1.597039	8.301440	16.053520	1.587040	-0.873289	0.124756	0.449706	-1.000000	-1.000000	-1.000000	-1.000000	-1.000000	-1.000000	-1.000000	57.000000	0.000000	-1.000000	-1.000000	2170044.000000	1776580743.199212
-11981.070000	-10695.240000	-4265.910000	12370.275000	6478.875000	2384.820000	-22587.120000	-24893.640000	6.376104	12.329438	14.176907	11.255412	0.051761	-16.301325	-20.148076	-1.614976	8.301440	16.053520	1.587040	-0.873289	0.124756	0.449706	-1.000000	-1.000000	-1.000000	-1.000000	-1.000000	-1.000000	-1.000000	57.000000	0.000000	-1.000000	-1.000000	2170045.000000	1776580743.199216
-11980.440000	-10698.525000	-4271.490000	12360.150000	6456.285000	2364.435000	-22584.195000	-24889.275000	4.977493	9.336678	9.336359	2.655178	-0.844602	-12.838429	-17.228517	-2.011940	8.301440	16.053520	1.587040	-0.873289	0.124756	0.449706	-1.000000	-1.000000	-1.000000	-1.000000	-1.000000	-1.000000	-1.000000	57.000000	0.000000	-1.000000	-1.000000	2170046.000000	1776580743.211275
-11958.570000	-10674.450000	-4246.470000	12391.470000	6477.705000	2381.985000	-22557.600000	-24868.170000	1.498316	2.339423	0.187608	-8.130188	-2.425072	-4.986644	-7.276576	-1.498544	8.301440	16.053520	1.587040	-0.873289	0.124756	0.449706	-1.000000	-1.000000	-1.000000	-1.000000	-1.000000	-1.000000	-1.000000	57.000000	0.000000	-1.000000	-1.000000	2170047.000000	1776580743.211309
-11947.545000	-10663.515000	-4234.635000	12406.230000	6501.285000	2401.425000	-22557.105000	-24863.940000	-0.544810	-2.865937	-5.618531	-11.942797	-1.927187	5.477433	6.600856	1.229837	8.301440	16.053520	1.587040	-0.873289	0.124756	0.449706	-1.000000	-1.000000	-1.000000	-1.000000	-1.000000	-1.000000	-1.000000	57.000000	0.000000	-1.000000	-1.000000	2170048.000000	1776580743.211324
-11955.465000	-10667.790000	-4231.395000	12412.080000	6514.875000	2424.150000	-22554.045000	-24869.790000	0.031988	-3.332102	-4.373915	-5.376357	3.038583	16.860444	18.363058	4.785163	8.301440	16.053520	1.587040	-0.873289	0.124756	0.449706	-1.000000	-1.000000	-1.000000	-1.000000	-1.000000	-1.000000	-1.000000	57.000000	0.000000	-1.000000	-1.000000	2170049.000000	1776580743.211329
-11970.180000	-10678.545000	-4233.690000	12414.825000	6505.245000	2424.285000	-22555.755000	-24881.400000	0.460189	-1.652185	0.595363	5.597399	9.677872	25.048542	22.008973	5.598158	8.301440	16.053520	1.587040	-0.873289	0.124756	0.449706	-1.000000	-1.000000	-1.000000	-1.000000	-1.000000	-1.000000	-1.000000	57.000000	0.000000	-1.000000	-1.000000	2170050.000000	1776580743.211334
-11977.830000	-10689.120000	-4247.505000	12414.420000	6514.920000	2460.105000	-22555.845000	-24889.185000	-2.141208	-1.911398	3.418832	12.356337	12.025890	25.492235	16.132739	1.818841	8.301440	16.053520	1.587040	-0.873289	0.124756	0.449706	-1.000000	-1.000000	-1.000000	-1.000000	-1.000000	-1.000000	-1.000000	57.000000	0.000000	-1.000000	-1.000000	2170051.000000	1776580743.211339
-11972.655000	-10684.800000	-4240.395000	12437.280000	6514.605000	2442.735000	-22556.610000	-24883.155000	-6.624960	-4.733889	1.394808	11.292988	7.573559	17.233357	4.555497	-4.253773	16.816520	13.413540	4.867940	-0.872190	0.128235	0.447142	-1.000000	-1.000000	-1.000000	-1.000000	-1.000000	-1.000000	-1.000000	57.000000	0.000000	-1.000000	-1.000000	2170052.000000	1776580743.227757
-11976.030000	-10684.890000	-4246.245000	12416.580000	6502.635000	2451.735000	-22545.135000	-24885.810000	-8.964866	-7.071564	-3.298858	4.684696	-1.108466	2.882595	-6.601312	-8.102420	16.816520	13.413540	4.867940	-0.872190	0.128235	0.447142	-1.000000	-1.000000	-1.000000	-1.000000	-1.000000	-1.000000	-1.000000	57.000000	0.000000	-1.000000	-1.000000	2170053.000000	1776580743.227764
-11971.755000	-10693.395000	-4270.320000	12358.125000	6469.560000	2432.385000	-22542.255000	-24877.935000	-6.721744	-6.195025	-7.121232	-4.779506	-10.346185	-13.011361	-12.421991	-7.059889	16.816520	13.413540	4.867940	-0.872190	0.128235	0.447142	-1.000000	-1.000000	-1.000000	-1.000000	-1.000000	-1.000000	-1.000000	57.000000	0.000000	-1.000000	-1.000000	2170054.000000	1776580743.227774
-11971.080000	-10694.655000	-4263.210000	12381.480000	6476.265000	2425.095000	-22547.970000	-24875.370000	-0.993844	-2.539987	-8.509294	-15.183710	-17.165019	-25.185885	-11.933694	-2.005885	16.816520	13.413540	4.867940	-0.872190	0.128235	0.447142	-1.000000	-1.000000	-1.000000	-1.000000	-1.000000	-1.000000	-1.000000	57.000000	0.000000	-1.000000	-1.000000	2170055.000000	1776580743.227778
-11974.995000	-10694.565000	-4277.430000	12383.145000	6478.380000	2428.650000	-22550.130000	-24877.665000	5.019083	1.742622	-6.979818	-20.761922	-18.053335	-29.416454	-7.941606	3.874621	16.816520	13.413540	4.867940	-0.872190	0.128235	0.447142	-1.000000	-1.000000	-1.000000	-1.000000	-1.000000	-1.000000	-1.000000	57.000000	0.000000	-1.000000	-1.000000	2170056.000000	1776580743.227783
-11974.860000	-10687.095000	-4264.065000	12385.170000	6485.040000	2439.180000	-22552.380000	-24879.825000	8.268957	5.179382	-2.533337	-15.716822	-10.900913	-23.742442	-3.775439	7.191365	16.816520	13.413540	4.867940	-0.872190	0.128235	0.447142	-1.000000	-1.000000	-1.000000	-1.000000	-1.000000	-1.000000	-1.000000	57.000000	0.000000	-1.000000	-1.000000	2170057.000000	1776580743.227787
-11974.455000	-10680.570000	-4239.270000	12394.620000	6488.505000	2431.440000	-22559.130000	-24882.570000	7.735529	7.353272	4.144437	-2.000870	1.635658	-10.172630	-0.965615	6.450097	16.816520	13.413540	4.867940	-0.872190	0.128235	0.447142	-1.000000	-1.000000	-1.000000	-1.000000	-1.000000	-1.000000	-1.000000	57.000000	0.000000	-1.000000	-1.000000	2170058.000000	1776580743.236750
-11974.500000	-10681.965000	-4243.770000	12398.985000	6491.700000	2431.260000	-22562.505000	-24883.920000	4.632599	7.978217	11.375007	12.675180	13.414819	5.031137	0.448153	2.750054	16.816520	13.413540	4.867940	-0.872190	0.128235	0.447142	-1.000000	-1.000000	-1.000000	-1.000000	-1.000000	-1.000000	-1.000000	57.000000	0.000000	-1.000000	-1.000000	2170059.000000	1776580743.236767
-11973.465000	-10681.245000	-4242.870000	12403.080000	6492.150000	2430.720000	-22564.395000	-24885.315000	0.967966	6.449448	15.415882	21.210773	19.051440	15.334930	1.121387	-1.436646	16.816520	13.413540	4.867940	-0.872190	0.128235	0.447142	-1.000000	-1.000000	-1.000000	-1.000000	-1.000000	-1.000000	-1.000000	57.000000	0.000000	-1.000000	-1.000000	2170060.000000	1776580743.236775
-11976.345000	-10685.790000	-4244.940000	12402.135000	6489.000000	2423.745000	-22563.945000	-24885.270000	-1.800873	2.685903	12.885270	20.530458	16.742503	17.930016	1.872490	-3.982875	16.816520	13.413540	4.867940	-0.872190	0.128235	0.447142	-1.000000	-1.000000	-1.000000	-1.000000	-1.000000	-1.000000	-1.000000	57.000000	0.000000	-1.000000	-1.000000	2170061.000000	1776580743.236779
-11977.200000	-10694.340000	-4255.110000	12395.655000	6482.565000	2409.300000	-22562.775000	-24881.445000	-3.217292	-2.294726	4.391229	12.023710	8.406453	13.687538	3.069510	-4.029672	14.054460	11.887540	4.165980	-0.871458	0.146911	0.447509	-1.000000	-1.000000	-1.000000	-1.000000	-1.000000	-1.000000	-1.000000	57.000000	0.000000	-1.000000	-1.000000	2170062.000000	1776580743.236784
-11965.410000	-10684.080000	-4250.565000	12401.910000	6489.180000	2408.130000	-22568.985000	-24877.395000	-3.230973	-6.565072	-5.910428	0.165794	-1.709497	5.632665	4.231762	-1.953007	14.054460	11.887540	4.165980	-0.871458	0.146911	0.447509	-1.000000	-1.000000	-1.000000	-1.000000	-1.000000	-1.000000	-1.000000	57.000000	0.000000	-1.000000	-1.000000	2170063.000000	1776580743.236789
-11964.465000	-10668.780000	-4229.550000	12421.260000	6503.310000	2411.415000	-22579.830000	-24884.685000	-1.755312	-7.619999	-12.597875	-9.268304	-8.738677	-1.923008	4.188441	0.823921	14.054460	11.887540	4.165980	-0.871458	0.146911	0.447509	-1.000000	-1.000000	-1.000000	-1.000000	-1.000000	-1.000000	-1.000000	57.000000	0.000000	-1.000000	-1.000000	2170064.000000	1776580743.238654
-11987.595000	-10701.090000	-4253.220000	12410.460000	6492.015000	2391.255000	-22576.185000	-24892.290000	0.061512	-4.921459	-12.529775	-12.362683	-10.025735	-5.709979	2.355997	2.278571	14.054460	11.887540	4.165980	-0.871458	0.146911	0.447509	-1.000000	-1.000000	-1.000000	-1.000000	-1.000000	-1.000000	-1.000000	57.000000	0.000000	-1.000000	-1.000000	2170065.000000	1776580743.238666
-11984.985000	-10714.680000	-4277.700000	12385.080000	6456.465000	2352.645000	-22581.810000	-24885.675000	0.009684	-1.949722	-8.326962	-10.511327	-7.822791	-6.446596	-0.159664	1.508708	14.054460	11.887540	4.165980	-0.871458	0.146911	0.447509	-1.000000	-1.000000	-1.000000	-1.000000	-1.000000	-1.000000	-1.000000	57.000000	0.000000	-1.000000	-1.000000	2170066.000000	1776580743.242622
-11971.530000	-10693.080000	-4261.590000	12394.485000	6456.015000	2356.380000	-22582.890000	-24882.750000	-1.668850	-1.412731	-4.677991	-7.998447	-6.570084	-6.760096	-1.753290	-0.083638	14.054460	11.887540	4.165980	-0.871458	0.146911	0.447509	-1.000000	-1.000000	-1.000000	-1.000000	-1.000000	-1.000000	-1.000000	57.000000	0.000000	-1.000000	-1.000000	2170067.000000	1776580743.242638
-11973.330000	-10675.080000	-4237.605000	12393.900000	6446.475000	2375.370000	-22572.495000	-24888.330000	-2.067447	-0.708878	-1.503790	-5.987158	-6.868956	-5.790734	-1.663091	-0.713293	14.054460	11.887540	4.165980	-0.871458	0.146911	0.447509	-1.000000	-1.000000	-1.000000	-1.000000	-1.000000	-1.000000	-1.000000	57.000000	0.000000	-1.000000	-1.000000	2170068.000000	1776580743.246443
-11972.610000	-10680.210000	-4243.590000	12393.990000	6473.925000	2431.170000	-22556.115000	-24884.505000	-0.058114	3.083472	3.736543	-2.807470	-5.149784	0.456522	0.351757	-0.305826	14.054460	11.887540	4.165980	-0.871458	0.146911	0.447509	-1.000000	-1.000000	-1.000000	-1.000000	-1.000000	-1.000000	-1.000000	57.000000	0.000000	-1.000000	-1.000000	2170069.000000	1776580743.246451
-11977.290000	-10689.795000	-4258.395000	12396.105000	6497.505000	2469.105000	-22556.205000	-24889.680000	2.417435	7.508454	9.206858	1.807048	1.623648	12.982941	3.594967	0.259733	14.054460	11.887540	4.165980	-0.871458	0.146911	0.447509	-1.000000	-1.000000	-1.000000	-1.000000	-1.000000	-1.000000	-1.000000	57.000000	0.000000	-1.000000	-1.000000	2170070.000000	1776580743.250575
-11977.605000	-10688.130000	-4254.615000	12394.395000	6478.785000	2438.730000	-22568.265000	-24890.130000	3.184789	8.002684	10.282374	6.138923	11.452014	24.878386	5.459939	0.365589	14.054460	11.887540	4.165980	-0.871458	0.146911	0.447509	-1.000000	-1.000000	-1.000000	-1.000000	-1.000000	-1.000000	-1.000000	57.000000	0.000000	-1.000000	-1.000000	2170071.000000	1776580743.250588
-11968.065000	-10677.510000	-4243.950000	12398.715000	6470.820000	2418.480000	-22570.695000	-24882.660000	2.088509	4.020779	6.292067	8.346818	17.127343	24.488888	3.288543	0.096508	8.835540	9.598540	2.563680	-0.873655	0.166626	0.445983	-1.000000	-1.000000	-1.000000	-1.000000	-1.000000	-1.000000	-1.000000	57.000000	0.000000	-1.000000	-1.000000	2170072.000000	1776580743.254546
-11964.465000	-10673.640000	-4236.975000	12409.110000	6479.055000	2416.860000	-22562.910000	-24879.240000	0.721511	-0.893365	1.108521	7.975362	13.579411	7.626864	-2.103779	0.208102	8.835540	9.598540	2.563680	-0.873655	0.166626	0.445983	-1.000000	-1.000000	-1.000000	-1.000000	-1.000000	-1.000000	-1.000000	57.000000	0.000000	-1.000000	-1.000000	2170073.000000	1776580743.254553
-11965.140000	-10675.890000	-4237.470000	12413.340000	6481.305000	2422.620000	-22557.690000	-24879.465000	0.217162	-3.699644	-1.927147	5.996174	3.666780	-15.913749	-6.643282	0.969899	8.835540	9.598540	2.563680	-0.873655	0.166626	0.445983	-1.000000	-1.000000	-1.000000	-1.000000	-1.000000	-1.000000	-1.000000	57.000000	0.000000	-1.000000	-1.000000	2170074.000000	1776580743.258425
-11973.105000	-10687.455000	-4246.245000	12406.005000	6480.405000	2430.900000	-22551.570000	-24883.155000	-0.048624	-4.467743	-2.898393	3.179958	-5.888520	-31.204651	-7.129497	1.475546	8.835540	9.598540	2.563680	-0.873655	0.166626	0.445983	-1.000000	-1.000000	-1.000000	-1.000000	-1.000000	-1.000000	-1.000000	57.000000	0.000000	-1.000000	-1.000000	2170075.000000	1776580743.258444
-11978.190000	-10695.240000	-4248.180000	12412.080000	6481.260000	2417.445000	-22557.960000	-24886.530000	-1.242274	-4.878636	-3.618796	-0.416976	-10.818626	-30.829058	-4.003864	0.708476	8.835540	9.598540	2.563680	-0.873655	0.166626	0.445983	-1.000000	-1.000000	-1.000000	-1.000000	-1.000000	-1.000000	-1.000000	57.000000	0.000000	-1.000000	-1.000000	2170076.000000	1776580743.262524
-11972.700000	-10687.365000	-4230.360000	12447.405000	6491.475000	2416.095000	-22559.805000	-24882.120000	-3.121113	-5.323493	-4.368945	-3.424905	-10.472277	-18.434139	-0.293546	-1.096291	8.835540	9.598540	2.563680	-0.873655	0.166626	0.445983	-1.000000	-1.000000	-1.000000	-1.000000	-1.000000	-1.000000	-1.000000	57.000000	0.000000	-1.000000	-1.000000	2170077.000000	1776580743.262535
-11965.005000	-10674.765000	-4228.200000	12434.760000	6492.465000	2422.845000	-22555.710000	-24875.415000	-3.820818	-4.110514	-3.518872	-3.639624	-6.297195	-2.574570	1.599009	-2.395223	8.835540	9.598540	2.563680	-0.873655	0.166626	0.445983	-1.000000	-1.000000	-1.000000	-1.000000	-1.000000	-1.000000	-1.000000	57.000000	0.000000	-1.000000	-1.000000	2170078.000000	1776580743.266583
-11977.425000	-10683.045000	-4236.345000	12427.830000	6467.895000	2395.530000	-22574.565000	-24889.680000	-2.250577	-0.240698	-0.824955	-2.124301	-1.403817	9.740183	1.363352	-2.183907	8.835540	9.598540	2.563680	-0.873655	0.166626	0.445983	-1.000000	-1.000000	-1.000000	-1.000000	-1.000000	-1.000000	-1.000000	57.000000	0.000000	-1.000000	-1.000000	2170079.000000	1776580743.266597
-11983.995000	-10699.920000	-4247.280000	12400.740000	6456.600000	2387.655000	-22575.780000	-24892.290000	0.056595	3.879062	1.232047	-2.712373	0.535335	14.542801	-0.369785	-1.409441	8.835540	9.598540	2.563680	-0.873655	0.166626	0.445983	-1.000000	-1.000000	-1.000000	-1.000000	-1.000000	-1.000000	-1.000000	57.000000	0.000000	-1.000000	-1.000000	2170080.000000	1776580743.270447
-11974.455000	-10705.050000	-4294.080000	12323.700000	6432.525000	2389.185000	-22558.005000	-24878.430000	1.206578	4.689926	-0.154630	-7.986982	-1.561839	12.123018	-1.939351	-0.957701	8.835540	9.598540	2.563680	-0.873655	0.166626	0.445983	-1.000000	-1.000000	-1.000000	-1.000000	-1.000000	-1.000000	-1.000000	57.000000	0.000000	-1.000000	-1.000000	2170081.000000	1776580743.270455
-11971.260000	-10691.100000	-4268.340000	12371.580000	6458.130000	2383.110000	-22568.355000	-24883.290000	1.599565	2.216819	-4.732368	-15.733147	-4.553550	6.871384	-1.135661	-0.063982	5.493600	6.317640	3.998120	-0.875059	0.181274	0.447326	-1.000000	-1.000000	-1.000000	-1.000000	-1.000000	-1.000000	-1.000000	57.000000	0.000000	-1.000000	-1.000000	2170082.000000	1776580743.274415
-11965.230000	-10678.365000	-4254.255000	12386.880000	6472.260000	2395.395000	-22571.640000	-24883.155000	2.457098	0.237088	-7.266573	-17.005783	-3.293921	3.219587	1.643159	1.518852	5.493600	6.317640	3.998120	-0.875059	0.181274	0.447326	-1.000000	-1.000000	-1.000000	-1.000000	-1.000000	-1.000000	-1.000000	57.000000	0.000000	-1.000000	-1.000000	2170083.000000	1776580743.274421
-11966.850000	-10683.315000	-4258.665000	12400.020000	6485.985000	2416.770000	-22567.590000	-24882.435000	3.564291	1.271787	-2.879096	-5.027002	4.074731	3.124938	3.779569	2.618494	5.493600	6.317640	3.998120	-0.875059	0.181274	0.447326	-1.000000	-1.000000	-1.000000	-1.000000	-1.000000	-1.000000	-1.000000	57.000000	0.000000	-1.000000	-1.000000	2170084.000000	1776580743.278473
-11976.885000	-10695.465000	-4270.995000	12396.015000	6473.250000	2414.520000	-22572.090000	-24889.680000	3.455731	3.332754	5.722968	14.357160	12.904914	5.779838	3.941595	2.328370	5.493600	6.317640	3.998120	-0.875059	0.181274	0.447326	-1.000000	-1.000000	-1.000000	-1.000000	-1.000000	-1.000000	-1.000000	57.000000	0.000000	-1.000000	-1.000000	2170085.000000	1776580743.278481
-11975.580000	-10686.690000	-4252.545000	12394.530000	6455.745000	2384.415000	-22580.595000	-24889.275000	1.150998	3.078784	11.746540	28.051572	15.674197	7.095696	2.383580	0.725378	5.493600	6.317640	3.998120	-0.875059	0.181274	0.447326	-1.000000	-1.000000	-1.000000	-1.000000	-1.000000	-1.000000	-1.000000	57.000000	0.000000	-1.000000	-1.000000	2170086.000000	1776580743.282483
-11972.430000	-10669.860000	-4217.355000	12422.385000	6459.795000	2380.545000	-22584.915000	-24891.930000	-2.216477	0.695866	12.850700	28.391353	9.202784	2.778586	-0.249520	-1.261223	5.493600	6.317640	3.998120	-0.875059	0.181274	0.447326	-1.000000	-1.000000	-1.000000	-1.000000	-1.000000	-1.000000	-1.000000	57.000000	0.000000	-1.000000	-1.000000	2170087.000000	1776580743.282495
-11979.270000	-10680.300000	-4224.555000	12440.700000	6467.850000	2406.420000	-22577.445000	-24897.330000	-4.370430	-1.160713	11.152209	18.122836	-1.942372	-5.457419	-2.618037	-2.506741	5.493600	6.317640	3.998120	-0.875059	0.181274	0.447326	-1.000000	-1.000000	-1.000000	-1.000000	-1.000000	-1.000000	-1.000000	57.000000	0.000000	-1.000000	-1.000000	2170088.000000	1776580743.286474
-11983.500000	-10700.595000	-4270.230000	12378.960000	6466.320000	2430.045000	-22561.830000	-24892.740000	-4.438780	-2.180061	6.464868	3.589215	-10.089507	-10.208556	-2.728684	-2.485909	5.493600	6.317640	3.998120	-0.875059	0.181274	0.447326	-1.000000	-1.000000	-1.000000	-1.000000	-1.000000	-1.000000	-1.000000	57.000000	0.000000	-1.000000	-1.000000	2170089.000000	1776580743.286481
-11979.900000	-10700.595000	-4280.580000	12349.080000	6461.775000	2426.535000	-22560.840000	-24887.745000	-3.038776	-4.065133	-3.578073	-12.703329	-11.608958	-7.138368	0.152537	-1.082059	5.493600	6.317640	3.998120	-0.875059	0.181274	0.447326	-1.000000	-1.000000	-1.000000	-1.000000	-1.000000	-1.000000	-1.000000	57.000000	0.000000	-1.000000	-1.000000	2170090.000000	1776580743.292698
-11974.680000	-10689.030000	-4258.710000	12383.280000	6466.770000	2407.635000	-22573.620000	-24888.330000	-0.699957	-6.060263	-15.629322	-27.114718	-8.079537	-0.397836	3.658341	1.317260	5.493600	6.317640	3.998120	-0.875059	0.181274	0.447326	-1.000000	-1.000000	-1.000000	-1.000000	-1.000000	-1.000000	-1.000000	57.000000	0.000000	-1.000000	-1.000000	2170091.000000	1776580743.292708
-11969.730000	-10681.515000	-4243.770000	12406.005000	6475.005000	2402.190000	-22579.740000	-24886.890000	2.216129	-5.104440	-20.499811	-30.422619	-2.582237	2.660246	4.065056	3.418513	-1.236060	2.365300	5.417300	-0.872862	0.188049	0.448729	-1.000000	-1.000000	-1.000000	-1.000000	-1.000000	-1.000000	-1.000000	57.000000	0.000000	-1.000000	-1.000000	2170092.000000	1776580743.294562
-11963.610000	-10676.385000	-4234.005000	12416.220000	6478.560000	2402.640000	-22574.295000	-24878.835000	4.825645	-0.321133	-13.351846	-17.665025	2.629899	-0.116258	0.598287	4.044542	-1.236060	2.365300	5.417300	-0.872862	0.188049	0.448729	-1.000000	-1.000000	-1.000000	-1.000000	-1.000000	-1.000000	-1.000000	57.000000	0.000000	-1.000000	-1.000000	2170093.000000	1776580743.294569
-11978.280000	-10695.870000	-4254.255000	12393.720000	6456.645000	2392.605000	-22568.490000	-24884.865000	5.658886	5.087619	0.490026	3.250553	5.491451	-4.877537	-3.524092	3.084061	-1.236060	2.365300	5.417300	-0.872862	0.188049	0.448729	-1.000000	-1.000000	-1.000000	-1.000000	-1.000000	-1.000000	-1.000000	57.000000	0.000000	-1.000000	-1.000000	2170094.000000	1776580743.298634
-11986.020000	-10708.110000	-4279.905000	12383.595000	6454.575000	2375.235000	-22570.920000	-24888.735000	3.351775	6.545936	10.471912	18.139074	4.241124	-7.512972	-4.891648	0.831322	-1.236060	2.365300	5.417300	-0.872862	0.188049	0.448729	-1.000000	-1.000000	-1.000000	-1.000000	-1.000000	-1.000000	-1.000000	57.000000	0.000000	-1.000000	-1.000000	2170095.000000	1776580743.298642
-11976.795000	-10690.155000	-4254.525000	12407.940000	6462.765000	2376.585000	-22572.765000	-24885.945000	-1.352838	3.112021	10.842837	19.786243	0.010524	-6.828090	-3.253833	-2.110078	-1.236060	2.365300	5.417300	-0.872862	0.188049	0.448729	-1.000000	-1.000000	-1.000000	-1.000000	-1.000000	-1.000000	-1.000000	57.000000	0.000000	-1.000000	-1.000000	2170096.000000	1776580743.302513
-11971.800000	-10673.055000	-4226.220000	12440.250000	6452.550000	2379.780000	-22576.275000	-24888.465000	-5.023192	-0.834690	5.923584	12.956973	-3.422952	-3.055500	-0.714475	-4.359360	-1.236060	2.365300	5.417300	-0.872862	0.188049	0.448729	-1.000000	-1.000000	-1.000000	-1.000000	-1.000000	-1.000000	-1.000000	57.000000	0.000000	-1.000000	-1.000000	2170097.000000	1776580743.302521
-11970.990000	-10678.545000	-4243.320000	12398.445000	6441.660000	2381.175000	-22573.890000	-24884.145000	-4.928336	-1.055016	2.965567	5.499666	-4.048276	2.938850	0.942332	-4.679792	-1.236060	2.365300	5.417300	-0.872862	0.188049	0.448729	-1.000000	-1.000000	-1.000000	-1.000000	-1.000000	-1.000000	-1.000000	57.000000	0.000000	-1.000000	-1.000000	2170098.000000	1776580743.306803
-11969.955000	-10684.575000	-4256.325000	12376.935000	6446.295000	2406.870000	-22566.645000	-24879.510000	-1.812065	1.270117	2.415394	-1.477105	-2.727219	9.332039	1.595847	-2.897781	-1.236060	2.365300	5.417300	-0.872862	0.188049	0.448729	-1.000000	-1.000000	-1.000000	-1.000000	-1.000000	-1.000000	-1.000000	57.000000	0.000000	-1.000000	-1.000000	2170099.000000	1776580743.306818
-11974.815000	-10689.390000	-4258.440000	12386.655000	6458.445000	2404.395000	-22571.640000	-24885.540000	1.476646	2.106800	0.344008	-9.404051	-0.203998	13.963270	1.937737	-0.006110	-1.236060	2.365300	5.417300	-0.872862	0.188049	0.448729	-1.000000	-1.000000	-1.000000	-1.000000	-1.000000	-1.000000	-1.000000	57.000000	0.000000	-1.000000	-1.000000	2170100.000000	1776580743.310735
-11970.900000	-10683.675000	-4251.780000	12397.230000	6467.220000	2406.420000	-22565.070000	-24883.020000	2.781249	0.038152	-3.704478	-14.616500	3.529577	14.472461	2.072459	2.245342	-1.236060	2.365300	5.417300	-0.872862	0.188049	0.448729	-1.000000	-1.000000	-1.000000	-1.000000	-1.000000	-1.000000	-1.000000	57.000000	0.000000	-1.000000	-1.000000	2170101.000000	1776580743.310756
-11971.395000	-10684.170000	-4249.125000	12399.975000	6471.225000	2420.685000	-22558.815000	-24881.220000	2.026764	-2.849394	-6.391696	-12.316698	7.330710	9.707927	1.863997	2.817556	-7.187460	-1.007160	4.623780	-0.871702	0.189941	0.449340	-1.000000	-1.000000	-1.000000	-1.000000	-1.000000	-1.000000	-1.000000	57.000000	0.000000	-1.000000	-1.000000	2170102.000000	1776580743.315372
-11972.610000	-10684.080000	-4244.760000	12409.650000	6484.320000	2438.145000	-22562.910000	-24883.470000	0.442924	-4.107101	-5.359585	-3.354082	9.011697	2.021559	1.419244	2.067967	-7.187460	-1.007160	4.623780	-0.871702	0.189941	0.449340	-1.000000	-1.000000	-1.000000	-1.000000	-1.000000	-1.000000	-1.000000	57.000000	0.000000	-1.000000	-1.000000	2170103.000000	1776580743.315451
-11962.935000	-10673.280000	-4236.210000	12418.875000	6469.875000	2404.665000	-22563.990000	-24876.585000	-0.744690	-3.022443	-1.339923	6.911796	7.095998	-5.258877	0.471613	0.887477	-7.187460	-1.007160	4.623780	-0.871702	0.189941	0.449340	-1.000000	-1.000000	-1.000000	-1.000000	-1.000000	-1.000000	-1.000000	57.000000	0.000000	-1.000000	-1.000000	2170104.000000	1776580743.319257
-11961.000000	-10668.240000	-4227.165000	12442.590000	6462.585000	2377.305000	-22577.220000	-24877.215000	-0.744280	-0.187537	3.313940	13.633936	1.411831	-11.909760	-1.404890	0.059603	-7.187460	-1.007160	4.623780	-0.871702	0.189941	0.449340	-1.000000	-1.000000	-1.000000	-1.000000	-1.000000	-1.000000	-1.000000	57.000000	0.000000	-1.000000	-1.000000	2170105.000000	1776580743.319268
-11968.965000	-10677.060000	-4238.505000	12424.590000	6470.415000	2389.230000	-22588.380000	-24884.955000	0.094210	2.752666	6.091008	14.518582	-6.083501	-17.852763	-4.071941	-0.341463	-7.187460	-1.007160	4.623780	-0.871702	0.189941	0.449340	-1.000000	-1.000000	-1.000000	-1.000000	-1.000000	-1.000000	-1.000000	57.000000	0.000000	-1.000000	-1.000000	2170106.000000	1776580743.325625
-11964.060000	-10681.200000	-4255.740000	12372.795000	6452.370000	2396.340000	-22582.845000	-24876.495000	0.423177	3.517413	4.826286	8.073765	-11.571522	-18.999214	-6.272721	-0.813183	-7.187460	-1.007160	4.623780	-0.871702	0.189941	0.449340	-1.000000	-1.000000	-1.000000	-1.000000	-1.000000	-1.000000	-1.000000	57.000000	0.000000	-1.000000	-1.000000	2170107.000000	1776580743.325635
-11966.985000	-10683.720000	-4252.770000	12394.710000	6468.435000	2424.555000	-22568.490000	-24877.980000	-0.265233	1.329017	-0.477456	-4.752275	-12.341834	-11.325913	-5.625057	-1.194114	-7.187460	-1.007160	4.623780	-0.871702	0.189941	0.449340	-1.000000	-1.000000	-1.000000	-1.000000	-1.000000	-1.000000	-1.000000	57.000000	0.000000	-1.000000	-1.000000	2170108.000000	1776580743.326864
-11976.075000	-10691.100000	-4256.415000	12402.900000	6467.130000	2430.720000	-22549.455000	-24883.740000	-1.409189	-2.165132	-6.294758	-16.313662	-8.103127	3.253203	-0.603700	-1.089938	-7.187460	-1.007160	4.623780	-0.871702	0.189941	0.449340	-1.000000	-1.000000	-1.000000	-1.000000	-1.000000	-1.000000	-1.000000	57.000000	0.000000	-1.000000	-1.000000	2170109.000000	1776580743.326873
-11970.810000	-10683.855000	-4245.300000	12411.630000	6467.985000	2416.860000	-22543.920000	-24875.145000	-2.391314	-4.484437	-8.253852	-17.686547	-0.805573	16.839569	7.014660	-0.712985	-7.187460	-1.007160	4.623780	-0.871702	0.189941	0.449340	-1.000000	-1.000000	-1.000000	-1.000000	-1.000000	-1.000000	-1.000000	57.000000	0.000000	-1.000000	-1.000000	2170110.000000	1776580743.330680
-11966.805000	-10684.530000	-4249.170000	12407.310000	6466.095000	2417.085000	-22546.395000	-24871.995000	-2.339361	-3.976295	-4.969198	-8.416256	5.854612	21.114908	12.454840	-0.040907	-7.187460	-1.007160	4.623780	-0.871702	0.189941	0.449340	-1.000000	-1.000000	-1.000000	-1.000000	-1.000000	-1.000000	-1.000000	57.000000	0.000000	-1.000000	-1.000000	2170111.000000	1776580743.330688
-11967.300000	-10684.125000	-4252.410000	12402.045000	6454.035000	2410.695000	-22554.000000	-24873.750000	-0.656420	-0.900060	1.015150	3.932754	8.651466	14.247458	11.430664	1.015080	-5.341000	-5.707240	4.165980	-0.873716	0.186523	0.448607	-1.000000	-1.000000	-1.000000	-1.000000	-1.000000	-1.000000	-1.000000	57.000000	0.000000	-1.000000	-1.000000	2170112.000000	1776580743.336046
-11964.690000	-10676.880000	-4241.790000	12412.575000	6461.280000	2402.865000	-22561.110000	-24873.795000	1.829993	2.836675	5.830349	11.713624	6.920313	1.538497	3.729390	1.726532	-5.341000	-5.707240	4.165980	-0.873716	0.186523	0.448607	-1.000000	-1.000000	-1.000000	-1.000000	-1.000000	-1.000000	-1.000000	57.000000	0.000000	-1.000000	-1.000000	2170113.000000	1776580743.336062
-11962.080000	-10677.780000	-4234.995000	12426.165000	6481.035000	2390.805000	-22564.710000	-24870.105000	3.615440	5.359213	7.732089	12.858996	3.269605	-9.946082	-6.497172	1.428586	-5.341000	-5.707240	4.165980	-0.873716	0.186523	0.448607	-1.000000	-1.000000	-1.000000	-1.000000	-1.000000	-1.000000	-1.000000	57.000000	0.000000	-1.000000	-1.000000	2170114.000000	1776580743.338696
-11961.675000	-10679.400000	-4228.650000	12427.110000	6469.245000	2372.400000	-22569.840000	-24869.520000	3.858614	5.602934	7.195747	9.749957	1.074521	-15.856284	-13.742334	0.454092	-5.341000	-5.707240	4.165980	-0.873716	0.186523	0.448607	-1.000000	-1.000000	-1.000000	-1.000000	-1.000000	-1.000000	-1.000000	57.000000	0.000000	-1.000000	-1.000000	2170115.000000	1776580743.338708
-11952.630000	-10679.715000	-4230.765000	12428.955000	6458.310000	2368.395000	-22570.200000	-24862.050000	2.737058	3.435161	4.902434	4.871775	0.315179	-15.355204	-14.671403	-0.370536	-5.341000	-5.707240	4.165980	-0.873716	0.186523	0.448607	-1.000000	-1.000000	-1.000000	-1.000000	-1.000000	-1.000000	-1.000000	57.000000	0.000000	-1.000000	-1.000000	2170116.000000	1776580743.342598
-11949.030000	-10675.170000	-4260.555000	12428.280000	6471.270000	2393.955000	-22562.370000	-24859.080000	1.177888	0.034053	0.667927	-0.544014	-1.021494	-9.075339	-9.382466	-0.473942	-5.341000	-5.707240	4.165980	-0.873716	0.186523	0.448607	-1.000000	-1.000000	-1.000000	-1.000000	-1.000000	-1.000000	-1.000000	57.000000	0.000000	-1.000000	-1.000000	2170117.000000	1776580743.342609
-11955.240000	-10669.095000	-4260.690000	12397.950000	6433.065000	2399.805000	-22554.585000	-24865.290000	-0.219316	-2.615223	-5.526419	-5.949770	-3.321384	1.740115	-0.451483	-0.128773	-5.341000	-5.707240	4.165980	-0.873716	0.186523	0.448607	-1.000000	-1.000000	-1.000000	-1.000000	-1.000000	-1.000000	-1.000000	57.000000	0.000000	-1.000000	-1.000000	2170118.000000	1776580743.346576
-11968.470000	-10673.955000	-4253.310000	12387.105000	6426.765000	2423.790000	-22546.485000	-24874.650000	-1.989657	-3.343828	-10.938633	-11.106725	-6.175617	13.539055	8.400530	-0.479543	-5.341000	-5.707240	4.165980	-0.873716	0.186523	0.448607	-1.000000	-1.000000	-1.000000	-1.000000	-1.000000	-1.000000	-1.000000	57.000000	0.000000	-1.000000	-1.000000	2170119.000000	1776580743.346584
-11973.915000	-10677.465000	-4241.340000	12393.765000	6430.410000	2404.350000	-22552.920000	-24880.230000	-4.610887	-2.800701	-11.064494	-14.242014	-8.278938	20.631282	13.460492	-2.188702	-5.341000	-5.707240	4.165980	-0.873716	0.186523	0.448607	-1.000000	-1.000000	-1.000000	-1.000000	-1.000000	-1.000000	-1.000000	57.000000	0.000000	-1.000000	-1.000000	2170120.000000	1776580743.350617
-11969.280000	-10673.505000	-4237.695000	12405.960000	6436.755000	2388.960000	-22571.370000	-24880.050000	-6.776425	-2.194451	-4.639010	-11.872275	-6.700739	18.152590	12.163744	-4.179597	-5.341000	-5.707240	4.165980	-0.873716	0.186523	0.448607	-1.000000	-1.000000	-1.000000	-1.000000	-1.000000	-1.000000	-1.000000	57.000000	0.000000	-1.000000	-1.000000	2170121.000000	1776580743.350627
-11964.330000	-10672.065000	-4238.055000	12412.080000	6449.760000	2395.260000	-22575.555000	-24876.765000	-6.095281	-1.637967	4.437756	-2.946792	-0.200060	6.343286	4.740933	-4.394578	0.732480	-9.491720	4.684820	-0.876218	0.177002	0.447081	-1.000000	-1.000000	-1.000000	-1.000000	-1.000000	-1.000000	-1.000000	57.000000	0.000000	-1.000000	-1.000000	2170122.000000	1776580743.354754
-11957.625000	-10667.070000	-4233.510000	12419.325000	6452.910000	2390.130000	-22568.490000	-24867.540000	-1.759075	-0.591261	10.582182	8.584326	8.503553	-7.945528	-4.542709	-1.701422	0.732480	-9.491720	4.684820	-0.876218	0.177002	0.447081	-1.000000	-1.000000	-1.000000	-1.000000	-1.000000	-1.000000	-1.000000	57.000000	0.000000	-1.000000	-1.000000	2170123.000000	1776580743.354767
-11962.890000	-10673.505000	-4239.360000	12415.230000	6453.630000	2405.835000	-22562.775000	-24868.350000	4.108155	0.816473	10.835982	16.486499	14.495241	-16.470279	-9.756585	2.933244	0.732480	-9.491720	4.684820	-0.876218	0.177002	0.447081	-1.000000	-1.000000	-1.000000	-1.000000	-1.000000	-1.000000	-1.000000	57.000000	0.000000	-1.000000	-1.000000	2170124.000000	1776580743.359253
-11961.225000	-10671.480000	-4233.330000	12425.265000	6463.305000	2419.965000	-22552.965000	-24867.450000	7.966758	1.671688	6.062743	16.853349	14.310718	-15.377982	-8.075473	6.828858	0.732480	-9.491720	4.684820	-0.876218	0.177002	0.447081	-1.000000	-1.000000	-1.000000	-1.000000	-1.000000	-1.000000	-1.000000	57.000000	0.000000	-1.000000	-1.000000	2170125.000000	1776580743.359264
-11956.410000	-10665.855000	-4223.070000	12439.440000	6469.470000	2417.220000	-22549.230000	-24863.895000	7.886650	1.557336	-0.228782	10.742256	8.520839	-6.802605	-1.564748	7.644034	0.732480	-9.491720	4.684820	-0.876218	0.177002	0.447081	-1.000000	-1.000000	-1.000000	-1.000000	-1.000000	-1.000000	-1.000000	57.000000	0.000000	-1.000000	-1.000000	2170126.000000	1776580743.362706
-11947.680000	-10660.950000	-4214.880000	12459.870000	6481.935000	2421.360000	-22544.550000	-24857.190000	4.936015	1.184193	-4.249456	2.832223	0.702434	2.910097	5.098761	5.320866	0.732480	-9.491720	4.684820	-0.876218	0.177002	0.447081	-1.000000	-1.000000	-1.000000	-1.000000	-1.000000	-1.000000	-1.000000	57.000000	0.000000	-1.000000	-1.000000	2170127.000000	1776580743.362716
-11956.365000	-10668.330000	-4212.270000	12499.515000	6484.230000	2409.075000	-22551.750000	-24867.405000	1.288937	1.043294	-4.647215	-2.206107	-5.601945	7.844195	7.900030	1.420754	0.732480	-9.491720	4.684820	-0.876218	0.177002	0.447081	-1.000000	-1.000000	-1.000000	-1.000000	-1.000000	-1.000000	-1.000000	57.000000	0.000000	-1.000000	-1.000000	2170128.000000	1776580743.366753
-11959.965000	-10675.800000	-4250.745000	12430.080000	6476.220000	2413.620000	-22549.410000	-24867.180000	-2.092168	0.417061	-3.667405	-4.102892	-9.100748	6.312983	5.603599	-2.701816	0.732480	-9.491720	4.684820	-0.876218	0.177002	0.447081	-1.000000	-1.000000	-1.000000	-1.000000	-1.000000	-1.000000	-1.000000	57.000000	0.000000	-1.000000	-1.000000	2170129.000000	1776580743.366761
-11957.130000	-10671.300000	-4255.650000	12371.625000	6440.670000	2403.630000	-22548.780000	-24864.525000	-4.905551	-1.192705	-4.830978	-8.850332	-11.142311	0.909706	0.203060	-5.856344	0.732480	-9.491720	4.684820	-0.876218	0.177002	0.447081	-1.000000	-1.000000	-1.000000	-1.000000	-1.000000	-1.000000	-1.000000	57.000000	0.000000	-1.000000	-1.000000	2170130.000000	1776580743.370662
-11951.190000	-10650.825000	-4211.865000	12413.835000	6448.005000	2403.135000	-22551.255000	-24866.370000	-6.077140	-2.295549	-7.150534	-18.964550	-13.122728	-4.298550	-4.804245	-6.730029	0.732480	-9.491720	4.684820	-0.876218	0.177002	0.447081	-1.000000	-1.000000	-1.000000	-1.000000	-1.000000	-1.000000	-1.000000	57.000000	0.000000	-1.000000	-1.000000	2170131.000000	1776580743.370670
-11951.370000	-10657.845000	-4221.855000	12420.585000	6448.320000	2377.080000	-22555.980000	-24862.590000	-4.691171	-1.027515	-5.279616	-24.811552	-13.153425	-6.933915	-7.138227	-5.001269	11.521300	-10.361540	1.480220	-0.874082	0.168090	0.451781	-1.000000	-1.000000	-1.000000	-1.000000	-1.000000	-1.000000	-1.000000	57.000000	0.000000	-1.000000	-1.000000	2170132.000000	1776580743.374826
-11941.245000	-10655.865000	-4225.455000	12417.525000	6434.865000	2349.270000	-22560.345000	-24851.025000	-1.371100	1.666136	1.578127	-16.756259	-8.450344	-7.466496	-6.657515	-1.479610	11.521300	-10.361540	1.480220	-0.874082	0.168090	0.451781	-1.000000	-1.000000	-1.000000	-1.000000	-1.000000	-1.000000	-1.000000	57.000000	0.000000	-1.000000	-1.000000	2170133.000000	1776580743.374839
-11949.480000	-10660.590000	-4227.165000	12416.670000	6439.680000	2387.385000	-22555.710000	-24859.305000	2.079685	2.977962	7.793026	1.441541	-0.035739	-6.326358	-4.227784	2.419775	11.521300	-10.361540	1.480220	-0.874082	0.168090	0.451781	-1.000000	-1.000000	-1.000000	-1.000000	-1.000000	-1.000000	-1.000000	57.000000	0.000000	-1.000000	-1.000000	2170134.000000	1776580743.378628
-11960.730000	-10665.900000	-4221.000000	12443.760000	6455.475000	2417.625000	-22554.765000	-24870.870000	3.493903	1.572537	9.051398	18.688017	8.729447	-0.858995	-0.662251	4.474286	11.521300	-10.361540	1.480220	-0.874082	0.168090	0.451781	-1.000000	-1.000000	-1.000000	-1.000000	-1.000000	-1.000000	-1.000000	57.000000	0.000000	-1.000000	-1.000000	2170135.000000	1776580743.378644
-11964.780000	-10669.680000	-4221.765000	12453.570000	6471.360000	2441.340000	-22542.570000	-24873.345000	1.745020	-1.601927	5.970327	27.630728	15.530313	10.191817	3.267725	3.080168	11.521300	-10.361540	1.480220	-0.874082	0.168090	0.451781	-1.000000	-1.000000	-1.000000	-1.000000	-1.000000	-1.000000	-1.000000	57.000000	0.000000	-1.000000	-1.000000	2170136.000000	1776580743.382673
-11961.945000	-10686.285000	-4269.690000	12366.630000	6438.690000	2433.960000	-22531.005000	-24861.870000	-1.629679	-4.683293	0.539284	24.913019	18.066730	21.072625	6.728783	-0.300949	11.521300	-10.361540	1.480220	-0.874082	0.168090	0.451781	-1.000000	-1.000000	-1.000000	-1.000000	-1.000000	-1.000000	-1.000000	57.000000	0.000000	-1.000000	-1.000000	2170137.000000	1776580743.382694
-11958.390000	-10675.440000	-4250.880000	12391.920000	6436.350000	2414.160000	-22539.915000	-24861.645000	-3.492983	-6.044935	-5.958172	9.855082	13.505284	22.589092	8.502551	-2.243618	11.521300	-10.361540	1.480220	-0.874082	0.168090	0.451781	-1.000000	-1.000000	-1.000000	-1.000000	-1.000000	-1.000000	-1.000000	57.000000	0.000000	-1.000000	-1.000000	2170138.000000	1776580743.386632
-11954.115000	-10669.365000	-4239.540000	12410.865000	6449.130000	2416.455000	-22537.530000	-24859.170000	-2.109084	-4.314643	-9.982768	-9.353904	3.024357	11.126295	6.999568	-1.221823	11.521300	-10.361540	1.480220	-0.874082	0.168090	0.451781	-1.000000	-1.000000	-1.000000	-1.000000	-1.000000	-1.000000	-1.000000	57.000000	0.000000	-1.000000	-1.000000	2170139.000000	1776580743.386645
-11960.055000	-10675.485000	-4240.980000	12410.595000	6453.720000	2415.555000	-22544.730000	-24865.560000	1.382594	0.432488	-7.415314	-19.209676	-6.822294	-7.017598	2.065025	1.154344	11.521300	-10.361540	1.480220	-0.874082	0.168090	0.451781	-1.000000	-1.000000	-1.000000	-1.000000	-1.000000	-1.000000	-1.000000	57.000000	0.000000	-1.000000	-1.000000	2170140.000000	1776580743.390632
-11956.860000	-10668.735000	-4229.010000	12423.735000	6463.800000	2420.820000	-22547.250000	-24863.670000	4.240074	5.554675	0.587380	-15.005843	-10.447405	-20.982403	-4.130655	2.450245	11.521300	-10.361540	1.480220	-0.874082	0.168090	0.451781	-1.000000	-1.000000	-1.000000	-1.000000	-1.000000	-1.000000	-1.000000	57.000000	0.000000	-1.000000	-1.000000	2170141.000000	1776580743.390638
-11952.945000	-10664.145000	-4226.220000	12428.595000	6464.790000	2421.270000	-22544.145000	-24861.645000	4.787355	8.251561	8.727202	-2.955607	-7.769328	-23.999996	-8.537827	1.876181	17.091200	-7.828380	-2.746800	-0.866453	0.167968	0.456298	-1.000000	-1.000000	-1.000000	-1.000000	-1.000000	-1.000000	-1.000000	57.000000	0.000000	-1.000000	-1.000000	2170142.000000	1776580743.394647
-11951.055000	-10664.145000	-4229.145000	12425.670000	6458.085000	2412.360000	-22542.210000	-24859.170000	3.433427	7.749097	12.363525	7.871206	-2.748910	-16.909303	-8.971880	0.461307	17.091200	-7.828380	-2.746800	-0.866453	0.167968	0.456298	-1.000000	-1.000000	-1.000000	-1.000000	-1.000000	-1.000000	-1.000000	57.000000	0.000000	-1.000000	-1.000000	2170143.000000	1776580743.394656
-11953.170000	-10667.745000	-4238.595000	12415.545000	6443.145000	2395.845000	-22546.035000	-24861.015000	1.290120	4.590705	9.612631	11.312808	0.123388	-5.899317	-5.529987	-0.604424	17.091200	-7.828380	-2.746800	-0.866453	0.167968	0.456298	-1.000000	-1.000000	-1.000000	-1.000000	-1.000000	-1.000000	-1.000000	57.000000	0.000000	-1.000000	-1.000000	2170144.000000	1776580743.398718
-11962.350000	-10679.085000	-4243.590000	12407.895000	6429.870000	2383.200000	-22550.040000	-24867.630000	-1.108871	-0.260226	1.920269	6.526367	-1.117842	2.584374	-0.625161	-1.178492	17.091200	-7.828380	-2.746800	-0.866453	0.167968	0.456298	-1.000000	-1.000000	-1.000000	-1.000000	-1.000000	-1.000000	-1.000000	57.000000	0.000000	-1.000000	-1.000000	2170145.000000	1776580743.398727
-11965.140000	-10679.445000	-4234.320000	12416.940000	6426.000000	2374.110000	-22553.055000	-24871.275000	-3.562819	-5.326072	-6.395074	-2.187675	-4.737528	5.988552	3.002634	-1.779096	17.091200	-7.828380	-2.746800	-0.866453	0.167968	0.456298	-1.000000	-1.000000	-1.000000	-1.000000	-1.000000	-1.000000	-1.000000	57.000000	0.000000	-1.000000	-1.000000	2170146.000000	1776580743.402673
-11960.370000	-10671.210000	-4240.620000	12428.910000	6436.845000	2389.725000	-22544.775000	-24866.550000	-5.195196	-8.315463	-10.705981	-8.347272	-6.647329	6.252543	4.389416	-2.333861	17.091200	-7.828380	-2.746800	-0.866453	0.167968	0.456298	-1.000000	-1.000000	-1.000000	-1.000000	-1.000000	-1.000000	-1.000000	57.000000	0.000000	-1.000000	-1.000000	2170147.000000	1776580743.402686
-11956.410000	-10661.535000	-4225.905000	12439.575000	6453.405000	2403.630000	-22549.680000	-24866.955000	-4.609590	-7.130131	-9.278920	-7.948054	-3.518770	7.167619	4.327821	-1.969660	17.091200	-7.828380	-2.746800	-0.866453	0.167968	0.456298	-1.000000	-1.000000	-1.000000	-1.000000	-1.000000	-1.000000	-1.000000	57.000000	0.000000	-1.000000	-1.000000	2170148.000000	1776580743.406780
-11951.505000	-10657.530000	-4223.925000	12431.070000	6456.285000	2396.610000	-22554.135000	-24865.110000	-1.513898	-2.037371	-3.670693	-2.449626	4.118867	10.002633	3.498053	-0.338718	17.091200	-7.828380	-2.746800	-0.866453	0.167968	0.456298	-1.000000	-1.000000	-1.000000	-1.000000	-1.000000	-1.000000	-1.000000	57.000000	0.000000	-1.000000	-1.000000	2170149.000000	1776580743.406791
-11953.800000	-10665.720000	-4235.040000	12417.345000	6442.245000	2375.460000	-22558.770000	-24865.380000	2.472064	3.703567	2.553524	2.737023	11.306856	11.438129	1.810593	1.722895	17.091200	-7.828380	-2.746800	-0.866453	0.167968	0.456298	-1.000000	-1.000000	-1.000000	-1.000000	-1.000000	-1.000000	-1.000000	57.000000	0.000000	-1.000000	-1.000000	2170150.000000	1776580743.410717
-11947.680000	-10658.790000	-4225.950000	12431.475000	6444.225000	2380.545000	-22553.055000	-24858.405000	5.045997	6.352563	5.750202	3.636043	12.555937	7.735644	-0.317380	3.138405	17.091200	-7.828380	-2.746800	-0.866453	0.167968	0.456298	-1.000000	-1.000000	-1.000000	-1.000000	-1.000000	-1.000000	-1.000000	57.000000	0.000000	-1.000000	-1.000000	2170151.000000	1776580743.410730
-11953.305000	-10666.845000	-4234.500000	12421.845000	6434.370000	2387.070000	-22550.805000	-24860.970000	4.986541	4.843632	4.943583	1.202311	6.940691	0.283427	-1.573886	3.424122	10.392060	-3.891300	-4.013380	-0.858946	0.179077	0.459655	-1.000000	-1.000000	-1.000000	-1.000000	-1.000000	-1.000000	-1.000000	57.000000	0.000000	-1.000000	-1.000000	2170152.000000	1776580743.414797
-11964.150000	-10679.850000	-4243.230000	12404.340000	6425.100000	2407.905000	-22544.145000	-24867.720000	2.375595	0.605604	1.615792	-1.790019	-1.846565	-5.480980	-1.077809	2.365434	10.392060	-3.891300	-4.013380	-0.858946	0.179077	0.459655	-1.000000	-1.000000	-1.000000	-1.000000	-1.000000	-1.000000	-1.000000	57.000000	0.000000	-1.000000	-1.000000	2170153.000000	1776580743.414812
-11959.740000	-10674.180000	-4230.090000	12418.155000	6437.340000	2412.270000	-22539.510000	-24862.545000	-1.666791	-4.085625	-2.028613	-3.858780	-8.859580	-5.882960	0.704450	0.087375	10.392060	-3.891300	-4.013380	-0.858946	0.179077	0.459655	-1.000000	-1.000000	-1.000000	-1.000000	-1.000000	-1.000000	-1.000000	57.000000	0.000000	-1.000000	-1.000000	2170154.000000	1776580743.420500
-11952.270000	-10673.055000	-4233.195000	12424.590000	6440.535000	2405.835000	-22538.475000	-24855.120000	-4.699753	-6.506319	-3.604526	-3.528566	-10.343460	-2.453619	2.379625	-2.092161	10.392060	-3.891300	-4.013380	-0.858946	0.179077	0.459655	-1.000000	-1.000000	-1.000000	-1.000000	-1.000000	-1.000000	-1.000000	57.000000	0.000000	-1.000000	-1.000000	2170155.000000	1776580743.420511
-11950.065000	-10661.760000	-4229.775000	12437.865000	6443.910000	2397.105000	-22549.410000	-24860.745000	-4.484725	-4.838772	-2.252574	0.169710	-5.955501	0.068072	2.380838	-2.670066	10.392060	-3.891300	-4.013380	-0.858946	0.179077	0.459655	-1.000000	-1.000000	-1.000000	-1.000000	-1.000000	-1.000000	-1.000000	57.000000	0.000000	-1.000000	-1.000000	2170156.000000	1776580743.422729
-11946.690000	-10649.115000	-4211.505000	12463.785000	6451.695000	2391.165000	-22547.340000	-24854.445000	-1.337246	0.305150	0.846744	5.943353	0.982449	-1.253730	0.040398	-1.763433	10.392060	-3.891300	-4.013380	-0.858946	0.179077	0.459655	-1.000000	-1.000000	-1.000000	-1.000000	-1.000000	-1.000000	-1.000000	57.000000	0.000000	-1.000000	-1.000000	2170157.000000	1776580743.422745
-11952.225000	-10666.755000	-4239.090000	12408.345000	6434.010000	2396.520000	-22539.780000	-24854.715000	2.185544	5.833710	3.640210	9.883861	6.065548	-4.945101	-3.166181	-0.453910	10.392060	-3.891300	-4.013380	-0.858946	0.179077	0.459655	-1.000000	-1.000000	-1.000000	-1.000000	-1.000000	-1.000000	-1.000000	57.000000	0.000000	-1.000000	-1.000000	2170158.000000	1776580743.426731
-11954.070000	-10671.120000	-4243.905000	12401.010000	6426.720000	2393.460000	-22541.850000	-24858.540000	3.563600	7.585853	3.498975	6.872224	6.209724	-7.201669	-4.659612	0.407261	10.392060	-3.891300	-4.013380	-0.858946	0.179077	0.459655	-1.000000	-1.000000	-1.000000	-1.000000	-1.000000	-1.000000	-1.000000	57.000000	0.000000	-1.000000	-1.000000	2170159.000000	1776580743.426739
-11950.965000	-10665.765000	-4232.790000	12422.160000	6436.305000	2378.610000	-22548.645000	-24858.270000	2.275435	4.167059	-0.044484	-2.648380	1.907517	-6.096121	-3.702051	0.333826	10.392060	-3.891300	-4.013380	-0.858946	0.179077	0.459655	-1.000000	-1.000000	-1.000000	-1.000000	-1.000000	-1.000000	-1.000000	57.000000	0.000000	-1.000000	-1.000000	2170160.000000	1776580743.430777
-11950.245000	-10665.540000	-4232.115000	12421.530000	6436.305000	2373.120000	-22550.445000	-24856.830000	-0.077513	-1.274603	-3.507303	-10.495632	-2.714620	-3.007648	-1.802321	-0.412417	10.392060	-3.891300	-4.013380	-0.858946	0.179077	0.459655	-1.000000	-1.000000	-1.000000	-1.000000	-1.000000	-1.000000	-1.000000	57.000000	0.000000	-1.000000	-1.000000	2170161.000000	1776580743.430792
-11951.775000	-10664.550000	-4228.425000	12423.645000	6431.310000	2376.585000	-22553.820000	-24858.945000	-1.671975	-4.725162	-3.683378	-10.364889	-4.232574	0.177385	-0.391255	-0.988332	-5.508860	-2.594200	-1.785420	-0.857908	0.196350	0.461364	-1.000000	-1.000000	-1.000000	-1.000000	-1.000000	-1.000000	-1.000000	57.000000	0.000000	-1.000000	-1.000000	2170162.000000	1776580743.434810
-11952.540000	-10659.690000	-4217.715000	12437.100000	6428.835000	2397.330000	-22550.805000	-24861.870000	-1.979360	-4.732007	-0.790763	-3.639698	-2.882832	3.492929	0.430700	-0.985573	-5.508860	-2.594200	-1.785420	-0.857908	0.196350	0.461364	-1.000000	-1.000000	-1.000000	-1.000000	-1.000000	-1.000000	-1.000000	57.000000	0.000000	-1.000000	-1.000000	2170163.000000	1776580743.434831
-11945.655000	-10649.250000	-4199.940000	12469.005000	6422.355000	2381.355000	-22548.690000	-24857.820000	-1.312580	-2.057694	3.269600	5.116878	-0.796398	7.201449	1.291392	-0.546605	-5.508860	-2.594200	-1.785420	-0.857908	0.196350	0.461364	-1.000000	-1.000000	-1.000000	-1.000000	-1.000000	-1.000000	-1.000000	57.000000	0.000000	-1.000000	-1.000000	2170164.000000	1776580743.438872
-11932.515000	-10640.160000	-4199.580000	12459.555000	6437.430000	2364.525000	-22547.520000	-24846.120000	0.216298	1.725546	6.515805	11.913001	0.790485	8.971286	2.477490	0.444286	-5.508860	-2.594200	-1.785420	-0.857908	0.196350	0.461364	-1.000000	-1.000000	-1.000000	-1.000000	-1.000000	-1.000000	-1.000000	57.000000	0.000000	-1.000000	-1.000000	2170165.000000	1776580743.438884
-11929.500000	-10648.260000	-4228.920000	12403.665000	6433.470000	2363.715000	-22550.175000	-24838.965000	2.427247	4.569867	6.360559	12.053311	2.146124	6.124592	3.405651	2.262769	-5.508860	-2.594200	-1.785420	-0.857908	0.196350	0.461364	-1.000000	-1.000000	-1.000000	-1.000000	-1.000000	-1.000000	-1.000000	57.000000	0.000000	-1.000000	-1.000000	2170166.000000	1776580743.442770
-11933.415000	-10649.340000	-4219.740000	12429.135000	6445.215000	2365.470000	-22558.365000	-24844.140000	4.008146	4.407376	1.123981	2.926213	3.491434	0.165396	3.058428	4.079669	-5.508860	-2.594200	-1.785420	-0.857908	0.196350	0.461364	-1.000000	-1.000000	-1.000000	-1.000000	-1.000000	-1.000000	-1.000000	57.000000	0.000000	-1.000000	-1.000000	2170167.000000	1776580743.442782
-11948.805000	-10664.640000	-4234.050000	12425.850000	6435.225000	2393.955000	-22552.245000	-24857.280000	2.948674	0.744232	-6.625316	-9.591215	4.058975	-3.976157	1.184228	3.793881	-5.508860	-2.594200	-1.785420	-0.857908	0.196350	0.461364	-1.000000	-1.000000	-1.000000	-1.000000	-1.000000	-1.000000	-1.000000	57.000000	0.000000	-1.000000	-1.000000	2170168.000000	1776580743.446850
-11960.100000	-10678.545000	-4247.955000	12429.135000	6448.320000	2429.145000	-22534.560000	-24863.265000	-1.414758	-4.797769	-12.033185	-15.745409	3.039172	-2.262635	-0.658569	0.212997	-5.508860	-2.594200	-1.785420	-0.857908	0.196350	0.461364	-1.000000	-1.000000	-1.000000	-1.000000	-1.000000	-1.000000	-1.000000	57.000000	0.000000	-1.000000	-1.000000	2170169.000000	1776580743.446856
-11957.580000	-10676.430000	-4241.880000	12425.085000	6438.690000	2410.695000	-22533.705000	-24858.720000	-6.849504	-9.287593	-12.356847	-12.287337	0.675066	4.196931	-0.483112	-4.786167	-5.508860	-2.594200	-1.785420	-0.857908	0.196350	0.461364	-1.000000	-1.000000	-1.000000	-1.000000	-1.000000	-1.000000	-1.000000	57.000000	0.000000	-1.000000	-1.000000	2170170.000000	1776580743.450850
-11953.215000	-10667.610000	-4218.930000	12421.935000	6426.630000	2395.170000	-22539.915000	-24858.405000	-9.269002	-9.468694	-6.925272	-3.344355	-2.345682	8.321205	1.140381	-7.449028	-5.508860	-2.594200	-1.785420	-0.857908	0.196350	0.461364	-1.000000	-1.000000	-1.000000	-1.000000	-1.000000	-1.000000	-1.000000	57.000000	0.000000	-1.000000	-1.000000	2170171.000000	1776580743.450858
-11950.380000	-10672.695000	-4241.385000	12426.750000	6436.845000	2396.745000	-22540.905000	-24854.940000	-6.276526	-4.204065	2.576350	5.183920	-5.255429	4.262716	1.550232	-5.728506	-17.350620	-4.715340	0.610400	-0.861631	0.203430	0.461791	-1.000000	-1.000000	-1.000000	-1.000000	-1.000000	-1.000000	-1.000000	57.000000	0.000000	-1.000000	-1.000000	2170172.000000	1776580743.454865
-11953.845000	-10673.190000	-4245.030000	12439.755000	6452.370000	2414.115000	-22546.395000	-24860.070000	0.450041	3.626896	10.748732	10.054760	-6.048135	-5.173535	-0.506106	-0.974796	-17.350620	-4.715340	0.610400	-0.861631	0.203430	0.461791	-1.000000	-1.000000	-1.000000	-1.000000	-1.000000	-1.000000	-1.000000	57.000000	0.000000	-1.000000	-1.000000	2170173.000000	1776580743.454873
-11943.990000	-10656.090000	-4211.505000	12449.295000	6455.025000	2412.810000	-22548.015000	-24853.545000	6.861238	9.758109	13.267284	11.289494	-3.031974	-12.025243	-3.713450	3.727687	-17.350620	-4.715340	0.610400	-0.861631	0.203430	0.461791	-1.000000	-1.000000	-1.000000	-1.000000	-1.000000	-1.000000	-1.000000	57.000000	0.000000	-1.000000	-1.000000	2170174.000000	1776580743.463802
-11950.560000	-10668.195000	-4212.270000	12429.585000	6444.315000	2414.430000	-22537.755000	-24853.005000	9.881647	11.933999	11.458352	9.446023	1.925628	-11.973302	-5.613674	6.214505	-17.350620	-4.715340	0.610400	-0.861631	0.203430	0.461791	-1.000000	-1.000000	-1.000000	-1.000000	-1.000000	-1.000000	-1.000000	57.000000	0.000000	-1.000000	-1.000000	2170175.000000	1776580743.463814
-11956.095000	-10681.920000	-4242.420000	12420.945000	6432.120000	2407.095000	-22538.745000	-24856.695000	8.500717	9.375330	7.428575	4.097755	4.484864	-6.928787	-4.453967	5.998182	-17.350620	-4.715340	0.610400	-0.861631	0.203430	0.461791	-1.000000	-1.000000	-1.000000	-1.000000	-1.000000	-1.000000	-1.000000	57.000000	0.000000	-1.000000	-1.000000	2170176.000000	1776580743.463955
-11952.765000	-10668.240000	-4244.445000	12423.510000	6433.020000	2401.695000	-22546.035000	-24858.630000	3.671760	2.872854	0.529258	-3.659347	2.532963	-1.282181	-0.971903	3.512642	-17.350620	-4.715340	0.610400	-0.861631	0.203430	0.461791	-1.000000	-1.000000	-1.000000	-1.000000	-1.000000	-1.000000	-1.000000	57.000000	0.000000	-1.000000	-1.000000	2170177.000000	1776580743.463969
-11949.705000	-10647.990000	-4205.520000	12435.390000	6433.425000	2396.520000	-22554.585000	-24861.960000	-1.758814	-3.477718	-7.211271	-9.585516	-1.614349	2.022712	1.999693	-0.117842	-17.350620	-4.715340	0.610400	-0.861631	0.203430	0.461791	-1.000000	-1.000000	-1.000000	-1.000000	-1.000000	-1.000000	-1.000000	57.000000	0.000000	-1.000000	-1.000000	2170178.000000	1776580743.466889
-11942.955000	-10641.960000	-4194.180000	12452.760000	6444.855000	2396.205000	-22554.180000	-24857.055000	-4.791320	-5.241089	-9.770965	-9.527165	-3.870465	2.814009	2.524211	-3.187970	-17.350620	-4.715340	0.610400	-0.861631	0.203430	0.461791	-1.000000	-1.000000	-1.000000	-1.000000	-1.000000	-1.000000	-1.000000	57.000000	0.000000	-1.000000	-1.000000	2170179.000000	1776580743.466897
-11941.830000	-10648.980000	-4207.005000	12446.730000	6442.335000	2392.695000	-22550.805000	-24853.230000	-4.463435	-2.751030	-5.336795	-3.645457	-2.289262	2.588731	1.398236	-4.149751	-17.350620	-4.715340	0.610400	-0.861631	0.203430	0.461791	-1.000000	-1.000000	-1.000000	-1.000000	-1.000000	-1.000000	-1.000000	57.000000	0.000000	-1.000000	-1.000000	2170180.000000	1776580743.470818
-11942.505000	-10652.760000	-4209.615000	12452.715000	6440.985000	2363.445000	-22557.690000	-24852.150000	-2.164233	-0.339959	0.488096	3.381444	1.488473	2.101475	0.543074	-2.690191	-17.350620	-4.715340	0.610400	-0.861631	0.203430	0.461791	-1.000000	-1.000000	-1.000000	-1.000000	-1.000000	-1.000000	-1.000000	57.000000	0.000000	-1.000000	-1.000000	2170181.000000	1776580743.470826
-11931.435000	-10631.250000	-4173.120000	12514.545000	6460.335000	2358.360000	-22568.445000	-24848.505000	0.071365	-0.605458	2.749709	7.864477	4.580208	0.702938	0.409005	-0.057477	-18.464600	-5.783540	2.823100	-0.862852	0.194824	0.462767	-1.000000	-1.000000	-1.000000	-1.000000	-1.000000	-1.000000	-1.000000	57.000000	0.000000	-1.000000	-1.000000	2170182.000000	1776580743.474832
-11943.405000	-10651.770000	-4196.880000	12484.215000	6447.825000	2376.585000	-22554.090000	-24848.865000	1.112673	-2.323607	2.067767	9.797682	5.601411	-0.802840	0.430142	2.018601	-18.464600	-5.783540	2.823100	-0.862852	0.194824	0.462767	-1.000000	-1.000000	-1.000000	-1.000000	-1.000000	-1.000000	-1.000000	57.000000	0.000000	-1.000000	-1.000000	2170183.000000	1776580743.474843
-11950.290000	-10681.020000	-4254.165000	12381.120000	6400.980000	2371.365000	-22543.605000	-24843.645000	0.377353	-4.529754	-1.090091	6.167392	3.269203	0.269017	1.146380	2.571570	-18.464600	-5.783540	2.823100	-0.862852	0.194824	0.462767	-1.000000	-1.000000	-1.000000	-1.000000	-1.000000	-1.000000	-1.000000	57.000000	0.000000	-1.000000	-1.000000	2170184.000000	1776580743.479125
-11945.430000	-10670.895000	-4237.965000	12405.285000	6407.595000	2369.880000	-22545.045000	-24847.470000	-1.851801	-7.365021	-7.683734	-7.203081	-3.324106	4.061386	3.098113	1.678562	-18.464600	-5.783540	2.823100	-0.862852	0.194824	0.462767	-1.000000	-1.000000	-1.000000	-1.000000	-1.000000	-1.000000	-1.000000	57.000000	0.000000	-1.000000	-1.000000	2170185.000000	1776580743.479141
-11938.410000	-10649.205000	-4201.740000	12469.005000	6443.325000	2388.240000	-22535.415000	-24846.480000	-3.502746	-8.113216	-12.827643	-21.625331	-9.729930	7.646642	4.884523	-0.054817	-18.464600	-5.783540	2.823100	-0.862852	0.194824	0.462767	-1.000000	-1.000000	-1.000000	-1.000000	-1.000000	-1.000000	-1.000000	57.000000	0.000000	-1.000000	-1.000000	2170186.000000	1776580743.482937
-11939.895000	-10636.065000	-4180.320000	12506.985000	6463.845000	2410.290000	-22537.170000	-24853.995000	-2.628276	-3.037172	-8.421563	-20.268453	-8.289259	9.291314	4.664732	-1.968078	-18.464600	-5.783540	2.823100	-0.862852	0.194824	0.462767	-1.000000	-1.000000	-1.000000	-1.000000	-1.000000	-1.000000	-1.000000	57.000000	0.000000	-1.000000	-1.000000	2170187.000000	1776580743.482948
-11950.020000	-10664.820000	-4239.540000	12394.575000	6422.130000	2422.755000	-22532.355000	-24854.265000	0.011761	5.945154	4.111373	-2.490091	1.067778	9.198360	2.076556	-3.442645	-18.464600	-5.783540	2.823100	-0.862852	0.194824	0.462767	-1.000000	-1.000000	-1.000000	-1.000000	-1.000000	-1.000000	-1.000000	57.000000	0.000000	-1.000000	-1.000000	2170188.000000	1776580743.487455
-11952.990000	-10671.525000	-4249.395000	12381.930000	6405.345000	2402.730000	-22541.805000	-24857.190000	1.878506	11.511839	12.949278	12.439991	8.700195	6.624079	-1.928116	-3.870883	-18.464600	-5.783540	2.823100	-0.862852	0.194824	0.462767	-1.000000	-1.000000	-1.000000	-1.000000	-1.000000	-1.000000	-1.000000	57.000000	0.000000	-1.000000	-1.000000	2170189.000000	1776580743.487470
-11948.265000	-10663.650000	-4232.205000	12412.935000	6417.945000	2392.560000	-22546.710000	-24855.930000	1.845279	9.467028	10.980156	11.864393	7.486979	-0.201094	-5.990206	-2.855529	-18.464600	-5.783540	2.823100	-0.862852	0.194824	0.462767	-1.000000	-1.000000	-1.000000	-1.000000	-1.000000	-1.000000	-1.000000	57.000000	0.000000	-1.000000	-1.000000	2170190.000000	1776580743.490981
-11944.080000	-10660.005000	-4226.490000	12422.295000	6425.775000	2400.570000	-22538.745000	-24851.025000	1.167760	3.167757	3.639746	4.017060	1.049403	-9.995063	-8.515189	-0.520376	-18.464600	-5.783540	2.823100	-0.862852	0.194824	0.462767	-1.000000	-1.000000	-1.000000	-1.000000	-1.000000	-1.000000	-1.000000	57.000000	0.000000	-1.000000	-1.000000	2170191.000000	1776580743.490991
-11946.780000	-10662.390000	-4225.185000	12426.435000	6427.170000	2405.745000	-22535.505000	-24851.880000	1.231174	-1.831837	-0.812566	1.233518	-3.106283	-17.127592	-7.801519	2.384592	-7.782600	-4.394880	3.143560	-0.859495	0.174133	0.463439	-1.000000	-1.000000	-1.000000	-1.000000	-1.000000	-1.000000	-1.000000	57.000000	0.000000	-1.000000	-1.000000	2170192.000000	1776580743.494919
-11949.030000	-10662.255000	-4222.170000	12432.105000	6423.750000	2395.710000	-22540.770000	-24854.355000	1.736856	-3.418744	-0.422427	5.058819	-2.498472	-17.014857	-3.797665	4.505085	-7.782600	-4.394880	3.143560	-0.859495	0.174133	0.463439	-1.000000	-1.000000	-1.000000	-1.000000	-1.000000	-1.000000	-1.000000	57.000000	0.000000	-1.000000	-1.000000	2170193.000000	1776580743.494938
-11945.520000	-10658.340000	-4219.515000	12433.995000	6421.860000	2389.005000	-22544.010000	-24851.880000	1.677944	-2.565102	1.947505	9.722497	0.247172	-10.697588	1.046685	4.682024	-7.782600	-4.394880	3.143560	-0.859495	0.174133	0.463439	-1.000000	-1.000000	-1.000000	-1.000000	-1.000000	-1.000000	-1.000000	57.000000	0.000000	-1.000000	-1.000000	2170194.000000	1776580743.498948
-11946.465000	-10661.715000	-4226.535000	12424.905000	6418.530000	2385.360000	-22552.695000	-24852.195000	0.897212	-0.919589	3.032813	9.881612	1.883540	-2.599838	3.913329	3.038005	-7.782600	-4.394880	3.143560	-0.859495	0.174133	0.463439	-1.000000	-1.000000	-1.000000	-1.000000	-1.000000	-1.000000	-1.000000	57.000000	0.000000	-1.000000	-1.000000	2170195.000000	1776580743.498965
-11941.470000	-10655.010000	-4218.480000	12435.795000	6421.680000	2384.640000	-22556.115000	-24848.910000	-0.019785	0.324286	1.513511	4.429675	1.393013	3.898660	3.838789	0.738197	-7.782600	-4.394880	3.143560	-0.859495	0.174133	0.463439	-1.000000	-1.000000	-1.000000	-1.000000	-1.000000	-1.000000	-1.000000	57.000000	0.000000	-1.000000	-1.000000	2170196.000000	1776580743.502776
-11943.180000	-10656.315000	-4216.320000	12442.950000	6420.735000	2367.270000	-22561.650000	-24852.780000	-0.574709	0.785886	-1.415070	-3.218917	-0.150721	7.451600	1.907421	-1.138501	-7.782600	-4.394880	3.143560	-0.859495	0.174133	0.463439	-1.000000	-1.000000	-1.000000	-1.000000	-1.000000	-1.000000	-1.000000	57.000000	0.000000	-1.000000	-1.000000	2170197.000000	1776580743.502787
-11935.665000	-10642.995000	-4193.145000	12480.120000	6455.070000	2367.495000	-22558.860000	-24849.855000	-0.658024	0.817737	-3.229664	-7.856287	-0.719655	7.803370	0.087216	-2.194869	-7.782600	-4.394880	3.143560	-0.859495	0.174133	0.463439	-1.000000	-1.000000	-1.000000	-1.000000	-1.000000	-1.000000	-1.000000	57.000000	0.000000	-1.000000	-1.000000	2170198.000000	1776580743.506903
-11931.615000	-10642.455000	-4191.435000	12490.560000	6462.855000	2360.205000	-22553.640000	-24843.465000	-0.309346	0.949476	-2.369076	-6.549211	1.326387	5.916566	-0.065419	-2.305608	-7.782600	-4.394880	3.143560	-0.859495	0.174133	0.463439	-1.000000	-1.000000	-1.000000	-1.000000	-1.000000	-1.000000	-1.000000	57.000000	0.000000	-1.000000	-1.000000	2170199.000000	1776580743.506920
-11928.915000	-10645.200000	-4203.765000	12462.435000	6429.735000	2362.635000	-22535.820000	-24836.400000	0.292884	0.996665	-0.223187	-2.009082	4.167087	3.670052	1.943225	-1.278802	-7.782600	-4.394880	3.143560	-0.859495	0.174133	0.463439	-1.000000	-1.000000	-1.000000	-1.000000	-1.000000	-1.000000	-1.000000	57.000000	0.000000	-1.000000	-1.000000	2170200.000000	1776580743.510818
-11935.710000	-10653.615000	-4218.525000	12423.375000	6387.840000	2364.525000	-22529.295000	-24838.740000	0.473935	-0.029315	-0.229130	-1.277951	2.242448	2.499615	5.273549	0.456874	-7.782600	-4.394880	3.143560	-0.859495	0.174133	0.463439	-1.000000	-1.000000	-1.000000	-1.000000	-1.000000	-1.000000	-1.000000	57.000000	0.000000	-1.000000	-1.000000	2170201.000000	1776580743.510834
-11930.400000	-10648.665000	-4211.190000	12430.215000	6394.410000	2360.160000	-22533.930000	-24835.005000	-0.393601	-2.322448	-3.501878	-7.500267	-6.403411	2.520788	7.528426	1.631710	5.951400	-2.472120	2.212700	-0.855772	0.158691	0.466368	-1.000000	-1.000000	-1.000000	-1.000000	-1.000000	-1.000000	-1.000000	57.000000	0.000000	-1.000000	-1.000000	2170202.000000	1776580743.514894
-11940.570000	-10660.275000	-4219.605000	12430.935000	6398.460000	2387.385000	-22527.765000	-24841.260000	-1.982169	-4.528401	-7.023376	-14.717749	-14.991315	3.114852	6.161945	1.255684	5.951400	-2.472120	2.212700	-0.855772	0.158691	0.466368	-1.000000	-1.000000	-1.000000	-1.000000	-1.000000	-1.000000	-1.000000	57.000000	0.000000	-1.000000	-1.000000	2170203.000000	1776580743.514904
-11940.705000	-10652.265000	-4215.870000	12440.205000	6420.555000	2413.305000	-22533.615000	-24846.885000	-3.412819	-5.120147	-7.319061	-14.456904	-14.589550	4.481223	1.091053	-0.655364	5.951400	-2.472120	2.212700	-0.855772	0.158691	0.466368	-1.000000	-1.000000	-1.000000	-1.000000	-1.000000	-1.000000	-1.000000	57.000000	0.000000	-1.000000	-1.000000	2170204.000000	1776580743.518726
-11942.415000	-10653.705000	-4221.540000	12436.020000	6423.930000	2424.330000	-22534.335000	-24848.280000	-3.874223	-3.437855	-3.829967	-4.986857	-3.582262	6.631805	-5.226369	-3.145345	5.951400	-2.472120	2.212700	-0.855772	0.158691	0.466368	-1.000000	-1.000000	-1.000000	-1.000000	-1.000000	-1.000000	-1.000000	57.000000	0.000000	-1.000000	-1.000000	2170205.000000	1776580743.518739
-11951.730000	-10665.765000	-4233.240000	12425.715000	6414.030000	2414.205000	-22537.170000	-24854.400000	-2.973828	-0.253391	1.200966	7.723174	10.833667	6.985706	-9.849010	-4.713919	5.951400	-2.472120	2.212700	-0.855772	0.158691	0.466368	-1.000000	-1.000000	-1.000000	-1.000000	-1.000000	-1.000000	-1.000000	57.000000	0.000000	-1.000000	-1.000000	2170206.000000	1776580743.522832
-11947.455000	-10657.170000	-4217.760000	12442.635000	6421.455000	2410.695000	-22537.890000	-24853.230000	-1.094042	2.531829	5.102101	16.280715	19.153800	2.270302	-10.875094	-4.307103	5.951400	-2.472120	2.212700	-0.855772	0.158691	0.466368	-1.000000	-1.000000	-1.000000	-1.000000	-1.000000	-1.000000	-1.000000	57.000000	0.000000	-1.000000	-1.000000	2170207.000000	1776580743.522846
-11941.020000	-10652.940000	-4211.145000	12446.505000	6423.795000	2408.670000	-22534.290000	-24846.390000	1.337086	4.056238	7.315297	17.935071	17.492848	-6.910848	-8.074631	-1.795720	5.951400	-2.472120	2.212700	-0.855772	0.158691	0.466368	-1.000000	-1.000000	-1.000000	-1.000000	-1.000000	-1.000000	-1.000000	57.000000	0.000000	-1.000000	-1.000000	2170208.000000	1776580743.526871
-11935.620000	-10649.925000	-4205.295000	12458.205000	6424.695000	2400.750000	-22535.775000	-24841.440000	4.143290	4.823323	8.501661	14.371073	8.877098	-15.724544	-2.773322	2.169705	5.951400	-2.472120	2.212700	-0.855772	0.158691	0.466368	-1.000000	-1.000000	-1.000000	-1.000000	-1.000000	-1.000000	-1.000000	57.000000	0.000000	-1.000000	-1.000000	2170209.000000	1776580743.526887
-11938.905000	-10649.295000	-4198.365000	12490.290000	6435.135000	2393.865000	-22541.490000	-24847.605000	6.378524	4.899889	8.354030	8.707616	-1.084894	-19.397970	2.626190	5.873132	5.951400	-2.472120	2.212700	-0.855772	0.158691	0.466368	-1.000000	-1.000000	-1.000000	-1.000000	-1.000000	-1.000000	-1.000000	57.000000	0.000000	-1.000000	-1.000000	2170210.000000	1776580743.530841
-11942.460000	-10656.315000	-4223.880000	12433.995000	6419.610000	2394.630000	-22538.790000	-24847.830000	6.388650	3.627669	5.646327	2.622978	-8.180092	-16.307157	5.857682	7.067303	5.951400	-2.472120	2.212700	-0.855772	0.158691	0.466368	-1.000000	-1.000000	-1.000000	-1.000000	-1.000000	-1.000000	-1.000000	57.000000	0.000000	-1.000000	-1.000000	2170211.000000	1776580743.530858
-11944.575000	-10658.610000	-4233.645000	12412.260000	6400.080000	2389.860000	-22539.915000	-24848.505000	3.492407	0.699965	-0.505510	-5.687920	-11.698904	-7.925427	6.317212	4.958081	16.740220	0.915600	1.098720	-0.855100	0.155334	0.467894	-1.000000	-1.000000	-1.000000	-1.000000	-1.000000	-1.000000	-1.000000	57.000000	0.000000	-1.000000	-1.000000	2170212.000000	1776580743.534920
-11938.050000	-10651.590000	-4219.605000	12435.345000	6412.140000	2393.550000	-22538.835000	-24843.825000	-0.844014	-2.776620	-8.051579	-15.878333	-12.648550	2.339416	4.930528	1.089243	16.740220	0.915600	1.098720	-0.855100	0.155334	0.467894	-1.000000	-1.000000	-1.000000	-1.000000	-1.000000	-1.000000	-1.000000	57.000000	0.000000	-1.000000	-1.000000	2170213.000000	1776580743.534934
-11931.120000	-10646.865000	-4210.200000	12453.885000	6426.270000	2397.870000	-22537.890000	-24841.305000	-3.910396	-4.617874	-11.769998	-20.651189	-10.213568	10.901274	2.909227	-2.107652	16.740220	0.915600	1.098720	-0.855100	0.155334	0.467894	-1.000000	-1.000000	-1.000000	-1.000000	-1.000000	-1.000000	-1.000000	57.000000	0.000000	-1.000000	-1.000000	2170214.000000	1776580743.541897
-11934.720000	-10655.595000	-4214.880000	12457.755000	6424.380000	2394.855000	-22540.860000	-24844.320000	-4.174261	-3.867025	-8.674557	-14.145116	-3.467698	15.366495	1.023148	-3.338470	16.740220	0.915600	1.098720	-0.855100	0.155334	0.467894	-1.000000	-1.000000	-1.000000	-1.000000	-1.000000	-1.000000	-1.000000	57.000000	0.000000	-1.000000	-1.000000	2170215.000000	1776580743.541911
-11938.455000	-10657.755000	-4207.410000	12475.080000	6417.810000	2380.320000	-22536.495000	-24842.745000	-2.652627	-1.960559	-1.443539	0.116251	4.728933	14.522572	-0.429276	-3.024279	16.740220	0.915600	1.098720	-0.855100	0.155334	0.467894	-1.000000	-1.000000	-1.000000	-1.000000	-1.000000	-1.000000	-1.000000	57.000000	0.000000	-1.000000	-1.000000	2170216.000000	1776580743.542908
-11931.705000	-10640.430000	-4198.410000	12473.595000	6411.690000	2376.405000	-22534.155000	-24836.130000	-1.229606	-0.361377	5.179651	13.246732	9.445012	8.668422	-1.206853	-2.026268	16.740220	0.915600	1.098720	-0.855100	0.155334	0.467894	-1.000000	-1.000000	-1.000000	-1.000000	-1.000000	-1.000000	-1.000000	57.000000	0.000000	-1.000000	-1.000000	2170217.000000	1776580743.542915
-11928.015000	-10643.625000	-4223.520000	12397.095000	6390.675000	2382.255000	-22527.720000	-24827.310000	-0.372272	1.173498	7.951429	16.880873	8.139985	0.708717	-1.082515	-0.549235	16.740220	0.915600	1.098720	-0.855100	0.155334	0.467894	-1.000000	-1.000000	-1.000000	-1.000000	-1.000000	-1.000000	-1.000000	57.000000	0.000000	-1.000000	-1.000000	2170218.000000	1776580743.546923
-11925.450000	-10641.735000	-4215.915000	12419.370000	6395.715000	2370.825000	-22531.365000	-24826.590000	0.436934	2.664059	5.620351	7.745106	2.332739	-5.221932	-0.361123	1.237737	16.740220	0.915600	1.098720	-0.855100	0.155334	0.467894	-1.000000	-1.000000	-1.000000	-1.000000	-1.000000	-1.000000	-1.000000	57.000000	0.000000	-1.000000	-1.000000	2170219.000000	1776580743.546950
-11924.145000	-10638.945000	-4203.945000	12440.340000	6401.745000	2364.660000	-22534.290000	-24827.400000	1.208822	3.071896	0.367972	-6.494497	-3.337882	-7.260195	-0.007898	2.363346	16.740220	0.915600	1.098720	-0.855100	0.155334	0.467894	-1.000000	-1.000000	-1.000000	-1.000000	-1.000000	-1.000000	-1.000000	57.000000	0.000000	-1.000000	-1.000000	2170220.000000	1776580743.550939
-11921.535000	-10639.440000	-4201.560000	12444.795000	6408.990000	2380.005000	-22527.225000	-24824.700000	1.469944	1.964850	-3.229947	-12.841208	-4.510412	-5.970756	-0.590161	1.844177	16.740220	0.915600	1.098720	-0.855100	0.155334	0.467894	-1.000000	-1.000000	-1.000000	-1.000000	-1.000000	-1.000000	-1.000000	57.000000	0.000000	-1.000000	-1.000000	2170221.000000	1776580743.550946
-11924.505000	-10646.775000	-4206.465000	12445.200000	6418.395000	2391.885000	-22527.225000	-24827.805000	0.943034	-0.187336	-3.189841	-7.278565	-0.720530	-1.987504	-1.394802	-0.105346	16.068780	3.982860	-1.709120	-0.855650	0.165527	0.469115	-1.000000	-1.000000	-1.000000	-1.000000	-1.000000	-1.000000	-1.000000	57.000000	0.000000	-1.000000	-1.000000	2170222.000000	1776580743.554872
-11924.910000	-10637.730000	-4191.390000	12464.955000	6425.280000	2391.210000	-22535.145000	-24834.510000	-0.269846	-2.489384	-1.128150	3.701308	4.863772	3.416810	-1.672325	-2.471480	16.068780	3.982860	-1.709120	-0.855650	0.165527	0.469115	-1.000000	-1.000000	-1.000000	-1.000000	-1.000000	-1.000000	-1.000000	57.000000	0.000000	-1.000000	-1.000000	2170223.000000	1776580743.554883
-11928.645000	-10640.475000	-4199.895000	12468.555000	6426.000000	2397.150000	-22539.780000	-24839.730000	-1.708971	-3.636690	0.895711	12.222053	8.285451	7.266089	-1.791080	-4.370933	16.068780	3.982860	-1.709120	-0.855650	0.165527	0.469115	-1.000000	-1.000000	-1.000000	-1.000000	-1.000000	-1.000000	-1.000000	57.000000	0.000000	-1.000000	-1.000000	2170224.000000	1776580743.558937
-11935.035000	-10654.740000	-4237.785000	12438.090000	6412.725000	2397.105000	-22538.385000	-24841.980000	-2.805950	-3.230751	0.878083	13.477313	6.969761	7.122853	-2.073134	-5.066635	16.068780	3.982860	-1.709120	-0.855650	0.165527	0.469115	-1.000000	-1.000000	-1.000000	-1.000000	-1.000000	-1.000000	-1.000000	57.000000	0.000000	-1.000000	-1.000000	2170225.000000	1776580743.558946
-11941.155000	-10654.920000	-4221.270000	12438.720000	6405.570000	2383.155000	-22545.180000	-24847.470000	-3.256690	-2.394350	-2.377768	6.255918	0.888583	2.913225	-1.971747	-4.038984	16.068780	3.982860	-1.709120	-0.855650	0.165527	0.469115	-1.000000	-1.000000	-1.000000	-1.000000	-1.000000	-1.000000	-1.000000	57.000000	0.000000	-1.000000	-1.000000	2170226.000000	1776580743.562944
-11937.690000	-10647.765000	-4204.485000	12446.370000	6400.710000	2363.895000	-22551.615000	-24846.795000	-2.801012	-1.585300	-5.709611	-5.105584	-6.997659	-3.889442	-1.175961	-1.474634	16.068780	3.982860	-1.709120	-0.855650	0.165527	0.469115	-1.000000	-1.000000	-1.000000	-1.000000	-1.000000	-1.000000	-1.000000	57.000000	0.000000	-1.000000	-1.000000	2170227.000000	1776580743.562950
-11937.015000	-10650.375000	-4211.370000	12447.810000	6402.600000	2366.415000	-22552.695000	-24845.445000	-1.036091	0.043207	-4.351643	-12.838220	-12.162894	-10.578125	-0.068508	1.829498	16.068780	3.982860	-1.709120	-0.855650	0.165527	0.469115	-1.000000	-1.000000	-1.000000	-1.000000	-1.000000	-1.000000	-1.000000	57.000000	0.000000	-1.000000	-1.000000	2170228.000000	1776580743.566863
-11943.000000	-10658.880000	-4222.080000	12436.515000	6395.085000	2377.035000	-22551.480000	-24847.785000	1.700413	2.304045	0.981483	-12.891502	-11.721042	-13.102955	1.151605	4.812380	16.068780	3.982860	-1.709120	-0.855650	0.165527	0.469115	-1.000000	-1.000000	-1.000000	-1.000000	-1.000000	-1.000000	-1.000000	57.000000	0.000000	-1.000000	-1.000000	2170229.000000	1776580743.566872
-11946.195000	-10668.375000	-4228.110000	12429.675000	6389.370000	2374.290000	-22545.135000	-24845.445000	3.900198	3.437688	5.192502	-7.578157	-6.510584	-8.899010	2.671092	6.377302	16.068780	3.982860	-1.709120	-0.855650	0.165527	0.469115	-1.000000	-1.000000	-1.000000	-1.000000	-1.000000	-1.000000	-1.000000	57.000000	0.000000	-1.000000	-1.000000	2170230.000000	1776580743.571062
-11943.315000	-10669.455000	-4229.595000	12434.805000	6389.010000	2368.395000	-22543.065000	-24843.690000	4.371437	2.429736	5.309300	-1.284265	0.213775	-0.255140	4.370624	6.033900	16.068780	3.982860	-1.709120	-0.855650	0.165527	0.469115	-1.000000	-1.000000	-1.000000	-1.000000	-1.000000	-1.000000	-1.000000	57.000000	0.000000	-1.000000	-1.000000	2170231.000000	1776580743.571076
-11930.580000	-10652.940000	-4234.185000	12443.265000	6395.715000	2366.325000	-22543.200000	-24836.850000	3.664816	0.716277	2.517657	3.812388	5.763702	7.398213	5.377690	4.289751	4.867940	4.700080	-2.334780	-0.856260	0.184143	0.470153	-1.000000	-1.000000	-1.000000	-1.000000	-1.000000	-1.000000	-1.000000	57.000000	0.000000	-1.000000	-1.000000	2170232.000000	1776580743.575042
-11921.400000	-10636.740000	-4206.555000	12453.030000	6402.555000	2363.895000	-22543.965000	-24830.190000	3.273098	0.981874	0.058349	7.585344	9.204818	10.330722	4.613446	2.195488	4.867940	4.700080	-2.334780	-0.856260	0.184143	0.470153	-1.000000	-1.000000	-1.000000	-1.000000	-1.000000	-1.000000	-1.000000	57.000000	0.000000	-1.000000	-1.000000	2170233.000000	1776580743.575054
-11916.765000	-10626.345000	-4185.630000	12458.295000	6401.160000	2349.180000	-22548.195000	-24827.040000	3.589790	3.980259	0.924989	9.814425	10.294553	8.286031	1.855178	0.496223	4.867940	4.700080	-2.334780	-0.856260	0.184143	0.470153	-1.000000	-1.000000	-1.000000	-1.000000	-1.000000	-1.000000	-1.000000	57.000000	0.000000	-1.000000	-1.000000	2170234.000000	1776580743.579083
-11917.350000	-10629.810000	-4191.930000	12459.240000	6403.095000	2351.925000	-22551.705000	-24827.895000	3.318053	7.028699	4.841894	9.526355	8.645669	3.249343	-1.959684	-0.911788	4.867940	4.700080	-2.334780	-0.856260	0.184143	0.470153	-1.000000	-1.000000	-1.000000	-1.000000	-1.000000	-1.000000	-1.000000	57.000000	0.000000	-1.000000	-1.000000	2170235.000000	1776580743.579099
-11925.225000	-10637.820000	-4193.145000	12462.120000	6393.195000	2342.115000	-22556.340000	-24835.230000	0.950651	6.268904	7.310106	6.106305	4.297899	-1.811951	-5.290511	-2.651621	4.867940	4.700080	-2.334780	-0.856260	0.184143	0.470153	-1.000000	-1.000000	-1.000000	-1.000000	-1.000000	-1.000000	-1.000000	57.000000	0.000000	-1.000000	-1.000000	2170236.000000	1776580743.583401
-11932.065000	-10640.880000	-4187.205000	12476.880000	6384.420000	2336.310000	-22557.375000	-24841.755000	-3.567869	0.499705	4.573019	0.749212	-1.746315	-4.618260	-6.759694	-4.973804	4.867940	4.700080	-2.334780	-0.856260	0.184143	0.470153	-1.000000	-1.000000	-1.000000	-1.000000	-1.000000	-1.000000	-1.000000	57.000000	0.000000	-1.000000	-1.000000	2170237.000000	1776580743.583411
-11937.465000	-10651.635000	-4213.125000	12458.070000	6397.560000	2394.090000	-22528.080000	-24838.830000	-8.391125	-7.486189	-2.526988	-4.294472	-7.220219	-3.646023	-5.223803	-6.972583	4.867940	4.700080	-2.334780	-0.856260	0.184143	0.470153	-1.000000	-1.000000	-1.000000	-1.000000	-1.000000	-1.000000	-1.000000	57.000000	0.000000	-1.000000	-1.000000	2170238.000000	1776580743.587043
-11944.395000	-10665.000000	-4236.570000	12412.620000	6412.140000	2439.270000	-22514.265000	-24841.125000	-10.908942	-13.478407	-10.936711	-8.802616	-8.880545	2.956239	-0.045698	-6.967283	4.867940	4.700080	-2.334780	-0.856260	0.184143	0.470153	-1.000000	-1.000000	-1.000000	-1.000000	-1.000000	-1.000000	-1.000000	57.000000	0.000000	-1.000000	-1.000000	2170239.000000	1776580743.587053
-11936.790000	-10660.770000	-4226.850000	12430.755000	6411.015000	2414.880000	-22522.005000	-24836.490000	-9.420291	-14.631410	-17.054870	-13.370065	-5.370894	12.828449	6.610582	-4.173527	4.867940	4.700080	-2.334780	-0.856260	0.184143	0.470153	-1.000000	-1.000000	-1.000000	-1.000000	-1.000000	-1.000000	-1.000000	57.000000	0.000000	-1.000000	-1.000000	2170240.000000	1776580743.590961
-11930.715000	-10649.520000	-4215.105000	12444.705000	6400.845000	2387.205000	-22533.480000	-24835.995000	-3.887980	-9.882780	-16.407058	-14.573089	0.294636	16.315460	9.535982	0.425737	4.867940	4.700080	-2.334780	-0.856260	0.184143	0.470153	-1.000000	-1.000000	-1.000000	-1.000000	-1.000000	-1.000000	-1.000000	57.000000	0.000000	-1.000000	-1.000000	2170241.000000	1776580743.590969
-11922.255000	-10633.095000	-4199.310000	12457.350000	6409.980000	2386.305000	-22535.955000	-24830.820000	3.843688	-0.214153	-6.982345	-7.947960	3.599802	6.397403	5.519584	4.848098	-6.805960	3.036740	0.625660	-0.857969	0.197998	0.470092	-1.000000	-1.000000	-1.000000	-1.000000	-1.000000	-1.000000	-1.000000	57.000000	0.000000	-1.000000	-1.000000	2170242.000000	1776580743.595078
-11923.200000	-10637.190000	-4198.500000	12465.585000	6424.290000	2389.725000	-22534.695000	-24830.190000	10.409622	10.517099	7.203675	4.742627	3.503108	-11.340565	-2.791595	7.326071	-6.805960	3.036740	0.625660	-0.857969	0.197998	0.470092	-1.000000	-1.000000	-1.000000	-1.000000	-1.000000	-1.000000	-1.000000	57.000000	0.000000	-1.000000	-1.000000	2170243.000000	1776580743.595086
-11919.465000	-10635.885000	-4193.685000	12476.655000	6429.510000	2385.270000	-22528.440000	-24825.780000	12.654931	16.769041	18.333371	16.351016	2.295842	-24.363362	-9.416495	7.118304	-6.805960	3.036740	0.625660	-0.857969	0.197998	0.470092	-1.000000	-1.000000	-1.000000	-1.000000	-1.000000	-1.000000	-1.000000	57.000000	0.000000	-1.000000	-1.000000	2170244.000000	1776580743.599036
