Channel1	Channel2	Channel3	Channel4	Channel5	Channel6	Channel7	Channel8	FilteredChannel1	FilteredChannel2	FilteredChannel3	FilteredChannel4	FilteredChannel5	FilteredChannel6	FilteredChannel7	FilteredChannel8	GyroX	GyroY	GyroZ	AccX	AccY	AccZ	PPG1	PPG2	rawPPG1	rawPPG2	rawPPG3	Hr	Hrv	Battery	Trigger	PhysicalTrigger	AutoTrigger	NumMeasurements	Timestamp
-7552.170000	-15454.845000	30453.345000	55841.580000	47701.395000	32825.160000	-4377.510000	-13957.110000	6.320566	6.368379	0.327261	-7.487836	-12.500177	-10.660755	1.110768	6.620070	-1.464960	2.807840	-1.846460	-0.816831	0.079407	0.559447	-1.000000	-1.000000	-1.000000	-1.000000	-1.000000	-1.000000	-1.000000	58.000000	0.000000	-1.000000	-1.000000	1891160.000000	1776580184.684932
-7556.670000	-15459.525000	30451.005000	55844.100000	47704.185000	32836.860000	-4375.305000	-13962.285000	10.383601	9.165431	1.331942	-11.799109	-21.278110	-16.724843	4.777989	10.941104	-1.464960	2.807840	-1.846460	-0.816831	0.079407	0.559447	-1.000000	-1.000000	-1.000000	-1.000000	-1.000000	-1.000000	-1.000000	58.000000	0.000000	-1.000000	-1.000000	1891161.000000	1776580184.684943
-7565.895000	-15470.280000	30446.550000	55851.435000	47721.780000	32852.205000	-4379.895000	-13968.855000	9.396932	7.296744	1.527703	-10.247325	-19.143625	-13.657398	6.509466	10.232371	-1.205540	2.517900	-1.449700	-0.818296	0.075683	0.559569	-1.000000	-1.000000	-1.000000	-1.000000	-1.000000	-1.000000	-1.000000	58.000000	0.000000	-1.000000	-1.000000	1891162.000000	1776580184.689012
-7576.605000	-15479.370000	30439.260000	55854.900000	47736.315000	32857.605000	-4394.835000	-13979.340000	3.797275	1.606483	0.620038	-3.712801	-7.103296	-2.832135	5.262578	4.811215	-1.205540	2.517900	-1.449700	-0.818296	0.075683	0.559569	-1.000000	-1.000000	-1.000000	-1.000000	-1.000000	-1.000000	-1.000000	58.000000	0.000000	-1.000000	-1.000000	1891163.000000	1776580184.689045
-7567.965000	-15469.515000	30450.735000	55872.630000	47759.760000	32877.720000	-4387.725000	-13971.555000	-3.327543	-4.718879	-0.808745	4.408507	8.727330	9.635903	1.312316	-2.373071	-1.205540	2.517900	-1.449700	-0.818296	0.075683	0.559569	-1.000000	-1.000000	-1.000000	-1.000000	-1.000000	-1.000000	-1.000000	58.000000	0.000000	-1.000000	-1.000000	1891164.000000	1776580184.693066
-7569.360000	-15469.470000	30449.880000	55869.885000	47752.110000	32875.920000	-4380.705000	-13972.005000	-7.687403	-7.686393	-1.282369	10.391239	20.331245	17.186294	-2.724831	-7.165113	-1.205540	2.517900	-1.449700	-0.818296	0.075683	0.559569	-1.000000	-1.000000	-1.000000	-1.000000	-1.000000	-1.000000	-1.000000	58.000000	0.000000	-1.000000	-1.000000	1891165.000000	1776580184.693080
-7570.620000	-15471.225000	30440.430000	55849.635000	47725.245000	32853.555000	-4383.990000	-13973.580000	-7.127118	-5.791954	-0.363406	11.162884	21.186727	15.917576	-3.959153	-7.297801	-1.205540	2.517900	-1.449700	-0.818296	0.075683	0.559569	-1.000000	-1.000000	-1.000000	-1.000000	-1.000000	-1.000000	-1.000000	58.000000	0.000000	-1.000000	-1.000000	1891166.000000	1776580184.696962
-7564.770000	-15465.645000	30441.330000	55837.935000	47705.310000	32839.650000	-4383.405000	-13968.090000	-3.021080	-1.088126	0.556239	5.380276	9.756629	5.728022	-2.345111	-3.831466	-1.205540	2.517900	-1.449700	-0.818296	0.075683	0.559569	-1.000000	-1.000000	-1.000000	-1.000000	-1.000000	-1.000000	-1.000000	58.000000	0.000000	-1.000000	-1.000000	1891167.000000	1776580184.696972
-7557.165000	-15458.355000	30447.945000	55839.060000	47702.115000	32838.030000	-4377.150000	-13958.415000	1.930856	3.475701	0.614084	-4.156670	-7.877956	-8.375188	0.107187	0.810247	-1.205540	2.517900	-1.449700	-0.818296	0.075683	0.559569	-1.000000	-1.000000	-1.000000	-1.000000	-1.000000	-1.000000	-1.000000	58.000000	0.000000	-1.000000	-1.000000	1891168.000000	1776580184.701061
-7558.605000	-15459.660000	30449.160000	55842.345000	47706.030000	32833.710000	-4378.230000	-13959.090000	5.550789	6.058694	0.556339	-11.270170	-20.959581	-18.328424	1.852815	4.609905	-1.205540	2.517900	-1.449700	-0.818296	0.075683	0.559569	-1.000000	-1.000000	-1.000000	-1.000000	-1.000000	-1.000000	-1.000000	58.000000	0.000000	-1.000000	-1.000000	1891169.000000	1776580184.701075
-7568.100000	-15469.830000	30445.020000	55847.070000	47714.940000	32836.230000	-4385.070000	-13969.215000	6.178976	5.620977	0.866991	-11.391441	-21.785018	-18.805443	2.119411	5.796003	-1.205540	2.517900	-1.449700	-0.818296	0.075683	0.559569	-1.000000	-1.000000	-1.000000	-1.000000	-1.000000	-1.000000	-1.000000	58.000000	0.000000	-1.000000	-1.000000	1891170.000000	1776580184.705104
-7567.380000	-15469.875000	30446.460000	55856.970000	47729.790000	32848.110000	-4386.195000	-13968.090000	3.295037	2.099099	0.926466	-4.898069	-10.668598	-10.285193	0.648784	3.451287	-1.205540	2.517900	-1.449700	-0.818296	0.075683	0.559569	-1.000000	-1.000000	-1.000000	-1.000000	-1.000000	-1.000000	-1.000000	58.000000	0.000000	-1.000000	-1.000000	1891171.000000	1776580184.705125
-7572.735000	-15477.165000	30444.120000	55864.710000	47741.805000	32847.345000	-4394.745000	-13974.300000	-1.450171	-2.762913	0.259184	4.106000	5.535427	2.390946	-1.829287	-1.094612	-1.419180	1.815940	-1.144500	-0.818418	0.074158	0.561217	-1.000000	-1.000000	-1.000000	-1.000000	-1.000000	-1.000000	-1.000000	58.000000	0.000000	-1.000000	-1.000000	1891172.000000	1776580184.709005
-7563.015000	-15467.130000	30449.565000	55867.230000	47747.205000	32857.965000	-4389.525000	-13963.590000	-5.082355	-6.128936	-0.706986	10.796965	18.252891	13.006181	-3.791605	-4.864178	-1.419180	1.815940	-1.144500	-0.818418	0.074158	0.561217	-1.000000	-1.000000	-1.000000	-1.000000	-1.000000	-1.000000	-1.000000	58.000000	0.000000	-1.000000	-1.000000	1891173.000000	1776580184.709024
-7556.355000	-15460.875000	30447.810000	55854.450000	47728.665000	32856.435000	-4381.785000	-13956.705000	-5.307713	-5.836034	-1.197248	11.777296	21.293939	17.188740	-3.659086	-5.318329	-1.419180	1.815940	-1.144500	-0.818418	0.074158	0.561217	-1.000000	-1.000000	-1.000000	-1.000000	-1.000000	-1.000000	-1.000000	58.000000	0.000000	-1.000000	-1.000000	1891174.000000	1776580184.712968
-7557.165000	-15460.245000	30443.625000	55839.960000	47706.885000	32848.560000	-4377.465000	-13957.245000	-2.172684	-2.015647	-1.064774	6.269668	13.088453	13.975304	-0.881944	-2.271166	-1.419180	1.815940	-1.144500	-0.818418	0.074158	0.561217	-1.000000	-1.000000	-1.000000	-1.000000	-1.000000	-1.000000	-1.000000	58.000000	0.000000	-1.000000	-1.000000	1891175.000000	1776580184.712981
-7566.255000	-15467.805000	30437.280000	55830.195000	47694.780000	32841.855000	-4383.675000	-13966.155000	1.620374	2.507960	-0.975568	-3.173828	-2.268335	5.300143	2.929709	1.603010	-1.419180	1.815940	-1.144500	-0.818418	0.074158	0.561217	-1.000000	-1.000000	-1.000000	-1.000000	-1.000000	-1.000000	-1.000000	58.000000	0.000000	-1.000000	-1.000000	1891176.000000	1776580184.717032
-7570.755000	-15473.295000	30434.130000	55828.170000	47694.735000	32839.470000	-4388.940000	-13969.170000	2.962099	4.393297	-1.411526	-11.436430	-16.318280	-4.784207	4.868747	3.100649	-1.419180	1.815940	-1.144500	-0.818418	0.074158	0.561217	-1.000000	-1.000000	-1.000000	-1.000000	-1.000000	-1.000000	-1.000000	58.000000	0.000000	-1.000000	-1.000000	1891177.000000	1776580184.717054
-7571.340000	-15474.105000	30435.030000	55836.495000	47706.210000	32844.420000	-4392.495000	-13969.665000	1.256476	2.720122	-1.883878	-13.672201	-21.026403	-11.577281	3.414064	1.548962	-1.419180	1.815940	-1.144500	-0.818418	0.074158	0.561217	-1.000000	-1.000000	-1.000000	-1.000000	-1.000000	-1.000000	-1.000000	58.000000	0.000000	-1.000000	-1.000000	1891178.000000	1776580184.720952
-7567.830000	-15470.595000	30440.700000	55848.780000	47721.735000	32853.735000	-4392.090000	-13965.795000	-1.332573	-0.464415	-1.338497	-8.289641	-13.855331	-12.072490	-0.166977	-0.971154	-1.419180	1.815940	-1.144500	-0.818418	0.074158	0.561217	-1.000000	-1.000000	-1.000000	-1.000000	-1.000000	-1.000000	-1.000000	58.000000	0.000000	-1.000000	-1.000000	1891179.000000	1776580184.720964
-7576.155000	-15478.875000	30436.695000	55852.470000	47729.565000	32854.095000	-4400.550000	-13973.265000	-2.466435	-2.519028	0.572150	1.895966	0.780378	-6.739287	-3.319951	-2.190183	-1.419180	1.815940	-1.144500	-0.818418	0.074158	0.561217	-1.000000	-1.000000	-1.000000	-1.000000	-1.000000	-1.000000	-1.000000	58.000000	0.000000	-1.000000	-1.000000	1891180.000000	1776580184.725068
-7576.650000	-15478.830000	30437.550000	55858.095000	47738.070000	32856.435000	-4401.180000	-13975.560000	-1.803165	-2.616128	2.751353	11.204891	14.506472	0.707957	-4.483350	-1.763011	-1.419180	1.815940	-1.144500	-0.818418	0.074158	0.561217	-1.000000	-1.000000	-1.000000	-1.000000	-1.000000	-1.000000	-1.000000	58.000000	0.000000	-1.000000	-1.000000	1891181.000000	1776580184.725101
-7575.930000	-15477.570000	30434.400000	55849.905000	47731.185000	32853.420000	-4397.490000	-13975.245000	-0.301186	-1.387315	3.681511	14.620448	20.168611	5.934606	-3.425882	-0.619110	-1.113980	1.648080	-0.991900	-0.817259	0.073913	0.561156	-1.000000	-1.000000	-1.000000	-1.000000	-1.000000	-1.000000	-1.000000	58.000000	0.000000	-1.000000	-1.000000	1891182.000000	1776580184.728954
-7565.085000	-15466.140000	30437.190000	55840.635000	47713.050000	32847.840000	-4385.340000	-13963.455000	1.483595	0.633148	2.894329	10.514467	15.252024	6.672983	-0.425030	0.820580	-1.113980	1.648080	-0.991900	-0.817259	0.073913	0.561156	-1.000000	-1.000000	-1.000000	-1.000000	-1.000000	-1.000000	-1.000000	58.000000	0.000000	-1.000000	-1.000000	1891183.000000	1776580184.728962
-7561.260000	-15461.145000	30440.925000	55837.845000	47703.420000	32837.130000	-4387.230000	-13962.915000	3.458063	3.134671	1.220295	1.302835	2.513264	3.328438	3.539304	2.672545	-1.113980	1.648080	-0.991900	-0.817259	0.073913	0.561156	-1.000000	-1.000000	-1.000000	-1.000000	-1.000000	-1.000000	-1.000000	58.000000	0.000000	-1.000000	-1.000000	1891184.000000	1776580184.733042
-7568.370000	-15467.940000	30435.705000	55832.670000	47696.715000	32827.995000	-4395.645000	-13971.915000	4.794867	5.003227	-0.251320	-7.916403	-11.265776	-1.888855	6.178700	4.088026	-1.113980	1.648080	-0.991900	-0.817259	0.073913	0.561156	-1.000000	-1.000000	-1.000000	-1.000000	-1.000000	-1.000000	-1.000000	58.000000	0.000000	-1.000000	-1.000000	1891185.000000	1776580184.733054
-7569.585000	-15471.495000	30433.860000	55832.580000	47699.685000	32832.720000	-4393.665000	-13972.320000	3.987747	4.447690	-1.287155	-12.552859	-18.840501	-5.961628	5.365364	3.438926	-1.113980	1.648080	-0.991900	-0.817259	0.073913	0.561156	-1.000000	-1.000000	-1.000000	-1.000000	-1.000000	-1.000000	-1.000000	58.000000	0.000000	-1.000000	-1.000000	1891186.000000	1776580184.740284
-7556.580000	-15456.240000	30443.940000	55846.845000	47715.345000	32839.830000	-4385.700000	-13954.095000	1.058670	1.345904	-1.915338	-10.811440	-16.512577	-6.181986	1.742468	0.946488	-1.113980	1.648080	-0.991900	-0.817259	0.073913	0.561156	-1.000000	-1.000000	-1.000000	-1.000000	-1.000000	-1.000000	-1.000000	58.000000	0.000000	-1.000000	-1.000000	1891187.000000	1776580184.740298
-7547.220000	-15449.265000	30454.155000	55862.460000	47734.155000	32854.095000	-4378.815000	-13943.430000	-1.648238	-1.772216	-1.441431	-3.670975	-5.638356	-1.810590	-1.692191	-0.792342	-1.113980	1.648080	-0.991900	-0.817259	0.073913	0.561156	-1.000000	-1.000000	-1.000000	-1.000000	-1.000000	-1.000000	-1.000000	58.000000	0.000000	-1.000000	-1.000000	1891188.000000	1776580184.741127
-7574.715000	-15477.165000	30430.125000	55849.320000	47727.045000	32855.445000	-4401.765000	-13972.455000	-2.724693	-3.211602	-0.018242	5.168099	7.919705	4.912528	-3.248661	-0.781930	-1.113980	1.648080	-0.991900	-0.817259	0.073913	0.561156	-1.000000	-1.000000	-1.000000	-1.000000	-1.000000	-1.000000	-1.000000	58.000000	0.000000	-1.000000	-1.000000	1891189.000000	1776580184.741135
-7568.370000	-15466.005000	30431.160000	55843.650000	47725.155000	32858.505000	-4397.940000	-13966.155000	-3.564994	-4.131171	0.277431	10.216814	16.408702	9.852552	-3.987740	-1.340583	-1.113980	1.648080	-0.991900	-0.817259	0.073913	0.561156	-1.000000	-1.000000	-1.000000	-1.000000	-1.000000	-1.000000	-1.000000	58.000000	0.000000	-1.000000	-1.000000	1891190.000000	1776580184.746007
-7572.960000	-15475.860000	30426.210000	55836.495000	47713.140000	32846.310000	-4395.285000	-13970.250000	-4.924358	-5.148881	-1.520422	8.306405	15.200344	9.653292	-4.585345	-3.606712	-1.113980	1.648080	-0.991900	-0.817259	0.073913	0.561156	-1.000000	-1.000000	-1.000000	-1.000000	-1.000000	-1.000000	-1.000000	58.000000	0.000000	-1.000000	-1.000000	1891191.000000	1776580184.746020
-7578.855000	-15480.090000	30422.745000	55828.620000	47701.755000	32846.310000	-4388.580000	-13973.985000	-5.361370	-5.126758	-3.594298	1.371790	5.788739	4.036347	-3.745061	-5.536496	-0.274680	2.456860	-0.045780	-0.816465	0.074402	0.560240	-1.000000	-1.000000	-1.000000	-1.000000	-1.000000	-1.000000	-1.000000	58.000000	0.000000	-1.000000	-1.000000	1891192.000000	1776580184.749146
-7570.260000	-15468.615000	30430.395000	55829.745000	47697.885000	32841.900000	-4384.170000	-13966.155000	-3.719877	-3.256099	-3.723205	-5.700739	-5.953503	-3.857164	-0.698145	-5.055117	-0.274680	2.456860	-0.045780	-0.816465	0.074402	0.560240	-1.000000	-1.000000	-1.000000	-1.000000	-1.000000	-1.000000	-1.000000	58.000000	0.000000	-1.000000	-1.000000	1891193.000000	1776580184.749154
-7572.375000	-15471.135000	30432.555000	55836.720000	47705.625000	32840.640000	-4391.505000	-13970.925000	-0.157208	0.421939	-1.154776	-8.587827	-13.416493	-9.647837	3.071856	-1.942278	-0.274680	2.456860	-0.045780	-0.816465	0.074402	0.560240	-1.000000	-1.000000	-1.000000	-1.000000	-1.000000	-1.000000	-1.000000	58.000000	0.000000	-1.000000	-1.000000	1891194.000000	1776580184.753181
-7585.425000	-15484.230000	30426.615000	55837.665000	47712.060000	32832.990000	-4405.995000	-13983.615000	3.685988	4.340163	2.795516	-5.898414	-12.767567	-10.823768	4.738269	1.950157	-0.274680	2.456860	-0.045780	-0.816465	0.074402	0.560240	-1.000000	-1.000000	-1.000000	-1.000000	-1.000000	-1.000000	-1.000000	58.000000	0.000000	-1.000000	-1.000000	1891195.000000	1776580184.753194
-7585.830000	-15484.005000	30430.215000	55843.920000	47721.825000	32846.400000	-4408.155000	-13984.155000	5.375647	5.886289	5.522109	0.203799	-5.052736	-7.551640	2.734024	3.992918	-0.274680	2.456860	-0.045780	-0.816465	0.074402	0.560240	-1.000000	-1.000000	-1.000000	-1.000000	-1.000000	-1.000000	-1.000000	58.000000	0.000000	-1.000000	-1.000000	1891196.000000	1776580184.757154
-7588.620000	-15488.820000	30427.830000	55850.805000	47727.495000	32857.110000	-4403.925000	-13983.750000	4.232131	4.316680	5.512093	5.998982	4.865858	-1.255976	-1.172513	3.558262	-0.274680	2.456860	-0.045780	-0.816465	0.074402	0.560240	-1.000000	-1.000000	-1.000000	-1.000000	-1.000000	-1.000000	-1.000000	58.000000	0.000000	-1.000000	-1.000000	1891197.000000	1776580184.757162
-7584.480000	-15486.930000	30425.670000	55849.410000	47726.775000	32851.890000	-4404.735000	-13978.890000	1.938074	1.399089	3.211183	8.696850	11.532995	5.668217	-3.475919	2.321513	-0.274680	2.456860	-0.045780	-0.816465	0.074402	0.560240	-1.000000	-1.000000	-1.000000	-1.000000	-1.000000	-1.000000	-1.000000	58.000000	0.000000	-1.000000	-1.000000	1891198.000000	1776580184.761016
-7572.780000	-15476.310000	30430.035000	55844.775000	47722.545000	32852.250000	-4394.565000	-13966.200000	0.669039	-0.505882	0.091443	7.200279	11.758492	9.738357	-2.377348	2.106908	-0.274680	2.456860	-0.045780	-0.816465	0.074402	0.560240	-1.000000	-1.000000	-1.000000	-1.000000	-1.000000	-1.000000	-1.000000	58.000000	0.000000	-1.000000	-1.000000	1891199.000000	1776580184.761023
-7568.820000	-15474.150000	30424.770000	55831.185000	47706.660000	32845.680000	-4385.205000	-13959.450000	1.372689	-0.135047	-2.310206	2.045167	5.765335	8.682678	1.332517	3.359910	-0.274680	2.456860	-0.045780	-0.816465	0.074402	0.560240	-1.000000	-1.000000	-1.000000	-1.000000	-1.000000	-1.000000	-1.000000	58.000000	0.000000	-1.000000	-1.000000	1891200.000000	1776580184.764969
-7567.965000	-15472.305000	30423.375000	55822.635000	47695.320000	32839.740000	-4386.870000	-13960.755000	2.943000	1.683653	-3.341583	-4.717407	-3.430065	3.352244	5.290952	4.717292	-0.274680	2.456860	-0.045780	-0.816465	0.074402	0.560240	-1.000000	-1.000000	-1.000000	-1.000000	-1.000000	-1.000000	-1.000000	58.000000	0.000000	-1.000000	-1.000000	1891201.000000	1776580184.764978
-7566.750000	-15468.930000	30426.660000	55824.255000	47695.005000	32837.085000	-4391.055000	-13961.700000	3.225198	2.868004	-3.179283	-9.897012	-11.284086	-3.165490	6.650951	4.015276	-0.595140	2.899400	0.549360	-0.816404	0.075317	0.559691	-1.000000	-1.000000	-1.000000	-1.000000	-1.000000	-1.000000	-1.000000	58.000000	0.000000	-1.000000	-1.000000	1891202.000000	1776580184.769173
-7576.425000	-15476.805000	30424.230000	55826.820000	47695.635000	32835.780000	-4396.365000	-13970.745000	1.040600	2.019779	-2.082356	-10.468442	-13.583818	-7.491175	3.938409	0.369337	-0.595140	2.899400	0.549360	-0.816404	0.075317	0.559691	-1.000000	-1.000000	-1.000000	-1.000000	-1.000000	-1.000000	-1.000000	58.000000	0.000000	-1.000000	-1.000000	1891203.000000	1776580184.769187
-7573.770000	-15472.935000	30430.035000	55839.915000	47712.780000	32847.885000	-4394.835000	-13968.945000	-2.935377	-0.740681	-0.426593	-5.602527	-8.803837	-7.535855	-1.469372	-4.829925	-0.595140	2.899400	0.549360	-0.816404	0.075317	0.559691	-1.000000	-1.000000	-1.000000	-1.000000	-1.000000	-1.000000	-1.000000	58.000000	0.000000	-1.000000	-1.000000	1891204.000000	1776580184.773024
-7579.620000	-15477.435000	30427.605000	55843.155000	47721.780000	32855.355000	-4402.890000	-13978.215000	-6.578308	-3.917394	1.197736	2.491481	0.957392	-3.285220	-6.395786	-8.864938	-0.595140	2.899400	0.549360	-0.816404	0.075317	0.559691	-1.000000	-1.000000	-1.000000	-1.000000	-1.000000	-1.000000	-1.000000	58.000000	0.000000	-1.000000	-1.000000	1891205.000000	1776580184.773043
-7577.370000	-15476.850000	30428.865000	55844.910000	47726.010000	32855.805000	-4400.865000	-13975.740000	-7.788749	-5.719056	2.140722	9.596666	10.832361	2.905878	-8.373943	-9.646672	-0.595140	2.899400	0.549360	-0.816404	0.075317	0.559691	-1.000000	-1.000000	-1.000000	-1.000000	-1.000000	-1.000000	-1.000000	58.000000	0.000000	-1.000000	-1.000000	1891206.000000	1776580184.777109
-7573.185000	-15471.090000	30430.305000	55841.715000	47718.360000	32850.675000	-4395.870000	-13967.865000	-5.823945	-5.205573	2.031755	11.887541	15.441050	7.185639	-6.699592	-6.653778	-0.595140	2.899400	0.549360	-0.816404	0.075317	0.559691	-1.000000	-1.000000	-1.000000	-1.000000	-1.000000	-1.000000	-1.000000	58.000000	0.000000	-1.000000	-1.000000	1891207.000000	1776580184.777122
-7562.430000	-15460.110000	30432.555000	55831.635000	47700.630000	32841.090000	-4390.605000	-13957.155000	-1.325314	-2.343486	1.165617	8.220707	11.902250	6.740559	-2.128251	-0.701258	-0.595140	2.899400	0.549360	-0.816404	0.075317	0.559691	-1.000000	-1.000000	-1.000000	-1.000000	-1.000000	-1.000000	-1.000000	58.000000	0.000000	-1.000000	-1.000000	1891208.000000	1776580184.781204
-7571.205000	-15469.110000	30423.735000	55816.920000	47683.710000	32830.560000	-4398.525000	-13965.840000	3.774659	1.680317	0.003137	0.415148	1.622326	1.781347	3.123279	5.775452	-0.595140	2.899400	0.549360	-0.816404	0.075317	0.559691	-1.000000	-1.000000	-1.000000	-1.000000	-1.000000	-1.000000	-1.000000	58.000000	0.000000	-1.000000	-1.000000	1891209.000000	1776580184.781213
-7575.615000	-15472.620000	30421.305000	55816.110000	47684.745000	32839.335000	-4396.590000	-13970.340000	6.607661	4.321750	-1.394778	-7.778775	-9.974377	-4.444770	6.207306	9.178560	-0.595140	2.899400	0.549360	-0.816404	0.075317	0.559691	-1.000000	-1.000000	-1.000000	-1.000000	-1.000000	-1.000000	-1.000000	58.000000	0.000000	-1.000000	-1.000000	1891210.000000	1776580184.785147
-7567.290000	-15459.525000	30432.780000	55826.640000	47692.800000	32842.440000	-4394.205000	-13963.995000	5.674244	4.040982	-2.522608	-11.935611	-16.040905	-7.579793	5.915386	7.681659	-0.595140	2.899400	0.549360	-0.816404	0.075317	0.559691	-1.000000	-1.000000	-1.000000	-1.000000	-1.000000	-1.000000	-1.000000	58.000000	0.000000	-1.000000	-1.000000	1891211.000000	1776580184.785156
-7567.065000	-15460.380000	30434.850000	55834.695000	47705.625000	32844.330000	-4398.480000	-13964.895000	2.521578	2.121220	-2.107256	-9.320822	-12.735533	-5.582865	3.350033	3.116796	-0.625660	2.243220	0.442540	-0.817137	0.075317	0.560118	-1.000000	-1.000000	-1.000000	-1.000000	-1.000000	-1.000000	-1.000000	58.000000	0.000000	-1.000000	-1.000000	1891212.000000	1776580184.789199
-7569.090000	-15466.680000	30431.835000	55835.910000	47715.120000	32860.395000	-4397.490000	-13964.310000	-0.388468	0.307453	-0.022977	-1.425375	-2.059427	-0.085458	0.245317	-1.300957	-0.625660	2.243220	0.442540	-0.817137	0.075317	0.560118	-1.000000	-1.000000	-1.000000	-1.000000	-1.000000	-1.000000	-1.000000	58.000000	0.000000	-1.000000	-1.000000	1891213.000000	1776580184.789208
-7559.370000	-15455.790000	30442.185000	55848.150000	47733.075000	32881.140000	-4389.300000	-13954.320000	-1.904813	-1.033500	2.155546	6.919180	9.840472	6.014320	-1.959892	-3.569949	-0.625660	2.243220	0.442540	-0.817137	0.075317	0.560118	-1.000000	-1.000000	-1.000000	-1.000000	-1.000000	-1.000000	-1.000000	58.000000	0.000000	-1.000000	-1.000000	1891214.000000	1776580184.793366
-7561.080000	-15456.645000	30439.035000	55843.785000	47729.835000	32872.410000	-4391.325000	-13955.175000	-1.896777	-1.660520	3.114127	11.292997	16.796540	10.051971	-2.355474	-3.262520	-0.625660	2.243220	0.442540	-0.817137	0.075317	0.560118	-1.000000	-1.000000	-1.000000	-1.000000	-1.000000	-1.000000	-1.000000	58.000000	0.000000	-1.000000	-1.000000	1891215.000000	1776580184.793380
-7561.800000	-15456.645000	30434.535000	55833.075000	47712.510000	32856.660000	-4390.965000	-13955.265000	-1.033054	-1.387269	2.410843	9.739394	15.169416	9.097470	-1.356272	-1.486546	-0.625660	2.243220	0.442540	-0.817137	0.075317	0.560118	-1.000000	-1.000000	-1.000000	-1.000000	-1.000000	-1.000000	-1.000000	58.000000	0.000000	-1.000000	-1.000000	1891216.000000	1776580184.797111
-7564.815000	-15460.785000	30426.570000	55818.360000	47687.805000	32838.660000	-4395.105000	-13960.350000	-0.508727	-0.882419	0.025295	2.869038	4.946905	1.808131	-0.369211	-0.149827	-0.625660	2.243220	0.442540	-0.817137	0.075317	0.560118	-1.000000	-1.000000	-1.000000	-1.000000	-1.000000	-1.000000	-1.000000	58.000000	0.000000	-1.000000	-1.000000	1891217.000000	1776580184.797126
-7561.755000	-15457.635000	30426.345000	55814.985000	47679.165000	32834.520000	-4393.215000	-13956.570000	-0.816424	-0.814179	-3.127941	-6.031922	-9.331626	-8.695206	-0.285237	-0.234207	-0.625660	2.243220	0.442540	-0.817137	0.075317	0.560118	-1.000000	-1.000000	-1.000000	-1.000000	-1.000000	-1.000000	-1.000000	58.000000	0.000000	-1.000000	-1.000000	1891218.000000	1776580184.801094
-7557.840000	-15453.405000	30431.790000	55819.260000	47684.655000	32840.685000	-4388.220000	-13950.720000	-1.257727	-0.881592	-5.063397	-12.015984	-19.790725	-15.900678	-0.703589	-0.964120	-0.625660	2.243220	0.442540	-0.817137	0.075317	0.560118	-1.000000	-1.000000	-1.000000	-1.000000	-1.000000	-1.000000	-1.000000	58.000000	0.000000	-1.000000	-1.000000	1891219.000000	1776580184.801104
-7563.690000	-15459.840000	30431.430000	55825.380000	47692.440000	32842.845000	-4388.130000	-13954.995000	-1.054346	-0.511019	-4.168811	-11.429338	-19.926503	-14.797332	-0.656843	-1.050358	-0.625660	2.243220	0.442540	-0.817137	0.075317	0.560118	-1.000000	-1.000000	-1.000000	-1.000000	-1.000000	-1.000000	-1.000000	58.000000	0.000000	-1.000000	-1.000000	1891220.000000	1776580184.805174
-7573.365000	-15471.810000	30425.760000	55833.660000	47706.750000	32842.935000	-4395.105000	-13963.230000	-0.613885	-0.172237	-0.998533	-4.562403	-9.358120	-5.988109	-0.073379	-0.559835	-0.625660	2.243220	0.442540	-0.817137	0.075317	0.560118	-1.000000	-1.000000	-1.000000	-1.000000	-1.000000	-1.000000	-1.000000	58.000000	0.000000	-1.000000	-1.000000	1891221.000000	1776580184.805183
-7579.530000	-15475.365000	30423.735000	55841.175000	47718.720000	32855.760000	-4405.140000	-13972.365000	-0.907357	-0.776184	2.111146	4.670506	6.089976	5.308100	-0.011326	-0.652143	-1.953280	2.594200	1.022420	-0.817503	0.076172	0.559813	-1.000000	-1.000000	-1.000000	-1.000000	-1.000000	-1.000000	-1.000000	58.000000	0.000000	-1.000000	-1.000000	1891222.000000	1776580184.809129
-7569.675000	-15461.640000	30433.185000	55847.475000	47728.305000	32869.305000	-4400.190000	-13964.805000	-1.590232	-1.618289	3.589414	11.492413	18.491922	13.863328	-0.983614	-1.480283	-1.953280	2.594200	1.022420	-0.817503	0.076172	0.559813	-1.000000	-1.000000	-1.000000	-1.000000	-1.000000	-1.000000	-1.000000	58.000000	0.000000	-1.000000	-1.000000	1891223.000000	1776580184.809143
-7565.670000	-15457.860000	30432.780000	55838.970000	47715.660000	32856.975000	-4398.255000	-13962.240000	-0.955464	-0.669131	3.778147	12.712160	21.949340	16.682843	-1.774458	-1.525241	-1.953280	2.594200	1.022420	-0.817503	0.076172	0.559813	-1.000000	-1.000000	-1.000000	-1.000000	-1.000000	-1.000000	-1.000000	58.000000	0.000000	-1.000000	-1.000000	1891224.000000	1776580184.813094
-7565.805000	-15459.390000	30427.515000	55823.220000	47690.370000	32831.370000	-4403.970000	-13962.285000	1.619066	2.366665	3.253299	7.597188	14.595107	12.208275	-1.067690	0.297986	-1.953280	2.594200	1.022420	-0.817503	0.076172	0.559813	-1.000000	-1.000000	-1.000000	-1.000000	-1.000000	-1.000000	-1.000000	58.000000	0.000000	-1.000000	-1.000000	1891225.000000	1776580184.813105
-7563.600000	-15457.590000	30428.010000	55820.790000	47684.835000	32828.445000	-4394.790000	-13955.940000	4.460593	5.149199	1.814515	-1.664878	-0.346080	1.439052	0.827211	3.072533	-1.953280	2.594200	1.022420	-0.817503	0.076172	0.559813	-1.000000	-1.000000	-1.000000	-1.000000	-1.000000	-1.000000	-1.000000	58.000000	0.000000	-1.000000	-1.000000	1891226.000000	1776580184.817204
-7568.280000	-15464.295000	30419.055000	55810.935000	47673.540000	32821.830000	-4397.985000	-13958.865000	5.384234	5.314158	-0.488694	-10.345801	-15.112454	-10.245514	2.797305	4.996784	-1.953280	2.594200	1.022420	-0.817503	0.076172	0.559813	-1.000000	-1.000000	-1.000000	-1.000000	-1.000000	-1.000000	-1.000000	58.000000	0.000000	-1.000000	-1.000000	1891227.000000	1776580184.817210
-7563.105000	-15455.430000	30431.880000	55826.055000	47690.550000	32844.600000	-4392.810000	-13954.230000	3.698033	2.685322	-2.644791	-13.712485	-21.645532	-15.793202	3.895104	4.887779	-1.953280	2.594200	1.022420	-0.817503	0.076172	0.559813	-1.000000	-1.000000	-1.000000	-1.000000	-1.000000	-1.000000	-1.000000	58.000000	0.000000	-1.000000	-1.000000	1891228.000000	1776580184.822840
-7570.665000	-15466.095000	30425.085000	55828.890000	47695.995000	32844.510000	-4399.965000	-13961.565000	0.449425	-0.983844	-3.257320	-9.837068	-16.579434	-11.804498	3.473428	2.698303	-1.953280	2.594200	1.022420	-0.817503	0.076172	0.559813	-1.000000	-1.000000	-1.000000	-1.000000	-1.000000	-1.000000	-1.000000	58.000000	0.000000	-1.000000	-1.000000	1891229.000000	1776580184.822849
-7563.735000	-15454.800000	30435.255000	55840.455000	47712.510000	32861.790000	-4400.055000	-13957.965000	-2.646175	-3.723352	-1.934521	-0.843833	-3.113795	-1.145356	1.463239	-0.624116	-1.953280	2.594200	1.022420	-0.817503	0.076172	0.559813	-1.000000	-1.000000	-1.000000	-1.000000	-1.000000	-1.000000	-1.000000	58.000000	0.000000	-1.000000	-1.000000	1891230.000000	1776580184.825307
-7564.185000	-15450.480000	30425.310000	55823.310000	47699.235000	32850.180000	-4416.795000	-13961.745000	-4.155986	-4.250033	0.219720	7.957648	10.905325	9.289811	-1.589459	-3.593036	-1.953280	2.594200	1.022420	-0.817503	0.076172	0.559813	-1.000000	-1.000000	-1.000000	-1.000000	-1.000000	-1.000000	-1.000000	58.000000	0.000000	-1.000000	-1.000000	1891231.000000	1776580184.825340
-7565.985000	-15459.165000	30419.055000	55816.695000	47689.920000	32835.465000	-4407.840000	-13962.195000	-3.654926	-2.609033	1.422034	11.206512	17.534149	13.084233	-4.521679	-4.973846	-1.022420	3.662400	1.434440	-0.817930	0.077209	0.558226	-1.000000	-1.000000	-1.000000	-1.000000	-1.000000	-1.000000	-1.000000	58.000000	0.000000	-1.000000	-1.000000	1891232.000000	1776580184.830685
-7564.770000	-15464.745000	30421.260000	55815.750000	47679.300000	32828.670000	-4395.825000	-13958.415000	-1.992281	-0.692826	0.730778	7.513322	13.690310	8.182312	-5.287817	-4.389506	-1.022420	3.662400	1.434440	-0.817930	0.077209	0.558226	-1.000000	-1.000000	-1.000000	-1.000000	-1.000000	-1.000000	-1.000000	58.000000	0.000000	-1.000000	-1.000000	1891233.000000	1776580184.830720
-7559.280000	-15459.480000	30422.295000	55810.215000	47671.785000	32828.580000	-4389.795000	-13950.405000	-0.194555	-0.141701	-0.784251	0.436993	2.970365	-1.485889	-2.381420	-2.068212	-1.022420	3.662400	1.434440	-0.817930	0.077209	0.558226	-1.000000	-1.000000	-1.000000	-1.000000	-1.000000	-1.000000	-1.000000	58.000000	0.000000	-1.000000	-1.000000	1891234.000000	1776580184.833198
-7568.820000	-15467.670000	30410.055000	55797.120000	47658.735000	32816.700000	-4403.700000	-13959.000000	1.136801	-0.536424	-1.571628	-5.391935	-7.763001	-9.333409	2.465672	1.031550	-1.022420	3.662400	1.434440	-0.817930	0.077209	0.558226	-1.000000	-1.000000	-1.000000	-1.000000	-1.000000	-1.000000	-1.000000	58.000000	0.000000	-1.000000	-1.000000	1891235.000000	1776580184.833209
-7571.340000	-15469.425000	30412.530000	55804.320000	47670.885000	32829.885000	-4403.970000	-13961.970000	1.345471	-0.855782	-1.466533	-7.570633	-12.957959	-11.186026	5.184245	3.013753	-1.022420	3.662400	1.434440	-0.817930	0.077209	0.558226	-1.000000	-1.000000	-1.000000	-1.000000	-1.000000	-1.000000	-1.000000	58.000000	0.000000	-1.000000	-1.000000	1891236.000000	1776580184.837206
-7573.365000	-15471.405000	30417.345000	55819.530000	47695.770000	32860.845000	-4397.355000	-13963.545000	0.285589	-0.721058	-0.698487	-5.370839	-10.038171	-6.203195	3.950279	2.606851	-1.022420	3.662400	1.434440	-0.817930	0.077209	0.558226	-1.000000	-1.000000	-1.000000	-1.000000	-1.000000	-1.000000	-1.000000	58.000000	0.000000	-1.000000	-1.000000	1891237.000000	1776580184.837215
-7577.685000	-15473.610000	30418.335000	55829.925000	47713.635000	32868.990000	-4400.910000	-13967.820000	-1.100160	-0.067673	0.902737	0.628559	-0.110872	3.654969	0.721041	0.525149	-1.022420	3.662400	1.434440	-0.817930	0.077209	0.558226	-1.000000	-1.000000	-1.000000	-1.000000	-1.000000	-1.000000	-1.000000	58.000000	0.000000	-1.000000	-1.000000	1891238.000000	1776580184.842929
-7581.240000	-15477.030000	30415.230000	55830.960000	47717.955000	32864.805000	-4408.065000	-13972.500000	-1.768810	0.893304	2.778239	7.445248	11.341694	12.834608	-2.055936	-1.593512	-1.022420	3.662400	1.434440	-0.817930	0.077209	0.558226	-1.000000	-1.000000	-1.000000	-1.000000	-1.000000	-1.000000	-1.000000	58.000000	0.000000	-1.000000	-1.000000	1891239.000000	1776580184.842939
-7572.735000	-15470.100000	30418.335000	55831.905000	47716.875000	32863.275000	-4400.910000	-13963.320000	-1.210826	1.836389	3.640918	10.776446	17.022023	14.900235	-3.460725	-2.416993	-1.022420	3.662400	1.434440	-0.817930	0.077209	0.558226	-1.000000	-1.000000	-1.000000	-1.000000	-1.000000	-1.000000	-1.000000	58.000000	0.000000	-1.000000	-1.000000	1891240.000000	1776580184.845117
-7568.910000	-15464.610000	30412.620000	55815.390000	47693.430000	32843.880000	-4404.645000	-13959.540000	0.736357	2.806539	2.838969	8.076204	12.716113	7.882932	-3.216254	-1.163058	-1.022420	3.662400	1.434440	-0.817930	0.077209	0.558226	-1.000000	-1.000000	-1.000000	-1.000000	-1.000000	-1.000000	-1.000000	58.000000	0.000000	-1.000000	-1.000000	1891241.000000	1776580184.845123
-7566.480000	-15462.855000	30410.145000	55804.680000	47674.845000	32832.720000	-4397.220000	-13956.795000	3.395836	3.760532	0.700591	0.172442	-0.114768	-4.538066	-1.480005	1.689589	0.030520	3.006220	1.113980	-0.818723	0.077575	0.557616	-1.000000	-1.000000	-1.000000	-1.000000	-1.000000	-1.000000	-1.000000	58.000000	0.000000	-1.000000	-1.000000	1891242.000000	1776580184.851610
-7566.930000	-15464.250000	30414.735000	55809.090000	47675.745000	32835.780000	-4392.315000	-13958.415000	5.107435	3.908412	-1.714863	-8.838794	-14.772047	-15.585150	1.002413	4.201562	0.030520	3.006220	1.113980	-0.818723	0.077575	0.557616	-1.000000	-1.000000	-1.000000	-1.000000	-1.000000	-1.000000	-1.000000	58.000000	0.000000	-1.000000	-1.000000	1891243.000000	1776580184.851626
-7569.855000	-15465.420000	30417.435000	55815.210000	47685.375000	32835.825000	-4399.515000	-13963.590000	4.461207	2.398243	-2.935931	-13.452190	-22.510715	-19.031347	3.068502	4.404304	0.030520	3.006220	1.113980	-0.818723	0.077575	0.557616	-1.000000	-1.000000	-1.000000	-1.000000	-1.000000	-1.000000	-1.000000	58.000000	0.000000	-1.000000	-1.000000	1891244.000000	1776580184.853224
-7574.670000	-15469.470000	30414.645000	55816.785000	47685.870000	32825.655000	-4409.730000	-13970.025000	1.424144	-0.592773	-2.328420	-10.781763	-18.509959	-13.415863	3.169453	1.798838	0.030520	3.006220	1.113980	-0.818723	0.077575	0.557616	-1.000000	-1.000000	-1.000000	-1.000000	-1.000000	-1.000000	-1.000000	58.000000	0.000000	-1.000000	-1.000000	1891245.000000	1776580184.853236
-7568.190000	-15461.640000	30422.565000	55829.520000	47702.160000	32836.725000	-4409.955000	-13964.445000	-2.468688	-3.666863	-0.662986	-2.746257	-5.431210	-2.685168	0.718354	-2.129150	0.030520	3.006220	1.113980	-0.818723	0.077575	0.557616	-1.000000	-1.000000	-1.000000	-1.000000	-1.000000	-1.000000	-1.000000	58.000000	0.000000	-1.000000	-1.000000	1891246.000000	1776580184.857329
-7574.940000	-15469.200000	30416.985000	55833.840000	47711.835000	32845.095000	-4416.345000	-13971.015000	-5.045568	-5.157642	0.897839	6.078253	9.482340	7.961061	-2.675640	-4.868093	0.030520	3.006220	1.113980	-0.818723	0.077575	0.557616	-1.000000	-1.000000	-1.000000	-1.000000	-1.000000	-1.000000	-1.000000	58.000000	0.000000	-1.000000	-1.000000	1891247.000000	1776580184.857366
-7577.550000	-15474.825000	30412.710000	55831.995000	47710.035000	32842.710000	-4416.435000	-13971.690000	-5.325970	-4.741854	1.373334	11.373574	19.191664	14.890594	-4.618984	-5.042432	0.030520	3.006220	1.113980	-0.818723	0.077575	0.557616	-1.000000	-1.000000	-1.000000	-1.000000	-1.000000	-1.000000	-1.000000	58.000000	0.000000	-1.000000	-1.000000	1891248.000000	1776580184.861381
-7575.165000	-15473.070000	30409.605000	55818.855000	47695.410000	32840.820000	-4408.155000	-13964.850000	-3.842070	-3.342150	0.320151	10.604773	19.436004	15.912505	-3.761206	-3.000488	0.030520	3.006220	1.113980	-0.818723	0.077575	0.557616	-1.000000	-1.000000	-1.000000	-1.000000	-1.000000	-1.000000	-1.000000	58.000000	0.000000	-1.000000	-1.000000	1891249.000000	1776580184.861399
-7569.765000	-15465.780000	30409.830000	55809.045000	47683.755000	32845.095000	-4398.795000	-13958.280000	-1.297237	-1.376496	-1.479579	4.097470	10.321219	11.047538	-0.157962	0.372963	0.030520	3.006220	1.113980	-0.818723	0.077575	0.557616	-1.000000	-1.000000	-1.000000	-1.000000	-1.000000	-1.000000	-1.000000	58.000000	0.000000	-1.000000	-1.000000	1891250.000000	1776580184.865203
-7567.065000	-15462.450000	30410.235000	55803.195000	47672.235000	32840.370000	-4397.670000	-13957.020000	1.732881	1.316415	-2.514065	-4.684219	-3.315400	3.055453	4.556684	3.871471	0.030520	3.006220	1.113980	-0.818723	0.077575	0.557616	-1.000000	-1.000000	-1.000000	-1.000000	-1.000000	-1.000000	-1.000000	58.000000	0.000000	-1.000000	-1.000000	1891251.000000	1776580184.865232
-7565.175000	-15460.785000	30412.080000	55804.410000	47671.920000	32839.740000	-4397.085000	-13956.930000	4.237360	4.100422	-1.888922	-10.812264	-14.354749	-4.484412	7.573905	5.789637	-1.129240	1.785420	0.732480	-0.819761	0.076965	0.557189	-1.000000	-1.000000	-1.000000	-1.000000	-1.000000	-1.000000	-1.000000	58.000000	0.000000	-1.000000	-1.000000	1891252.000000	1776580184.869120
-7564.005000	-15459.345000	30415.410000	55810.485000	47680.110000	32844.510000	-4399.380000	-13955.490000	5.075413	5.530298	0.097104	-10.859199	-17.288744	-8.983126	6.820346	4.995828	-1.129240	1.785420	0.732480	-0.819761	0.076965	0.557189	-1.000000	-1.000000	-1.000000	-1.000000	-1.000000	-1.000000	-1.000000	58.000000	0.000000	-1.000000	-1.000000	1891253.000000	1776580184.869131
-7565.715000	-15462.360000	30416.310000	55821.375000	47694.105000	32851.935000	-4401.855000	-13958.190000	3.808618	4.636741	2.341673	-4.854441	-10.964929	-9.217454	2.560619	1.921688	-1.129240	1.785420	0.732480	-0.819761	0.076965	0.557189	-1.000000	-1.000000	-1.000000	-1.000000	-1.000000	-1.000000	-1.000000	58.000000	0.000000	-1.000000	-1.000000	1891254.000000	1776580184.873208
-7571.790000	-15468.615000	30414.375000	55829.835000	47711.025000	32861.520000	-4408.470000	-13963.815000	0.905326	1.605925	3.576053	3.985702	1.098305	-5.597232	-3.022496	-1.964544	-1.129240	1.785420	0.732480	-0.819761	0.076965	0.557189	-1.000000	-1.000000	-1.000000	-1.000000	-1.000000	-1.000000	-1.000000	58.000000	0.000000	-1.000000	-1.000000	1891255.000000	1776580184.873219
-7575.300000	-15472.395000	30411.945000	55831.680000	47713.995000	32861.160000	-4414.815000	-13969.125000	-2.563573	-2.374059	3.007727	11.062170	12.621850	-0.290038	-7.442368	-5.200009	-1.129240	1.785420	0.732480	-0.819761	0.076965	0.557189	-1.000000	-1.000000	-1.000000	-1.000000	-1.000000	-1.000000	-1.000000	58.000000	0.000000	-1.000000	-1.000000	1891256.000000	1776580184.877184
-7579.395000	-15475.095000	30406.320000	55820.745000	47695.905000	32851.395000	-4418.055000	-13970.880000	-5.207559	-5.519729	0.805659	12.565396	17.313438	3.484769	-9.062991	-6.678811	-1.129240	1.785420	0.732480	-0.819761	0.076965	0.557189	-1.000000	-1.000000	-1.000000	-1.000000	-1.000000	-1.000000	-1.000000	58.000000	0.000000	-1.000000	-1.000000	1891257.000000	1776580184.877201
-7574.490000	-15471.675000	30402.585000	55808.190000	47677.995000	32836.095000	-4407.705000	-13956.930000	-5.733306	-6.219638	-2.000191	7.334048	11.971045	3.193760	-7.190475	-5.507448	-1.129240	1.785420	0.732480	-0.819761	0.076965	0.557189	-1.000000	-1.000000	-1.000000	-1.000000	-1.000000	-1.000000	-1.000000	58.000000	0.000000	-1.000000	-1.000000	1891258.000000	1776580184.881151
-7563.780000	-15460.875000	30406.635000	55798.830000	47662.515000	32828.535000	-4397.400000	-13943.115000	-3.441406	-3.804000	-3.929857	-2.167156	-0.877680	-0.973065	-2.009137	-1.263402	-1.129240	1.785420	0.732480	-0.819761	0.076965	0.557189	-1.000000	-1.000000	-1.000000	-1.000000	-1.000000	-1.000000	-1.000000	58.000000	0.000000	-1.000000	-1.000000	1891259.000000	1776580184.881166
-7560.495000	-15457.500000	30408.525000	55796.760000	47658.735000	32826.510000	-4403.655000	-13945.770000	1.088598	0.931149	-3.704946	-10.822954	-13.824156	-5.760995	4.557220	4.634706	-1.129240	1.785420	0.732480	-0.819761	0.076965	0.557189	-1.000000	-1.000000	-1.000000	-1.000000	-1.000000	-1.000000	-1.000000	58.000000	0.000000	-1.000000	-1.000000	1891260.000000	1776580184.885447
-7577.730000	-15473.070000	30401.280000	55800.675000	47664.315000	32831.100000	-4407.885000	-13964.220000	5.246518	5.290822	-1.458815	-13.828664	-19.242263	-7.170272	8.831004	8.295200	-1.129240	1.785420	0.732480	-0.819761	0.076965	0.557189	-1.000000	-1.000000	-1.000000	-1.000000	-1.000000	-1.000000	-1.000000	58.000000	0.000000	-1.000000	-1.000000	1891261.000000	1776580184.885465
-7574.580000	-15465.420000	30411.180000	55817.010000	47681.865000	32841.495000	-4409.595000	-13965.345000	5.876211	6.226864	1.250008	-9.434012	-13.911086	-3.446590	8.210352	6.383937	-0.854560	0.930860	1.068200	-0.819151	0.077575	0.558104	-1.000000	-1.000000	-1.000000	-1.000000	-1.000000	-1.000000	-1.000000	58.000000	0.000000	-1.000000	-1.000000	1891262.000000	1776580184.889278
-7565.715000	-15449.670000	30429.360000	55839.510000	47711.115000	32863.140000	-4419.045000	-13966.200000	2.919525	3.854413	3.507147	0.473868	-0.336323	4.027894	3.466821	0.127709	-0.854560	0.930860	1.068200	-0.819151	0.077575	0.558104	-1.000000	-1.000000	-1.000000	-1.000000	-1.000000	-1.000000	-1.000000	58.000000	0.000000	-1.000000	-1.000000	1891263.000000	1776580184.889293
-7558.020000	-15440.895000	30439.305000	55849.320000	47725.245000	32873.400000	-4419.585000	-13958.055000	-0.333146	1.350913	5.563464	11.298726	14.907656	11.793560	-2.392550	-5.544362	-0.854560	0.930860	1.068200	-0.819151	0.077575	0.558104	-1.000000	-1.000000	-1.000000	-1.000000	-1.000000	-1.000000	-1.000000	58.000000	0.000000	-1.000000	-1.000000	1891264.000000	1776580184.893248
-7558.695000	-15447.240000	30429.855000	55836.810000	47714.445000	32865.165000	-4416.570000	-13956.570000	-1.347209	0.480856	6.605051	17.139645	23.745145	15.482126	-6.182118	-6.709378	-0.854560	0.930860	1.068200	-0.819151	0.077575	0.558104	-1.000000	-1.000000	-1.000000	-1.000000	-1.000000	-1.000000	-1.000000	58.000000	0.000000	-1.000000	-1.000000	1891265.000000	1776580184.893269
-7567.470000	-15461.865000	30411.585000	55816.740000	47686.365000	32845.905000	-4411.575000	-13959.945000	-0.821006	-0.375684	4.231316	13.557484	20.120726	11.576187	-6.001333	-3.494529	-0.854560	0.930860	1.068200	-0.819151	0.077575	0.558104	-1.000000	-1.000000	-1.000000	-1.000000	-1.000000	-1.000000	-1.000000	58.000000	0.000000	-1.000000	-1.000000	1891266.000000	1776580184.897248
-7558.920000	-15454.035000	30411.180000	55807.155000	47666.565000	32829.390000	-4401.945000	-13945.140000	-0.725168	-2.957271	-2.280287	1.361363	4.394466	0.343242	-2.193065	1.174188	-0.854560	0.930860	1.068200	-0.819151	0.077575	0.558104	-1.000000	-1.000000	-1.000000	-1.000000	-1.000000	-1.000000	-1.000000	58.000000	0.000000	-1.000000	-1.000000	1891267.000000	1776580184.897264
-7564.050000	-15460.380000	30404.970000	55798.830000	47655.540000	32820.795000	-4403.205000	-13949.280000	-1.471652	-5.994850	-9.563778	-12.698967	-15.286614	-12.936861	2.883270	4.691665	-0.854560	0.930860	1.068200	-0.819151	0.077575	0.558104	-1.000000	-1.000000	-1.000000	-1.000000	-1.000000	-1.000000	-1.000000	58.000000	0.000000	-1.000000	-1.000000	1891268.000000	1776580184.901399
-7562.835000	-15459.120000	30406.905000	55802.430000	47663.505000	32827.230000	-4403.250000	-13948.920000	-2.191573	-6.947032	-12.810605	-20.433926	-27.586856	-20.741782	6.128478	5.645704	-0.854560	0.930860	1.068200	-0.819151	0.077575	0.558104	-1.000000	-1.000000	-1.000000	-1.000000	-1.000000	-1.000000	-1.000000	58.000000	0.000000	-1.000000	-1.000000	1891269.000000	1776580184.901423
-7561.890000	-15453.990000	30413.295000	55808.955000	47673.180000	32845.005000	-4404.465000	-13951.845000	-2.237435	-4.846138	-9.820067	-17.670495	-25.392829	-18.045150	5.650812	3.647218	-0.854560	0.930860	1.068200	-0.819151	0.077575	0.558104	-1.000000	-1.000000	-1.000000	-1.000000	-1.000000	-1.000000	-1.000000	58.000000	0.000000	-1.000000	-1.000000	1891270.000000	1776580184.905227
-7564.320000	-15455.655000	30416.760000	55821.780000	47690.190000	32855.265000	-4409.955000	-13954.545000	-1.479051	-0.582920	-2.081762	-6.207970	-10.166961	-5.720743	1.959206	-0.221031	-0.854560	0.930860	1.068200	-0.819151	0.077575	0.558104	-1.000000	-1.000000	-1.000000	-1.000000	-1.000000	-1.000000	-1.000000	58.000000	0.000000	-1.000000	-1.000000	1891271.000000	1776580184.905238
-7574.895000	-15466.950000	30411.810000	55828.305000	47702.430000	32859.360000	-4419.765000	-13965.930000	-0.486332	3.531269	6.291956	7.887358	9.648447	9.513219	-2.922805	-4.111055	-0.305200	0.137340	1.068200	-0.819700	0.079284	0.558226	-1.000000	-1.000000	-1.000000	-1.000000	-1.000000	-1.000000	-1.000000	58.000000	0.000000	-1.000000	-1.000000	1891272.000000	1776580184.909300
-7575.750000	-15469.380000	30409.515000	55827.270000	47704.635000	32863.005000	-4419.945000	-13966.020000	-0.124591	5.062162	10.924290	17.682870	24.015979	19.340167	-6.779580	-6.534249	-0.305200	0.137340	1.068200	-0.819700	0.079284	0.558226	-1.000000	-1.000000	-1.000000	-1.000000	-1.000000	-1.000000	-1.000000	58.000000	0.000000	-1.000000	-1.000000	1891273.000000	1776580184.909324
-7564.815000	-15457.500000	30414.375000	55823.265000	47695.185000	32858.775000	-4409.415000	-13953.825000	-0.099992	3.913946	10.137019	18.775115	26.358217	19.224736	-7.570945	-6.241348	-0.305200	0.137340	1.068200	-0.819700	0.079284	0.558226	-1.000000	-1.000000	-1.000000	-1.000000	-1.000000	-1.000000	-1.000000	58.000000	0.000000	-1.000000	-1.000000	1891274.000000	1776580184.913236
-7565.175000	-15459.570000	30406.815000	55808.820000	47671.335000	32839.965000	-4407.930000	-13951.080000	0.867695	2.313420	5.604391	11.239980	16.082504	10.109518	-4.333063	-2.575826	-0.305200	0.137340	1.068200	-0.819700	0.079284	0.558226	-1.000000	-1.000000	-1.000000	-1.000000	-1.000000	-1.000000	-1.000000	58.000000	0.000000	-1.000000	-1.000000	1891275.000000	1776580184.913250
-7570.305000	-15466.905000	30397.680000	55798.335000	47654.820000	32827.770000	-4411.575000	-13953.510000	2.717413	1.567662	-0.031962	-0.909979	-1.625345	-3.381349	1.249973	2.889389	-0.305200	0.137340	1.068200	-0.819700	0.079284	0.558226	-1.000000	-1.000000	-1.000000	-1.000000	-1.000000	-1.000000	-1.000000	58.000000	0.000000	-1.000000	-1.000000	1891276.000000	1776580184.917348
-7565.985000	-15462.045000	30402.900000	55802.700000	47660.130000	32833.215000	-4408.605000	-13949.190000	3.781136	0.973145	-4.696355	-11.692827	-17.855034	-14.838343	5.699558	6.863946	-0.305200	0.137340	1.068200	-0.819700	0.079284	0.558226	-1.000000	-1.000000	-1.000000	-1.000000	-1.000000	-1.000000	-1.000000	58.000000	0.000000	-1.000000	-1.000000	1891277.000000	1776580184.917369
-7567.965000	-15463.080000	30404.835000	55810.710000	47671.110000	32839.740000	-4410.585000	-13954.230000	3.111314	0.033619	-6.564937	-15.695461	-23.991601	-18.406279	6.778323	7.209545	-0.305200	0.137340	1.068200	-0.819700	0.079284	0.558226	-1.000000	-1.000000	-1.000000	-1.000000	-1.000000	-1.000000	-1.000000	58.000000	0.000000	-1.000000	-1.000000	1891278.000000	1776580184.921387
-7571.745000	-15461.415000	30409.560000	55822.455000	47688.660000	32848.110000	-4417.920000	-13962.240000	1.157262	-0.795333	-4.848227	-11.120114	-16.945270	-12.407579	4.581145	4.040646	-0.305200	0.137340	1.068200	-0.819700	0.079284	0.558226	-1.000000	-1.000000	-1.000000	-1.000000	-1.000000	-1.000000	-1.000000	58.000000	0.000000	-1.000000	-1.000000	1891279.000000	1776580184.921402
-7567.740000	-15453.945000	30418.380000	55835.955000	47707.515000	32858.280000	-4418.865000	-13958.415000	-1.111840	-1.006882	-0.693682	-0.941731	-1.146286	-0.635928	0.567619	-0.867331	-0.305200	0.137340	1.068200	-0.819700	0.079284	0.558226	-1.000000	-1.000000	-1.000000	-1.000000	-1.000000	-1.000000	-1.000000	58.000000	0.000000	-1.000000	-1.000000	1891280.000000	1776580184.925411
-7566.390000	-15458.670000	30413.790000	55833.840000	47704.860000	32849.235000	-4412.655000	-13951.395000	-2.549973	-0.536518	3.498693	9.009002	14.404329	10.228135	-3.031289	-4.627487	-0.305200	0.137340	1.068200	-0.819700	0.079284	0.558226	-1.000000	-1.000000	-1.000000	-1.000000	-1.000000	-1.000000	-1.000000	58.000000	0.000000	-1.000000	-1.000000	1891281.000000	1776580184.925426
-7570.395000	-15464.520000	30403.080000	55816.785000	47684.655000	32831.505000	-4414.680000	-13954.050000	-2.561133	-0.157085	5.097667	13.003358	20.925356	14.215522	-4.206457	-5.075673	-0.244160	0.763000	0.320460	-0.818479	0.080444	0.559386	-1.000000	-1.000000	-1.000000	-1.000000	-1.000000	-1.000000	-1.000000	58.000000	0.000000	-1.000000	-1.000000	1891282.000000	1776580184.929324
-7563.330000	-15457.410000	30404.115000	55805.310000	47666.250000	32818.050000	-4414.995000	-13949.415000	-1.573464	-0.630299	2.896737	8.533247	14.640708	9.349983	-2.819004	-2.658380	-0.244160	0.763000	0.320460	-0.818479	0.080444	0.559386	-1.000000	-1.000000	-1.000000	-1.000000	-1.000000	-1.000000	-1.000000	58.000000	0.000000	-1.000000	-1.000000	1891283.000000	1776580184.929330
-7556.805000	-15452.145000	30408.120000	55802.835000	47656.440000	32815.305000	-4410.045000	-13941.360000	-0.102448	-1.264220	-1.288174	-1.446342	-0.378410	-0.675767	-0.366831	0.625232	-0.244160	0.763000	0.320460	-0.818479	0.080444	0.559386	-1.000000	-1.000000	-1.000000	-1.000000	-1.000000	-1.000000	-1.000000	58.000000	0.000000	-1.000000	-1.000000	1891284.000000	1776580184.933278
-7569.585000	-15465.690000	30399.975000	55796.310000	47648.610000	32820.930000	-4416.210000	-13953.105000	1.288303	-1.150831	-4.270946	-10.349595	-14.760453	-8.855186	1.613592	2.937043	-0.244160	0.763000	0.320460	-0.818479	0.080444	0.559386	-1.000000	-1.000000	-1.000000	-1.000000	-1.000000	-1.000000	-1.000000	58.000000	0.000000	-1.000000	-1.000000	1891285.000000	1776580184.933287
-7569.090000	-15464.385000	30404.970000	55806.570000	47662.920000	32837.400000	-4415.445000	-13952.430000	1.416278	-0.872357	-4.571337	-12.866027	-20.153861	-9.804435	2.177221	2.917920	-0.244160	0.763000	0.320460	-0.818479	0.080444	0.559386	-1.000000	-1.000000	-1.000000	-1.000000	-1.000000	-1.000000	-1.000000	58.000000	0.000000	-1.000000	-1.000000	1891286.000000	1776580184.937277
-7579.530000	-15475.455000	30398.715000	55814.265000	47678.445000	32846.850000	-4424.130000	-13963.545000	-0.229693	-1.237235	-2.749671	-7.899049	-13.780728	-3.216171	1.149220	0.475303	-0.244160	0.763000	0.320460	-0.818479	0.080444	0.559386	-1.000000	-1.000000	-1.000000	-1.000000	-1.000000	-1.000000	-1.000000	58.000000	0.000000	-1.000000	-1.000000	1891287.000000	1776580184.937290
-7581.195000	-15477.165000	30400.965000	55825.335000	47695.680000	32863.635000	-4423.275000	-13964.355000	-2.573357	-1.970693	-0.177292	1.588202	0.642501	6.413603	-0.756228	-2.826509	-0.244160	0.763000	0.320460	-0.818479	0.080444	0.559386	-1.000000	-1.000000	-1.000000	-1.000000	-1.000000	-1.000000	-1.000000	58.000000	0.000000	-1.000000	-1.000000	1891288.000000	1776580184.944925
-7591.950000	-15486.120000	30394.755000	55824.210000	47697.615000	32864.130000	-4428.720000	-13975.965000	-4.051679	-2.278585	1.822453	10.357877	15.035620	13.113480	-2.329433	-5.009943	-0.244160	0.763000	0.320460	-0.818479	0.080444	0.559386	-1.000000	-1.000000	-1.000000	-1.000000	-1.000000	-1.000000	-1.000000	58.000000	0.000000	-1.000000	-1.000000	1891289.000000	1776580184.944938
-7588.125000	-15479.640000	30395.655000	55819.530000	47688.930000	32851.530000	-4429.395000	-13970.835000	-3.704948	-1.479935	2.560482	13.645393	21.353438	12.695007	-2.642716	-4.883634	-0.244160	0.763000	0.320460	-0.818479	0.080444	0.559386	-1.000000	-1.000000	-1.000000	-1.000000	-1.000000	-1.000000	-1.000000	58.000000	0.000000	-1.000000	-1.000000	1891290.000000	1776580184.945279
-7581.915000	-15472.890000	30388.230000	55798.650000	47662.605000	32831.145000	-4431.060000	-13963.860000	-1.238691	0.835153	2.088658	9.545224	15.883157	4.452156	-1.589747	-2.133701	-0.244160	0.763000	0.320460	-0.818479	0.080444	0.559386	-1.000000	-1.000000	-1.000000	-1.000000	-1.000000	-1.000000	-1.000000	58.000000	0.000000	-1.000000	-1.000000	1891291.000000	1776580184.945290
-7576.875000	-15465.870000	30382.245000	55779.525000	47643.075000	32814.405000	-4431.555000	-13955.940000	2.860054	4.326333	0.815334	-0.198246	1.206547	-8.154264	0.263045	2.628398	-1.144500	1.541260	-0.350980	-0.816099	0.080932	0.561278	-1.000000	-1.000000	-1.000000	-1.000000	-1.000000	-1.000000	-1.000000	58.000000	0.000000	-1.000000	-1.000000	1891292.000000	1776580184.949515
-7570.665000	-15463.305000	30395.070000	55794.015000	47656.710000	32824.620000	-4416.660000	-13949.685000	6.926512	7.393596	-0.418999	-10.380309	-14.454314	-18.390279	2.342393	7.475259	-1.144500	1.541260	-0.350980	-0.816099	0.080932	0.561278	-1.000000	-1.000000	-1.000000	-1.000000	-1.000000	-1.000000	-1.000000	58.000000	0.000000	-1.000000	-1.000000	1891293.000000	1776580184.949530
-7574.445000	-15467.490000	30399.570000	55801.125000	47662.110000	32836.680000	-4415.895000	-13953.870000	8.727283	7.888343	-0.244424	-14.370323	-21.459214	-19.613312	4.370245	9.761192	-1.144500	1.541260	-0.350980	-0.816099	0.080932	0.561278	-1.000000	-1.000000	-1.000000	-1.000000	-1.000000	-1.000000	-1.000000	58.000000	0.000000	-1.000000	-1.000000	1891294.000000	1776580184.953526
-7584.615000	-15478.830000	30391.605000	55803.735000	47668.095000	32833.125000	-4432.995000	-13966.605000	6.691413	4.590050	1.471167	-9.349271	-15.869193	-10.432256	5.216376	7.537795	-1.144500	1.541260	-0.350980	-0.816099	0.080932	0.561278	-1.000000	-1.000000	-1.000000	-1.000000	-1.000000	-1.000000	-1.000000	58.000000	0.000000	-1.000000	-1.000000	1891295.000000	1776580184.953547
-7583.220000	-15475.140000	30396.645000	55818.270000	47688.750000	32848.245000	-4431.015000	-13964.940000	1.179295	-1.502905	2.821648	1.059225	-2.030546	3.642122	3.148946	1.185401	-1.144500	1.541260	-0.350980	-0.816099	0.080932	0.561278	-1.000000	-1.000000	-1.000000	-1.000000	-1.000000	-1.000000	-1.000000	58.000000	0.000000	-1.000000	-1.000000	1891296.000000	1776580184.957373
-7590.825000	-15485.265000	30389.985000	55819.170000	47694.195000	32846.940000	-4433.130000	-13970.205000	-5.098644	-7.285766	2.251159	10.495203	12.005667	14.945561	-1.280724	-5.997029	-1.144500	1.541260	-0.350980	-0.816099	0.080932	0.561278	-1.000000	-1.000000	-1.000000	-1.000000	-1.000000	-1.000000	-1.000000	58.000000	0.000000	-1.000000	-1.000000	1891297.000000	1776580184.957390
-7578.945000	-15472.845000	30396.195000	55818.360000	47691.810000	32855.895000	-4426.290000	-13960.845000	-8.733652	-9.656395	0.126938	14.143624	19.308599	18.749870	-4.978331	-9.924233	-1.144500	1.541260	-0.350980	-0.816099	0.080932	0.561278	-1.000000	-1.000000	-1.000000	-1.000000	-1.000000	-1.000000	-1.000000	58.000000	0.000000	-1.000000	-1.000000	1891298.000000	1776580184.962317
-7581.375000	-15476.805000	30387.870000	55803.150000	47670.300000	32839.380000	-4428.855000	-13963.410000	-7.860997	-7.464222	-2.148863	10.391736	16.381633	14.440509	-5.503915	-8.679201	-1.144500	1.541260	-0.350980	-0.816099	0.080932	0.561278	-1.000000	-1.000000	-1.000000	-1.000000	-1.000000	-1.000000	-1.000000	58.000000	0.000000	-1.000000	-1.000000	1891299.000000	1776580184.962328
-7578.540000	-15473.790000	30387.510000	55791.360000	47652.975000	32825.610000	-4425.975000	-13959.495000	-3.414288	-2.175881	-3.541646	1.105672	4.536040	4.328294	-3.081588	-3.605012	-1.144500	1.541260	-0.350980	-0.816099	0.080932	0.561278	-1.000000	-1.000000	-1.000000	-1.000000	-1.000000	-1.000000	-1.000000	58.000000	0.000000	-1.000000	-1.000000	1891300.000000	1776580184.965235
-7572.915000	-15466.545000	30391.920000	55789.560000	47646.810000	32827.860000	-4417.470000	-13952.430000	1.748882	3.255641	-3.641085	-9.037863	-10.126361	-7.209055	0.424355	2.184104	-1.144500	1.541260	-0.350980	-0.816099	0.080932	0.561278	-1.000000	-1.000000	-1.000000	-1.000000	-1.000000	-1.000000	-1.000000	58.000000	0.000000	-1.000000	-1.000000	1891301.000000	1776580184.965244
-7577.415000	-15473.385000	30387.195000	55788.660000	47644.425000	32820.210000	-4424.850000	-13957.785000	5.083310	6.463634	-2.351597	-14.640306	-19.579951	-14.749102	3.191290	6.024156	-1.953280	1.983800	-1.037680	-0.814573	0.080200	0.561705	-1.000000	-1.000000	-1.000000	-1.000000	-1.000000	-1.000000	-1.000000	58.000000	0.000000	-1.000000	-1.000000	1891302.000000	1776580184.969471
-7569.315000	-15463.935000	30396.060000	55799.145000	47657.295000	32827.500000	-4424.715000	-13951.080000	5.515387	6.505434	-0.169889	-12.730374	-18.683837	-14.911112	3.844527	6.603811	-1.953280	1.983800	-1.037680	-0.814573	0.080200	0.561705	-1.000000	-1.000000	-1.000000	-1.000000	-1.000000	-1.000000	-1.000000	58.000000	0.000000	-1.000000	-1.000000	1891303.000000	1776580184.969510
-7568.730000	-15462.000000	30401.100000	55811.970000	47676.060000	32846.625000	-4424.445000	-13953.915000	3.651661	4.133790	2.152934	-4.352516	-7.929530	-8.060629	2.146500	4.301147	-1.953280	1.983800	-1.037680	-0.814573	0.080200	0.561705	-1.000000	-1.000000	-1.000000	-1.000000	-1.000000	-1.000000	-1.000000	58.000000	0.000000	-1.000000	-1.000000	1891304.000000	1776580184.973334
-7574.670000	-15467.040000	30399.570000	55818.450000	47688.570000	32855.220000	-4427.910000	-13958.730000	0.859233	0.971481	3.887541	6.258462	7.250324	2.611362	-0.585357	0.622322	-1.953280	1.983800	-1.037680	-0.814573	0.080200	0.561705	-1.000000	-1.000000	-1.000000	-1.000000	-1.000000	-1.000000	-1.000000	58.000000	0.000000	-1.000000	-1.000000	1891305.000000	1776580184.973341
-7581.060000	-15474.645000	30393.540000	55816.470000	47688.705000	32850.495000	-4434.615000	-13965.255000	-2.077033	-2.137054	3.954579	13.665046	19.088629	11.870264	-2.847552	-3.048362	-1.953280	1.983800	-1.037680	-0.814573	0.080200	0.561705	-1.000000	-1.000000	-1.000000	-1.000000	-1.000000	-1.000000	-1.000000	58.000000	0.000000	-1.000000	-1.000000	1891306.000000	1776580184.977444
-7576.965000	-15470.685000	30393.270000	55810.260000	47683.530000	32847.795000	-4431.420000	-13957.380000	-4.498194	-4.740671	1.777345	13.991697	21.392001	14.586595	-3.857353	-5.438436	-1.953280	1.983800	-1.037680	-0.814573	0.080200	0.561705	-1.000000	-1.000000	-1.000000	-1.000000	-1.000000	-1.000000	-1.000000	58.000000	0.000000	-1.000000	-1.000000	1891307.000000	1776580184.977485
-7578.630000	-15472.620000	30384.900000	55793.295000	47657.655000	32832.315000	-4430.520000	-13959.585000	-5.223071	-5.778025	-1.686272	7.068696	12.839160	9.267796	-3.177725	-5.306632	-1.953280	1.983800	-1.037680	-0.814573	0.080200	0.561705	-1.000000	-1.000000	-1.000000	-1.000000	-1.000000	-1.000000	-1.000000	58.000000	0.000000	-1.000000	-1.000000	1891308.000000	1776580184.981287
-7565.805000	-15455.115000	30396.465000	55789.245000	47646.945000	32830.605000	-4422.420000	-13949.235000	-3.445130	-4.210844	-4.407710	-3.525545	-2.472718	-0.899646	-0.791627	-2.517526	-1.953280	1.983800	-1.037680	-0.814573	0.080200	0.561705	-1.000000	-1.000000	-1.000000	-1.000000	-1.000000	-1.000000	-1.000000	58.000000	0.000000	-1.000000	-1.000000	1891309.000000	1776580184.981299
-7571.295000	-15460.110000	30393.180000	55784.970000	47637.090000	32816.520000	-4428.225000	-13955.400000	0.227120	-0.287068	-4.577884	-12.219959	-16.860293	-10.323701	2.311953	1.441476	-1.953280	1.983800	-1.037680	-0.814573	0.080200	0.561705	-1.000000	-1.000000	-1.000000	-1.000000	-1.000000	-1.000000	-1.000000	58.000000	0.000000	-1.000000	-1.000000	1891310.000000	1776580184.985397
-7575.840000	-15469.470000	30389.535000	55789.290000	47643.615000	32822.145000	-4430.700000	-13959.180000	3.585896	3.616349	-2.257171	-14.494284	-22.869380	-14.389224	4.248965	4.180160	-1.953280	1.983800	-1.037680	-0.814573	0.080200	0.561705	-1.000000	-1.000000	-1.000000	-1.000000	-1.000000	-1.000000	-1.000000	58.000000	0.000000	-1.000000	-1.000000	1891311.000000	1776580184.985426
-7574.130000	-15466.185000	30394.845000	55802.160000	47665.440000	32842.620000	-4428.630000	-13955.175000	4.424739	4.621715	0.674045	-9.354217	-17.253568	-11.155220	3.771778	4.160237	-1.876980	3.311420	-0.885080	-0.814756	0.080017	0.561766	-1.000000	-1.000000	-1.000000	-1.000000	-1.000000	-1.000000	-1.000000	58.000000	0.000000	-1.000000	-1.000000	1891312.000000	1776580184.989422
-7574.940000	-15464.520000	30399.570000	55815.255000	47689.020000	32859.045000	-4433.760000	-13958.685000	2.723757	2.584561	2.772674	0.587653	-2.440901	-1.616230	1.475918	2.045897	-1.876980	3.311420	-0.885080	-0.814756	0.080017	0.561766	-1.000000	-1.000000	-1.000000	-1.000000	-1.000000	-1.000000	-1.000000	58.000000	0.000000	-1.000000	-1.000000	1891313.000000	1776580184.989436
-7578.945000	-15468.705000	30398.355000	55818.585000	47697.885000	32864.985000	-4438.935000	-13963.815000	0.144733	-0.239639	3.731291	10.453344	14.351061	9.771937	-1.210565	-0.503760	-1.876980	3.311420	-0.885080	-0.814756	0.080017	0.561766	-1.000000	-1.000000	-1.000000	-1.000000	-1.000000	-1.000000	-1.000000	58.000000	0.000000	-1.000000	-1.000000	1891314.000000	1776580184.993509
-7587.045000	-15477.615000	30385.710000	55803.510000	47679.975000	32849.415000	-4445.370000	-13972.455000	-2.001655	-2.231368	3.160765	14.957789	23.968317	16.349847	-3.290513	-2.551583	-1.876980	3.311420	-0.885080	-0.814756	0.080017	0.561766	-1.000000	-1.000000	-1.000000	-1.000000	-1.000000	-1.000000	-1.000000	58.000000	0.000000	-1.000000	-1.000000	1891315.000000	1776580184.993542
-7583.580000	-15473.970000	30384.135000	55794.825000	47660.625000	32834.430000	-4443.075000	-13970.205000	-3.161064	-3.107641	0.696755	11.206101	20.305452	13.409448	-4.092348	-3.668320	-1.876980	3.311420	-0.885080	-0.814756	0.080017	0.561766	-1.000000	-1.000000	-1.000000	-1.000000	-1.000000	-1.000000	-1.000000	58.000000	0.000000	-1.000000	-1.000000	1891316.000000	1776580184.997506
-7584.165000	-15476.940000	30379.995000	55787.805000	47645.775000	32817.960000	-4439.295000	-13966.605000	-2.860296	-2.721535	-2.629094	1.228789	4.986260	2.050252	-3.015881	-3.188455	-1.876980	3.311420	-0.885080	-0.814756	0.080017	0.561766	-1.000000	-1.000000	-1.000000	-1.000000	-1.000000	-1.000000	-1.000000	58.000000	0.000000	-1.000000	-1.000000	1891317.000000	1776580184.997518
-7582.095000	-15475.950000	30381.840000	55785.330000	47641.905000	32814.360000	-4436.370000	-13961.430000	-0.999960	-1.069995	-4.659224	-8.984380	-12.955164	-11.075410	-0.119230	-0.730997	-1.876980	3.311420	-0.885080	-0.814756	0.080017	0.561766	-1.000000	-1.000000	-1.000000	-1.000000	-1.000000	-1.000000	-1.000000	58.000000	0.000000	-1.000000	-1.000000	1891318.000000	1776580185.001644
-7580.205000	-15472.170000	30385.620000	55789.605000	47646.405000	32819.220000	-4436.865000	-13960.440000	1.586464	1.219671	-3.924328	-13.712097	-23.141069	-18.129759	3.269309	2.771684	-1.876980	3.311420	-0.885080	-0.814756	0.080017	0.561766	-1.000000	-1.000000	-1.000000	-1.000000	-1.000000	-1.000000	-1.000000	58.000000	0.000000	-1.000000	-1.000000	1891319.000000	1776580185.001664
-7574.085000	-15466.770000	30391.425000	55800.135000	47659.950000	32831.730000	-4429.530000	-13951.665000	3.711444	3.348850	-0.650703	-10.820641	-20.401215	-14.994218	5.351205	5.486271	-1.876980	3.311420	-0.885080	-0.814756	0.080017	0.561766	-1.000000	-1.000000	-1.000000	-1.000000	-1.000000	-1.000000	-1.000000	58.000000	0.000000	-1.000000	-1.000000	1891320.000000	1776580185.005315
-7583.265000	-15480.540000	30385.485000	55807.425000	47676.780000	32845.095000	-4431.645000	-13958.055000	4.403127	4.368706	3.294026	-2.353525	-7.036759	-3.502601	5.241062	5.982039	-1.876980	3.311420	-0.885080	-0.814756	0.080017	0.561766	-1.000000	-1.000000	-1.000000	-1.000000	-1.000000	-1.000000	-1.000000	58.000000	0.000000	-1.000000	-1.000000	1891321.000000	1776580185.005351
-7594.740000	-15491.745000	30376.980000	55806.435000	47682.990000	32845.905000	-4443.300000	-13971.960000	2.822410	3.010489	5.254178	6.795834	9.334306	9.868315	2.910257	3.543235	-2.823100	3.433500	-1.846460	-0.815061	0.079895	0.561095	-1.000000	-1.000000	-1.000000	-1.000000	-1.000000	-1.000000	-1.000000	58.000000	0.000000	-1.000000	-1.000000	1891322.000000	1776580185.009413
-7590.015000	-15483.780000	30381.255000	55807.875000	47681.685000	32842.530000	-4446.630000	-13969.395000	-0.784592	-0.580074	3.889965	11.664175	20.078575	17.746145	-1.170540	-1.334816	-2.823100	3.433500	-1.846460	-0.815061	0.079895	0.561095	-1.000000	-1.000000	-1.000000	-1.000000	-1.000000	-1.000000	-1.000000	58.000000	0.000000	-1.000000	-1.000000	1891323.000000	1776580185.009437
-7581.645000	-15477.165000	30383.370000	55802.520000	47673.090000	32834.790000	-4439.475000	-13962.330000	-3.977889	-3.600096	0.679553	10.171352	20.035064	16.165368	-5.186913	-5.917002	-2.823100	3.433500	-1.846460	-0.815061	0.079895	0.561095	-1.000000	-1.000000	-1.000000	-1.000000	-1.000000	-1.000000	-1.000000	58.000000	0.000000	-1.000000	-1.000000	1891324.000000	1776580185.013409
-7587.180000	-15482.025000	30375.900000	55784.070000	47648.745000	32822.100000	-4441.140000	-13967.595000	-4.222641	-3.473412	-1.890881	3.604703	9.773026	6.604666	-6.542335	-7.077028	-2.823100	3.433500	-1.846460	-0.815061	0.079895	0.561095	-1.000000	-1.000000	-1.000000	-1.000000	-1.000000	-1.000000	-1.000000	58.000000	0.000000	-1.000000	-1.000000	1891325.000000	1776580185.013421
-7579.530000	-15470.325000	30383.235000	55785.285000	47642.400000	32821.740000	-4437.315000	-13959.765000	-1.727109	-0.699617	-2.770551	-4.726554	-5.271343	-5.438607	-4.394219	-4.430645	-2.823100	3.433500	-1.846460	-0.815061	0.079895	0.561095	-1.000000	-1.000000	-1.000000	-1.000000	-1.000000	-1.000000	-1.000000	58.000000	0.000000	-1.000000	-1.000000	1891326.000000	1776580185.017463
-7570.305000	-15460.920000	30389.940000	55790.955000	47647.080000	32819.625000	-4438.845000	-13950.180000	1.585986	2.698002	-1.957065	-10.421984	-17.162325	-13.677409	-0.380713	0.146843	-2.823100	3.433500	-1.846460	-0.815061	0.079895	0.561095	-1.000000	-1.000000	-1.000000	-1.000000	-1.000000	-1.000000	-1.000000	58.000000	0.000000	-1.000000	-1.000000	1891327.000000	1776580185.017498
-7568.595000	-15461.730000	30396.240000	55803.780000	47664.720000	32828.220000	-4429.530000	-13946.265000	4.152542	5.041508	0.218178	-9.955874	-19.244583	-14.376047	3.204008	4.536838	-2.823100	3.433500	-1.846460	-0.815061	0.079895	0.561095	-1.000000	-1.000000	-1.000000	-1.000000	-1.000000	-1.000000	-1.000000	58.000000	0.000000	-1.000000	-1.000000	1891328.000000	1776580185.021425
-7591.545000	-15487.920000	30376.215000	55795.320000	47661.705000	32819.670000	-4444.290000	-13968.495000	4.397358	4.470429	2.213469	-3.751812	-10.686193	-8.275138	4.784313	6.412001	-2.823100	3.433500	-1.846460	-0.815061	0.079895	0.561095	-1.000000	-1.000000	-1.000000	-1.000000	-1.000000	-1.000000	-1.000000	58.000000	0.000000	-1.000000	-1.000000	1891329.000000	1776580185.021434
-7596.045000	-15489.720000	30376.035000	55801.620000	47677.995000	32842.755000	-4452.840000	-13978.935000	1.030572	-0.159123	1.775301	3.736440	2.746576	0.624789	3.447546	3.755242	-2.823100	3.433500	-1.846460	-0.815061	0.079895	0.561095	-1.000000	-1.000000	-1.000000	-1.000000	-1.000000	-1.000000	-1.000000	58.000000	0.000000	-1.000000	-1.000000	1891330.000000	1776580185.025568
-7600.770000	-15490.935000	30374.640000	55802.520000	47682.180000	32842.710000	-4451.940000	-13983.570000	-4.525377	-6.535900	-1.174034	8.054243	13.490683	8.320258	-0.290031	-2.469716	-2.823100	3.433500	-1.846460	-0.815061	0.079895	0.561095	-1.000000	-1.000000	-1.000000	-1.000000	-1.000000	-1.000000	-1.000000	58.000000	0.000000	-1.000000	-1.000000	1891331.000000	1776580185.025603
-7593.615000	-15485.220000	30373.245000	55793.835000	47664.720000	32821.875000	-4449.465000	-13974.930000	-8.195757	-9.844154	-3.998066	7.705668	16.606060	11.684987	-3.757496	-7.738132	-2.456860	4.257540	-2.227960	-0.816160	0.079040	0.559813	-1.000000	-1.000000	-1.000000	-1.000000	-1.000000	-1.000000	-1.000000	58.000000	0.000000	-1.000000	-1.000000	1891332.000000	1776580185.029360
-7579.395000	-15469.965000	30381.075000	55788.570000	47652.705000	32822.415000	-4439.520000	-13957.065000	-6.682556	-7.125739	-4.239549	3.567226	10.829257	8.690476	-4.134274	-7.494741	-2.456860	4.257540	-2.227960	-0.816160	0.079040	0.559813	-1.000000	-1.000000	-1.000000	-1.000000	-1.000000	-1.000000	-1.000000	58.000000	0.000000	-1.000000	-1.000000	1891333.000000	1776580185.029373
-7576.245000	-15469.470000	30378.870000	55779.525000	47638.035000	32819.985000	-4435.785000	-13952.835000	-0.264909	0.354407	-1.589398	-2.134645	-0.789997	1.107413	-0.973617	-1.145649	-2.456860	4.257540	-2.227960	-0.816160	0.079040	0.559813	-1.000000	-1.000000	-1.000000	-1.000000	-1.000000	-1.000000	-1.000000	58.000000	0.000000	-1.000000	-1.000000	1891334.000000	1776580185.035075
-7589.970000	-15485.490000	30367.170000	55770.480000	47631.510000	32819.805000	-4444.380000	-13967.145000	6.810194	7.652718	1.938443	-6.730555	-11.923023	-5.981428	3.290875	6.762184	-2.456860	4.257540	-2.227960	-0.816160	0.079040	0.559813	-1.000000	-1.000000	-1.000000	-1.000000	-1.000000	-1.000000	-1.000000	58.000000	0.000000	-1.000000	-1.000000	1891335.000000	1776580185.035094
-7595.280000	-15490.530000	30367.080000	55776.420000	47646.945000	32830.920000	-4448.295000	-13972.140000	9.300759	9.552361	3.591177	-8.166622	-16.403216	-8.464393	5.153768	9.987112	-2.456860	4.257540	-2.227960	-0.816160	0.079040	0.559813	-1.000000	-1.000000	-1.000000	-1.000000	-1.000000	-1.000000	-1.000000	58.000000	0.000000	-1.000000	-1.000000	1891336.000000	1776580185.037448
-7596.855000	-15490.620000	30365.955000	55780.020000	47652.615000	32837.085000	-4450.815000	-13971.195000	5.724660	5.268243	2.658690	-5.508336	-11.559288	-5.512658	3.196460	6.432442	-2.456860	4.257540	-2.227960	-0.816160	0.079040	0.559813	-1.000000	-1.000000	-1.000000	-1.000000	-1.000000	-1.000000	-1.000000	58.000000	0.000000	-1.000000	-1.000000	1891337.000000	1776580185.037465
-7591.815000	-15485.805000	30373.335000	55793.790000	47669.895000	32851.260000	-4443.165000	-13965.075000	-0.509896	-1.070919	0.881842	0.469905	-0.029518	0.680187	-0.654646	-0.295199	-2.456860	4.257540	-2.227960	-0.816160	0.079040	0.559813	-1.000000	-1.000000	-1.000000	-1.000000	-1.000000	-1.000000	-1.000000	58.000000	0.000000	-1.000000	-1.000000	1891338.000000	1776580185.041378
-7595.415000	-15488.055000	30372.975000	55798.155000	47679.390000	32856.795000	-4450.905000	-13973.940000	-4.836552	-4.824008	0.175166	7.171305	11.884675	6.499658	-3.369313	-5.257739	-2.456860	4.257540	-2.227960	-0.816160	0.079040	0.559813	-1.000000	-1.000000	-1.000000	-1.000000	-1.000000	-1.000000	-1.000000	58.000000	0.000000	-1.000000	-1.000000	1891339.000000	1776580185.041389
-7591.455000	-15483.960000	30372.300000	55794.195000	47672.190000	32847.435000	-4449.465000	-13969.440000	-5.303037	-4.512818	0.730201	11.119611	17.969712	8.631236	-3.725313	-6.440411	-2.456860	4.257540	-2.227960	-0.816160	0.079040	0.559813	-1.000000	-1.000000	-1.000000	-1.000000	-1.000000	-1.000000	-1.000000	58.000000	0.000000	-1.000000	-1.000000	1891340.000000	1776580185.048203
-7582.815000	-15475.680000	30375.225000	55785.510000	47658.195000	32837.220000	-4440.870000	-13959.495000	-2.696166	-1.466396	1.376602	9.677060	14.827188	5.323704	-2.257020	-4.397814	-2.456860	4.257540	-2.227960	-0.816160	0.079040	0.559813	-1.000000	-1.000000	-1.000000	-1.000000	-1.000000	-1.000000	-1.000000	58.000000	0.000000	-1.000000	-1.000000	1891341.000000	1776580185.048213
-7583.130000	-15476.625000	30373.335000	55774.845000	47640.240000	32823.270000	-4441.005000	-13959.720000	1.088154	2.127191	1.200291	2.977431	3.589290	-2.274639	0.219077	-0.497874	-1.724380	4.303320	-3.174080	-0.816892	0.079590	0.559447	-1.000000	-1.000000	-1.000000	-1.000000	-1.000000	-1.000000	-1.000000	58.000000	0.000000	-1.000000	-1.000000	1891342.000000	1776580185.049416
-7589.205000	-15483.420000	30363.210000	55762.650000	47625.345000	32808.555000	-4452.210000	-13966.155000	3.735312	4.045563	-0.033857	-5.819220	-10.256156	-10.349165	2.331290	3.045354	-1.724380	4.303320	-3.174080	-0.816892	0.079590	0.559447	-1.000000	-1.000000	-1.000000	-1.000000	-1.000000	-1.000000	-1.000000	58.000000	0.000000	-1.000000	-1.000000	1891343.000000	1776580185.049429
-7586.955000	-15480.495000	30366.270000	55767.600000	47630.745000	32813.730000	-4451.805000	-13964.490000	3.562517	3.019285	-2.043536	-12.209983	-19.542134	-14.483311	2.413135	4.012958	-1.724380	4.303320	-3.174080	-0.816892	0.079590	0.559447	-1.000000	-1.000000	-1.000000	-1.000000	-1.000000	-1.000000	-1.000000	58.000000	0.000000	-1.000000	-1.000000	1891344.000000	1776580185.053626
-7596.270000	-15487.875000	30367.800000	55781.730000	47645.595000	32823.135000	-4456.035000	-13973.940000	0.879702	-0.133299	-3.606570	-12.416826	-18.949081	-11.689802	0.445531	2.092777	-1.724380	4.303320	-3.174080	-0.816892	0.079590	0.559447	-1.000000	-1.000000	-1.000000	-1.000000	-1.000000	-1.000000	-1.000000	58.000000	0.000000	-1.000000	-1.000000	1891345.000000	1776580185.053641
-7588.755000	-15478.290000	30378.330000	55797.255000	47663.460000	32835.915000	-4452.705000	-13964.760000	-2.392440	-3.189904	-3.172212	-5.566822	-8.130354	-2.291800	-1.757922	-1.010815	-1.724380	4.303320	-3.174080	-0.816892	0.079590	0.559447	-1.000000	-1.000000	-1.000000	-1.000000	-1.000000	-1.000000	-1.000000	58.000000	0.000000	-1.000000	-1.000000	1891346.000000	1776580185.057920
-7590.285000	-15482.340000	30377.700000	55805.805000	47673.810000	32839.335000	-4452.975000	-13966.425000	-4.099444	-4.210821	-0.519320	4.984865	7.424364	9.370883	-2.420328	-2.950620	-1.724380	4.303320	-3.174080	-0.816892	0.079590	0.559447	-1.000000	-1.000000	-1.000000	-1.000000	-1.000000	-1.000000	-1.000000	58.000000	0.000000	-1.000000	-1.000000	1891347.000000	1776580185.057959
-7593.570000	-15487.380000	30372.660000	55802.430000	47674.305000	32836.860000	-4454.145000	-13969.530000	-3.386924	-3.018765	2.535469	13.148969	19.308006	17.104368	-1.233655	-2.634624	-1.724380	4.303320	-3.174080	-0.816892	0.079590	0.559447	-1.000000	-1.000000	-1.000000	-1.000000	-1.000000	-1.000000	-1.000000	58.000000	0.000000	-1.000000	-1.000000	1891348.000000	1776580185.061985
-7596.810000	-15488.820000	30365.145000	55784.385000	47654.685000	32822.055000	-4459.455000	-13974.345000	-1.329055	-1.112214	3.473291	13.739716	20.956429	16.569897	0.606219	-1.070867	-1.724380	4.303320	-3.174080	-0.816892	0.079590	0.559447	-1.000000	-1.000000	-1.000000	-1.000000	-1.000000	-1.000000	-1.000000	58.000000	0.000000	-1.000000	-1.000000	1891349.000000	1776580185.062000
-7586.190000	-15477.840000	30367.035000	55772.010000	47637.585000	32821.110000	-4451.760000	-13964.265000	0.697305	0.467346	1.545675	5.852191	11.229097	8.063617	1.786354	0.375818	-1.724380	4.303320	-3.174080	-0.816892	0.079590	0.559447	-1.000000	-1.000000	-1.000000	-1.000000	-1.000000	-1.000000	-1.000000	58.000000	0.000000	-1.000000	-1.000000	1891350.000000	1776580185.065521
-7592.130000	-15486.570000	30360.285000	55763.460000	47624.625000	32813.010000	-4454.685000	-13969.890000	2.278472	1.812861	-1.553255	-6.087189	-4.679152	-3.501595	2.097866	1.443848	-1.724380	4.303320	-3.174080	-0.816892	0.079590	0.559447	-1.000000	-1.000000	-1.000000	-1.000000	-1.000000	-1.000000	-1.000000	58.000000	0.000000	-1.000000	-1.000000	1891351.000000	1776580185.065540
-7596.990000	-15494.850000	30354.705000	55762.470000	47625.255000	32813.505000	-4452.705000	-13970.520000	2.979983	2.467289	-3.703856	-14.995330	-17.923979	-11.979879	1.871367	2.041135	-1.358140	4.455920	-2.701020	-0.817869	0.079101	0.558287	-1.000000	-1.000000	-1.000000	-1.000000	-1.000000	-1.000000	-1.000000	58.000000	0.000000	-1.000000	-1.000000	1891352.000000	1776580185.069542
-7593.300000	-15488.865000	30361.995000	55772.685000	47642.085000	32828.985000	-4448.880000	-13965.525000	2.240983	1.674193	-3.840401	-15.713174	-21.097398	-13.536286	1.299321	1.862048	-1.358140	4.455920	-2.701020	-0.817869	0.079101	0.558287	-1.000000	-1.000000	-1.000000	-1.000000	-1.000000	-1.000000	-1.000000	58.000000	0.000000	-1.000000	-1.000000	1891353.000000	1776580185.069556
-7593.435000	-15486.480000	30367.305000	55785.285000	47659.320000	32839.650000	-4453.695000	-13968.315000	0.643097	0.261205	-1.661708	-7.817899	-12.420310	-7.890029	0.534025	1.153220	-1.358140	4.455920	-2.701020	-0.817869	0.079101	0.558287	-1.000000	-1.000000	-1.000000	-1.000000	-1.000000	-1.000000	-1.000000	58.000000	0.000000	-1.000000	-1.000000	1891354.000000	1776580185.073343
-7603.695000	-15496.425000	30362.355000	55793.520000	47670.120000	32841.045000	-4465.890000	-13980.690000	-0.782020	-0.436564	1.975804	4.434663	3.126391	1.461454	-0.665418	0.100256	-1.358140	4.455920	-2.701020	-0.817869	0.079101	0.558287	-1.000000	-1.000000	-1.000000	-1.000000	-1.000000	-1.000000	-1.000000	58.000000	0.000000	-1.000000	-1.000000	1891355.000000	1776580185.073361
-7601.265000	-15493.140000	30364.380000	55794.195000	47673.270000	32843.745000	-4464.045000	-13976.640000	-1.784904	-0.488178	4.835103	14.471434	16.668629	8.869337	-2.520922	-1.445553	-1.358140	4.455920	-2.701020	-0.817869	0.079101	0.558287	-1.000000	-1.000000	-1.000000	-1.000000	-1.000000	-1.000000	-1.000000	58.000000	0.000000	-1.000000	-1.000000	1891356.000000	1776580185.077334
-7588.395000	-15478.110000	30372.885000	55789.605000	47663.955000	32839.380000	-4455.945000	-13964.850000	-1.940380	-0.114371	5.342225	17.074111	20.819932	10.330943	-3.856711	-2.515522	-1.358140	4.455920	-2.701020	-0.817869	0.079101	0.558287	-1.000000	-1.000000	-1.000000	-1.000000	-1.000000	-1.000000	-1.000000	58.000000	0.000000	-1.000000	-1.000000	1891357.000000	1776580185.077346
-7581.375000	-15470.865000	30374.415000	55780.380000	47645.730000	32824.260000	-4454.145000	-13958.370000	-0.325526	1.300680	3.950008	11.211510	13.629827	5.586668	-2.907617	-1.436135	-1.358140	4.455920	-2.701020	-0.817869	0.079101	0.558287	-1.000000	-1.000000	-1.000000	-1.000000	-1.000000	-1.000000	-1.000000	58.000000	0.000000	-1.000000	-1.000000	1891358.000000	1776580185.081576
-7577.145000	-15466.365000	30374.190000	55772.235000	47630.835000	32824.170000	-4451.805000	-13952.340000	2.652251	3.454823	1.748094	0.251579	-0.890922	-2.482092	0.217934	1.668114	-1.358140	4.455920	-2.701020	-0.817869	0.079101	0.558287	-1.000000	-1.000000	-1.000000	-1.000000	-1.000000	-1.000000	-1.000000	58.000000	0.000000	-1.000000	-1.000000	1891359.000000	1776580185.081586
-7579.170000	-15472.530000	30369.375000	55769.175000	47626.920000	32821.605000	-4448.880000	-13953.105000	4.771754	4.373388	-0.804213	-10.167072	-14.991413	-9.271317	3.453864	4.483399	-1.358140	4.455920	-2.701020	-0.817869	0.079101	0.558287	-1.000000	-1.000000	-1.000000	-1.000000	-1.000000	-1.000000	-1.000000	58.000000	0.000000	-1.000000	-1.000000	1891360.000000	1776580185.085598
-7582.815000	-15477.255000	30367.260000	55769.940000	47630.205000	32822.685000	-4450.185000	-13957.155000	3.971959	2.281796	-3.436417	-15.122415	-21.218353	-11.014034	4.816494	4.596929	-1.358140	4.455920	-2.701020	-0.817869	0.079101	0.558287	-1.000000	-1.000000	-1.000000	-1.000000	-1.000000	-1.000000	-1.000000	58.000000	0.000000	-1.000000	-1.000000	1891361.000000	1776580185.085624
-7593.120000	-15486.210000	30363.930000	55774.800000	47640.690000	32820.885000	-4460.220000	-13969.305000	0.096906	-2.469797	-5.432998	-12.774927	-16.522464	-7.255073	3.489356	1.284572	-1.434440	4.120200	-3.387720	-0.818235	0.078613	0.557921	-1.000000	-1.000000	-1.000000	-1.000000	-1.000000	-1.000000	-1.000000	58.000000	0.000000	-1.000000	-1.000000	1891362.000000	1776580185.089711
-7592.715000	-15481.305000	30370.005000	55790.190000	47663.505000	32832.855000	-4467.105000	-13969.620000	-4.942706	-7.289663	-5.764575	-4.763136	-3.524240	-0.433169	-0.136149	-3.948340	-1.434440	4.120200	-3.387720	-0.818235	0.078613	0.557921	-1.000000	-1.000000	-1.000000	-1.000000	-1.000000	-1.000000	-1.000000	58.000000	0.000000	-1.000000	-1.000000	1891363.000000	1776580185.089729
-7590.330000	-15478.290000	30373.740000	55797.750000	47675.295000	32852.880000	-4456.620000	-13964.130000	-8.133230	-8.967994	-3.767500	5.110678	11.451625	6.625967	-4.096625	-7.871435	-1.434440	4.120200	-3.387720	-0.818235	0.078613	0.557921	-1.000000	-1.000000	-1.000000	-1.000000	-1.000000	-1.000000	-1.000000	58.000000	0.000000	-1.000000	-1.000000	1891364.000000	1776580185.093473
-7593.345000	-15485.040000	30361.815000	55781.415000	47656.710000	32844.195000	-4455.315000	-13964.850000	-7.397272	-6.296079	-0.259238	12.036369	20.881255	11.573427	-5.519945	-7.683894	-1.434440	4.120200	-3.387720	-0.818235	0.078613	0.557921	-1.000000	-1.000000	-1.000000	-1.000000	-1.000000	-1.000000	-1.000000	58.000000	0.000000	-1.000000	-1.000000	1891365.000000	1776580185.093490
-7587.990000	-15480.090000	30361.410000	55769.985000	47640.105000	32827.815000	-4454.370000	-13961.565000	-3.225542	-1.127313	2.482920	11.916097	19.105458	11.611648	-3.324929	-3.469482	-1.434440	4.120200	-3.387720	-0.818235	0.078613	0.557921	-1.000000	-1.000000	-1.000000	-1.000000	-1.000000	-1.000000	-1.000000	58.000000	0.000000	-1.000000	-1.000000	1891366.000000	1776580185.097439
-7589.340000	-15481.440000	30358.080000	55761.795000	47624.040000	32811.750000	-4457.295000	-13962.465000	2.053035	3.697700	2.999017	4.668533	6.563286	5.125181	0.564580	2.083287	-1.434440	4.120200	-3.387720	-0.818235	0.078613	0.557921	-1.000000	-1.000000	-1.000000	-1.000000	-1.000000	-1.000000	-1.000000	58.000000	0.000000	-1.000000	-1.000000	1891367.000000	1776580185.097453
-7597.080000	-15489.045000	30355.245000	55756.845000	47615.220000	32809.140000	-4462.875000	-13971.780000	5.804619	6.235215	1.893357	-4.923102	-9.474292	-5.147620	3.238645	5.821211	-1.434440	4.120200	-3.387720	-0.818235	0.078613	0.557921	-1.000000	-1.000000	-1.000000	-1.000000	-1.000000	-1.000000	-1.000000	58.000000	0.000000	-1.000000	-1.000000	1891368.000000	1776580185.101585
-7596.045000	-15488.910000	30356.100000	55760.265000	47620.350000	32814.720000	-4461.165000	-13970.205000	6.337384	5.756553	0.589162	-10.850805	-19.748752	-12.904826	3.271791	5.995949	-1.434440	4.120200	-3.387720	-0.818235	0.078613	0.557921	-1.000000	-1.000000	-1.000000	-1.000000	-1.000000	-1.000000	-1.000000	58.000000	0.000000	-1.000000	-1.000000	1891369.000000	1776580185.101601
-7589.385000	-15480.090000	30362.670000	55772.370000	47633.895000	32826.870000	-4457.565000	-13963.860000	4.213142	3.314328	0.224662	-9.806434	-18.713195	-12.973960	1.557291	3.500699	-1.434440	4.120200	-3.387720	-0.818235	0.078613	0.557921	-1.000000	-1.000000	-1.000000	-1.000000	-1.000000	-1.000000	-1.000000	58.000000	0.000000	-1.000000	-1.000000	1891370.000000	1776580185.105559
-7599.105000	-15487.470000	30363.885000	55785.375000	47653.470000	32837.895000	-4466.790000	-13976.055000	1.472201	0.983958	1.160431	-2.553960	-7.241612	-5.185615	-0.161958	0.663123	-1.434440	4.120200	-3.387720	-0.818235	0.078613	0.557921	-1.000000	-1.000000	-1.000000	-1.000000	-1.000000	-1.000000	-1.000000	58.000000	0.000000	-1.000000	-1.000000	1891371.000000	1776580185.105571
-7599.195000	-15486.120000	30369.420000	55798.020000	47671.920000	32850.630000	-4462.245000	-13974.345000	-0.717061	-0.345160	2.655257	6.855645	8.402968	5.801124	-1.135974	-1.329973	-2.456860	3.647140	-3.631880	-0.819151	0.076355	0.557799	-1.000000	-1.000000	-1.000000	-1.000000	-1.000000	-1.000000	-1.000000	58.000000	0.000000	-1.000000	-1.000000	1891372.000000	1776580185.109435
-7593.075000	-15482.520000	30366.360000	55791.855000	47664.180000	32836.005000	-4461.930000	-13966.110000	-2.052749	-0.973735	3.382291	13.147703	19.910072	13.535891	-1.285589	-2.188142	-2.456860	3.647140	-3.631880	-0.819151	0.076355	0.557799	-1.000000	-1.000000	-1.000000	-1.000000	-1.000000	-1.000000	-1.000000	58.000000	0.000000	-1.000000	-1.000000	1891373.000000	1776580185.109444
-7580.520000	-15471.045000	30370.545000	55786.230000	47650.140000	32826.780000	-4452.885000	-13953.915000	-1.848111	-0.853248	2.474453	12.435789	20.760411	13.241260	-0.451700	-1.258826	-2.456860	3.647140	-3.631880	-0.819151	0.076355	0.557799	-1.000000	-1.000000	-1.000000	-1.000000	-1.000000	-1.000000	-1.000000	58.000000	0.000000	-1.000000	-1.000000	1891374.000000	1776580185.113708
-7585.830000	-15478.155000	30361.545000	55770.435000	47626.830000	32806.935000	-4456.080000	-13959.315000	0.021643	0.057654	0.076267	4.574329	9.896924	4.780065	1.089815	1.230547	-2.456860	3.647140	-3.631880	-0.819151	0.076355	0.557799	-1.000000	-1.000000	-1.000000	-1.000000	-1.000000	-1.000000	-1.000000	58.000000	0.000000	-1.000000	-1.000000	1891375.000000	1776580185.113727
-7595.505000	-15489.090000	30351.600000	55760.085000	47614.545000	32795.280000	-4464.360000	-13969.215000	1.713008	0.515537	-3.095832	-6.555377	-7.044917	-7.058982	2.075130	2.993399	-2.456860	3.647140	-3.631880	-0.819151	0.076355	0.557799	-1.000000	-1.000000	-1.000000	-1.000000	-1.000000	-1.000000	-1.000000	58.000000	0.000000	-1.000000	-1.000000	1891376.000000	1776580185.117617
-7598.385000	-15490.890000	30350.925000	55759.905000	47614.185000	32798.655000	-4466.925000	-13971.330000	1.026139	-0.876770	-5.996967	-15.164928	-20.719983	-15.487924	1.180762	1.780450	-2.456860	3.647140	-3.631880	-0.819151	0.076355	0.557799	-1.000000	-1.000000	-1.000000	-1.000000	-1.000000	-1.000000	-1.000000	58.000000	0.000000	-1.000000	-1.000000	1891377.000000	1776580185.117632
-7598.610000	-15488.370000	30356.010000	55769.220000	47624.445000	32818.455000	-4461.840000	-13971.870000	-1.747109	-3.301262	-6.918308	-16.490254	-23.494499	-15.259492	-1.113238	-1.762655	-2.456860	3.647140	-3.631880	-0.819151	0.076355	0.557799	-1.000000	-1.000000	-1.000000	-1.000000	-1.000000	-1.000000	-1.000000	58.000000	0.000000	-1.000000	-1.000000	1891378.000000	1776580185.121569
-7594.155000	-15482.790000	30362.760000	55781.145000	47644.875000	32836.275000	-4459.680000	-13967.055000	-4.039229	-4.256243	-4.458915	-9.446169	-13.815298	-5.647544	-2.684172	-4.668079	-2.456860	3.647140	-3.631880	-0.819151	0.076355	0.557799	-1.000000	-1.000000	-1.000000	-1.000000	-1.000000	-1.000000	-1.000000	58.000000	0.000000	-1.000000	-1.000000	1891379.000000	1776580185.121588
-7598.790000	-15487.155000	30361.770000	55788.570000	47661.795000	32840.910000	-4463.145000	-13971.195000	-3.846041	-2.478335	0.647266	2.430249	3.208574	8.269273	-2.243303	-4.719184	-2.456860	3.647140	-3.631880	-0.819151	0.076355	0.557799	-1.000000	-1.000000	-1.000000	-1.000000	-1.000000	-1.000000	-1.000000	58.000000	0.000000	-1.000000	-1.000000	1891380.000000	1776580185.125645
-7608.645000	-15500.160000	30349.575000	55780.560000	47652.120000	32822.730000	-4469.355000	-13979.745000	-1.692266	0.498719	5.306760	12.698027	18.476897	17.908804	-0.674172	-2.411736	-2.456860	3.647140	-3.631880	-0.819151	0.076355	0.557799	-1.000000	-1.000000	-1.000000	-1.000000	-1.000000	-1.000000	-1.000000	58.000000	0.000000	-1.000000	-1.000000	1891381.000000	1776580185.125667
-7606.485000	-15497.055000	30348.855000	55773.585000	47640.420000	32818.140000	-4471.920000	-13980.645000	0.436042	2.156341	6.417795	15.712405	23.459734	16.938459	0.352633	0.088186	-2.960440	3.143560	-2.517900	-0.820188	0.074707	0.557250	-1.000000	-1.000000	-1.000000	-1.000000	-1.000000	-1.000000	-1.000000	58.000000	0.000000	-1.000000	-1.000000	1891382.000000	1776580185.129552
-7598.745000	-15486.795000	30352.950000	55765.395000	47626.290000	32814.270000	-4467.150000	-13973.040000	1.755307	2.175841	3.899872	10.298588	15.541135	6.404421	0.409125	1.644647	-2.960440	3.143560	-2.517900	-0.820188	0.074707	0.557250	-1.000000	-1.000000	-1.000000	-1.000000	-1.000000	-1.000000	-1.000000	58.000000	0.000000	-1.000000	-1.000000	1891383.000000	1776580185.129573
-7591.455000	-15481.080000	30356.955000	55762.335000	47619.405000	32824.755000	-4458.465000	-13965.435000	3.036267	2.327342	0.560788	0.362825	-0.040264	-6.196862	0.566405	2.889366	-2.960440	3.143560	-2.517900	-0.820188	0.074707	0.557250	-1.000000	-1.000000	-1.000000	-1.000000	-1.000000	-1.000000	-1.000000	58.000000	0.000000	-1.000000	-1.000000	1891384.000000	1776580185.133624
-7597.305000	-15487.200000	30352.905000	55759.410000	47616.705000	32820.930000	-4465.980000	-13972.725000	4.416799	3.251225	-1.186577	-8.186901	-14.062584	-13.264036	1.567335	4.182086	-2.960440	3.143560	-2.517900	-0.820188	0.074707	0.557250	-1.000000	-1.000000	-1.000000	-1.000000	-1.000000	-1.000000	-1.000000	58.000000	0.000000	-1.000000	-1.000000	1891385.000000	1776580185.133651
-7604.100000	-15494.895000	30346.650000	55759.095000	47616.885000	32810.895000	-4475.115000	-13978.980000	4.435336	3.320329	-1.401641	-11.289207	-19.416575	-12.652419	2.284155	4.269037	-2.960440	3.143560	-2.517900	-0.820188	0.074707	0.557250	-1.000000	-1.000000	-1.000000	-1.000000	-1.000000	-1.000000	-1.000000	58.000000	0.000000	-1.000000	-1.000000	1891386.000000	1776580185.137527
-7610.085000	-15500.385000	30345.885000	55767.420000	47630.160000	32822.595000	-4475.205000	-13982.850000	1.879910	1.048452	-1.402556	-8.377312	-14.566579	-7.266229	1.217853	1.997850	-2.960440	3.143560	-2.517900	-0.820188	0.074707	0.557250	-1.000000	-1.000000	-1.000000	-1.000000	-1.000000	-1.000000	-1.000000	58.000000	0.000000	-1.000000	-1.000000	1891387.000000	1776580185.137536
-7605.675000	-15494.490000	30354.615000	55784.655000	47654.055000	32840.055000	-4473.765000	-13981.140000	-2.167532	-2.569225	-1.494655	-1.418378	-2.743733	-0.340518	-1.046913	-1.625740	-2.960440	3.143560	-2.517900	-0.820188	0.074707	0.557250	-1.000000	-1.000000	-1.000000	-1.000000	-1.000000	-1.000000	-1.000000	58.000000	0.000000	-1.000000	-1.000000	1891388.000000	1776580185.141568
-7608.060000	-15496.110000	30355.155000	55792.170000	47664.945000	32843.835000	-4474.890000	-13984.650000	-5.014617	-4.844560	-0.849211	6.451605	10.442108	6.278708	-2.504816	-4.248560	-2.960440	3.143560	-2.517900	-0.820188	0.074707	0.557250	-1.000000	-1.000000	-1.000000	-1.000000	-1.000000	-1.000000	-1.000000	58.000000	0.000000	-1.000000	-1.000000	1891389.000000	1776580185.141603
-7606.980000	-15495.795000	30351.780000	55785.285000	47654.460000	32832.495000	-4474.440000	-13980.915000	-4.962064	-4.244973	0.582457	11.387865	18.539788	10.132449	-2.118695	-4.397450	-2.960440	3.143560	-2.517900	-0.820188	0.074707	0.557250	-1.000000	-1.000000	-1.000000	-1.000000	-1.000000	-1.000000	-1.000000	58.000000	0.000000	-1.000000	-1.000000	1891390.000000	1776580185.145579
-7600.815000	-15488.415000	30348.720000	55766.475000	47627.325000	32815.845000	-4475.880000	-13973.850000	-2.400786	-1.456739	1.521110	10.013052	16.464208	8.408961	-0.468238	-2.163809	-2.960440	3.143560	-2.517900	-0.820188	0.074707	0.557250	-1.000000	-1.000000	-1.000000	-1.000000	-1.000000	-1.000000	-1.000000	58.000000	0.000000	-1.000000	-1.000000	1891391.000000	1776580185.145586
-7605.360000	-15494.940000	30344.490000	55757.970000	47611.170000	32793.885000	-4478.895000	-13977.180000	1.048482	1.766006	0.967786	2.105711	4.200035	0.913979	1.156028	1.207826	-2.426340	1.587040	-1.129240	-0.820860	0.073669	0.557127	-1.000000	-1.000000	-1.000000	-1.000000	-1.000000	-1.000000	-1.000000	58.000000	0.000000	-1.000000	-1.000000	1891392.000000	1776580185.149576
-7596.765000	-15486.840000	30352.095000	55762.020000	47611.035000	32803.605000	-4471.425000	-13968.630000	3.588066	3.721103	-0.535762	-7.849639	-11.435785	-8.277968	1.919942	3.866664	-2.426340	1.587040	-1.129240	-0.820860	0.073669	0.557127	-1.000000	-1.000000	-1.000000	-1.000000	-1.000000	-1.000000	-1.000000	58.000000	0.000000	-1.000000	-1.000000	1891393.000000	1776580185.149584
-7599.870000	-15495.885000	30347.145000	55761.705000	47614.995000	32816.070000	-4463.595000	-13968.720000	4.250573	3.608567	-1.516751	-13.420938	-20.704704	-12.624866	2.136416	4.584713	-2.426340	1.587040	-1.129240	-0.820860	0.073669	0.557127	-1.000000	-1.000000	-1.000000	-1.000000	-1.000000	-1.000000	-1.000000	58.000000	0.000000	-1.000000	-1.000000	1891394.000000	1776580185.153540
-7604.325000	-15501.105000	30343.680000	55761.435000	47624.040000	32817.105000	-4469.220000	-13970.790000	3.000328	1.588621	-1.376385	-11.475092	-18.094705	-8.436785	2.293704	3.270850	-2.426340	1.587040	-1.129240	-0.820860	0.073669	0.557127	-1.000000	-1.000000	-1.000000	-1.000000	-1.000000	-1.000000	-1.000000	58.000000	0.000000	-1.000000	-1.000000	1891395.000000	1776580185.153552
-7604.190000	-15498.090000	30348.810000	55773.945000	47641.185000	32826.060000	-4471.245000	-13973.220000	0.340909	-1.379946	-0.666951	-3.892782	-5.650822	1.432278	1.796059	0.455808	-2.426340	1.587040	-1.129240	-0.820860	0.073669	0.557127	-1.000000	-1.000000	-1.000000	-1.000000	-1.000000	-1.000000	-1.000000	58.000000	0.000000	-1.000000	-1.000000	1891396.000000	1776580185.157612
-7606.755000	-15499.350000	30348.135000	55779.615000	47648.160000	32819.535000	-4474.305000	-13975.290000	-2.500385	-3.506251	0.219818	5.106389	9.486066	10.368022	-0.044003	-2.783131	-2.426340	1.587040	-1.129240	-0.820860	0.073669	0.557127	-1.000000	-1.000000	-1.000000	-1.000000	-1.000000	-1.000000	-1.000000	58.000000	0.000000	-1.000000	-1.000000	1891397.000000	1776580185.157628
-7606.215000	-15498.630000	30345.480000	55774.035000	47643.210000	32821.200000	-4473.180000	-13975.605000	-4.089167	-3.481649	1.064400	11.308966	19.363294	13.247801	-2.536039	-5.019610	-2.426340	1.587040	-1.129240	-0.820860	0.073669	0.557127	-1.000000	-1.000000	-1.000000	-1.000000	-1.000000	-1.000000	-1.000000	58.000000	0.000000	-1.000000	-1.000000	1891398.000000	1776580185.161651
-7604.100000	-15496.965000	30342.330000	55761.885000	47628.135000	32819.580000	-4471.695000	-13976.820000	-3.724186	-1.582966	1.304367	11.621782	18.937433	9.338820	-4.083833	-5.253697	-2.426340	1.587040	-1.129240	-0.820860	0.073669	0.557127	-1.000000	-1.000000	-1.000000	-1.000000	-1.000000	-1.000000	-1.000000	58.000000	0.000000	-1.000000	-1.000000	1891399.000000	1776580185.161666
-7605.720000	-15497.280000	30339.765000	55752.435000	47612.430000	32808.690000	-4476.150000	-13979.700000	-1.740532	0.915608	0.627620	5.757696	8.609675	1.636735	-3.748949	-3.554631	-2.426340	1.587040	-1.129240	-0.820860	0.073669	0.557127	-1.000000	-1.000000	-1.000000	-1.000000	-1.000000	-1.000000	-1.000000	58.000000	0.000000	-1.000000	-1.000000	1891400.000000	1776580185.165701
-7598.970000	-15489.180000	30346.830000	55754.325000	47611.575000	32812.695000	-4472.145000	-13971.780000	0.801252	2.822889	-0.376729	-2.827501	-5.743523	-5.843210	-1.956729	-0.784978	-2.426340	1.587040	-1.129240	-0.820860	0.073669	0.557127	-1.000000	-1.000000	-1.000000	-1.000000	-1.000000	-1.000000	-1.000000	58.000000	0.000000	-1.000000	-1.000000	1891401.000000	1776580185.165731
-7599.195000	-15489.585000	30348.495000	55757.745000	47614.005000	32814.270000	-4471.155000	-13970.790000	2.858074	3.629713	-0.603962	-8.839340	-15.984111	-9.780312	0.315172	2.189189	-2.197440	0.900340	-0.198380	-0.820921	0.071716	0.557982	-1.000000	-1.000000	-1.000000	-1.000000	-1.000000	-1.000000	-1.000000	58.000000	0.000000	-1.000000	-1.000000	1891402.000000	1776580185.169908
-7596.900000	-15489.180000	30348.405000	55764.810000	47622.510000	32818.320000	-4474.395000	-13970.205000	3.732552	3.194660	0.257048	-8.887266	-16.776284	-8.712170	2.183388	4.460188	-2.197440	0.900340	-0.198380	-0.820921	0.071716	0.557982	-1.000000	-1.000000	-1.000000	-1.000000	-1.000000	-1.000000	-1.000000	58.000000	0.000000	-1.000000	-1.000000	1891403.000000	1776580185.169919
-7609.770000	-15501.645000	30345.030000	55776.330000	47639.340000	32829.165000	-4478.670000	-13982.040000	2.896951	1.310943	1.206472	-3.531365	-8.524199	-3.735597	2.796745	4.816288	-2.197440	0.900340	-0.198380	-0.820921	0.071716	0.557982	-1.000000	-1.000000	-1.000000	-1.000000	-1.000000	-1.000000	-1.000000	58.000000	0.000000	-1.000000	-1.000000	1891404.000000	1776580185.173554
-7623.225000	-15514.155000	30335.715000	55776.060000	47642.850000	32825.880000	-4489.605000	-13993.020000	0.062751	-2.025078	0.958185	3.644654	3.666266	2.316863	1.688384	2.443583	-2.197440	0.900340	-0.198380	-0.820921	0.071716	0.557982	-1.000000	-1.000000	-1.000000	-1.000000	-1.000000	-1.000000	-1.000000	58.000000	0.000000	-1.000000	-1.000000	1891405.000000	1776580185.173562
-7614.090000	-15504.840000	30341.970000	55779.570000	47648.565000	32830.470000	-4483.620000	-13984.695000	-3.724866	-5.552616	-0.644612	8.341051	13.094584	6.301116	-0.515467	-1.607279	-2.197440	0.900340	-0.198380	-0.820921	0.071716	0.557982	-1.000000	-1.000000	-1.000000	-1.000000	-1.000000	-1.000000	-1.000000	58.000000	0.000000	-1.000000	-1.000000	1891406.000000	1776580185.177524
-7612.470000	-15505.425000	30336.930000	55768.905000	47634.120000	32819.805000	-4480.020000	-13982.400000	-5.630978	-6.626212	-2.253717	7.955345	14.927751	6.329721	-1.973230	-4.299204	-2.197440	0.900340	-0.198380	-0.820921	0.071716	0.557982	-1.000000	-1.000000	-1.000000	-1.000000	-1.000000	-1.000000	-1.000000	58.000000	0.000000	-1.000000	-1.000000	1891407.000000	1776580185.177534
-7616.070000	-15510.330000	30326.625000	55750.545000	47610.045000	32799.330000	-4482.675000	-13983.435000	-3.812932	-3.965376	-2.720615	2.579757	8.212231	2.369591	-1.293841	-3.514874	-2.197440	0.900340	-0.198380	-0.820921	0.071716	0.557982	-1.000000	-1.000000	-1.000000	-1.000000	-1.000000	-1.000000	-1.000000	58.000000	0.000000	-1.000000	-1.000000	1891408.000000	1776580185.181610
-7611.570000	-15503.220000	30331.305000	55747.485000	47602.530000	32792.670000	-4480.200000	-13977.765000	0.368043	0.714639	-2.199620	-5.222729	-3.742835	-3.914811	0.822758	-0.189596	-2.197440	0.900340	-0.198380	-0.820921	0.071716	0.557982	-1.000000	-1.000000	-1.000000	-1.000000	-1.000000	-1.000000	-1.000000	58.000000	0.000000	-1.000000	-1.000000	1891409.000000	1776580185.181615
-7619.310000	-15511.005000	30325.365000	55745.145000	47598.165000	32786.190000	-4486.680000	-13985.820000	4.067170	4.719745	-1.016297	-11.067888	-14.274629	-9.107451	2.513261	3.082759	-2.197440	0.900340	-0.198380	-0.820921	0.071716	0.557982	-1.000000	-1.000000	-1.000000	-1.000000	-1.000000	-1.000000	-1.000000	58.000000	0.000000	-1.000000	-1.000000	1891410.000000	1776580185.185687
-7614.720000	-15504.615000	30328.425000	55746.945000	47601.135000	32794.155000	-4487.490000	-13983.705000	5.337565	6.311578	0.662481	-11.260273	-17.151576	-9.614728	2.498190	4.178334	-2.197440	0.900340	-0.198380	-0.820921	0.071716	0.557982	-1.000000	-1.000000	-1.000000	-1.000000	-1.000000	-1.000000	-1.000000	58.000000	0.000000	-1.000000	-1.000000	1891411.000000	1776580185.185707
-7609.230000	-15499.125000	30337.110000	55759.140000	47620.305000	32811.120000	-4482.720000	-13977.225000	4.241225	5.460459	2.532867	-5.418395	-10.604150	-4.121128	1.014154	2.898615	-1.800680	1.281840	1.342880	-0.819639	0.068359	0.557616	-1.000000	-1.000000	-1.000000	-1.000000	-1.000000	-1.000000	-1.000000	58.000000	0.000000	-1.000000	-1.000000	1891412.000000	1776580185.191903
-7615.485000	-15506.235000	30335.040000	55767.960000	47637.855000	32818.320000	-4490.865000	-13984.695000	2.161450	3.295516	4.220661	3.667739	2.232841	5.283483	-0.645609	0.707481	-1.800680	1.281840	1.342880	-0.819639	0.068359	0.557616	-1.000000	-1.000000	-1.000000	-1.000000	-1.000000	-1.000000	-1.000000	58.000000	0.000000	-1.000000	-1.000000	1891413.000000	1776580185.191918
-7613.055000	-15503.040000	30341.745000	55779.795000	47654.145000	32836.005000	-4487.445000	-13983.930000	0.018132	0.609811	4.963652	11.783868	15.235795	13.891787	-1.637372	-1.250197	-1.800680	1.281840	1.342880	-0.819639	0.068359	0.557616	-1.000000	-1.000000	-1.000000	-1.000000	-1.000000	-1.000000	-1.000000	58.000000	0.000000	-1.000000	-1.000000	1891414.000000	1776580185.193653
-7618.140000	-15508.530000	30333.555000	55768.410000	47635.470000	32823.135000	-4492.035000	-13987.395000	-1.892250	-2.094087	3.949507	14.989185	21.638263	16.933992	-1.860532	-2.636808	-1.800680	1.281840	1.342880	-0.819639	0.068359	0.557616	-1.000000	-1.000000	-1.000000	-1.000000	-1.000000	-1.000000	-1.000000	58.000000	0.000000	-1.000000	-1.000000	1891415.000000	1776580185.193672
-7607.295000	-15496.110000	30338.595000	55759.860000	47617.110000	32806.890000	-4487.535000	-13977.180000	-3.039351	-3.874460	1.164542	11.147004	16.956159	11.830854	-1.386213	-2.999733	-1.800680	1.281840	1.342880	-0.819639	0.068359	0.557616	-1.000000	-1.000000	-1.000000	-1.000000	-1.000000	-1.000000	-1.000000	58.000000	0.000000	-1.000000	-1.000000	1891416.000000	1776580185.197651
-7609.860000	-15501.780000	30329.820000	55747.035000	47595.690000	32783.445000	-4487.490000	-13980.420000	-2.774679	-3.839209	-2.355120	1.500544	2.404344	-0.299459	-0.353442	-1.911487	-1.800680	1.281840	1.342880	-0.819639	0.068359	0.557616	-1.000000	-1.000000	-1.000000	-1.000000	-1.000000	-1.000000	-1.000000	58.000000	0.000000	-1.000000	-1.000000	1891417.000000	1776580185.197661
-7606.350000	-15497.595000	30331.035000	55746.135000	47594.070000	32787.495000	-4478.940000	-13972.680000	-1.281210	-2.265342	-5.151243	-9.187077	-14.395377	-13.842067	1.013315	0.163307	-1.800680	1.281840	1.342880	-0.819639	0.068359	0.557616	-1.000000	-1.000000	-1.000000	-1.000000	-1.000000	-1.000000	-1.000000	58.000000	0.000000	-1.000000	-1.000000	1891418.000000	1776580185.201753
-7606.935000	-15499.800000	30330.045000	55744.200000	47597.670000	32792.085000	-4481.280000	-13972.140000	0.332171	-0.439140	-6.100992	-15.291823	-23.812154	-21.014127	2.278038	2.072442	-1.800680	1.281840	1.342880	-0.819639	0.068359	0.557616	-1.000000	-1.000000	-1.000000	-1.000000	-1.000000	-1.000000	-1.000000	58.000000	0.000000	-1.000000	-1.000000	1891419.000000	1776580185.201768
-7610.490000	-15503.940000	30331.350000	55753.290000	47610.630000	32800.095000	-4484.340000	-13975.515000	1.024151	0.541874	-4.780204	-13.804814	-20.547752	-17.318787	2.600180	2.768503	-1.800680	1.281840	1.342880	-0.819639	0.068359	0.557616	-1.000000	-1.000000	-1.000000	-1.000000	-1.000000	-1.000000	-1.000000	58.000000	0.000000	-1.000000	-1.000000	1891420.000000	1776580185.205662
-7615.980000	-15507.540000	30330.855000	55763.460000	47629.530000	32818.365000	-4490.145000	-13983.390000	0.380643	0.286765	-1.797318	-5.764178	-6.671422	-4.880143	1.237997	1.601956	-1.800680	1.281840	1.342880	-0.819639	0.068359	0.557616	-1.000000	-1.000000	-1.000000	-1.000000	-1.000000	-1.000000	-1.000000	58.000000	0.000000	-1.000000	-1.000000	1891421.000000	1776580185.205676
-7620.705000	-15508.845000	30331.665000	55771.785000	47640.060000	32817.555000	-4501.350000	-13993.380000	-1.239925	-0.741268	1.452645	4.715542	10.312476	9.463686	-1.596412	-1.264085	-0.228900	2.029580	1.739640	-0.819334	0.066772	0.558165	-1.000000	-1.000000	-1.000000	-1.000000	-1.000000	-1.000000	-1.000000	58.000000	0.000000	-1.000000	-1.000000	1891422.000000	1776580185.209715
-7607.385000	-15493.140000	30342.015000	55772.775000	47637.495000	32816.925000	-4493.115000	-13980.465000	-2.493413	-1.188396	3.829445	12.530888	21.704523	18.248206	-4.437291	-4.201519	-0.228900	2.029580	1.739640	-0.819334	0.066772	0.558165	-1.000000	-1.000000	-1.000000	-1.000000	-1.000000	-1.000000	-1.000000	58.000000	0.000000	-1.000000	-1.000000	1891423.000000	1776580185.209723
-7603.740000	-15490.305000	30340.170000	55762.155000	47622.735000	32810.535000	-4486.050000	-13973.940000	-1.697307	0.241527	4.968094	13.879496	21.770720	17.371229	-4.999833	-4.574497	-0.228900	2.029580	1.739640	-0.819334	0.066772	0.558165	-1.000000	-1.000000	-1.000000	-1.000000	-1.000000	-1.000000	-1.000000	58.000000	0.000000	-1.000000	-1.000000	1891424.000000	1776580185.213696
-7611.390000	-15503.130000	30324.510000	55740.780000	47597.265000	32797.710000	-4488.345000	-13978.620000	1.030361	2.737204	4.343787	7.882651	10.465921	8.144250	-2.222273	-1.477214	-0.228900	2.029580	1.739640	-0.819334	0.066772	0.558165	-1.000000	-1.000000	-1.000000	-1.000000	-1.000000	-1.000000	-1.000000	58.000000	0.000000	-1.000000	-1.000000	1891425.000000	1776580185.213703
-7604.820000	-15500.295000	30324.870000	55737.450000	47593.665000	32799.330000	-4480.740000	-13972.005000	3.388328	3.616560	1.342421	-2.636718	-6.316789	-4.059691	2.185053	2.785848	-0.228900	2.029580	1.739640	-0.819334	0.066772	0.558165	-1.000000	-1.000000	-1.000000	-1.000000	-1.000000	-1.000000	-1.000000	58.000000	0.000000	-1.000000	-1.000000	1891426.000000	1776580185.217753
-7607.520000	-15501.690000	30325.005000	55741.545000	47595.870000	32794.560000	-4484.745000	-13974.660000	3.664218	1.801562	-2.771294	-11.715488	-19.328620	-12.934802	5.400515	5.281232	-0.228900	2.029580	1.739640	-0.819334	0.066772	0.558165	-1.000000	-1.000000	-1.000000	-1.000000	-1.000000	-1.000000	-1.000000	58.000000	0.000000	-1.000000	-1.000000	1891427.000000	1776580185.217774
-7612.875000	-15503.355000	30326.085000	55748.835000	47603.295000	32801.715000	-4491.945000	-13981.770000	1.979302	-1.094504	-5.200241	-13.741177	-21.408000	-14.599594	5.549050	4.723188	-0.228900	2.029580	1.739640	-0.819334	0.066772	0.558165	-1.000000	-1.000000	-1.000000	-1.000000	-1.000000	-1.000000	-1.000000	58.000000	0.000000	-1.000000	-1.000000	1891428.000000	1776580185.221681
-7605.990000	-15494.670000	30336.570000	55763.055000	47625.660000	32812.605000	-4491.450000	-13975.290000	-0.575863	-2.917718	-4.252378	-7.573215	-11.941301	-9.155487	2.534609	1.668341	-0.228900	2.029580	1.739640	-0.819334	0.066772	0.558165	-1.000000	-1.000000	-1.000000	-1.000000	-1.000000	-1.000000	-1.000000	58.000000	0.000000	-1.000000	-1.000000	1891429.000000	1776580185.221694
-7608.105000	-15497.415000	30336.795000	55771.335000	47637.900000	32815.575000	-4492.260000	-13976.595000	-2.452360	-2.586862	-0.517669	2.978050	3.583026	0.082910	-1.678114	-1.766944	-0.228900	2.029580	1.739640	-0.819334	0.066772	0.558165	-1.000000	-1.000000	-1.000000	-1.000000	-1.000000	-1.000000	-1.000000	58.000000	0.000000	-1.000000	-1.000000	1891430.000000	1776580185.225771
-7608.015000	-15496.830000	30334.005000	55767.555000	47636.055000	32813.235000	-4494.555000	-13976.190000	-2.712494	-0.731800	3.515139	11.765726	16.834006	8.151470	-4.504546	-3.543063	-0.228900	2.029580	1.739640	-0.819334	0.066772	0.558165	-1.000000	-1.000000	-1.000000	-1.000000	-1.000000	-1.000000	-1.000000	58.000000	0.000000	-1.000000	-1.000000	1891431.000000	1776580185.225795
-7610.220000	-15497.370000	30329.595000	55752.975000	47617.920000	32804.910000	-4494.240000	-13978.710000	-1.784720	0.999170	5.045050	13.604872	20.523308	10.864606	-4.745546	-3.314731	0.534100	1.434440	2.365300	-0.818540	0.067322	0.560179	-1.000000	-1.000000	-1.000000	-1.000000	-1.000000	-1.000000	-1.000000	58.000000	0.000000	-1.000000	-1.000000	1891432.000000	1776580185.229599
-7601.760000	-15488.055000	30333.150000	55746.765000	47604.330000	32804.865000	-4485.420000	-13968.180000	-0.472677	1.723926	3.277923	7.369059	12.534165	7.395839	-2.690302	-1.799811	0.534100	1.434440	2.365300	-0.818540	0.067322	0.560179	-1.000000	-1.000000	-1.000000	-1.000000	-1.000000	-1.000000	-1.000000	58.000000	0.000000	-1.000000	-1.000000	1891433.000000	1776580185.229608
-7597.755000	-15486.660000	30329.505000	55737.405000	47592.315000	32800.725000	-4481.190000	-13961.160000	0.978150	1.800859	-0.108086	-3.036918	-2.357324	0.656508	0.714703	0.467015	0.534100	1.434440	2.365300	-0.818540	0.067322	0.560179	-1.000000	-1.000000	-1.000000	-1.000000	-1.000000	-1.000000	-1.000000	58.000000	0.000000	-1.000000	-1.000000	1891434.000000	1776580185.234266
-7606.665000	-15498.090000	30321.450000	55730.385000	47589.255000	32810.805000	-4482.495000	-13971.645000	2.169161	1.400605	-3.020158	-11.544025	-15.488581	-4.960502	3.914198	2.639562	0.534100	1.434440	2.365300	-0.818540	0.067322	0.560179	-1.000000	-1.000000	-1.000000	-1.000000	-1.000000	-1.000000	-1.000000	58.000000	0.000000	-1.000000	-1.000000	1891435.000000	1776580185.234285
-7613.730000	-15504.480000	30321.180000	55735.830000	47599.335000	32818.545000	-4480.965000	-13976.865000	1.922171	-0.163267	-4.503712	-13.863492	-19.721867	-6.325192	5.105780	2.969495	0.534100	1.434440	2.365300	-0.818540	0.067322	0.560179	-1.000000	-1.000000	-1.000000	-1.000000	-1.000000	-1.000000	-1.000000	58.000000	0.000000	-1.000000	-1.000000	1891436.000000	1776580185.237810
-7617.780000	-15510.600000	30317.895000	55740.105000	47603.160000	32810.220000	-4489.605000	-13979.745000	-0.271626	-2.867493	-4.303972	-9.182996	-13.313794	-3.518363	3.484359	0.667889	0.534100	1.434440	2.365300	-0.818540	0.067322	0.560179	-1.000000	-1.000000	-1.000000	-1.000000	-1.000000	-1.000000	-1.000000	58.000000	0.000000	-1.000000	-1.000000	1891437.000000	1776580185.237822
-7626.330000	-15517.530000	30316.005000	55749.960000	47620.305000	32817.780000	-4502.970000	-13992.210000	-3.128707	-5.183209	-2.551322	-0.037020	-0.342092	0.448084	-0.410640	-2.825155	0.534100	1.434440	2.365300	-0.818540	0.067322	0.560179	-1.000000	-1.000000	-1.000000	-1.000000	-1.000000	-1.000000	-1.000000	58.000000	0.000000	-1.000000	-1.000000	1891438.000000	1776580185.241714
-7622.775000	-15511.770000	30320.595000	55756.215000	47628.810000	32823.990000	-4502.385000	-13991.535000	-4.652603	-5.320441	0.116734	9.110590	12.378529	2.911686	-4.921093	-5.319602	0.534100	1.434440	2.365300	-0.818540	0.067322	0.560179	-1.000000	-1.000000	-1.000000	-1.000000	-1.000000	-1.000000	-1.000000	58.000000	0.000000	-1.000000	-1.000000	1891439.000000	1776580185.241727
-7614.765000	-15503.805000	30324.330000	55754.280000	47622.915000	32818.995000	-4495.365000	-13982.265000	-3.401755	-2.373635	2.940208	14.043340	18.882845	3.329400	-7.314882	-5.051837	0.534100	1.434440	2.365300	-0.818540	0.067322	0.560179	-1.000000	-1.000000	-1.000000	-1.000000	-1.000000	-1.000000	-1.000000	58.000000	0.000000	-1.000000	-1.000000	1891440.000000	1776580185.245759
-7620.300000	-15509.790000	30314.295000	55737.495000	47597.985000	32795.955000	-4500.045000	-13987.890000	0.446413	2.705101	4.907799	12.336912	15.880854	1.572379	-5.597641	-1.543471	0.534100	1.434440	2.365300	-0.818540	0.067322	0.560179	-1.000000	-1.000000	-1.000000	-1.000000	-1.000000	-1.000000	-1.000000	58.000000	0.000000	-1.000000	-1.000000	1891441.000000	1776580185.245791
-7616.970000	-15504.705000	30314.025000	55726.740000	47580.525000	32786.640000	-4499.235000	-13985.505000	4.612385	7.058180	4.753911	4.408732	4.231442	-2.488731	-0.814942	3.304784	0.808780	3.006220	3.296160	-0.816587	0.068970	0.560118	-1.000000	-1.000000	-1.000000	-1.000000	-1.000000	-1.000000	-1.000000	58.000000	0.000000	-1.000000	-1.000000	1891442.000000	1776580185.252387
-7606.575000	-15493.815000	30322.215000	55730.205000	47582.460000	32790.420000	-4492.710000	-13974.975000	6.769063	8.450908	2.547593	-5.746942	-10.077863	-6.882815	4.087838	6.781391	0.808780	3.006220	3.296160	-0.816587	0.068970	0.560118	-1.000000	-1.000000	-1.000000	-1.000000	-1.000000	-1.000000	-1.000000	58.000000	0.000000	-1.000000	-1.000000	1891443.000000	1776580185.252407
-7604.775000	-15490.890000	30324.195000	55734.165000	47587.860000	32794.020000	-4493.835000	-13972.365000	6.508760	7.035891	0.172517	-12.213048	-18.555302	-7.841193	6.950591	7.769656	0.808780	3.006220	3.296160	-0.816587	0.068970	0.560118	-1.000000	-1.000000	-1.000000	-1.000000	-1.000000	-1.000000	-1.000000	58.000000	0.000000	-1.000000	-1.000000	1891444.000000	1776580185.253733
-7616.970000	-15501.870000	30309.930000	55724.805000	47584.170000	32788.035000	-4509.360000	-13983.705000	4.180464	3.703689	-1.173565	-11.673612	-16.434910	-3.767663	6.691480	6.155742	0.808780	3.006220	3.296160	-0.816587	0.068970	0.560118	-1.000000	-1.000000	-1.000000	-1.000000	-1.000000	-1.000000	-1.000000	58.000000	0.000000	-1.000000	-1.000000	1891445.000000	1776580185.253744
-7624.350000	-15510.555000	30306.735000	55735.020000	47602.395000	32796.090000	-4510.530000	-13989.645000	-0.161920	-1.234011	-2.257055	-5.732645	-5.932742	2.922075	3.121217	1.885103	0.808780	3.006220	3.296160	-0.816587	0.068970	0.560118	-1.000000	-1.000000	-1.000000	-1.000000	-1.000000	-1.000000	-1.000000	58.000000	0.000000	-1.000000	-1.000000	1891446.000000	1776580185.257938
-7626.690000	-15514.470000	30314.745000	55751.085000	47617.740000	32811.525000	-4507.065000	-13992.795000	-5.397383	-6.741890	-3.436278	1.997209	6.979033	8.766429	-1.856403	-3.830554	0.808780	3.006220	3.296160	-0.816587	0.068970	0.560118	-1.000000	-1.000000	-1.000000	-1.000000	-1.000000	-1.000000	-1.000000	58.000000	0.000000	-1.000000	-1.000000	1891447.000000	1776580185.257951
-7625.655000	-15512.940000	30315.645000	55749.870000	47612.880000	32803.695000	-4509.540000	-13993.155000	-8.824378	-10.278252	-3.388644	8.559967	16.363730	11.628867	-5.008545	-8.168479	0.808780	3.006220	3.296160	-0.816587	0.068970	0.560118	-1.000000	-1.000000	-1.000000	-1.000000	-1.000000	-1.000000	-1.000000	58.000000	0.000000	-1.000000	-1.000000	1891448.000000	1776580185.261924
-7622.955000	-15509.565000	30313.350000	55739.340000	47597.085000	32788.935000	-4504.500000	-13988.520000	-8.214328	-9.526682	-1.432375	11.131698	17.599086	9.916480	-4.693160	-8.663362	0.808780	3.006220	3.296160	-0.816587	0.068970	0.560118	-1.000000	-1.000000	-1.000000	-1.000000	-1.000000	-1.000000	-1.000000	58.000000	0.000000	-1.000000	-1.000000	1891449.000000	1776580185.261946
-7620.210000	-15506.505000	30314.385000	55733.355000	47584.620000	32781.510000	-4498.335000	-13982.220000	-3.749313	-4.507254	1.142825	7.857337	9.527698	3.226512	-1.659126	-4.965117	0.808780	3.006220	3.296160	-0.816587	0.068970	0.560118	-1.000000	-1.000000	-1.000000	-1.000000	-1.000000	-1.000000	-1.000000	58.000000	0.000000	-1.000000	-1.000000	1891450.000000	1776580185.265724
-7612.605000	-15500.295000	30317.130000	55729.485000	47574.270000	32783.895000	-4491.990000	-13973.850000	2.266428	2.326576	2.765065	0.294498	-3.678246	-5.460202	2.243413	1.088206	0.808780	3.006220	3.296160	-0.816587	0.068970	0.560118	-1.000000	-1.000000	-1.000000	-1.000000	-1.000000	-1.000000	-1.000000	58.000000	0.000000	-1.000000	-1.000000	1891451.000000	1776580185.265736
-7616.160000	-15508.890000	30309.930000	55726.920000	47573.415000	32788.170000	-4493.430000	-13979.520000	6.963175	7.597856	2.841411	-7.124978	-14.687905	-11.002533	4.969293	6.395456	0.839300	3.555580	2.441600	-0.816831	0.072143	0.560179	-1.000000	-1.000000	-1.000000	-1.000000	-1.000000	-1.000000	-1.000000	58.000000	0.000000	-1.000000	-1.000000	1891452.000000	1776580185.269892
-7616.295000	-15506.100000	30311.145000	55733.535000	47584.350000	32793.930000	-4494.060000	-13980.555000	8.202588	8.808686	1.493522	-10.310051	-17.553642	-10.243140	4.963435	8.060839	0.839300	3.555580	2.441600	-0.816831	0.072143	0.560179	-1.000000	-1.000000	-1.000000	-1.000000	-1.000000	-1.000000	-1.000000	58.000000	0.000000	-1.000000	-1.000000	1891453.000000	1776580185.269904
-7616.835000	-15505.650000	30317.445000	55745.820000	47602.980000	32805.000000	-4497.345000	-13983.570000	5.651281	5.973669	-0.355713	-7.734665	-10.826929	-4.140519	2.091720	5.311168	0.839300	3.555580	2.441600	-0.816831	0.072143	0.560179	-1.000000	-1.000000	-1.000000	-1.000000	-1.000000	-1.000000	-1.000000	58.000000	0.000000	-1.000000	-1.000000	1891454.000000	1776580185.273683
-7623.990000	-15510.375000	30318.480000	55754.685000	47614.050000	32811.435000	-4507.560000	-13994.280000	0.914497	1.335394	-1.286785	-0.886808	1.845654	3.588584	-2.290731	-0.057645	0.839300	3.555580	2.441600	-0.816831	0.072143	0.560179	-1.000000	-1.000000	-1.000000	-1.000000	-1.000000	-1.000000	-1.000000	58.000000	0.000000	-1.000000	-1.000000	1891455.000000	1776580185.273696
-7612.155000	-15498.495000	30326.220000	55759.635000	47619.765000	32821.200000	-4496.445000	-13977.495000	-3.512911	-2.548617	-0.730260	6.433279	13.547823	9.008339	-6.011441	-4.940727	0.839300	3.555580	2.441600	-0.816831	0.072143	0.560179	-1.000000	-1.000000	-1.000000	-1.000000	-1.000000	-1.000000	-1.000000	58.000000	0.000000	-1.000000	-1.000000	1891456.000000	1776580185.277765
-7611.705000	-15501.915000	30317.085000	55741.365000	47604.555000	32811.660000	-4492.215000	-13974.615000	-5.351333	-4.015276	0.466295	9.825918	17.741462	9.660858	-6.743446	-6.316775	0.839300	3.555580	2.441600	-0.816831	0.072143	0.560179	-1.000000	-1.000000	-1.000000	-1.000000	-1.000000	-1.000000	-1.000000	58.000000	0.000000	-1.000000	-1.000000	1891457.000000	1776580185.277778
-7613.280000	-15502.230000	30312.315000	55723.680000	47578.905000	32790.645000	-4496.895000	-13977.270000	-4.090448	-3.171072	0.705573	6.578305	11.643939	4.863975	-3.868407	-3.589754	0.839300	3.555580	2.441600	-0.816831	0.072143	0.560179	-1.000000	-1.000000	-1.000000	-1.000000	-1.000000	-1.000000	-1.000000	58.000000	0.000000	-1.000000	-1.000000	1891458.000000	1776580185.281665
-7609.545000	-15499.080000	30312.270000	55718.595000	47565.225000	32776.155000	-4496.985000	-13971.600000	-1.398044	-1.535281	-0.725192	-1.907883	-1.969612	-3.954412	0.396169	0.628046	0.839300	3.555580	2.441600	-0.816831	0.072143	0.560179	-1.000000	-1.000000	-1.000000	-1.000000	-1.000000	-1.000000	-1.000000	58.000000	0.000000	-1.000000	-1.000000	1891459.000000	1776580185.281680
-7602.930000	-15492.780000	30316.635000	55722.285000	47569.005000	32776.110000	-4496.265000	-13965.120000	0.945000	-0.151295	-2.534938	-9.980671	-15.321138	-12.503355	3.292425	3.541848	0.839300	3.555580	2.441600	-0.816831	0.072143	0.560179	-1.000000	-1.000000	-1.000000	-1.000000	-1.000000	-1.000000	-1.000000	58.000000	0.000000	-1.000000	-1.000000	1891460.000000	1776580185.285760
-7607.475000	-15494.895000	30317.670000	55728.900000	47578.545000	32786.505000	-4497.705000	-13971.690000	2.207909	0.819804	-2.812217	-11.842136	-20.026440	-15.218105	3.864200	4.140439	0.839300	3.555580	2.441600	-0.816831	0.072143	0.560179	-1.000000	-1.000000	-1.000000	-1.000000	-1.000000	-1.000000	-1.000000	58.000000	0.000000	-1.000000	-1.000000	1891461.000000	1776580185.285779
-7615.845000	-15502.140000	30317.670000	55741.905000	47596.905000	32807.205000	-4498.785000	-13981.905000	1.901220	1.013223	-1.159141	-6.059306	-12.960719	-9.212653	2.691453	2.270834	0.549360	3.662400	2.746800	-0.816587	0.075622	0.560484	-1.000000	-1.000000	-1.000000	-1.000000	-1.000000	-1.000000	-1.000000	58.000000	0.000000	-1.000000	-1.000000	1891462.000000	1776580185.292953
-7620.570000	-15506.730000	30320.010000	55756.845000	47625.480000	32833.395000	-4501.575000	-13985.100000	-0.164663	-0.098029	1.185483	4.003350	2.029022	3.362221	0.813738	-1.493607	0.549360	3.662400	2.746800	-0.816587	0.075622	0.560484	-1.000000	-1.000000	-1.000000	-1.000000	-1.000000	-1.000000	-1.000000	58.000000	0.000000	-1.000000	-1.000000	1891463.000000	1776580185.292968
-7613.730000	-15499.395000	30320.055000	55752.480000	47623.995000	32829.705000	-4499.145000	-13976.145000	-2.727389	-1.884148	2.780465	12.666234	16.872001	16.041306	-0.792142	-4.943805	0.549360	3.662400	2.746800	-0.816587	0.075622	0.560484	-1.000000	-1.000000	-1.000000	-1.000000	-1.000000	-1.000000	-1.000000	58.000000	0.000000	-1.000000	-1.000000	1891464.000000	1776580185.293763
-7610.085000	-15494.760000	30318.840000	55742.400000	47605.770000	32815.395000	-4498.695000	-13975.155000	-3.500375	-2.486748	2.919670	14.749113	22.974464	20.977684	-1.409022	-5.363515	0.549360	3.662400	2.746800	-0.816587	0.075622	0.560484	-1.000000	-1.000000	-1.000000	-1.000000	-1.000000	-1.000000	-1.000000	58.000000	0.000000	-1.000000	-1.000000	1891465.000000	1776580185.293772
-7612.605000	-15497.955000	30314.610000	55729.395000	47583.450000	32794.380000	-4501.935000	-13978.440000	-1.577108	-0.966838	1.633979	8.524750	15.828053	13.961389	-0.977063	-2.373960	0.549360	3.662400	2.746800	-0.816587	0.075622	0.560484	-1.000000	-1.000000	-1.000000	-1.000000	-1.000000	-1.000000	-1.000000	58.000000	0.000000	-1.000000	-1.000000	1891466.000000	1776580185.297759
-7610.940000	-15496.470000	30310.605000	55720.575000	47570.265000	32780.205000	-4502.970000	-13975.110000	1.507606	1.425328	-0.506315	-2.734450	-1.069858	-1.764800	-0.199669	1.680336	0.549360	3.662400	2.746800	-0.816587	0.075622	0.560484	-1.000000	-1.000000	-1.000000	-1.000000	-1.000000	-1.000000	-1.000000	58.000000	0.000000	-1.000000	-1.000000	1891467.000000	1776580185.297769
-7604.280000	-15491.340000	30313.440000	55721.835000	47572.785000	32786.415000	-4496.490000	-13967.775000	3.710356	2.946672	-2.455758	-12.634709	-17.701713	-17.035663	0.364426	4.476902	0.549360	3.662400	2.746800	-0.816587	0.075622	0.560484	-1.000000	-1.000000	-1.000000	-1.000000	-1.000000	-1.000000	-1.000000	58.000000	0.000000	-1.000000	-1.000000	1891468.000000	1776580185.301900
-7606.890000	-15493.320000	30313.755000	55725.660000	47581.470000	32795.460000	-4498.695000	-13971.330000	4.221900	3.041716	-3.026473	-15.665280	-24.178986	-22.678126	0.822025	5.266416	0.549360	3.662400	2.746800	-0.816587	0.075622	0.560484	-1.000000	-1.000000	-1.000000	-1.000000	-1.000000	-1.000000	-1.000000	58.000000	0.000000	-1.000000	-1.000000	1891469.000000	1776580185.301922
-7612.740000	-15498.135000	30310.830000	55731.960000	47591.595000	32801.535000	-4508.190000	-13978.980000	2.975576	1.854816	-1.887697	-10.520218	-17.255049	-15.762091	0.991351	3.925928	0.549360	3.662400	2.746800	-0.816587	0.075622	0.560484	-1.000000	-1.000000	-1.000000	-1.000000	-1.000000	-1.000000	-1.000000	58.000000	0.000000	-1.000000	-1.000000	1891470.000000	1776580185.305732
-7613.055000	-15494.625000	30316.905000	55747.800000	47613.780000	32824.530000	-4501.845000	-13976.145000	0.279367	-0.194758	0.132502	-0.336951	-1.559502	-0.975371	0.343538	0.777661	0.549360	3.662400	2.746800	-0.816587	0.075622	0.560484	-1.000000	-1.000000	-1.000000	-1.000000	-1.000000	-1.000000	-1.000000	58.000000	0.000000	-1.000000	-1.000000	1891471.000000	1776580185.305744
