Channel1	Channel2	Channel3	Channel4	Channel5	Channel6	Channel7	Channel8	FilteredChannel1	FilteredChannel2	FilteredChannel3	FilteredChannel4	FilteredChannel5	FilteredChannel6	FilteredChannel7	FilteredChannel8	GyroX	GyroY	GyroZ	AccX	AccY	AccZ	PPG1	PPG2	rawPPG1	rawPPG2	rawPPG3	Hr	Hrv	Battery	Trigger	PhysicalTrigger	AutoTrigger	NumMeasurements	Timestamp
87975.675000	66320.640000	86420.925000	56334.015000	64849.995000	13794.750000	37038.510000	86938.695000	-3.304191	-2.252051	-0.219286	-0.160688	12.809317	3.971665	-2.022676	-2.176957	-2.975700	-2.258480	0.885080	-0.574156	0.234924	0.771971	-1.000000	-1.000000	-1.000000	-1.000000	-1.000000	-1.000000	-1.000000	62.000000	0.000000	-1.000000	-1.000000	1247843.000000	1775724101.683665
87974.730000	66320.055000	86419.755000	56332.485000	64846.530000	13792.680000	37040.400000	86940.270000	0.032476	1.224055	3.166923	4.293199	20.851290	16.515289	1.980919	1.126157	-2.975700	-2.258480	0.885080	-0.574156	0.234924	0.771971	-1.000000	-1.000000	-1.000000	-1.000000	-1.000000	-1.000000	-1.000000	62.000000	0.000000	-1.000000	-1.000000	1247844.000000	1775724101.683674
87965.100000	66306.510000	86405.355000	56314.935000	64813.410000	13748.895000	37037.925000	86935.455000	3.110837	4.201143	5.315088	6.721535	17.563961	23.524630	5.317842	4.046237	-2.975700	-2.258480	0.885080	-0.574156	0.234924	0.771971	-1.000000	-1.000000	-1.000000	-1.000000	-1.000000	-1.000000	-1.000000	62.000000	0.000000	-1.000000	-1.000000	1247845.000000	1775724101.687756
87958.845000	66300.300000	86399.325000	56310.300000	64810.395000	13741.155000	37037.250000	86931.315000	3.863877	4.102691	4.002576	4.449366	2.974585	16.941272	5.742264	4.762846	-2.975700	-2.258480	0.885080	-0.574156	0.234924	0.771971	-1.000000	-1.000000	-1.000000	-1.000000	-1.000000	-1.000000	-1.000000	62.000000	0.000000	-1.000000	-1.000000	1247846.000000	1775724101.687775
87965.595000	66307.005000	86405.175000	56316.735000	64815.840000	13766.130000	37035.585000	86933.835000	2.175016	1.002656	-0.154769	-1.210828	-14.365789	0.014442	3.076303	2.943094	-2.975700	-2.258480	0.885080	-0.574156	0.234924	0.771971	-1.000000	-1.000000	-1.000000	-1.000000	-1.000000	-1.000000	-1.000000	62.000000	0.000000	-1.000000	-1.000000	1247847.000000	1775724101.687797
87972.210000	66314.070000	86407.785000	56317.905000	64816.380000	13781.790000	37038.240000	86934.870000	0.245590	-1.994520	-3.712548	-5.730145	-23.620249	-14.358208	-0.852669	0.139404	-2.975700	-2.258480	0.885080	-0.574156	0.234924	0.771971	-1.000000	-1.000000	-1.000000	-1.000000	-1.000000	-1.000000	-1.000000	62.000000	0.000000	-1.000000	-1.000000	1247848.000000	1775724101.687806
87966.945000	66307.905000	86398.425000	56306.070000	64798.200000	13757.985000	37041.525000	86932.485000	-0.021112	-2.312475	-4.178090	-6.207929	-20.638088	-17.367280	-3.682579	-1.802566	-2.975700	-2.258480	0.885080	-0.574156	0.234924	0.771971	-1.000000	-1.000000	-1.000000	-1.000000	-1.000000	-1.000000	-1.000000	62.000000	0.000000	-1.000000	-1.000000	1247849.000000	1775724101.705612
87975.270000	66314.520000	86408.415000	56314.260000	64806.165000	13749.930000	37043.685000	86938.920000	0.968300	-0.474155	-2.126232	-3.555173	-9.724714	-11.833942	-4.084628	-2.190180	-2.975700	-2.258480	0.885080	-0.574156	0.234924	0.771971	-1.000000	-1.000000	-1.000000	-1.000000	-1.000000	-1.000000	-1.000000	62.000000	0.000000	-1.000000	-1.000000	1247850.000000	1775724101.705631
87973.605000	66315.375000	86412.555000	56324.610000	64832.670000	13795.560000	37046.700000	86938.020000	1.812409	1.554887	0.815297	0.292367	2.946931	-4.294078	-2.409991	-1.297329	-2.914660	0.976640	1.480220	-0.568663	0.230102	0.777098	-1.000000	-1.000000	-1.000000	-1.000000	-1.000000	-1.000000	-1.000000	62.000000	0.000000	-1.000000	-1.000000	1247851.000000	1775724101.705652
87971.355000	66311.865000	86408.370000	56321.235000	64823.535000	13769.865000	37044.270000	86936.445000	1.599233	2.418739	3.338368	4.073106	13.453248	2.712348	-0.130563	0.003298	-2.914660	0.976640	1.480220	-0.568663	0.230102	0.777098	-1.000000	-1.000000	-1.000000	-1.000000	-1.000000	-1.000000	-1.000000	62.000000	0.000000	-1.000000	-1.000000	1247852.000000	1775724101.705661
87970.320000	66311.280000	86405.670000	56314.845000	64802.880000	13716.135000	37040.355000	86934.735000	0.093183	1.602877	4.044543	6.065627	18.021695	6.350435	1.185038	0.628824	-2.914660	0.976640	1.480220	-0.568663	0.230102	0.777098	-1.000000	-1.000000	-1.000000	-1.000000	-1.000000	-1.000000	-1.000000	62.000000	0.000000	-1.000000	-1.000000	1247853.000000	1775724101.705671
87966.135000	66307.005000	86400.000000	56308.770000	64803.420000	13766.535000	37044.450000	86932.080000	-2.094362	-0.464277	2.258709	4.686111	13.921980	3.586999	0.944338	0.153617	-2.914660	0.976640	1.480220	-0.568663	0.230102	0.777098	-1.000000	-1.000000	-1.000000	-1.000000	-1.000000	-1.000000	-1.000000	62.000000	0.000000	-1.000000	-1.000000	1247854.000000	1775724101.705679
87966.810000	66307.095000	86400.090000	56309.085000	64814.940000	13817.925000	37050.795000	86934.240000	-3.816054	-2.593864	-1.007496	0.568891	4.043293	-0.314029	0.083031	-0.873040	-2.914660	0.976640	1.480220	-0.568663	0.230102	0.777098	-1.000000	-1.000000	-1.000000	-1.000000	-1.000000	-1.000000	-1.000000	62.000000	0.000000	-1.000000	-1.000000	1247855.000000	1775724101.705689
87970.545000	66311.055000	86403.420000	56310.660000	64795.410000	13769.910000	37047.555000	86935.365000	-4.025237	-3.504353	-3.632339	-3.523693	-5.014478	1.831900	-0.133026	-1.444228	-2.914660	0.976640	1.480220	-0.568663	0.230102	0.777098	-1.000000	-1.000000	-1.000000	-1.000000	-1.000000	-1.000000	-1.000000	62.000000	0.000000	-1.000000	-1.000000	1247856.000000	1775724101.705697
87970.410000	66312.765000	86400.585000	56307.555000	64764.315000	13751.010000	37045.305000	86932.845000	-2.376238	-2.509932	-3.991796	-5.100348	-10.032456	5.919258	0.234540	-1.037372	-2.914660	0.976640	1.480220	-0.568663	0.230102	0.777098	-1.000000	-1.000000	-1.000000	-1.000000	-1.000000	-1.000000	-1.000000	62.000000	0.000000	-1.000000	-1.000000	1247857.000000	1775724101.707153
87963.660000	66308.445000	86395.500000	56309.445000	64783.755000	13758.615000	37045.530000	86926.545000	0.162329	-0.235283	-2.347681	-3.809746	-11.564090	3.880489	0.291519	-0.196724	-2.914660	0.976640	1.480220	-0.568663	0.230102	0.777098	-1.000000	-1.000000	-1.000000	-1.000000	-1.000000	-1.000000	-1.000000	62.000000	0.000000	-1.000000	-1.000000	1247858.000000	1775724101.707166
87965.190000	66307.095000	86397.030000	56315.520000	64827.855000	13769.280000	37049.580000	86930.145000	1.929291	1.678324	-0.253919	-0.869726	-8.323756	-2.929274	-0.106140	0.250385	-2.914660	0.976640	1.480220	-0.568663	0.230102	0.777098	-1.000000	-1.000000	-1.000000	-1.000000	-1.000000	-1.000000	-1.000000	62.000000	0.000000	-1.000000	-1.000000	1247859.000000	1775724101.721663
87965.505000	66308.715000	86398.515000	56315.835000	64827.630000	13764.375000	37049.130000	86930.325000	2.249695	2.151472	1.271680	2.255194	1.303183	-7.408495	-0.326019	0.349636	-2.914660	0.976640	1.480220	-0.568663	0.230102	0.777098	-1.000000	-1.000000	-1.000000	-1.000000	-1.000000	-1.000000	-1.000000	62.000000	0.000000	-1.000000	-1.000000	1247860.000000	1775724101.721684
87966.540000	66311.010000	86399.010000	56312.460000	64811.295000	13758.075000	37049.805000	86930.910000	1.752228	1.551132	2.171463	4.127201	12.324362	-6.564918	-0.069823	0.642005	0.717220	3.418240	-0.106820	-0.566466	0.226623	0.779905	-1.000000	-1.000000	-1.000000	-1.000000	-1.000000	-1.000000	-1.000000	62.000000	0.000000	-1.000000	-1.000000	1247861.000000	1775724101.729698
87963.075000	66306.285000	86394.105000	56308.455000	64807.785000	13756.545000	37050.165000	86926.680000	1.140560	0.744434	2.427351	3.679080	15.836350	-2.706155	0.334343	1.078376	0.717220	3.418240	-0.106820	-0.566466	0.226623	0.779905	-1.000000	-1.000000	-1.000000	-1.000000	-1.000000	-1.000000	-1.000000	62.000000	0.000000	-1.000000	-1.000000	1247862.000000	1775724101.729719
87966.360000	66307.680000	86396.895000	56309.490000	64809.675000	13753.890000	37051.380000	86928.795000	0.595141	0.041159	1.851338	1.180149	9.058613	0.991206	0.523421	1.146337	0.717220	3.418240	-0.106820	-0.566466	0.226623	0.779905	-1.000000	-1.000000	-1.000000	-1.000000	-1.000000	-1.000000	-1.000000	62.000000	0.000000	-1.000000	-1.000000	1247863.000000	1775724101.729741
87970.995000	66311.820000	86400.180000	56311.155000	64806.075000	13740.120000	37052.145000	86931.720000	0.279231	-0.436787	0.794578	-1.656445	-2.476579	2.839520	0.440419	0.795301	0.717220	3.418240	-0.106820	-0.566466	0.226623	0.779905	-1.000000	-1.000000	-1.000000	-1.000000	-1.000000	-1.000000	-1.000000	62.000000	0.000000	-1.000000	-1.000000	1247864.000000	1775724101.729750
87968.925000	66309.840000	86396.715000	56307.825000	64792.710000	13707.045000	37050.705000	86929.380000	0.369918	-0.415927	-0.036715	-3.117061	-11.622053	1.939564	0.173981	0.434011	0.717220	3.418240	-0.106820	-0.566466	0.226623	0.779905	-1.000000	-1.000000	-1.000000	-1.000000	-1.000000	-1.000000	-1.000000	62.000000	0.000000	-1.000000	-1.000000	1247865.000000	1775724101.729761
87963.030000	66306.420000	86394.240000	56307.330000	64788.930000	13694.445000	37048.950000	86925.915000	0.392656	-0.116304	-0.563752	-2.859590	-14.920394	-1.721753	-0.250529	0.087793	0.717220	3.418240	-0.106820	-0.566466	0.226623	0.779905	-1.000000	-1.000000	-1.000000	-1.000000	-1.000000	-1.000000	-1.000000	62.000000	0.000000	-1.000000	-1.000000	1247866.000000	1775724101.729769
87956.820000	66301.740000	86389.290000	56302.965000	64791.135000	13745.205000	37047.645000	86920.245000	-0.462826	-0.229816	-1.201230	-1.672887	-12.333749	-4.633625	-0.782304	-0.621744	0.717220	3.418240	-0.106820	-0.566466	0.226623	0.779905	-1.000000	-1.000000	-1.000000	-1.000000	-1.000000	-1.000000	-1.000000	62.000000	0.000000	-1.000000	-1.000000	1247867.000000	1775724101.729779
87958.575000	66305.160000	86393.925000	56311.875000	64817.775000	13797.495000	37055.295000	86921.595000	-2.059409	-0.879139	-1.878066	-0.291961	-5.022529	-0.334844	-1.029882	-1.635062	0.717220	3.418240	-0.106820	-0.566466	0.226623	0.779905	-1.000000	-1.000000	-1.000000	-1.000000	-1.000000	-1.000000	-1.000000	62.000000	0.000000	-1.000000	-1.000000	1247868.000000	1775724101.729788
87966.270000	66313.305000	86400.495000	56319.120000	64826.190000	13783.995000	37065.735000	86933.070000	-2.927801	-1.131857	-1.752996	1.298216	5.035076	11.850606	-0.263300	-1.956246	0.717220	3.418240	-0.106820	-0.566466	0.226623	0.779905	-1.000000	-1.000000	-1.000000	-1.000000	-1.000000	-1.000000	-1.000000	62.000000	0.000000	-1.000000	-1.000000	1247869.000000	1775724101.737556
87962.805000	66305.520000	86388.435000	56302.695000	64795.050000	13752.270000	37064.745000	86933.475000	-1.809022	-0.233306	-0.481949	2.785236	13.251315	21.338074	1.589990	-0.570909	0.717220	3.418240	-0.106820	-0.566466	0.226623	0.779905	-1.000000	-1.000000	-1.000000	-1.000000	-1.000000	-1.000000	-1.000000	62.000000	0.000000	-1.000000	-1.000000	1247870.000000	1775724101.737575
87960.510000	66303.810000	86384.250000	56296.890000	64779.030000	13721.445000	37055.250000	86928.030000	0.577892	0.980122	0.666249	2.585633	13.596232	16.278391	2.952491	1.761848	2.731540	5.371520	-0.991900	-0.567564	0.230468	0.778135	-1.000000	-1.000000	-1.000000	-1.000000	-1.000000	-1.000000	-1.000000	62.000000	0.000000	-1.000000	-1.000000	1247871.000000	1775724101.737596
87959.385000	66305.790000	86383.260000	56296.890000	64778.535000	13707.315000	37053.270000	86923.035000	2.305024	1.236951	0.457124	0.056750	5.110153	-2.857713	1.922573	2.809127	2.731540	5.371520	-0.991900	-0.567564	0.230468	0.778135	-1.000000	-1.000000	-1.000000	-1.000000	-1.000000	-1.000000	-1.000000	62.000000	0.000000	-1.000000	-1.000000	1247872.000000	1775724101.737605
87962.985000	66309.705000	86388.075000	56303.280000	64794.330000	13733.145000	37057.320000	86923.935000	2.453946	0.675919	-0.419678	-2.701631	-5.364073	-22.829786	-1.134395	1.477648	2.731540	5.371520	-0.991900	-0.567564	0.230468	0.778135	-1.000000	-1.000000	-1.000000	-1.000000	-1.000000	-1.000000	-1.000000	62.000000	0.000000	-1.000000	-1.000000	1247873.000000	1775724101.740642
87967.035000	66314.835000	86395.860000	56314.665000	64819.395000	13746.330000	37059.165000	86925.150000	1.684477	0.342371	-0.306653	-2.901329	-9.303764	-29.044648	-3.675513	-0.966428	2.731540	5.371520	-0.991900	-0.567564	0.230468	0.778135	-1.000000	-1.000000	-1.000000	-1.000000	-1.000000	-1.000000	-1.000000	62.000000	0.000000	-1.000000	-1.000000	1247874.000000	1775724101.740659
87965.595000	66313.980000	86395.005000	56313.045000	64818.810000	13747.635000	37061.370000	86924.475000	0.953262	0.663009	1.318510	-0.041374	-4.259961	-17.840121	-3.748702	-2.498591	2.731540	5.371520	-0.991900	-0.567564	0.230468	0.778135	-1.000000	-1.000000	-1.000000	-1.000000	-1.000000	-1.000000	-1.000000	62.000000	0.000000	-1.000000	-1.000000	1247875.000000	1775724101.751635
87957.585000	66304.260000	86382.630000	56297.610000	64793.250000	13759.560000	37062.495000	86922.135000	0.256169	0.835093	2.903083	3.197380	3.910402	1.788648	-1.609551	-2.331491	2.731540	5.371520	-0.991900	-0.567564	0.230468	0.778135	-1.000000	-1.000000	-1.000000	-1.000000	-1.000000	-1.000000	-1.000000	62.000000	0.000000	-1.000000	-1.000000	1247876.000000	1775724101.751654
87956.550000	66303.090000	86379.480000	56293.605000	64792.530000	13753.935000	37062.855000	86922.810000	-0.972342	-0.216707	2.295094	3.382567	6.926997	17.403304	1.068773	-1.083056	2.731540	5.371520	-0.991900	-0.567564	0.230468	0.778135	-1.000000	-1.000000	-1.000000	-1.000000	-1.000000	-1.000000	-1.000000	62.000000	0.000000	-1.000000	-1.000000	1247877.000000	1775724101.751674
87963.570000	66311.730000	86387.940000	56301.840000	64779.480000	13738.320000	37064.565000	86927.310000	-2.325137	-1.996822	-0.370370	0.339612	2.495539	21.422988	2.720379	0.402429	2.731540	5.371520	-0.991900	-0.567564	0.230468	0.778135	-1.000000	-1.000000	-1.000000	-1.000000	-1.000000	-1.000000	-1.000000	62.000000	0.000000	-1.000000	-1.000000	1247878.000000	1775724101.751683
87965.910000	66313.125000	86388.660000	56299.995000	64751.985000	13714.380000	37062.450000	86926.095000	-2.424970	-2.602052	-2.525078	-2.706981	-5.329707	13.275209	2.749605	1.667627	2.731540	5.371520	-0.991900	-0.567564	0.230468	0.778135	-1.000000	-1.000000	-1.000000	-1.000000	-1.000000	-1.000000	-1.000000	62.000000	0.000000	-1.000000	-1.000000	1247879.000000	1775724101.751694
87962.805000	66309.570000	86384.565000	56297.970000	64785.285000	13723.245000	37064.070000	86924.205000	-0.888738	-1.292484	-2.458841	-3.261091	-10.846962	-1.164203	1.496221	2.256315	2.731540	5.371520	-0.991900	-0.567564	0.230468	0.778135	-1.000000	-1.000000	-1.000000	-1.000000	-1.000000	-1.000000	-1.000000	62.000000	0.000000	-1.000000	-1.000000	1247880.000000	1775724101.751702
87961.545000	66309.210000	86384.115000	56297.610000	64796.355000	13740.390000	37067.130000	86924.385000	0.938967	0.581966	-0.995941	-1.702360	-9.115372	-12.285268	-0.099386	1.767645	-1.739640	7.294280	-0.610400	-0.569579	0.239440	0.773191	-1.000000	-1.000000	-1.000000	-1.000000	-1.000000	-1.000000	-1.000000	62.000000	0.000000	-1.000000	-1.000000	1247881.000000	1775724101.762677
87955.875000	66307.410000	86382.675000	56303.505000	64808.370000	13743.675000	37064.745000	86918.760000	1.542579	1.480459	0.283674	0.451167	0.354763	-13.219606	-1.114663	0.370380	-1.739640	7.294280	-0.610400	-0.569579	0.239440	0.773191	-1.000000	-1.000000	-1.000000	-1.000000	-1.000000	-1.000000	-1.000000	62.000000	0.000000	-1.000000	-1.000000	1247882.000000	1775724101.762697
87950.520000	66300.705000	86377.095000	56296.980000	64803.465000	13709.790000	37059.030000	86915.070000	0.555424	1.011264	0.636129	2.102592	11.394974	-5.924016	-1.465746	-1.351228	-1.739640	7.294280	-0.610400	-0.569579	0.239440	0.773191	-1.000000	-1.000000	-1.000000	-1.000000	-1.000000	-1.000000	-1.000000	62.000000	0.000000	-1.000000	-1.000000	1247883.000000	1775724101.762748
87947.910000	66298.725000	86374.080000	56290.905000	64793.205000	13707.045000	37058.085000	86912.820000	-1.219620	-0.346991	0.094240	2.390325	16.057244	1.371860	-1.673519	-2.698012	-1.739640	7.294280	-0.610400	-0.569579	0.239440	0.773191	-1.000000	-1.000000	-1.000000	-1.000000	-1.000000	-1.000000	-1.000000	62.000000	0.000000	-1.000000	-1.000000	1247884.000000	1775724101.762758
87953.535000	66303.765000	86378.355000	56291.670000	64782.720000	13736.970000	37064.115000	86917.500000	-2.292210	-1.504609	-0.668306	1.029023	11.014906	4.131775	-1.683197	-2.867260	-1.739640	7.294280	-0.610400	-0.569579	0.239440	0.773191	-1.000000	-1.000000	-1.000000	-1.000000	-1.000000	-1.000000	-1.000000	62.000000	0.000000	-1.000000	-1.000000	1247885.000000	1775724101.765017
87958.395000	66308.310000	86383.170000	56296.755000	64789.470000	13734.090000	37069.110000	86921.865000	-1.400457	-1.210441	-0.561899	-0.808311	-0.196547	4.878401	-0.747719	-1.327969	-1.739640	7.294280	-0.610400	-0.569579	0.239440	0.773191	-1.000000	-1.000000	-1.000000	-1.000000	-1.000000	-1.000000	-1.000000	62.000000	0.000000	-1.000000	-1.000000	1247886.000000	1775724101.765034
87953.130000	66303.360000	86378.625000	56295.810000	64815.165000	13723.110000	37069.830000	86917.635000	1.155821	0.598743	0.726226	-1.454710	-9.682639	5.852589	1.231089	1.335860	-1.739640	7.294280	-0.610400	-0.569579	0.239440	0.773191	-1.000000	-1.000000	-1.000000	-1.000000	-1.000000	-1.000000	-1.000000	62.000000	0.000000	-1.000000	-1.000000	1247887.000000	1775724101.772959
87949.305000	66300.480000	86376.060000	56296.260000	64821.510000	13713.255000	37065.960000	86911.875000	3.331397	2.327577	2.018455	-0.611432	-11.212888	5.170677	2.978847	3.288178	-1.739640	7.294280	-0.610400	-0.569579	0.239440	0.773191	-1.000000	-1.000000	-1.000000	-1.000000	-1.000000	-1.000000	-1.000000	62.000000	0.000000	-1.000000	-1.000000	1247888.000000	1775724101.772978
87957.945000	66307.185000	86381.280000	56293.470000	64783.035000	13672.980000	37067.040000	86917.635000	3.504731	2.562448	2.094726	0.610979	-6.126211	0.689683	3.031420	3.147212	-1.739640	7.294280	-0.610400	-0.569579	0.239440	0.773191	-1.000000	-1.000000	-1.000000	-1.000000	-1.000000	-1.000000	-1.000000	62.000000	0.000000	-1.000000	-1.000000	1247889.000000	1775724101.775002
87958.710000	66307.230000	86380.155000	56287.755000	64770.525000	13695.210000	37072.890000	86919.660000	2.204555	1.629902	1.158651	0.981785	-1.837430	-6.242020	1.432353	1.565258	-1.739640	7.294280	-0.610400	-0.569579	0.239440	0.773191	-1.000000	-1.000000	-1.000000	-1.000000	-1.000000	-1.000000	-1.000000	62.000000	0.000000	-1.000000	-1.000000	1247890.000000	1775724101.775022
87945.975000	66298.770000	86373.180000	56293.245000	64819.395000	13786.335000	37075.005000	86908.950000	0.518348	0.383445	-0.067570	0.242081	-1.654823	-8.702964	-0.360781	-0.082906	-4.501700	6.409200	-0.579880	-0.575560	0.244384	0.767027	-1.000000	-1.000000	-1.000000	-1.000000	-1.000000	-1.000000	-1.000000	62.000000	0.000000	-1.000000	-1.000000	1247891.000000	1775724101.780497
87941.025000	66296.385000	86371.785000	56295.405000	64815.930000	13746.555000	37065.510000	86903.460000	-1.564107	-1.096529	-1.391289	-0.614902	-0.975358	-0.689152	-1.405538	-1.575363	-4.501700	6.409200	-0.579880	-0.575560	0.244384	0.767027	-1.000000	-1.000000	-1.000000	-1.000000	-1.000000	-1.000000	-1.000000	62.000000	0.000000	-1.000000	-1.000000	1247892.000000	1775724101.780517
87945.210000	66296.520000	86369.175000	56287.980000	64799.370000	13736.520000	37069.920000	86908.455000	-3.730572	-2.589946	-2.539292	-0.688839	2.927065	11.169745	-2.021236	-2.890231	-4.501700	6.409200	-0.579880	-0.575560	0.244384	0.767027	-1.000000	-1.000000	-1.000000	-1.000000	-1.000000	-1.000000	-1.000000	62.000000	0.000000	-1.000000	-1.000000	1247893.000000	1775724101.780537
87951.285000	66300.120000	86372.235000	56286.810000	64791.945000	13735.440000	37075.455000	86915.160000	-4.315620	-3.087738	-2.789669	-0.399128	5.877567	14.053908	-2.257119	-2.921795	-4.501700	6.409200	-0.579880	-0.575560	0.244384	0.767027	-1.000000	-1.000000	-1.000000	-1.000000	-1.000000	-1.000000	-1.000000	62.000000	0.000000	-1.000000	-1.000000	1247894.000000	1775724101.780546
87949.260000	66299.895000	86375.970000	56293.245000	64793.340000	13717.215000	37070.235000	86910.840000	-2.281004	-1.894268	-1.602019	-0.295631	4.270875	5.016849	-1.596980	-0.969088	-4.501700	6.409200	-0.579880	-0.575560	0.244384	0.767027	-1.000000	-1.000000	-1.000000	-1.000000	-1.000000	-1.000000	-1.000000	62.000000	0.000000	-1.000000	-1.000000	1247895.000000	1775724101.788833
87950.160000	66300.660000	86377.905000	56294.100000	64802.610000	13726.485000	37072.620000	86912.055000	1.109172	0.386051	0.726853	0.024596	0.081162	-8.453034	-0.339017	1.705267	-4.501700	6.409200	-0.579880	-0.575560	0.244384	0.767027	-1.000000	-1.000000	-1.000000	-1.000000	-1.000000	-1.000000	-1.000000	62.000000	0.000000	-1.000000	-1.000000	1247896.000000	1775724101.788851
87951.330000	66300.660000	86375.475000	56290.545000	64800.720000	13718.970000	37075.995000	86914.485000	3.603485	2.357053	2.931648	0.752536	-2.591435	-17.153229	0.743319	3.245919	-4.501700	6.409200	-0.579880	-0.575560	0.244384	0.767027	-1.000000	-1.000000	-1.000000	-1.000000	-1.000000	-1.000000	-1.000000	62.000000	0.000000	-1.000000	-1.000000	1247897.000000	1775724101.797415
87951.105000	66299.355000	86373.360000	56291.400000	64794.510000	13710.105000	37075.995000	86912.280000	4.014971	2.979826	3.553996	1.176211	-2.336610	-16.761076	1.407407	3.022099	-4.501700	6.409200	-0.579880	-0.575560	0.244384	0.767027	-1.000000	-1.000000	-1.000000	-1.000000	-1.000000	-1.000000	-1.000000	62.000000	0.000000	-1.000000	-1.000000	1247898.000000	1775724101.797434
87952.410000	66301.740000	86374.530000	56292.930000	64785.105000	13700.790000	37075.050000	86912.775000	2.606798	2.169691	2.202691	0.828502	-0.961036	-9.543227	1.575732	1.481801	-4.501700	6.409200	-0.579880	-0.575560	0.244384	0.767027	-1.000000	-1.000000	-1.000000	-1.000000	-1.000000	-1.000000	-1.000000	62.000000	0.000000	-1.000000	-1.000000	1247899.000000	1775724101.797455
87950.430000	66300.615000	86371.650000	56289.735000	64786.275000	13707.945000	37075.590000	86910.435000	0.392841	0.648173	-0.137923	0.036847	-0.419465	-0.367017	1.106355	-0.535049	-4.501700	6.409200	-0.579880	-0.575560	0.244384	0.767027	-1.000000	-1.000000	-1.000000	-1.000000	-1.000000	-1.000000	-1.000000	62.000000	0.000000	-1.000000	-1.000000	1247900.000000	1775724101.797464
87948.045000	66297.780000	86368.410000	56287.755000	64785.960000	13713.795000	37077.030000	86908.410000	-1.655211	-0.799090	-2.170151	-0.794952	-0.622313	7.519234	0.217556	-2.196905	-2.807840	4.242280	-0.869820	-0.582091	0.242248	0.761656	-1.000000	-1.000000	-1.000000	-1.000000	-1.000000	-1.000000	-1.000000	62.000000	0.000000	-1.000000	-1.000000	1247901.000000	1775724101.797474
87948.945000	66297.105000	86370.030000	56290.050000	64790.010000	13711.905000	37078.425000	86909.895000	-2.925376	-1.817140	-3.122792	-1.390610	-0.299930	12.597384	-0.533936	-2.936380	-2.807840	4.242280	-0.869820	-0.582091	0.242248	0.761656	-1.000000	-1.000000	-1.000000	-1.000000	-1.000000	-1.000000	-1.000000	62.000000	0.000000	-1.000000	-1.000000	1247902.000000	1775724101.797482
87946.155000	66294.810000	86367.510000	56287.620000	64788.570000	13695.075000	37078.200000	86909.085000	-3.095165	-2.256646	-2.739454	-1.410823	1.062449	13.395225	-0.780224	-2.504736	-2.807840	4.242280	-0.869820	-0.582091	0.242248	0.761656	-1.000000	-1.000000	-1.000000	-1.000000	-1.000000	-1.000000	-1.000000	62.000000	0.000000	-1.000000	-1.000000	1247903.000000	1775724101.800298
87944.445000	66293.235000	86366.160000	56284.605000	64777.635000	13684.770000	37079.145000	86909.355000	-2.281761	-2.043158	-1.354220	-0.874968	2.446729	8.954658	-0.608706	-1.144938	-2.807840	4.242280	-0.869820	-0.582091	0.242248	0.761656	-1.000000	-1.000000	-1.000000	-1.000000	-1.000000	-1.000000	-1.000000	62.000000	0.000000	-1.000000	-1.000000	1247904.000000	1775724101.800318
87946.380000	66294.360000	86364.720000	56280.105000	64753.020000	13712.895000	37081.035000	86910.885000	-0.944670	-1.244551	0.230345	-0.314632	1.917502	1.580209	-0.278409	0.477958	-2.807840	4.242280	-0.869820	-0.582091	0.242248	0.761656	-1.000000	-1.000000	-1.000000	-1.000000	-1.000000	-1.000000	-1.000000	62.000000	0.000000	-1.000000	-1.000000	1247905.000000	1775724101.806998
87952.410000	66301.290000	86367.195000	56282.310000	64770.345000	13717.935000	37080.360000	86911.875000	0.640825	0.093775	1.405072	-0.062927	-0.924789	-3.393881	0.039805	1.739989	-2.807840	4.242280	-0.869820	-0.582091	0.242248	0.761656	-1.000000	-1.000000	-1.000000	-1.000000	-1.000000	-1.000000	-1.000000	62.000000	0.000000	-1.000000	-1.000000	1247906.000000	1775724101.807016
87952.365000	66301.470000	86367.825000	56287.080000	64812.735000	13707.900000	37080.810000	86910.930000	2.291404	1.816917	2.071066	0.271519	-2.444842	-3.406404	0.197575	2.256196	-2.807840	4.242280	-0.869820	-0.582091	0.242248	0.761656	-1.000000	-1.000000	-1.000000	-1.000000	-1.000000	-1.000000	-1.000000	62.000000	0.000000	-1.000000	-1.000000	1247907.000000	1775724101.809473
87953.535000	66303.540000	86370.930000	56291.940000	64805.940000	13692.510000	37078.830000	86908.905000	3.378388	3.207090	2.330894	1.257738	1.234071	-1.672301	0.077685	1.840167	-2.807840	4.242280	-0.869820	-0.582091	0.242248	0.761656	-1.000000	-1.000000	-1.000000	-1.000000	-1.000000	-1.000000	-1.000000	62.000000	0.000000	-1.000000	-1.000000	1247908.000000	1775724101.809489
87944.085000	66296.970000	86363.730000	56287.755000	64797.840000	13713.795000	37078.110000	86898.735000	2.996847	3.225560	2.055113	2.560345	7.289595	-1.782919	-0.288096	0.474175	-2.807840	4.242280	-0.869820	-0.582091	0.242248	0.761656	-1.000000	-1.000000	-1.000000	-1.000000	-1.000000	-1.000000	-1.000000	62.000000	0.000000	-1.000000	-1.000000	1247909.000000	1775724101.820497
87939.000000	66289.995000	86356.215000	56277.135000	64784.250000	13731.435000	37077.120000	86894.955000	0.760602	1.326373	0.795684	2.748858	8.594310	-2.552199	-0.686977	-1.572725	-2.807840	4.242280	-0.869820	-0.582091	0.242248	0.761656	-1.000000	-1.000000	-1.000000	-1.000000	-1.000000	-1.000000	-1.000000	62.000000	0.000000	-1.000000	-1.000000	1247910.000000	1775724101.820516
87948.810000	66298.905000	86365.395000	56283.120000	64789.515000	13718.565000	37080.810000	86902.020000	-2.215574	-1.655963	-1.235479	0.933502	2.626378	-1.404529	-0.754317	-3.204054	-0.595140	1.922760	-0.946120	-0.586119	0.239196	0.756956	-1.000000	-1.000000	-1.000000	-1.000000	-1.000000	-1.000000	-1.000000	62.000000	0.000000	-1.000000	-1.000000	1247911.000000	1775724101.820538
87951.735000	66303.180000	86370.750000	56288.880000	64786.185000	13704.525000	37082.970000	86905.305000	-3.576769	-3.498488	-2.414075	-1.533347	-6.146174	0.254069	-0.174151	-2.809384	-0.595140	1.922760	-0.946120	-0.586119	0.239196	0.756956	-1.000000	-1.000000	-1.000000	-1.000000	-1.000000	-1.000000	-1.000000	62.000000	0.000000	-1.000000	-1.000000	1247912.000000	1775724101.820547
87951.870000	66302.370000	86368.320000	56286.585000	64777.185000	13691.970000	37084.995000	86907.735000	-2.187053	-2.742330	-1.523216	-2.486914	-11.765951	-0.808081	0.920730	-0.095127	-0.595140	1.922760	-0.946120	-0.586119	0.239196	0.756956	-1.000000	-1.000000	-1.000000	-1.000000	-1.000000	-1.000000	-1.000000	62.000000	0.000000	-1.000000	-1.000000	1247913.000000	1775724101.820557
87951.015000	66303.000000	86367.465000	56286.360000	64771.335000	13688.595000	37086.480000	86906.745000	0.523142	-0.371728	0.420794	-1.632610	-11.920043	-4.494484	1.881357	3.171211	-0.595140	1.922760	-0.946120	-0.586119	0.239196	0.756956	-1.000000	-1.000000	-1.000000	-1.000000	-1.000000	-1.000000	-1.000000	62.000000	0.000000	-1.000000	-1.000000	1247914.000000	1775724101.820565
87943.995000	66298.365000	86362.245000	56285.055000	64787.400000	13701.825000	37083.960000	86900.040000	2.208776	1.490969	1.450567	-0.313715	-7.470370	-7.045456	1.997882	4.628526	-0.595140	1.922760	-0.946120	-0.586119	0.239196	0.756956	-1.000000	-1.000000	-1.000000	-1.000000	-1.000000	-1.000000	-1.000000	62.000000	0.000000	-1.000000	-1.000000	1247915.000000	1775724101.826629
87938.370000	66290.940000	86355.720000	56282.310000	64799.595000	13723.380000	37087.020000	86898.825000	1.607705	1.482009	0.642152	0.325849	0.041368	-4.577987	1.054291	3.192262	-0.595140	1.922760	-0.946120	-0.586119	0.239196	0.756956	-1.000000	-1.000000	-1.000000	-1.000000	-1.000000	-1.000000	-1.000000	62.000000	0.000000	-1.000000	-1.000000	1247916.000000	1775724101.826645
87942.285000	66293.415000	86356.395000	56277.585000	64768.815000	13696.425000	37085.355000	86903.415000	-0.586003	-0.192336	-1.345971	0.004272	7.593352	2.448040	-0.426981	0.001306	-0.595140	1.922760	-0.946120	-0.586119	0.239196	0.756956	-1.000000	-1.000000	-1.000000	-1.000000	-1.000000	-1.000000	-1.000000	62.000000	0.000000	-1.000000	-1.000000	1247917.000000	1775724101.829054
87947.910000	66300.480000	86362.695000	56283.165000	64773.090000	13679.145000	37082.475000	86904.495000	-2.182889	-1.765517	-2.703858	-0.751020	10.521317	8.087334	-1.708632	-2.521643	-0.595140	1.922760	-0.946120	-0.586119	0.239196	0.756956	-1.000000	-1.000000	-1.000000	-1.000000	-1.000000	-1.000000	-1.000000	62.000000	0.000000	-1.000000	-1.000000	1247918.000000	1775724101.829070
87954.120000	66307.860000	86369.130000	56289.600000	64790.595000	13678.605000	37087.110000	86907.780000	-1.464659	-1.345685	-1.832790	-0.803863	7.680966	7.218926	-2.327442	-2.882933	-0.595140	1.922760	-0.946120	-0.586119	0.239196	0.756956	-1.000000	-1.000000	-1.000000	-1.000000	-1.000000	-1.000000	-1.000000	62.000000	0.000000	-1.000000	-1.000000	1247919.000000	1775724101.831935
87954.660000	66305.970000	86370.885000	56297.205000	64825.605000	13725.045000	37098.180000	86909.985000	1.135380	1.037073	1.053742	0.607566	3.784908	2.428761	-1.769176	-1.434554	-0.595140	1.922760	-0.946120	-0.586119	0.239196	0.756956	-1.000000	-1.000000	-1.000000	-1.000000	-1.000000	-1.000000	-1.000000	62.000000	0.000000	-1.000000	-1.000000	1247920.000000	1775724101.831955
87942.960000	66292.020000	86358.555000	56286.630000	64810.845000	13750.335000	37096.380000	86902.380000	3.270403	3.047775	3.681702	2.596271	3.001768	1.060730	0.129776	0.312347	-1.236060	-0.503580	-2.166920	-0.590208	0.238281	0.756163	-1.000000	-1.000000	-1.000000	-1.000000	-1.000000	-1.000000	-1.000000	62.000000	0.000000	-1.000000	-1.000000	1247921.000000	1775724101.838910
87934.320000	66282.255000	86344.785000	56264.085000	64746.180000	13697.910000	37083.465000	86893.830000	2.598782	2.155266	3.359129	2.663968	2.280684	4.474533	1.941316	0.690105	-1.236060	-0.503580	-2.166920	-0.590208	0.238281	0.756163	-1.000000	-1.000000	-1.000000	-1.000000	-1.000000	-1.000000	-1.000000	62.000000	0.000000	-1.000000	-1.000000	1247922.000000	1775724101.838928
87945.345000	66294.945000	86356.035000	56271.870000	64750.365000	13687.335000	37090.530000	86903.280000	-0.624926	-1.251025	-0.097701	-0.529577	-4.138716	5.115584	1.747818	-0.574918	-1.236060	-0.503580	-2.166920	-0.590208	0.238281	0.756163	-1.000000	-1.000000	-1.000000	-1.000000	-1.000000	-1.000000	-1.000000	62.000000	0.000000	-1.000000	-1.000000	1247923.000000	1775724101.842086
87937.290000	66289.185000	86352.120000	56282.085000	64802.610000	13684.050000	37089.810000	86895.495000	-3.485109	-3.849789	-3.545670	-4.299226	-12.921205	-1.860024	-0.139269	-1.870799	-1.236060	-0.503580	-2.166920	-0.590208	0.238281	0.756163	-1.000000	-1.000000	-1.000000	-1.000000	-1.000000	-1.000000	-1.000000	62.000000	0.000000	-1.000000	-1.000000	1247924.000000	1775724101.842102
87934.095000	66287.070000	86351.625000	56283.075000	64808.010000	13680.810000	37085.535000	86891.850000	-3.911299	-3.444305	-4.087532	-4.558710	-13.394255	-11.259754	-1.795921	-1.921515	-1.236060	-0.503580	-2.166920	-0.590208	0.238281	0.756163	-1.000000	-1.000000	-1.000000	-1.000000	-1.000000	-1.000000	-1.000000	62.000000	0.000000	-1.000000	-1.000000	1247925.000000	1775724101.847913
87933.285000	66287.205000	86349.060000	56273.580000	64773.135000	13668.480000	37085.445000	86890.230000	-2.384619	-0.963751	-1.937684	-1.077332	-3.510914	-15.365710	-2.237927	-1.052716	-1.236060	-0.503580	-2.166920	-0.590208	0.238281	0.756163	-1.000000	-1.000000	-1.000000	-1.000000	-1.000000	-1.000000	-1.000000	62.000000	0.000000	-1.000000	-1.000000	1247926.000000	1775724101.847932
87934.410000	66288.960000	86350.905000	56272.770000	64758.555000	13629.735000	37087.290000	86893.965000	-0.148779	1.692717	0.940083	2.643143	6.548236	-12.467943	-1.564219	0.170524	-1.236060	-0.503580	-2.166920	-0.590208	0.238281	0.756163	-1.000000	-1.000000	-1.000000	-1.000000	-1.000000	-1.000000	-1.000000	62.000000	0.000000	-1.000000	-1.000000	1247927.000000	1775724101.847954
87937.920000	66292.605000	86356.845000	56279.970000	64780.470000	13643.910000	37092.735000	86898.645000	2.026597	3.445572	3.084534	3.994202	8.653915	-5.974188	-0.035932	1.695358	-1.236060	-0.503580	-2.166920	-0.590208	0.238281	0.756163	-1.000000	-1.000000	-1.000000	-1.000000	-1.000000	-1.000000	-1.000000	62.000000	0.000000	-1.000000	-1.000000	1247928.000000	1775724101.847962
87944.580000	66299.355000	86363.910000	56290.500000	64818.315000	13743.720000	37098.630000	86900.985000	3.744698	4.097703	4.187607	3.544203	5.854392	3.385607	1.977363	3.324291	-1.236060	-0.503580	-2.166920	-0.590208	0.238281	0.756163	-1.000000	-1.000000	-1.000000	-1.000000	-1.000000	-1.000000	-1.000000	62.000000	0.000000	-1.000000	-1.000000	1247929.000000	1775724101.859197
87941.295000	66295.575000	86359.365000	56283.885000	64798.380000	13717.575000	37096.695000	86899.545000	4.589561	3.735779	4.248291	2.803504	4.673848	17.134079	3.657383	4.229822	-1.236060	-0.503580	-2.166920	-0.590208	0.238281	0.756163	-1.000000	-1.000000	-1.000000	-1.000000	-1.000000	-1.000000	-1.000000	62.000000	0.000000	-1.000000	-1.000000	1247930.000000	1775724101.859216
87939.045000	66292.110000	86355.135000	56281.050000	64794.060000	13699.935000	37098.585000	86899.545000	3.873397	2.148548	2.782658	1.704090	4.974314	28.388794	3.887918	3.504519	-1.999060	-2.594200	-0.763000	-0.588744	0.235839	0.758787	-1.000000	-1.000000	-1.000000	-1.000000	-1.000000	-1.000000	-1.000000	62.000000	0.000000	-1.000000	-1.000000	1247931.000000	1775724101.859249
87940.485000	66293.685000	86353.605000	56276.955000	64773.765000	13688.550000	37098.405000	86898.735000	1.416721	-0.588408	-0.316831	-0.504384	2.330488	25.439089	2.258151	1.168132	-1.999060	-2.594200	-0.763000	-0.588744	0.235839	0.758787	-1.000000	-1.000000	-1.000000	-1.000000	-1.000000	-1.000000	-1.000000	62.000000	0.000000	-1.000000	-1.000000	1247932.000000	1775724101.859258
87940.170000	66293.775000	86353.020000	56273.895000	64763.235000	13678.785000	37098.810000	86898.645000	-1.670010	-3.307988	-3.753972	-3.339203	-4.340362	7.258513	-0.416042	-1.692656	-1.999060	-2.594200	-0.763000	-0.588744	0.235839	0.758787	-1.000000	-1.000000	-1.000000	-1.000000	-1.000000	-1.000000	-1.000000	62.000000	0.000000	-1.000000	-1.000000	1247933.000000	1775724101.861895
87938.685000	66295.575000	86356.035000	56280.960000	64785.510000	13677.795000	37094.355000	86893.920000	-3.845045	-4.543017	-5.588183	-5.148812	-10.875666	-14.962917	-2.878439	-3.819598	-1.999060	-2.594200	-0.763000	-0.588744	0.235839	0.758787	-1.000000	-1.000000	-1.000000	-1.000000	-1.000000	-1.000000	-1.000000	62.000000	0.000000	-1.000000	-1.000000	1247934.000000	1775724101.861911
87943.095000	66300.435000	86358.690000	56281.680000	64780.965000	13686.300000	37095.705000	86896.125000	-4.284658	-3.722433	-4.759436	-4.480785	-11.644506	-28.373116	-4.256339	-4.531700	-1.999060	-2.594200	-0.763000	-0.588744	0.235839	0.758787	-1.000000	-1.000000	-1.000000	-1.000000	-1.000000	-1.000000	-1.000000	62.000000	0.000000	-1.000000	-1.000000	1247935.000000	1775724101.865041
87944.265000	66298.635000	86355.945000	56279.025000	64786.005000	13696.110000	37103.445000	86897.610000	-3.000717	-1.436868	-1.890146	-1.597238	-5.495094	-26.856405	-3.987734	-3.657507	-1.999060	-2.594200	-0.763000	-0.588744	0.235839	0.758787	-1.000000	-1.000000	-1.000000	-1.000000	-1.000000	-1.000000	-1.000000	62.000000	0.000000	-1.000000	-1.000000	1247936.000000	1775724101.865061
87944.310000	66298.770000	86357.385000	56282.445000	64794.060000	13678.785000	37104.075000	86896.845000	-0.758195	0.900523	1.186552	1.602020	3.337791	-13.734676	-1.913182	-1.522947	-1.999060	-2.594200	-0.763000	-0.588744	0.235839	0.758787	-1.000000	-1.000000	-1.000000	-1.000000	-1.000000	-1.000000	-1.000000	62.000000	0.000000	-1.000000	-1.000000	1247937.000000	1775724101.875034
87944.625000	66298.455000	86356.530000	56282.175000	64802.610000	13682.160000	37105.875000	86898.195000	1.207707	2.029369	2.918906	3.461647	10.006185	1.649665	1.020130	0.909204	-1.999060	-2.594200	-0.763000	-0.588744	0.235839	0.758787	-1.000000	-1.000000	-1.000000	-1.000000	-1.000000	-1.000000	-1.000000	62.000000	0.000000	-1.000000	-1.000000	1247938.000000	1775724101.875051
87941.520000	66296.025000	86353.650000	56282.670000	64821.960000	13719.780000	37107.990000	86896.485000	1.964346	1.693019	2.897976	3.557981	12.307614	12.202341	3.164452	2.557215	-1.999060	-2.594200	-0.763000	-0.588744	0.235839	0.758787	-1.000000	-1.000000	-1.000000	-1.000000	-1.000000	-1.000000	-1.000000	62.000000	0.000000	-1.000000	-1.000000	1247939.000000	1775724101.875071
87941.385000	66297.195000	86354.145000	56281.635000	64808.595000	13708.485000	37106.775000	86896.260000	1.385828	0.501602	1.604204	2.287983	10.233887	16.874324	3.508424	2.862965	-1.999060	-2.594200	-0.763000	-0.588744	0.235839	0.758787	-1.000000	-1.000000	-1.000000	-1.000000	-1.000000	-1.000000	-1.000000	62.000000	0.000000	-1.000000	-1.000000	1247940.000000	1775724101.875080
87940.035000	66298.230000	86356.305000	56282.310000	64800.810000	13691.520000	37106.460000	86896.530000	0.113116	-0.589237	0.049884	0.430953	4.202816	15.741044	2.130949	1.997107	-2.151660	-2.578940	-0.244160	-0.583006	0.230102	0.762022	-1.000000	-1.000000	-1.000000	-1.000000	-1.000000	-1.000000	-1.000000	62.000000	0.000000	-1.000000	-1.000000	1247941.000000	1775724101.880469
87940.305000	66297.960000	86357.025000	56283.255000	64800.855000	13692.285000	37107.720000	86897.655000	-0.926446	-0.886858	-0.771613	-1.143190	-4.328226	8.305172	-0.067562	0.687314	-2.151660	-2.578940	-0.244160	-0.583006	0.230102	0.762022	-1.000000	-1.000000	-1.000000	-1.000000	-1.000000	-1.000000	-1.000000	62.000000	0.000000	-1.000000	-1.000000	1247942.000000	1775724101.880484
87943.905000	66300.615000	86357.880000	56281.995000	64800.045000	13688.685000	37106.955000	86898.735000	-1.079438	-0.383384	-0.608640	-1.869897	-11.585220	-2.422659	-1.887776	-0.305847	-2.151660	-2.578940	-0.244160	-0.583006	0.230102	0.762022	-1.000000	-1.000000	-1.000000	-1.000000	-1.000000	-1.000000	-1.000000	62.000000	0.000000	-1.000000	-1.000000	1247943.000000	1775724101.882019
87941.745000	66298.410000	86354.280000	56276.820000	64798.470000	13679.820000	37107.585000	86897.700000	-0.296867	0.424255	-0.035954	-1.851688	-13.853782	-10.852373	-2.570062	-0.686967	-2.151660	-2.578940	-0.244160	-0.583006	0.230102	0.762022	-1.000000	-1.000000	-1.000000	-1.000000	-1.000000	-1.000000	-1.000000	62.000000	0.000000	-1.000000	-1.000000	1247944.000000	1775724101.882036
87945.120000	66301.380000	86356.035000	56276.100000	64800.135000	13679.910000	37110.105000	86899.185000	0.821010	0.964905	0.210860	-1.605014	-10.435260	-13.505581	-2.050990	-0.647313	-2.151660	-2.578940	-0.244160	-0.583006	0.230102	0.762022	-1.000000	-1.000000	-1.000000	-1.000000	-1.000000	-1.000000	-1.000000	62.000000	0.000000	-1.000000	-1.000000	1247945.000000	1775724101.883471
87943.635000	66300.975000	86356.125000	56277.360000	64800.045000	13685.310000	37111.320000	86897.520000	1.536071	0.994550	-0.007240	-1.270718	-3.538420	-10.196827	-0.714255	-0.497841	-2.151660	-2.578940	-0.244160	-0.583006	0.230102	0.762022	-1.000000	-1.000000	-1.000000	-1.000000	-1.000000	-1.000000	-1.000000	62.000000	0.000000	-1.000000	-1.000000	1247946.000000	1775724101.883487
87936.345000	66292.695000	86348.835000	56270.070000	64784.025000	13673.565000	37107.495000	86892.390000	1.338177	0.473788	-0.424353	-0.660591	3.222505	-3.191126	0.695529	-0.525687	-2.151660	-2.578940	-0.244160	-0.583006	0.230102	0.762022	-1.000000	-1.000000	-1.000000	-1.000000	-1.000000	-1.000000	-1.000000	62.000000	0.000000	-1.000000	-1.000000	1247947.000000	1775724101.888889
87939.225000	66295.530000	86352.435000	56272.770000	64789.380000	13656.510000	37108.800000	86894.595000	0.139695	-0.588763	-0.891437	0.098467	6.778689	3.379195	1.355862	-0.852152	-2.151660	-2.578940	-0.244160	-0.583006	0.230102	0.762022	-1.000000	-1.000000	-1.000000	-1.000000	-1.000000	-1.000000	-1.000000	62.000000	0.000000	-1.000000	-1.000000	1247948.000000	1775724101.888907
87937.290000	66294.900000	86352.840000	56274.930000	64796.490000	13667.490000	37110.870000	86892.615000	-1.284704	-1.600916	-1.052241	0.876258	6.941953	6.269153	1.132302	-1.111875	-2.151660	-2.578940	-0.244160	-0.583006	0.230102	0.762022	-1.000000	-1.000000	-1.000000	-1.000000	-1.000000	-1.000000	-1.000000	62.000000	0.000000	-1.000000	-1.000000	1247949.000000	1775724101.892864
87934.770000	66292.245000	86352.705000	56274.300000	64798.110000	13689.630000	37111.860000	86892.435000	-1.918045	-1.735586	-0.490444	1.745028	5.860861	6.462458	0.638514	-0.845119	-2.151660	-2.578940	-0.244160	-0.583006	0.230102	0.762022	-1.000000	-1.000000	-1.000000	-1.000000	-1.000000	-1.000000	-1.000000	62.000000	0.000000	-1.000000	-1.000000	1247950.000000	1775724101.892885
87938.235000	66293.190000	86352.525000	56271.555000	64808.010000	13713.255000	37115.775000	86895.855000	-1.474278	-0.938560	0.537400	2.351288	5.022762	7.411951	0.432908	-0.018448	0.656180	-1.922760	0.778260	-0.576292	0.226318	0.766600	-1.000000	-1.000000	-1.000000	-1.000000	-1.000000	-1.000000	-1.000000	62.000000	0.000000	-1.000000	-1.000000	1247951.000000	1775724101.897485
87937.425000	66291.210000	86346.225000	56258.415000	64794.735000	13706.910000	37117.710000	86895.630000	-0.240388	0.231429	1.230006	1.863633	4.071879	9.679063	0.605400	1.091417	0.656180	-1.922760	0.778260	-0.576292	0.226318	0.766600	-1.000000	-1.000000	-1.000000	-1.000000	-1.000000	-1.000000	-1.000000	62.000000	0.000000	-1.000000	-1.000000	1247952.000000	1775724101.897504
87934.950000	66293.235000	86351.580000	56268.135000	64797.435000	13698.855000	37118.070000	86892.255000	1.125504	1.228080	1.077495	0.100482	1.820241	9.494609	0.838902	1.902955	0.656180	-1.922760	0.778260	-0.576292	0.226318	0.766600	-1.000000	-1.000000	-1.000000	-1.000000	-1.000000	-1.000000	-1.000000	62.000000	0.000000	-1.000000	-1.000000	1247953.000000	1775724101.900573
87928.380000	66288.690000	86348.295000	56271.600000	64779.390000	13666.050000	37111.050000	86883.930000	1.683843	1.691214	0.434928	-1.466263	-2.038494	3.109992	0.532546	1.622054	0.656180	-1.922760	0.778260	-0.576292	0.226318	0.766600	-1.000000	-1.000000	-1.000000	-1.000000	-1.000000	-1.000000	-1.000000	62.000000	0.000000	-1.000000	-1.000000	1247954.000000	1775724101.900593
87929.955000	66288.105000	86348.610000	56271.195000	64781.595000	13675.095000	37111.455000	86883.975000	1.012132	1.425093	-0.068758	-1.245708	-6.196279	-8.189620	-0.672489	0.057662	0.656180	-1.922760	0.778260	-0.576292	0.226318	0.766600	-1.000000	-1.000000	-1.000000	-1.000000	-1.000000	-1.000000	-1.000000	62.000000	0.000000	-1.000000	-1.000000	1247955.000000	1775724101.913004
87929.595000	66287.565000	86347.710000	56272.185000	64779.390000	13676.310000	37114.155000	86884.605000	-0.174007	0.582964	-0.268265	0.336526	-8.383156	-17.553135	-2.123378	-1.721408	0.656180	-1.922760	0.778260	-0.576292	0.226318	0.766600	-1.000000	-1.000000	-1.000000	-1.000000	-1.000000	-1.000000	-1.000000	62.000000	0.000000	-1.000000	-1.000000	1247956.000000	1775724101.913025
87932.970000	66289.320000	86347.530000	56268.495000	64755.135000	13668.075000	37116.315000	86888.610000	-0.708799	-0.237665	-0.262347	1.581946	-7.370684	-18.508496	-2.517868	-2.169660	0.656180	-1.922760	0.778260	-0.576292	0.226318	0.766600	-1.000000	-1.000000	-1.000000	-1.000000	-1.000000	-1.000000	-1.000000	62.000000	0.000000	-1.000000	-1.000000	1247957.000000	1775724101.913047
87940.440000	66298.410000	86355.360000	56275.920000	64787.310000	13676.355000	37119.465000	86894.190000	-0.017893	-0.326063	-0.008181	1.517788	-3.810918	-10.894289	-1.307722	-0.697442	0.656180	-1.922760	0.778260	-0.576292	0.226318	0.766600	-1.000000	-1.000000	-1.000000	-1.000000	-1.000000	-1.000000	-1.000000	62.000000	0.000000	-1.000000	-1.000000	1247958.000000	1775724101.913056
87938.730000	66296.970000	86356.305000	56281.050000	64833.525000	13693.095000	37120.185000	86893.065000	1.489812	0.537619	0.658757	0.686242	2.548947	0.827511	0.769400	1.797770	0.656180	-1.922760	0.778260	-0.576292	0.226318	0.766600	-1.000000	-1.000000	-1.000000	-1.000000	-1.000000	-1.000000	-1.000000	62.000000	0.000000	-1.000000	-1.000000	1247959.000000	1775724101.913067
87937.785000	66294.225000	86352.345000	56274.390000	64813.635000	13693.860000	37122.345000	86893.335000	2.515341	1.482175	1.355123	-0.028443	11.317087	11.655270	2.422345	3.526772	0.656180	-1.922760	0.778260	-0.576292	0.226318	0.766600	-1.000000	-1.000000	-1.000000	-1.000000	-1.000000	-1.000000	-1.000000	62.000000	0.000000	-1.000000	-1.000000	1247960.000000	1775724101.913076
87933.555000	66289.320000	86345.190000	56268.270000	64788.795000	13681.080000	37121.625000	86889.645000	1.850957	1.154856	1.029914	-0.862668	16.351720	17.002372	2.761838	3.162281	0.671440	-0.732480	2.105880	-0.571349	0.225402	0.771849	-1.000000	-1.000000	-1.000000	-1.000000	-1.000000	-1.000000	-1.000000	62.000000	0.000000	-1.000000	-1.000000	1247961.000000	1775724101.920467
87934.230000	66293.370000	86348.430000	56272.140000	64770.660000	13656.330000	37116.135000	86887.080000	-0.386347	-0.614551	-0.661446	-2.211846	10.756438	13.813164	1.626810	0.807838	0.671440	-0.732480	2.105880	-0.571349	0.225402	0.771849	-1.000000	-1.000000	-1.000000	-1.000000	-1.000000	-1.000000	-1.000000	62.000000	0.000000	-1.000000	-1.000000	1247962.000000	1775724101.920487
87936.030000	66295.710000	86349.555000	56272.050000	64776.555000	13657.230000	37117.845000	86886.990000	-2.735750	-2.389360	-2.455753	-3.205702	-3.354514	3.427177	-0.471164	-2.174276	0.671440	-0.732480	2.105880	-0.571349	0.225402	0.771849	-1.000000	-1.000000	-1.000000	-1.000000	-1.000000	-1.000000	-1.000000	62.000000	0.000000	-1.000000	-1.000000	1247963.000000	1775724101.922294
87930.270000	66288.870000	86342.850000	56269.260000	64797.480000	13667.580000	37118.160000	86880.735000	-3.740588	-2.823122	-2.912754	-2.799690	-15.556982	-7.561839	-2.352951	-4.175661	0.671440	-0.732480	2.105880	-0.571349	0.225402	0.771849	-1.000000	-1.000000	-1.000000	-1.000000	-1.000000	-1.000000	-1.000000	62.000000	0.000000	-1.000000	-1.000000	1247964.000000	1775724101.922309
87934.680000	66292.020000	86348.970000	56275.830000	64804.050000	13671.810000	37119.780000	86882.310000	-3.114293	-2.040421	-1.934062	-1.095415	-16.955220	-11.925632	-2.845490	-4.389133	0.671440	-0.732480	2.105880	-0.571349	0.225402	0.771849	-1.000000	-1.000000	-1.000000	-1.000000	-1.000000	-1.000000	-1.000000	62.000000	0.000000	-1.000000	-1.000000	1247965.000000	1775724101.924658
87937.920000	66291.975000	86348.880000	56271.690000	64786.905000	13668.570000	37123.605000	86885.955000	-1.310448	-0.774299	-0.146994	1.071306	-8.194138	-8.072012	-1.700814	-2.817205	0.671440	-0.732480	2.105880	-0.571349	0.225402	0.771849	-1.000000	-1.000000	-1.000000	-1.000000	-1.000000	-1.000000	-1.000000	62.000000	0.000000	-1.000000	-1.000000	1247966.000000	1775724101.924673
87932.655000	66286.575000	86343.120000	56266.020000	64802.925000	13683.600000	37121.490000	86880.600000	0.919766	0.446450	1.630028	2.535427	2.698190	-0.207125	0.306618	-0.093075	0.671440	-0.732480	2.105880	-0.571349	0.225402	0.771849	-1.000000	-1.000000	-1.000000	-1.000000	-1.000000	-1.000000	-1.000000	62.000000	0.000000	-1.000000	-1.000000	1247967.000000	1775724101.936528
87932.430000	66289.770000	86349.105000	56273.085000	64812.105000	13687.425000	37118.025000	86877.270000	2.390079	1.150941	2.469200	2.497275	9.379128	6.653412	1.828971	2.335617	0.671440	-0.732480	2.105880	-0.571349	0.225402	0.771849	-1.000000	-1.000000	-1.000000	-1.000000	-1.000000	-1.000000	-1.000000	62.000000	0.000000	-1.000000	-1.000000	1247968.000000	1775724101.936548
87941.835000	66298.905000	86357.970000	56283.120000	64812.825000	13685.085000	37126.710000	86886.945000	2.539588	1.468743	2.404119	1.721064	10.790926	9.488007	2.040701	3.347133	0.671440	-0.732480	2.105880	-0.571349	0.225402	0.771849	-1.000000	-1.000000	-1.000000	-1.000000	-1.000000	-1.000000	-1.000000	62.000000	0.000000	-1.000000	-1.000000	1247969.000000	1775724101.936568
87942.645000	66296.745000	86352.795000	56274.255000	64799.685000	13677.525000	37134.855000	86893.605000	2.107102	1.982847	2.164288	1.397354	7.813497	7.202862	1.596585	3.413492	0.671440	-0.732480	2.105880	-0.571349	0.225402	0.771849	-1.000000	-1.000000	-1.000000	-1.000000	-1.000000	-1.000000	-1.000000	62.000000	0.000000	-1.000000	-1.000000	1247970.000000	1775724101.936576
87933.195000	66286.485000	86340.600000	56257.560000	64757.295000	13644.945000	37125.405000	86884.470000	1.539811	2.233761	1.387789	0.826358	0.880153	0.436269	1.343144	3.212283	-1.266580	0.824040	2.456860	-0.569273	0.226623	0.776182	-1.000000	-1.000000	-1.000000	-1.000000	-1.000000	-1.000000	-1.000000	62.000000	0.000000	-1.000000	-1.000000	1247971.000000	1775724101.936587
87934.995000	66289.635000	86342.895000	56261.025000	64770.570000	13653.000000	37128.420000	86883.795000	0.281897	1.106695	-0.752280	-1.301513	-8.270612	-8.126785	0.792970	2.124249	-1.266580	0.824040	2.456860	-0.569273	0.226623	0.776182	-1.000000	-1.000000	-1.000000	-1.000000	-1.000000	-1.000000	-1.000000	62.000000	0.000000	-1.000000	-1.000000	1247972.000000	1775724101.936595
87937.605000	66295.800000	86348.250000	56268.405000	64800.585000	13665.330000	37130.985000	86885.055000	-1.511859	-0.921891	-3.232769	-3.751387	-13.769120	-13.302176	-0.513667	-0.239882	-1.266580	0.824040	2.456860	-0.569273	0.226623	0.776182	-1.000000	-1.000000	-1.000000	-1.000000	-1.000000	-1.000000	-1.000000	62.000000	0.000000	-1.000000	-1.000000	1247973.000000	1775724101.941734
87939.270000	66298.185000	86350.455000	56272.275000	64775.880000	13640.985000	37129.320000	86885.100000	-2.541241	-1.984739	-3.833358	-3.764087	-10.202431	-11.147431	-1.830997	-2.699118	-1.266580	0.824040	2.456860	-0.569273	0.226623	0.776182	-1.000000	-1.000000	-1.000000	-1.000000	-1.000000	-1.000000	-1.000000	62.000000	0.000000	-1.000000	-1.000000	1247974.000000	1775724101.941750
87937.380000	66295.530000	86346.360000	56270.430000	64788.525000	13663.080000	37128.780000	86882.580000	-2.093105	-1.360905	-2.016765	-0.832207	-0.220361	-3.424431	-2.402428	-3.858219	-1.266580	0.824040	2.456860	-0.569273	0.226623	0.776182	-1.000000	-1.000000	-1.000000	-1.000000	-1.000000	-1.000000	-1.000000	62.000000	0.000000	-1.000000	-1.000000	1247975.000000	1775724101.952077
87926.760000	66286.395000	86335.245000	56265.480000	64819.845000	13687.965000	37125.585000	86872.320000	-0.980197	-0.309504	0.339885	2.611147	9.410642	5.778414	-2.231906	-3.621638	-1.266580	0.824040	2.456860	-0.569273	0.226623	0.776182	-1.000000	-1.000000	-1.000000	-1.000000	-1.000000	-1.000000	-1.000000	62.000000	0.000000	-1.000000	-1.000000	1247976.000000	1775724101.952096
87932.835000	66291.210000	86339.970000	56268.945000	64810.125000	13665.645000	37132.020000	86878.935000	-0.387797	-0.232948	1.232468	3.989472	14.951902	13.198765	-1.521997	-2.697492	-1.266580	0.824040	2.456860	-0.569273	0.226623	0.776182	-1.000000	-1.000000	-1.000000	-1.000000	-1.000000	-1.000000	-1.000000	62.000000	0.000000	-1.000000	-1.000000	1247977.000000	1775724101.952115
87928.110000	66285.405000	86336.910000	56263.230000	64784.430000	13647.510000	37131.930000	86876.775000	-0.311159	-0.950918	0.735331	2.857141	14.078752	14.565266	-0.271111	-1.265668	-1.266580	0.824040	2.456860	-0.569273	0.226623	0.776182	-1.000000	-1.000000	-1.000000	-1.000000	-1.000000	-1.000000	-1.000000	62.000000	0.000000	-1.000000	-1.000000	1247978.000000	1775724101.952124
87925.860000	66283.245000	86336.055000	56261.070000	64777.455000	13617.270000	37126.620000	86874.255000	-0.093389	-1.464686	0.180504	0.385911	5.493585	7.119896	1.145326	0.655526	-1.266580	0.824040	2.456860	-0.569273	0.226623	0.776182	-1.000000	-1.000000	-1.000000	-1.000000	-1.000000	-1.000000	-1.000000	62.000000	0.000000	-1.000000	-1.000000	1247979.000000	1775724101.956219
87931.260000	66287.655000	86338.980000	56259.990000	64774.620000	13614.795000	37128.645000	86876.595000	0.481927	-1.195073	0.314702	-1.977227	-6.968240	-5.685501	1.827636	2.384709	-1.266580	0.824040	2.456860	-0.569273	0.226623	0.776182	-1.000000	-1.000000	-1.000000	-1.000000	-1.000000	-1.000000	-1.000000	62.000000	0.000000	-1.000000	-1.000000	1247980.000000	1775724101.956235
87934.860000	66290.760000	86343.795000	56264.490000	64791.855000	13701.060000	37135.710000	86878.035000	1.474257	0.078116	1.162376	-2.988568	-15.460421	-14.054354	1.615351	3.298776	-2.273740	2.350040	3.448760	-0.568480	0.229492	0.778196	-1.000000	-1.000000	-1.000000	-1.000000	-1.000000	-1.000000	-1.000000	62.000000	0.000000	-1.000000	-1.000000	1247981.000000	1775724101.956254
87928.155000	66284.640000	86336.640000	56258.325000	64758.780000	13694.265000	37135.845000	86874.030000	2.545143	1.883651	2.169890	-2.209480	-15.204299	-9.131749	1.311869	3.239490	-2.273740	2.350040	3.448760	-0.568480	0.229492	0.778196	-1.000000	-1.000000	-1.000000	-1.000000	-1.000000	-1.000000	-1.000000	62.000000	0.000000	-1.000000	-1.000000	1247982.000000	1775724101.956263
87920.955000	66280.320000	86332.725000	56262.780000	64789.290000	13674.285000	37135.260000	86868.360000	2.524492	2.830061	2.184233	-0.424009	-8.125206	5.155125	1.235584	2.072313	-2.273740	2.350040	3.448760	-0.568480	0.229492	0.778196	-1.000000	-1.000000	-1.000000	-1.000000	-1.000000	-1.000000	-1.000000	62.000000	0.000000	-1.000000	-1.000000	1247983.000000	1775724101.968002
87922.935000	66281.400000	86335.200000	56269.980000	64829.430000	13687.650000	37135.755000	86871.600000	0.782590	2.038271	0.694189	1.386843	2.081747	14.830326	0.879891	0.044434	-2.273740	2.350040	3.448760	-0.568480	0.229492	0.778196	-1.000000	-1.000000	-1.000000	-1.000000	-1.000000	-1.000000	-1.000000	62.000000	0.000000	-1.000000	-1.000000	1247984.000000	1775724101.968021
87926.085000	66282.885000	86333.130000	56262.150000	64800.945000	13678.830000	37136.610000	86874.930000	-1.445564	0.310370	-1.264164	2.667950	12.355367	12.312596	-0.017190	-1.669007	-2.273740	2.350040	3.448760	-0.568480	0.229492	0.778196	-1.000000	-1.000000	-1.000000	-1.000000	-1.000000	-1.000000	-1.000000	62.000000	0.000000	-1.000000	-1.000000	1247985.000000	1775724101.968041
87927.885000	66283.380000	86333.445000	56259.855000	64791.090000	13669.605000	37138.680000	86876.460000	-2.284382	-0.873243	-2.324134	2.643929	16.871198	1.194635	-1.029574	-1.887595	-2.273740	2.350040	3.448760	-0.568480	0.229492	0.778196	-1.000000	-1.000000	-1.000000	-1.000000	-1.000000	-1.000000	-1.000000	62.000000	0.000000	-1.000000	-1.000000	1247986.000000	1775724101.968050
87928.335000	66283.425000	86334.705000	56263.320000	64794.510000	13661.280000	37138.995000	86875.830000	-1.272404	-0.909442	-2.042077	1.033561	11.406508	-10.963738	-1.568633	-0.755778	-2.273740	2.350040	3.448760	-0.568480	0.229492	0.778196	-1.000000	-1.000000	-1.000000	-1.000000	-1.000000	-1.000000	-1.000000	62.000000	0.000000	-1.000000	-1.000000	1247987.000000	1775724101.968059
87928.380000	66283.830000	86334.570000	56261.835000	64787.445000	13652.595000	37138.950000	86874.480000	0.471519	-0.251854	-0.810187	-1.013051	-0.285086	-18.013566	-1.461058	0.488452	-2.273740	2.350040	3.448760	-0.568480	0.229492	0.778196	-1.000000	-1.000000	-1.000000	-1.000000	-1.000000	-1.000000	-1.000000	62.000000	0.000000	-1.000000	-1.000000	1247988.000000	1775724101.968067
87927.795000	66283.965000	86336.235000	56263.320000	64789.920000	13649.130000	37138.050000	86873.265000	1.557221	0.362424	0.603878	-2.132432	-10.460329	-17.332293	-0.997667	0.794405	-2.273740	2.350040	3.448760	-0.568480	0.229492	0.778196	-1.000000	-1.000000	-1.000000	-1.000000	-1.000000	-1.000000	-1.000000	62.000000	0.000000	-1.000000	-1.000000	1247989.000000	1775724101.972328
87925.455000	66280.410000	86332.455000	56260.260000	64795.635000	13656.915000	37140.660000	86871.645000	1.347339	0.447709	1.446721	-2.015785	-13.937658	-9.859008	-0.498178	0.069019	-2.273740	2.350040	3.448760	-0.568480	0.229492	0.778196	-1.000000	-1.000000	-1.000000	-1.000000	-1.000000	-1.000000	-1.000000	62.000000	0.000000	-1.000000	-1.000000	1247990.000000	1775724101.972341
87920.280000	66273.480000	86325.930000	56255.490000	64796.940000	13676.445000	37141.920000	86868.855000	0.038151	-0.217467	1.182588	-1.301093	-10.152205	1.483230	0.007889	-1.056270	-1.068200	3.494540	2.624720	-0.569151	0.229003	0.778990	-1.000000	-1.000000	-1.000000	-1.000000	-1.000000	-1.000000	-1.000000	62.000000	0.000000	-1.000000	-1.000000	1247991.000000	1775724101.983023
87923.115000	66276.135000	86328.720000	56258.685000	64792.575000	13665.105000	37141.695000	86869.395000	-1.582256	-1.384768	-0.106399	-0.694255	-2.529635	12.519628	0.537993	-1.824950	-1.068200	3.494540	2.624720	-0.569151	0.229003	0.778990	-1.000000	-1.000000	-1.000000	-1.000000	-1.000000	-1.000000	-1.000000	62.000000	0.000000	-1.000000	-1.000000	1247992.000000	1775724101.983041
87925.995000	66279.105000	86332.320000	56262.330000	64793.115000	13659.165000	37141.200000	86868.855000	-2.347430	-2.039925	-1.302834	-0.114315	4.145119	18.114610	0.861192	-1.726186	-1.068200	3.494540	2.624720	-0.569151	0.229003	0.778990	-1.000000	-1.000000	-1.000000	-1.000000	-1.000000	-1.000000	-1.000000	62.000000	0.000000	-1.000000	-1.000000	1247993.000000	1775724101.983060
87926.985000	66279.645000	86331.645000	56262.870000	64794.690000	13659.480000	37141.110000	86867.955000	-1.533364	-1.260328	-1.218292	0.853459	7.055739	15.376801	0.739669	-0.763581	-1.068200	3.494540	2.624720	-0.569151	0.229003	0.778990	-1.000000	-1.000000	-1.000000	-1.000000	-1.000000	-1.000000	-1.000000	62.000000	0.000000	-1.000000	-1.000000	1247994.000000	1775724101.983068
87928.110000	66279.465000	86330.565000	56261.520000	64791.540000	13656.510000	37141.785000	86869.755000	0.332777	0.578705	-0.018204	1.890824	6.311528	6.631471	0.273341	0.558474	-1.068200	3.494540	2.624720	-0.569151	0.229003	0.778990	-1.000000	-1.000000	-1.000000	-1.000000	-1.000000	-1.000000	-1.000000	62.000000	0.000000	-1.000000	-1.000000	1247995.000000	1775724101.988339
87924.195000	66276.270000	86324.985000	56256.975000	64782.585000	13650.570000	37138.320000	86864.670000	1.891167	2.107629	1.027937	2.084494	3.339262	-2.898023	-0.248172	1.574686	-1.068200	3.494540	2.624720	-0.569151	0.229003	0.778990	-1.000000	-1.000000	-1.000000	-1.000000	-1.000000	-1.000000	-1.000000	62.000000	0.000000	-1.000000	-1.000000	1247996.000000	1775724101.988356
87925.635000	66278.295000	86327.010000	56257.515000	64782.000000	13645.980000	37139.895000	86866.650000	2.104614	2.308751	0.993576	1.009126	-0.366965	-9.183609	-0.635733	1.783964	-1.068200	3.494540	2.624720	-0.569151	0.229003	0.778990	-1.000000	-1.000000	-1.000000	-1.000000	-1.000000	-1.000000	-1.000000	62.000000	0.000000	-1.000000	-1.000000	1247997.000000	1775724101.988377
87930.090000	66281.265000	86331.105000	56260.170000	64790.460000	13652.235000	37143.225000	86869.755000	1.152361	1.390960	0.260587	-0.605456	-3.015199	-10.618829	-0.656567	1.311462	-1.068200	3.494540	2.624720	-0.569151	0.229003	0.778990	-1.000000	-1.000000	-1.000000	-1.000000	-1.000000	-1.000000	-1.000000	62.000000	0.000000	-1.000000	-1.000000	1247998.000000	1775724101.988385
87928.830000	66279.645000	86330.610000	56261.070000	64797.030000	13664.520000	37146.240000	86868.270000	0.076586	0.283971	-0.119610	-1.507234	-2.920618	-7.290999	-0.040004	0.774445	-1.068200	3.494540	2.624720	-0.569151	0.229003	0.778990	-1.000000	-1.000000	-1.000000	-1.000000	-1.000000	-1.000000	-1.000000	62.000000	0.000000	-1.000000	-1.000000	1247999.000000	1775724101.998700
87929.145000	66280.770000	86332.005000	56260.395000	64764.270000	13648.185000	37146.285000	86867.640000	-0.514652	-0.477760	0.170491	-1.217290	-0.799341	-1.184465	0.998129	0.396318	-1.068200	3.494540	2.624720	-0.569151	0.229003	0.778990	-1.000000	-1.000000	-1.000000	-1.000000	-1.000000	-1.000000	-1.000000	62.000000	0.000000	-1.000000	-1.000000	1248000.000000	1775724101.998719
87925.005000	66276.720000	86328.135000	56253.690000	64740.510000	13619.250000	37144.035000	86864.085000	-0.830051	-0.962168	0.527721	-0.437468	-0.287517	3.292735	1.643952	-0.107235	0.412020	4.318580	1.266580	-0.570311	0.230468	0.775206	-1.000000	-1.000000	-1.000000	-1.000000	-1.000000	-1.000000	-1.000000	62.000000	0.000000	-1.000000	-1.000000	1248001.000000	1775724102.002635
87921.900000	66273.345000	86326.290000	56255.670000	64792.485000	13644.990000	37147.770000	86863.635000	-1.260471	-1.424469	0.269126	-0.124664	-2.303620	3.090575	1.287670	-0.874692	0.412020	4.318580	1.266580	-0.570311	0.230468	0.775206	-1.000000	-1.000000	-1.000000	-1.000000	-1.000000	-1.000000	-1.000000	62.000000	0.000000	-1.000000	-1.000000	1248002.000000	1775724102.002650
87925.680000	66277.035000	86331.015000	56260.575000	64814.985000	13662.180000	37150.605000	86865.975000	-1.704760	-1.812412	-0.542474	-0.234971	-1.593985	1.090935	0.287637	-1.514829	0.412020	4.318580	1.266580	-0.570311	0.230468	0.775206	-1.000000	-1.000000	-1.000000	-1.000000	-1.000000	-1.000000	-1.000000	62.000000	0.000000	-1.000000	-1.000000	1248003.000000	1775724102.002669
87933.510000	66286.800000	86338.665000	56269.710000	64819.845000	13665.870000	37151.370000	86868.945000	-1.378113	-1.414572	-0.931398	0.199768	5.102924	1.964278	-0.517435	-1.374740	0.412020	4.318580	1.266580	-0.570311	0.230468	0.775206	-1.000000	-1.000000	-1.000000	-1.000000	-1.000000	-1.000000	-1.000000	62.000000	0.000000	-1.000000	-1.000000	1248004.000000	1775724102.002678
87928.425000	66286.845000	86338.080000	56267.865000	64783.935000	13629.240000	37145.655000	86863.185000	0.129248	0.293649	-0.169180	1.533882	11.845026	4.589431	-0.919561	-0.415425	0.412020	4.318580	1.266580	-0.570311	0.230468	0.775206	-1.000000	-1.000000	-1.000000	-1.000000	-1.000000	-1.000000	-1.000000	62.000000	0.000000	-1.000000	-1.000000	1248005.000000	1775724102.009368
87927.885000	66286.305000	86335.920000	56262.285000	64765.620000	13606.335000	37147.995000	86864.445000	1.774225	2.376083	1.023949	2.553794	9.841048	3.366892	-1.301856	0.516807	0.412020	4.318580	1.266580	-0.570311	0.230468	0.775206	-1.000000	-1.000000	-1.000000	-1.000000	-1.000000	-1.000000	-1.000000	62.000000	0.000000	-1.000000	-1.000000	1248006.000000	1775724102.009387
87925.185000	66283.560000	86333.310000	56263.095000	64795.320000	13617.270000	37149.570000	86863.185000	2.124320	3.071232	1.221190	1.780862	-1.119916	-3.169751	-1.614439	0.739799	0.412020	4.318580	1.266580	-0.570311	0.230468	0.775206	-1.000000	-1.000000	-1.000000	-1.000000	-1.000000	-1.000000	-1.000000	62.000000	0.000000	-1.000000	-1.000000	1248007.000000	1775724102.009420
87920.955000	66279.510000	86328.315000	56259.405000	64813.050000	13658.085000	37150.695000	86860.170000	0.925820	1.606829	-0.089129	-0.605847	-11.244045	-8.480588	-1.325332	0.354312	0.412020	4.318580	1.266580	-0.570311	0.230468	0.775206	-1.000000	-1.000000	-1.000000	-1.000000	-1.000000	-1.000000	-1.000000	62.000000	0.000000	-1.000000	-1.000000	1248008.000000	1775724102.009429
87921.765000	66281.940000	86331.285000	56263.635000	64804.905000	13685.580000	37155.780000	86860.845000	-0.911926	-1.103344	-2.027404	-2.940248	-12.203834	-5.020366	-0.262796	-0.222702	0.412020	4.318580	1.266580	-0.570311	0.230468	0.775206	-1.000000	-1.000000	-1.000000	-1.000000	-1.000000	-1.000000	-1.000000	62.000000	0.000000	-1.000000	-1.000000	1248009.000000	1775724102.012716
87921.855000	66283.650000	86333.670000	56266.020000	64787.940000	13670.775000	37155.780000	86861.070000	-2.088823	-3.171092	-3.009996	-3.593101	-6.040552	5.887340	1.143404	-0.541416	0.412020	4.318580	1.266580	-0.570311	0.230468	0.775206	-1.000000	-1.000000	-1.000000	-1.000000	-1.000000	-1.000000	-1.000000	62.000000	0.000000	-1.000000	-1.000000	1248010.000000	1775724102.012733
87922.890000	66285.405000	86334.615000	56266.470000	64802.160000	13663.980000	37154.520000	86860.980000	-1.805570	-3.231463	-2.091869	-2.176960	0.056099	14.189003	2.071590	-0.317427	1.480220	5.096840	1.144500	-0.572936	0.236144	0.772032	-1.000000	-1.000000	-1.000000	-1.000000	-1.000000	-1.000000	-1.000000	62.000000	0.000000	-1.000000	-1.000000	1248011.000000	1775724102.019628
87915.555000	66278.655000	86326.605000	56257.650000	64791.675000	13649.085000	37153.800000	86856.570000	-0.461087	-1.607715	-0.013592	0.049601	2.628098	11.743066	1.815621	0.208324	1.480220	5.096840	1.144500	-0.572936	0.236144	0.772032	-1.000000	-1.000000	-1.000000	-1.000000	-1.000000	-1.000000	-1.000000	62.000000	0.000000	-1.000000	-1.000000	1248012.000000	1775724102.019645
87914.385000	66278.160000	86322.870000	56251.845000	64780.155000	13649.310000	37154.160000	86858.100000	0.717403	0.153362	1.436237	1.179157	2.234115	0.033352	0.491872	0.504189	1.480220	5.096840	1.144500	-0.572936	0.236144	0.772032	-1.000000	-1.000000	-1.000000	-1.000000	-1.000000	-1.000000	-1.000000	62.000000	0.000000	-1.000000	-1.000000	1248013.000000	1775724102.022063
87924.060000	66287.385000	86329.665000	56256.075000	64780.830000	13649.580000	37153.215000	86863.410000	1.190211	1.146919	1.464648	0.634717	0.246218	-12.460838	-1.029115	0.541442	1.480220	5.096840	1.144500	-0.572936	0.236144	0.772032	-1.000000	-1.000000	-1.000000	-1.000000	-1.000000	-1.000000	-1.000000	62.000000	0.000000	-1.000000	-1.000000	1248014.000000	1775724102.022080
87925.050000	66287.430000	86328.855000	56254.725000	64766.835000	13633.605000	37154.880000	86863.635000	1.627730	1.815600	1.020614	-0.266439	-1.670231	-18.129375	-1.874701	0.776015	1.480220	5.096840	1.144500	-0.572936	0.236144	0.772032	-1.000000	-1.000000	-1.000000	-1.000000	-1.000000	-1.000000	-1.000000	62.000000	0.000000	-1.000000	-1.000000	1248015.000000	1775724102.030443
87917.805000	66279.870000	86319.810000	56247.030000	64765.035000	13629.735000	37158.435000	86858.820000	2.196075	2.299264	0.899848	-0.311710	-2.232305	-15.436954	-1.624006	1.099930	1.480220	5.096840	1.144500	-0.572936	0.236144	0.772032	-1.000000	-1.000000	-1.000000	-1.000000	-1.000000	-1.000000	-1.000000	62.000000	0.000000	-1.000000	-1.000000	1248016.000000	1775724102.030462
87908.850000	66272.400000	86315.220000	56254.095000	64799.145000	13644.945000	37156.995000	86851.485000	1.722432	1.646753	0.542317	0.348617	-0.497068	-7.169530	-0.464391	0.653237	1.480220	5.096840	1.144500	-0.572936	0.236144	0.772032	-1.000000	-1.000000	-1.000000	-1.000000	-1.000000	-1.000000	-1.000000	62.000000	0.000000	-1.000000	-1.000000	1248017.000000	1775724102.030482
87913.215000	66275.415000	86321.610000	56259.675000	64795.005000	13637.610000	37156.140000	86854.680000	-0.346002	-0.410585	-0.349347	1.405106	4.165229	3.144577	0.778746	-0.839954	1.480220	5.096840	1.144500	-0.572936	0.236144	0.772032	-1.000000	-1.000000	-1.000000	-1.000000	-1.000000	-1.000000	-1.000000	62.000000	0.000000	-1.000000	-1.000000	1248018.000000	1775724102.030491
87914.655000	66276.585000	86319.045000	56254.095000	64783.755000	13638.735000	37158.255000	86856.255000	-2.502968	-2.354147	-0.826092	2.632869	9.178661	11.567105	1.298389	-2.219949	1.480220	5.096840	1.144500	-0.572936	0.236144	0.772032	-1.000000	-1.000000	-1.000000	-1.000000	-1.000000	-1.000000	-1.000000	62.000000	0.000000	-1.000000	-1.000000	1248019.000000	1775724102.035307
87917.085000	66279.915000	86321.250000	56256.795000	64782.405000	13636.845000	37157.850000	86857.245000	-2.834460	-2.459197	-0.210741	3.099064	9.685244	14.741110	1.037332	-2.123785	1.480220	5.096840	1.144500	-0.572936	0.236144	0.772032	-1.000000	-1.000000	-1.000000	-1.000000	-1.000000	-1.000000	-1.000000	62.000000	0.000000	-1.000000	-1.000000	1248020.000000	1775724102.035324
87916.410000	66281.310000	86323.815000	56258.235000	64781.325000	13632.480000	37156.050000	86855.355000	-1.175526	-0.611557	1.024758	2.152974	4.413155	12.090931	0.389783	-0.602406	-1.709120	3.540320	0.579880	-0.574645	0.242004	0.768248	-1.000000	-1.000000	-1.000000	-1.000000	-1.000000	-1.000000	-1.000000	62.000000	0.000000	-1.000000	-1.000000	1248021.000000	1775724102.045958
87917.355000	66282.885000	86326.155000	56261.295000	64781.235000	13620.285000	37164.375000	86857.740000	1.047223	1.817467	2.069118	0.398018	-3.031511	5.530585	-0.185830	1.143550	-1.709120	3.540320	0.579880	-0.574645	0.242004	0.768248	-1.000000	-1.000000	-1.000000	-1.000000	-1.000000	-1.000000	-1.000000	62.000000	0.000000	-1.000000	-1.000000	1248022.000000	1775724102.045978
87908.220000	66272.400000	86311.800000	56244.285000	64738.440000	13589.595000	37158.345000	86851.485000	2.191088	3.055742	2.074974	-1.450919	-8.945900	-2.531478	-0.289678	1.997858	-1.709120	3.540320	0.579880	-0.574645	0.242004	0.768248	-1.000000	-1.000000	-1.000000	-1.000000	-1.000000	-1.000000	-1.000000	62.000000	0.000000	-1.000000	-1.000000	1248023.000000	1775724102.045998
87910.020000	66274.110000	86311.440000	56242.395000	64756.485000	13630.905000	37159.020000	86852.520000	1.498012	2.082728	0.368764	-3.432297	-12.099935	-9.021831	-0.127139	1.545235	-1.709120	3.540320	0.579880	-0.574645	0.242004	0.768248	-1.000000	-1.000000	-1.000000	-1.000000	-1.000000	-1.000000	-1.000000	62.000000	0.000000	-1.000000	-1.000000	1248024.000000	1775724102.046007
87915.195000	66279.510000	86317.245000	56251.755000	64798.335000	13664.160000	37161.855000	86855.085000	-0.172718	-0.235654	-2.195109	-4.896004	-10.385095	-8.994846	-0.167723	0.320959	-1.709120	3.540320	0.579880	-0.574645	0.242004	0.768248	-1.000000	-1.000000	-1.000000	-1.000000	-1.000000	-1.000000	-1.000000	62.000000	0.000000	-1.000000	-1.000000	1248025.000000	1775724102.046017
87918.345000	66284.685000	86322.105000	56257.695000	64804.005000	13660.425000	37162.080000	86854.140000	-1.043112	-1.719123	-3.325168	-4.021822	-1.447661	-0.644516	-0.288485	-0.594685	-1.709120	3.540320	0.579880	-0.574645	0.242004	0.768248	-1.000000	-1.000000	-1.000000	-1.000000	-1.000000	-1.000000	-1.000000	62.000000	0.000000	-1.000000	-1.000000	1248026.000000	1775724102.046025
87912.495000	66279.510000	86317.875000	56253.510000	64790.955000	13660.560000	37162.260000	86850.495000	-0.506037	-1.332304	-1.962464	-0.472142	10.538812	9.467858	-0.208359	-0.770322	-1.709120	3.540320	0.579880	-0.574645	0.242004	0.768248	-1.000000	-1.000000	-1.000000	-1.000000	-1.000000	-1.000000	-1.000000	62.000000	0.000000	-1.000000	-1.000000	1248027.000000	1775724102.050867
87915.285000	66283.695000	86323.455000	56261.295000	64795.095000	13655.160000	37166.265000	86853.735000	0.372271	-0.090590	0.560498	3.505948	16.549740	12.491228	0.042923	-0.581282	-1.709120	3.540320	0.579880	-0.574645	0.242004	0.768248	-1.000000	-1.000000	-1.000000	-1.000000	-1.000000	-1.000000	-1.000000	62.000000	0.000000	-1.000000	-1.000000	1248028.000000	1775724102.050885
87918.120000	66285.360000	86321.970000	56255.355000	64778.445000	13661.595000	37169.235000	86856.930000	0.652704	0.714885	2.382887	5.454400	12.197751	6.278418	0.420831	-0.221935	-1.709120	3.540320	0.579880	-0.574645	0.242004	0.768248	-1.000000	-1.000000	-1.000000	-1.000000	-1.000000	-1.000000	-1.000000	62.000000	0.000000	-1.000000	-1.000000	1248029.000000	1775724102.054809
87913.485000	66281.265000	86316.705000	56246.310000	64750.185000	13633.335000	37163.430000	86853.555000	0.382368	0.698287	2.534716	4.319528	0.339647	-4.607653	0.713812	0.331306	-1.709120	3.540320	0.579880	-0.574645	0.242004	0.768248	-1.000000	-1.000000	-1.000000	-1.000000	-1.000000	-1.000000	-1.000000	62.000000	0.000000	-1.000000	-1.000000	1248030.000000	1775724102.054829
87905.700000	66274.065000	86310.360000	56242.080000	64769.265000	13607.820000	37158.660000	86847.705000	-0.368605	-0.196121	0.881595	0.560950	-12.267654	-14.758801	0.299605	0.584112	-3.799740	2.472120	0.015260	-0.577452	0.243835	0.765318	-1.000000	-1.000000	-1.000000	-1.000000	-1.000000	-1.000000	-1.000000	62.000000	0.000000	-1.000000	-1.000000	1248031.000000	1775724102.056258
87907.545000	66277.530000	86314.770000	56249.955000	64795.320000	13628.070000	37162.665000	86847.885000	-1.567530	-1.676477	-1.645096	-3.555936	-17.517180	-20.050212	-0.939787	-0.015459	-3.799740	2.472120	0.015260	-0.577452	0.243835	0.765318	-1.000000	-1.000000	-1.000000	-1.000000	-1.000000	-1.000000	-1.000000	62.000000	0.000000	-1.000000	-1.000000	1248032.000000	1775724102.056271
87906.780000	66278.610000	86313.870000	56249.910000	64789.110000	13632.705000	37165.095000	86845.410000	-2.413342	-2.602306	-3.220490	-5.126551	-11.401068	-16.745194	-1.898697	-1.078811	-3.799740	2.472120	0.015260	-0.577452	0.243835	0.765318	-1.000000	-1.000000	-1.000000	-1.000000	-1.000000	-1.000000	-1.000000	62.000000	0.000000	-1.000000	-1.000000	1248033.000000	1775724102.066062
87907.230000	66279.330000	86316.930000	56252.385000	64795.545000	13638.510000	37167.570000	86847.795000	-1.960851	-1.944094	-2.665131	-3.241922	1.173724	-4.805275	-1.444904	-1.609135	-3.799740	2.472120	0.015260	-0.577452	0.243835	0.765318	-1.000000	-1.000000	-1.000000	-1.000000	-1.000000	-1.000000	-1.000000	62.000000	0.000000	-1.000000	-1.000000	1248034.000000	1775724102.066081
87908.670000	66280.680000	86321.160000	56257.920000	64800.810000	13643.460000	37170.135000	86850.000000	-0.253878	0.008468	-0.380971	0.474190	11.293300	9.821817	0.244748	-0.982548	-3.799740	2.472120	0.015260	-0.577452	0.243835	0.765318	-1.000000	-1.000000	-1.000000	-1.000000	-1.000000	-1.000000	-1.000000	62.000000	0.000000	-1.000000	-1.000000	1248035.000000	1775724102.066103
87905.880000	66278.205000	86318.685000	56253.060000	64782.360000	13636.080000	37168.785000	86848.155000	1.735069	1.982919	2.201459	3.616019	13.597904	19.432975	1.962386	0.532779	-3.799740	2.472120	0.015260	-0.577452	0.243835	0.765318	-1.000000	-1.000000	-1.000000	-1.000000	-1.000000	-1.000000	-1.000000	62.000000	0.000000	-1.000000	-1.000000	1248036.000000	1775724102.066111
87895.350000	66270.960000	86308.020000	56245.455000	64774.080000	13628.430000	37163.655000	86836.815000	2.675413	2.677106	3.319574	4.282450	7.819609	19.589266	2.426879	1.703901	-3.799740	2.472120	0.015260	-0.577452	0.243835	0.765318	-1.000000	-1.000000	-1.000000	-1.000000	-1.000000	-1.000000	-1.000000	62.000000	0.000000	-1.000000	-1.000000	1248037.000000	1775724102.071481
87878.835000	66256.875000	86289.525000	56229.345000	64749.690000	13598.505000	37155.375000	86820.120000	1.488428	1.365194	1.648199	1.764548	-2.476182	10.750186	1.041767	1.028272	-3.799740	2.472120	0.015260	-0.577452	0.243835	0.765318	-1.000000	-1.000000	-1.000000	-1.000000	-1.000000	-1.000000	-1.000000	62.000000	0.000000	-1.000000	-1.000000	1248038.000000	1775724102.071500
87900.030000	66273.435000	86310.405000	56239.785000	64751.130000	13576.770000	37163.070000	86840.685000	-1.112198	-1.137752	-1.919874	-2.502072	-11.688625	-2.843926	-1.402262	-1.215688	-3.799740	2.472120	0.015260	-0.577452	0.243835	0.765318	-1.000000	-1.000000	-1.000000	-1.000000	-1.000000	-1.000000	-1.000000	62.000000	0.000000	-1.000000	-1.000000	1248039.000000	1775724102.077369
87907.950000	66284.010000	86321.925000	56250.540000	64778.895000	13618.395000	37170.000000	86846.535000	-2.055827	-2.130685	-3.671459	-4.991364	-14.206626	-14.000557	-2.777100	-2.114267	-3.799740	2.472120	0.015260	-0.577452	0.243835	0.765318	-1.000000	-1.000000	-1.000000	-1.000000	-1.000000	-1.000000	-1.000000	62.000000	0.000000	-1.000000	-1.000000	1248040.000000	1775724102.077384
87904.305000	66281.670000	86320.260000	56250.630000	64796.805000	13651.875000	37169.955000	86843.385000	0.432295	0.059979	-1.103679	-3.158544	-7.139906	-14.560909	-1.618791	0.206056	-3.082520	2.014320	-0.167860	-0.578185	0.240661	0.764891	-1.000000	-1.000000	-1.000000	-1.000000	-1.000000	-1.000000	-1.000000	62.000000	0.000000	-1.000000	-1.000000	1248041.000000	1775724102.077403
87907.230000	66286.755000	86325.705000	56258.820000	64808.370000	13664.160000	37176.480000	86845.455000	4.005513	3.510537	3.555488	1.634935	6.214933	-2.786798	1.161009	3.662442	-3.082520	2.014320	-0.167860	-0.578185	0.240661	0.764891	-1.000000	-1.000000	-1.000000	-1.000000	-1.000000	-1.000000	-1.000000	62.000000	0.000000	-1.000000	-1.000000	1248042.000000	1775724102.077411
87900.345000	66278.205000	86317.290000	56251.755000	64780.380000	13660.425000	37174.770000	86840.865000	5.165778	4.933420	6.088127	5.650271	16.923749	12.403494	3.413974	5.008067	-3.082520	2.014320	-0.167860	-0.578185	0.240661	0.764891	-1.000000	-1.000000	-1.000000	-1.000000	-1.000000	-1.000000	-1.000000	62.000000	0.000000	-1.000000	-1.000000	1248043.000000	1775724102.080477
87898.590000	66270.510000	86308.155000	56239.830000	64767.780000	13642.740000	37173.330000	86840.775000	2.770727	2.762649	4.244853	5.841811	16.772539	18.775001	3.592429	3.164944	-3.082520	2.014320	-0.167860	-0.578185	0.240661	0.764891	-1.000000	-1.000000	-1.000000	-1.000000	-1.000000	-1.000000	-1.000000	62.000000	0.000000	-1.000000	-1.000000	1248044.000000	1775724102.080496
87900.120000	66268.710000	86303.835000	56233.215000	64763.460000	13634.595000	37173.645000	86841.045000	-1.572970	-1.964035	-1.076671	1.674983	5.521707	11.301185	1.553768	-0.509864	-3.082520	2.014320	-0.167860	-0.578185	0.240661	0.764891	-1.000000	-1.000000	-1.000000	-1.000000	-1.000000	-1.000000	-1.000000	62.000000	0.000000	-1.000000	-1.000000	1248045.000000	1775724102.085618
87902.190000	66271.590000	86305.320000	56233.485000	64762.695000	13632.435000	37174.365000	86841.360000	-4.975563	-6.180195	-6.457834	-4.192239	-8.641785	-4.552967	-1.395363	-3.669044	-3.082520	2.014320	-0.167860	-0.578185	0.240661	0.764891	-1.000000	-1.000000	-1.000000	-1.000000	-1.000000	-1.000000	-1.000000	62.000000	0.000000	-1.000000	-1.000000	1248046.000000	1775724102.085632
87904.125000	66276.810000	86309.280000	56237.535000	64771.245000	13633.695000	37177.110000	86841.720000	-5.497180	-6.942208	-8.291720	-7.624334	-16.392819	-18.100573	-3.461543	-4.740250	-3.082520	2.014320	-0.167860	-0.578185	0.240661	0.764891	-1.000000	-1.000000	-1.000000	-1.000000	-1.000000	-1.000000	-1.000000	62.000000	0.000000	-1.000000	-1.000000	1248047.000000	1775724102.089257
87902.865000	66279.285000	86314.050000	56247.840000	64795.185000	13635.090000	37178.055000	86840.775000	-3.380214	-3.718102	-5.389628	-6.142121	-13.636311	-21.660229	-3.631222	-3.693554	-3.082520	2.014320	-0.167860	-0.578185	0.240661	0.764891	-1.000000	-1.000000	-1.000000	-1.000000	-1.000000	-1.000000	-1.000000	62.000000	0.000000	-1.000000	-1.000000	1248048.000000	1775724102.089277
87898.680000	66278.070000	86313.735000	56247.345000	64793.880000	13635.855000	37176.210000	86837.490000	-0.464547	1.297427	0.338301	-0.666943	-2.899609	-14.777865	-2.223546	-1.627991	-3.082520	2.014320	-0.167860	-0.578185	0.240661	0.764891	-1.000000	-1.000000	-1.000000	-1.000000	-1.000000	-1.000000	-1.000000	62.000000	0.000000	-1.000000	-1.000000	1248049.000000	1775724102.097162
87890.265000	66270.870000	86305.095000	56235.285000	64767.510000	13626.630000	37170.360000	86827.995000	1.269470	4.852603	5.251336	4.937870	8.002044	-2.822221	-0.531230	0.020253	-3.082520	2.014320	-0.167860	-0.578185	0.240661	0.764891	-1.000000	-1.000000	-1.000000	-1.000000	-1.000000	-1.000000	-1.000000	62.000000	0.000000	-1.000000	-1.000000	1248050.000000	1775724102.097182
87889.140000	66271.275000	86304.780000	56235.105000	64758.195000	13620.060000	37170.720000	86825.385000	1.073251	4.998134	6.496770	6.722887	11.101636	7.325340	0.315154	0.376740	-1.434440	1.098720	-0.488320	-0.577086	0.235778	0.764708	-1.000000	-1.000000	-1.000000	-1.000000	-1.000000	-1.000000	-1.000000	62.000000	0.000000	-1.000000	-1.000000	1248051.000000	1775724102.098590
87889.860000	66273.525000	86307.570000	56239.380000	64762.020000	13625.595000	37172.925000	86824.530000	-0.065031	2.464439	4.161570	4.216770	5.411739	11.736725	0.378145	-0.127331	-1.434440	1.098720	-0.488320	-0.577086	0.235778	0.764708	-1.000000	-1.000000	-1.000000	-1.000000	-1.000000	-1.000000	-1.000000	62.000000	0.000000	-1.000000	-1.000000	1248052.000000	1775724102.098603
87885.810000	66271.185000	86301.540000	56234.655000	64741.770000	13602.690000	37173.780000	86821.605000	-0.570670	-0.406381	0.632695	0.246358	-3.079606	10.616501	0.538484	-0.279044	-1.434440	1.098720	-0.488320	-0.577086	0.235778	0.764708	-1.000000	-1.000000	-1.000000	-1.000000	-1.000000	-1.000000	-1.000000	62.000000	0.000000	-1.000000	-1.000000	1248053.000000	1775724102.100101
87889.905000	66273.885000	86302.755000	56232.135000	64742.850000	13592.835000	37176.435000	86828.625000	0.145535	-1.921683	-1.994441	-2.583531	-8.385046	5.839453	1.246694	0.643262	-1.434440	1.098720	-0.488320	-0.577086	0.235778	0.764708	-1.000000	-1.000000	-1.000000	-1.000000	-1.000000	-1.000000	-1.000000	62.000000	0.000000	-1.000000	-1.000000	1248054.000000	1775724102.100116
87890.310000	66274.020000	86301.810000	56231.460000	64750.905000	13627.890000	37180.890000	86830.920000	1.635684	-1.808686	-2.934373	-3.536152	-8.028488	0.545205	2.197103	2.494308	-1.434440	1.098720	-0.488320	-0.577086	0.235778	0.764708	-1.000000	-1.000000	-1.000000	-1.000000	-1.000000	-1.000000	-1.000000	62.000000	0.000000	-1.000000	-1.000000	1248055.000000	1775724102.107455
87893.595000	66276.540000	86304.285000	56233.485000	64760.985000	13659.210000	37191.285000	86835.510000	3.074898	-0.673233	-2.252864	-2.844001	-2.320622	-0.400453	2.976821	4.398041	-1.434440	1.098720	-0.488320	-0.577086	0.235778	0.764708	-1.000000	-1.000000	-1.000000	-1.000000	-1.000000	-1.000000	-1.000000	62.000000	0.000000	-1.000000	-1.000000	1248056.000000	1775724102.107474
87889.500000	66273.795000	86301.630000	56233.125000	64783.035000	13634.100000	37187.865000	86832.360000	3.573149	0.540297	-0.637796	-1.059369	6.123923	4.115339	3.235723	5.051191	-1.434440	1.098720	-0.488320	-0.577086	0.235778	0.764708	-1.000000	-1.000000	-1.000000	-1.000000	-1.000000	-1.000000	-1.000000	62.000000	0.000000	-1.000000	-1.000000	1248057.000000	1775724102.109174
87891.705000	66277.260000	86306.940000	56241.540000	64795.635000	13630.410000	37177.605000	86828.985000	2.603383	1.076930	0.953233	1.077942	13.435066	7.859127	2.145343	3.506827	-1.434440	1.098720	-0.488320	-0.577086	0.235778	0.764708	-1.000000	-1.000000	-1.000000	-1.000000	-1.000000	-1.000000	-1.000000	62.000000	0.000000	-1.000000	-1.000000	1248058.000000	1775724102.109188
87892.290000	66279.420000	86310.270000	56249.325000	64779.840000	13619.205000	37177.335000	86829.660000	0.556256	0.886471	1.979081	3.011936	15.609786	4.697751	-0.873779	0.075468	-1.434440	1.098720	-0.488320	-0.577086	0.235778	0.764708	-1.000000	-1.000000	-1.000000	-1.000000	-1.000000	-1.000000	-1.000000	62.000000	0.000000	-1.000000	-1.000000	1248059.000000	1775724102.114102
87888.510000	66273.570000	86303.970000	56243.430000	64779.570000	13618.665000	37180.530000	86829.120000	-1.553559	0.317969	2.221147	4.123934	10.075034	-4.074127	-4.459071	-3.542094	-1.434440	1.098720	-0.488320	-0.577086	0.235778	0.764708	-1.000000	-1.000000	-1.000000	-1.000000	-1.000000	-1.000000	-1.000000	62.000000	0.000000	-1.000000	-1.000000	1248060.000000	1775724102.114120
87889.005000	66273.435000	86303.340000	56239.920000	64764.585000	13612.140000	37182.330000	86830.335000	-2.981942	-0.538731	1.327869	3.338758	-1.507725	-12.245065	-6.038522	-5.470268	0.656180	1.175020	-0.427280	-0.576903	0.233215	0.765196	-1.000000	-1.000000	-1.000000	-1.000000	-1.000000	-1.000000	-1.000000	62.000000	0.000000	-1.000000	-1.000000	1248061.000000	1775724102.118214
87887.925000	66271.950000	86299.425000	56235.195000	64748.520000	13613.130000	37181.700000	86826.600000	-3.405564	-1.509354	-0.587636	0.282003	-13.690350	-14.743568	-4.502138	-5.062273	0.656180	1.175020	-0.427280	-0.576903	0.233215	0.765196	-1.000000	-1.000000	-1.000000	-1.000000	-1.000000	-1.000000	-1.000000	62.000000	0.000000	-1.000000	-1.000000	1248062.000000	1775724102.118231
87888.375000	66271.500000	86299.785000	56236.545000	64778.220000	13627.980000	37183.635000	86827.005000	-2.757119	-2.020407	-2.519075	-3.580052	-20.337134	-10.339444	-1.051117	-3.068189	0.656180	1.175020	-0.427280	-0.576903	0.233215	0.765196	-1.000000	-1.000000	-1.000000	-1.000000	-1.000000	-1.000000	-1.000000	62.000000	0.000000	-1.000000	-1.000000	1248063.000000	1775724102.122095
87885.540000	66270.240000	86297.445000	56234.565000	64781.910000	13619.115000	37181.655000	86823.945000	-1.380177	-1.677385	-3.334523	-5.915185	-17.185067	-1.409924	2.222872	-0.730205	0.656180	1.175020	-0.427280	-0.576903	0.233215	0.765196	-1.000000	-1.000000	-1.000000	-1.000000	-1.000000	-1.000000	-1.000000	62.000000	0.000000	-1.000000	-1.000000	1248064.000000	1775724102.122112
87886.215000	66272.895000	86298.795000	56234.160000	64768.950000	13613.670000	37181.025000	86823.180000	0.077545	-0.586078	-2.607509	-5.453535	-5.857714	7.055686	3.810537	1.042380	0.656180	1.175020	-0.427280	-0.576903	0.233215	0.765196	-1.000000	-1.000000	-1.000000	-1.000000	-1.000000	-1.000000	-1.000000	62.000000	0.000000	-1.000000	-1.000000	1248065.000000	1775724102.124180
87891.390000	66277.845000	86304.285000	56237.895000	64775.430000	13623.300000	37185.705000	86829.345000	1.228211	0.932726	-0.652208	-2.657671	6.099751	10.756054	3.494215	2.047891	0.656180	1.175020	-0.427280	-0.576903	0.233215	0.765196	-1.000000	-1.000000	-1.000000	-1.000000	-1.000000	-1.000000	-1.000000	62.000000	0.000000	-1.000000	-1.000000	1248066.000000	1775724102.124197
87889.095000	66277.260000	86304.060000	56238.975000	64769.130000	13630.005000	37186.290000	86827.995000	2.060878	2.420108	1.775266	1.049182	12.253324	9.572648	2.201679	2.629315	0.656180	1.175020	-0.427280	-0.576903	0.233215	0.765196	-1.000000	-1.000000	-1.000000	-1.000000	-1.000000	-1.000000	-1.000000	62.000000	0.000000	-1.000000	-1.000000	1248067.000000	1775724102.128121
87885.585000	66275.415000	86301.540000	56240.235000	64761.930000	13611.780000	37184.175000	86825.250000	2.296714	3.085411	3.495376	4.076180	11.366903	5.781037	0.857990	2.791116	0.656180	1.175020	-0.427280	-0.576903	0.233215	0.765196	-1.000000	-1.000000	-1.000000	-1.000000	-1.000000	-1.000000	-1.000000	62.000000	0.000000	-1.000000	-1.000000	1248068.000000	1775724102.128134
87885.090000	66276.315000	86302.710000	56243.160000	64782.630000	13611.555000	37185.885000	86825.925000	1.504108	2.314493	3.475482	5.282161	6.222233	0.741312	-0.293594	2.099105	0.656180	1.175020	-0.427280	-0.576903	0.233215	0.765196	-1.000000	-1.000000	-1.000000	-1.000000	-1.000000	-1.000000	-1.000000	62.000000	0.000000	-1.000000	-1.000000	1248069.000000	1775724102.132956
87887.520000	66276.360000	86302.170000	56240.145000	64774.800000	13609.260000	37188.585000	86828.085000	0.040993	0.471027	1.827775	4.432146	1.209578	-4.277938	-1.123258	0.691370	0.656180	1.175020	-0.427280	-0.576903	0.233215	0.765196	-1.000000	-1.000000	-1.000000	-1.000000	-1.000000	-1.000000	-1.000000	62.000000	0.000000	-1.000000	-1.000000	1248070.000000	1775724102.132974
87886.170000	66274.425000	86301.045000	56239.335000	64773.135000	13600.440000	37188.720000	86827.095000	-1.087351	-1.415587	-0.366419	2.032567	-1.388500	-7.274983	-1.358214	-0.640068	0.427280	0.854560	-0.412020	-0.575926	0.234374	0.767759	-1.000000	-1.000000	-1.000000	-1.000000	-1.000000	-1.000000	-1.000000	62.000000	0.000000	-1.000000	-1.000000	1248071.000000	1775724102.140019
87879.105000	66268.755000	86294.520000	56232.405000	64770.210000	13596.705000	37185.300000	86820.075000	-1.454670	-2.649024	-2.156569	-1.021306	-2.421326	-7.284759	-1.118334	-1.484923	0.427280	0.854560	-0.412020	-0.575926	0.234374	0.767759	-1.000000	-1.000000	-1.000000	-1.000000	-1.000000	-1.000000	-1.000000	62.000000	0.000000	-1.000000	-1.000000	1248072.000000	1775724102.140038
87877.710000	66270.150000	86295.015000	56234.070000	64765.215000	13611.825000	37188.855000	86819.445000	-1.498534	-3.070816	-3.152548	-3.625014	-3.127017	-4.546699	-0.848523	-2.063592	0.427280	0.854560	-0.412020	-0.575926	0.234374	0.767759	-1.000000	-1.000000	-1.000000	-1.000000	-1.000000	-1.000000	-1.000000	62.000000	0.000000	-1.000000	-1.000000	1248073.000000	1775724102.147055
87886.485000	66280.590000	86304.375000	56241.945000	64767.510000	13624.470000	37193.310000	86827.365000	-1.303708	-2.362341	-2.925765	-4.512630	-3.600687	0.560854	-0.547944	-2.204451	0.427280	0.854560	-0.412020	-0.575926	0.234374	0.767759	-1.000000	-1.000000	-1.000000	-1.000000	-1.000000	-1.000000	-1.000000	62.000000	0.000000	-1.000000	-1.000000	1248074.000000	1775724102.147074
87896.430000	66289.680000	86313.375000	56253.285000	64794.105000	13647.960000	37203.660000	86837.580000	-0.085645	-0.048051	-0.909709	-2.740024	-2.731467	6.939767	0.275324	-1.031034	0.427280	0.854560	-0.412020	-0.575926	0.234374	0.767759	-1.000000	-1.000000	-1.000000	-1.000000	-1.000000	-1.000000	-1.000000	62.000000	0.000000	-1.000000	-1.000000	1248075.000000	1775724102.147094
87886.800000	66280.770000	86303.295000	56243.340000	64781.100000	13633.470000	37194.435000	86828.985000	2.126238	3.046047	2.171398	0.888934	0.340140	11.697420	1.506706	1.398370	0.427280	0.854560	-0.412020	-0.575926	0.234374	0.767759	-1.000000	-1.000000	-1.000000	-1.000000	-1.000000	-1.000000	-1.000000	62.000000	0.000000	-1.000000	-1.000000	1248076.000000	1775724102.147104
87875.820000	66268.620000	86286.420000	56219.130000	64727.280000	13597.875000	37190.430000	86823.720000	3.267359	4.308359	3.625881	3.162980	2.725739	10.429175	1.811956	3.064217	0.427280	0.854560	-0.412020	-0.575926	0.234374	0.767759	-1.000000	-1.000000	-1.000000	-1.000000	-1.000000	-1.000000	-1.000000	62.000000	0.000000	-1.000000	-1.000000	1248077.000000	1775724102.155967
87874.785000	66269.475000	86286.825000	56222.055000	64744.335000	13599.675000	37192.455000	86825.970000	1.524089	2.022305	1.491725	1.418616	0.186259	1.258103	0.290058	2.216478	0.427280	0.854560	-0.412020	-0.575926	0.234374	0.767759	-1.000000	-1.000000	-1.000000	-1.000000	-1.000000	-1.000000	-1.000000	62.000000	0.000000	-1.000000	-1.000000	1248078.000000	1775724102.155987
87873.795000	66274.065000	86295.285000	56238.705000	64781.280000	13600.620000	37191.420000	86824.260000	-1.945855	-2.026533	-2.365150	-2.350000	-4.477604	-10.615711	-1.945580	-0.336247	0.427280	0.854560	-0.412020	-0.575926	0.234374	0.767759	-1.000000	-1.000000	-1.000000	-1.000000	-1.000000	-1.000000	-1.000000	62.000000	0.000000	-1.000000	-1.000000	1248079.000000	1775724102.156008
87869.115000	66271.770000	86291.595000	56233.800000	64765.575000	13594.455000	37188.810000	86818.635000	-4.327305	-4.377459	-4.111773	-3.501860	-3.997878	-16.800519	-3.139765	-2.569754	0.427280	0.854560	-0.412020	-0.575926	0.234374	0.767759	-1.000000	-1.000000	-1.000000	-1.000000	-1.000000	-1.000000	-1.000000	62.000000	0.000000	-1.000000	-1.000000	1248080.000000	1775724102.156017
87868.755000	66270.510000	86290.065000	56232.585000	64762.290000	13605.750000	37192.635000	86819.850000	-4.125134	-3.629140	-2.477409	-0.862646	1.914411	-13.648973	-2.638064	-3.369837	-1.159760	2.121140	-0.732480	-0.573607	0.234435	0.770201	-1.000000	-1.000000	-1.000000	-1.000000	-1.000000	-1.000000	-1.000000	62.000000	0.000000	-1.000000	-1.000000	1248081.000000	1775724102.171022
87870.195000	66272.130000	86292.225000	56234.070000	64761.075000	13610.655000	37195.245000	86822.730000	-1.748618	-0.988435	0.695421	2.698037	6.948845	-3.666117	-0.757870	-2.534621	-1.159760	2.121140	-0.732480	-0.573607	0.234435	0.770201	-1.000000	-1.000000	-1.000000	-1.000000	-1.000000	-1.000000	-1.000000	62.000000	0.000000	-1.000000	-1.000000	1248082.000000	1775724102.171042
87871.320000	66275.055000	86292.990000	56232.720000	64745.955000	13610.520000	37198.755000	86825.565000	1.500271	1.762894	3.234365	4.434394	6.879133	7.507423	1.687198	-0.345364	-1.159760	2.121140	-0.732480	-0.573607	0.234435	0.770201	-1.000000	-1.000000	-1.000000	-1.000000	-1.000000	-1.000000	-1.000000	62.000000	0.000000	-1.000000	-1.000000	1248083.000000	1775724102.171065
87869.385000	66272.895000	86292.135000	56236.230000	64770.705000	13619.205000	37199.025000	86823.945000	4.112272	3.464475	4.097501	3.768051	2.699784	14.376766	3.568460	2.206001	-1.159760	2.121140	-0.732480	-0.573607	0.234435	0.770201	-1.000000	-1.000000	-1.000000	-1.000000	-1.000000	-1.000000	-1.000000	62.000000	0.000000	-1.000000	-1.000000	1248084.000000	1775724102.171076
87864.885000	66268.935000	86291.460000	56240.280000	64797.660000	13623.615000	37196.370000	86819.085000	4.835813	3.488170	3.203425	1.768431	-0.851775	14.647569	3.868669	3.618911	-1.159760	2.121140	-0.732480	-0.573607	0.234435	0.770201	-1.000000	-1.000000	-1.000000	-1.000000	-1.000000	-1.000000	-1.000000	62.000000	0.000000	-1.000000	-1.000000	1248085.000000	1775724102.171088
87870.150000	66274.920000	86296.365000	56240.820000	64778.850000	13611.645000	37194.345000	86820.210000	3.459205	1.968506	1.267136	-0.131621	-0.450639	9.369738	2.278476	3.000054	-1.159760	2.121140	-0.732480	-0.573607	0.234435	0.770201	-1.000000	-1.000000	-1.000000	-1.000000	-1.000000	-1.000000	-1.000000	62.000000	0.000000	-1.000000	-1.000000	1248086.000000	1775724102.171096
87874.245000	66279.330000	86301.450000	56245.050000	64779.705000	13602.960000	37195.380000	86820.930000	1.216181	0.145553	-0.458050	-1.237215	1.359267	0.868730	-0.400844	0.986654	-1.159760	2.121140	-0.732480	-0.573607	0.234435	0.770201	-1.000000	-1.000000	-1.000000	-1.000000	-1.000000	-1.000000	-1.000000	62.000000	0.000000	-1.000000	-1.000000	1248087.000000	1775724102.171107
87875.325000	66279.420000	86301.495000	56245.455000	64784.295000	13608.495000	37201.545000	86822.820000	-0.366893	-0.725384	-1.130908	-1.607649	0.561400	-7.641692	-2.533828	-0.875830	-1.159760	2.121140	-0.732480	-0.573607	0.234435	0.770201	-1.000000	-1.000000	-1.000000	-1.000000	-1.000000	-1.000000	-1.000000	62.000000	0.000000	-1.000000	-1.000000	1248088.000000	1775724102.171115
87870.780000	66271.770000	86294.520000	56239.200000	64766.610000	13607.595000	37203.750000	86822.055000	-1.031024	-0.825790	-1.185639	-1.733716	-2.962308	-12.294536	-2.791152	-1.588022	-1.159760	2.121140	-0.732480	-0.573607	0.234435	0.770201	-1.000000	-1.000000	-1.000000	-1.000000	-1.000000	-1.000000	-1.000000	62.000000	0.000000	-1.000000	-1.000000	1248089.000000	1775724102.175796
87869.070000	66266.910000	86290.155000	56231.955000	64760.580000	13607.280000	37202.940000	86821.560000	-1.575667	-1.308086	-1.726112	-2.296106	-7.078251	-11.148603	-1.338458	-1.276963	-1.159760	2.121140	-0.732480	-0.573607	0.234435	0.770201	-1.000000	-1.000000	-1.000000	-1.000000	-1.000000	-1.000000	-1.000000	62.000000	0.000000	-1.000000	-1.000000	1248090.000000	1775724102.175814
87870.510000	66268.530000	86293.260000	56236.680000	64768.680000	13610.970000	37204.335000	86823.405000	-2.369965	-2.460239	-2.871309	-3.240230	-9.359100	-5.667155	0.390279	-0.611178	-1.846460	2.823100	-0.061040	-0.572997	0.233581	0.771727	-1.000000	-1.000000	-1.000000	-1.000000	-1.000000	-1.000000	-1.000000	62.000000	0.000000	-1.000000	-1.000000	1248091.000000	1775724102.179285
87867.405000	66265.785000	86291.055000	56237.445000	64765.845000	13610.835000	37205.730000	86822.280000	-2.874717	-3.190142	-3.424997	-3.335433	-7.629907	0.939528	1.200329	-0.063977	-1.846460	2.823100	-0.061040	-0.572997	0.233581	0.771727	-1.000000	-1.000000	-1.000000	-1.000000	-1.000000	-1.000000	-1.000000	62.000000	0.000000	-1.000000	-1.000000	1248092.000000	1775724102.179302
87862.545000	66261.465000	86286.330000	56232.315000	64754.190000	13608.495000	37202.670000	86818.095000	-2.651100	-2.582221	-2.558966	-1.753989	-2.331074	5.707030	0.895626	0.103419	-1.846460	2.823100	-0.061040	-0.572997	0.233581	0.771727	-1.000000	-1.000000	-1.000000	-1.000000	-1.000000	-1.000000	-1.000000	62.000000	0.000000	-1.000000	-1.000000	1248093.000000	1775724102.181804
87866.415000	66268.665000	86292.360000	56236.185000	64757.790000	13609.575000	37203.390000	86819.715000	-1.798949	-0.798483	-0.668777	0.725436	3.336458	7.060093	-0.115109	-0.207919	-1.846460	2.823100	-0.061040	-0.572997	0.233581	0.771727	-1.000000	-1.000000	-1.000000	-1.000000	-1.000000	-1.000000	-1.000000	62.000000	0.000000	-1.000000	-1.000000	1248094.000000	1775724102.181819
87867.180000	66268.620000	86294.205000	56236.815000	64751.760000	13612.275000	37206.270000	86821.425000	-0.389632	1.586445	1.576850	2.861585	6.734953	5.415285	-1.096255	-0.596114	-1.846460	2.823100	-0.061040	-0.572997	0.233581	0.771727	-1.000000	-1.000000	-1.000000	-1.000000	-1.000000	-1.000000	-1.000000	62.000000	0.000000	-1.000000	-1.000000	1248095.000000	1775724102.184288
87864.255000	66263.220000	86289.525000	56233.890000	64738.350000	13603.275000	37205.595000	86820.480000	1.333378	3.623599	3.455422	3.919330	7.094645	2.345344	-1.318171	-0.487614	-1.846460	2.823100	-0.061040	-0.572997	0.233581	0.771727	-1.000000	-1.000000	-1.000000	-1.000000	-1.000000	-1.000000	-1.000000	62.000000	0.000000	-1.000000	-1.000000	1248096.000000	1775724102.184301
87862.455000	66263.715000	86288.535000	56231.685000	64746.225000	13591.260000	37204.560000	86819.310000	2.534349	4.069110	3.938834	3.500791	4.928261	-1.069346	-0.742990	0.075042	-1.846460	2.823100	-0.061040	-0.572997	0.233581	0.771727	-1.000000	-1.000000	-1.000000	-1.000000	-1.000000	-1.000000	-1.000000	62.000000	0.000000	-1.000000	-1.000000	1248097.000000	1775724102.190369
87858.450000	66262.635000	86285.160000	56227.095000	64750.860000	13578.795000	37204.920000	86816.250000	2.478080	2.662648	2.611583	1.715038	2.245664	-4.395133	0.032426	0.510564	-1.846460	2.823100	-0.061040	-0.572997	0.233581	0.771727	-1.000000	-1.000000	-1.000000	-1.000000	-1.000000	-1.000000	-1.000000	62.000000	0.000000	-1.000000	-1.000000	1248098.000000	1775724102.190386
87860.565000	66264.975000	86284.125000	56223.855000	64715.265000	13577.760000	37206.360000	86816.970000	1.335079	0.494494	0.263890	-0.659966	0.474519	-6.666626	0.558331	0.439123	-1.846460	2.823100	-0.061040	-0.572997	0.233581	0.771727	-1.000000	-1.000000	-1.000000	-1.000000	-1.000000	-1.000000	-1.000000	62.000000	0.000000	-1.000000	-1.000000	1248099.000000	1775724102.201689
87871.905000	66275.730000	86295.195000	56236.590000	64725.885000	13600.620000	37211.895000	86823.135000	0.263610	-0.926377	-1.565187	-2.280680	-1.302404	-5.864873	0.904724	0.191811	-1.846460	2.823100	-0.061040	-0.572997	0.233581	0.771727	-1.000000	-1.000000	-1.000000	-1.000000	-1.000000	-1.000000	-1.000000	62.000000	0.000000	-1.000000	-1.000000	1248100.000000	1775724102.201710
87859.845000	66267.630000	86293.125000	56249.370000	64818.720000	13632.525000	37211.175000	86814.810000	0.207975	-0.893222	-1.608609	-1.635405	-1.423505	-0.153451	1.277642	0.263986	-0.839300	3.250380	-0.259420	-0.574034	0.233032	0.771727	-1.000000	-1.000000	-1.000000	-1.000000	-1.000000	-1.000000	-1.000000	62.000000	0.000000	-1.000000	-1.000000	1248101.000000	1775724102.201730
87855.345000	66263.895000	86288.355000	56244.510000	64804.365000	13603.500000	37206.270000	86812.245000	0.378148	-0.389462	-0.306461	1.219701	4.371478	8.474693	1.361677	0.312614	-0.839300	3.250380	-0.259420	-0.574034	0.233032	0.771727	-1.000000	-1.000000	-1.000000	-1.000000	-1.000000	-1.000000	-1.000000	62.000000	0.000000	-1.000000	-1.000000	1248102.000000	1775724102.201738
87858.855000	66266.370000	86287.185000	56237.445000	64768.095000	13578.750000	37207.125000	86816.295000	-0.397674	-0.749853	0.552687	3.589430	12.010152	12.764606	0.594166	-0.130682	-0.839300	3.250380	-0.259420	-0.574034	0.233032	0.771727	-1.000000	-1.000000	-1.000000	-1.000000	-1.000000	-1.000000	-1.000000	62.000000	0.000000	-1.000000	-1.000000	1248103.000000	1775724102.201749
87858.855000	66266.145000	86285.205000	56233.890000	64770.345000	13589.820000	37207.080000	86815.980000	-1.531123	-1.709102	0.051130	2.709598	10.654976	7.622285	-0.777586	-0.548295	-0.839300	3.250380	-0.259420	-0.574034	0.233032	0.771727	-1.000000	-1.000000	-1.000000	-1.000000	-1.000000	-1.000000	-1.000000	62.000000	0.000000	-1.000000	-1.000000	1248104.000000	1775724102.201757
87862.680000	66270.735000	86289.930000	56239.875000	64793.385000	13632.030000	37217.115000	86819.085000	-1.685182	-2.043343	-1.046587	-0.954967	-1.174581	-1.997035	-1.602581	-0.269665	-0.839300	3.250380	-0.259420	-0.574034	0.233032	0.771727	-1.000000	-1.000000	-1.000000	-1.000000	-1.000000	-1.000000	-1.000000	62.000000	0.000000	-1.000000	-1.000000	1248105.000000	1775724102.205808
87863.535000	66274.470000	86292.720000	56242.800000	64790.460000	13649.445000	37221.255000	86820.975000	-0.556221	-1.111781	-1.394677	-4.242448	-13.510261	-6.291703	-0.903435	0.600600	-0.839300	3.250380	-0.259420	-0.574034	0.233032	0.771727	-1.000000	-1.000000	-1.000000	-1.000000	-1.000000	-1.000000	-1.000000	62.000000	0.000000	-1.000000	-1.000000	1248106.000000	1775724102.205826
87862.500000	66274.560000	86294.430000	56246.940000	64781.505000	13605.480000	37217.970000	86819.895000	0.999091	0.641888	-0.463620	-4.646544	-18.116366	-3.253816	0.872369	1.406172	-0.839300	3.250380	-0.259420	-0.574034	0.233032	0.771727	-1.000000	-1.000000	-1.000000	-1.000000	-1.000000	-1.000000	-1.000000	62.000000	0.000000	-1.000000	-1.000000	1248107.000000	1775724102.217139
87854.985000	66264.255000	86285.655000	56237.580000	64742.760000	13543.560000	37211.535000	86814.405000	1.675178	1.833375	0.839659	-2.496772	-15.634713	-1.450792	1.871966	1.353687	-0.839300	3.250380	-0.259420	-0.574034	0.233032	0.771727	-1.000000	-1.000000	-1.000000	-1.000000	-1.000000	-1.000000	-1.000000	62.000000	0.000000	-1.000000	-1.000000	1248108.000000	1775724102.217158
87853.950000	66264.255000	86284.485000	56236.500000	64748.745000	13584.645000	37214.370000	86812.785000	0.757785	1.224698	1.059592	-0.112330	-10.887429	-7.045163	0.849993	0.095063	-0.839300	3.250380	-0.259420	-0.574034	0.233032	0.771727	-1.000000	-1.000000	-1.000000	-1.000000	-1.000000	-1.000000	-1.000000	62.000000	0.000000	-1.000000	-1.000000	1248109.000000	1775724102.217178
87852.105000	66264.210000	86284.305000	56241.585000	64782.270000	13652.370000	37218.510000	86811.480000	-1.089663	-0.735214	-0.071896	0.953214	-5.089295	-12.214249	-1.217538	-1.712386	-0.839300	3.250380	-0.259420	-0.574034	0.233032	0.771727	-1.000000	-1.000000	-1.000000	-1.000000	-1.000000	-1.000000	-1.000000	62.000000	0.000000	-1.000000	-1.000000	1248110.000000	1775724102.217187
87855.795000	66267.360000	86285.340000	56240.955000	64772.145000	13628.205000	37219.320000	86815.755000	-2.310436	-2.182267	-1.320593	1.143179	3.672466	-5.989196	-2.336588	-2.736801	-0.320460	4.272800	0.671440	-0.574583	0.232299	0.771360	-1.000000	-1.000000	-1.000000	-1.000000	-1.000000	-1.000000	-1.000000	62.000000	0.000000	-1.000000	-1.000000	1248111.000000	1775724102.217197
87857.910000	66269.970000	86286.780000	56240.910000	64754.190000	13612.995000	37219.680000	86818.320000	-1.810143	-1.775716	-1.441192	1.304406	12.995463	7.757289	-1.753889	-2.039301	-0.320460	4.272800	0.671440	-0.574583	0.232299	0.771360	-1.000000	-1.000000	-1.000000	-1.000000	-1.000000	-1.000000	-1.000000	62.000000	0.000000	-1.000000	-1.000000	1248112.000000	1775724102.217205
87853.770000	66265.830000	86282.730000	56235.555000	64751.805000	13601.970000	37217.070000	86814.315000	0.065741	0.101791	-0.395372	1.365059	16.632605	15.420542	-0.340319	-0.015198	-0.320460	4.272800	0.671440	-0.574583	0.232299	0.771360	-1.000000	-1.000000	-1.000000	-1.000000	-1.000000	-1.000000	-1.000000	62.000000	0.000000	-1.000000	-1.000000	1248113.000000	1775724102.226742
87848.460000	66262.680000	86281.335000	56234.160000	64767.780000	13596.525000	37214.955000	86809.950000	1.718422	1.795276	0.809572	0.856646	12.811238	10.993655	0.633181	1.725779	-0.320460	4.272800	0.671440	-0.574583	0.232299	0.771360	-1.000000	-1.000000	-1.000000	-1.000000	-1.000000	-1.000000	-1.000000	62.000000	0.000000	-1.000000	-1.000000	1248114.000000	1775724102.226767
87848.010000	66262.680000	86282.010000	56235.555000	64764.180000	13601.205000	37217.655000	86810.670000	1.836303	2.021950	1.295038	-0.098395	5.866028	-0.120338	0.686846	1.913258	-0.320460	4.272800	0.671440	-0.574583	0.232299	0.771360	-1.000000	-1.000000	-1.000000	-1.000000	-1.000000	-1.000000	-1.000000	62.000000	0.000000	-1.000000	-1.000000	1248115.000000	1775724102.226782
87853.995000	66268.755000	86287.095000	56242.170000	64769.535000	13605.345000	37218.780000	86813.595000	0.803979	1.119254	1.186663	-0.608931	0.252512	-8.865990	0.362530	0.914059	-0.320460	4.272800	0.671440	-0.574583	0.232299	0.771360	-1.000000	-1.000000	-1.000000	-1.000000	-1.000000	-1.000000	-1.000000	62.000000	0.000000	-1.000000	-1.000000	1248116.000000	1775724102.226788
87850.395000	66267.675000	86285.160000	56242.845000	64770.120000	13604.760000	37216.170000	86809.185000	0.001772	0.343310	1.082442	0.020438	-2.777584	-10.175336	0.283671	-0.057912	-0.320460	4.272800	0.671440	-0.574583	0.232299	0.771360	-1.000000	-1.000000	-1.000000	-1.000000	-1.000000	-1.000000	-1.000000	62.000000	0.000000	-1.000000	-1.000000	1248117.000000	1775724102.232596
87842.160000	66261.420000	86276.835000	56237.895000	64762.335000	13591.035000	37213.560000	86800.590000	-0.182253	0.106597	0.882395	1.204480	-4.045494	-5.520608	0.341446	-0.625566	-0.320460	4.272800	0.671440	-0.574583	0.232299	0.771360	-1.000000	-1.000000	-1.000000	-1.000000	-1.000000	-1.000000	-1.000000	62.000000	0.000000	-1.000000	-1.000000	1248118.000000	1775724102.232615
87846.390000	66263.670000	86278.410000	56236.185000	64754.955000	13569.120000	37214.685000	86802.615000	-0.409427	-0.203342	-0.008335	1.522795	-4.936830	-0.237915	0.179764	-1.158396	-0.320460	4.272800	0.671440	-0.574583	0.232299	0.771360	-1.000000	-1.000000	-1.000000	-1.000000	-1.000000	-1.000000	-1.000000	62.000000	0.000000	-1.000000	-1.000000	1248119.000000	1775724102.232687
87852.735000	66267.495000	86282.775000	56237.085000	64757.205000	13579.920000	37219.590000	86809.860000	-0.593408	-0.699482	-1.218198	0.447999	-5.911098	1.882959	0.009738	-1.303719	-0.320460	4.272800	0.671440	-0.574583	0.232299	0.771360	-1.000000	-1.000000	-1.000000	-1.000000	-1.000000	-1.000000	-1.000000	62.000000	0.000000	-1.000000	-1.000000	1248120.000000	1775724102.232700
87848.460000	66259.305000	86275.035000	56230.695000	64764.000000	13630.995000	37225.800000	86810.220000	-0.051514	-0.888458	-1.684429	-1.193835	-5.770909	2.745562	0.426798	-0.226575	-1.358140	4.043900	0.412020	-0.574095	0.233398	0.770994	-1.000000	-1.000000	-1.000000	-1.000000	-1.000000	-1.000000	-1.000000	62.000000	0.000000	-1.000000	-1.000000	1248121.000000	1775724102.247726
87847.965000	66257.505000	86274.720000	56233.935000	64775.745000	13627.530000	37227.870000	86811.795000	0.849025	-0.882671	-1.304939	-2.335332	-3.101050	6.540521	1.494514	1.731083	-1.358140	4.043900	0.412020	-0.574095	0.233398	0.770994	-1.000000	-1.000000	-1.000000	-1.000000	-1.000000	-1.000000	-1.000000	62.000000	0.000000	-1.000000	-1.000000	1248122.000000	1775724102.247745
87846.705000	66260.925000	86278.455000	56239.560000	64759.005000	13599.225000	37221.660000	86808.330000	1.088164	-0.955113	-0.611156	-2.190716	1.337727	11.262992	2.231359	3.050125	-1.358140	4.043900	0.412020	-0.574095	0.233398	0.770994	-1.000000	-1.000000	-1.000000	-1.000000	-1.000000	-1.000000	-1.000000	62.000000	0.000000	-1.000000	-1.000000	1248123.000000	1775724102.247766
87852.870000	66267.900000	86284.305000	56243.880000	64753.515000	13586.445000	37221.615000	86810.445000	0.531529	-0.560674	0.408008	-0.467349	4.318836	9.740914	1.433760	2.628998	-1.358140	4.043900	0.412020	-0.574095	0.233398	0.770994	-1.000000	-1.000000	-1.000000	-1.000000	-1.000000	-1.000000	-1.000000	62.000000	0.000000	-1.000000	-1.000000	1248124.000000	1775724102.247776
87852.465000	66267.990000	86282.640000	56242.170000	64751.445000	13594.275000	37226.880000	86810.985000	-0.059754	0.784248	1.755132	1.958586	3.593985	0.307023	-0.687070	0.797733	-1.358140	4.043900	0.412020	-0.574095	0.233398	0.770994	-1.000000	-1.000000	-1.000000	-1.000000	-1.000000	-1.000000	-1.000000	62.000000	0.000000	-1.000000	-1.000000	1248125.000000	1775724102.247787
87842.610000	66259.800000	86276.835000	56242.215000	64755.045000	13604.220000	37224.360000	86803.020000	-0.405225	2.186465	2.527379	3.366686	0.594139	-10.001764	-2.527022	-1.338340	-1.358140	4.043900	0.412020	-0.574095	0.233398	0.770994	-1.000000	-1.000000	-1.000000	-1.000000	-1.000000	-1.000000	-1.000000	62.000000	0.000000	-1.000000	-1.000000	1248126.000000	1775724102.247796
87844.320000	66260.610000	86278.410000	56247.615000	64782.000000	13618.845000	37226.475000	86804.370000	-1.031608	2.111376	1.745016	2.838274	-1.100950	-13.294058	-2.957538	-2.999645	-1.358140	4.043900	0.412020	-0.574095	0.233398	0.770994	-1.000000	-1.000000	-1.000000	-1.000000	-1.000000	-1.000000	-1.000000	62.000000	0.000000	-1.000000	-1.000000	1248127.000000	1775724102.248425
87846.930000	66262.320000	86274.900000	56236.545000	64747.755000	13580.505000	37224.900000	86805.765000	-1.813774	0.456955	-0.257260	0.852009	0.153787	-8.784011	-2.132126	-3.593100	-1.358140	4.043900	0.412020	-0.574095	0.233398	0.770994	-1.000000	-1.000000	-1.000000	-1.000000	-1.000000	-1.000000	-1.000000	62.000000	0.000000	-1.000000	-1.000000	1248128.000000	1775724102.248436
87848.820000	66259.800000	86266.395000	56219.175000	64676.430000	13526.370000	37223.190000	86807.970000	-1.736117	-1.337650	-2.309923	-2.034598	0.391434	-3.490742	-0.847060	-2.616285	-1.358140	4.043900	0.412020	-0.574095	0.233398	0.770994	-1.000000	-1.000000	-1.000000	-1.000000	-1.000000	-1.000000	-1.000000	62.000000	0.000000	-1.000000	-1.000000	1248129.000000	1775724102.263799
87855.570000	66265.380000	86271.795000	56223.180000	64685.250000	13538.295000	37225.215000	86811.975000	-0.332577	-2.021294	-3.483577	-5.200195	-5.075298	-3.581355	0.194954	-0.329748	-1.358140	4.043900	0.412020	-0.574095	0.233398	0.770994	-1.000000	-1.000000	-1.000000	-1.000000	-1.000000	-1.000000	-1.000000	62.000000	0.000000	-1.000000	-1.000000	1248130.000000	1775724102.263818
87839.865000	66252.870000	86267.070000	56234.160000	64761.075000	13613.670000	37227.555000	86800.770000	1.455393	-1.541546	-3.129427	-6.479484	-10.761751	-4.613831	0.871463	1.974939	-1.876980	3.479280	-0.152600	-0.573851	0.235534	0.770079	-1.000000	-1.000000	-1.000000	-1.000000	-1.000000	-1.000000	-1.000000	62.000000	0.000000	-1.000000	-1.000000	1248131.000000	1775724102.263837
87827.310000	66243.780000	86261.310000	56236.545000	64781.505000	13644.000000	37226.970000	86792.175000	1.638172	-1.036948	-1.412344	-3.708240	-5.185551	3.138523	1.370160	2.525798	-1.876980	3.479280	-0.152600	-0.573851	0.235534	0.770079	-1.000000	-1.000000	-1.000000	-1.000000	-1.000000	-1.000000	-1.000000	62.000000	0.000000	-1.000000	-1.000000	1248132.000000	1775724102.263846
87839.055000	66254.850000	86271.120000	56241.495000	64762.785000	13600.620000	37230.435000	86803.110000	-0.396471	-1.210287	0.694812	2.098916	11.204505	18.062344	1.659225	0.968265	-1.876980	3.479280	-0.152600	-0.573851	0.235534	0.770079	-1.000000	-1.000000	-1.000000	-1.000000	-1.000000	-1.000000	-1.000000	62.000000	0.000000	-1.000000	-1.000000	1248133.000000	1775724102.263856
87834.960000	66248.460000	86266.080000	56235.960000	64779.030000	13603.950000	37229.130000	86800.545000	-2.344537	-1.044313	2.557708	7.198035	24.196121	25.824928	1.575251	-0.724854	-1.876980	3.479280	-0.152600	-0.573851	0.235534	0.770079	-1.000000	-1.000000	-1.000000	-1.000000	-1.000000	-1.000000	-1.000000	62.000000	0.000000	-1.000000	-1.000000	1248134.000000	1775724102.263865
87832.935000	66247.605000	86265.585000	56235.150000	64771.065000	13607.145000	37229.355000	86799.555000	-2.031562	0.232856	3.666680	8.334098	22.865172	17.614470	1.020362	-0.827721	-1.876980	3.479280	-0.152600	-0.573851	0.235534	0.770079	-1.000000	-1.000000	-1.000000	-1.000000	-1.000000	-1.000000	-1.000000	62.000000	0.000000	-1.000000	-1.000000	1248135.000000	1775724102.279753
87834.375000	66247.425000	86264.055000	56234.160000	64763.055000	13602.375000	37233.720000	86801.805000	0.056935	1.819197	3.374530	5.117426	8.561152	-0.498357	0.152238	0.273717	-1.876980	3.479280	-0.152600	-0.573851	0.235534	0.770079	-1.000000	-1.000000	-1.000000	-1.000000	-1.000000	-1.000000	-1.000000	62.000000	0.000000	-1.000000	-1.000000	1248136.000000	1775724102.279772
87839.325000	66250.305000	86267.430000	56237.445000	64763.190000	13598.505000	37234.170000	86805.045000	2.366590	2.795590	1.848602	-0.027658	-9.932138	-16.841402	-0.535943	1.464463	-1.876980	3.479280	-0.152600	-0.573851	0.235534	0.770079	-1.000000	-1.000000	-1.000000	-1.000000	-1.000000	-1.000000	-1.000000	62.000000	0.000000	-1.000000	-1.000000	1248137.000000	1775724102.279791
87842.160000	66254.130000	86269.500000	56236.500000	64754.055000	13592.880000	37232.325000	86803.470000	3.924812	3.027421	0.138725	-4.031847	-23.197885	-24.049156	-0.799121	2.065666	-1.876980	3.479280	-0.152600	-0.573851	0.235534	0.770079	-1.000000	-1.000000	-1.000000	-1.000000	-1.000000	-1.000000	-1.000000	62.000000	0.000000	-1.000000	-1.000000	1248138.000000	1775724102.279801
87843.870000	66257.415000	86271.840000	56239.380000	64758.780000	13593.015000	37229.490000	86802.030000	4.249294	2.746906	-0.838979	-5.296593	-25.970803	-21.109098	-0.969595	1.688591	-1.876980	3.479280	-0.152600	-0.573851	0.235534	0.770079	-1.000000	-1.000000	-1.000000	-1.000000	-1.000000	-1.000000	-1.000000	62.000000	0.000000	-1.000000	-1.000000	1248139.000000	1775724102.279811
87844.680000	66257.595000	86272.695000	56240.595000	64762.020000	13592.115000	37229.445000	86802.210000	3.135280	2.025188	-0.982903	-4.064824	-18.582923	-11.355069	-1.328671	0.355454	-1.876980	3.479280	-0.152600	-0.573851	0.235534	0.770079	-1.000000	-1.000000	-1.000000	-1.000000	-1.000000	-1.000000	-1.000000	62.000000	0.000000	-1.000000	-1.000000	1248140.000000	1775724102.279819
87842.070000	66255.165000	86270.580000	56236.185000	64752.210000	13586.940000	37229.715000	86800.185000	0.812417	0.675657	-0.848569	-1.711632	-5.647122	0.166049	-1.587905	-1.292624	-2.273740	3.265640	1.266580	-0.575255	0.234985	0.768614	-1.000000	-1.000000	-1.000000	-1.000000	-1.000000	-1.000000	-1.000000	62.000000	0.000000	-1.000000	-1.000000	1248141.000000	1775724102.279830
87842.970000	66260.385000	86275.260000	56240.595000	64767.330000	13606.740000	37235.430000	86802.120000	-1.975914	-1.192815	-0.932944	0.251181	6.673322	9.263202	-1.162115	-2.401439	-2.273740	3.265640	1.266580	-0.575255	0.234985	0.768614	-1.000000	-1.000000	-1.000000	-1.000000	-1.000000	-1.000000	-1.000000	62.000000	0.000000	-1.000000	-1.000000	1248142.000000	1775724102.279837
87841.755000	66259.890000	86274.000000	56238.795000	64755.135000	13603.905000	37236.285000	86802.705000	-4.151629	-2.787206	-1.150353	1.191172	14.087250	14.214803	0.170167	-2.420013	-2.273740	3.265640	1.266580	-0.575255	0.234985	0.768614	-1.000000	-1.000000	-1.000000	-1.000000	-1.000000	-1.000000	-1.000000	62.000000	0.000000	-1.000000	-1.000000	1248143.000000	1775724102.295506
87836.625000	66254.085000	86265.450000	56223.270000	64679.040000	13528.440000	37228.230000	86798.835000	-4.938105	-3.467716	-1.368915	1.025731	13.801665	13.302109	1.637110	-1.471605	-2.273740	3.265640	1.266580	-0.575255	0.234985	0.768614	-1.000000	-1.000000	-1.000000	-1.000000	-1.000000	-1.000000	-1.000000	62.000000	0.000000	-1.000000	-1.000000	1248144.000000	1775724102.295524
87838.425000	66255.975000	86266.665000	56222.910000	64704.330000	13519.035000	37232.235000	86800.635000	-4.302257	-3.380164	-1.783849	-0.343277	5.134896	4.322518	1.989564	-0.284300	-2.273740	3.265640	1.266580	-0.575255	0.234985	0.768614	-1.000000	-1.000000	-1.000000	-1.000000	-1.000000	-1.000000	-1.000000	62.000000	0.000000	-1.000000	-1.000000	1248145.000000	1775724102.295543
87834.735000	66250.395000	86263.065000	56228.445000	64796.895000	13610.430000	37237.995000	86797.485000	-2.615049	-2.796389	-2.158286	-1.917929	-3.722671	-7.043112	1.200206	0.529390	-2.273740	3.265640	1.266580	-0.575255	0.234985	0.768614	-1.000000	-1.000000	-1.000000	-1.000000	-1.000000	-1.000000	-1.000000	62.000000	0.000000	-1.000000	-1.000000	1248146.000000	1775724102.295552
87829.560000	66246.615000	86260.545000	56228.310000	64783.530000	13617.630000	37233.315000	86792.400000	-0.529293	-1.874469	-1.880321	-1.809275	-1.058627	-7.940296	0.363668	0.729952	-2.273740	3.265640	1.266580	-0.575255	0.234985	0.768614	-1.000000	-1.000000	-1.000000	-1.000000	-1.000000	-1.000000	-1.000000	62.000000	0.000000	-1.000000	-1.000000	1248147.000000	1775724102.295562
87835.185000	66254.535000	86268.105000	56234.970000	64759.680000	13584.330000	37234.665000	86795.685000	1.244192	-0.664677	-0.657052	0.484430	10.526259	3.494182	-0.086191	0.391272	-2.273740	3.265640	1.266580	-0.575255	0.234985	0.768614	-1.000000	-1.000000	-1.000000	-1.000000	-1.000000	-1.000000	-1.000000	62.000000	0.000000	-1.000000	-1.000000	1248148.000000	1775724102.295570
87832.125000	66251.385000	86264.910000	56232.720000	64754.100000	13575.870000	37235.385000	86793.795000	2.529024	1.027103	1.358458	3.488424	16.206229	13.583155	-0.414263	0.061894	-2.273740	3.265640	1.266580	-0.575255	0.234985	0.768614	-1.000000	-1.000000	-1.000000	-1.000000	-1.000000	-1.000000	-1.000000	62.000000	0.000000	-1.000000	-1.000000	1248149.000000	1775724102.295580
87831.720000	66250.710000	86263.020000	56229.930000	64741.185000	13584.555000	37236.285000	86793.885000	3.285458	2.831553	3.249520	5.068107	8.443981	11.690346	-0.635309	0.219593	-2.273740	3.265640	1.266580	-0.575255	0.234985	0.768614	-1.000000	-1.000000	-1.000000	-1.000000	-1.000000	-1.000000	-1.000000	62.000000	0.000000	-1.000000	-1.000000	1248150.000000	1775724102.295588
87836.085000	66253.770000	86265.045000	56230.380000	64723.545000	13586.670000	37239.795000	86797.890000	3.300981	3.775634	3.815194	4.020148	-7.168000	1.053174	-0.556546	0.788076	0.183120	2.884140	-0.564620	-0.575072	0.233947	0.766905	-1.000000	-1.000000	-1.000000	-1.000000	-1.000000	-1.000000	-1.000000	62.000000	0.000000	-1.000000	-1.000000	1248151.000000	1775724102.298004
87833.250000	66250.665000	86263.560000	56235.780000	64771.605000	13595.310000	37239.255000	86795.595000	2.639181	3.412146	2.840903	1.142241	-19.480922	-8.911931	-0.151292	1.419210	0.183120	2.884140	-0.564620	-0.575072	0.233947	0.766905	-1.000000	-1.000000	-1.000000	-1.000000	-1.000000	-1.000000	-1.000000	62.000000	0.000000	-1.000000	-1.000000	1248152.000000	1775724102.298021
87833.970000	66253.815000	86265.630000	56236.545000	64767.510000	13570.110000	37234.575000	86793.030000	1.484507	2.032812	1.087404	-1.546395	-19.731260	-12.767687	0.188972	1.573960	0.183120	2.884140	-0.564620	-0.575072	0.233947	0.766905	-1.000000	-1.000000	-1.000000	-1.000000	-1.000000	-1.000000	-1.000000	62.000000	0.000000	-1.000000	-1.000000	1248153.000000	1775724102.306824
87831.720000	66251.880000	86262.300000	56231.145000	64747.170000	13571.280000	37236.420000	86791.950000	-0.008959	0.289668	-0.588873	-2.863849	-8.940518	-11.408689	-0.032949	0.825391	0.183120	2.884140	-0.564620	-0.575072	0.233947	0.766905	-1.000000	-1.000000	-1.000000	-1.000000	-1.000000	-1.000000	-1.000000	62.000000	0.000000	-1.000000	-1.000000	1248154.000000	1775724102.306844
87831.945000	66252.060000	86262.885000	56233.305000	64749.735000	13574.880000	37238.130000	86794.335000	-1.469336	-1.171122	-1.725317	-3.093225	3.097712	-7.563924	-0.602801	-0.467678	0.183120	2.884140	-0.564620	-0.575072	0.233947	0.766905	-1.000000	-1.000000	-1.000000	-1.000000	-1.000000	-1.000000	-1.000000	62.000000	0.000000	-1.000000	-1.000000	1248155.000000	1775724102.306866
87830.955000	66251.205000	86262.165000	56230.380000	64744.830000	13570.200000	37236.240000	86794.110000	-2.395807	-2.017020	-2.177905	-2.778984	8.755990	-2.462970	-0.826671	-1.376885	0.183120	2.884140	-0.564620	-0.575072	0.233947	0.766905	-1.000000	-1.000000	-1.000000	-1.000000	-1.000000	-1.000000	-1.000000	62.000000	0.000000	-1.000000	-1.000000	1248156.000000	1775724102.306875
