Channel1	Channel2	Channel3	Channel4	Channel5	Channel6	Channel7	Channel8	FilteredChannel1	FilteredChannel2	FilteredChannel3	FilteredChannel4	FilteredChannel5	FilteredChannel6	FilteredChannel7	FilteredChannel8	GyroX	GyroY	GyroZ	AccX	AccY	AccZ	PPG1	PPG2	rawPPG1	rawPPG2	rawPPG3	Hr	Hrv	Battery	Trigger	PhysicalTrigger	AutoTrigger	NumMeasurements	Timestamp
62351.325000	37239.345000	57573.675000	21253.770000	44281.260000	23932.845000	13842.045000	63926.280000	5.801685	9.331596	8.577697	6.147144	2.704758	8.933995	5.872778	6.682121	0.015260	1.632820	2.182180	-0.719664	0.131591	0.666502	-1.000000	-1.000000	-1.000000	-1.000000	-1.000000	-1.000000	-1.000000	63.000000	0.000000	-1.000000	-1.000000	1088261.000000	1775723782.088457
62351.505000	37227.555000	57559.545000	21239.550000	44268.120000	23917.860000	13836.555000	63928.800000	3.394063	6.163991	5.913652	5.789615	6.210957	7.692117	6.156882	7.739446	0.015260	1.632820	2.182180	-0.719664	0.131591	0.666502	-1.000000	-1.000000	-1.000000	-1.000000	-1.000000	-1.000000	-1.000000	63.000000	0.000000	-1.000000	-1.000000	1088262.000000	1775723782.088476
62346.060000	37222.200000	57554.460000	21233.835000	44261.595000	23910.435000	13832.235000	63920.385000	-0.109427	-0.770455	-0.837148	0.887140	3.660231	-0.178558	2.527977	5.430120	0.015260	1.632820	2.182180	-0.719664	0.131591	0.666502	-1.000000	-1.000000	-1.000000	-1.000000	-1.000000	-1.000000	-1.000000	63.000000	0.000000	-1.000000	-1.000000	1088263.000000	1775723782.088495
62343.180000	37225.395000	57559.500000	21241.890000	44266.860000	23908.770000	13829.985000	63915.795000	-3.734640	-8.200707	-8.184225	-5.480424	-1.897578	-9.134191	-3.385531	-0.667614	0.015260	1.632820	2.182180	-0.719664	0.131591	0.666502	-1.000000	-1.000000	-1.000000	-1.000000	-1.000000	-1.000000	-1.000000	63.000000	0.000000	-1.000000	-1.000000	1088264.000000	1775723782.088504
62341.110000	37224.450000	57559.545000	21245.355000	44269.290000	23928.255000	13828.635000	63915.435000	-6.220471	-11.816528	-11.429732	-8.456878	-5.220732	-12.570671	-8.168494	-7.995708	0.015260	1.632820	2.182180	-0.719664	0.131591	0.666502	-1.000000	-1.000000	-1.000000	-1.000000	-1.000000	-1.000000	-1.000000	63.000000	0.000000	-1.000000	-1.000000	1088265.000000	1775723782.100298
62333.235000	37218.330000	57552.660000	21244.320000	44266.185000	23946.660000	13829.625000	63908.100000	-6.629474	-9.873335	-8.861624	-5.962772	-3.770549	-7.461937	-9.212935	-12.690583	0.015260	1.632820	2.182180	-0.719664	0.131591	0.666502	-1.000000	-1.000000	-1.000000	-1.000000	-1.000000	-1.000000	-1.000000	63.000000	0.000000	-1.000000	-1.000000	1088266.000000	1775723782.100315
62335.170000	37222.020000	57556.395000	21248.325000	44264.160000	23925.330000	13824.315000	63904.815000	-4.946414	-4.217867	-2.808070	-0.217241	0.669693	2.962494	-6.331153	-12.550452	0.015260	1.632820	2.182180	-0.719664	0.131591	0.666502	-1.000000	-1.000000	-1.000000	-1.000000	-1.000000	-1.000000	-1.000000	63.000000	0.000000	-1.000000	-1.000000	1088267.000000	1775723782.100335
62333.820000	37221.885000	57554.865000	21246.795000	44258.940000	23923.035000	13819.995000	63898.785000	-1.796850	2.057618	3.246166	4.974740	4.540732	10.816575	-1.573001	-8.168398	0.015260	1.632820	2.182180	-0.719664	0.131591	0.666502	-1.000000	-1.000000	-1.000000	-1.000000	-1.000000	-1.000000	-1.000000	63.000000	0.000000	-1.000000	-1.000000	1088268.000000	1775723782.100344
62334.585000	37219.995000	57554.370000	21247.470000	44263.935000	23940.540000	13822.380000	63896.175000	1.873815	6.559971	6.992941	7.077397	5.721849	11.120916	2.599421	-1.818255	0.015260	1.632820	2.182180	-0.719664	0.131591	0.666502	-1.000000	-1.000000	-1.000000	-1.000000	-1.000000	-1.000000	-1.000000	63.000000	0.000000	-1.000000	-1.000000	1088269.000000	1775723782.100353
62341.695000	37226.970000	57562.245000	21254.040000	44254.305000	23931.405000	13830.840000	63909.630000	4.971501	8.138808	7.774182	5.863325	4.384685	5.975576	5.195705	4.352205	0.015260	1.632820	2.182180	-0.719664	0.131591	0.666502	-1.000000	-1.000000	-1.000000	-1.000000	-1.000000	-1.000000	-1.000000	63.000000	0.000000	-1.000000	-1.000000	1088270.000000	1775723782.100361
62350.695000	37234.890000	57567.420000	21252.330000	44223.255000	23888.205000	13831.425000	63922.815000	6.849696	7.252017	6.458170	2.890682	1.163153	-0.991102	6.485436	9.429753	0.610400	0.671440	0.900340	-0.719053	0.135498	0.665159	-1.000000	-1.000000	-1.000000	-1.000000	-1.000000	-1.000000	-1.000000	63.000000	0.000000	-1.000000	-1.000000	1088271.000000	1775723782.101884
62355.465000	37239.840000	57571.695000	21260.610000	44252.910000	23900.670000	13838.760000	63924.030000	7.302862	5.243511	4.335923	-0.051775	-2.960997	-8.198644	6.587777	12.715161	0.610400	0.671440	0.900340	-0.719053	0.135498	0.665159	-1.000000	-1.000000	-1.000000	-1.000000	-1.000000	-1.000000	-1.000000	63.000000	0.000000	-1.000000	-1.000000	1088272.000000	1775723782.101900
62350.515000	37235.520000	57567.870000	21265.110000	44296.335000	23959.575000	13846.995000	63921.420000	5.897310	2.775305	1.888152	-1.821557	-4.026691	-11.521381	5.423877	12.533692	0.610400	0.671440	0.900340	-0.719053	0.135498	0.665159	-1.000000	-1.000000	-1.000000	-1.000000	-1.000000	-1.000000	-1.000000	63.000000	0.000000	-1.000000	-1.000000	1088273.000000	1775723782.103372
62338.545000	37224.000000	57555.855000	21254.355000	44274.780000	23952.285000	13839.975000	63915.480000	2.046974	-0.542597	-1.225736	-2.381459	1.008885	-5.788257	3.101472	7.678956	0.610400	0.671440	0.900340	-0.719053	0.135498	0.665159	-1.000000	-1.000000	-1.000000	-1.000000	-1.000000	-1.000000	-1.000000	63.000000	0.000000	-1.000000	-1.000000	1088274.000000	1775723782.103388
62341.155000	37227.465000	57561.255000	21263.490000	44281.620000	23946.435000	13838.715000	63918.135000	-3.614284	-4.662672	-4.875864	-2.651242	7.656188	5.730052	-0.365468	-0.406371	0.610400	0.671440	0.900340	-0.719053	0.135498	0.665159	-1.000000	-1.000000	-1.000000	-1.000000	-1.000000	-1.000000	-1.000000	63.000000	0.000000	-1.000000	-1.000000	1088275.000000	1775723782.108332
62343.495000	37232.325000	57567.420000	21271.860000	44297.145000	23938.965000	13836.015000	63917.685000	-8.347023	-7.708268	-7.254411	-2.721306	9.179162	12.839788	-4.429674	-7.928105	0.610400	0.671440	0.900340	-0.719053	0.135498	0.665159	-1.000000	-1.000000	-1.000000	-1.000000	-1.000000	-1.000000	-1.000000	63.000000	0.000000	-1.000000	-1.000000	1088276.000000	1775723782.108350
62344.035000	37232.145000	57566.700000	21271.320000	44292.780000	23933.655000	13833.855000	63916.380000	-9.256881	-7.464603	-6.398716	-1.782104	4.774228	9.947707	-7.520164	-11.488944	0.610400	0.671440	0.900340	-0.719053	0.135498	0.665159	-1.000000	-1.000000	-1.000000	-1.000000	-1.000000	-1.000000	-1.000000	63.000000	0.000000	-1.000000	-1.000000	1088277.000000	1775723782.110907
62345.385000	37233.990000	57567.285000	21272.490000	44288.685000	23934.915000	13835.790000	63917.820000	-6.016718	-3.984962	-2.760238	-0.136854	-2.355239	0.254938	-8.102261	-10.277606	0.610400	0.671440	0.900340	-0.719053	0.135498	0.665159	-1.000000	-1.000000	-1.000000	-1.000000	-1.000000	-1.000000	-1.000000	63.000000	0.000000	-1.000000	-1.000000	1088278.000000	1775723782.110917
62343.630000	37234.170000	57567.735000	21275.055000	44289.135000	23933.745000	13834.035000	63915.840000	-0.853009	0.549604	1.277061	0.986202	-8.994478	-8.975528	-5.810948	-5.824339	0.610400	0.671440	0.900340	-0.719053	0.135498	0.665159	-1.000000	-1.000000	-1.000000	-1.000000	-1.000000	-1.000000	-1.000000	63.000000	0.000000	-1.000000	-1.000000	1088279.000000	1775723782.118112
62344.890000	37237.545000	57570.030000	21275.280000	44279.235000	23923.215000	13830.030000	63914.220000	3.466397	3.895376	3.738888	1.033793	-12.662095	-12.633402	-1.804111	-0.624480	0.610400	0.671440	0.900340	-0.719053	0.135498	0.665159	-1.000000	-1.000000	-1.000000	-1.000000	-1.000000	-1.000000	-1.000000	63.000000	0.000000	-1.000000	-1.000000	1088280.000000	1775723782.118126
62345.025000	37235.835000	57567.240000	21270.420000	44267.670000	23915.025000	13826.790000	63913.365000	5.365050	5.002309	4.061313	0.220837	-12.469134	-10.514143	1.911412	3.199900	0.305200	0.473060	1.434440	-0.720274	0.139526	0.666502	-1.000000	-1.000000	-1.000000	-1.000000	-1.000000	-1.000000	-1.000000	63.000000	0.000000	-1.000000	-1.000000	1088281.000000	1775723782.121354
62345.205000	37237.455000	57569.310000	21275.460000	44271.900000	23917.680000	13826.520000	63912.645000	4.863751	4.002022	2.719951	-0.927950	-9.069391	-5.234981	3.944878	4.790265	0.305200	0.473060	1.434440	-0.720274	0.139526	0.666502	-1.000000	-1.000000	-1.000000	-1.000000	-1.000000	-1.000000	-1.000000	63.000000	0.000000	-1.000000	-1.000000	1088282.000000	1775723782.121375
62337.870000	37228.815000	57563.595000	21272.535000	44271.495000	23921.415000	13820.535000	63907.515000	2.785622	1.644274	0.642253	-1.626792	-3.321522	0.927263	4.167263	4.400026	0.305200	0.473060	1.434440	-0.720274	0.139526	0.666502	-1.000000	-1.000000	-1.000000	-1.000000	-1.000000	-1.000000	-1.000000	63.000000	0.000000	-1.000000	-1.000000	1088283.000000	1775723782.126965
62331.255000	37218.465000	57555.630000	21264.210000	44262.855000	23906.385000	13810.500000	63895.860000	-0.062450	-1.336853	-1.438449	-1.550554	3.366297	6.217047	2.990978	2.565674	0.305200	0.473060	1.434440	-0.720274	0.139526	0.666502	-1.000000	-1.000000	-1.000000	-1.000000	-1.000000	-1.000000	-1.000000	63.000000	0.000000	-1.000000	-1.000000	1088284.000000	1775723782.126982
62329.320000	37220.355000	57557.655000	21267.000000	44266.815000	23901.930000	13808.970000	63888.345000	-2.784680	-4.058831	-3.025292	-1.137483	8.594103	8.579351	0.969405	-0.163397	0.305200	0.473060	1.434440	-0.720274	0.139526	0.666502	-1.000000	-1.000000	-1.000000	-1.000000	-1.000000	-1.000000	-1.000000	63.000000	0.000000	-1.000000	-1.000000	1088285.000000	1775723782.134034
62334.945000	37231.200000	57569.085000	21278.745000	44276.625000	23914.395000	13817.565000	63896.085000	-4.038156	-4.836221	-3.130192	-0.300227	10.900255	7.489309	-0.623305	-2.499208	0.305200	0.473060	1.434440	-0.720274	0.139526	0.666502	-1.000000	-1.000000	-1.000000	-1.000000	-1.000000	-1.000000	-1.000000	63.000000	0.000000	-1.000000	-1.000000	1088286.000000	1775723782.134053
62356.770000	37252.845000	57589.020000	21297.420000	44290.575000	23938.425000	13852.260000	63927.720000	-2.433255	-2.011711	-0.584328	1.895468	10.876496	5.476630	0.266975	-2.039913	0.305200	0.473060	1.434440	-0.720274	0.139526	0.666502	-1.000000	-1.000000	-1.000000	-1.000000	-1.000000	-1.000000	-1.000000	63.000000	0.000000	-1.000000	-1.000000	1088287.000000	1775723782.134071
62355.105000	37249.605000	57585.330000	21293.190000	44282.700000	23932.980000	13855.140000	63934.650000	1.964031	3.698682	3.994672	5.213881	9.306308	5.026460	4.424075	2.571555	0.305200	0.473060	1.434440	-0.720274	0.139526	0.666502	-1.000000	-1.000000	-1.000000	-1.000000	-1.000000	-1.000000	-1.000000	63.000000	0.000000	-1.000000	-1.000000	1088288.000000	1775723782.134079
62352.270000	37239.930000	57573.720000	21279.060000	44256.645000	23915.385000	13842.495000	63934.785000	6.273764	8.224662	7.126594	6.829520	5.238369	4.648117	8.563742	8.504535	0.305200	0.473060	1.434440	-0.720274	0.139526	0.666502	-1.000000	-1.000000	-1.000000	-1.000000	-1.000000	-1.000000	-1.000000	63.000000	0.000000	-1.000000	-1.000000	1088289.000000	1775723782.144935
62352.765000	37234.530000	57565.485000	21270.420000	44228.115000	23904.630000	13833.045000	63929.970000	6.846510	7.362751	5.261882	3.811468	-2.642695	0.908474	7.357744	10.288252	0.305200	0.473060	1.434440	-0.720274	0.139526	0.666502	-1.000000	-1.000000	-1.000000	-1.000000	-1.000000	-1.000000	-1.000000	63.000000	0.000000	-1.000000	-1.000000	1088290.000000	1775723782.144948
62343.945000	37228.410000	57562.695000	21275.145000	44251.245000	23922.450000	13832.820000	63918.945000	2.903021	1.169743	-1.106424	-2.797188	-11.852357	-5.694056	-0.273458	5.176270	-0.610400	0.366240	0.152600	-0.718748	0.141906	0.669188	-1.000000	-1.000000	-1.000000	-1.000000	-1.000000	-1.000000	-1.000000	63.000000	0.000000	-1.000000	-1.000000	1088291.000000	1775723782.144964
62344.710000	37228.635000	57566.115000	21284.460000	44299.170000	23936.580000	13836.870000	63921.960000	-3.154316	-6.156033	-7.521282	-8.118076	-14.916226	-9.923774	-9.376692	-4.326275	-0.610400	0.366240	0.152600	-0.718748	0.141906	0.669188	-1.000000	-1.000000	-1.000000	-1.000000	-1.000000	-1.000000	-1.000000	63.000000	0.000000	-1.000000	-1.000000	1088292.000000	1775723782.144969
62346.105000	37231.020000	57566.160000	21283.020000	44286.795000	23930.190000	13835.880000	63921.645000	-7.778282	-9.965619	-9.588593	-8.197229	-6.953699	-8.069430	-13.869993	-12.471083	-0.610400	0.366240	0.152600	-0.718748	0.141906	0.669188	-1.000000	-1.000000	-1.000000	-1.000000	-1.000000	-1.000000	-1.000000	63.000000	0.000000	-1.000000	-1.000000	1088293.000000	1775723782.144975
62349.030000	37236.195000	57570.570000	21286.935000	44274.330000	23898.105000	13829.985000	63919.530000	-8.414517	-8.238573	-6.325675	-3.578645	6.086192	-2.951734	-11.738852	-14.675059	-0.610400	0.366240	0.152600	-0.718748	0.141906	0.669188	-1.000000	-1.000000	-1.000000	-1.000000	-1.000000	-1.000000	-1.000000	63.000000	0.000000	-1.000000	-1.000000	1088294.000000	1775723782.144980
62348.310000	37235.970000	57572.190000	21292.785000	44289.720000	23899.455000	13828.185000	63916.560000	-5.080736	-2.430214	-0.118143	2.213574	13.372326	-0.266435	-5.485594	-10.624322	-0.610400	0.366240	0.152600	-0.718748	0.141906	0.669188	-1.000000	-1.000000	-1.000000	-1.000000	-1.000000	-1.000000	-1.000000	63.000000	0.000000	-1.000000	-1.000000	1088295.000000	1775723782.150826
62348.580000	37235.835000	57573.360000	21293.550000	44288.235000	23930.415000	13836.555000	63919.170000	-0.083240	3.836218	5.499931	6.074318	11.177398	-0.639085	1.283006	-3.317921	-0.610400	0.366240	0.152600	-0.718748	0.141906	0.669188	-1.000000	-1.000000	-1.000000	-1.000000	-1.000000	-1.000000	-1.000000	63.000000	0.000000	-1.000000	-1.000000	1088296.000000	1775723782.150845
62351.235000	37239.480000	57577.770000	21297.915000	44291.160000	23937.885000	13838.985000	63922.140000	3.926977	7.355684	8.032045	6.691201	3.481116	0.519913	6.476220	3.821254	-0.610400	0.366240	0.152600	-0.718748	0.141906	0.669188	-1.000000	-1.000000	-1.000000	-1.000000	-1.000000	-1.000000	-1.000000	63.000000	0.000000	-1.000000	-1.000000	1088297.000000	1775723782.159613
62348.310000	37238.130000	57575.295000	21296.160000	44281.080000	23925.780000	13832.145000	63918.360000	5.530316	7.172277	7.009813	4.427841	-4.543282	4.774428	9.031725	8.449790	-0.610400	0.366240	0.152600	-0.718748	0.141906	0.669188	-1.000000	-1.000000	-1.000000	-1.000000	-1.000000	-1.000000	-1.000000	63.000000	0.000000	-1.000000	-1.000000	1088298.000000	1775723782.159631
62345.655000	37232.955000	57570.480000	21291.480000	44274.735000	23909.760000	13826.070000	63916.155000	4.625004	4.176722	3.407111	0.589694	-9.899996	7.657861	8.081349	9.395535	-0.610400	0.366240	0.152600	-0.718748	0.141906	0.669188	-1.000000	-1.000000	-1.000000	-1.000000	-1.000000	-1.000000	-1.000000	63.000000	0.000000	-1.000000	-1.000000	1088299.000000	1775723782.159651
62341.020000	37226.160000	57565.080000	21284.505000	44266.770000	23899.905000	13825.035000	63912.915000	1.977080	-0.149012	-1.269201	-3.430474	-11.651158	4.963307	4.007250	6.880179	-0.610400	0.366240	0.152600	-0.718748	0.141906	0.669188	-1.000000	-1.000000	-1.000000	-1.000000	-1.000000	-1.000000	-1.000000	63.000000	0.000000	-1.000000	-1.000000	1088300.000000	1775723782.159659
62342.235000	37230.705000	57571.110000	21290.985000	44270.910000	23907.915000	13825.845000	63913.680000	-1.023349	-4.037438	-5.110763	-6.180715	-9.762266	-1.751538	-0.883001	2.586015	-0.885080	1.449700	-1.312360	-0.716551	0.140625	0.673033	-1.000000	-1.000000	-1.000000	-1.000000	-1.000000	-1.000000	-1.000000	63.000000	0.000000	-1.000000	-1.000000	1088301.000000	1775723782.165062
62344.530000	37234.170000	57573.720000	21294.585000	44264.880000	23908.005000	13825.620000	63914.580000	-2.805088	-5.571909	-6.206930	-6.163378	-4.805563	-6.927049	-3.930763	-1.231936	-0.885080	1.449700	-1.312360	-0.716551	0.140625	0.673033	-1.000000	-1.000000	-1.000000	-1.000000	-1.000000	-1.000000	-1.000000	63.000000	0.000000	-1.000000	-1.000000	1088302.000000	1775723782.165080
62347.725000	37235.745000	57574.935000	21292.785000	44244.810000	23892.435000	13823.820000	63913.545000	-2.477593	-3.948172	-4.078236	-3.148256	1.119678	-7.124628	-4.125746	-3.080567	-0.885080	1.449700	-1.312360	-0.716551	0.140625	0.673033	-1.000000	-1.000000	-1.000000	-1.000000	-1.000000	-1.000000	-1.000000	63.000000	0.000000	-1.000000	-1.000000	1088303.000000	1775723782.165100
62347.590000	37235.070000	57571.785000	21284.730000	44227.260000	23861.340000	13819.635000	63912.240000	-0.516507	-0.456685	-0.393420	0.864338	4.761687	-4.304142	-2.419100	-2.952641	-0.885080	1.449700	-1.312360	-0.716551	0.140625	0.673033	-1.000000	-1.000000	-1.000000	-1.000000	-1.000000	-1.000000	-1.000000	63.000000	0.000000	-1.000000	-1.000000	1088304.000000	1775723782.165109
62346.735000	37235.160000	57571.335000	21285.180000	44248.995000	23856.570000	13822.245000	63912.060000	1.553481	2.563057	2.415291	3.274644	5.152561	-2.344725	-0.406725	-1.818261	-0.885080	1.449700	-1.312360	-0.716551	0.140625	0.673033	-1.000000	-1.000000	-1.000000	-1.000000	-1.000000	-1.000000	-1.000000	63.000000	0.000000	-1.000000	-1.000000	1088305.000000	1775723782.168300
62345.790000	37235.655000	57574.575000	21299.535000	44302.410000	23943.375000	13836.870000	63916.110000	2.338925	3.590451	3.160837	3.582378	6.020024	-0.170661	1.302114	-0.535352	-0.885080	1.449700	-1.312360	-0.716551	0.140625	0.673033	-1.000000	-1.000000	-1.000000	-1.000000	-1.000000	-1.000000	-1.000000	63.000000	0.000000	-1.000000	-1.000000	1088306.000000	1775723782.168318
62344.935000	37236.870000	57575.745000	21307.005000	44311.005000	23982.705000	13844.610000	63923.805000	1.537605	2.679692	2.393918	3.468567	11.097132	7.886298	3.137932	0.703899	-0.885080	1.449700	-1.312360	-0.716551	0.140625	0.673033	-1.000000	-1.000000	-1.000000	-1.000000	-1.000000	-1.000000	-1.000000	63.000000	0.000000	-1.000000	-1.000000	1088307.000000	1775723782.182422
62351.235000	37241.640000	57581.955000	21308.895000	44301.240000	23949.270000	13838.445000	63928.215000	0.015994	0.957335	1.316171	3.954981	16.880558	20.242335	4.685108	1.964127	-0.885080	1.449700	-1.312360	-0.716551	0.140625	0.673033	-1.000000	-1.000000	-1.000000	-1.000000	-1.000000	-1.000000	-1.000000	63.000000	0.000000	-1.000000	-1.000000	1088308.000000	1775723782.182440
62347.230000	37238.760000	57580.380000	21306.735000	44289.135000	23928.525000	13831.110000	63920.025000	-1.040281	-0.444858	0.639314	3.925533	15.164905	24.211614	4.062914	2.645492	-0.885080	1.449700	-1.312360	-0.716551	0.140625	0.673033	-1.000000	-1.000000	-1.000000	-1.000000	-1.000000	-1.000000	-1.000000	63.000000	0.000000	-1.000000	-1.000000	1088309.000000	1775723782.182462
62344.890000	37237.905000	57580.335000	21306.285000	44283.240000	23923.530000	13831.110000	63918.720000	-1.327974	-1.243455	0.197450	1.949367	3.126122	11.370136	0.382845	1.637999	-0.885080	1.449700	-1.312360	-0.716551	0.140625	0.673033	-1.000000	-1.000000	-1.000000	-1.000000	-1.000000	-1.000000	-1.000000	63.000000	0.000000	-1.000000	-1.000000	1088310.000000	1775723782.182471
62349.390000	37241.460000	57582.360000	21305.565000	44271.630000	23910.165000	13832.100000	63922.995000	-1.260050	-1.650009	-0.458450	-1.679994	-13.240009	-11.364336	-4.379378	-0.937848	-0.244160	2.624720	-2.197440	-0.713560	0.135437	0.677061	-1.000000	-1.000000	-1.000000	-1.000000	-1.000000	-1.000000	-1.000000	63.000000	0.000000	-1.000000	-1.000000	1088311.000000	1775723782.182482
62352.810000	37243.890000	57585.060000	21307.590000	44268.435000	23905.935000	13832.415000	63924.210000	-0.843317	-1.558873	-1.200312	-5.094687	-24.836599	-29.604752	-7.099280	-3.233542	-0.244160	2.624720	-2.197440	-0.713560	0.135437	0.677061	-1.000000	-1.000000	-1.000000	-1.000000	-1.000000	-1.000000	-1.000000	63.000000	0.000000	-1.000000	-1.000000	1088312.000000	1775723782.182490
62348.040000	37240.245000	57579.795000	21305.115000	44259.345000	23904.315000	13833.225000	63920.880000	-0.008708	-0.914531	-1.632484	-6.490251	-26.099076	-33.647277	-6.308929	-3.730314	-0.244160	2.624720	-2.197440	-0.713560	0.135437	0.677061	-1.000000	-1.000000	-1.000000	-1.000000	-1.000000	-1.000000	-1.000000	63.000000	0.000000	-1.000000	-1.000000	1088313.000000	1775723782.185264
62342.100000	37233.495000	57571.920000	21295.485000	44256.960000	23912.145000	13833.495000	63920.565000	0.516926	-0.366352	-1.928744	-5.609900	-17.480133	-22.863537	-2.892785	-2.648609	-0.244160	2.624720	-2.197440	-0.713560	0.135437	0.677061	-1.000000	-1.000000	-1.000000	-1.000000	-1.000000	-1.000000	-1.000000	63.000000	0.000000	-1.000000	-1.000000	1088314.000000	1775723782.185282
62343.450000	37235.745000	57574.530000	21298.140000	44272.530000	23913.945000	13831.830000	63921.645000	0.051476	-0.532732	-2.360805	-3.519729	-3.484798	-3.771974	1.051446	-1.006479	-0.244160	2.624720	-2.197440	-0.713560	0.135437	0.677061	-1.000000	-1.000000	-1.000000	-1.000000	-1.000000	-1.000000	-1.000000	63.000000	0.000000	-1.000000	-1.000000	1088315.000000	1775723782.188511
62341.920000	37236.330000	57576.195000	21304.845000	44285.580000	23911.965000	13828.545000	63918.495000	-0.881013	-0.940185	-2.306834	-0.905884	10.814953	14.304443	3.595047	0.466838	-0.244160	2.624720	-2.197440	-0.713560	0.135437	0.677061	-1.000000	-1.000000	-1.000000	-1.000000	-1.000000	-1.000000	-1.000000	63.000000	0.000000	-1.000000	-1.000000	1088316.000000	1775723782.188526
62345.745000	37242.855000	57583.530000	21311.595000	44280.135000	23902.605000	13825.800000	63919.170000	-1.150665	-0.540853	-0.846334	2.301360	20.838275	23.786357	3.895920	1.372713	-0.244160	2.624720	-2.197440	-0.713560	0.135437	0.677061	-1.000000	-1.000000	-1.000000	-1.000000	-1.000000	-1.000000	-1.000000	63.000000	0.000000	-1.000000	-1.000000	1088317.000000	1775723782.193896
62345.205000	37247.265000	57585.825000	21313.620000	44273.115000	23896.260000	13826.475000	63918.405000	-0.277757	1.030819	1.885466	5.539489	22.648672	22.120670	2.480764	1.629090	-0.244160	2.624720	-2.197440	-0.713560	0.135437	0.677061	-1.000000	-1.000000	-1.000000	-1.000000	-1.000000	-1.000000	-1.000000	63.000000	0.000000	-1.000000	-1.000000	1088318.000000	1775723782.193910
62342.595000	37242.630000	57581.955000	21310.020000	44274.330000	23910.345000	13832.595000	63921.420000	1.125870	2.880396	4.366265	7.154727	15.485416	12.692076	0.826075	1.516995	-0.244160	2.624720	-2.197440	-0.713560	0.135437	0.677061	-1.000000	-1.000000	-1.000000	-1.000000	-1.000000	-1.000000	-1.000000	63.000000	0.000000	-1.000000	-1.000000	1088319.000000	1775723782.195948
62339.265000	37240.155000	57583.125000	21313.170000	44284.905000	23923.845000	13826.970000	63918.855000	1.887447	3.367398	4.797379	5.843726	3.639380	2.471743	0.120305	1.332801	-0.244160	2.624720	-2.197440	-0.713560	0.135437	0.677061	-1.000000	-1.000000	-1.000000	-1.000000	-1.000000	-1.000000	-1.000000	63.000000	0.000000	-1.000000	-1.000000	1088320.000000	1775723782.195962
62336.205000	37235.835000	57581.280000	21313.935000	44292.105000	23918.310000	13820.760000	63910.980000	1.361251	1.676787	2.797808	2.193337	-6.293632	-3.377286	0.068398	0.899859	0.930860	3.418240	-3.799740	-0.709227	0.132385	0.680784	-1.000000	-1.000000	-1.000000	-1.000000	-1.000000	-1.000000	-1.000000	63.000000	0.000000	-1.000000	-1.000000	1088321.000000	1775723782.208262
62338.185000	37235.655000	57580.020000	21310.335000	44289.135000	23920.155000	13822.110000	63906.255000	0.030258	-1.246871	-0.369467	-1.856979	-10.457980	-4.943212	-0.321115	-0.224096	0.930860	3.418240	-3.799740	-0.709227	0.132385	0.680784	-1.000000	-1.000000	-1.000000	-1.000000	-1.000000	-1.000000	-1.000000	63.000000	0.000000	-1.000000	-1.000000	1088322.000000	1775723782.208278
62335.665000	37236.645000	57582.945000	21313.125000	44290.935000	23929.335000	13825.260000	63903.465000	-1.004575	-3.489203	-2.965659	-4.648164	-9.621215	-4.835943	-0.956628	-1.789336	0.930860	3.418240	-3.799740	-0.709227	0.132385	0.680784	-1.000000	-1.000000	-1.000000	-1.000000	-1.000000	-1.000000	-1.000000	63.000000	0.000000	-1.000000	-1.000000	1088323.000000	1775723782.208294
62338.815000	37247.895000	57595.185000	21327.480000	44291.295000	23925.420000	13832.775000	63912.960000	-1.049199	-3.479918	-3.568710	-5.106537	-6.638508	-4.472823	-0.799018	-2.519985	0.930860	3.418240	-3.799740	-0.709227	0.132385	0.680784	-1.000000	-1.000000	-1.000000	-1.000000	-1.000000	-1.000000	-1.000000	63.000000	0.000000	-1.000000	-1.000000	1088324.000000	1775723782.208299
62339.400000	37250.685000	57598.110000	21331.890000	44289.360000	23910.480000	13838.445000	63926.190000	-0.188172	-0.968692	-1.733348	-2.825242	-3.651372	-4.472665	0.638980	-1.008221	0.930860	3.418240	-3.799740	-0.709227	0.132385	0.680784	-1.000000	-1.000000	-1.000000	-1.000000	-1.000000	-1.000000	-1.000000	63.000000	0.000000	-1.000000	-1.000000	1088325.000000	1775723782.208305
62335.395000	37244.385000	57591.585000	21322.710000	44278.200000	23902.740000	13833.810000	63928.890000	0.891182	2.349599	1.087409	0.698496	-1.723602	-5.456732	2.421901	2.627957	0.930860	3.418240	-3.799740	-0.709227	0.132385	0.680784	-1.000000	-1.000000	-1.000000	-1.000000	-1.000000	-1.000000	-1.000000	63.000000	0.000000	-1.000000	-1.000000	1088326.000000	1775723782.208310
62336.295000	37235.835000	57580.245000	21308.580000	44257.185000	23884.245000	13826.925000	63929.160000	1.310251	3.687358	2.167105	2.301148	-1.491339	-7.006011	2.682188	5.970608	0.930860	3.418240	-3.799740	-0.709227	0.132385	0.680784	-1.000000	-1.000000	-1.000000	-1.000000	-1.000000	-1.000000	-1.000000	63.000000	0.000000	-1.000000	-1.000000	1088327.000000	1775723782.211748
62352.180000	37253.205000	57597.885000	21324.645000	44274.330000	23903.010000	13833.585000	63932.670000	1.105465	2.101157	0.530084	0.617578	-2.390917	-7.168531	0.634698	6.271781	0.930860	3.418240	-3.799740	-0.709227	0.132385	0.680784	-1.000000	-1.000000	-1.000000	-1.000000	-1.000000	-1.000000	-1.000000	63.000000	0.000000	-1.000000	-1.000000	1088328.000000	1775723782.211767
62349.930000	37256.265000	57603.600000	21334.185000	44289.945000	23916.555000	13835.700000	63928.665000	1.223794	-0.178660	-1.458900	-1.702933	-1.611920	-3.401711	-2.128089	3.012576	0.930860	3.418240	-3.799740	-0.709227	0.132385	0.680784	-1.000000	-1.000000	-1.000000	-1.000000	-1.000000	-1.000000	-1.000000	63.000000	0.000000	-1.000000	-1.000000	1088329.000000	1775723782.217957
62341.335000	37243.845000	57589.605000	21322.530000	44279.820000	23907.825000	13835.250000	63926.775000	1.468857	-1.104666	-1.576218	-1.685322	2.673952	4.231924	-3.444523	-2.098712	0.930860	3.418240	-3.799740	-0.709227	0.132385	0.680784	-1.000000	-1.000000	-1.000000	-1.000000	-1.000000	-1.000000	-1.000000	63.000000	0.000000	-1.000000	-1.000000	1088330.000000	1775723782.217979
62335.935000	37234.845000	57579.165000	21312.990000	44265.465000	23903.505000	13832.235000	63924.660000	0.332158	-1.560838	-1.002006	-0.234956	7.428549	11.148686	-2.914544	-6.606900	1.983800	4.669560	-4.471180	-0.705137	0.131652	0.685606	-1.000000	-1.000000	-1.000000	-1.000000	-1.000000	-1.000000	-1.000000	63.000000	0.000000	-1.000000	-1.000000	1088331.000000	1775723782.227090
62334.405000	37238.265000	57581.100000	21317.220000	44256.555000	23905.530000	13828.995000	63918.810000	-2.407481	-2.779652	-1.599210	0.195146	7.902296	12.555365	-1.651007	-8.620962	1.983800	4.669560	-4.471180	-0.705137	0.131652	0.685606	-1.000000	-1.000000	-1.000000	-1.000000	-1.000000	-1.000000	-1.000000	63.000000	0.000000	-1.000000	-1.000000	1088332.000000	1775723782.227108
62340.255000	37244.835000	57588.570000	21323.790000	44269.020000	23915.970000	13838.490000	63925.020000	-4.758470	-3.607856	-2.465047	-0.304513	3.704192	8.433116	-0.503195	-7.509733	1.983800	4.669560	-4.471180	-0.705137	0.131652	0.685606	-1.000000	-1.000000	-1.000000	-1.000000	-1.000000	-1.000000	-1.000000	63.000000	0.000000	-1.000000	-1.000000	1088333.000000	1775723782.242551
62340.705000	37245.285000	57588.885000	21328.200000	44293.590000	23923.395000	13840.830000	63926.415000	-4.558939	-2.258349	-1.494751	0.069677	-0.568911	2.581391	0.734328	-3.714928	1.983800	4.669560	-4.471180	-0.705137	0.131652	0.685606	-1.000000	-1.000000	-1.000000	-1.000000	-1.000000	-1.000000	-1.000000	63.000000	0.000000	-1.000000	-1.000000	1088334.000000	1775723782.242571
62339.085000	37244.160000	57589.470000	21330.405000	44300.295000	23917.410000	13834.080000	63923.175000	-1.755552	0.897379	1.380841	1.796344	-0.607904	-1.795411	2.047959	1.257246	1.983800	4.669560	-4.471180	-0.705137	0.131652	0.685606	-1.000000	-1.000000	-1.000000	-1.000000	-1.000000	-1.000000	-1.000000	63.000000	0.000000	-1.000000	-1.000000	1088335.000000	1775723782.242602
62340.075000	37244.610000	57593.070000	21330.630000	44291.250000	23902.560000	13830.120000	63923.175000	1.681512	3.690144	4.212997	3.496588	2.514590	-4.588920	2.344094	5.109522	1.983800	4.669560	-4.471180	-0.705137	0.131652	0.685606	-1.000000	-1.000000	-1.000000	-1.000000	-1.000000	-1.000000	-1.000000	63.000000	0.000000	-1.000000	-1.000000	1088336.000000	1775723782.242611
62341.875000	37246.005000	57594.645000	21331.485000	44283.420000	23896.710000	13831.560000	63924.120000	3.827695	4.493045	5.297189	3.616363	3.770792	-7.104278	1.030198	6.332432	1.983800	4.669560	-4.471180	-0.705137	0.131652	0.685606	-1.000000	-1.000000	-1.000000	-1.000000	-1.000000	-1.000000	-1.000000	63.000000	0.000000	-1.000000	-1.000000	1088337.000000	1775723782.242623
62341.380000	37245.060000	57594.060000	21331.035000	44280.180000	23901.255000	13832.595000	63924.030000	4.076649	3.290456	4.236252	1.848017	0.296105	-8.929935	-0.803141	5.147405	1.983800	4.669560	-4.471180	-0.705137	0.131652	0.685606	-1.000000	-1.000000	-1.000000	-1.000000	-1.000000	-1.000000	-1.000000	63.000000	0.000000	-1.000000	-1.000000	1088338.000000	1775723782.242631
62341.335000	37245.105000	57594.465000	21332.205000	44275.230000	23922.810000	13833.180000	63924.255000	2.814335	1.046936	1.626074	-0.830314	-5.790280	-7.632520	-1.639270	2.751334	1.983800	4.669560	-4.471180	-0.705137	0.131652	0.685606	-1.000000	-1.000000	-1.000000	-1.000000	-1.000000	-1.000000	-1.000000	63.000000	0.000000	-1.000000	-1.000000	1088339.000000	1775723782.242640
62337.645000	37243.080000	57592.260000	21329.460000	44261.910000	23913.630000	13825.845000	63920.205000	0.770364	-1.162327	-1.411851	-3.070084	-10.373160	-2.093794	-1.202171	0.254279	1.983800	4.669560	-4.471180	-0.705137	0.131652	0.685606	-1.000000	-1.000000	-1.000000	-1.000000	-1.000000	-1.000000	-1.000000	63.000000	0.000000	-1.000000	-1.000000	1088340.000000	1775723782.242648
62337.915000	37244.700000	57593.790000	21332.880000	44270.370000	23902.605000	13822.695000	63918.360000	-1.286054	-2.558930	-3.703012	-3.981309	-10.831063	4.498967	-0.464095	-1.746461	3.296160	5.463080	-4.501700	-0.700865	0.130859	0.688231	-1.000000	-1.000000	-1.000000	-1.000000	-1.000000	-1.000000	-1.000000	63.000000	0.000000	-1.000000	-1.000000	1088341.000000	1775723782.242658
62341.200000	37249.020000	57599.145000	21342.960000	44295.570000	23917.185000	13827.735000	63921.285000	-2.539627	-2.686271	-4.351172	-3.150237	-6.192126	7.614869	-0.104410	-2.859970	3.296160	5.463080	-4.501700	-0.700865	0.130859	0.688231	-1.000000	-1.000000	-1.000000	-1.000000	-1.000000	-1.000000	-1.000000	63.000000	0.000000	-1.000000	-1.000000	1088342.000000	1775723782.242665
62355.960000	37262.925000	57612.510000	21352.095000	44287.605000	23920.200000	13844.655000	63937.170000	-2.138598	-1.303885	-2.876472	-0.575700	2.460659	6.636176	0.603218	-2.414794	3.296160	5.463080	-4.501700	-0.700865	0.130859	0.688231	-1.000000	-1.000000	-1.000000	-1.000000	-1.000000	-1.000000	-1.000000	63.000000	0.000000	-1.000000	-1.000000	1088343.000000	1775723782.243262
62344.485000	37248.795000	57599.415000	21339.630000	44285.310000	23905.305000	13834.935000	63928.260000	-0.130364	0.971851	0.012376	2.452418	10.501379	3.669893	2.342953	-0.259878	3.296160	5.463080	-4.501700	-0.700865	0.130859	0.688231	-1.000000	-1.000000	-1.000000	-1.000000	-1.000000	-1.000000	-1.000000	63.000000	0.000000	-1.000000	-1.000000	1088344.000000	1775723782.243274
62338.455000	37241.145000	57591.090000	21332.565000	44283.960000	23903.910000	13828.095000	63921.330000	1.554430	2.041766	1.890643	3.359165	12.772176	-0.140873	3.620852	1.824791	3.296160	5.463080	-4.501700	-0.700865	0.130859	0.688231	-1.000000	-1.000000	-1.000000	-1.000000	-1.000000	-1.000000	-1.000000	63.000000	0.000000	-1.000000	-1.000000	1088345.000000	1775723782.263918
62337.195000	37238.805000	57586.095000	21325.410000	44266.095000	23901.300000	13824.540000	63918.135000	0.966217	0.385000	0.837672	0.860993	8.182452	-3.902497	2.317524	1.588226	3.296160	5.463080	-4.501700	-0.700865	0.130859	0.688231	-1.000000	-1.000000	-1.000000	-1.000000	-1.000000	-1.000000	-1.000000	63.000000	0.000000	-1.000000	-1.000000	1088346.000000	1775723782.263936
62336.790000	37237.455000	57584.610000	21328.245000	44275.050000	23904.135000	13827.420000	63917.730000	-1.276112	-2.631515	-2.063280	-3.144988	-0.122164	-5.844484	-1.085108	-0.792876	3.296160	5.463080	-4.501700	-0.700865	0.130859	0.688231	-1.000000	-1.000000	-1.000000	-1.000000	-1.000000	-1.000000	-1.000000	63.000000	0.000000	-1.000000	-1.000000	1088347.000000	1775723782.263955
62338.005000	37240.920000	57590.595000	21341.835000	44302.185000	23912.145000	13829.985000	63918.810000	-2.908897	-4.199400	-3.841177	-5.051163	-6.532593	-4.667352	-3.861950	-3.018583	3.296160	5.463080	-4.501700	-0.700865	0.130859	0.688231	-1.000000	-1.000000	-1.000000	-1.000000	-1.000000	-1.000000	-1.000000	63.000000	0.000000	-1.000000	-1.000000	1088348.000000	1775723782.263964
62340.345000	37246.950000	57597.480000	21352.410000	44305.335000	23918.760000	13841.280000	63928.620000	-2.482789	-2.763155	-2.441534	-2.586583	-6.513678	-0.722847	-3.813815	-3.033954	3.296160	5.463080	-4.501700	-0.700865	0.130859	0.688231	-1.000000	-1.000000	-1.000000	-1.000000	-1.000000	-1.000000	-1.000000	63.000000	0.000000	-1.000000	-1.000000	1088349.000000	1775723782.263974
62346.420000	37253.205000	57604.680000	21355.470000	44300.880000	23913.045000	13841.460000	63937.080000	-0.182503	1.073471	1.726354	2.997093	-1.321353	3.801474	-0.961641	-0.388231	3.296160	5.463080	-4.501700	-0.700865	0.130859	0.688231	-1.000000	-1.000000	-1.000000	-1.000000	-1.000000	-1.000000	-1.000000	63.000000	0.000000	-1.000000	-1.000000	1088350.000000	1775723782.263982
62344.260000	37250.820000	57601.170000	21351.105000	44291.115000	23908.770000	13834.755000	63928.665000	2.630743	5.039129	6.041681	7.582306	3.137406	5.904812	2.383981	3.277228	1.617560	5.554640	-3.815000	-0.698851	0.132141	0.690611	-1.000000	-1.000000	-1.000000	-1.000000	-1.000000	-1.000000	-1.000000	63.000000	0.000000	-1.000000	-1.000000	1088351.000000	1775723782.263992
62347.185000	37252.755000	57603.240000	21351.510000	44280.270000	23904.270000	13833.225000	63926.055000	4.258075	6.616827	7.527294	7.643622	2.554400	4.125569	3.427693	4.992880	1.617560	5.554640	-3.815000	-0.698851	0.132141	0.690611	-1.000000	-1.000000	-1.000000	-1.000000	-1.000000	-1.000000	-1.000000	63.000000	0.000000	-1.000000	-1.000000	1088352.000000	1775723782.264000
62349.885000	37254.015000	57603.285000	21351.960000	44277.795000	23900.715000	13832.775000	63927.180000	3.852299	4.906915	5.189836	3.200215	-2.290847	-0.194666	1.543416	3.242622	1.617560	5.554640	-3.815000	-0.698851	0.132141	0.690611	-1.000000	-1.000000	-1.000000	-1.000000	-1.000000	-1.000000	-1.000000	63.000000	0.000000	-1.000000	-1.000000	1088353.000000	1775723782.277865
62347.230000	37250.865000	57600.810000	21353.805000	44297.100000	23908.005000	13833.945000	63926.145000	1.873336	1.087036	0.539493	-2.644730	-6.718928	-4.054441	-1.394285	-0.478560	1.617560	5.554640	-3.815000	-0.698851	0.132141	0.690611	-1.000000	-1.000000	-1.000000	-1.000000	-1.000000	-1.000000	-1.000000	63.000000	0.000000	-1.000000	-1.000000	1088354.000000	1775723782.277883
62345.745000	37249.110000	57600.090000	21353.355000	44297.010000	23906.790000	13832.550000	63926.280000	-0.723130	-2.914389	-3.996343	-6.555699	-6.267259	-4.975255	-3.164541	-3.532686	1.617560	5.554640	-3.815000	-0.698851	0.132141	0.690611	-1.000000	-1.000000	-1.000000	-1.000000	-1.000000	-1.000000	-1.000000	63.000000	0.000000	-1.000000	-1.000000	1088355.000000	1775723782.295053
62341.335000	37248.660000	57596.445000	21348.270000	44278.515000	23895.450000	13830.345000	63922.590000	-3.081286	-5.526180	-6.597055	-7.206820	-1.369722	-3.017314	-2.994413	-4.462277	1.617560	5.554640	-3.815000	-0.698851	0.132141	0.690611	-1.000000	-1.000000	-1.000000	-1.000000	-1.000000	-1.000000	-1.000000	63.000000	0.000000	-1.000000	-1.000000	1088356.000000	1775723782.295072
62346.195000	37254.330000	57601.575000	21351.780000	44279.235000	23893.155000	13830.750000	63925.740000	-4.367336	-5.785305	-6.530764	-5.301909	3.219516	-0.511848	-1.526964	-3.387911	1.617560	5.554640	-3.815000	-0.698851	0.132141	0.690611	-1.000000	-1.000000	-1.000000	-1.000000	-1.000000	-1.000000	-1.000000	63.000000	0.000000	-1.000000	-1.000000	1088357.000000	1775723782.311434
62352.180000	37260.405000	57609.585000	21360.915000	44294.040000	23901.525000	13833.765000	63930.825000	-3.779812	-3.527018	-3.909483	-1.978106	4.643210	0.968578	0.303626	-1.074562	1.617560	5.554640	-3.815000	-0.698851	0.132141	0.690611	-1.000000	-1.000000	-1.000000	-1.000000	-1.000000	-1.000000	-1.000000	63.000000	0.000000	-1.000000	-1.000000	1088358.000000	1775723782.311452
62344.620000	37251.495000	57604.005000	21359.880000	44302.185000	23919.840000	13834.575000	63926.235000	-1.425451	0.063022	0.189499	1.850271	4.450200	2.265297	1.911953	1.531394	1.617560	5.554640	-3.815000	-0.698851	0.132141	0.690611	-1.000000	-1.000000	-1.000000	-1.000000	-1.000000	-1.000000	-1.000000	63.000000	0.000000	-1.000000	-1.000000	1088359.000000	1775723782.311473
62341.290000	37247.940000	57600.135000	21357.045000	44296.380000	23913.315000	13833.270000	63924.030000	1.027309	2.618529	3.496467	4.726950	4.431622	4.333083	2.829041	3.122258	1.617560	5.554640	-3.815000	-0.698851	0.132141	0.690611	-1.000000	-1.000000	-1.000000	-1.000000	-1.000000	-1.000000	-1.000000	63.000000	0.000000	-1.000000	-1.000000	1088360.000000	1775723782.311482
62344.710000	37252.350000	57603.645000	21359.475000	44288.010000	23900.805000	13830.930000	63924.390000	1.989473	2.735918	4.200745	5.195424	3.664727	5.501045	2.603322	2.853089	0.198380	6.104000	-3.677660	-0.700010	0.136413	0.689146	-1.000000	-1.000000	-1.000000	-1.000000	-1.000000	-1.000000	-1.000000	63.000000	0.000000	-1.000000	-1.000000	1088361.000000	1775723782.311492
62347.455000	37255.770000	57607.155000	21362.805000	44288.145000	23900.490000	13831.650000	63926.460000	1.716585	1.450736	2.787551	3.409977	0.792260	3.307274	1.268679	1.315756	0.198380	6.104000	-3.677660	-0.700010	0.136413	0.689146	-1.000000	-1.000000	-1.000000	-1.000000	-1.000000	-1.000000	-1.000000	63.000000	0.000000	-1.000000	-1.000000	1088362.000000	1775723782.311500
62335.980000	37248.930000	57597.570000	21361.005000	44291.970000	23910.210000	13832.100000	63916.830000	1.141614	0.426591	0.862735	0.869042	-3.095616	-1.379970	-0.406932	-0.324487	0.198380	6.104000	-3.677660	-0.700010	0.136413	0.689146	-1.000000	-1.000000	-1.000000	-1.000000	-1.000000	-1.000000	-1.000000	63.000000	0.000000	-1.000000	-1.000000	1088363.000000	1775723782.311510
62330.040000	37244.025000	57592.035000	21359.025000	44285.850000	23912.010000	13831.110000	63912.285000	0.211120	-0.145226	-0.936845	-1.238473	-5.498314	-4.848668	-1.509502	-1.657177	0.198380	6.104000	-3.677660	-0.700010	0.136413	0.689146	-1.000000	-1.000000	-1.000000	-1.000000	-1.000000	-1.000000	-1.000000	63.000000	0.000000	-1.000000	-1.000000	1088364.000000	1775723782.311518
62346.780000	37257.210000	57610.755000	21371.535000	44286.390000	23906.925000	13834.125000	63927.810000	-0.894645	-0.567155	-2.175184	-2.307954	-5.305936	-4.978189	-1.649070	-2.307844	0.198380	6.104000	-3.677660	-0.700010	0.136413	0.689146	-1.000000	-1.000000	-1.000000	-1.000000	-1.000000	-1.000000	-1.000000	63.000000	0.000000	-1.000000	-1.000000	1088365.000000	1775723782.314740
62340.480000	37256.445000	57605.130000	21371.985000	44276.265000	23903.145000	13832.415000	63919.170000	-0.821339	-0.251368	-1.684380	-1.848705	-3.353614	-3.002235	-1.000462	-1.400404	0.198380	6.104000	-3.677660	-0.700010	0.136413	0.689146	-1.000000	-1.000000	-1.000000	-1.000000	-1.000000	-1.000000	-1.000000	63.000000	0.000000	-1.000000	-1.000000	1088366.000000	1775723782.314758
62338.995000	37258.335000	57607.695000	21374.055000	44279.235000	23888.970000	13827.555000	63915.480000	0.645189	0.982353	0.423936	-0.241643	-1.057060	-1.339193	-0.206350	0.578552	0.198380	6.104000	-3.677660	-0.700010	0.136413	0.689146	-1.000000	-1.000000	-1.000000	-1.000000	-1.000000	-1.000000	-1.000000	63.000000	0.000000	-1.000000	-1.000000	1088367.000000	1775723782.314778
62336.115000	37249.965000	57603.375000	21367.485000	44286.885000	23890.770000	13826.970000	63918.045000	1.834078	1.873929	2.186490	0.976713	1.039164	-1.127131	0.018544	1.841802	0.198380	6.104000	-3.677660	-0.700010	0.136413	0.689146	-1.000000	-1.000000	-1.000000	-1.000000	-1.000000	-1.000000	-1.000000	63.000000	0.000000	-1.000000	-1.000000	1088368.000000	1775723782.314786
62322.840000	37238.445000	57585.150000	21356.505000	44264.655000	23886.270000	13823.505000	63907.740000	1.347304	0.954294	1.797933	0.382322	2.784180	-1.479661	-0.376278	1.586952	0.198380	6.104000	-3.677660	-0.700010	0.136413	0.689146	-1.000000	-1.000000	-1.000000	-1.000000	-1.000000	-1.000000	-1.000000	63.000000	0.000000	-1.000000	-1.000000	1088369.000000	1775723782.316051
62315.505000	37234.125000	57576.555000	21351.510000	44239.770000	23871.465000	13816.845000	63897.075000	-0.878005	-1.838636	-1.131005	-2.045894	2.658399	-1.137966	-0.928358	0.038074	0.198380	6.104000	-3.677660	-0.700010	0.136413	0.689146	-1.000000	-1.000000	-1.000000	-1.000000	-1.000000	-1.000000	-1.000000	63.000000	0.000000	-1.000000	-1.000000	1088370.000000	1775723782.316064
62310.780000	37231.110000	57575.475000	21353.310000	44244.675000	23879.610000	13816.530000	63885.015000	-3.550570	-4.660273	-4.833907	-4.496235	-0.287722	0.000750	-1.251905	-2.300874	-0.793520	6.302380	-3.067260	-0.703123	0.138244	0.685301	-1.000000	-1.000000	-1.000000	-1.000000	-1.000000	-1.000000	-1.000000	63.000000	0.000000	-1.000000	-1.000000	1088371.000000	1775723782.316081
62322.885000	37241.235000	57593.205000	21365.730000	44284.905000	23885.640000	13820.400000	63893.610000	-4.404313	-5.014371	-5.866719	-4.388401	-2.626926	1.938828	-0.896866	-4.062625	-0.793520	6.302380	-3.067260	-0.703123	0.138244	0.685301	-1.000000	-1.000000	-1.000000	-1.000000	-1.000000	-1.000000	-1.000000	63.000000	0.000000	-1.000000	-1.000000	1088372.000000	1775723782.316089
62336.430000	37257.210000	57611.475000	21380.355000	44314.650000	23913.180000	13830.885000	63910.305000	-1.656952	-1.585032	-1.796709	-0.470205	0.899547	5.145353	0.669305	-2.994243	-0.793520	6.302380	-3.067260	-0.703123	0.138244	0.685301	-1.000000	-1.000000	-1.000000	-1.000000	-1.000000	-1.000000	-1.000000	63.000000	0.000000	-1.000000	-1.000000	1088373.000000	1775723782.316100
62343.585000	37267.650000	57621.600000	21389.355000	44304.030000	23918.715000	13842.135000	63926.910000	4.051032	4.595168	6.041906	5.747832	9.558709	9.116031	3.401816	2.008455	-0.793520	6.302380	-3.067260	-0.703123	0.138244	0.685301	-1.000000	-1.000000	-1.000000	-1.000000	-1.000000	-1.000000	-1.000000	63.000000	0.000000	-1.000000	-1.000000	1088374.000000	1775723782.316108
62347.635000	37269.135000	57623.085000	21389.760000	44286.210000	23893.740000	13840.740000	63937.755000	9.297318	10.073789	12.660266	10.486408	14.967309	10.786976	6.004681	8.790394	-0.793520	6.302380	-3.067260	-0.703123	0.138244	0.685301	-1.000000	-1.000000	-1.000000	-1.000000	-1.000000	-1.000000	-1.000000	63.000000	0.000000	-1.000000	-1.000000	1088375.000000	1775723782.316118
62353.080000	37265.760000	57615.435000	21380.490000	44268.390000	23872.770000	13831.740000	63940.500000	10.451799	10.949069	12.997434	10.109353	9.780514	6.063608	6.148564	12.869481	-0.793520	6.302380	-3.067260	-0.703123	0.138244	0.685301	-1.000000	-1.000000	-1.000000	-1.000000	-1.000000	-1.000000	-1.000000	63.000000	0.000000	-1.000000	-1.000000	1088376.000000	1775723782.316125
62349.435000	37254.420000	57604.770000	21370.455000	44272.755000	23905.620000	13832.505000	63936.180000	6.503363	5.758812	5.763279	3.780360	-4.009261	-4.114690	2.508958	10.741615	-0.793520	6.302380	-3.067260	-0.703123	0.138244	0.685301	-1.000000	-1.000000	-1.000000	-1.000000	-1.000000	-1.000000	-1.000000	63.000000	0.000000	-1.000000	-1.000000	1088377.000000	1775723782.316135
62344.665000	37252.755000	57604.905000	21372.615000	44292.060000	23922.945000	13840.065000	63931.455000	-0.784205	-3.245909	-5.468154	-5.436108	-16.545750	-11.865914	-3.085772	2.502884	-0.793520	6.302380	-3.067260	-0.703123	0.138244	0.685301	-1.000000	-1.000000	-1.000000	-1.000000	-1.000000	-1.000000	-1.000000	63.000000	0.000000	-1.000000	-1.000000	1088378.000000	1775723782.316142
62339.760000	37252.305000	57609.045000	21383.820000	44317.170000	23914.260000	13834.170000	63927.180000	-8.285809	-11.255178	-14.359163	-12.021482	-18.610562	-11.086134	-7.048888	-8.045888	-0.793520	6.302380	-3.067260	-0.703123	0.138244	0.685301	-1.000000	-1.000000	-1.000000	-1.000000	-1.000000	-1.000000	-1.000000	63.000000	0.000000	-1.000000	-1.000000	1088379.000000	1775723782.316152
62343.135000	37259.235000	57614.625000	21389.850000	44297.145000	23901.345000	13832.820000	63929.655000	-12.785497	-13.860989	-16.004444	-11.853071	-9.595503	-4.720964	-7.610838	-15.673397	-0.793520	6.302380	-3.067260	-0.703123	0.138244	0.685301	-1.000000	-1.000000	-1.000000	-1.000000	-1.000000	-1.000000	-1.000000	63.000000	0.000000	-1.000000	-1.000000	1088380.000000	1775723782.316159
62341.425000	37260.495000	57614.130000	21392.325000	44291.835000	23907.645000	13834.575000	63927.945000	-12.308112	-9.912567	-10.218091	-5.526759	2.155698	0.383846	-5.492267	-16.805553	-0.885080	6.577060	-3.143560	-0.709654	0.137146	0.680662	-1.000000	-1.000000	-1.000000	-1.000000	-1.000000	-1.000000	-1.000000	63.000000	0.000000	-1.000000	-1.000000	1088381.000000	1775723782.325385
62340.300000	37259.685000	57614.220000	21393.720000	44311.905000	23912.685000	13834.620000	63925.695000	-7.369899	-2.119527	-1.124121	2.417739	8.434393	1.713889	-2.103389	-11.545743	-0.885080	6.577060	-3.143560	-0.709654	0.137146	0.680662	-1.000000	-1.000000	-1.000000	-1.000000	-1.000000	-1.000000	-1.000000	63.000000	0.000000	-1.000000	-1.000000	1088382.000000	1775723782.325404
62339.760000	37257.300000	57614.265000	21392.505000	44316.630000	23911.740000	13831.965000	63927.135000	-0.644506	5.015833	6.273005	7.351804	8.521404	1.199201	1.225247	-3.090650	-0.885080	6.577060	-3.143560	-0.709654	0.137146	0.680662	-1.000000	-1.000000	-1.000000	-1.000000	-1.000000	-1.000000	-1.000000	63.000000	0.000000	-1.000000	-1.000000	1088383.000000	1775723782.325426
62340.075000	37255.500000	57611.295000	21386.790000	44289.180000	23895.990000	13829.760000	63927.945000	4.958501	8.259718	9.174182	7.349809	5.337664	0.508588	3.311873	4.787534	-0.885080	6.577060	-3.143560	-0.709654	0.137146	0.680662	-1.000000	-1.000000	-1.000000	-1.000000	-1.000000	-1.000000	-1.000000	63.000000	0.000000	-1.000000	-1.000000	1088384.000000	1775723782.325435
62337.870000	37252.755000	57609.495000	21383.730000	44280.765000	23888.925000	13828.275000	63926.775000	7.754012	7.196533	7.637633	3.424313	0.037436	-0.599956	3.651585	9.571664	-0.885080	6.577060	-3.143560	-0.709654	0.137146	0.680662	-1.000000	-1.000000	-1.000000	-1.000000	-1.000000	-1.000000	-1.000000	63.000000	0.000000	-1.000000	-1.000000	1088385.000000	1775723782.333710
62331.660000	37246.455000	57603.285000	21381.345000	44288.415000	23889.870000	13830.030000	63922.905000	7.403675	3.504244	3.532819	-1.629194	-5.817165	-2.068181	2.733802	10.336394	-0.885080	6.577060	-3.143560	-0.709654	0.137146	0.680662	-1.000000	-1.000000	-1.000000	-1.000000	-1.000000	-1.000000	-1.000000	63.000000	0.000000	-1.000000	-1.000000	1088386.000000	1775723782.333732
62345.925000	37260.270000	57618.045000	21397.185000	44309.970000	23906.025000	13835.160000	63931.275000	4.908992	-0.309818	-0.537048	-4.647887	-8.062237	-2.108239	1.655744	7.806274	-0.885080	6.577060	-3.143560	-0.709654	0.137146	0.680662	-1.000000	-1.000000	-1.000000	-1.000000	-1.000000	-1.000000	-1.000000	63.000000	0.000000	-1.000000	-1.000000	1088387.000000	1775723782.333754
62352.945000	37268.010000	57626.505000	21403.620000	44301.645000	23912.055000	13838.895000	63936.540000	2.462271	-1.814902	-2.091895	-3.638716	-4.129963	0.898490	1.289920	4.120954	-0.885080	6.577060	-3.143560	-0.709654	0.137146	0.680662	-1.000000	-1.000000	-1.000000	-1.000000	-1.000000	-1.000000	-1.000000	63.000000	0.000000	-1.000000	-1.000000	1088388.000000	1775723782.333763
62348.670000	37265.535000	57624.120000	21402.495000	44296.695000	23898.735000	13837.770000	63933.525000	1.429333	-0.455381	-0.622696	0.483840	2.863894	5.441004	1.524919	1.169593	-0.885080	6.577060	-3.143560	-0.709654	0.137146	0.680662	-1.000000	-1.000000	-1.000000	-1.000000	-1.000000	-1.000000	-1.000000	63.000000	0.000000	-1.000000	-1.000000	1088389.000000	1775723782.336175
62344.350000	37262.610000	57620.565000	21404.205000	44303.085000	23894.235000	13838.130000	63930.870000	0.766353	1.550769	1.501596	4.261004	7.389210	7.445935	1.426121	-0.901743	-0.885080	6.577060	-3.143560	-0.709654	0.137146	0.680662	-1.000000	-1.000000	-1.000000	-1.000000	-1.000000	-1.000000	-1.000000	63.000000	0.000000	-1.000000	-1.000000	1088390.000000	1775723782.336192
62339.985000	37255.860000	57616.560000	21402.720000	44311.860000	23907.735000	13835.520000	63928.080000	-1.088129	1.557230	1.539268	4.881221	7.434971	5.052730	0.321313	-2.772819	-2.151660	7.141680	-3.540320	-0.715818	0.138549	0.673399	-1.000000	-1.000000	-1.000000	-1.000000	-1.000000	-1.000000	-1.000000	63.000000	0.000000	-1.000000	-1.000000	1088391.000000	1775723782.338980
62340.345000	37255.230000	57617.910000	21402.180000	44313.075000	23915.205000	13833.180000	63929.385000	-3.849560	-0.852788	-0.795417	2.273939	4.779492	0.904478	-1.544317	-4.360397	-2.151660	7.141680	-3.540320	-0.715818	0.138549	0.673399	-1.000000	-1.000000	-1.000000	-1.000000	-1.000000	-1.000000	-1.000000	63.000000	0.000000	-1.000000	-1.000000	1088392.000000	1775723782.338996
62341.650000	37255.095000	57616.200000	21399.300000	44309.115000	23913.720000	13830.120000	63929.610000	-5.685045	-3.785381	-3.528296	-1.652913	1.402858	-1.677182	-3.312775	-4.820574	-2.151660	7.141680	-3.540320	-0.715818	0.138549	0.673399	-1.000000	-1.000000	-1.000000	-1.000000	-1.000000	-1.000000	-1.000000	63.000000	0.000000	-1.000000	-1.000000	1088393.000000	1775723782.345868
62345.070000	37259.055000	57619.260000	21401.640000	44308.260000	23914.260000	13836.060000	63930.915000	-5.076059	-4.881048	-4.572212	-4.648121	-1.940688	-2.312564	-3.972641	-3.632632	-2.151660	7.141680	-3.540320	-0.715818	0.138549	0.673399	-1.000000	-1.000000	-1.000000	-1.000000	-1.000000	-1.000000	-1.000000	63.000000	0.000000	-1.000000	-1.000000	1088394.000000	1775723782.345885
62348.130000	37263.060000	57623.850000	21404.880000	44300.160000	23898.870000	13837.005000	63932.490000	-2.106779	-3.173070	-3.195605	-5.218420	-4.813034	-2.672986	-2.832185	-1.231518	-2.151660	7.141680	-3.540320	-0.715818	0.138549	0.673399	-1.000000	-1.000000	-1.000000	-1.000000	-1.000000	-1.000000	-1.000000	63.000000	0.000000	-1.000000	-1.000000	1088395.000000	1775723782.351184
62348.220000	37264.680000	57626.505000	21405.510000	44295.480000	23884.155000	13832.460000	63931.005000	1.650112	0.370184	-0.122720	-3.247064	-6.612036	-4.237418	-0.370794	1.275181	-2.151660	7.141680	-3.540320	-0.715818	0.138549	0.673399	-1.000000	-1.000000	-1.000000	-1.000000	-1.000000	-1.000000	-1.000000	63.000000	0.000000	-1.000000	-1.000000	1088396.000000	1775723782.351205
62348.220000	37265.265000	57627.405000	21407.220000	44308.530000	23893.515000	13837.275000	63934.380000	4.209000	3.633379	2.968614	-0.033765	-6.459575	-6.463240	1.891475	2.829919	-2.151660	7.141680	-3.540320	-0.715818	0.138549	0.673399	-1.000000	-1.000000	-1.000000	-1.000000	-1.000000	-1.000000	-1.000000	63.000000	0.000000	-1.000000	-1.000000	1088397.000000	1775723782.354313
62338.995000	37258.920000	57624.885000	21409.020000	44317.170000	23923.440000	13836.510000	63928.125000	4.286281	4.720314	4.371638	2.673594	-3.379829	-6.074717	2.925228	2.960957	-2.151660	7.141680	-3.540320	-0.715818	0.138549	0.673399	-1.000000	-1.000000	-1.000000	-1.000000	-1.000000	-1.000000	-1.000000	63.000000	0.000000	-1.000000	-1.000000	1088398.000000	1775723782.354332
62334.720000	37258.740000	57626.730000	21413.205000	44307.180000	23903.010000	13825.935000	63921.555000	1.867250	3.084541	3.441060	3.866049	1.803711	-0.895745	2.528163	1.655454	-2.151660	7.141680	-3.540320	-0.715818	0.138549	0.673399	-1.000000	-1.000000	-1.000000	-1.000000	-1.000000	-1.000000	-1.000000	63.000000	0.000000	-1.000000	-1.000000	1088399.000000	1775723782.354984
62335.530000	37260.630000	57625.695000	21410.640000	44298.810000	23875.920000	13821.480000	63923.535000	-1.565098	-0.022937	0.996862	3.478969	5.655568	5.224886	0.704344	-0.540526	-2.151660	7.141680	-3.540320	-0.715818	0.138549	0.673399	-1.000000	-1.000000	-1.000000	-1.000000	-1.000000	-1.000000	-1.000000	63.000000	0.000000	-1.000000	-1.000000	1088400.000000	1775723782.354999
62342.550000	37268.730000	57633.300000	21418.380000	44304.255000	23872.185000	13825.755000	63927.045000	-3.588731	-2.322814	-1.322474	2.014799	5.525450	6.191493	-1.672092	-2.174145	-1.068200	7.965720	-4.715340	-0.720579	0.139526	0.667540	-1.000000	-1.000000	-1.000000	-1.000000	-1.000000	-1.000000	-1.000000	63.000000	0.000000	-1.000000	-1.000000	1088401.000000	1775723782.366325
62353.260000	37278.315000	57640.500000	21427.335000	44312.130000	23896.665000	13842.360000	63936.135000	-2.509710	-2.180242	-2.076802	0.495811	2.667748	2.243844	-2.478158	-1.788177	-1.068200	7.965720	-4.715340	-0.720579	0.139526	0.667540	-1.000000	-1.000000	-1.000000	-1.000000	-1.000000	-1.000000	-1.000000	63.000000	0.000000	-1.000000	-1.000000	1088402.000000	1775723782.366345
62342.595000	37267.200000	57627.540000	21415.500000	44304.120000	23925.420000	13833.405000	63924.930000	0.917007	-0.111731	-1.262145	-0.386201	0.082977	-0.170193	-0.492953	0.376202	-1.068200	7.965720	-4.715340	-0.720579	0.139526	0.667540	-1.000000	-1.000000	-1.000000	-1.000000	-1.000000	-1.000000	-1.000000	63.000000	0.000000	-1.000000	-1.000000	1088403.000000	1775723782.366365
62342.415000	37265.310000	57624.840000	21414.555000	44300.385000	23910.120000	13832.685000	63924.390000	3.674288	1.392042	-0.605758	-1.296164	-1.206357	2.640931	2.467638	2.188637	-1.068200	7.965720	-4.715340	-0.720579	0.139526	0.667540	-1.000000	-1.000000	-1.000000	-1.000000	-1.000000	-1.000000	-1.000000	63.000000	0.000000	-1.000000	-1.000000	1088404.000000	1775723782.366374
62351.775000	37273.545000	57633.210000	21424.320000	44297.370000	23900.940000	13845.330000	63939.510000	3.669988	0.777036	-1.136220	-2.618980	-1.932818	6.552831	3.753826	2.266103	-1.068200	7.965720	-4.715340	-0.720579	0.139526	0.667540	-1.000000	-1.000000	-1.000000	-1.000000	-1.000000	-1.000000	-1.000000	63.000000	0.000000	-1.000000	-1.000000	1088405.000000	1775723782.382416
62352.000000	37272.150000	57633.120000	21425.085000	44289.180000	23892.030000	13846.680000	63944.460000	1.811269	-0.795234	-1.643377	-3.112137	-2.532617	5.468096	3.101581	1.696142	-1.068200	7.965720	-4.715340	-0.720579	0.139526	0.667540	-1.000000	-1.000000	-1.000000	-1.000000	-1.000000	-1.000000	-1.000000	63.000000	0.000000	-1.000000	-1.000000	1088406.000000	1775723782.382434
62350.560000	37271.070000	57632.490000	21426.255000	44295.885000	23891.625000	13840.470000	63938.160000	-0.147600	-1.672183	-0.929856	-1.926037	-2.655039	-1.030683	1.447238	1.521196	-1.068200	7.965720	-4.715340	-0.720579	0.139526	0.667540	-1.000000	-1.000000	-1.000000	-1.000000	-1.000000	-1.000000	-1.000000	63.000000	0.000000	-1.000000	-1.000000	1088407.000000	1775723782.382456
62350.335000	37273.455000	57635.820000	21433.050000	44313.210000	23900.535000	13839.075000	63934.875000	-1.622214	-1.564914	0.556678	0.159621	-1.274544	-7.896763	-0.951884	0.824273	-1.068200	7.965720	-4.715340	-0.720579	0.139526	0.667540	-1.000000	-1.000000	-1.000000	-1.000000	-1.000000	-1.000000	-1.000000	63.000000	0.000000	-1.000000	-1.000000	1088408.000000	1775723782.382465
62351.730000	37275.345000	57635.595000	21434.715000	44311.365000	23908.050000	13840.650000	63937.620000	-2.566130	-0.825944	1.804714	1.984645	2.096454	-9.891184	-3.559953	-1.176664	-1.068200	7.965720	-4.715340	-0.720579	0.139526	0.667540	-1.000000	-1.000000	-1.000000	-1.000000	-1.000000	-1.000000	-1.000000	63.000000	0.000000	-1.000000	-1.000000	1088409.000000	1775723782.382476
62349.075000	37272.105000	57632.355000	21432.330000	44300.070000	23912.640000	13839.255000	63936.315000	-2.820371	0.111292	2.129950	2.708156	5.360372	-5.874921	-5.041201	-3.420008	-1.068200	7.965720	-4.715340	-0.720579	0.139526	0.667540	-1.000000	-1.000000	-1.000000	-1.000000	-1.000000	-1.000000	-1.000000	63.000000	0.000000	-1.000000	-1.000000	1088410.000000	1775723782.382483
62351.370000	37274.895000	57635.055000	21432.510000	44287.605000	23892.390000	13836.690000	63937.080000	-2.348524	0.719414	1.362295	1.878223	5.091273	0.514386	-4.591225	-4.332143	-1.159760	8.362480	-6.821220	-0.724669	0.139465	0.663817	-1.000000	-1.000000	-1.000000	-1.000000	-1.000000	-1.000000	-1.000000	63.000000	0.000000	-1.000000	-1.000000	1088411.000000	1775723782.382493
62351.100000	37275.030000	57636.585000	21435.660000	44300.430000	23884.650000	13836.600000	63937.395000	-1.299804	0.820124	0.111438	-0.010218	0.852442	4.034458	-2.647950	-3.409129	-1.159760	8.362480	-6.821220	-0.724669	0.139465	0.663817	-1.000000	-1.000000	-1.000000	-1.000000	-1.000000	-1.000000	-1.000000	63.000000	0.000000	-1.000000	-1.000000	1088412.000000	1775723782.382501
62351.730000	37274.940000	57635.100000	21434.490000	44303.310000	23877.360000	13836.825000	63938.745000	0.030960	0.648156	-0.756705	-1.694042	-3.631034	2.627580	-0.181290	-1.243216	-1.159760	8.362480	-6.821220	-0.724669	0.139465	0.663817	-1.000000	-1.000000	-1.000000	-1.000000	-1.000000	-1.000000	-1.000000	63.000000	0.000000	-1.000000	-1.000000	1088413.000000	1775723782.383126
62343.045000	37267.920000	57627.855000	21427.920000	44303.220000	23885.505000	13834.080000	63932.400000	1.034690	0.264889	-1.125401	-2.433287	-4.750828	-0.969820	1.940078	0.989599	-1.159760	8.362480	-6.821220	-0.724669	0.139465	0.663817	-1.000000	-1.000000	-1.000000	-1.000000	-1.000000	-1.000000	-1.000000	63.000000	0.000000	-1.000000	-1.000000	1088414.000000	1775723782.383139
62335.710000	37262.520000	57625.515000	21432.105000	44317.170000	23910.255000	13830.030000	63929.115000	0.948861	-0.557960	-1.489413	-2.370355	-2.380204	-2.097448	3.011465	2.085555	-1.159760	8.362480	-6.821220	-0.724669	0.139465	0.663817	-1.000000	-1.000000	-1.000000	-1.000000	-1.000000	-1.000000	-1.000000	63.000000	0.000000	-1.000000	-1.000000	1088415.000000	1775723782.397014
62338.320000	37265.895000	57629.655000	21436.740000	44309.430000	23898.690000	13823.595000	63924.300000	-0.178439	-1.581964	-1.793094	-1.520800	1.263595	1.249716	2.657494	1.633651	-1.159760	8.362480	-6.821220	-0.724669	0.139465	0.663817	-1.000000	-1.000000	-1.000000	-1.000000	-1.000000	-1.000000	-1.000000	63.000000	0.000000	-1.000000	-1.000000	1088416.000000	1775723782.397032
62334.945000	37262.565000	57626.055000	21432.555000	44299.530000	23887.845000	13822.605000	63912.780000	-1.086634	-1.858635	-1.330172	0.151927	3.293778	5.733422	1.208424	0.173612	-1.159760	8.362480	-6.821220	-0.724669	0.139465	0.663817	-1.000000	-1.000000	-1.000000	-1.000000	-1.000000	-1.000000	-1.000000	63.000000	0.000000	-1.000000	-1.000000	1088417.000000	1775723782.397054
62334.855000	37263.780000	57625.515000	21428.955000	44280.000000	23881.815000	13829.175000	63913.590000	-0.703397	-0.857766	-0.010718	1.749148	1.596869	6.261015	-0.140642	-1.352254	-1.159760	8.362480	-6.821220	-0.724669	0.139465	0.663817	-1.000000	-1.000000	-1.000000	-1.000000	-1.000000	-1.000000	-1.000000	63.000000	0.000000	-1.000000	-1.000000	1088418.000000	1775723782.397063
62341.650000	37275.975000	57638.610000	21439.170000	44275.095000	23891.400000	13838.580000	63924.750000	0.887069	1.116696	1.626709	2.325686	-3.166038	2.171864	0.027942	-1.589001	-1.159760	8.362480	-6.821220	-0.724669	0.139465	0.663817	-1.000000	-1.000000	-1.000000	-1.000000	-1.000000	-1.000000	-1.000000	63.000000	0.000000	-1.000000	-1.000000	1088419.000000	1775723782.397074
62355.060000	37293.210000	57655.395000	21457.710000	44308.080000	23892.750000	13851.315000	63945.315000	3.168759	3.759107	3.570661	2.534022	-6.807759	-2.588569	2.102021	0.852032	-1.159760	8.362480	-6.821220	-0.724669	0.139465	0.663817	-1.000000	-1.000000	-1.000000	-1.000000	-1.000000	-1.000000	-1.000000	63.000000	0.000000	-1.000000	-1.000000	1088420.000000	1775723782.397082
62353.170000	37291.410000	57654.540000	21463.965000	44344.755000	23901.255000	13848.705000	63949.770000	5.344569	6.325256	5.613821	3.568477	-4.040752	-4.327969	4.676781	5.554483	-1.800680	8.301440	-7.477400	-0.727232	0.139099	0.661192	-1.000000	-1.000000	-1.000000	-1.000000	-1.000000	-1.000000	-1.000000	63.000000	0.000000	-1.000000	-1.000000	1088421.000000	1775723782.411376
62348.490000	37277.505000	57638.250000	21448.035000	44325.450000	23905.035000	13839.120000	63947.295000	5.752976	6.551679	5.760472	4.422873	5.158767	-2.588127	5.074600	9.261707	-1.800680	8.301440	-7.477400	-0.727232	0.139099	0.661192	-1.000000	-1.000000	-1.000000	-1.000000	-1.000000	-1.000000	-1.000000	63.000000	0.000000	-1.000000	-1.000000	1088422.000000	1775723782.411394
62335.125000	37261.440000	57622.230000	21432.330000	44302.095000	23890.770000	13830.165000	63932.355000	2.845795	2.235599	1.668335	2.207353	12.601461	0.275330	1.520805	8.055708	-1.800680	8.301440	-7.477400	-0.727232	0.139099	0.661192	-1.000000	-1.000000	-1.000000	-1.000000	-1.000000	-1.000000	-1.000000	63.000000	0.000000	-1.000000	-1.000000	1088423.000000	1775723782.411415
62331.750000	37261.575000	57625.020000	21436.470000	44294.895000	23878.530000	13831.920000	63928.980000	-2.813191	-5.437842	-5.652339	-3.612115	10.132945	1.032861	-4.560483	1.128853	-1.800680	8.301440	-7.477400	-0.727232	0.139099	0.661192	-1.000000	-1.000000	-1.000000	-1.000000	-1.000000	-1.000000	-1.000000	63.000000	0.000000	-1.000000	-1.000000	1088424.000000	1775723782.411424
62346.060000	37275.705000	57637.395000	21446.730000	44293.230000	23882.805000	13836.690000	63939.555000	-7.894774	-11.387273	-11.133134	-8.982558	-0.835510	-1.275220	-9.106543	-7.588565	-1.800680	8.301440	-7.477400	-0.727232	0.139099	0.661192	-1.000000	-1.000000	-1.000000	-1.000000	-1.000000	-1.000000	-1.000000	63.000000	0.000000	-1.000000	-1.000000	1088425.000000	1775723782.416264
62344.035000	37274.580000	57634.920000	21447.225000	44286.750000	23880.105000	13837.095000	63936.270000	-8.610552	-10.879733	-10.230218	-9.236742	-11.667038	-4.068480	-8.903923	-12.352028	-1.800680	8.301440	-7.477400	-0.727232	0.139099	0.661192	-1.000000	-1.000000	-1.000000	-1.000000	-1.000000	-1.000000	-1.000000	63.000000	0.000000	-1.000000	-1.000000	1088426.000000	1775723782.416283
62340.255000	37270.620000	57632.265000	21446.910000	44300.295000	23873.625000	13835.430000	63934.380000	-4.630577	-4.371182	-3.690351	-4.164669	-15.124432	-4.459994	-4.354906	-10.790285	-1.800680	8.301440	-7.477400	-0.727232	0.139099	0.661192	-1.000000	-1.000000	-1.000000	-1.000000	-1.000000	-1.000000	-1.000000	63.000000	0.000000	-1.000000	-1.000000	1088427.000000	1775723782.416303
62337.780000	37271.295000	57634.470000	21451.500000	44325.810000	23880.330000	13832.640000	63932.850000	0.657628	3.261452	3.708783	2.461126	-9.301221	-2.108048	1.318459	-5.150148	-1.800680	8.301440	-7.477400	-0.727232	0.139099	0.661192	-1.000000	-1.000000	-1.000000	-1.000000	-1.000000	-1.000000	-1.000000	63.000000	0.000000	-1.000000	-1.000000	1088428.000000	1775723782.416312
62332.470000	37268.325000	57630.240000	21446.460000	44318.295000	23884.605000	13829.580000	63929.970000	3.858972	7.653193	7.911345	6.811054	2.352251	1.737186	4.964907	0.845349	-1.800680	8.301440	-7.477400	-0.727232	0.139099	0.661192	-1.000000	-1.000000	-1.000000	-1.000000	-1.000000	-1.000000	-1.000000	63.000000	0.000000	-1.000000	-1.000000	1088429.000000	1775723782.416322
62330.670000	37266.390000	57627.135000	21442.995000	44302.230000	23874.480000	13827.600000	63928.170000	3.991200	7.609764	7.730572	7.136478	12.125300	5.261523	5.439454	4.674471	-1.800680	8.301440	-7.477400	-0.727232	0.139099	0.661192	-1.000000	-1.000000	-1.000000	-1.000000	-1.000000	-1.000000	-1.000000	63.000000	0.000000	-1.000000	-1.000000	1088430.000000	1775723782.416330
62339.490000	37277.415000	57636.720000	21451.275000	44295.930000	23854.005000	13829.670000	63930.240000	2.380518	4.693252	4.534512	4.176477	13.243618	6.013549	3.669757	5.757055	-4.425400	6.928040	-6.943300	-0.728575	0.139404	0.658385	-1.000000	-1.000000	-1.000000	-1.000000	-1.000000	-1.000000	-1.000000	63.000000	0.000000	-1.000000	-1.000000	1088431.000000	1775723782.429712
62359.110000	37295.820000	57658.320000	21471.120000	44315.910000	23851.260000	13837.995000	63943.920000	1.512565	1.926909	1.424065	0.874058	6.302488	2.751525	1.624584	5.218488	-4.425400	6.928040	-6.943300	-0.728575	0.139404	0.658385	-1.000000	-1.000000	-1.000000	-1.000000	-1.000000	-1.000000	-1.000000	63.000000	0.000000	-1.000000	-1.000000	1088432.000000	1775723782.429730
62353.935000	37288.395000	57650.130000	21464.100000	44312.715000	23864.670000	13830.660000	63939.735000	2.659606	1.194764	0.645821	-0.214312	-1.880031	-2.029853	0.658368	4.512003	-4.425400	6.928040	-6.943300	-0.728575	0.139404	0.658385	-1.000000	-1.000000	-1.000000	-1.000000	-1.000000	-1.000000	-1.000000	63.000000	0.000000	-1.000000	-1.000000	1088433.000000	1775723782.435095
62348.985000	37284.030000	57645.630000	21461.895000	44322.075000	23937.570000	13837.005000	63937.350000	3.974075	1.135273	0.938299	0.169133	-5.786149	-2.633710	0.490744	3.611549	-4.425400	6.928040	-6.943300	-0.728575	0.139404	0.658385	-1.000000	-1.000000	-1.000000	-1.000000	-1.000000	-1.000000	-1.000000	63.000000	0.000000	-1.000000	-1.000000	1088434.000000	1775723782.435114
62348.670000	37282.545000	57642.975000	21457.530000	44301.960000	23920.335000	13844.475000	63941.085000	2.670956	-0.624788	-0.423827	-0.473749	-5.339485	4.017404	0.428970	1.634205	-4.425400	6.928040	-6.943300	-0.728575	0.139404	0.658385	-1.000000	-1.000000	-1.000000	-1.000000	-1.000000	-1.000000	-1.000000	63.000000	0.000000	-1.000000	-1.000000	1088435.000000	1775723782.435134
62342.280000	37276.020000	57636.495000	21448.260000	44275.770000	23895.315000	13842.405000	63938.880000	-1.367643	-4.050352	-3.746906	-2.924836	-4.197253	11.652600	0.395498	-1.147395	-4.425400	6.928040	-6.943300	-0.728575	0.139404	0.658385	-1.000000	-1.000000	-1.000000	-1.000000	-1.000000	-1.000000	-1.000000	63.000000	0.000000	-1.000000	-1.000000	1088436.000000	1775723782.435143
62334.810000	37272.510000	57633.435000	21451.005000	44304.570000	23902.290000	13837.860000	63931.320000	-5.865491	-7.094006	-6.962588	-5.716097	-4.633005	10.344565	0.025765	-3.655985	-4.425400	6.928040	-6.943300	-0.728575	0.139404	0.658385	-1.000000	-1.000000	-1.000000	-1.000000	-1.000000	-1.000000	-1.000000	63.000000	0.000000	-1.000000	-1.000000	1088437.000000	1775723782.435153
62336.430000	37275.165000	57639.060000	21459.330000	44335.980000	23904.990000	13832.955000	63930.735000	-8.387287	-7.753057	-7.757900	-6.418291	-3.626828	-0.478498	-1.318631	-5.213651	-4.425400	6.928040	-6.943300	-0.728575	0.139404	0.658385	-1.000000	-1.000000	-1.000000	-1.000000	-1.000000	-1.000000	-1.000000	63.000000	0.000000	-1.000000	-1.000000	1088438.000000	1775723782.435161
62337.240000	37277.460000	57643.785000	21464.820000	44320.545000	23891.760000	13827.105000	63929.250000	-7.444865	-5.178411	-4.986321	-3.528029	1.985033	-12.526011	-3.394280	-5.342209	-4.425400	6.928040	-6.943300	-0.728575	0.139404	0.658385	-1.000000	-1.000000	-1.000000	-1.000000	-1.000000	-1.000000	-1.000000	63.000000	0.000000	-1.000000	-1.000000	1088439.000000	1775723782.435828
62335.080000	37275.885000	57644.505000	21470.220000	44311.410000	23875.380000	13824.630000	63927.900000	-3.288042	-0.316906	0.372234	1.850343	8.412549	-18.946480	-4.994429	-3.763389	-4.425400	6.928040	-6.943300	-0.728575	0.139404	0.658385	-1.000000	-1.000000	-1.000000	-1.000000	-1.000000	-1.000000	-1.000000	63.000000	0.000000	-1.000000	-1.000000	1088440.000000	1775723782.435839
62348.985000	37286.460000	57656.205000	21484.035000	44337.780000	23895.090000	13840.740000	63944.325000	2.218628	4.617193	5.709439	6.869614	9.792675	-17.803347	-4.555033	-0.670737	-5.493600	5.554640	-6.897520	-0.729246	0.139282	0.656187	-1.000000	-1.000000	-1.000000	-1.000000	-1.000000	-1.000000	-1.000000	63.000000	0.000000	-1.000000	-1.000000	1088441.000000	1775723782.443352
62342.775000	37276.920000	57644.910000	21470.715000	44324.100000	23896.260000	13841.370000	63942.165000	6.881805	7.578835	8.510315	8.933008	5.930437	-9.697078	-1.195922	3.274325	-5.493600	5.554640	-6.897520	-0.729246	0.139282	0.656187	-1.000000	-1.000000	-1.000000	-1.000000	-1.000000	-1.000000	-1.000000	63.000000	0.000000	-1.000000	-1.000000	1088442.000000	1775723782.443371
62329.230000	37264.635000	57632.715000	21455.685000	44296.830000	23876.820000	13826.205000	63927.945000	8.501401	7.103882	7.138379	6.319444	-0.490201	1.852143	3.379784	6.121943	-5.493600	5.554640	-6.897520	-0.729246	0.139282	0.656187	-1.000000	-1.000000	-1.000000	-1.000000	-1.000000	-1.000000	-1.000000	63.000000	0.000000	-1.000000	-1.000000	1088443.000000	1775723782.458297
62324.595000	37264.860000	57634.515000	21459.150000	44298.270000	23873.220000	13822.155000	63920.970000	5.708883	3.073599	1.888920	-0.424993	-7.697143	10.600457	5.510068	5.336112	-5.493600	5.554640	-6.897520	-0.729246	0.139282	0.656187	-1.000000	-1.000000	-1.000000	-1.000000	-1.000000	-1.000000	-1.000000	63.000000	0.000000	-1.000000	-1.000000	1088444.000000	1775723782.458317
62331.255000	37275.075000	57645.135000	21469.410000	44306.595000	23877.090000	13823.595000	63921.915000	0.186717	-1.889749	-3.839525	-7.085536	-12.503305	12.854948	3.732925	1.013756	-5.493600	5.554640	-6.897520	-0.729246	0.139282	0.656187	-1.000000	-1.000000	-1.000000	-1.000000	-1.000000	-1.000000	-1.000000	63.000000	0.000000	-1.000000	-1.000000	1088445.000000	1775723782.458339
62340.435000	37287.630000	57654.450000	21475.755000	44308.125000	23877.900000	13826.610000	63924.750000	-3.907342	-3.936387	-5.821931	-8.814402	-11.127409	10.234998	0.363534	-3.468538	-5.493600	5.554640	-6.897520	-0.729246	0.139282	0.656187	-1.000000	-1.000000	-1.000000	-1.000000	-1.000000	-1.000000	-1.000000	63.000000	0.000000	-1.000000	-1.000000	1088446.000000	1775723782.458348
62346.465000	37293.210000	57658.590000	21480.300000	44304.345000	23884.110000	13840.920000	63938.970000	-3.768133	-1.682463	-3.006723	-4.771817	-3.900251	6.331409	-1.338013	-4.594453	-5.493600	5.554640	-6.897520	-0.729246	0.139282	0.656187	-1.000000	-1.000000	-1.000000	-1.000000	-1.000000	-1.000000	-1.000000	63.000000	0.000000	-1.000000	-1.000000	1088447.000000	1775723782.458359
62347.680000	37290.420000	57654.360000	21477.060000	44282.655000	23871.555000	13844.205000	63950.130000	-0.357184	2.393240	1.662675	1.511759	4.190840	3.082464	-0.064601	-1.427373	-5.493600	5.554640	-6.897520	-0.729246	0.139282	0.656187	-1.000000	-1.000000	-1.000000	-1.000000	-1.000000	-1.000000	-1.000000	63.000000	0.000000	-1.000000	-1.000000	1088448.000000	1775723782.458368
62346.600000	37287.630000	57651.660000	21478.185000	44295.075000	23866.335000	13837.635000	63944.820000	2.944526	4.345758	4.151247	5.604904	8.218090	0.180469	2.507059	3.667778	-5.493600	5.554640	-6.897520	-0.729246	0.139282	0.656187	-1.000000	-1.000000	-1.000000	-1.000000	-1.000000	-1.000000	-1.000000	63.000000	0.000000	-1.000000	-1.000000	1088449.000000	1775723782.458378
62340.210000	37283.265000	57651.615000	21486.060000	44337.780000	23912.820000	13841.505000	63937.530000	3.357464	2.314973	2.811561	5.694496	8.535598	-2.040187	3.361388	6.399374	-5.493600	5.554640	-6.897520	-0.729246	0.139282	0.656187	-1.000000	-1.000000	-1.000000	-1.000000	-1.000000	-1.000000	-1.000000	63.000000	0.000000	-1.000000	-1.000000	1088450.000000	1775723782.458387
62345.160000	37289.520000	57660.705000	21495.600000	44342.235000	23903.910000	13842.315000	63942.030000	0.685630	-2.129129	-0.609523	3.296270	9.140441	-1.439190	1.438972	4.298243	-5.722500	3.937080	-5.798800	-0.731199	0.131775	0.655577	-1.000000	-1.000000	-1.000000	-1.000000	-1.000000	-1.000000	-1.000000	63.000000	0.000000	-1.000000	-1.000000	1088451.000000	1775723782.458922
62346.780000	37288.305000	57658.545000	21493.395000	44327.385000	23886.585000	13838.310000	63942.345000	-2.798139	-5.658402	-3.106041	0.782806	10.121322	1.032479	-1.800047	-0.854412	-5.722500	3.937080	-5.798800	-0.731199	0.131775	0.655577	-1.000000	-1.000000	-1.000000	-1.000000	-1.000000	-1.000000	-1.000000	63.000000	0.000000	-1.000000	-1.000000	1088452.000000	1775723782.458938
62332.740000	37269.495000	57639.510000	21476.385000	44305.740000	23873.130000	13833.000000	63933.930000	-4.811266	-6.479592	-3.689197	-1.359803	6.766952	0.618749	-4.571333	-5.422186	-5.722500	3.937080	-5.798800	-0.731199	0.131775	0.655577	-1.000000	-1.000000	-1.000000	-1.000000	-1.000000	-1.000000	-1.000000	63.000000	0.000000	-1.000000	-1.000000	1088453.000000	1775723782.466581
62329.455000	37263.105000	57632.805000	21470.220000	44288.640000	23862.825000	13829.265000	63932.535000	-5.122173	-5.578662	-3.802545	-4.069582	-3.071064	-4.434409	-5.926264	-7.382583	-5.722500	3.937080	-5.798800	-0.731199	0.131775	0.655577	-1.000000	-1.000000	-1.000000	-1.000000	-1.000000	-1.000000	-1.000000	63.000000	0.000000	-1.000000	-1.000000	1088454.000000	1775723782.466600
62333.910000	37268.955000	57639.915000	21476.925000	44289.990000	23859.405000	13821.795000	63924.570000	-4.223444	-4.018605	-4.043933	-6.748595	-14.775784	-10.376611	-5.583792	-6.679933	-5.722500	3.937080	-5.798800	-0.731199	0.131775	0.655577	-1.000000	-1.000000	-1.000000	-1.000000	-1.000000	-1.000000	-1.000000	63.000000	0.000000	-1.000000	-1.000000	1088455.000000	1775723782.474437
62336.430000	37276.245000	57647.250000	21482.235000	44295.660000	23850.135000	13817.880000	63915.345000	-1.857825	-1.092594	-2.724478	-6.805636	-20.469901	-12.294111	-3.803646	-4.281492	-5.722500	3.937080	-5.798800	-0.731199	0.131775	0.655577	-1.000000	-1.000000	-1.000000	-1.000000	-1.000000	-1.000000	-1.000000	63.000000	0.000000	-1.000000	-1.000000	1088456.000000	1775723782.474455
62343.270000	37288.890000	57658.230000	21491.325000	44294.040000	23861.835000	13824.900000	63918.540000	1.876896	3.739660	1.367435	-2.814223	-15.887930	-8.210971	-0.981692	-1.319324	-5.722500	3.937080	-5.798800	-0.731199	0.131775	0.655577	-1.000000	-1.000000	-1.000000	-1.000000	-1.000000	-1.000000	-1.000000	63.000000	0.000000	-1.000000	-1.000000	1088457.000000	1775723782.474474
62347.185000	37291.860000	57661.470000	21498.570000	44304.480000	23897.835000	13841.640000	63933.255000	5.667971	8.940980	6.710390	3.553566	-3.715834	0.971598	2.873347	2.038762	-5.722500	3.937080	-5.798800	-0.731199	0.131775	0.655577	-1.000000	-1.000000	-1.000000	-1.000000	-1.000000	-1.000000	-1.000000	63.000000	0.000000	-1.000000	-1.000000	1088458.000000	1775723782.474482
62343.450000	37286.190000	57658.590000	21502.485000	44348.085000	23932.485000	13851.090000	63945.630000	7.614593	11.418084	9.956188	8.848602	10.098923	12.885912	7.441029	6.194761	-5.722500	3.937080	-5.798800	-0.731199	0.131775	0.655577	-1.000000	-1.000000	-1.000000	-1.000000	-1.000000	-1.000000	-1.000000	63.000000	0.000000	-1.000000	-1.000000	1088459.000000	1775723782.480544
62339.130000	37279.620000	57652.830000	21498.750000	44357.355000	23907.870000	13839.480000	63944.955000	6.303429	8.777738	8.494078	10.110620	20.802886	22.325286	10.590414	10.075608	-5.722500	3.937080	-5.798800	-0.731199	0.131775	0.655577	-1.000000	-1.000000	-1.000000	-1.000000	-1.000000	-1.000000	-1.000000	63.000000	0.000000	-1.000000	-1.000000	1088460.000000	1775723782.480559
62342.100000	37274.535000	57646.170000	21489.570000	44318.295000	23879.520000	13833.405000	63946.530000	2.102526	1.649315	2.539015	6.381549	23.652900	21.459052	9.165709	10.943349	-4.349100	2.594200	-4.883200	-0.732603	0.120544	0.657286	-1.000000	-1.000000	-1.000000	-1.000000	-1.000000	-1.000000	-1.000000	63.000000	0.000000	-1.000000	-1.000000	1088461.000000	1775723782.490245
62338.140000	37272.870000	57645.045000	21488.355000	44310.060000	23874.705000	13832.370000	63939.330000	-2.707362	-6.323616	-4.855138	-0.679742	14.528415	7.310575	2.638695	7.042609	-4.349100	2.594200	-4.883200	-0.732603	0.120544	0.657286	-1.000000	-1.000000	-1.000000	-1.000000	-1.000000	-1.000000	-1.000000	63.000000	0.000000	-1.000000	-1.000000	1088462.000000	1775723782.490264
62337.285000	37276.290000	57648.645000	21493.980000	44322.255000	23886.765000	13834.980000	63938.295000	-5.777129	-10.935627	-9.692420	-7.253764	-3.182003	-12.148467	-5.339924	-0.413446	-4.349100	2.594200	-4.883200	-0.732603	0.120544	0.657286	-1.000000	-1.000000	-1.000000	-1.000000	-1.000000	-1.000000	-1.000000	63.000000	0.000000	-1.000000	-1.000000	1088463.000000	1775723782.490283
62339.130000	37279.035000	57650.895000	21496.590000	44315.820000	23883.435000	13834.800000	63940.455000	-6.136179	-10.064057	-9.520313	-9.616626	-18.524594	-24.260847	-10.087937	-7.831156	-4.349100	2.594200	-4.883200	-0.732603	0.120544	0.657286	-1.000000	-1.000000	-1.000000	-1.000000	-1.000000	-1.000000	-1.000000	63.000000	0.000000	-1.000000	-1.000000	1088464.000000	1775723782.490291
62335.440000	37275.210000	57649.725000	21496.860000	44312.760000	23878.980000	13834.530000	63938.700000	-4.164031	-4.866967	-4.993113	-6.950840	-23.183225	-23.088039	-9.652492	-11.575128	-4.349100	2.594200	-4.883200	-0.732603	0.120544	0.657286	-1.000000	-1.000000	-1.000000	-1.000000	-1.000000	-1.000000	-1.000000	63.000000	0.000000	-1.000000	-1.000000	1088465.000000	1775723782.490302
62331.930000	37272.330000	57648.555000	21497.580000	44314.020000	23885.370000	13834.935000	63937.575000	-1.245194	1.178763	0.815231	-1.646215	-17.200257	-12.114216	-5.404266	-10.416186	-4.349100	2.594200	-4.883200	-0.732603	0.120544	0.657286	-1.000000	-1.000000	-1.000000	-1.000000	-1.000000	-1.000000	-1.000000	63.000000	0.000000	-1.000000	-1.000000	1088466.000000	1775723782.490310
62332.605000	37275.345000	57650.580000	21498.435000	44309.700000	23883.615000	13833.225000	63937.485000	1.118726	4.992135	4.857676	3.051815	-5.831164	1.376662	-0.192568	-5.834630	-4.349100	2.594200	-4.883200	-0.732603	0.120544	0.657286	-1.000000	-1.000000	-1.000000	-1.000000	-1.000000	-1.000000	-1.000000	63.000000	0.000000	-1.000000	-1.000000	1088467.000000	1775723782.490891
62329.680000	37273.770000	57646.935000	21495.060000	44300.340000	23871.960000	13827.960000	63934.155000	2.321677	5.782721	5.889750	5.153670	4.793786	11.086074	3.484134	-0.421541	-4.349100	2.594200	-4.883200	-0.732603	0.120544	0.657286	-1.000000	-1.000000	-1.000000	-1.000000	-1.000000	-1.000000	-1.000000	63.000000	0.000000	-1.000000	-1.000000	1088468.000000	1775723782.490904
62329.005000	37274.535000	57647.655000	21497.040000	44298.900000	23848.245000	13824.270000	63933.480000	2.523156	4.450735	4.368045	4.458572	10.516685	13.315951	4.431469	3.625430	-4.349100	2.594200	-4.883200	-0.732603	0.120544	0.657286	-1.000000	-1.000000	-1.000000	-1.000000	-1.000000	-1.000000	-1.000000	63.000000	0.000000	-1.000000	-1.000000	1088469.000000	1775723782.496210
62325.540000	37272.825000	57647.340000	21502.305000	44303.580000	23837.805000	13824.900000	63930.420000	2.054929	2.222257	1.664465	2.273136	10.911034	8.175891	3.138500	5.302286	-4.349100	2.594200	-4.883200	-0.732603	0.120544	0.657286	-1.000000	-1.000000	-1.000000	-1.000000	-1.000000	-1.000000	-1.000000	63.000000	0.000000	-1.000000	-1.000000	1088470.000000	1775723782.496230
62341.695000	37289.745000	57666.240000	21520.665000	44324.865000	23878.440000	13836.780000	63941.625000	1.536046	0.355768	-0.391527	0.673814	8.754207	0.787287	1.466165	5.057224	-3.509800	1.480220	-5.035800	-0.731504	0.114380	0.658934	-1.000000	-1.000000	-1.000000	-1.000000	-1.000000	-1.000000	-1.000000	63.000000	0.000000	-1.000000	-1.000000	1088471.000000	1775723782.506002
62342.820000	37291.005000	57668.220000	21521.970000	44329.410000	23909.760000	13840.245000	63942.750000	1.824592	-0.051217	-0.383461	0.941618	7.074695	-1.188451	1.221193	4.220478	-3.509800	1.480220	-5.035800	-0.731504	0.114380	0.658934	-1.000000	-1.000000	-1.000000	-1.000000	-1.000000	-1.000000	-1.000000	63.000000	0.000000	-1.000000	-1.000000	1088472.000000	1775723782.506025
62334.360000	37280.610000	57658.410000	21511.710000	44316.990000	23889.510000	13833.810000	63936.855000	2.544747	0.500437	0.913052	1.873445	5.885261	4.227909	2.212253	3.370127	-3.509800	1.480220	-5.035800	-0.731504	0.114380	0.658934	-1.000000	-1.000000	-1.000000	-1.000000	-1.000000	-1.000000	-1.000000	63.000000	0.000000	-1.000000	-1.000000	1088473.000000	1775723782.506046
62333.460000	37279.485000	57658.455000	21510.900000	44308.620000	23892.660000	13829.085000	63935.370000	1.924454	-0.006398	0.940852	0.909358	2.636160	9.891162	2.353747	1.803465	-3.509800	1.480220	-5.035800	-0.731504	0.114380	0.658934	-1.000000	-1.000000	-1.000000	-1.000000	-1.000000	-1.000000	-1.000000	63.000000	0.000000	-1.000000	-1.000000	1088474.000000	1775723782.506055
62340.075000	37285.470000	57663.675000	21511.260000	44293.995000	23882.085000	13829.175000	63937.620000	-0.486705	-2.102600	-1.156204	-2.352429	-3.679916	8.297533	0.385917	-0.684372	-3.509800	1.480220	-5.035800	-0.731504	0.114380	0.658934	-1.000000	-1.000000	-1.000000	-1.000000	-1.000000	-1.000000	-1.000000	63.000000	0.000000	-1.000000	-1.000000	1088475.000000	1775723782.515238
62347.995000	37293.840000	57671.010000	21516.885000	44299.485000	23864.400000	13839.750000	63943.470000	-2.746016	-3.761811	-3.356088	-5.439725	-10.374368	-0.720357	-2.342449	-2.814722	-3.509800	1.480220	-5.035800	-0.731504	0.114380	0.658934	-1.000000	-1.000000	-1.000000	-1.000000	-1.000000	-1.000000	-1.000000	63.000000	0.000000	-1.000000	-1.000000	1088476.000000	1775723782.515259
62341.155000	37287.405000	57668.670000	21524.805000	44337.150000	23870.970000	13839.075000	63939.870000	-3.126983	-3.247982	-3.597087	-5.710399	-12.429702	-11.598859	-3.444414	-3.299711	-3.509800	1.480220	-5.035800	-0.731504	0.114380	0.658934	-1.000000	-1.000000	-1.000000	-1.000000	-1.000000	-1.000000	-1.000000	63.000000	0.000000	-1.000000	-1.000000	1088477.000000	1775723782.515282
62329.950000	37274.805000	57658.185000	21520.530000	44330.490000	23893.470000	13837.995000	63935.955000	-2.379143	-1.541840	-2.265631	-2.842967	-6.796226	-17.096013	-2.335545	-2.427782	-3.509800	1.480220	-5.035800	-0.731504	0.114380	0.658934	-1.000000	-1.000000	-1.000000	-1.000000	-1.000000	-1.000000	-1.000000	63.000000	0.000000	-1.000000	-1.000000	1088478.000000	1775723782.515291
62330.130000	37274.760000	57655.350000	21512.790000	44305.560000	23877.045000	13833.540000	63936.945000	-2.243548	-0.780315	-1.265960	0.805886	2.527162	-13.340661	-0.599773	-1.421144	-3.509800	1.480220	-5.035800	-0.731504	0.114380	0.658934	-1.000000	-1.000000	-1.000000	-1.000000	-1.000000	-1.000000	-1.000000	63.000000	0.000000	-1.000000	-1.000000	1088479.000000	1775723782.516532
62333.910000	37283.085000	57664.710000	21523.500000	44316.360000	23867.820000	13828.275000	63934.065000	-2.626991	-1.018350	-1.132151	2.704608	7.665205	-3.913947	0.065737	-0.839421	-3.509800	1.480220	-5.035800	-0.731504	0.114380	0.658934	-1.000000	-1.000000	-1.000000	-1.000000	-1.000000	-1.000000	-1.000000	63.000000	0.000000	-1.000000	-1.000000	1088480.000000	1775723782.516551
62333.010000	37282.275000	57664.935000	21527.055000	44322.795000	23881.185000	13828.680000	63932.535000	-1.994779	-0.467807	-0.515635	2.818685	6.209549	4.359232	-0.584060	-0.493482	-1.770160	1.495480	-2.563680	-0.730040	0.113220	0.659666	-1.000000	-1.000000	-1.000000	-1.000000	-1.000000	-1.000000	-1.000000	63.000000	0.000000	-1.000000	-1.000000	1088481.000000	1775723782.524673
62335.710000	37282.455000	57663.720000	21525.165000	44316.315000	23876.370000	13834.665000	63938.970000	0.163261	1.459959	1.259724	2.449364	1.974792	8.399664	-1.305096	-0.004436	-1.770160	1.495480	-2.563680	-0.730040	0.113220	0.659666	-1.000000	-1.000000	-1.000000	-1.000000	-1.000000	-1.000000	-1.000000	63.000000	0.000000	-1.000000	-1.000000	1088482.000000	1775723782.524692
62337.195000	37286.145000	57666.060000	21529.890000	44332.875000	23913.135000	13839.930000	63941.490000	2.806506	3.484364	3.094777	1.972617	-1.187037	9.338188	-0.629198	1.013517	-1.770160	1.495480	-2.563680	-0.730040	0.113220	0.659666	-1.000000	-1.000000	-1.000000	-1.000000	-1.000000	-1.000000	-1.000000	63.000000	0.000000	-1.000000	-1.000000	1088483.000000	1775723782.524712
62333.190000	37285.560000	57666.600000	21534.705000	44344.260000	23925.285000	13838.760000	63939.645000	4.450947	4.278192	3.751730	1.278189	-1.563498	9.562786	1.463839	2.323483	-1.770160	1.495480	-2.563680	-0.730040	0.113220	0.659666	-1.000000	-1.000000	-1.000000	-1.000000	-1.000000	-1.000000	-1.000000	63.000000	0.000000	-1.000000	-1.000000	1088484.000000	1775723782.524720
62335.125000	37289.295000	57670.380000	21536.910000	44330.805000	23897.385000	13835.385000	63942.165000	4.159031	3.489026	3.046575	0.575610	0.259549	9.002424	3.296856	2.944899	-1.770160	1.495480	-2.563680	-0.730040	0.113220	0.659666	-1.000000	-1.000000	-1.000000	-1.000000	-1.000000	-1.000000	-1.000000	63.000000	0.000000	-1.000000	-1.000000	1088485.000000	1775723782.532793
62333.010000	37286.505000	57666.465000	21532.230000	44310.555000	23883.120000	13834.710000	63940.185000	2.192341	1.565862	1.492616	-0.151927	1.046281	4.256622	3.199204	2.247774	-1.770160	1.495480	-2.563680	-0.730040	0.113220	0.659666	-1.000000	-1.000000	-1.000000	-1.000000	-1.000000	-1.000000	-1.000000	63.000000	0.000000	-1.000000	-1.000000	1088486.000000	1775723782.532813
62331.660000	37285.695000	57664.395000	21529.035000	44302.095000	23877.720000	13833.360000	63938.790000	-0.305229	-0.756349	-0.417608	-1.302305	-1.820563	-5.451924	1.172704	0.502799	-1.770160	1.495480	-2.563680	-0.730040	0.113220	0.659666	-1.000000	-1.000000	-1.000000	-1.000000	-1.000000	-1.000000	-1.000000	63.000000	0.000000	-1.000000	-1.000000	1088487.000000	1775723782.533515
62332.020000	37285.245000	57665.295000	21530.880000	44313.795000	23882.355000	13833.360000	63938.610000	-2.218725	-2.751517	-2.211726	-2.754668	-6.340875	-14.725266	-1.345785	-1.486212	-1.770160	1.495480	-2.563680	-0.730040	0.113220	0.659666	-1.000000	-1.000000	-1.000000	-1.000000	-1.000000	-1.000000	-1.000000	63.000000	0.000000	-1.000000	-1.000000	1088488.000000	1775723782.533532
62330.985000	37284.975000	57665.880000	21535.875000	44331.795000	23892.120000	13831.110000	63936.405000	-2.907863	-3.741888	-3.155260	-3.426342	-7.312476	-16.889194	-2.898312	-2.830209	-1.770160	1.495480	-2.563680	-0.730040	0.113220	0.659666	-1.000000	-1.000000	-1.000000	-1.000000	-1.000000	-1.000000	-1.000000	63.000000	0.000000	-1.000000	-1.000000	1088489.000000	1775723782.536774
62324.415000	37281.510000	57660.345000	21534.120000	44319.510000	23883.030000	13822.650000	63926.910000	-2.478703	-3.457815	-2.851506	-2.411253	-2.400026	-10.353501	-3.090628	-3.192519	-1.770160	1.495480	-2.563680	-0.730040	0.113220	0.659666	-1.000000	-1.000000	-1.000000	-1.000000	-1.000000	-1.000000	-1.000000	63.000000	0.000000	-1.000000	-1.000000	1088490.000000	1775723782.536793
62329.455000	37285.965000	57665.205000	21539.610000	44316.720000	23881.590000	13823.595000	63930.285000	-1.536774	-2.176883	-1.673588	-0.138227	4.634819	0.221816	-2.447849	-2.827765	-2.380560	1.602300	-0.824040	-0.729551	0.113647	0.660643	-1.000000	-1.000000	-1.000000	-1.000000	-1.000000	-1.000000	-1.000000	63.000000	0.000000	-1.000000	-1.000000	1088491.000000	1775723782.541272
62343.180000	37297.035000	57676.680000	21548.700000	44317.530000	23888.025000	13839.885000	63945.585000	-0.107095	-0.128808	0.089612	2.299758	8.350258	8.662876	-1.033180	-1.467633	-2.380560	1.602300	-0.824040	-0.729551	0.113647	0.660643	-1.000000	-1.000000	-1.000000	-1.000000	-1.000000	-1.000000	-1.000000	63.000000	0.000000	-1.000000	-1.000000	1088492.000000	1775723782.541290
62341.560000	37293.345000	57672.630000	21542.985000	44313.435000	23889.060000	13846.410000	63948.240000	2.093581	2.369751	2.287825	3.953725	7.106765	12.089711	1.741580	1.467748	-2.380560	1.602300	-0.824040	-0.729551	0.113647	0.660643	-1.000000	-1.000000	-1.000000	-1.000000	-1.000000	-1.000000	-1.000000	63.000000	0.000000	-1.000000	-1.000000	1088493.000000	1775723782.545856
62329.590000	37285.020000	57665.070000	21540.195000	44321.580000	23885.730000	13834.260000	63936.675000	3.822935	3.914413	3.676575	3.790499	3.027727	10.809213	4.901058	4.677431	-2.380560	1.602300	-0.824040	-0.729551	0.113647	0.660643	-1.000000	-1.000000	-1.000000	-1.000000	-1.000000	-1.000000	-1.000000	63.000000	0.000000	-1.000000	-1.000000	1088494.000000	1775723782.545874
62330.580000	37287.675000	57667.275000	21543.615000	44323.470000	23884.425000	13836.060000	63937.350000	3.027001	3.007875	2.776373	1.525589	-0.725250	6.319228	5.662633	5.331844	-2.380560	1.602300	-0.824040	-0.729551	0.113647	0.660643	-1.000000	-1.000000	-1.000000	-1.000000	-1.000000	-1.000000	-1.000000	63.000000	0.000000	-1.000000	-1.000000	1088495.000000	1775723782.553236
62335.080000	37291.545000	57672.180000	21548.385000	44329.455000	23892.165000	13842.090000	63943.020000	-0.041652	0.330077	0.198861	-1.338797	-2.234650	0.831475	3.020097	2.709714	-2.380560	1.602300	-0.824040	-0.729551	0.113647	0.660643	-1.000000	-1.000000	-1.000000	-1.000000	-1.000000	-1.000000	-1.000000	63.000000	0.000000	-1.000000	-1.000000	1088496.000000	1775723782.553254
62337.735000	37294.110000	57673.710000	21550.410000	44325.810000	23892.435000	13841.010000	63944.595000	-2.747087	-1.822580	-1.852796	-2.815873	-1.784377	-3.197231	-0.874289	-0.836402	-2.380560	1.602300	-0.824040	-0.729551	0.113647	0.660643	-1.000000	-1.000000	-1.000000	-1.000000	-1.000000	-1.000000	-1.000000	63.000000	0.000000	-1.000000	-1.000000	1088497.000000	1775723782.553273
62338.770000	37293.525000	57675.285000	21550.995000	44326.305000	23887.395000	13835.520000	63944.100000	-3.165331	-2.134251	-2.115324	-2.375899	-0.970065	-4.716823	-3.683769	-2.908437	-2.380560	1.602300	-0.824040	-0.729551	0.113647	0.660643	-1.000000	-1.000000	-1.000000	-1.000000	-1.000000	-1.000000	-1.000000	63.000000	0.000000	-1.000000	-1.000000	1088498.000000	1775723782.553282
62329.950000	37284.255000	57666.960000	21543.885000	44308.845000	23869.305000	13829.715000	63936.765000	-1.808950	-1.309946	-1.235894	-1.129283	-1.262532	-4.868933	-4.910835	-3.221799	-2.380560	1.602300	-0.824040	-0.729551	0.113647	0.660643	-1.000000	-1.000000	-1.000000	-1.000000	-1.000000	-1.000000	-1.000000	63.000000	0.000000	-1.000000	-1.000000	1088499.000000	1775723782.559304
62330.940000	37287.135000	57671.595000	21550.095000	44310.420000	23866.875000	13831.695000	63938.430000	-0.481394	-0.779291	-0.564536	-0.384827	-2.982138	-5.248226	-4.874145	-2.786128	-2.380560	1.602300	-0.824040	-0.729551	0.113647	0.660643	-1.000000	-1.000000	-1.000000	-1.000000	-1.000000	-1.000000	-1.000000	63.000000	0.000000	-1.000000	-1.000000	1088500.000000	1775723782.559321
62332.605000	37289.700000	57673.485000	21552.570000	44329.410000	23872.770000	13831.380000	63941.490000	-0.037468	-0.776523	-0.423660	-0.181239	-4.319170	-5.434482	-3.542768	-2.083531	-4.608520	0.824040	1.205540	-0.728575	0.114563	0.661070	-1.000000	-1.000000	-1.000000	-1.000000	-1.000000	-1.000000	-1.000000	63.000000	0.000000	-1.000000	-1.000000	1088501.000000	1775723782.566885
62330.535000	37289.025000	57671.100000	21549.510000	44319.780000	23859.045000	13828.140000	63939.825000	0.071682	-0.455686	-0.218014	0.152747	-2.813457	-3.785653	-1.063758	-0.866857	-4.608520	0.824040	1.205540	-0.728575	0.114563	0.661070	-1.000000	-1.000000	-1.000000	-1.000000	-1.000000	-1.000000	-1.000000	63.000000	0.000000	-1.000000	-1.000000	1088502.000000	1775723782.566905
62326.800000	37287.090000	57667.680000	21544.470000	44303.220000	23845.410000	13824.945000	63933.255000	0.316173	0.422549	0.137172	0.490671	0.659185	-0.662525	1.549549	0.565718	-4.608520	0.824040	1.205540	-0.728575	0.114563	0.661070	-1.000000	-1.000000	-1.000000	-1.000000	-1.000000	-1.000000	-1.000000	63.000000	0.000000	-1.000000	-1.000000	1088503.000000	1775723782.566925
62325.630000	37286.280000	57668.310000	21545.685000	44302.905000	23852.610000	13822.920000	63930.510000	0.501265	1.196566	0.229859	0.281388	2.596042	2.047988	3.119130	1.270158	-4.608520	0.824040	1.205540	-0.728575	0.114563	0.661070	-1.000000	-1.000000	-1.000000	-1.000000	-1.000000	-1.000000	-1.000000	63.000000	0.000000	-1.000000	-1.000000	1088504.000000	1775723782.566934
62320.500000	37282.410000	57668.760000	21553.290000	44329.770000	23904.045000	13829.130000	63927.180000	0.405061	1.268426	0.091669	-0.112485	2.357488	4.844379	3.418678	0.902858	-4.608520	0.824040	1.205540	-0.728575	0.114563	0.661070	-1.000000	-1.000000	-1.000000	-1.000000	-1.000000	-1.000000	-1.000000	63.000000	0.000000	-1.000000	-1.000000	1088505.000000	1775723782.572706
62324.730000	37287.270000	57675.330000	21562.560000	44341.740000	23898.240000	13831.470000	63935.415000	0.185642	0.717406	0.241657	0.402630	2.908435	9.602887	3.183797	0.285732	-4.608520	0.824040	1.205540	-0.728575	0.114563	0.661070	-1.000000	-1.000000	-1.000000	-1.000000	-1.000000	-1.000000	-1.000000	63.000000	0.000000	-1.000000	-1.000000	1088506.000000	1775723782.572720
62330.085000	37290.330000	57678.345000	21564.810000	44338.500000	23894.235000	13834.080000	63940.005000	0.409479	0.276640	1.041046	2.078814	5.380024	13.800210	2.981244	0.646361	-4.608520	0.824040	1.205540	-0.728575	0.114563	0.661070	-1.000000	-1.000000	-1.000000	-1.000000	-1.000000	-1.000000	-1.000000	63.000000	0.000000	-1.000000	-1.000000	1088507.000000	1775723782.572734
62326.125000	37285.380000	57674.205000	21559.545000	44325.675000	23877.900000	13829.985000	63930.285000	1.333892	0.407797	2.009580	3.469843	6.555736	11.626782	2.471258	1.972590	-4.608520	0.824040	1.205540	-0.728575	0.114563	0.661070	-1.000000	-1.000000	-1.000000	-1.000000	-1.000000	-1.000000	-1.000000	63.000000	0.000000	-1.000000	-1.000000	1088508.000000	1775723782.572739
62312.580000	37279.755000	57667.905000	21558.060000	44317.395000	23873.085000	13827.060000	63913.095000	1.902533	0.480837	1.911816	2.736194	3.078411	1.602621	0.975305	2.318937	-4.608520	0.824040	1.205540	-0.728575	0.114563	0.661070	-1.000000	-1.000000	-1.000000	-1.000000	-1.000000	-1.000000	-1.000000	63.000000	0.000000	-1.000000	-1.000000	1088509.000000	1775723782.582690
62311.455000	37287.720000	57675.510000	21571.875000	44330.805000	23896.125000	13839.210000	63917.820000	0.744976	-0.112145	0.286963	0.042962	-3.779894	-10.540229	-1.203573	0.226600	-4.608520	0.824040	1.205540	-0.728575	0.114563	0.661070	-1.000000	-1.000000	-1.000000	-1.000000	-1.000000	-1.000000	-1.000000	63.000000	0.000000	-1.000000	-1.000000	1088510.000000	1775723782.582710
62337.825000	37305.855000	57698.730000	21585.285000	44345.025000	23901.750000	13851.360000	63953.055000	-1.135041	-0.391155	-1.161748	-2.097466	-8.691676	-16.568740	-2.356095	-2.066977	-6.042960	-0.427280	2.960440	-0.728392	0.115051	0.661009	-1.000000	-1.000000	-1.000000	-1.000000	-1.000000	-1.000000	-1.000000	63.000000	0.000000	-1.000000	-1.000000	1088511.000000	1775723782.586530
62337.690000	37297.980000	57691.755000	21577.635000	44333.460000	23884.740000	13846.050000	63956.835000	-0.892749	0.799945	-0.443296	-1.936318	-7.997075	-13.637006	-1.454678	-0.666720	-6.042960	-0.427280	2.960440	-0.728392	0.115051	0.661009	-1.000000	-1.000000	-1.000000	-1.000000	-1.000000	-1.000000	-1.000000	63.000000	0.000000	-1.000000	-1.000000	1088512.000000	1775723782.586550
62330.355000	37281.240000	57672.810000	21558.870000	44311.680000	23862.060000	13829.670000	63949.095000	1.620277	1.971933	1.098834	-1.138651	-3.945202	-6.705715	-0.255024	3.829726	-6.042960	-0.427280	2.960440	-0.728392	0.115051	0.661009	-1.000000	-1.000000	-1.000000	-1.000000	-1.000000	-1.000000	-1.000000	63.000000	0.000000	-1.000000	-1.000000	1088513.000000	1775723782.586571
62322.525000	37276.695000	57668.805000	21556.845000	44308.215000	23860.440000	13825.350000	63937.980000	3.011103	0.453565	0.124197	-2.376234	-1.338080	-1.961707	-1.309574	6.066283	-6.042960	-0.427280	2.960440	-0.728392	0.115051	0.661009	-1.000000	-1.000000	-1.000000	-1.000000	-1.000000	-1.000000	-1.000000	63.000000	0.000000	-1.000000	-1.000000	1088514.000000	1775723782.586579
62328.870000	37289.295000	57680.460000	21566.925000	44312.445000	23868.855000	13835.970000	63941.715000	1.143213	-3.137157	-3.307096	-4.914784	-1.280595	-0.184632	-4.042795	2.734783	-6.042960	-0.427280	2.960440	-0.728392	0.115051	0.661009	-1.000000	-1.000000	-1.000000	-1.000000	-1.000000	-1.000000	-1.000000	63.000000	0.000000	-1.000000	-1.000000	1088515.000000	1775723782.587178
62346.555000	37309.905000	57699.090000	21586.005000	44323.380000	23887.665000	13844.205000	63954.045000	-1.947449	-4.695071	-5.066295	-4.960142	-0.838594	2.114066	-4.953910	-3.474672	-6.042960	-0.427280	2.960440	-0.728392	0.115051	0.661009	-1.000000	-1.000000	-1.000000	-1.000000	-1.000000	-1.000000	-1.000000	63.000000	0.000000	-1.000000	-1.000000	1088516.000000	1775723782.587191
62341.830000	37303.065000	57691.575000	21579.660000	44316.225000	23889.060000	13841.415000	63951.210000	-2.953334	-1.743446	-2.396435	-0.658864	2.071079	6.935097	-2.119885	-7.385519	-6.042960	-0.427280	2.960440	-0.728392	0.115051	0.661009	-1.000000	-1.000000	-1.000000	-1.000000	-1.000000	-1.000000	-1.000000	63.000000	0.000000	-1.000000	-1.000000	1088517.000000	1775723782.599627
62338.050000	37298.295000	57687.390000	21576.420000	44320.995000	23885.145000	13836.645000	63946.440000	-1.659519	3.020728	2.323840	4.972172	5.917404	11.742444	2.334102	-6.978095	-6.042960	-0.427280	2.960440	-0.728392	0.115051	0.661009	-1.000000	-1.000000	-1.000000	-1.000000	-1.000000	-1.000000	-1.000000	63.000000	0.000000	-1.000000	-1.000000	1088518.000000	1775723782.599647
62336.700000	37299.735000	57690.720000	21584.205000	44339.040000	23873.085000	13836.510000	63944.010000	-0.465576	5.028541	4.778474	7.516801	8.184288	12.051183	4.898406	-4.137397	-6.042960	-0.427280	2.960440	-0.728392	0.115051	0.661009	-1.000000	-1.000000	-1.000000	-1.000000	-1.000000	-1.000000	-1.000000	63.000000	0.000000	-1.000000	-1.000000	1088519.000000	1775723782.599667
62332.245000	37291.545000	57681.000000	21577.005000	44330.805000	23872.995000	13840.740000	63946.845000	-0.783243	2.900927	3.505348	5.792378	8.048292	6.309287	4.378258	-1.207872	-6.042960	-0.427280	2.960440	-0.728392	0.115051	0.661009	-1.000000	-1.000000	-1.000000	-1.000000	-1.000000	-1.000000	-1.000000	63.000000	0.000000	-1.000000	-1.000000	1088520.000000	1775723782.599676
62327.430000	37288.170000	57677.940000	21575.970000	44328.150000	23892.165000	13839.210000	63942.885000	-2.064793	-1.425890	-0.063801	1.503165	5.290445	-1.950362	2.163063	0.948086	-4.333840	-2.273740	3.189340	-0.727842	0.112488	0.662291	-1.000000	-1.000000	-1.000000	-1.000000	-1.000000	-1.000000	-1.000000	63.000000	0.000000	-1.000000	-1.000000	1088521.000000	1775723782.600349
62330.805000	37295.955000	57685.545000	21583.485000	44328.195000	23884.425000	13836.195000	63943.155000	-2.953889	-4.943410	-3.401406	-2.805584	0.144682	-7.264454	-0.068604	2.253009	-4.333840	-2.273740	3.189340	-0.727842	0.112488	0.662291	-1.000000	-1.000000	-1.000000	-1.000000	-1.000000	-1.000000	-1.000000	63.000000	0.000000	-1.000000	-1.000000	1088522.000000	1775723782.600366
62327.520000	37294.920000	57683.295000	21583.845000	44327.205000	23882.670000	13835.970000	63940.590000	-2.329544	-5.287206	-4.198512	-4.806507	-5.387759	-7.706854	-1.620922	2.726511	-4.333840	-2.273740	3.189340	-0.727842	0.112488	0.662291	-1.000000	-1.000000	-1.000000	-1.000000	-1.000000	-1.000000	-1.000000	63.000000	0.000000	-1.000000	-1.000000	1088523.000000	1775723782.611709
62324.370000	37292.670000	57680.190000	21581.325000	44325.045000	23880.240000	13834.845000	63940.725000	-0.286580	-2.483675	-2.221009	-3.948548	-8.712544	-5.448429	-2.312701	2.528608	-4.333840	-2.273740	3.189340	-0.727842	0.112488	0.662291	-1.000000	-1.000000	-1.000000	-1.000000	-1.000000	-1.000000	-1.000000	63.000000	0.000000	-1.000000	-1.000000	1088524.000000	1775723782.611730
62327.565000	37294.245000	57682.080000	21583.710000	44324.145000	23880.510000	13837.860000	63946.080000	2.015299	1.219784	0.670572	-1.685387	-8.658224	-2.936526	-2.039930	2.069876	-4.333840	-2.273740	3.189340	-0.727842	0.112488	0.662291	-1.000000	-1.000000	-1.000000	-1.000000	-1.000000	-1.000000	-1.000000	63.000000	0.000000	-1.000000	-1.000000	1088525.000000	1775723782.611753
62327.160000	37292.580000	57679.965000	21583.305000	44319.060000	23876.730000	13836.870000	63945.585000	3.623175	3.651904	2.678371	0.355010	-5.860197	-1.080825	-0.927104	1.814200	-4.333840	-2.273740	3.189340	-0.727842	0.112488	0.662291	-1.000000	-1.000000	-1.000000	-1.000000	-1.000000	-1.000000	-1.000000	63.000000	0.000000	-1.000000	-1.000000	1088526.000000	1775723782.611762
62327.655000	37294.335000	57679.965000	21586.230000	44317.755000	23873.625000	13836.420000	63945.000000	4.167198	4.068819	3.161554	1.502390	-1.981764	0.059757	0.455659	1.683765	-4.333840	-2.273740	3.189340	-0.727842	0.112488	0.662291	-1.000000	-1.000000	-1.000000	-1.000000	-1.000000	-1.000000	-1.000000	63.000000	0.000000	-1.000000	-1.000000	1088527.000000	1775723782.612418
62326.125000	37297.620000	57684.330000	21591.495000	44318.340000	23869.395000	13832.955000	63940.275000	3.533899	2.997685	2.454211	1.900805	1.483678	0.613369	1.299003	1.056692	-4.333840	-2.273740	3.189340	-0.727842	0.112488	0.662291	-1.000000	-1.000000	-1.000000	-1.000000	-1.000000	-1.000000	-1.000000	63.000000	0.000000	-1.000000	-1.000000	1088528.000000	1775723782.612435
62329.095000	37299.105000	57687.120000	21590.730000	44316.270000	23869.215000	13833.360000	63943.785000	1.975644	1.505830	1.455298	1.930038	3.827838	0.842087	1.181533	-0.294519	-4.333840	-2.273740	3.189340	-0.727842	0.112488	0.662291	-1.000000	-1.000000	-1.000000	-1.000000	-1.000000	-1.000000	-1.000000	63.000000	0.000000	-1.000000	-1.000000	1088529.000000	1775723782.620768
62325.405000	37297.080000	57684.375000	21590.325000	44317.710000	23873.985000	13832.055000	63941.895000	0.120954	0.244294	0.726499	1.567835	4.849210	1.240150	0.421723	-1.690689	-4.333840	-2.273740	3.189340	-0.727842	0.112488	0.662291	-1.000000	-1.000000	-1.000000	-1.000000	-1.000000	-1.000000	-1.000000	63.000000	0.000000	-1.000000	-1.000000	1088530.000000	1775723782.620794
62326.260000	37300.185000	57687.570000	21595.770000	44327.970000	23880.195000	13833.945000	63942.885000	-1.462818	-0.755750	0.079230	0.686787	4.820275	2.277182	-0.264831	-2.287244	-0.152600	-3.402980	3.631880	-0.723570	0.112793	0.665037	-1.000000	-1.000000	-1.000000	-1.000000	-1.000000	-1.000000	-1.000000	63.000000	0.000000	-1.000000	-1.000000	1088531.000000	1775723782.620817
62323.380000	37300.500000	57690.135000	21602.610000	44332.695000	23873.040000	13829.355000	63939.645000	-2.462571	-1.465844	-0.631701	-0.195024	4.436136	3.574055	-0.456814	-1.942459	-0.152600	-3.402980	3.631880	-0.723570	0.112793	0.665037	-1.000000	-1.000000	-1.000000	-1.000000	-1.000000	-1.000000	-1.000000	63.000000	0.000000	-1.000000	-1.000000	1088532.000000	1775723782.620826
62323.110000	37300.770000	57690.720000	21605.490000	44330.580000	23865.255000	13827.420000	63938.655000	-2.732496	-1.727965	-1.135078	-0.388991	3.807396	3.622970	-0.363134	-1.141545	-0.152600	-3.402980	3.631880	-0.723570	0.112793	0.665037	-1.000000	-1.000000	-1.000000	-1.000000	-1.000000	-1.000000	-1.000000	63.000000	0.000000	-1.000000	-1.000000	1088533.000000	1775723782.630422
62324.775000	37298.520000	57687.660000	21601.980000	44329.545000	23875.515000	13832.955000	63942.930000	-2.239147	-1.619723	-1.359048	-0.132857	2.152390	1.637006	-0.232043	-0.296255	-0.152600	-3.402980	3.631880	-0.723570	0.112793	0.665037	-1.000000	-1.000000	-1.000000	-1.000000	-1.000000	-1.000000	-1.000000	63.000000	0.000000	-1.000000	-1.000000	1088534.000000	1775723782.630442
62334.360000	37306.485000	57694.500000	21606.210000	44329.230000	23894.820000	13852.170000	63955.935000	-0.904501	-1.249971	-1.440730	-0.296928	-0.807934	-0.556088	0.515817	0.829372	-0.152600	-3.402980	3.631880	-0.723570	0.112793	0.665037	-1.000000	-1.000000	-1.000000	-1.000000	-1.000000	-1.000000	-1.000000	63.000000	0.000000	-1.000000	-1.000000	1088535.000000	1775723782.630462
62329.410000	37302.075000	57690.585000	21600.855000	44312.265000	23873.355000	13841.190000	63949.995000	1.046536	-0.536843	-1.267541	-1.155490	-4.290271	-0.942578	2.262207	2.392106	-0.152600	-3.402980	3.631880	-0.723570	0.112793	0.665037	-1.000000	-1.000000	-1.000000	-1.000000	-1.000000	-1.000000	-1.000000	63.000000	0.000000	-1.000000	-1.000000	1088536.000000	1775723782.630471
62328.240000	37302.030000	57693.645000	21609.585000	44329.005000	23872.815000	13835.025000	63945.405000	2.477240	0.241364	-0.800079	-2.091223	-6.917273	-0.717423	3.321677	3.218185	-0.152600	-3.402980	3.631880	-0.723570	0.112793	0.665037	-1.000000	-1.000000	-1.000000	-1.000000	-1.000000	-1.000000	-1.000000	63.000000	0.000000	-1.000000	-1.000000	1088537.000000	1775723782.640610
62327.070000	37301.535000	57693.690000	21614.805000	44326.935000	23869.890000	13830.795000	63942.345000	2.225782	0.520800	-0.254832	-2.073993	-6.848174	-1.867467	1.602403	1.880709	-0.152600	-3.402980	3.631880	-0.723570	0.112793	0.665037	-1.000000	-1.000000	-1.000000	-1.000000	-1.000000	-1.000000	-1.000000	63.000000	0.000000	-1.000000	-1.000000	1088538.000000	1775723782.640627
62327.430000	37302.795000	57692.835000	21609.945000	44304.300000	23862.960000	13831.965000	63944.100000	0.526429	0.282593	0.185880	-0.766401	-3.921843	-3.836025	-2.200794	-1.105411	-0.152600	-3.402980	3.631880	-0.723570	0.112793	0.665037	-1.000000	-1.000000	-1.000000	-1.000000	-1.000000	-1.000000	-1.000000	63.000000	0.000000	-1.000000	-1.000000	1088539.000000	1775723782.640642
62320.635000	37298.115000	57687.165000	21608.280000	44308.305000	23861.700000	13837.365000	63942.255000	-1.428005	-0.084037	0.276168	0.677469	-0.733436	-4.875772	-5.106708	-3.628383	-0.152600	-3.402980	3.631880	-0.723570	0.112793	0.665037	-1.000000	-1.000000	-1.000000	-1.000000	-1.000000	-1.000000	-1.000000	63.000000	0.000000	-1.000000	-1.000000	1088540.000000	1775723782.640648
62320.230000	37296.630000	57687.975000	21614.310000	44341.560000	23879.880000	13838.220000	63945.135000	-2.723584	-0.420553	-0.145709	1.092472	1.651189	-3.624872	-4.866696	-4.082020	2.563680	-2.731540	3.815000	-0.720518	0.117187	0.668211	-1.000000	-1.000000	-1.000000	-1.000000	-1.000000	-1.000000	-1.000000	63.000000	0.000000	-1.000000	-1.000000	1088541.000000	1775723782.646515
62321.085000	37297.935000	57687.525000	21614.490000	44326.800000	23879.205000	13837.635000	63944.460000	-2.869295	-0.634026	-0.674444	0.777552	4.736034	0.344292	-1.863999	-2.420832	2.563680	-2.731540	3.815000	-0.720518	0.117187	0.668211	-1.000000	-1.000000	-1.000000	-1.000000	-1.000000	-1.000000	-1.000000	63.000000	0.000000	-1.000000	-1.000000	1088542.000000	1775723782.646537
62324.235000	37301.220000	57691.485000	21616.830000	44315.505000	23888.835000	13838.220000	63944.145000	-1.619730	-0.359537	-0.577629	0.537613	7.415212	5.343917	1.619325	0.168323	2.563680	-2.731540	3.815000	-0.720518	0.117187	0.668211	-1.000000	-1.000000	-1.000000	-1.000000	-1.000000	-1.000000	-1.000000	63.000000	0.000000	-1.000000	-1.000000	1088543.000000	1775723782.646561
62321.130000	37297.485000	57688.020000	21613.455000	44311.770000	23865.975000	13833.045000	63942.345000	0.578198	0.517964	0.342015	0.483356	6.277753	7.970648	3.486192	2.179465	2.563680	-2.731540	3.815000	-0.720518	0.117187	0.668211	-1.000000	-1.000000	-1.000000	-1.000000	-1.000000	-1.000000	-1.000000	63.000000	0.000000	-1.000000	-1.000000	1088544.000000	1775723782.646571
62311.860000	37288.395000	57680.235000	21607.875000	44307.630000	23826.555000	13820.355000	63934.335000	2.333697	1.209782	1.262066	0.134832	1.182080	5.008177	2.825285	2.609732	2.563680	-2.731540	3.815000	-0.720518	0.117187	0.668211	-1.000000	-1.000000	-1.000000	-1.000000	-1.000000	-1.000000	-1.000000	63.000000	0.000000	-1.000000	-1.000000	1088545.000000	1775723782.648438
62317.935000	37292.580000	57686.130000	21613.500000	44308.935000	23824.890000	13813.470000	63925.920000	2.464576	0.855935	1.254928	-0.675406	-4.295126	-3.499878	-0.001161	1.252947	2.563680	-2.731540	3.815000	-0.720518	0.117187	0.668211	-1.000000	-1.000000	-1.000000	-1.000000	-1.000000	-1.000000	-1.000000	63.000000	0.000000	-1.000000	-1.000000	1088546.000000	1775723782.648469
62316.720000	37291.500000	57686.085000	21619.755000	44338.230000	23907.960000	13821.030000	63914.850000	1.428716	-0.090093	0.644061	-1.091783	-6.143181	-10.390891	-3.036557	-1.250451	2.563680	-2.731540	3.815000	-0.720518	0.117187	0.668211	-1.000000	-1.000000	-1.000000	-1.000000	-1.000000	-1.000000	-1.000000	63.000000	0.000000	-1.000000	-1.000000	1088547.000000	1775723782.663642
62315.010000	37293.300000	57688.470000	21623.940000	44345.745000	23923.755000	13826.160000	63913.635000	0.476036	-0.471456	0.392427	-0.164413	-2.520289	-6.033272	-3.540947	-3.474964	2.563680	-2.731540	3.815000	-0.720518	0.117187	0.668211	-1.000000	-1.000000	-1.000000	-1.000000	-1.000000	-1.000000	-1.000000	63.000000	0.000000	-1.000000	-1.000000	1088548.000000	1775723782.663663
62331.435000	37314.135000	57708.990000	21643.335000	44352.810000	23910.255000	13845.240000	63942.705000	0.328997	0.436379	1.056207	1.989097	4.170944	8.109005	-0.299409	-3.235336	2.563680	-2.731540	3.815000	-0.720518	0.117187	0.668211	-1.000000	-1.000000	-1.000000	-1.000000	-1.000000	-1.000000	-1.000000	63.000000	0.000000	-1.000000	-1.000000	1088549.000000	1775723782.663685
62338.680000	37320.525000	57715.065000	21649.320000	44353.530000	23905.935000	13856.805000	63969.480000	1.366107	2.756233	2.764423	4.445753	8.633496	18.489467	5.260810	1.446852	2.563680	-2.731540	3.815000	-0.720518	0.117187	0.668211	-1.000000	-1.000000	-1.000000	-1.000000	-1.000000	-1.000000	-1.000000	63.000000	0.000000	-1.000000	-1.000000	1088550.000000	1775723782.663695
62332.695000	37308.555000	57702.105000	21635.280000	44333.505000	23889.555000	13850.010000	63967.635000	2.902190	4.931804	4.182959	5.367718	6.995974	14.942941	9.618825	9.102669	1.007160	-1.968540	2.945180	-0.717711	0.125854	0.672972	-1.000000	-1.000000	-1.000000	-1.000000	-1.000000	-1.000000	-1.000000	63.000000	0.000000	-1.000000	-1.000000	1088551.000000	1775723782.663706
62330.625000	37299.825000	57692.970000	21626.280000	44323.020000	23879.115000	13847.310000	63963.495000	2.851551	3.969590	2.643650	2.547735	-0.703037	-0.247317	9.030336	13.785568	1.007160	-1.968540	2.945180	-0.717711	0.125854	0.672972	-1.000000	-1.000000	-1.000000	-1.000000	-1.000000	-1.000000	-1.000000	63.000000	0.000000	-1.000000	-1.000000	1088552.000000	1775723782.663714
62321.625000	37294.110000	57688.335000	21622.545000	44316.540000	23862.960000	13836.780000	63951.795000	0.001487	-1.037344	-2.470336	-3.701672	-10.345405	-17.073922	2.662396	10.272098	1.007160	-1.968540	2.945180	-0.717711	0.125854	0.672972	-1.000000	-1.000000	-1.000000	-1.000000	-1.000000	-1.000000	-1.000000	63.000000	0.000000	-1.000000	-1.000000	1088553.000000	1775723782.672191
62316.540000	37292.445000	57686.895000	21622.455000	44314.380000	23858.100000	13833.225000	63945.675000	-4.458080	-7.135309	-8.083083	-9.585703	-15.990447	-26.049894	-6.313538	-0.601634	1.007160	-1.968540	2.945180	-0.717711	0.125854	0.672972	-1.000000	-1.000000	-1.000000	-1.000000	-1.000000	-1.000000	-1.000000	63.000000	0.000000	-1.000000	-1.000000	1088554.000000	1775723782.672210
62317.170000	37293.075000	57686.580000	21624.795000	44316.900000	23868.720000	13835.385000	63945.675000	-7.863272	-10.145844	-10.230928	-11.019338	-14.021002	-22.933484	-12.916439	-12.564974	1.007160	-1.968540	2.945180	-0.717711	0.125854	0.672972	-1.000000	-1.000000	-1.000000	-1.000000	-1.000000	-1.000000	-1.000000	63.000000	0.000000	-1.000000	-1.000000	1088555.000000	1775723782.672232
62334.765000	37311.345000	57703.860000	21641.355000	44333.280000	23893.380000	13844.655000	63956.835000	-7.579657	-7.783045	-7.120237	-6.689696	-5.136124	-9.131324	-13.382293	-18.529972	1.007160	-1.968540	2.945180	-0.717711	0.125854	0.672972	-1.000000	-1.000000	-1.000000	-1.000000	-1.000000	-1.000000	-1.000000	63.000000	0.000000	-1.000000	-1.000000	1088556.000000	1775723782.672240
62338.455000	37316.745000	57712.185000	21650.580000	44339.085000	23891.355000	13842.180000	63955.980000	-2.750059	-0.776328	0.205081	1.580004	6.678511	9.212968	-7.529134	-15.334242	1.007160	-1.968540	2.945180	-0.717711	0.125854	0.672972	-1.000000	-1.000000	-1.000000	-1.000000	-1.000000	-1.000000	-1.000000	63.000000	0.000000	-1.000000	-1.000000	1088557.000000	1775723782.672251
62336.295000	37314.855000	57712.545000	21653.550000	44340.165000	23893.695000	13844.475000	63955.755000	4.116890	7.111706	8.147123	9.709413	15.933662	23.128851	1.011718	-5.701403	1.007160	-1.968540	2.945180	-0.717711	0.125854	0.672972	-1.000000	-1.000000	-1.000000	-1.000000	-1.000000	-1.000000	-1.000000	63.000000	0.000000	-1.000000	-1.000000	1088558.000000	1775723782.672259
62338.815000	37317.015000	57714.075000	21650.805000	44327.610000	23877.315000	13844.835000	63959.625000	8.587845	11.127601	12.189356	13.232157	17.939681	25.624043	7.601895	4.435628	1.007160	-1.968540	2.945180	-0.717711	0.125854	0.672972	-1.000000	-1.000000	-1.000000	-1.000000	-1.000000	-1.000000	-1.000000	63.000000	0.000000	-1.000000	-1.000000	1088559.000000	1775723782.675756
62327.745000	37306.935000	57702.420000	21643.920000	44320.545000	23867.415000	13840.830000	63949.995000	8.012227	9.057075	9.946983	10.071333	11.538904	16.079997	9.646289	10.336044	1.007160	-1.968540	2.945180	-0.717711	0.125854	0.672972	-1.000000	-1.000000	-1.000000	-1.000000	-1.000000	-1.000000	-1.000000	63.000000	0.000000	-1.000000	-1.000000	1088560.000000	1775723782.675774
62315.595000	37294.155000	57690.945000	21636.090000	44326.260000	23870.655000	13836.780000	63942.030000	2.876889	2.214847	2.492532	1.887519	0.435686	0.492916	7.220310	10.272198	-1.449700	0.228900	2.090620	-0.715025	0.129882	0.676451	-1.000000	-1.000000	-1.000000	-1.000000	-1.000000	-1.000000	-1.000000	63.000000	0.000000	-1.000000	-1.000000	1088561.000000	1775723782.683270
62317.260000	37297.845000	57693.555000	21638.835000	44333.370000	23878.260000	13835.520000	63942.210000	-3.941243	-5.759837	-6.326556	-6.934029	-8.797999	-12.178385	2.315598	5.591958	-1.449700	0.228900	2.090620	-0.715025	0.129882	0.676451	-1.000000	-1.000000	-1.000000	-1.000000	-1.000000	-1.000000	-1.000000	63.000000	0.000000	-1.000000	-1.000000	1088562.000000	1775723782.683287
62325.000000	37304.730000	57698.910000	21642.075000	44326.080000	23880.645000	13838.130000	63947.925000	-8.251682	-10.319647	-11.539576	-11.702850	-11.668183	-15.866269	-2.233466	0.045476	-1.449700	0.228900	2.090620	-0.715025	0.129882	0.676451	-1.000000	-1.000000	-1.000000	-1.000000	-1.000000	-1.000000	-1.000000	63.000000	0.000000	-1.000000	-1.000000	1088563.000000	1775723782.694018
62325.405000	37304.820000	57699.000000	21645.045000	44311.635000	23857.830000	13833.630000	63945.270000	-7.232048	-8.806899	-10.263468	-10.247608	-9.054499	-11.412151	-4.340723	-2.847917	-1.449700	0.228900	2.090620	-0.715025	0.129882	0.676451	-1.000000	-1.000000	-1.000000	-1.000000	-1.000000	-1.000000	-1.000000	63.000000	0.000000	-1.000000	-1.000000	1088564.000000	1775723782.694040
62326.890000	37308.780000	57702.645000	21649.995000	44317.845000	23859.855000	13834.170000	63945.090000	-1.928664	-2.694434	-3.913513	-4.106464	-4.763254	-4.516418	-3.826956	-2.428698	-1.449700	0.228900	2.090620	-0.715025	0.129882	0.676451	-1.000000	-1.000000	-1.000000	-1.000000	-1.000000	-1.000000	-1.000000	63.000000	0.000000	-1.000000	-1.000000	1088565.000000	1775723782.701846
62327.250000	37311.345000	57705.480000	21652.335000	44318.070000	23872.230000	13837.140000	63947.205000	3.889625	3.995780	3.427746	3.011835	-0.948410	0.718035	-1.798164	-0.399095	-1.449700	0.228900	2.090620	-0.715025	0.129882	0.676451	-1.000000	-1.000000	-1.000000	-1.000000	-1.000000	-1.000000	-1.000000	63.000000	0.000000	-1.000000	-1.000000	1088566.000000	1775723782.701867
62325.945000	37310.175000	57705.750000	21653.280000	44313.480000	23871.195000	13836.870000	63946.350000	6.939674	7.833676	8.124996	7.653509	2.198240	4.256697	0.575672	1.397271	-1.449700	0.228900	2.090620	-0.715025	0.129882	0.676451	-1.000000	-1.000000	-1.000000	-1.000000	-1.000000	-1.000000	-1.000000	63.000000	0.000000	-1.000000	-1.000000	1088567.000000	1775723782.701890
62325.675000	37308.060000	57705.705000	21652.785000	44314.155000	23851.170000	13835.520000	63947.295000	6.225659	7.484939	8.598615	8.174832	4.318768	6.246194	2.293497	2.019811	-1.449700	0.228900	2.090620	-0.715025	0.129882	0.676451	-1.000000	-1.000000	-1.000000	-1.000000	-1.000000	-1.000000	-1.000000	63.000000	0.000000	-1.000000	-1.000000	1088568.000000	1775723782.701899
62320.995000	37300.815000	57701.610000	21651.795000	44327.430000	23861.610000	13836.780000	63946.530000	2.834466	3.689606	5.397516	5.112168	5.176109	5.533710	2.680438	1.411080	-1.449700	0.228900	2.090620	-0.715025	0.129882	0.676451	-1.000000	-1.000000	-1.000000	-1.000000	-1.000000	-1.000000	-1.000000	63.000000	0.000000	-1.000000	-1.000000	1088569.000000	1775723782.701910
62325.855000	37306.710000	57708.180000	21659.310000	44331.885000	23855.220000	13836.060000	63949.680000	-1.139587	-1.312707	0.592293	0.626519	5.387741	2.634112	1.833766	0.168172	-1.449700	0.228900	2.090620	-0.715025	0.129882	0.676451	-1.000000	-1.000000	-1.000000	-1.000000	-1.000000	-1.000000	-1.000000	63.000000	0.000000	-1.000000	-1.000000	1088570.000000	1775723782.701918
62324.415000	37305.765000	57709.125000	21662.730000	44343.720000	23877.855000	13839.435000	63947.745000	-3.684550	-4.778338	-3.235453	-2.718671	5.335941	0.137233	0.490379	-0.940271	-3.265640	1.831200	0.167860	-0.713621	0.131836	0.679686	-1.000000	-1.000000	-1.000000	-1.000000	-1.000000	-1.000000	-1.000000	63.000000	0.000000	-1.000000	-1.000000	1088571.000000	1775723782.701928
62320.500000	37301.670000	57704.220000	21656.520000	44328.645000	23888.925000	13837.185000	63943.560000	-4.027576	-5.261292	-4.652160	-3.761471	4.239234	0.247053	-0.596155	-1.611568	-3.265640	1.831200	0.167860	-0.713621	0.131836	0.679686	-1.000000	-1.000000	-1.000000	-1.000000	-1.000000	-1.000000	-1.000000	63.000000	0.000000	-1.000000	-1.000000	1088572.000000	1775723782.701936
62324.055000	37305.720000	57705.300000	21656.970000	44305.245000	23879.205000	13836.645000	63945.945000	-2.840533	-3.428225	-4.139090	-3.348611	0.491389	2.424042	-1.182409	-1.962671	-3.265640	1.831200	0.167860	-0.713621	0.131836	0.679686	-1.000000	-1.000000	-1.000000	-1.000000	-1.000000	-1.000000	-1.000000	63.000000	0.000000	-1.000000	-1.000000	1088573.000000	1775723782.704056
62322.795000	37307.430000	57705.255000	21660.030000	44308.215000	23871.330000	13837.545000	63943.470000	-1.078623	-0.687245	-2.779903	-2.592186	-5.965381	3.203351	-1.402667	-1.914704	-3.265640	1.831200	0.167860	-0.713621	0.131836	0.679686	-1.000000	-1.000000	-1.000000	-1.000000	-1.000000	-1.000000	-1.000000	63.000000	0.000000	-1.000000	-1.000000	1088574.000000	1775723782.704077
