Channel1	Channel2	Channel3	Channel4	Channel5	Channel6	Channel7	Channel8	FilteredChannel1	FilteredChannel2	FilteredChannel3	FilteredChannel4	FilteredChannel5	FilteredChannel6	FilteredChannel7	FilteredChannel8	GyroX	GyroY	GyroZ	AccX	AccY	AccZ	PPG1	PPG2	rawPPG1	rawPPG2	rawPPG3	Hr	Hrv	Battery	Trigger	PhysicalTrigger	AutoTrigger	NumMeasurements	Timestamp
99641.430000	77907.915000	97987.455000	55360.440000	69987.645000	34705.035000	67665.870000	98661.330000	-1.393608	-7.045320	-5.805552	-2.762927	1.956421	2.018203	1.570780	4.291807	-1.999060	-2.441600	1.342880	-0.629149	0.188537	0.736876	-1.000000	-1.000000	-1.000000	-1.000000	-1.000000	-1.000000	-1.000000	63.000000	0.000000	-1.000000	-1.000000	1209735.000000	1775724025.357151
99634.230000	77902.785000	97982.505000	55354.095000	69969.780000	34658.370000	67663.035000	98657.460000	-2.610005	-7.841005	-8.237158	-5.560162	-0.665028	12.318808	-1.634729	-3.064205	-1.999060	-2.441600	1.342880	-0.629149	0.188537	0.736876	-1.000000	-1.000000	-1.000000	-1.000000	-1.000000	-1.000000	-1.000000	63.000000	0.000000	-1.000000	-1.000000	1209736.000000	1775724025.357170
99631.125000	77899.680000	97979.940000	55349.235000	69977.520000	34695.765000	67661.505000	98656.245000	-2.455204	-4.564343	-5.955985	-4.641126	-1.333019	20.085437	-3.344827	-8.412401	-1.999060	-2.441600	1.342880	-0.629149	0.188537	0.736876	-1.000000	-1.000000	-1.000000	-1.000000	-1.000000	-1.000000	-1.000000	63.000000	0.000000	-1.000000	-1.000000	1209737.000000	1775724025.364038
99635.715000	77904.360000	97983.855000	55348.425000	69971.310000	34670.610000	67658.400000	98658.495000	-1.433834	0.239241	-1.167880	-1.778804	-2.019771	15.125089	-3.513423	-9.332153	-1.999060	-2.441600	1.342880	-0.629149	0.188537	0.736876	-1.000000	-1.000000	-1.000000	-1.000000	-1.000000	-1.000000	-1.000000	63.000000	0.000000	-1.000000	-1.000000	1209738.000000	1775724025.364061
99636.570000	77905.800000	97985.295000	55348.695000	69977.160000	34657.605000	67658.895000	98658.135000	0.312503	4.348395	3.591060	1.146640	-2.984013	-0.999602	-2.582699	-5.968897	-1.999060	-2.441600	1.342880	-0.629149	0.188537	0.736876	-1.000000	-1.000000	-1.000000	-1.000000	-1.000000	-1.000000	-1.000000	63.000000	0.000000	-1.000000	-1.000000	1209739.000000	1775724025.367674
99634.500000	77900.760000	97979.130000	55339.920000	69970.815000	34648.605000	67657.680000	98656.740000	2.374953	6.516452	6.507681	3.078679	-3.418876	-19.663501	-1.010916	-0.542551	-1.999060	-2.441600	1.342880	-0.629149	0.188537	0.736876	-1.000000	-1.000000	-1.000000	-1.000000	-1.000000	-1.000000	-1.000000	63.000000	0.000000	-1.000000	-1.000000	1209740.000000	1775724025.367697
99634.680000	77901.345000	97979.445000	55340.775000	69971.535000	34647.435000	67656.420000	98656.110000	3.682416	6.106369	6.540762	3.462015	-2.943076	-31.141950	0.709417	4.098422	-2.945180	-3.937080	2.731540	-0.626158	0.187011	0.741087	-1.000000	-1.000000	-1.000000	-1.000000	-1.000000	-1.000000	-1.000000	63.000000	0.000000	-1.000000	-1.000000	1209741.000000	1775724025.369338
99640.845000	77910.570000	97988.850000	55351.080000	69985.935000	34661.970000	67657.500000	98657.820000	3.600209	3.746216	4.249335	2.758933	-1.507225	-29.339585	2.046609	6.202875	-2.945180	-3.937080	2.731540	-0.626158	0.187011	0.741087	-1.000000	-1.000000	-1.000000	-1.000000	-1.000000	-1.000000	-1.000000	63.000000	0.000000	-1.000000	-1.000000	1209742.000000	1775724025.369351
99642.060000	77911.245000	97988.760000	55349.595000	69985.980000	34660.530000	67656.375000	98658.000000	2.574258	1.214931	1.584386	2.238437	0.965698	-15.218993	2.677553	5.743573	-2.945180	-3.937080	2.731540	-0.626158	0.187011	0.741087	-1.000000	-1.000000	-1.000000	-1.000000	-1.000000	-1.000000	-1.000000	63.000000	0.000000	-1.000000	-1.000000	1209743.000000	1775724025.372787
99640.755000	77905.170000	97981.245000	55338.525000	69971.355000	34634.970000	67653.135000	98657.370000	1.218864	-0.500876	-0.321610	1.970915	3.288619	3.263920	2.485711	3.697161	-2.945180	-3.937080	2.731540	-0.626158	0.187011	0.741087	-1.000000	-1.000000	-1.000000	-1.000000	-1.000000	-1.000000	-1.000000	63.000000	0.000000	-1.000000	-1.000000	1209744.000000	1775724025.372812
99639.810000	77901.255000	97976.070000	55326.465000	69951.600000	34618.320000	67649.040000	98657.460000	-0.354983	-1.941288	-1.991389	0.506715	2.887037	15.841252	1.451466	1.149313	-2.945180	-3.937080	2.731540	-0.626158	0.187011	0.741087	-1.000000	-1.000000	-1.000000	-1.000000	-1.000000	-1.000000	-1.000000	63.000000	0.000000	-1.000000	-1.000000	1209745.000000	1775724025.379755
99634.770000	77895.225000	97972.515000	55324.035000	69962.985000	34642.755000	67657.005000	98657.055000	-2.098165	-3.614532	-3.842720	-2.611287	-0.770455	18.164744	0.053927	-1.042124	-2.945180	-3.937080	2.731540	-0.626158	0.187011	0.741087	-1.000000	-1.000000	-1.000000	-1.000000	-1.000000	-1.000000	-1.000000	63.000000	0.000000	-1.000000	-1.000000	1209746.000000	1775724025.379777
99626.085000	77887.755000	97968.780000	55323.855000	69984.855000	34668.990000	67667.625000	98653.545000	-3.754038	-5.055465	-5.117842	-5.447254	-3.881494	14.874019	-0.479870	-2.409195	-2.945180	-3.937080	2.731540	-0.626158	0.187011	0.741087	-1.000000	-1.000000	-1.000000	-1.000000	-1.000000	-1.000000	-1.000000	63.000000	0.000000	-1.000000	-1.000000	1209747.000000	1775724025.383063
99624.330000	77888.340000	97968.870000	55323.810000	69986.295000	34675.560000	67662.900000	98650.170000	-4.870620	-5.330598	-4.775392	-5.566519	-2.282427	12.406978	0.483828	-2.973262	-2.945180	-3.937080	2.731540	-0.626158	0.187011	0.741087	-1.000000	-1.000000	-1.000000	-1.000000	-1.000000	-1.000000	-1.000000	63.000000	0.000000	-1.000000	-1.000000	1209748.000000	1775724025.383084
99640.755000	77910.660000	97990.065000	55340.730000	69987.555000	34664.850000	67656.060000	98656.245000	-4.373730	-3.291574	-2.169235	-2.251447	3.009933	11.098707	1.539436	-2.795744	-2.945180	-3.937080	2.731540	-0.626158	0.187011	0.741087	-1.000000	-1.000000	-1.000000	-1.000000	-1.000000	-1.000000	-1.000000	63.000000	0.000000	-1.000000	-1.000000	1209749.000000	1775724025.390125
99644.715000	77914.755000	97995.555000	55347.255000	69994.890000	34679.250000	67654.035000	98654.985000	-1.172071	1.598135	2.602402	3.291030	7.207652	7.222986	0.766658	-1.681524	-2.945180	-3.937080	2.731540	-0.626158	0.187011	0.741087	-1.000000	-1.000000	-1.000000	-1.000000	-1.000000	-1.000000	-1.000000	63.000000	0.000000	-1.000000	-1.000000	1209750.000000	1775724025.390147
99638.595000	77909.130000	97989.345000	55341.585000	69989.085000	34668.360000	67648.635000	98648.010000	3.578264	7.171233	7.375343	8.156436	7.095950	-0.269774	-1.762593	-0.011901	-2.517900	-2.929920	1.663340	-0.623900	0.185546	0.744383	-1.000000	-1.000000	-1.000000	-1.000000	-1.000000	-1.000000	-1.000000	63.000000	0.000000	-1.000000	-1.000000	1209751.000000	1775724025.390170
99642.735000	77909.355000	97989.210000	55335.285000	69986.655000	34662.645000	67653.810000	98654.445000	6.603230	9.346126	8.584505	8.858256	2.784420	-8.844437	-4.106664	1.186225	-2.517900	-2.929920	1.663340	-0.623900	0.185546	0.744383	-1.000000	-1.000000	-1.000000	-1.000000	-1.000000	-1.000000	-1.000000	63.000000	0.000000	-1.000000	-1.000000	1209752.000000	1775724025.390181
99642.420000	77907.780000	97988.175000	55331.055000	69979.500000	34644.825000	67652.370000	98656.020000	5.975967	6.327317	4.925495	4.289928	-3.435706	-15.488950	-4.344120	1.638254	-2.517900	-2.929920	1.663340	-0.623900	0.185546	0.744383	-1.000000	-1.000000	-1.000000	-1.000000	-1.000000	-1.000000	-1.000000	63.000000	0.000000	-1.000000	-1.000000	1209753.000000	1775724025.392804
99637.605000	77900.670000	97980.255000	55319.535000	69968.880000	34638.480000	67651.695000	98653.995000	2.529087	0.081447	-1.393678	-3.067118	-8.661576	-18.112179	-2.215215	1.753951	-2.517900	-2.929920	1.663340	-0.623900	0.185546	0.744383	-1.000000	-1.000000	-1.000000	-1.000000	-1.000000	-1.000000	-1.000000	63.000000	0.000000	-1.000000	-1.000000	1209754.000000	1775724025.392819
99638.505000	77899.770000	97980.345000	55318.725000	69976.485000	34657.605000	67660.560000	98658.405000	-1.709646	-5.958956	-6.988123	-9.229285	-10.615166	-15.204831	0.973917	1.582712	-2.517900	-2.929920	1.663340	-0.623900	0.185546	0.744383	-1.000000	-1.000000	-1.000000	-1.000000	-1.000000	-1.000000	-1.000000	63.000000	0.000000	-1.000000	-1.000000	1209755.000000	1775724025.403318
99659.970000	77923.485000	98005.455000	55342.755000	70001.595000	34678.350000	67670.325000	98672.670000	-4.358748	-8.575999	-8.853209	-10.660061	-7.691719	-6.035799	3.951487	1.322629	-2.517900	-2.929920	1.663340	-0.623900	0.185546	0.744383	-1.000000	-1.000000	-1.000000	-1.000000	-1.000000	-1.000000	-1.000000	63.000000	0.000000	-1.000000	-1.000000	1209756.000000	1775724025.403340
99651.285000	77914.395000	97994.655000	55327.725000	69976.530000	34642.620000	67661.685000	98664.255000	-3.754370	-6.161507	-5.667100	-6.145445	-0.515941	6.297508	5.719506	1.348782	-2.517900	-2.929920	1.663340	-0.623900	0.185546	0.744383	-1.000000	-1.000000	-1.000000	-1.000000	-1.000000	-1.000000	-1.000000	63.000000	0.000000	-1.000000	-1.000000	1209757.000000	1775724025.404066
99647.505000	77909.670000	97990.830000	55325.655000	69989.535000	34662.960000	67660.830000	98661.105000	-1.155815	-0.911045	0.026404	1.067036	6.506021	14.707672	4.990482	0.942746	-2.517900	-2.929920	1.663340	-0.623900	0.185546	0.744383	-1.000000	-1.000000	-1.000000	-1.000000	-1.000000	-1.000000	-1.000000	63.000000	0.000000	-1.000000	-1.000000	1209758.000000	1775724025.404082
99642.105000	77901.750000	97982.010000	55316.790000	69994.530000	34697.745000	67662.630000	98659.890000	0.360660	2.724237	3.607314	5.759509	9.348380	15.879429	1.596028	-0.848186	-2.517900	-2.929920	1.663340	-0.623900	0.185546	0.744383	-1.000000	-1.000000	-1.000000	-1.000000	-1.000000	-1.000000	-1.000000	63.000000	0.000000	-1.000000	-1.000000	1209759.000000	1775724025.416743
99640.935000	77900.535000	97981.155000	55312.920000	69985.620000	34672.905000	67659.570000	98659.935000	-0.409562	2.631098	3.111896	5.704110	7.872516	12.594604	-2.567731	-3.295464	-2.517900	-2.929920	1.663340	-0.623900	0.185546	0.744383	-1.000000	-1.000000	-1.000000	-1.000000	-1.000000	-1.000000	-1.000000	63.000000	0.000000	-1.000000	-1.000000	1209760.000000	1775724025.416766
99641.655000	77903.010000	97983.900000	55310.715000	69974.280000	34631.370000	67652.820000	98656.200000	-2.042737	0.373900	0.400189	2.506037	3.443313	5.971094	-5.400886	-4.707919	-0.930860	-0.503580	1.663340	-0.620909	0.185852	0.748350	-1.000000	-1.000000	-1.000000	-1.000000	-1.000000	-1.000000	-1.000000	63.000000	0.000000	-1.000000	-1.000000	1209761.000000	1775724025.416792
99642.060000	77903.910000	97984.575000	55309.995000	69972.120000	34629.120000	67647.555000	98650.485000	-2.539336	-1.203002	-1.446053	-0.755287	-2.351804	-4.850254	-6.206105	-4.334575	-0.930860	-0.503580	1.663340	-0.620909	0.185852	0.748350	-1.000000	-1.000000	-1.000000	-1.000000	-1.000000	-1.000000	-1.000000	63.000000	0.000000	-1.000000	-1.000000	1209762.000000	1775724025.416802
99638.145000	77900.490000	97982.910000	55311.075000	69990.705000	34698.735000	67649.760000	98646.120000	-1.257377	-0.777358	-1.025893	-1.924551	-6.543036	-14.393579	-5.135098	-2.716640	-0.930860	-0.503580	1.663340	-0.620909	0.185852	0.748350	-1.000000	-1.000000	-1.000000	-1.000000	-1.000000	-1.000000	-1.000000	63.000000	0.000000	-1.000000	-1.000000	1209763.000000	1775724025.427085
99635.805000	77898.195000	97981.875000	55310.535000	69992.910000	34685.685000	67643.505000	98643.105000	0.800644	0.769434	0.751772	-0.818819	-6.132699	-13.531555	-2.537534	-0.728404	-0.930860	-0.503580	1.663340	-0.620909	0.185852	0.748350	-1.000000	-1.000000	-1.000000	-1.000000	-1.000000	-1.000000	-1.000000	63.000000	0.000000	-1.000000	-1.000000	1209764.000000	1775724025.427106
99643.185000	77908.950000	97992.000000	55318.995000	70004.205000	34681.635000	67652.775000	98647.830000	2.438112	2.124738	2.427967	1.403525	-1.337270	-2.722389	0.876003	1.252426	-0.930860	-0.503580	1.663340	-0.620909	0.185852	0.748350	-1.000000	-1.000000	-1.000000	-1.000000	-1.000000	-1.000000	-1.000000	63.000000	0.000000	-1.000000	-1.000000	1209765.000000	1775724025.427130
99643.770000	77911.650000	97993.035000	55319.130000	70001.910000	34703.055000	67664.700000	98651.340000	3.399547	3.030760	3.429979	3.406134	4.254384	8.031996	4.409501	3.296196	-0.930860	-0.503580	1.663340	-0.620909	0.185852	0.748350	-1.000000	-1.000000	-1.000000	-1.000000	-1.000000	-1.000000	-1.000000	63.000000	0.000000	-1.000000	-1.000000	1209766.000000	1775724025.427141
99637.380000	77906.520000	97987.320000	55311.255000	69979.455000	34692.030000	67662.945000	98647.380000	3.590799	3.374169	3.424124	3.937558	6.374483	11.597282	7.327437	5.054801	-0.930860	-0.503580	1.663340	-0.620909	0.185852	0.748350	-1.000000	-1.000000	-1.000000	-1.000000	-1.000000	-1.000000	-1.000000	63.000000	0.000000	-1.000000	-1.000000	1209767.000000	1775724025.427153
99646.560000	77920.110000	97999.290000	55319.715000	69984.450000	34684.380000	67669.110000	98660.340000	2.667252	2.638204	2.058845	2.306379	3.067890	7.452674	8.213035	5.677961	-0.930860	-0.503580	1.663340	-0.620909	0.185852	0.748350	-1.000000	-1.000000	-1.000000	-1.000000	-1.000000	-1.000000	-1.000000	63.000000	0.000000	-1.000000	-1.000000	1209768.000000	1775724025.427162
99651.285000	77923.845000	98003.475000	55324.530000	70000.020000	34691.490000	67675.005000	98674.335000	1.151378	1.172570	0.113658	-0.408255	-2.782366	-1.108563	6.177349	5.170386	-0.930860	-0.503580	1.663340	-0.620909	0.185852	0.748350	-1.000000	-1.000000	-1.000000	-1.000000	-1.000000	-1.000000	-1.000000	63.000000	0.000000	-1.000000	-1.000000	1209769.000000	1775724025.427173
99649.170000	77911.155000	97992.180000	55312.110000	70000.065000	34688.295000	67673.070000	98678.655000	0.013768	-0.408509	-1.406451	-2.513012	-5.798930	-8.715947	2.031528	4.260298	-0.930860	-0.503580	1.663340	-0.620909	0.185852	0.748350	-1.000000	-1.000000	-1.000000	-1.000000	-1.000000	-1.000000	-1.000000	63.000000	0.000000	-1.000000	-1.000000	1209770.000000	1775724025.427183
99643.680000	77898.960000	97978.410000	55292.805000	69978.780000	34672.005000	67663.575000	98672.535000	-0.866698	-2.689358	-3.031154	-4.124326	-4.466770	-11.610270	-2.834979	2.609027	-0.106820	2.502640	0.793520	-0.620665	0.187561	0.750608	-1.000000	-1.000000	-1.000000	-1.000000	-1.000000	-1.000000	-1.000000	63.000000	0.000000	-1.000000	-1.000000	1209771.000000	1775724025.445301
99636.885000	77898.420000	97977.645000	55292.580000	69971.760000	34673.310000	67658.895000	98660.655000	-2.251348	-5.814396	-5.325043	-6.019873	-2.121737	-9.952655	-7.302255	-1.004552	-0.106820	2.502640	0.793520	-0.620665	0.187561	0.750608	-1.000000	-1.000000	-1.000000	-1.000000	-1.000000	-1.000000	-1.000000	63.000000	0.000000	-1.000000	-1.000000	1209772.000000	1775724025.445322
99641.295000	77903.865000	97984.755000	55298.340000	69978.825000	34666.650000	67661.865000	98663.400000	-3.922485	-7.700054	-6.688874	-6.865652	-1.289718	-5.579826	-9.903467	-6.294972	-0.106820	2.502640	0.793520	-0.620665	0.187561	0.750608	-1.000000	-1.000000	-1.000000	-1.000000	-1.000000	-1.000000	-1.000000	63.000000	0.000000	-1.000000	-1.000000	1209773.000000	1775724025.445346
99642.915000	77904.585000	97988.265000	55301.535000	69999.255000	34682.985000	67663.305000	98663.130000	-4.436841	-5.977922	-4.807642	-4.372632	-0.426578	0.171869	-9.043320	-10.450838	-0.106820	2.502640	0.793520	-0.620665	0.187561	0.750608	-1.000000	-1.000000	-1.000000	-1.000000	-1.000000	-1.000000	-1.000000	63.000000	0.000000	-1.000000	-1.000000	1209774.000000	1775724025.445357
99645.345000	77905.530000	97990.065000	55299.555000	69999.705000	34695.000000	67662.225000	98663.535000	-2.761720	-0.951022	0.216053	1.195549	2.696817	6.482319	-4.679032	-10.541958	-0.106820	2.502640	0.793520	-0.620665	0.187561	0.750608	-1.000000	-1.000000	-1.000000	-1.000000	-1.000000	-1.000000	-1.000000	63.000000	0.000000	-1.000000	-1.000000	1209775.000000	1775724025.445370
99643.815000	77901.480000	97982.910000	55289.205000	69972.795000	34651.170000	67654.845000	98659.440000	0.358125	4.477900	5.423022	6.511840	6.314955	11.081213	0.952379	-6.405573	-0.106820	2.502640	0.793520	-0.620665	0.187561	0.750608	-1.000000	-1.000000	-1.000000	-1.000000	-1.000000	-1.000000	-1.000000	63.000000	0.000000	-1.000000	-1.000000	1209776.000000	1775724025.445380
99647.235000	77904.540000	97986.375000	55289.385000	69966.045000	34597.530000	67654.935000	98660.745000	3.117746	7.390583	7.637571	8.223851	5.979540	9.098841	4.970265	-0.452862	-0.106820	2.502640	0.793520	-0.620665	0.187561	0.750608	-1.000000	-1.000000	-1.000000	-1.000000	-1.000000	-1.000000	-1.000000	63.000000	0.000000	-1.000000	-1.000000	1209777.000000	1775724025.445391
99651.555000	77908.005000	97991.505000	55294.020000	69987.330000	34611.840000	67663.215000	98665.740000	4.322563	7.008611	6.253477	6.050934	1.201030	-0.795400	6.280479	4.688228	-0.106820	2.502640	0.793520	-0.620665	0.187561	0.750608	-1.000000	-1.000000	-1.000000	-1.000000	-1.000000	-1.000000	-1.000000	63.000000	0.000000	-1.000000	-1.000000	1209778.000000	1775724025.445401
99641.340000	77896.935000	97980.705000	55282.995000	69988.545000	34690.455000	67662.000000	98660.070000	3.749651	4.326756	2.911405	2.264555	-3.093600	-9.367066	5.833412	7.540307	-0.106820	2.502640	0.793520	-0.620665	0.187561	0.750608	-1.000000	-1.000000	-1.000000	-1.000000	-1.000000	-1.000000	-1.000000	63.000000	0.000000	-1.000000	-1.000000	1209779.000000	1775724025.448435
99648.810000	77906.160000	97991.010000	55293.210000	70009.785000	34757.145000	67666.770000	98664.480000	1.669712	0.694034	-0.639102	-1.007709	-2.861483	-3.958393	4.682327	7.602314	-0.106820	2.502640	0.793520	-0.620665	0.187561	0.750608	-1.000000	-1.000000	-1.000000	-1.000000	-1.000000	-1.000000	-1.000000	63.000000	0.000000	-1.000000	-1.000000	1209780.000000	1775724025.448456
99646.920000	77906.385000	97991.820000	55291.815000	70010.730000	34748.820000	67662.720000	98659.440000	-0.848562	-2.281439	-2.959572	-2.570270	1.126950	14.767561	3.012260	5.312486	-0.717220	3.845520	0.915600	-0.620970	0.192993	0.749205	-1.000000	-1.000000	-1.000000	-1.000000	-1.000000	-1.000000	-1.000000	63.000000	0.000000	-1.000000	-1.000000	1209781.000000	1775724025.450138
99645.885000	77911.920000	97996.410000	55292.985000	70004.925000	34726.005000	67661.145000	98657.640000	-2.458195	-3.246340	-3.174798	-2.232355	4.822689	29.515586	0.697600	1.834952	-0.717220	3.845520	0.915600	-0.620970	0.192993	0.749205	-1.000000	-1.000000	-1.000000	-1.000000	-1.000000	-1.000000	-1.000000	63.000000	0.000000	-1.000000	-1.000000	1209782.000000	1775724025.450161
99640.215000	77909.985000	97995.420000	55294.920000	70017.480000	34740.855000	67666.680000	98656.605000	-2.856982	-2.329165	-1.840443	-0.981907	4.677374	24.470300	-1.857268	-1.529163	-0.717220	3.845520	0.915600	-0.620970	0.192993	0.749205	-1.000000	-1.000000	-1.000000	-1.000000	-1.000000	-1.000000	-1.000000	63.000000	0.000000	-1.000000	-1.000000	1209783.000000	1775724025.455828
99644.535000	77908.320000	97993.125000	55291.320000	70016.895000	34730.460000	67667.940000	98661.645000	-2.473819	-0.917217	-0.446201	-0.037457	0.916161	1.766414	-3.507249	-3.525365	-0.717220	3.845520	0.915600	-0.620970	0.192993	0.749205	-1.000000	-1.000000	-1.000000	-1.000000	-1.000000	-1.000000	-1.000000	63.000000	0.000000	-1.000000	-1.000000	1209784.000000	1775724025.455850
99645.660000	77907.015000	97990.155000	55284.930000	70008.570000	34720.245000	67667.040000	98662.140000	-1.442228	-0.314853	-0.148351	-0.156864	-3.792962	-23.695568	-3.529697	-3.405761	-0.717220	3.845520	0.915600	-0.620970	0.192993	0.749205	-1.000000	-1.000000	-1.000000	-1.000000	-1.000000	-1.000000	-1.000000	63.000000	0.000000	-1.000000	-1.000000	1209785.000000	1775724025.463532
99647.145000	77908.680000	97990.695000	55282.860000	70002.585000	34713.495000	67666.455000	98662.185000	0.189632	-0.675969	-0.935036	-1.374901	-7.528511	-38.571370	-2.450455	-1.650648	-0.717220	3.845520	0.915600	-0.620970	0.192993	0.749205	-1.000000	-1.000000	-1.000000	-1.000000	-1.000000	-1.000000	-1.000000	63.000000	0.000000	-1.000000	-1.000000	1209786.000000	1775724025.463552
99649.170000	77907.060000	97988.220000	55279.080000	69999.030000	34709.760000	67667.355000	98664.120000	1.864049	-1.206042	-1.824981	-2.781418	-9.282760	-37.624273	-1.223959	0.349865	-0.717220	3.845520	0.915600	-0.620970	0.192993	0.749205	-1.000000	-1.000000	-1.000000	-1.000000	-1.000000	-1.000000	-1.000000	63.000000	0.000000	-1.000000	-1.000000	1209787.000000	1775724025.463577
99646.830000	77904.675000	97986.015000	55276.470000	69997.185000	34710.930000	67665.150000	98661.150000	2.762160	-1.268367	-1.953453	-3.215709	-8.276290	-23.346499	-0.357645	1.425097	-0.717220	3.845520	0.915600	-0.620970	0.192993	0.749205	-1.000000	-1.000000	-1.000000	-1.000000	-1.000000	-1.000000	-1.000000	63.000000	0.000000	-1.000000	-1.000000	1209788.000000	1775724025.463588
99647.460000	77908.050000	97988.310000	55275.525000	69996.870000	34711.650000	67663.035000	98660.385000	2.387171	-0.793388	-1.149623	-2.209732	-4.492360	-2.995817	0.033323	1.184924	-0.717220	3.845520	0.915600	-0.620970	0.192993	0.749205	-1.000000	-1.000000	-1.000000	-1.000000	-1.000000	-1.000000	-1.000000	63.000000	0.000000	-1.000000	-1.000000	1209789.000000	1775724025.466743
99643.635000	77909.850000	97988.310000	55276.335000	69996.060000	34701.300000	67657.995000	98655.390000	0.905605	0.145928	0.325289	-0.106280	0.851248	15.044548	-0.034780	-0.052223	-0.717220	3.845520	0.915600	-0.620970	0.192993	0.749205	-1.000000	-1.000000	-1.000000	-1.000000	-1.000000	-1.000000	-1.000000	63.000000	0.000000	-1.000000	-1.000000	1209790.000000	1775724025.466762
99649.305000	77917.410000	97996.455000	55281.195000	69999.210000	34684.560000	67659.795000	98659.845000	-0.849442	1.454687	2.054524	2.359784	5.818293	24.309631	-0.325067	-1.424235	-2.990960	4.181240	1.617560	-0.622252	0.196228	0.746763	-1.000000	-1.000000	-1.000000	-1.000000	-1.000000	-1.000000	-1.000000	63.000000	0.000000	-1.000000	-1.000000	1209791.000000	1775724025.469798
99654.165000	77920.965000	98000.505000	55280.475000	69998.670000	34692.435000	67663.260000	98664.120000	-1.719313	2.800290	3.599025	4.346939	8.756814	23.092051	-0.229944	-1.813359	-2.990960	4.181240	1.617560	-0.622252	0.196228	0.746763	-1.000000	-1.000000	-1.000000	-1.000000	-1.000000	-1.000000	-1.000000	63.000000	0.000000	-1.000000	-1.000000	1209792.000000	1775724025.469821
99649.080000	77913.405000	97992.765000	55271.430000	70002.315000	34725.960000	67664.610000	98661.150000	-1.224670	3.345949	4.212283	4.817154	8.939255	15.909847	0.726589	-0.760809	-2.990960	4.181240	1.617560	-0.622252	0.196228	0.746763	-1.000000	-1.000000	-1.000000	-1.000000	-1.000000	-1.000000	-1.000000	63.000000	0.000000	-1.000000	-1.000000	1209793.000000	1775724025.480270
99651.105000	77916.060000	97996.185000	55274.715000	70016.445000	34719.120000	67664.970000	98662.725000	-0.224581	2.154413	2.985803	3.110886	6.941940	9.371592	2.127736	0.851378	-2.990960	4.181240	1.617560	-0.622252	0.196228	0.746763	-1.000000	-1.000000	-1.000000	-1.000000	-1.000000	-1.000000	-1.000000	63.000000	0.000000	-1.000000	-1.000000	1209794.000000	1775724025.480294
99645.030000	77910.750000	97992.540000	55274.760000	70029.900000	34743.960000	67671.855000	98661.060000	0.145112	-0.539383	0.144198	0.134159	4.426303	5.743229	3.048900	1.757627	-2.990960	4.181240	1.617560	-0.622252	0.196228	0.746763	-1.000000	-1.000000	-1.000000	-1.000000	-1.000000	-1.000000	-1.000000	63.000000	0.000000	-1.000000	-1.000000	1209795.000000	1775724025.480320
99639.495000	77905.980000	97987.860000	55266.210000	70001.550000	34725.600000	67666.635000	98657.505000	-0.486820	-3.360244	-2.898514	-2.388238	1.954565	2.846052	2.921245	1.434841	-2.990960	4.181240	1.617560	-0.622252	0.196228	0.746763	-1.000000	-1.000000	-1.000000	-1.000000	-1.000000	-1.000000	-1.000000	63.000000	0.000000	-1.000000	-1.000000	1209796.000000	1775724025.480332
99645.255000	77912.910000	97993.710000	55267.740000	69994.215000	34696.980000	67663.755000	98660.655000	-1.551319	-4.850034	-4.712673	-3.636078	-2.105686	-2.479375	1.509324	0.233847	-2.990960	4.181240	1.617560	-0.622252	0.196228	0.746763	-1.000000	-1.000000	-1.000000	-1.000000	-1.000000	-1.000000	-1.000000	63.000000	0.000000	-1.000000	-1.000000	1209797.000000	1775724025.480898
99648.360000	77915.925000	97996.455000	55269.900000	70002.405000	34702.425000	67665.825000	98663.085000	-1.721910	-3.951195	-4.314716	-3.456750	-7.742718	-10.937522	-0.876752	-0.836725	-2.990960	4.181240	1.617560	-0.622252	0.196228	0.746763	-1.000000	-1.000000	-1.000000	-1.000000	-1.000000	-1.000000	-1.000000	63.000000	0.000000	-1.000000	-1.000000	1209798.000000	1775724025.480916
99647.190000	77914.305000	97995.510000	55271.205000	70018.380000	34747.245000	67668.930000	98663.220000	-0.296976	-0.910804	-1.825317	-1.839354	-10.894182	-17.308616	-2.939559	-0.937729	-2.990960	4.181240	1.617560	-0.622252	0.196228	0.746763	-1.000000	-1.000000	-1.000000	-1.000000	-1.000000	-1.000000	-1.000000	63.000000	0.000000	-1.000000	-1.000000	1209799.000000	1775724025.496620
99642.960000	77910.885000	97989.885000	55265.895000	70004.070000	34733.790000	67665.870000	98659.980000	1.676006	2.316721	1.081006	0.449243	-8.339685	-14.860834	-3.438446	-0.297055	-2.990960	4.181240	1.617560	-0.622252	0.196228	0.746763	-1.000000	-1.000000	-1.000000	-1.000000	-1.000000	-1.000000	-1.000000	63.000000	0.000000	-1.000000	-1.000000	1209800.000000	1775724025.496640
99645.705000	77912.325000	97992.360000	55263.600000	69990.795000	34708.770000	67669.020000	98664.390000	2.603338	3.747697	2.556475	1.969074	-2.454078	-5.270885	-2.409848	0.269515	-2.426340	3.341940	0.869820	-0.624632	0.194213	0.743406	-1.000000	-1.000000	-1.000000	-1.000000	-1.000000	-1.000000	-1.000000	63.000000	0.000000	-1.000000	-1.000000	1209801.000000	1775724025.496662
99647.775000	77914.935000	97996.365000	55264.455000	69991.785000	34690.500000	67671.495000	98666.055000	2.147086	3.132658	2.362177	1.961342	1.932933	2.503318	-0.671390	0.488522	-2.426340	3.341940	0.869820	-0.624632	0.194213	0.743406	-1.000000	-1.000000	-1.000000	-1.000000	-1.000000	-1.000000	-1.000000	63.000000	0.000000	-1.000000	-1.000000	1209802.000000	1775724025.496671
99649.980000	77918.490000	97999.020000	55266.795000	70008.390000	34715.610000	67664.430000	98661.735000	1.146627	1.679047	1.628140	1.057824	3.529383	3.827055	0.879115	0.493314	-2.426340	3.341940	0.869820	-0.624632	0.194213	0.743406	-1.000000	-1.000000	-1.000000	-1.000000	-1.000000	-1.000000	-1.000000	63.000000	0.000000	-1.000000	-1.000000	1209803.000000	1775724025.496681
99644.850000	77912.865000	97993.035000	55260.585000	70020.945000	34738.470000	67659.480000	98657.010000	0.243527	0.429212	1.069471	0.239062	4.689223	2.908908	1.295904	0.065103	-2.426340	3.341940	0.869820	-0.624632	0.194213	0.743406	-1.000000	-1.000000	-1.000000	-1.000000	-1.000000	-1.000000	-1.000000	63.000000	0.000000	-1.000000	-1.000000	1209804.000000	1775724025.496689
99637.065000	77904.630000	97983.225000	55246.455000	70007.625000	34741.755000	67660.605000	98656.065000	-0.775147	-0.722666	0.179965	-0.541646	6.486819	5.043362	0.362767	-0.939859	-2.426340	3.341940	0.869820	-0.624632	0.194213	0.743406	-1.000000	-1.000000	-1.000000	-1.000000	-1.000000	-1.000000	-1.000000	63.000000	0.000000	-1.000000	-1.000000	1209805.000000	1775724025.502416
99639.675000	77908.905000	97985.385000	55246.365000	70000.110000	34737.300000	67664.295000	98657.505000	-2.103567	-2.092330	-1.490627	-1.810635	6.563250	9.067733	-0.749722	-1.853778	-2.426340	3.341940	0.869820	-0.624632	0.194213	0.743406	-1.000000	-1.000000	-1.000000	-1.000000	-1.000000	-1.000000	-1.000000	63.000000	0.000000	-1.000000	-1.000000	1209806.000000	1775724025.502439
99636.975000	77907.870000	97986.285000	55246.365000	69995.655000	34720.650000	67649.760000	98648.865000	-2.986398	-2.940300	-2.944964	-2.889712	2.850025	9.598936	-0.938068	-1.889323	-2.426340	3.341940	0.869820	-0.624632	0.194213	0.743406	-1.000000	-1.000000	-1.000000	-1.000000	-1.000000	-1.000000	-1.000000	63.000000	0.000000	-1.000000	-1.000000	1209807.000000	1775724025.503729
99633.960000	77907.870000	97986.690000	55247.715000	69989.805000	34697.160000	67638.555000	98638.965000	-2.589030	-2.343704	-2.725402	-2.332283	-3.072071	3.555716	-0.797961	-1.329434	-2.426340	3.341940	0.869820	-0.624632	0.194213	0.743406	-1.000000	-1.000000	-1.000000	-1.000000	-1.000000	-1.000000	-1.000000	63.000000	0.000000	-1.000000	-1.000000	1209808.000000	1775724025.503748
99645.480000	77920.110000	98000.145000	55259.370000	70000.830000	34704.495000	67652.055000	98647.695000	-0.887381	-0.332720	-0.522804	0.296851	-7.389920	-6.476270	-1.010709	-0.774672	-2.426340	3.341940	0.869820	-0.624632	0.194213	0.743406	-1.000000	-1.000000	-1.000000	-1.000000	-1.000000	-1.000000	-1.000000	63.000000	0.000000	-1.000000	-1.000000	1209809.000000	1775724025.510414
99661.905000	77935.005000	98013.375000	55272.600000	70024.770000	34757.505000	67680.630000	98671.185000	1.980779	2.636583	2.982044	4.180105	-6.823677	-12.778025	0.063988	0.646719	-2.426340	3.341940	0.869820	-0.624632	0.194213	0.743406	-1.000000	-1.000000	-1.000000	-1.000000	-1.000000	-1.000000	-1.000000	63.000000	0.000000	-1.000000	-1.000000	1209810.000000	1775724025.510434
99655.695000	77925.915000	98005.635000	55264.860000	70030.665000	34767.675000	67684.815000	98678.610000	5.279676	5.446028	6.153089	7.419478	-0.976706	-8.585978	4.115442	4.121645	-1.541260	1.617560	0.274680	-0.624083	0.189086	0.742186	-1.000000	-1.000000	-1.000000	-1.000000	-1.000000	-1.000000	-1.000000	63.000000	0.000000	-1.000000	-1.000000	1209811.000000	1775724025.514402
99651.195000	77919.570000	98000.100000	55255.860000	70018.605000	34744.680000	67677.390000	98675.010000	6.625499	5.715184	6.368140	7.274226	6.059841	3.105555	8.685145	7.981988	-1.541260	1.617560	0.274680	-0.624083	0.189086	0.742186	-1.000000	-1.000000	-1.000000	-1.000000	-1.000000	-1.000000	-1.000000	63.000000	0.000000	-1.000000	-1.000000	1209812.000000	1775724025.514425
99645.345000	77912.100000	97993.575000	55250.280000	70015.500000	34734.600000	67672.575000	98667.495000	3.974345	1.968479	2.317527	2.491243	8.422518	11.098449	8.814257	8.294324	-1.541260	1.617560	0.274680	-0.624083	0.189086	0.742186	-1.000000	-1.000000	-1.000000	-1.000000	-1.000000	-1.000000	-1.000000	63.000000	0.000000	-1.000000	-1.000000	1209813.000000	1775724025.515045
99648.270000	77913.810000	97993.665000	55248.840000	70007.670000	34719.795000	67668.435000	98667.810000	-1.564267	-3.957770	-3.965107	-4.587588	4.114719	8.282845	2.857834	3.310669	-1.541260	1.617560	0.274680	-0.624083	0.189086	0.742186	-1.000000	-1.000000	-1.000000	-1.000000	-1.000000	-1.000000	-1.000000	63.000000	0.000000	-1.000000	-1.000000	1209814.000000	1775724025.515062
99646.470000	77913.225000	97992.945000	55246.725000	70000.740000	34716.195000	67663.845000	98666.010000	-6.464085	-8.182021	-8.579136	-9.684686	-3.604968	-2.146756	-5.791666	-4.314880	-1.541260	1.617560	0.274680	-0.624083	0.189086	0.742186	-1.000000	-1.000000	-1.000000	-1.000000	-1.000000	-1.000000	-1.000000	63.000000	0.000000	-1.000000	-1.000000	1209815.000000	1775724025.526504
99633.150000	77902.695000	97980.480000	55236.375000	69996.645000	34727.760000	67654.395000	98650.485000	-8.180029	-8.310765	-9.117466	-10.227748	-9.745905	-11.413723	-12.215707	-10.312437	-1.541260	1.617560	0.274680	-0.624083	0.189086	0.742186	-1.000000	-1.000000	-1.000000	-1.000000	-1.000000	-1.000000	-1.000000	63.000000	0.000000	-1.000000	-1.000000	1209816.000000	1775724025.526526
99630.045000	77901.750000	97979.040000	55232.730000	70007.175000	34755.120000	67653.720000	98640.270000	-6.916148	-5.105896	-6.210465	-6.878811	-10.783658	-12.226469	-13.515423	-12.478312	-1.541260	1.617560	0.274680	-0.624083	0.189086	0.742186	-1.000000	-1.000000	-1.000000	-1.000000	-1.000000	-1.000000	-1.000000	63.000000	0.000000	-1.000000	-1.000000	1209817.000000	1775724025.526549
99641.295000	77916.555000	97993.845000	55242.360000	70015.365000	34747.335000	67661.640000	98648.820000	-3.768104	-0.444312	-1.542625	-1.687138	-5.923969	-3.861522	-9.407856	-10.584345	-1.541260	1.617560	0.274680	-0.624083	0.189086	0.742186	-1.000000	-1.000000	-1.000000	-1.000000	-1.000000	-1.000000	-1.000000	63.000000	0.000000	-1.000000	-1.000000	1209818.000000	1775724025.526560
99647.820000	77927.895000	98005.320000	55251.945000	70026.120000	34750.395000	67670.865000	98657.055000	0.907908	4.726891	4.062485	3.987007	2.534832	7.123353	-1.446096	-4.755773	-1.541260	1.617560	0.274680	-0.624083	0.189086	0.742186	-1.000000	-1.000000	-1.000000	-1.000000	-1.000000	-1.000000	-1.000000	63.000000	0.000000	-1.000000	-1.000000	1209819.000000	1775724025.526574
99647.055000	77928.615000	98005.860000	55251.270000	70021.530000	34737.075000	67675.815000	98665.785000	6.068948	9.237981	9.325863	8.867891	10.083590	12.655743	7.297852	3.746866	-1.541260	1.617560	0.274680	-0.624083	0.189086	0.742186	-1.000000	-1.000000	-1.000000	-1.000000	-1.000000	-1.000000	-1.000000	63.000000	0.000000	-1.000000	-1.000000	1209820.000000	1775724025.526584
99641.475000	77920.560000	97995.690000	55240.920000	70008.435000	34698.555000	67671.315000	98669.070000	9.097339	10.591004	11.379928	10.689233	12.260650	9.065967	12.920668	11.576545	-0.366240	0.427280	0.839300	-0.622862	0.185546	0.744139	-1.000000	-1.000000	-1.000000	-1.000000	-1.000000	-1.000000	-1.000000	63.000000	0.000000	-1.000000	-1.000000	1209821.000000	1775724025.532747
99632.520000	77903.055000	97978.410000	55223.370000	70004.160000	34718.445000	67659.570000	98663.220000	7.786731	6.724328	7.784283	7.478445	7.544204	-1.119762	12.486154	14.820604	-0.366240	0.427280	0.839300	-0.622862	0.185546	0.744139	-1.000000	-1.000000	-1.000000	-1.000000	-1.000000	-1.000000	-1.000000	63.000000	0.000000	-1.000000	-1.000000	1209822.000000	1775724025.532771
99632.205000	77896.890000	97974.045000	55215.360000	69997.590000	34725.105000	67655.475000	98659.035000	2.619037	-1.442076	-0.545688	-0.028265	-1.123258	-9.959352	6.082223	11.560578	-0.366240	0.427280	0.839300	-0.622862	0.185546	0.744139	-1.000000	-1.000000	-1.000000	-1.000000	-1.000000	-1.000000	-1.000000	63.000000	0.000000	-1.000000	-1.000000	1209823.000000	1775724025.542059
99641.295000	77904.630000	97983.900000	55218.330000	69991.380000	34701.390000	67664.835000	98665.380000	-3.093342	-9.428088	-8.755451	-7.716270	-8.560504	-10.926140	-2.442676	3.581982	-0.366240	0.427280	0.839300	-0.622862	0.185546	0.744139	-1.000000	-1.000000	-1.000000	-1.000000	-1.000000	-1.000000	-1.000000	63.000000	0.000000	-1.000000	-1.000000	1209824.000000	1775724025.542083
99662.580000	77927.220000	98007.750000	55241.460000	70022.970000	34760.565000	67679.280000	98680.680000	-5.335955	-11.690503	-11.028853	-10.330054	-10.547240	-4.395694	-7.628867	-4.281528	-0.366240	0.427280	0.839300	-0.622862	0.185546	0.744139	-1.000000	-1.000000	-1.000000	-1.000000	-1.000000	-1.000000	-1.000000	63.000000	0.000000	-1.000000	-1.000000	1209825.000000	1775724025.542108
99655.830000	77923.170000	98007.030000	55244.880000	70053.930000	34819.290000	67678.020000	98674.605000	-2.808148	-6.305774	-5.530250	-5.565284	-5.066216	7.040439	-6.746129	-7.880680	-0.366240	0.427280	0.839300	-0.622862	0.185546	0.744139	-1.000000	-1.000000	-1.000000	-1.000000	-1.000000	-1.000000	-1.000000	63.000000	0.000000	-1.000000	-1.000000	1209826.000000	1775724025.542119
99653.400000	77921.775000	98006.805000	55242.855000	70041.105000	34784.730000	67676.895000	98673.210000	1.387445	2.540297	3.317763	3.180778	5.327760	19.216236	-2.076982	-7.179708	-0.366240	0.427280	0.839300	-0.622862	0.185546	0.744139	-1.000000	-1.000000	-1.000000	-1.000000	-1.000000	-1.000000	-1.000000	63.000000	0.000000	-1.000000	-1.000000	1209827.000000	1775724025.542133
99648.315000	77915.430000	97999.785000	55233.180000	70018.335000	34752.330000	67673.610000	98670.285000	2.901279	8.240743	8.685581	9.211242	12.507782	22.237818	1.811287	-4.956644	-0.366240	0.427280	0.839300	-0.622862	0.185546	0.744139	-1.000000	-1.000000	-1.000000	-1.000000	-1.000000	-1.000000	-1.000000	63.000000	0.000000	-1.000000	-1.000000	1209828.000000	1775724025.542143
99648.540000	77916.825000	98002.035000	55236.060000	70034.895000	34785.450000	67674.780000	98669.970000	0.597004	7.679373	7.358783	8.478791	10.017544	9.949867	2.394923	-3.205332	-0.366240	0.427280	0.839300	-0.622862	0.185546	0.744139	-1.000000	-1.000000	-1.000000	-1.000000	-1.000000	-1.000000	-1.000000	63.000000	0.000000	-1.000000	-1.000000	1209829.000000	1775724025.550827
99640.395000	77911.380000	97999.425000	55236.555000	70048.575000	34822.395000	67676.805000	98664.525000	-3.299952	2.670886	1.447700	2.592972	0.792011	-8.786591	0.468978	-2.150868	-0.366240	0.427280	0.839300	-0.622862	0.185546	0.744139	-1.000000	-1.000000	-1.000000	-1.000000	-1.000000	-1.000000	-1.000000	63.000000	0.000000	-1.000000	-1.000000	1209830.000000	1775724025.550852
99639.495000	77913.225000	98000.505000	55233.450000	70035.930000	34787.970000	67674.420000	98665.470000	-6.008358	-2.846676	-4.567276	-3.805101	-7.238427	-20.075757	-1.704586	-1.288674	-1.297100	-1.342880	0.946120	-0.619871	0.184570	0.748777	-1.000000	-1.000000	-1.000000	-1.000000	-1.000000	-1.000000	-1.000000	63.000000	0.000000	-1.000000	-1.000000	1209831.000000	1775724025.559011
99649.800000	77919.120000	98003.610000	55232.370000	70024.995000	34756.920000	67673.520000	98671.005000	-5.778083	-5.665129	-7.333179	-7.303817	-10.437024	-21.277381	-2.661614	-0.006914	-1.297100	-1.342880	0.946120	-0.619871	0.184570	0.748777	-1.000000	-1.000000	-1.000000	-1.000000	-1.000000	-1.000000	-1.000000	63.000000	0.000000	-1.000000	-1.000000	1209832.000000	1775724025.559035
99656.190000	77921.955000	98005.365000	55231.335000	70026.795000	34755.930000	67674.195000	98673.975000	-2.180096	-4.644997	-6.047150	-7.155094	-9.976344	-18.290162	-2.250042	2.037005	-1.297100	-1.342880	0.946120	-0.619871	0.184570	0.748777	-1.000000	-1.000000	-1.000000	-1.000000	-1.000000	-1.000000	-1.000000	63.000000	0.000000	-1.000000	-1.000000	1209833.000000	1775724025.574143
99653.310000	77918.445000	98004.555000	55230.975000	70033.320000	34745.400000	67671.900000	98669.880000	3.154800	-1.142049	-2.210802	-4.385872	-7.050612	-13.866008	-0.971241	4.167705	-1.297100	-1.342880	0.946120	-0.619871	0.184570	0.748777	-1.000000	-1.000000	-1.000000	-1.000000	-1.000000	-1.000000	-1.000000	63.000000	0.000000	-1.000000	-1.000000	1209834.000000	1775724025.574166
99653.895000	77917.320000	98006.130000	55231.020000	70027.695000	34713.720000	67670.055000	98669.250000	6.975051	2.058942	1.685941	-0.685008	-2.119282	-7.339837	0.430142	4.905044	-1.297100	-1.342880	0.946120	-0.619871	0.184570	0.748777	-1.000000	-1.000000	-1.000000	-1.000000	-1.000000	-1.000000	-1.000000	63.000000	0.000000	-1.000000	-1.000000	1209835.000000	1775724025.574190
99654.390000	77916.555000	98005.590000	55229.715000	70033.635000	34755.885000	67672.305000	98670.510000	7.069415	3.055568	3.844557	2.406180	3.304909	1.181908	1.378659	3.576367	-1.297100	-1.342880	0.946120	-0.619871	0.184570	0.748777	-1.000000	-1.000000	-1.000000	-1.000000	-1.000000	-1.000000	-1.000000	63.000000	0.000000	-1.000000	-1.000000	1209836.000000	1775724025.574202
99649.665000	77911.425000	98000.820000	55223.145000	70039.170000	34813.800000	67677.345000	98670.285000	3.840779	1.899584	3.778529	3.851314	7.288462	12.462712	1.923281	1.073172	-1.297100	-1.342880	0.946120	-0.619871	0.184570	0.748777	-1.000000	-1.000000	-1.000000	-1.000000	-1.000000	-1.000000	-1.000000	63.000000	0.000000	-1.000000	-1.000000	1209837.000000	1775724025.574216
99644.895000	77906.970000	97994.835000	55212.795000	70022.655000	34774.290000	67672.530000	98667.990000	-0.766441	-0.269969	1.899593	3.178830	8.531700	25.206954	2.281269	-1.230823	-1.297100	-1.342880	0.946120	-0.619871	0.184570	0.748777	-1.000000	-1.000000	-1.000000	-1.000000	-1.000000	-1.000000	-1.000000	63.000000	0.000000	-1.000000	-1.000000	1209838.000000	1775724025.574227
99649.305000	77915.430000	98001.675000	55218.420000	70020.540000	34751.565000	67671.585000	98668.890000	-4.554516	-2.000601	-0.598904	0.980144	6.266396	30.481225	2.099949	-2.548522	-1.297100	-1.342880	0.946120	-0.619871	0.184570	0.748777	-1.000000	-1.000000	-1.000000	-1.000000	-1.000000	-1.000000	-1.000000	63.000000	0.000000	-1.000000	-1.000000	1209839.000000	1775724025.574239
99652.230000	77921.460000	98006.805000	55225.215000	70029.810000	34761.105000	67674.195000	98670.600000	-5.696865	-1.857056	-1.887474	-0.755154	1.622498	20.714167	1.077888	-2.654695	-1.297100	-1.342880	0.946120	-0.619871	0.184570	0.748777	-1.000000	-1.000000	-1.000000	-1.000000	-1.000000	-1.000000	-1.000000	63.000000	0.000000	-1.000000	-1.000000	1209840.000000	1775724025.574250
99647.865000	77916.510000	98002.575000	55220.625000	70039.530000	34795.035000	67671.720000	98665.380000	-3.873443	0.251249	-1.064349	-0.411128	-2.003042	1.825928	-0.271192	-1.797370	-3.479280	-0.900340	1.373400	-0.614683	0.185119	0.751951	-1.000000	-1.000000	-1.000000	-1.000000	-1.000000	-1.000000	-1.000000	63.000000	0.000000	-1.000000	-1.000000	1209841.000000	1775724025.583909
99648.495000	77917.500000	98005.320000	55224.360000	70044.975000	34790.625000	67672.530000	98666.325000	-0.717707	2.456476	0.744757	1.323176	-2.184692	-12.935044	-1.250523	-0.706718	-3.479280	-0.900340	1.373400	-0.614683	0.185119	0.751951	-1.000000	-1.000000	-1.000000	-1.000000	-1.000000	-1.000000	-1.000000	63.000000	0.000000	-1.000000	-1.000000	1209842.000000	1775724025.583931
99649.935000	77918.310000	98004.375000	55222.470000	70036.695000	34762.995000	67673.835000	98669.160000	1.813114	2.942315	1.862970	2.593750	-0.038374	-17.709923	-1.549112	0.122737	-3.479280	-0.900340	1.373400	-0.614683	0.185119	0.751951	-1.000000	-1.000000	-1.000000	-1.000000	-1.000000	-1.000000	-1.000000	63.000000	0.000000	-1.000000	-1.000000	1209843.000000	1775724025.583953
99649.620000	77918.355000	98004.690000	55220.355000	70033.365000	34733.835000	67671.315000	98669.835000	2.923967	1.670182	1.670391	2.321200	1.226345	-16.821602	-1.203523	0.815000	-3.479280	-0.900340	1.373400	-0.614683	0.185119	0.751951	-1.000000	-1.000000	-1.000000	-1.000000	-1.000000	-1.000000	-1.000000	63.000000	0.000000	-1.000000	-1.000000	1209844.000000	1775724025.583963
99646.650000	77914.170000	98000.505000	55212.345000	70030.935000	34751.385000	67671.405000	98668.080000	2.690873	-0.333391	0.471459	0.476798	-0.141019	-15.081880	-0.597034	1.392031	-3.479280	-0.900340	1.373400	-0.614683	0.185119	0.751951	-1.000000	-1.000000	-1.000000	-1.000000	-1.000000	-1.000000	-1.000000	63.000000	0.000000	-1.000000	-1.000000	1209845.000000	1775724025.583973
99641.970000	77908.725000	97993.530000	55205.010000	70032.555000	34798.410000	67675.095000	98667.630000	1.406268	-2.214905	-1.198192	-2.260567	-2.895130	-10.542100	-0.052502	1.471213	-3.479280	-0.900340	1.373400	-0.614683	0.185119	0.751951	-1.000000	-1.000000	-1.000000	-1.000000	-1.000000	-1.000000	-1.000000	63.000000	0.000000	-1.000000	-1.000000	1209846.000000	1775724025.583982
99643.365000	77909.310000	97991.955000	55201.095000	70028.055000	34781.895000	67672.890000	98671.140000	-0.358273	-3.422320	-2.761418	-4.679550	-4.640814	0.061765	0.435397	0.940393	-3.479280	-0.900340	1.373400	-0.614683	0.185119	0.751951	-1.000000	-1.000000	-1.000000	-1.000000	-1.000000	-1.000000	-1.000000	63.000000	0.000000	-1.000000	-1.000000	1209847.000000	1775724025.583992
99639.495000	77906.385000	97989.525000	55198.620000	70032.330000	34791.615000	67669.200000	98665.875000	-1.692387	-3.423446	-3.434531	-5.406358	-4.132378	12.539811	0.693516	0.163985	-3.479280	-0.900340	1.373400	-0.614683	0.185119	0.751951	-1.000000	-1.000000	-1.000000	-1.000000	-1.000000	-1.000000	-1.000000	63.000000	0.000000	-1.000000	-1.000000	1209848.000000	1775724025.584002
99635.760000	77905.170000	97988.715000	55195.560000	70023.285000	34774.875000	67662.225000	98658.450000	-2.033404	-2.091818	-2.621563	-3.793802	-1.830717	18.458049	0.260139	-0.738076	-3.479280	-0.900340	1.373400	-0.614683	0.185119	0.751951	-1.000000	-1.000000	-1.000000	-1.000000	-1.000000	-1.000000	-1.000000	63.000000	0.000000	-1.000000	-1.000000	1209849.000000	1775724025.585438
99639.495000	77911.065000	97994.880000	55198.035000	70014.555000	34723.620000	67657.095000	98655.435000	-1.458091	0.099782	-0.419675	-0.451816	0.585935	13.275590	-0.947443	-1.884321	-3.479280	-0.900340	1.373400	-0.614683	0.185119	0.751951	-1.000000	-1.000000	-1.000000	-1.000000	-1.000000	-1.000000	-1.000000	63.000000	0.000000	-1.000000	-1.000000	1209850.000000	1775724025.585462
99641.835000	77915.745000	98000.505000	55204.560000	70035.435000	34752.105000	67661.145000	98655.300000	-0.133678	2.565251	2.537413	3.358800	2.016802	-0.334192	-2.105558	-2.760778	-2.792580	1.419180	1.220800	-0.613280	0.186035	0.752745	-1.000000	-1.000000	-1.000000	-1.000000	-1.000000	-1.000000	-1.000000	63.000000	0.000000	-1.000000	-1.000000	1209851.000000	1775724025.589152
99643.185000	77917.770000	98003.790000	55206.720000	70050.195000	34838.820000	67675.995000	98665.695000	1.616783	4.591021	5.187775	6.396422	3.541002	-11.103835	-1.672937	-2.232317	-2.792580	1.419180	1.220800	-0.613280	0.186035	0.752745	-1.000000	-1.000000	-1.000000	-1.000000	-1.000000	-1.000000	-1.000000	63.000000	0.000000	-1.000000	-1.000000	1209852.000000	1775724025.589175
99645.660000	77918.310000	98002.260000	55203.480000	70040.205000	34805.385000	67679.730000	98676.810000	3.002136	5.186186	6.142917	7.419607	5.857111	-8.333757	1.159567	0.420990	-2.792580	1.419180	1.220800	-0.613280	0.186035	0.752745	-1.000000	-1.000000	-1.000000	-1.000000	-1.000000	-1.000000	-1.000000	63.000000	0.000000	-1.000000	-1.000000	1209853.000000	1775724025.593892
99641.430000	77912.910000	97996.815000	55196.010000	70032.780000	34777.440000	67672.755000	98673.210000	3.174292	3.658355	4.416948	5.479137	6.570628	2.988764	4.696300	4.208382	-2.792580	1.419180	1.220800	-0.613280	0.186035	0.752745	-1.000000	-1.000000	-1.000000	-1.000000	-1.000000	-1.000000	-1.000000	63.000000	0.000000	-1.000000	-1.000000	1209854.000000	1775724025.593916
99640.035000	77913.360000	97998.345000	55198.980000	70038.495000	34775.955000	67668.570000	98668.665000	1.780405	0.339161	0.429087	1.039207	3.433822	8.350504	5.696578	6.341480	-2.792580	1.419180	1.220800	-0.613280	0.186035	0.752745	-1.000000	-1.000000	-1.000000	-1.000000	-1.000000	-1.000000	-1.000000	63.000000	0.000000	-1.000000	-1.000000	1209855.000000	1775724025.602871
99637.650000	77911.110000	97996.950000	55197.135000	70040.880000	34786.080000	67664.385000	98658.450000	-0.662952	-3.275796	-3.828813	-3.643076	-1.890347	3.068474	2.778896	4.536980	-2.792580	1.419180	1.220800	-0.613280	0.186035	0.752745	-1.000000	-1.000000	-1.000000	-1.000000	-1.000000	-1.000000	-1.000000	63.000000	0.000000	-1.000000	-1.000000	1209856.000000	1775724025.602894
99634.995000	77911.155000	97996.635000	55195.290000	70045.560000	34789.050000	67661.550000	98650.845000	-2.949097	-5.414704	-6.182968	-6.207313	-5.742001	-5.476916	-2.209280	-0.709719	-2.792580	1.419180	1.220800	-0.613280	0.186035	0.752745	-1.000000	-1.000000	-1.000000	-1.000000	-1.000000	-1.000000	-1.000000	63.000000	0.000000	-1.000000	-1.000000	1209857.000000	1775724025.602921
99634.635000	77915.205000	97998.030000	55192.095000	70039.530000	34782.480000	67665.690000	98650.710000	-3.985233	-5.141962	-5.786257	-6.001910	-6.315804	-9.556625	-6.007148	-6.323906	-2.792580	1.419180	1.220800	-0.613280	0.186035	0.752745	-1.000000	-1.000000	-1.000000	-1.000000	-1.000000	-1.000000	-1.000000	63.000000	0.000000	-1.000000	-1.000000	1209858.000000	1775724025.602933
99645.120000	77928.660000	98010.495000	55203.885000	70047.855000	34783.920000	67680.630000	98668.440000	-3.164219	-2.488152	-3.035488	-3.684946	-4.394582	-7.728486	-6.100689	-8.456690	-2.792580	1.419180	1.220800	-0.613280	0.186035	0.752745	-1.000000	-1.000000	-1.000000	-1.000000	-1.000000	-1.000000	-1.000000	63.000000	0.000000	-1.000000	-1.000000	1209859.000000	1775724025.606976
99652.140000	77933.970000	98014.635000	55205.955000	70056.585000	34809.255000	67690.035000	98685.135000	-0.426275	1.666837	1.050697	-0.107073	-1.363685	-2.295921	-2.075072	-4.852063	-2.792580	1.419180	1.220800	-0.613280	0.186035	0.752745	-1.000000	-1.000000	-1.000000	-1.000000	-1.000000	-1.000000	-1.000000	63.000000	0.000000	-1.000000	-1.000000	1209860.000000	1775724025.607025
99646.560000	77921.820000	98003.475000	55193.670000	70050.645000	34814.970000	67685.760000	98684.235000	3.003225	5.103062	4.487939	3.190462	1.677347	4.426966	3.585149	2.792433	-1.358140	3.067260	0.244160	-0.615965	0.187683	0.752501	-1.000000	-1.000000	-1.000000	-1.000000	-1.000000	-1.000000	-1.000000	63.000000	0.000000	-1.000000	-1.000000	1209861.000000	1775724025.621160
99644.760000	77911.020000	97990.920000	55178.550000	70030.620000	34787.430000	67675.185000	98680.770000	4.706701	4.973801	4.683027	3.790195	2.930934	9.219916	6.605645	9.115132	-1.358140	3.067260	0.244160	-0.615965	0.187683	0.752501	-1.000000	-1.000000	-1.000000	-1.000000	-1.000000	-1.000000	-1.000000	63.000000	0.000000	-1.000000	-1.000000	1209862.000000	1775724025.621184
99643.635000	77912.235000	97994.385000	55181.160000	70038.045000	34789.005000	67670.280000	98671.320000	3.298981	0.778535	1.092730	0.927989	1.107002	8.205921	4.412917	9.342656	-1.358140	3.067260	0.244160	-0.615965	0.187683	0.752501	-1.000000	-1.000000	-1.000000	-1.000000	-1.000000	-1.000000	-1.000000	63.000000	0.000000	-1.000000	-1.000000	1209863.000000	1775724025.621210
99647.055000	77917.320000	98000.010000	55186.605000	70049.115000	34801.965000	67677.930000	98670.915000	-0.047278	-4.226790	-3.251838	-2.678444	-1.812153	1.925014	-1.206358	3.328915	-1.358140	3.067260	0.244160	-0.615965	0.187683	0.752501	-1.000000	-1.000000	-1.000000	-1.000000	-1.000000	-1.000000	-1.000000	63.000000	0.000000	-1.000000	-1.000000	1209864.000000	1775724025.621222
99647.280000	77919.615000	98002.755000	55189.980000	70050.150000	34810.470000	67680.270000	98671.905000	-2.890160	-6.036677	-4.598441	-3.443798	-2.298541	-3.981231	-5.665753	-4.627189	-1.358140	3.067260	0.244160	-0.615965	0.187683	0.752501	-1.000000	-1.000000	-1.000000	-1.000000	-1.000000	-1.000000	-1.000000	63.000000	0.000000	-1.000000	-1.000000	1209865.000000	1775724025.621235
99644.805000	77916.735000	97998.660000	55183.905000	70032.285000	34796.070000	67673.655000	98668.575000	-3.764986	-3.714475	-2.288147	-0.822654	-0.098229	-5.487744	-6.088982	-9.527687	-1.358140	3.067260	0.244160	-0.615965	0.187683	0.752501	-1.000000	-1.000000	-1.000000	-1.000000	-1.000000	-1.000000	-1.000000	63.000000	0.000000	-1.000000	-1.000000	1209866.000000	1775724025.621245
99650.025000	77918.760000	98000.460000	55181.250000	70029.000000	34782.840000	67674.330000	98671.995000	-2.835084	0.446101	1.259630	2.525225	1.660278	-4.089711	-3.398480	-9.230622	-1.358140	3.067260	0.244160	-0.615965	0.187683	0.752501	-1.000000	-1.000000	-1.000000	-1.000000	-1.000000	-1.000000	-1.000000	63.000000	0.000000	-1.000000	-1.000000	1209867.000000	1775724025.631650
99650.430000	77916.915000	98000.775000	55180.710000	70023.420000	34758.900000	67676.220000	98672.400000	-0.935564	3.631866	3.511347	3.928392	1.025690	-3.448436	-0.014768	-4.831955	-1.358140	3.067260	0.244160	-0.615965	0.187683	0.752501	-1.000000	-1.000000	-1.000000	-1.000000	-1.000000	-1.000000	-1.000000	63.000000	0.000000	-1.000000	-1.000000	1209868.000000	1775724025.631675
99644.805000	77912.415000	97998.120000	55180.485000	70035.300000	34780.455000	67678.335000	98669.655000	0.903655	4.401480	3.611932	2.989455	-0.570258	-4.265796	2.593165	0.864925	-1.358140	3.067260	0.244160	-0.615965	0.187683	0.752501	-1.000000	-1.000000	-1.000000	-1.000000	-1.000000	-1.000000	-1.000000	63.000000	0.000000	-1.000000	-1.000000	1209869.000000	1775724025.631701
99642.015000	77910.975000	97997.445000	55178.415000	70054.470000	34823.565000	67680.225000	98670.195000	1.576900	2.850782	2.022105	0.961744	-0.244066	-2.695088	3.969671	5.014501	-1.358140	3.067260	0.244160	-0.615965	0.187683	0.752501	-1.000000	-1.000000	-1.000000	-1.000000	-1.000000	-1.000000	-1.000000	63.000000	0.000000	-1.000000	-1.000000	1209870.000000	1775724025.631712
99642.555000	77914.755000	98001.045000	55179.495000	70054.830000	34811.595000	67678.380000	98670.555000	0.859613	0.346047	-0.098202	-0.823915	3.023631	4.272493	4.000702	6.256447	-1.175020	4.898460	-0.717220	-0.619322	0.191589	0.748655	-1.000000	-1.000000	-1.000000	-1.000000	-1.000000	-1.000000	-1.000000	63.000000	0.000000	-1.000000	-1.000000	1209871.000000	1775724025.631727
99639.585000	77913.405000	97998.030000	55175.400000	70047.090000	34806.330000	67676.490000	98667.855000	-0.295285	-1.364850	-1.522464	-1.713410	6.485887	12.245129	2.716225	4.986764	-1.175020	4.898460	-0.717220	-0.619322	0.191589	0.748655	-1.000000	-1.000000	-1.000000	-1.000000	-1.000000	-1.000000	-1.000000	63.000000	0.000000	-1.000000	-1.000000	1209872.000000	1775724025.631738
99640.485000	77915.970000	98001.045000	55177.380000	70043.355000	34793.280000	67674.690000	98667.405000	-0.855153	-1.515714	-1.794643	-1.738581	6.149755	13.456401	0.517427	2.403034	-1.175020	4.898460	-0.717220	-0.619322	0.191589	0.748655	-1.000000	-1.000000	-1.000000	-1.000000	-1.000000	-1.000000	-1.000000	63.000000	0.000000	-1.000000	-1.000000	1209873.000000	1775724025.633347
99645.975000	77920.560000	98007.030000	55180.575000	70044.345000	34778.610000	67675.635000	98671.455000	-0.382553	-0.501551	-1.105050	-1.116985	1.338200	5.680341	-1.673537	-0.142799	-1.175020	4.898460	-0.717220	-0.619322	0.191589	0.748655	-1.000000	-1.000000	-1.000000	-1.000000	-1.000000	-1.000000	-1.000000	63.000000	0.000000	-1.000000	-1.000000	1209874.000000	1775724025.633360
99648.135000	77918.895000	98004.465000	55176.255000	70047.405000	34786.260000	67676.220000	98672.220000	1.012586	0.819741	0.125409	-0.109896	-4.648692	-6.057565	-2.822206	-1.527844	-1.175020	4.898460	-0.717220	-0.619322	0.191589	0.748655	-1.000000	-1.000000	-1.000000	-1.000000	-1.000000	-1.000000	-1.000000	63.000000	0.000000	-1.000000	-1.000000	1209875.000000	1775724025.652454
99647.010000	77915.385000	97998.930000	55168.695000	70034.085000	34770.870000	67674.150000	98669.745000	2.513617	1.426121	0.963618	0.524665	-8.186130	-14.251208	-2.535148	-1.577390	-1.175020	4.898460	-0.717220	-0.619322	0.191589	0.748655	-1.000000	-1.000000	-1.000000	-1.000000	-1.000000	-1.000000	-1.000000	63.000000	0.000000	-1.000000	-1.000000	1209876.000000	1775724025.652480
99644.310000	77913.630000	97996.095000	55165.320000	70027.065000	34747.560000	67673.205000	98667.045000	2.884331	0.664372	0.467160	0.025533	-8.424944	-15.266342	-1.341223	-1.135144	-1.175020	4.898460	-0.717220	-0.619322	0.191589	0.748655	-1.000000	-1.000000	-1.000000	-1.000000	-1.000000	-1.000000	-1.000000	63.000000	0.000000	-1.000000	-1.000000	1209877.000000	1775724025.652506
99643.320000	77911.785000	97996.185000	55167.705000	70053.120000	34786.080000	67676.670000	98668.035000	1.556077	-1.038205	-1.074936	-1.160293	-5.934233	-10.123042	-0.016839	-0.983732	-1.175020	4.898460	-0.717220	-0.619322	0.191589	0.748655	-1.000000	-1.000000	-1.000000	-1.000000	-1.000000	-1.000000	-1.000000	63.000000	0.000000	-1.000000	-1.000000	1209878.000000	1775724025.652519
99646.740000	77913.630000	97998.975000	55165.770000	70046.865000	34744.545000	67670.145000	98668.305000	-0.683052	-2.447021	-2.222586	-1.663168	-0.858317	-1.230384	0.959749	-1.046381	-1.175020	4.898460	-0.717220	-0.619322	0.191589	0.748655	-1.000000	-1.000000	-1.000000	-1.000000	-1.000000	-1.000000	-1.000000	63.000000	0.000000	-1.000000	-1.000000	1209879.000000	1775724025.652533
99639.810000	77904.810000	97990.830000	55157.130000	70051.320000	34834.590000	67674.960000	98663.580000	-2.451762	-2.684649	-1.975655	-0.962274	5.131073	8.642896	1.306003	-0.927345	-1.175020	4.898460	-0.717220	-0.619322	0.191589	0.748655	-1.000000	-1.000000	-1.000000	-1.000000	-1.000000	-1.000000	-1.000000	63.000000	0.000000	-1.000000	-1.000000	1209880.000000	1775724025.652544
99639.180000	77902.290000	97990.245000	55159.425000	70069.005000	34911.990000	67684.500000	98669.205000	-3.117199	-1.991647	-0.797072	0.155383	8.997970	19.127536	1.313284	-0.534070	-1.785420	4.761120	-0.534100	-0.623228	0.195495	0.744505	-1.000000	-1.000000	-1.000000	-1.000000	-1.000000	-1.000000	-1.000000	63.000000	0.000000	-1.000000	-1.000000	1209881.000000	1775724025.652557
99645.120000	77905.845000	97995.690000	55161.585000	70061.130000	34852.365000	67680.585000	98672.940000	-2.673447	-0.922257	0.472812	1.092024	9.296892	28.392658	1.593261	0.239604	-1.785420	4.761120	-0.534100	-0.623228	0.195495	0.744505	-1.000000	-1.000000	-1.000000	-1.000000	-1.000000	-1.000000	-1.000000	63.000000	0.000000	-1.000000	-1.000000	1209882.000000	1775724025.652568
99647.955000	77905.440000	97996.770000	55157.895000	70055.055000	34830.270000	67678.245000	98672.805000	-1.056013	0.520803	1.726918	1.882116	5.944920	26.105387	1.742732	1.382069	-1.785420	4.761120	-0.534100	-0.623228	0.195495	0.744505	-1.000000	-1.000000	-1.000000	-1.000000	-1.000000	-1.000000	-1.000000	63.000000	0.000000	-1.000000	-1.000000	1209883.000000	1775724025.655389
99646.965000	77906.520000	97998.030000	55156.410000	70056.045000	34824.510000	67676.130000	98670.195000	1.249928	2.212070	2.863936	2.257796	-0.197693	5.681097	0.792509	2.168510	-1.785420	4.761120	-0.534100	-0.623228	0.195495	0.744505	-1.000000	-1.000000	-1.000000	-1.000000	-1.000000	-1.000000	-1.000000	63.000000	0.000000	-1.000000	-1.000000	1209884.000000	1775724025.655408
99647.685000	77911.245000	98001.630000	55157.310000	70056.990000	34816.680000	67674.510000	98668.575000	2.931616	3.518644	3.322506	1.839234	-6.347847	-22.578673	-1.157314	1.731312	-1.785420	4.761120	-0.534100	-0.623228	0.195495	0.744505	-1.000000	-1.000000	-1.000000	-1.000000	-1.000000	-1.000000	-1.000000	63.000000	0.000000	-1.000000	-1.000000	1209885.000000	1775724025.664263
99649.575000	77914.035000	98003.655000	55159.245000	70059.870000	34823.970000	67677.795000	98669.295000	3.038772	3.947648	2.773332	0.904991	-9.287241	-41.003950	-2.868735	0.159604	-1.785420	4.761120	-0.534100	-0.623228	0.195495	0.744505	-1.000000	-1.000000	-1.000000	-1.000000	-1.000000	-1.000000	-1.000000	63.000000	0.000000	-1.000000	-1.000000	1209886.000000	1775724025.664286
99647.550000	77914.845000	98003.970000	55158.210000	70061.535000	34836.345000	67679.550000	98668.125000	1.747069	3.339499	1.385150	0.059701	-7.864828	-39.532828	-3.090460	-1.512409	-1.785420	4.761120	-0.534100	-0.623228	0.195495	0.744505	-1.000000	-1.000000	-1.000000	-1.000000	-1.000000	-1.000000	-1.000000	63.000000	0.000000	-1.000000	-1.000000	1209887.000000	1775724025.672518
99649.755000	77921.145000	98010.180000	55159.560000	70058.880000	34810.110000	67676.895000	98668.980000	-0.108369	1.815203	-0.342858	-0.454361	-3.526728	-21.140117	-1.684414	-2.290287	-1.785420	4.761120	-0.534100	-0.623228	0.195495	0.744505	-1.000000	-1.000000	-1.000000	-1.000000	-1.000000	-1.000000	-1.000000	63.000000	0.000000	-1.000000	-1.000000	1209888.000000	1775724025.672540
99640.530000	77914.035000	98005.005000	55155.645000	70057.530000	34797.870000	67680.135000	98665.110000	-1.774874	-0.222973	-1.814384	-0.794712	0.992795	1.664153	0.293613	-1.962086	-1.785420	4.761120	-0.534100	-0.623228	0.195495	0.744505	-1.000000	-1.000000	-1.000000	-1.000000	-1.000000	-1.000000	-1.000000	63.000000	0.000000	-1.000000	-1.000000	1209889.000000	1775724025.672565
99635.535000	77910.255000	98001.135000	55151.820000	70054.920000	34815.735000	67683.780000	98667.135000	-3.024243	-2.493359	-2.894518	-1.254807	3.589737	17.441494	1.808089	-0.994064	-1.785420	4.761120	-0.534100	-0.623228	0.195495	0.744505	-1.000000	-1.000000	-1.000000	-1.000000	-1.000000	-1.000000	-1.000000	63.000000	0.000000	-1.000000	-1.000000	1209890.000000	1775724025.672576
99644.130000	77914.980000	98003.610000	55150.110000	70052.580000	34816.410000	67682.205000	98673.075000	-3.543596	-4.511145	-3.656382	-1.899072	3.805002	23.448726	2.483103	0.212540	-2.945180	3.845520	-0.854560	-0.628844	0.197937	0.740416	-1.000000	-1.000000	-1.000000	-1.000000	-1.000000	-1.000000	-1.000000	63.000000	0.000000	-1.000000	-1.000000	1209891.000000	1775724025.672590
99645.435000	77913.360000	98002.620000	55148.355000	70056.495000	34812.720000	67681.170000	98672.040000	-2.447654	-5.150433	-3.639904	-2.301844	2.573362	22.245082	2.150216	1.521234	-2.945180	3.845520	-0.854560	-0.628844	0.197937	0.740416	-1.000000	-1.000000	-1.000000	-1.000000	-1.000000	-1.000000	-1.000000	63.000000	0.000000	-1.000000	-1.000000	1209892.000000	1775724025.672601
99638.235000	77905.935000	97997.130000	55142.955000	70056.360000	34797.555000	67674.555000	98665.110000	0.174498	-3.946401	-2.521609	-2.017421	1.323617	15.989027	0.751151	2.310172	-2.945180	3.845520	-0.854560	-0.628844	0.197937	0.740416	-1.000000	-1.000000	-1.000000	-1.000000	-1.000000	-1.000000	-1.000000	63.000000	0.000000	-1.000000	-1.000000	1209893.000000	1775724025.674044
99630.585000	77901.255000	97992.180000	55138.365000	70046.685000	34765.380000	67661.775000	98654.625000	2.390433	-1.936731	-0.930781	-1.181513	0.651164	5.878766	-1.497523	1.523551	-2.945180	3.845520	-0.854560	-0.628844	0.197937	0.740416	-1.000000	-1.000000	-1.000000	-1.000000	-1.000000	-1.000000	-1.000000	63.000000	0.000000	-1.000000	-1.000000	1209894.000000	1775724025.674062
99634.140000	77903.730000	97995.825000	55138.995000	70053.255000	34796.790000	67665.690000	98659.485000	2.612090	-0.205775	0.400138	-0.181112	0.134165	-5.147405	-3.808730	-0.791575	-2.945180	3.845520	-0.854560	-0.628844	0.197937	0.740416	-1.000000	-1.000000	-1.000000	-1.000000	-1.000000	-1.000000	-1.000000	63.000000	0.000000	-1.000000	-1.000000	1209895.000000	1775724025.677166
99642.060000	77904.270000	97995.960000	55136.655000	70064.955000	34858.890000	67685.535000	98674.110000	1.612142	1.267196	1.543114	0.884223	-0.058514	-10.217419	-4.216322	-2.518404	-2.945180	3.845520	-0.854560	-0.628844	0.197937	0.740416	-1.000000	-1.000000	-1.000000	-1.000000	-1.000000	-1.000000	-1.000000	63.000000	0.000000	-1.000000	-1.000000	1209896.000000	1775724025.677183
99645.120000	77903.370000	97993.305000	55131.435000	70058.205000	34831.260000	67688.055000	98676.360000	1.250219	2.746195	2.660338	1.854678	0.700369	-4.778770	-1.021858	-1.422211	-2.945180	3.845520	-0.854560	-0.628844	0.197937	0.740416	-1.000000	-1.000000	-1.000000	-1.000000	-1.000000	-1.000000	-1.000000	63.000000	0.000000	-1.000000	-1.000000	1209897.000000	1775724025.681189
99633.420000	77893.875000	97986.105000	55125.315000	70056.810000	34814.385000	67672.215000	98660.565000	1.725853	3.661155	3.151263	2.175191	1.591918	4.526048	3.941777	1.559330	-2.945180	3.845520	-0.854560	-0.628844	0.197937	0.740416	-1.000000	-1.000000	-1.000000	-1.000000	-1.000000	-1.000000	-1.000000	63.000000	0.000000	-1.000000	-1.000000	1209898.000000	1775724025.681211
99621.315000	77884.155000	97977.195000	55119.420000	70053.885000	34811.010000	67661.820000	98646.030000	1.236169	2.971570	2.210479	1.466582	1.120974	6.663242	6.023832	2.725883	-2.945180	3.845520	-0.854560	-0.628844	0.197937	0.740416	-1.000000	-1.000000	-1.000000	-1.000000	-1.000000	-1.000000	-1.000000	63.000000	0.000000	-1.000000	-1.000000	1209899.000000	1775724025.691134
99631.845000	77893.605000	97988.580000	55123.470000	70043.940000	34810.650000	67668.030000	98654.445000	-1.059873	0.815202	0.235948	0.244119	-0.902732	-0.281622	3.203800	0.347210	-2.945180	3.845520	-0.854560	-0.628844	0.197937	0.740416	-1.000000	-1.000000	-1.000000	-1.000000	-1.000000	-1.000000	-1.000000	63.000000	0.000000	-1.000000	-1.000000	1209900.000000	1775724025.691158
99642.735000	77900.490000	97994.745000	55123.920000	70036.110000	34813.170000	67687.380000	98674.380000	-2.976225	-0.759464	-0.834402	-0.300414	-3.521703	-9.258811	-1.193372	-2.554591	-2.151660	2.411080	-0.839300	-0.630553	0.195983	0.737181	-1.000000	-1.000000	-1.000000	-1.000000	-1.000000	-1.000000	-1.000000	63.000000	0.000000	-1.000000	-1.000000	1209901.000000	1775724025.691183
99663.885000	77921.550000	98014.455000	55144.080000	70067.430000	34844.220000	67701.960000	98695.710000	-1.671883	0.287478	0.593194	0.757894	-4.752340	-12.611987	-2.321110	-1.606580	-2.151660	2.411080	-0.839300	-0.630553	0.195983	0.737181	-1.000000	-1.000000	-1.000000	-1.000000	-1.000000	-1.000000	-1.000000	63.000000	0.000000	-1.000000	-1.000000	1209902.000000	1775724025.691194
99656.235000	77915.430000	98008.785000	55141.695000	70064.370000	34820.865000	67691.205000	98685.270000	2.533774	3.474420	3.694065	3.195257	-2.325328	-8.004314	0.517477	3.255326	-2.151660	2.411080	-0.839300	-0.630553	0.195983	0.737181	-1.000000	-1.000000	-1.000000	-1.000000	-1.000000	-1.000000	-1.000000	63.000000	0.000000	-1.000000	-1.000000	1209903.000000	1775724025.693868
99647.730000	77907.330000	98000.595000	55134.135000	70056.495000	34816.185000	67679.910000	98668.710000	5.639048	5.473888	5.272656	4.935227	2.711017	-0.126662	3.086920	6.812571	-2.151660	2.411080	-0.839300	-0.630553	0.195983	0.737181	-1.000000	-1.000000	-1.000000	-1.000000	-1.000000	-1.000000	-1.000000	63.000000	0.000000	-1.000000	-1.000000	1209904.000000	1775724025.693885
99643.500000	77907.465000	97999.560000	55130.895000	70049.430000	34820.280000	67671.900000	98653.050000	3.960294	3.277626	2.714220	3.437741	5.807257	4.680605	1.405396	4.089097	-2.151660	2.411080	-0.839300	-0.630553	0.195983	0.737181	-1.000000	-1.000000	-1.000000	-1.000000	-1.000000	-1.000000	-1.000000	63.000000	0.000000	-1.000000	-1.000000	1209905.000000	1775724025.700825
99640.485000	77908.635000	98001.405000	55131.255000	70069.185000	34837.335000	67668.750000	98646.030000	-1.775156	-2.184717	-2.817966	-1.165643	4.615513	5.291612	-3.750035	-4.027822	-2.151660	2.411080	-0.839300	-0.630553	0.195983	0.737181	-1.000000	-1.000000	-1.000000	-1.000000	-1.000000	-1.000000	-1.000000	63.000000	0.000000	-1.000000	-1.000000	1209906.000000	1775724025.700847
99646.695000	77917.230000	98010.810000	55141.245000	70086.645000	34864.470000	67682.835000	98659.395000	-7.283223	-6.932797	-7.301203	-5.700224	1.787559	5.042884	-7.874473	-11.335656	-2.151660	2.411080	-0.839300	-0.630553	0.195983	0.737181	-1.000000	-1.000000	-1.000000	-1.000000	-1.000000	-1.000000	-1.000000	63.000000	0.000000	-1.000000	-1.000000	1209907.000000	1775724025.702271
99661.320000	77931.135000	98024.625000	55153.845000	70089.750000	34863.795000	67697.685000	98684.730000	-8.447810	-7.585891	-7.445272	-6.755194	0.745329	6.230130	-6.821744	-11.391454	-2.151660	2.411080	-0.839300	-0.630553	0.195983	0.737181	-1.000000	-1.000000	-1.000000	-1.000000	-1.000000	-1.000000	-1.000000	63.000000	0.000000	-1.000000	-1.000000	1209908.000000	1775724025.702289
99656.730000	77924.115000	98015.805000	55145.790000	70076.835000	34827.615000	67692.015000	98685.540000	-4.400206	-3.991323	-3.388884	-3.790880	0.991091	6.417516	-0.623302	-2.993617	-2.151660	2.411080	-0.839300	-0.630553	0.195983	0.737181	-1.000000	-1.000000	-1.000000	-1.000000	-1.000000	-1.000000	-1.000000	63.000000	0.000000	-1.000000	-1.000000	1209909.000000	1775724025.713584
99658.980000	77914.710000	98005.680000	55128.285000	70050.150000	34742.655000	67683.285000	98687.070000	1.712160	0.472924	1.150378	-0.064112	-0.880067	-0.027592	5.934898	8.090502	-2.151660	2.411080	-0.839300	-0.630553	0.195983	0.737181	-1.000000	-1.000000	-1.000000	-1.000000	-1.000000	-1.000000	-1.000000	63.000000	0.000000	-1.000000	-1.000000	1209910.000000	1775724025.713609
99652.590000	77906.430000	97996.635000	55115.955000	70038.135000	34742.520000	67681.620000	98679.645000	5.581408	1.999159	2.322236	0.521316	-6.399992	-14.158181	7.808457	13.965228	-1.953280	0.839300	-1.541260	-0.628416	0.191467	0.738096	-1.000000	-1.000000	-1.000000	-1.000000	-1.000000	-1.000000	-1.000000	63.000000	0.000000	-1.000000	-1.000000	1209911.000000	1775724025.719734
99643.185000	77900.940000	97993.440000	55116.270000	70075.800000	34903.395000	67691.835000	98673.840000	5.123419	0.008137	-0.102651	-2.204814	-11.676615	-23.530534	4.638095	11.098905	-1.953280	0.839300	-1.541260	-0.628416	0.191467	0.738096	-1.000000	-1.000000	-1.000000	-1.000000	-1.000000	-1.000000	-1.000000	63.000000	0.000000	-1.000000	-1.000000	1209912.000000	1775724025.719757
99639.945000	77899.635000	97994.565000	55119.420000	70091.010000	34926.615000	67691.565000	98672.895000	1.248861	-2.892603	-3.048794	-4.566843	-9.957400	-10.967735	0.125116	2.114952	-1.953280	0.839300	-1.541260	-0.628416	0.191467	0.738096	-1.000000	-1.000000	-1.000000	-1.000000	-1.000000	-1.000000	-1.000000	63.000000	0.000000	-1.000000	-1.000000	1209913.000000	1775724025.719785
99641.970000	77902.560000	97998.345000	55120.320000	70079.805000	34876.080000	67685.940000	98673.210000	-3.028783	-3.662853	-3.346204	-3.241397	-0.201894	18.837499	-2.637203	-7.009906	-1.953280	0.839300	-1.541260	-0.628416	0.191467	0.738096	-1.000000	-1.000000	-1.000000	-1.000000	-1.000000	-1.000000	-1.000000	63.000000	0.000000	-1.000000	-1.000000	1209914.000000	1775724025.719797
99640.665000	77901.435000	97998.570000	55119.285000	70077.690000	34864.200000	67685.310000	98671.770000	-4.683636	-1.233454	-0.323000	1.454401	10.141766	38.317870	-3.415988	-11.347060	-1.953280	0.839300	-1.541260	-0.628416	0.191467	0.738096	-1.000000	-1.000000	-1.000000	-1.000000	-1.000000	-1.000000	-1.000000	63.000000	0.000000	-1.000000	-1.000000	1209915.000000	1775724025.719811
99645.930000	77906.925000	98003.970000	55121.805000	70076.880000	34855.560000	67684.635000	98675.100000	-2.848278	3.010192	4.088366	6.433355	13.432294	29.557670	-3.113508	-9.697550	-1.953280	0.839300	-1.541260	-0.628416	0.191467	0.738096	-1.000000	-1.000000	-1.000000	-1.000000	-1.000000	-1.000000	-1.000000	63.000000	0.000000	-1.000000	-1.000000	1209916.000000	1775724025.719821
99647.010000	77908.275000	98006.940000	55125.585000	70081.740000	34849.845000	67687.560000	98676.315000	1.055980	6.669824	7.288386	8.902372	8.958292	1.037507	-2.126366	-4.083795	-1.953280	0.839300	-1.541260	-0.628416	0.191467	0.738096	-1.000000	-1.000000	-1.000000	-1.000000	-1.000000	-1.000000	-1.000000	63.000000	0.000000	-1.000000	-1.000000	1209917.000000	1775724025.729590
99642.555000	77901.750000	98000.820000	55121.355000	70081.560000	34846.110000	67689.855000	98675.235000	4.546944	7.789016	7.583626	7.963821	1.299101	-26.409079	-0.520105	2.161314	-1.953280	0.839300	-1.541260	-0.628416	0.191467	0.738096	-1.000000	-1.000000	-1.000000	-1.000000	-1.000000	-1.000000	-1.000000	63.000000	0.000000	-1.000000	-1.000000	1209918.000000	1775724025.729614
99643.725000	77901.930000	97998.255000	55114.110000	70069.365000	34830.900000	67684.185000	98674.065000	5.555070	5.604116	4.597563	4.113472	-5.004689	-37.900725	1.222053	6.135588	-1.953280	0.839300	-1.541260	-0.628416	0.191467	0.738096	-1.000000	-1.000000	-1.000000	-1.000000	-1.000000	-1.000000	-1.000000	63.000000	0.000000	-1.000000	-1.000000	1209919.000000	1775724025.729642
99635.355000	77894.820000	97989.030000	55107.675000	70067.835000	34832.745000	67680.270000	98665.920000	3.679289	1.095794	-0.532564	-1.323361	-8.220715	-31.257048	2.062755	6.514239	-1.953280	0.839300	-1.541260	-0.628416	0.191467	0.738096	-1.000000	-1.000000	-1.000000	-1.000000	-1.000000	-1.000000	-1.000000	63.000000	0.000000	-1.000000	-1.000000	1209920.000000	1775724025.729654
99637.695000	77898.195000	97993.215000	55108.755000	70073.145000	34834.140000	67681.260000	98668.125000	0.184096	-3.478777	-5.434027	-6.176815	-8.195067	-13.248794	1.481607	3.880098	-1.297100	-1.297100	-0.320460	-0.624754	0.184265	0.741880	-1.000000	-1.000000	-1.000000	-1.000000	-1.000000	-1.000000	-1.000000	63.000000	0.000000	-1.000000	-1.000000	1209921.000000	1775724025.732686
99645.930000	77906.745000	98001.315000	55113.615000	70081.020000	34846.695000	67687.785000	98675.955000	-2.730234	-5.758320	-7.459454	-8.056288	-4.946019	7.012330	0.374345	0.475829	-1.297100	-1.297100	-0.320460	-0.624754	0.184265	0.741880	-1.000000	-1.000000	-1.000000	-1.000000	-1.000000	-1.000000	-1.000000	63.000000	0.000000	-1.000000	-1.000000	1209922.000000	1775724025.732710
99649.395000	77912.235000	98005.995000	55114.920000	70080.705000	34846.785000	67686.660000	98678.520000	-3.167398	-4.527458	-5.308007	-5.956021	0.466234	22.043715	0.062111	-1.241321	-1.297100	-1.297100	-0.320460	-0.624754	0.184265	0.741880	-1.000000	-1.000000	-1.000000	-1.000000	-1.000000	-1.000000	-1.000000	63.000000	0.000000	-1.000000	-1.000000	1209923.000000	1775724025.738570
99652.140000	77916.285000	98010.630000	55117.935000	70072.110000	34811.280000	67684.860000	98679.105000	-1.196298	-0.798587	-0.361607	-1.257869	5.241537	26.827586	0.619276	-0.734150	-1.297100	-1.297100	-0.320460	-0.624754	0.184265	0.741880	-1.000000	-1.000000	-1.000000	-1.000000	-1.000000	-1.000000	-1.000000	63.000000	0.000000	-1.000000	-1.000000	1209924.000000	1775724025.738593
99652.230000	77913.810000	98010.765000	55118.025000	70067.115000	34758.360000	67687.515000	98680.905000	1.239261	2.721791	4.216436	3.279243	6.508019	18.935088	1.066619	0.538696	-1.297100	-1.297100	-0.320460	-0.624754	0.184265	0.741880	-1.000000	-1.000000	-1.000000	-1.000000	-1.000000	-1.000000	-1.000000	63.000000	0.000000	-1.000000	-1.000000	1209925.000000	1775724025.738618
99649.260000	77909.670000	98008.065000	55114.965000	70078.545000	34787.925000	67688.865000	98679.195000	2.151913	3.609492	5.772690	5.376663	4.122334	2.146106	0.874536	0.991631	-1.297100	-1.297100	-0.320460	-0.624754	0.184265	0.741880	-1.000000	-1.000000	-1.000000	-1.000000	-1.000000	-1.000000	-1.000000	63.000000	0.000000	-1.000000	-1.000000	1209926.000000	1775724025.738630
99635.040000	77893.695000	97991.775000	55098.270000	70090.290000	34897.950000	67688.190000	98669.520000	0.693298	1.155933	3.444897	4.073679	1.064300	-10.100576	0.266760	-0.035689	-1.297100	-1.297100	-0.320460	-0.624754	0.184265	0.741880	-1.000000	-1.000000	-1.000000	-1.000000	-1.000000	-1.000000	-1.000000	63.000000	0.000000	-1.000000	-1.000000	1209927.000000	1775724025.746068
99638.820000	77896.755000	97991.685000	55098.270000	70088.625000	34891.920000	67692.105000	98672.445000	-2.452285	-3.239608	-1.586134	0.025121	0.036307	-5.313122	-0.387825	-2.158757	-1.297100	-1.297100	-0.320460	-0.624754	0.184265	0.741880	-1.000000	-1.000000	-1.000000	-1.000000	-1.000000	-1.000000	-1.000000	63.000000	0.000000	-1.000000	-1.000000	1209928.000000	1775724025.746094
99640.530000	77903.820000	97997.040000	55100.565000	70095.375000	34893.720000	67692.105000	98671.860000	-4.972336	-6.372335	-6.137585	-4.146705	0.689398	10.934575	-0.780550	-3.894477	-1.297100	-1.297100	-0.320460	-0.624754	0.184265	0.741880	-1.000000	-1.000000	-1.000000	-1.000000	-1.000000	-1.000000	-1.000000	63.000000	0.000000	-1.000000	-1.000000	1209929.000000	1775724025.746123
99645.300000	77910.120000	98003.025000	55104.120000	70075.125000	34831.395000	67684.230000	98671.275000	-4.550080	-5.363410	-6.801758	-5.329789	0.740488	19.296534	-0.978142	-3.771330	-1.297100	-1.297100	-0.320460	-0.624754	0.184265	0.741880	-1.000000	-1.000000	-1.000000	-1.000000	-1.000000	-1.000000	-1.000000	63.000000	0.000000	-1.000000	-1.000000	1209930.000000	1775724025.746135
99645.885000	77905.575000	98002.170000	55106.595000	70077.060000	34815.510000	67685.850000	98667.945000	-1.143940	-0.609553	-3.015999	-2.683920	-1.432051	7.944279	-1.398622	-1.837012	0.213640	-2.136400	0.610400	-0.620238	0.179565	0.747557	-1.000000	-1.000000	-1.000000	-1.000000	-1.000000	-1.000000	-1.000000	63.000000	0.000000	-1.000000	-1.000000	1209931.000000	1775724025.749974
99638.820000	77894.910000	97995.105000	55100.655000	70090.110000	34884.405000	67689.180000	98662.455000	2.896530	4.207113	2.266680	1.681913	-4.582166	-14.776497	-1.820012	0.515925	0.213640	-2.136400	0.610400	-0.620238	0.179565	0.747557	-1.000000	-1.000000	-1.000000	-1.000000	-1.000000	-1.000000	-1.000000	63.000000	0.000000	-1.000000	-1.000000	1209932.000000	1775724025.749999
99653.985000	77910.345000	98010.360000	55111.995000	70102.260000	34912.530000	67691.880000	98676.135000	5.124306	5.875868	5.611538	4.847411	-5.228853	-28.083182	-1.366704	2.198242	0.213640	-2.136400	0.610400	-0.620238	0.179565	0.747557	-1.000000	-1.000000	-1.000000	-1.000000	-1.000000	-1.000000	-1.000000	63.000000	0.000000	-1.000000	-1.000000	1209933.000000	1775724025.763445
99659.520000	77914.125000	98012.970000	55111.095000	70092.765000	34879.410000	67699.080000	98687.160000	5.274473	4.785510	6.204477	5.559769	-2.088048	-21.665623	0.261465	3.577911	0.213640	-2.136400	0.610400	-0.620238	0.179565	0.747557	-1.000000	-1.000000	-1.000000	-1.000000	-1.000000	-1.000000	-1.000000	63.000000	0.000000	-1.000000	-1.000000	1209934.000000	1775724025.763470
99656.685000	77909.850000	98009.235000	55104.570000	70083.270000	34859.970000	67695.705000	98685.135000	4.271991	2.972753	4.911808	4.053849	1.785389	-5.787737	2.257612	5.056672	0.213640	-2.136400	0.610400	-0.620238	0.179565	0.747557	-1.000000	-1.000000	-1.000000	-1.000000	-1.000000	-1.000000	-1.000000	63.000000	0.000000	-1.000000	-1.000000	1209935.000000	1775724025.773452
99651.285000	77904.855000	98004.645000	55098.360000	70074.945000	34847.595000	67687.695000	98678.295000	2.112895	0.933409	2.097961	0.760153	2.631114	4.330321	3.054798	5.263739	0.213640	-2.136400	0.610400	-0.620238	0.179565	0.747557	-1.000000	-1.000000	-1.000000	-1.000000	-1.000000	-1.000000	-1.000000	63.000000	0.000000	-1.000000	-1.000000	1209936.000000	1775724025.773476
99645.525000	77897.430000	97998.030000	55093.005000	70074.225000	34854.030000	67681.575000	98670.645000	-1.427800	-1.744595	-1.872757	-3.332539	0.161882	4.661141	1.507640	2.514822	0.213640	-2.136400	0.610400	-0.620238	0.179565	0.747557	-1.000000	-1.000000	-1.000000	-1.000000	-1.000000	-1.000000	-1.000000	63.000000	0.000000	-1.000000	-1.000000	1209937.000000	1775724025.773506
99640.215000	77891.310000	97992.855000	55089.135000	70080.795000	34871.895000	67683.330000	98660.520000	-5.338079	-4.624114	-5.697504	-6.416799	-2.594166	1.523991	-1.603499	-2.715667	0.213640	-2.136400	0.610400	-0.620238	0.179565	0.747557	-1.000000	-1.000000	-1.000000	-1.000000	-1.000000	-1.000000	-1.000000	63.000000	0.000000	-1.000000	-1.000000	1209938.000000	1775724025.773518
99637.695000	77894.145000	97995.960000	55090.260000	70080.435000	34863.255000	67686.480000	98656.605000	-7.734989	-6.282704	-7.560890	-6.872012	-2.647601	1.614664	-3.839981	-7.795963	0.213640	-2.136400	0.610400	-0.620238	0.179565	0.747557	-1.000000	-1.000000	-1.000000	-1.000000	-1.000000	-1.000000	-1.000000	63.000000	0.000000	-1.000000	-1.000000	1209939.000000	1775724025.773533
99640.170000	77902.425000	98003.475000	55096.470000	70095.195000	34869.870000	67694.715000	98664.840000	-7.142729	-5.167522	-6.073639	-4.188085	0.400557	5.331259	-3.235550	-9.596383	0.213640	-2.136400	0.610400	-0.620238	0.179565	0.747557	-1.000000	-1.000000	-1.000000	-1.000000	-1.000000	-1.000000	-1.000000	63.000000	0.000000	-1.000000	-1.000000	1209940.000000	1775724025.773544
99645.435000	77908.995000	98008.110000	55099.260000	70104.285000	34868.655000	67704.570000	98681.445000	-3.400543	-0.977111	-1.403462	0.674842	4.813019	8.808821	0.152912	-6.205805	-2.624720	-0.808780	0.915600	-0.616087	0.179443	0.752256	-1.000000	-1.000000	-1.000000	-1.000000	-1.000000	-1.000000	-1.000000	63.000000	0.000000	-1.000000	-1.000000	1209941.000000	1775724025.779226
99648.810000	77910.120000	98007.210000	55096.380000	70098.570000	34848.270000	67702.230000	98690.445000	2.087351	4.398137	4.170265	5.386671	7.957697	8.685631	4.269327	1.487254	-2.624720	-0.808780	0.915600	-0.616087	0.179443	0.752256	-1.000000	-1.000000	-1.000000	-1.000000	-1.000000	-1.000000	-1.000000	63.000000	0.000000	-1.000000	-1.000000	1209942.000000	1775724025.779251
99652.635000	77907.960000	98004.330000	55090.935000	70086.735000	34839.360000	67688.280000	98689.050000	6.895823	7.798157	7.465139	7.328852	7.114798	3.922510	5.997697	9.362288	-2.624720	-0.808780	0.915600	-0.616087	0.179443	0.752256	-1.000000	-1.000000	-1.000000	-1.000000	-1.000000	-1.000000	-1.000000	63.000000	0.000000	-1.000000	-1.000000	1209943.000000	1775724025.779277
99649.665000	77903.280000	98000.730000	55089.135000	70088.085000	34860.285000	67686.660000	98680.860000	8.805823	7.079790	6.684918	5.463346	1.689250	-2.850923	3.413874	12.342971	-2.624720	-0.808780	0.915600	-0.616087	0.179443	0.752256	-1.000000	-1.000000	-1.000000	-1.000000	-1.000000	-1.000000	-1.000000	63.000000	0.000000	-1.000000	-1.000000	1209944.000000	1775724025.779288
99646.920000	77904.180000	98003.475000	55089.045000	70090.380000	34845.660000	67690.035000	98677.305000	6.924597	2.728729	2.710469	1.230270	-5.201090	-6.706610	-1.855860	8.271872	-2.624720	-0.808780	0.915600	-0.616087	0.179443	0.752256	-1.000000	-1.000000	-1.000000	-1.000000	-1.000000	-1.000000	-1.000000	63.000000	0.000000	-1.000000	-1.000000	1209945.000000	1775724025.779301
99638.955000	77896.035000	97996.410000	55076.850000	70094.115000	34876.170000	67688.595000	98671.590000	2.098995	-2.672074	-1.849026	-2.880001	-9.095965	-5.244166	-5.857144	-0.327030	-2.624720	-0.808780	0.915600	-0.616087	0.179443	0.752256	-1.000000	-1.000000	-1.000000	-1.000000	-1.000000	-1.000000	-1.000000	63.000000	0.000000	-1.000000	-1.000000	1209946.000000	1775724025.779312
99632.295000	77889.465000	97988.670000	55067.670000	70087.005000	34889.175000	67687.020000	98667.270000	-3.556018	-6.584470	-4.940845	-5.461062	-8.151620	0.366441	-6.178569	-8.424415	-2.624720	-0.808780	0.915600	-0.616087	0.179443	0.752256	-1.000000	-1.000000	-1.000000	-1.000000	-1.000000	-1.000000	-1.000000	63.000000	0.000000	-1.000000	-1.000000	1209947.000000	1775724025.782000
99620.910000	77882.040000	97977.015000	55065.285000	70068.465000	34883.505000	67682.205000	98655.435000	-7.770841	-7.870027	-6.138317	-6.205741	-4.421178	6.700330	-3.526608	-12.220980	-2.624720	-0.808780	0.915600	-0.616087	0.179443	0.752256	-1.000000	-1.000000	-1.000000	-1.000000	-1.000000	-1.000000	-1.000000	63.000000	0.000000	-1.000000	-1.000000	1209948.000000	1775724025.782025
99651.825000	77910.075000	98011.215000	55092.420000	70087.635000	34869.015000	67696.425000	98679.240000	-8.453615	-5.973552	-5.085386	-4.334644	-0.912083	8.786601	0.136161	-10.480789	-2.624720	-0.808780	0.915600	-0.616087	0.179443	0.752256	-1.000000	-1.000000	-1.000000	-1.000000	-1.000000	-1.000000	-1.000000	63.000000	0.000000	-1.000000	-1.000000	1209949.000000	1775724025.788752
99648.405000	77903.505000	98009.505000	55089.045000	70101.945000	34856.865000	67697.145000	98679.285000	-4.226020	-0.711584	-0.776203	0.795264	2.182945	3.780744	3.571708	-3.795806	-2.624720	-0.808780	0.915600	-0.616087	0.179443	0.752256	-1.000000	-1.000000	-1.000000	-1.000000	-1.000000	-1.000000	-1.000000	63.000000	0.000000	-1.000000	-1.000000	1209950.000000	1775724025.788777
99642.780000	77895.630000	98000.595000	55082.790000	70115.580000	34890.885000	67699.260000	98676.990000	2.860278	5.463118	5.221645	6.780348	6.142906	-4.978996	5.873682	4.789803	-3.021480	0.991900	0.579880	-0.614012	0.180603	0.755674	-1.000000	-1.000000	-1.000000	-1.000000	-1.000000	-1.000000	-1.000000	63.000000	0.000000	-1.000000	-1.000000	1209951.000000	1775724025.802580
99639.720000	77890.635000	97992.990000	55071.225000	70100.595000	34886.610000	67697.055000	98675.415000	7.674441	8.165870	8.201986	8.953888	9.589308	-10.208740	5.907144	10.410450	-3.021480	0.991900	0.579880	-0.614012	0.180603	0.755674	-1.000000	-1.000000	-1.000000	-1.000000	-1.000000	-1.000000	-1.000000	63.000000	0.000000	-1.000000	-1.000000	1209952.000000	1775724025.802604
99642.960000	77892.750000	97993.800000	55068.165000	70091.730000	34872.120000	67698.540000	98678.430000	7.265088	5.813134	5.635013	5.300028	8.826361	-8.755136	3.396596	10.322569	-3.021480	0.991900	0.579880	-0.614012	0.180603	0.755674	-1.000000	-1.000000	-1.000000	-1.000000	-1.000000	-1.000000	-1.000000	63.000000	0.000000	-1.000000	-1.000000	1209953.000000	1775724025.802631
99644.670000	77896.710000	97999.605000	55074.105000	70101.810000	34874.505000	67697.550000	98678.655000	3.201942	1.046353	0.011936	-1.332536	2.785567	-4.173982	-0.434922	5.808960	-3.021480	0.991900	0.579880	-0.614012	0.180603	0.755674	-1.000000	-1.000000	-1.000000	-1.000000	-1.000000	-1.000000	-1.000000	63.000000	0.000000	-1.000000	-1.000000	1209954.000000	1775724025.802643
99647.595000	77900.355000	98003.745000	55076.850000	70113.060000	34882.605000	67697.190000	98680.005000	-1.108027	-2.452719	-4.199842	-6.026331	-4.441341	-0.321274	-3.746628	0.123964	-3.021480	0.991900	0.579880	-0.614012	0.180603	0.755674	-1.000000	-1.000000	-1.000000	-1.000000	-1.000000	-1.000000	-1.000000	63.000000	0.000000	-1.000000	-1.000000	1209955.000000	1775724025.802658
99640.890000	77889.960000	97991.505000	55062.180000	70095.870000	34870.815000	67693.410000	98674.380000	-3.551876	-3.263088	-4.923697	-6.412727	-8.131661	2.067614	-5.323352	-4.152811	-3.021480	0.991900	0.579880	-0.614012	0.180603	0.755674	-1.000000	-1.000000	-1.000000	-1.000000	-1.000000	-1.000000	-1.000000	63.000000	0.000000	-1.000000	-1.000000	1209956.000000	1775724025.802669
99642.195000	77890.635000	97991.460000	55057.500000	70072.110000	34854.885000	67689.810000	98673.075000	-4.097404	-2.587675	-3.515346	-4.169183	-8.293677	2.739524	-5.073771	-6.135396	-3.021480	0.991900	0.579880	-0.614012	0.180603	0.755674	-1.000000	-1.000000	-1.000000	-1.000000	-1.000000	-1.000000	-1.000000	63.000000	0.000000	-1.000000	-1.000000	1209957.000000	1775724025.802682
99646.875000	77896.035000	97996.995000	55062.630000	70082.595000	34859.745000	67690.305000	98674.830000	-3.377823	-1.743902	-1.818058	-1.725017	-7.459244	1.427813	-3.556543	-5.953344	-3.021480	0.991900	0.579880	-0.614012	0.180603	0.755674	-1.000000	-1.000000	-1.000000	-1.000000	-1.000000	-1.000000	-1.000000	63.000000	0.000000	-1.000000	-1.000000	1209958.000000	1775724025.802692
99645.930000	77896.665000	97999.155000	55066.365000	70088.895000	34830.270000	67691.565000	98675.460000	-1.718986	-0.697911	-0.075402	0.528464	-5.481084	-0.781004	-1.285162	-3.972621	-3.021480	0.991900	0.579880	-0.614012	0.180603	0.755674	-1.000000	-1.000000	-1.000000	-1.000000	-1.000000	-1.000000	-1.000000	63.000000	0.000000	-1.000000	-1.000000	1209959.000000	1775724025.812455
99643.050000	77895.270000	97996.950000	55064.925000	70097.445000	34871.670000	67694.940000	98675.190000	0.220382	0.630208	1.753015	2.900195	-0.672877	-1.822096	1.327291	-0.966540	-3.021480	0.991900	0.579880	-0.614012	0.180603	0.755674	-1.000000	-1.000000	-1.000000	-1.000000	-1.000000	-1.000000	-1.000000	63.000000	0.000000	-1.000000	-1.000000	1209960.000000	1775724025.812478
99641.025000	77893.875000	97995.105000	55062.630000	70108.200000	34927.245000	67699.035000	98674.020000	1.376250	1.530797	2.855038	4.596716	6.143062	1.588375	3.702380	1.809318	-2.289000	3.891300	0.167860	-0.614561	0.181274	0.757200	-1.000000	-1.000000	-1.000000	-1.000000	-1.000000	-1.000000	-1.000000	63.000000	0.000000	-1.000000	-1.000000	1209961.000000	1775724025.814083
99639.900000	77892.975000	97993.575000	55059.255000	70102.530000	34890.255000	67696.650000	98672.670000	1.300279	1.400293	2.492830	4.437000	11.541280	9.909176	5.041732	3.269828	-2.289000	3.891300	0.167860	-0.614561	0.181274	0.757200	-1.000000	-1.000000	-1.000000	-1.000000	-1.000000	-1.000000	-1.000000	63.000000	0.000000	-1.000000	-1.000000	1209962.000000	1775724025.814108
99641.385000	77894.910000	97994.970000	55057.905000	70099.065000	34867.080000	67692.870000	98672.355000	0.548681	0.488011	0.989674	2.315996	12.025159	15.161079	4.529731	3.130437	-2.289000	3.891300	0.167860	-0.614561	0.181274	0.757200	-1.000000	-1.000000	-1.000000	-1.000000	-1.000000	-1.000000	-1.000000	63.000000	0.000000	-1.000000	-1.000000	1209963.000000	1775724025.814136
99646.335000	77899.005000	98000.010000	55060.245000	70104.195000	34863.660000	67693.995000	98674.110000	0.112064	-0.329121	-0.472337	-0.516753	6.933062	9.135581	2.101638	1.972858	-2.289000	3.891300	0.167860	-0.614561	0.181274	0.757200	-1.000000	-1.000000	-1.000000	-1.000000	-1.000000	-1.000000	-1.000000	63.000000	0.000000	-1.000000	-1.000000	1209964.000000	1775724025.814149
99644.715000	77895.315000	97996.410000	55053.360000	70093.350000	34856.460000	67694.220000	98674.380000	0.503780	-0.453394	-0.957237	-2.543212	-0.833352	-5.149027	-1.000823	0.724358	-2.289000	3.891300	0.167860	-0.614561	0.181274	0.757200	-1.000000	-1.000000	-1.000000	-1.000000	-1.000000	-1.000000	-1.000000	63.000000	0.000000	-1.000000	-1.000000	1209965.000000	1775724025.828129
99644.040000	77894.505000	97996.320000	55051.605000	70091.910000	34870.320000	67694.535000	98674.605000	1.206678	-0.213701	-0.669277	-3.239353	-7.521757	-17.064750	-3.110325	-0.050420	-2.289000	3.891300	0.167860	-0.614561	0.181274	0.757200	-1.000000	-1.000000	-1.000000	-1.000000	-1.000000	-1.000000	-1.000000	63.000000	0.000000	-1.000000	-1.000000	1209966.000000	1775724025.828152
99640.305000	77888.295000	97990.245000	55045.620000	70102.440000	34927.515000	67697.460000	98673.705000	1.247534	-0.335375	-0.486144	-2.979238	-10.489341	-17.773125	-3.394164	-0.383070	-2.289000	3.891300	0.167860	-0.614561	0.181274	0.757200	-1.000000	-1.000000	-1.000000	-1.000000	-1.000000	-1.000000	-1.000000	63.000000	0.000000	-1.000000	-1.000000	1209967.000000	1775724025.828176
99637.560000	77884.020000	97987.455000	55041.975000	70105.185000	34905.780000	67697.055000	98672.985000	0.242194	-1.078805	-0.910862	-2.234642	-8.535817	-6.300154	-2.127480	-0.571755	-2.289000	3.891300	0.167860	-0.614561	0.181274	0.757200	-1.000000	-1.000000	-1.000000	-1.000000	-1.000000	-1.000000	-1.000000	63.000000	0.000000	-1.000000	-1.000000	1209968.000000	1775724025.828188
99641.160000	77888.205000	97990.380000	55041.255000	70096.410000	34864.830000	67693.725000	98674.155000	-1.184587	-1.875329	-1.553066	-1.214005	-3.126018	7.524456	-0.381081	-0.755887	-2.289000	3.891300	0.167860	-0.614561	0.181274	0.757200	-1.000000	-1.000000	-1.000000	-1.000000	-1.000000	-1.000000	-1.000000	63.000000	0.000000	-1.000000	-1.000000	1209969.000000	1775724025.839549
99644.805000	77890.860000	97992.855000	55040.760000	70091.910000	34852.770000	67691.430000	98674.695000	-1.809167	-1.616433	-1.415594	0.123817	1.951402	11.130983	0.648320	-0.795342	-2.289000	3.891300	0.167860	-0.614561	0.181274	0.757200	-1.000000	-1.000000	-1.000000	-1.000000	-1.000000	-1.000000	-1.000000	63.000000	0.000000	-1.000000	-1.000000	1209970.000000	1775724025.839574
99641.475000	77885.415000	97988.760000	55038.735000	70092.135000	34872.210000	67694.445000	98673.615000	-1.050149	0.008304	-0.130027	1.652339	3.952532	3.320061	0.623512	-0.575561	-1.129240	6.393940	-0.839300	-0.615904	0.185913	0.754820	-1.000000	-1.000000	-1.000000	-1.000000	-1.000000	-1.000000	-1.000000	63.000000	0.000000	-1.000000	-1.000000	1209971.000000	1775724025.839598
99631.260000	77878.485000	97980.030000	55034.775000	70089.165000	34872.165000	67691.475000	98666.280000	0.116990	1.696590	1.245602	2.770578	3.180057	-5.752951	0.190216	-0.378923	-1.129240	6.393940	-0.839300	-0.615904	0.185913	0.754820	-1.000000	-1.000000	-1.000000	-1.000000	-1.000000	-1.000000	-1.000000	63.000000	0.000000	-1.000000	-1.000000	1209972.000000	1775724025.839610
99626.220000	77877.540000	97979.805000	55036.980000	70107.210000	34917.705000	67691.520000	98662.005000	0.174609	1.976048	1.398035	2.914135	1.824043	-6.831458	-0.029359	-0.686704	-1.129240	6.393940	-0.839300	-0.615904	0.185913	0.754820	-1.000000	-1.000000	-1.000000	-1.000000	-1.000000	-1.000000	-1.000000	63.000000	0.000000	-1.000000	-1.000000	1209973.000000	1775724025.839624
99622.710000	77878.395000	97982.190000	55037.520000	70106.670000	34908.930000	67686.615000	98659.305000	-1.026335	0.983667	0.507202	2.236712	1.851731	0.892351	-0.030186	-1.425620	-1.129240	6.393940	-0.839300	-0.615904	0.185913	0.754820	-1.000000	-1.000000	-1.000000	-1.000000	-1.000000	-1.000000	-1.000000	63.000000	0.000000	-1.000000	-1.000000	1209974.000000	1775724025.839634
99629.055000	77884.965000	97990.470000	55042.245000	70107.705000	34896.780000	67689.990000	98666.775000	-1.964384	0.153374	0.058216	1.405029	3.066735	10.097311	-0.005260	-1.639832	-1.129240	6.393940	-0.839300	-0.615904	0.185913	0.754820	-1.000000	-1.000000	-1.000000	-1.000000	-1.000000	-1.000000	-1.000000	63.000000	0.000000	-1.000000	-1.000000	1209975.000000	1775724025.843715
99637.830000	77890.860000	97995.465000	55041.480000	70105.050000	34890.255000	67694.670000	98676.675000	-0.933410	0.616627	1.055996	0.839986	3.407287	11.974873	0.237484	-0.199990	-1.129240	6.393940	-0.839300	-0.615904	0.185913	0.754820	-1.000000	-1.000000	-1.000000	-1.000000	-1.000000	-1.000000	-1.000000	63.000000	0.000000	-1.000000	-1.000000	1209976.000000	1775724025.843737
99645.435000	77892.840000	97996.545000	55039.410000	70108.020000	34897.320000	67706.280000	98685.405000	2.264369	2.105203	2.838543	0.315921	1.630890	4.934984	1.181564	2.919808	-1.129240	6.393940	-0.839300	-0.615904	0.185913	0.754820	-1.000000	-1.000000	-1.000000	-1.000000	-1.000000	-1.000000	-1.000000	63.000000	0.000000	-1.000000	-1.000000	1209977.000000	1775724025.843761
99637.335000	77881.545000	97986.060000	55028.295000	70103.070000	34895.565000	67697.775000	98674.650000	5.607518	2.945751	3.462349	-0.809298	-1.473924	-4.946248	2.569011	5.790990	-1.129240	6.393940	-0.839300	-0.615904	0.185913	0.754820	-1.000000	-1.000000	-1.000000	-1.000000	-1.000000	-1.000000	-1.000000	63.000000	0.000000	-1.000000	-1.000000	1209978.000000	1775724025.843773
99623.520000	77873.310000	97978.950000	55022.535000	70101.405000	34877.250000	67682.970000	98651.565000	5.958377	1.370800	1.373471	-2.822872	-4.300396	-11.342075	2.651656	5.258746	-1.129240	6.393940	-0.839300	-0.615904	0.185913	0.754820	-1.000000	-1.000000	-1.000000	-1.000000	-1.000000	-1.000000	-1.000000	63.000000	0.000000	-1.000000	-1.000000	1209979.000000	1775724025.845500
99611.460000	77871.510000	97975.395000	55019.295000	70094.430000	34865.145000	67678.380000	98638.785000	1.810543	-2.411225	-2.811623	-4.878897	-5.728592	-12.650351	-0.070892	-0.156527	-1.129240	6.393940	-0.839300	-0.615904	0.185913	0.754820	-1.000000	-1.000000	-1.000000	-1.000000	-1.000000	-1.000000	-1.000000	63.000000	0.000000	-1.000000	-1.000000	1209980.000000	1775724025.845523
99627.345000	77885.280000	97990.380000	55028.070000	70101.045000	34894.530000	67693.545000	98657.325000	-4.393510	-5.583011	-6.125490	-5.188539	-5.280212	-9.641050	-3.958340	-7.231443	-1.159760	6.897520	-0.305200	-0.619383	0.190124	0.750303	-1.000000	-1.000000	-1.000000	-1.000000	-1.000000	-1.000000	-1.000000	63.000000	0.000000	-1.000000	-1.000000	1209981.000000	1775724025.850775
99641.610000	77896.845000	98004.555000	55040.670000	70123.410000	34918.155000	67708.260000	98678.835000	-7.449542	-4.952315	-5.364678	-2.357598	-2.477122	-2.101425	-4.988534	-9.512855	-1.159760	6.897520	-0.305200	-0.619383	0.190124	0.750303	-1.000000	-1.000000	-1.000000	-1.000000	-1.000000	-1.000000	-1.000000	63.000000	0.000000	-1.000000	-1.000000	1209982.000000	1775724025.850796
99638.955000	77891.625000	98000.370000	55037.565000	70131.195000	34915.995000	67706.910000	98681.760000	-4.556314	-0.435756	-0.414904	2.854869	2.692418	8.458750	-1.445403	-3.890229	-1.159760	6.897520	-0.305200	-0.619383	0.190124	0.750303	-1.000000	-1.000000	-1.000000	-1.000000	-1.000000	-1.000000	-1.000000	63.000000	0.000000	-1.000000	-1.000000	1209983.000000	1775724025.869229
99630.945000	77872.860000	97979.265000	55014.570000	70111.170000	34898.760000	67697.460000	98677.305000	1.311621	3.988449	4.506137	6.812970	7.605769	15.912339	3.514394	5.343059	-1.159760	6.897520	-0.305200	-0.619383	0.190124	0.750303	-1.000000	-1.000000	-1.000000	-1.000000	-1.000000	-1.000000	-1.000000	63.000000	0.000000	-1.000000	-1.000000	1209984.000000	1775724025.869253
99633.735000	77871.870000	97975.485000	55007.820000	70097.940000	34870.320000	67689.720000	98671.365000	4.922255	4.147622	4.693533	5.734530	7.709499	13.868725	5.142455	10.684206	-1.159760	6.897520	-0.305200	-0.619383	0.190124	0.750303	-1.000000	-1.000000	-1.000000	-1.000000	-1.000000	-1.000000	-1.000000	63.000000	0.000000	-1.000000	-1.000000	1209985.000000	1775724025.869277
99636.660000	77880.555000	97985.070000	55017.900000	70114.995000	34903.755000	67699.035000	98672.445000	4.335014	0.489611	0.402104	0.351228	2.065101	3.108982	2.264233	8.556839	-1.159760	6.897520	-0.305200	-0.619383	0.190124	0.750303	-1.000000	-1.000000	-1.000000	-1.000000	-1.000000	-1.000000	-1.000000	63.000000	0.000000	-1.000000	-1.000000	1209986.000000	1775724025.869288
99640.170000	77884.110000	97988.895000	55023.705000	70123.230000	34921.080000	67715.730000	98687.025000	1.461588	-2.717908	-3.563943	-4.225467	-4.289769	-7.366305	-1.646783	1.721069	-1.159760	6.897520	-0.305200	-0.619383	0.190124	0.750303	-1.000000	-1.000000	-1.000000	-1.000000	-1.000000	-1.000000	-1.000000	63.000000	0.000000	-1.000000	-1.000000	1209987.000000	1775724025.869301
99635.130000	77878.350000	97982.775000	55016.190000	70112.295000	34904.520000	67712.040000	98685.810000	-1.201951	-2.708734	-3.750231	-4.359594	-6.328572	-9.841122	-2.719574	-4.283066	-1.159760	6.897520	-0.305200	-0.619383	0.190124	0.750303	-1.000000	-1.000000	-1.000000	-1.000000	-1.000000	-1.000000	-1.000000	63.000000	0.000000	-1.000000	-1.000000	1209988.000000	1775724025.869311
99632.520000	77877.630000	97983.585000	55014.615000	70111.620000	34901.955000	67704.885000	98677.710000	-2.746956	-0.574240	-1.101835	-1.318843	-4.380952	-5.937391	-1.146190	-6.572864	-1.159760	6.897520	-0.305200	-0.619383	0.190124	0.750303	-1.000000	-1.000000	-1.000000	-1.000000	-1.000000	-1.000000	-1.000000	63.000000	0.000000	-1.000000	-1.000000	1209989.000000	1775724025.869325
99635.535000	77880.510000	97986.375000	55014.615000	70112.970000	34903.305000	67703.490000	98676.900000	-3.266428	1.355645	1.701039	1.596097	-1.520399	-1.655480	0.049499	-6.169024	-1.159760	6.897520	-0.305200	-0.619383	0.190124	0.750303	-1.000000	-1.000000	-1.000000	-1.000000	-1.000000	-1.000000	-1.000000	63.000000	0.000000	-1.000000	-1.000000	1209990.000000	1775724025.869335
99630.180000	77876.505000	97980.930000	55011.465000	70109.055000	34901.055000	67696.245000	98668.755000	-2.811191	2.040018	3.081494	2.640278	0.499222	0.221453	-0.739784	-4.928386	-2.762060	5.814060	-0.442540	-0.623289	0.193908	0.744444	-1.000000	-1.000000	-1.000000	-1.000000	-1.000000	-1.000000	-1.000000	63.000000	0.000000	-1.000000	-1.000000	1209991.000000	1775724025.877437
99625.590000	77872.050000	97977.285000	55007.280000	70105.365000	34895.520000	67695.435000	98665.335000	-1.710685	1.472083	2.622044	1.879479	1.343894	0.220745	-2.590661	-3.605415	-2.762060	5.814060	-0.442540	-0.623289	0.193908	0.744444	-1.000000	-1.000000	-1.000000	-1.000000	-1.000000	-1.000000	-1.000000	63.000000	0.000000	-1.000000	-1.000000	1209992.000000	1775724025.877457
99632.160000	77874.840000	97982.235000	55005.885000	70106.445000	34880.355000	67699.755000	98673.120000	-0.479606	0.116612	0.865894	0.182414	1.256901	-0.672561	-3.542386	-1.916221	-2.762060	5.814060	-0.442540	-0.623289	0.193908	0.744444	-1.000000	-1.000000	-1.000000	-1.000000	-1.000000	-1.000000	-1.000000	63.000000	0.000000	-1.000000	-1.000000	1209993.000000	1775724025.877481
99633.735000	77875.245000	97982.505000	55002.285000	70104.645000	34864.830000	67696.920000	98674.875000	0.941700	-1.012109	-0.734462	-1.361029	0.911316	-2.083131	-2.302391	0.808339	-2.762060	5.814060	-0.442540	-0.623289	0.193908	0.744444	-1.000000	-1.000000	-1.000000	-1.000000	-1.000000	-1.000000	-1.000000	63.000000	0.000000	-1.000000	-1.000000	1209994.000000	1775724025.877491
99633.510000	77874.930000	97983.360000	55002.960000	70113.960000	34884.405000	67698.225000	98673.390000	2.553772	-1.101625	-1.107607	-1.948759	1.026110	-3.009754	0.583935	4.169247	-2.762060	5.814060	-0.442540	-0.623289	0.193908	0.744444	-1.000000	-1.000000	-1.000000	-1.000000	-1.000000	-1.000000	-1.000000	63.000000	0.000000	-1.000000	-1.000000	1209995.000000	1775724025.884800
99631.035000	77874.795000	97983.315000	55004.805000	70120.305000	34921.260000	67709.250000	98673.390000	3.525570	-0.335378	-0.485991	-1.325413	1.986637	-0.633656	3.564552	6.409539	-2.762060	5.814060	-0.442540	-0.623289	0.193908	0.744444	-1.000000	-1.000000	-1.000000	-1.000000	-1.000000	-1.000000	-1.000000	63.000000	0.000000	-1.000000	-1.000000	1209996.000000	1775724025.884822
99634.185000	77879.430000	97986.105000	55002.555000	70111.080000	34879.005000	67704.345000	98675.820000	3.087992	0.612066	0.297180	0.153060	3.178147	5.620024	5.482949	6.221949	-2.762060	5.814060	-0.442540	-0.623289	0.193908	0.744444	-1.000000	-1.000000	-1.000000	-1.000000	-1.000000	-1.000000	-1.000000	63.000000	0.000000	-1.000000	-1.000000	1209997.000000	1775724025.884844
99631.755000	77874.075000	97980.030000	54993.105000	70102.395000	34856.505000	67697.730000	98672.085000	1.494041	1.216619	0.594145	1.402696	2.812115	9.756374	5.331366	3.872035	-2.762060	5.814060	-0.442540	-0.623289	0.193908	0.744444	-1.000000	-1.000000	-1.000000	-1.000000	-1.000000	-1.000000	-1.000000	63.000000	0.000000	-1.000000	-1.000000	1209998.000000	1775724025.884855
99623.430000	77864.670000	97971.930000	54989.235000	70121.295000	34910.865000	67697.010000	98665.920000	-0.548117	0.891432	-0.059422	1.270360	0.331737	7.021551	2.595458	0.428599	-2.762060	5.814060	-0.442540	-0.623289	0.193908	0.744444	-1.000000	-1.000000	-1.000000	-1.000000	-1.000000	-1.000000	-1.000000	63.000000	0.000000	-1.000000	-1.000000	1209999.000000	1775724025.900280
99614.205000	77856.570000	97963.920000	54986.580000	70135.065000	34942.365000	67695.345000	98659.080000	-2.682940	-0.781895	-1.733922	-0.160016	-1.778538	2.529500	-1.458963	-3.061453	-2.762060	5.814060	-0.442540	-0.623289	0.193908	0.744444	-1.000000	-1.000000	-1.000000	-1.000000	-1.000000	-1.000000	-1.000000	63.000000	0.000000	-1.000000	-1.000000	1210000.000000	1775724025.900305
99624.735000	77866.650000	97973.010000	54992.250000	70133.715000	34920.135000	67700.880000	98668.305000	-4.226727	-2.841982	-3.343755	-1.411038	-1.208798	2.371743	-4.396228	-5.321640	-4.043900	5.264700	-0.732480	-0.628111	0.195983	0.739439	-1.000000	-1.000000	-1.000000	-1.000000	-1.000000	-1.000000	-1.000000	63.000000	0.000000	-1.000000	-1.000000	1210001.000000	1775724025.900331
99634.095000	77875.470000	97983.405000	54996.030000	70134.435000	34913.655000	67705.110000	98675.145000	-3.581740	-2.990843	-2.851805	-0.998180	0.753721	3.400570	-4.512846	-4.840140	-4.043900	5.264700	-0.732480	-0.628111	0.195983	0.739439	-1.000000	-1.000000	-1.000000	-1.000000	-1.000000	-1.000000	-1.000000	63.000000	0.000000	-1.000000	-1.000000	1210002.000000	1775724025.900343
99632.430000	77875.875000	97983.180000	54990.990000	70128.180000	34906.770000	67702.320000	98672.985000	-0.167480	-0.167009	0.495533	0.960706	1.181688	-0.181352	-2.099705	-1.500174	-4.043900	5.264700	-0.732480	-0.628111	0.195983	0.739439	-1.000000	-1.000000	-1.000000	-1.000000	-1.000000	-1.000000	-1.000000	63.000000	0.000000	-1.000000	-1.000000	1210003.000000	1775724025.900357
99627.255000	77874.210000	97980.480000	54988.245000	70125.300000	34902.450000	67697.505000	98667.405000	3.765046	3.644295	4.514145	2.645351	-1.009628	-7.800747	0.717959	2.337740	-4.043900	5.264700	-0.732480	-0.628111	0.195983	0.739439	-1.000000	-1.000000	-1.000000	-1.000000	-1.000000	-1.000000	-1.000000	63.000000	0.000000	-1.000000	-1.000000	1210004.000000	1775724025.900368
99627.615000	77873.355000	97980.345000	54985.590000	70121.520000	34899.210000	67699.080000	98669.295000	5.151550	5.361781	6.046315	2.457502	-4.395381	-14.144924	1.912583	3.916196	-4.043900	5.264700	-0.732480	-0.628111	0.195983	0.739439	-1.000000	-1.000000	-1.000000	-1.000000	-1.000000	-1.000000	-1.000000	63.000000	0.000000	-1.000000	-1.000000	1210005.000000	1775724025.900382
99629.100000	77874.660000	97983.495000	54988.965000	70119.180000	34887.150000	67698.225000	98670.465000	3.329036	3.847294	4.156378	0.661950	-6.568152	-15.044244	1.320572	2.788946	-4.043900	5.264700	-0.732480	-0.628111	0.195983	0.739439	-1.000000	-1.000000	-1.000000	-1.000000	-1.000000	-1.000000	-1.000000	63.000000	0.000000	-1.000000	-1.000000	1210006.000000	1775724025.900392
99627.885000	77871.510000	97979.625000	54986.715000	70121.745000	34881.300000	67697.685000	98669.700000	0.102323	0.379279	0.443637	-1.200577	-5.934983	-10.359013	0.120940	0.542706	-4.043900	5.264700	-0.732480	-0.628111	0.195983	0.739439	-1.000000	-1.000000	-1.000000	-1.000000	-1.000000	-1.000000	-1.000000	63.000000	0.000000	-1.000000	-1.000000	1210007.000000	1775724025.916306
99621.180000	77860.440000	97966.035000	54973.620000	70121.295000	34881.075000	67699.395000	98666.505000	-2.585499	-3.172801	-3.222826	-2.242088	-2.547751	-2.689688	-0.628107	-1.302634	-4.043900	5.264700	-0.732480	-0.628111	0.195983	0.739439	-1.000000	-1.000000	-1.000000	-1.000000	-1.000000	-1.000000	-1.000000	63.000000	0.000000	-1.000000	-1.000000	1210008.000000	1775724025.916332
99633.600000	77876.460000	97981.020000	54985.770000	70141.455000	34891.290000	67706.010000	98674.785000	-3.734272	-5.333330	-5.631950	-2.579326	2.361372	5.323834	-0.435412	-2.069599	-4.043900	5.264700	-0.732480	-0.628111	0.195983	0.739439	-1.000000	-1.000000	-1.000000	-1.000000	-1.000000	-1.000000	-1.000000	63.000000	0.000000	-1.000000	-1.000000	1210009.000000	1775724025.916357
99641.115000	77885.235000	97991.550000	54992.520000	70144.380000	34894.980000	67707.720000	98678.250000	-2.704941	-4.604742	-5.264339	-1.786053	7.247005	11.854063	0.646747	-1.454469	-4.043900	5.264700	-0.732480	-0.628111	0.195983	0.739439	-1.000000	-1.000000	-1.000000	-1.000000	-1.000000	-1.000000	-1.000000	63.000000	0.000000	-1.000000	-1.000000	1210010.000000	1775724025.916369
99629.550000	77872.770000	97980.795000	54978.615000	70118.865000	34886.610000	67704.705000	98671.230000	-0.005982	-1.049216	-1.754321	0.313121	9.624672	15.023972	1.782297	0.068120	-3.402980	2.990960	-1.739640	-0.630369	0.191650	0.738462	-1.000000	-1.000000	-1.000000	-1.000000	-1.000000	-1.000000	-1.000000	63.000000	0.000000	-1.000000	-1.000000	1210011.000000	1775724025.916383
99630.630000	77872.680000	97980.210000	54977.895000	70118.685000	34874.370000	67703.400000	98672.715000	2.032239	2.401414	2.205348	1.968053	6.780979	12.956718	1.778786	1.054182	-3.402980	2.990960	-1.739640	-0.630369	0.191650	0.738462	-1.000000	-1.000000	-1.000000	-1.000000	-1.000000	-1.000000	-1.000000	63.000000	0.000000	-1.000000	-1.000000	1210012.000000	1775724025.916394
99622.620000	77865.480000	97976.250000	54981.450000	70158.735000	34976.835000	67706.685000	98667.720000	1.637714	3.000876	3.574325	1.731213	0.444829	7.710008	0.398707	0.609834	-3.402980	2.990960	-1.739640	-0.630369	0.191650	0.738462	-1.000000	-1.000000	-1.000000	-1.000000	-1.000000	-1.000000	-1.000000	63.000000	0.000000	-1.000000	-1.000000	1210013.000000	1775724025.916407
99620.955000	77863.995000	97976.070000	54981.540000	70156.035000	34956.135000	67704.435000	98668.935000	-0.608105	0.935993	2.106533	0.489905	-3.396003	5.337484	-1.329266	-0.731559	-3.402980	2.990960	-1.739640	-0.630369	0.191650	0.738462	-1.000000	-1.000000	-1.000000	-1.000000	-1.000000	-1.000000	-1.000000	63.000000	0.000000	-1.000000	-1.000000	1210014.000000	1775724025.916417
99620.505000	77859.090000	97969.680000	54971.460000	70138.575000	34916.715000	67700.880000	98672.085000	-2.766523	-1.717178	-0.426333	-0.482339	-2.710458	5.277938	-2.403451	-1.711247	-3.402980	2.990960	-1.739640	-0.630369	0.191650	0.738462	-1.000000	-1.000000	-1.000000	-1.000000	-1.000000	-1.000000	-1.000000	63.000000	0.000000	-1.000000	-1.000000	1210015.000000	1775724025.922160
99614.385000	77853.780000	97962.840000	54959.085000	70117.740000	34876.755000	67691.475000	98665.245000	-3.256720	-3.117426	-2.400780	-1.352549	-1.900370	-1.056858	-2.781267	-1.517931	-3.402980	2.990960	-1.739640	-0.630369	0.191650	0.738462	-1.000000	-1.000000	-1.000000	-1.000000	-1.000000	-1.000000	-1.000000	63.000000	0.000000	-1.000000	-1.000000	1210016.000000	1775724025.922180
99607.635000	77853.240000	97962.120000	54957.960000	70123.005000	34866.990000	67688.730000	98648.505000	-2.063693	-2.677780	-3.105412	-2.559548	-4.303121	-15.791426	-2.850140	-0.854975	-3.402980	2.990960	-1.739640	-0.630369	0.191650	0.738462	-1.000000	-1.000000	-1.000000	-1.000000	-1.000000	-1.000000	-1.000000	63.000000	0.000000	-1.000000	-1.000000	1210017.000000	1775724025.931884
99600.885000	77853.195000	97961.715000	54957.330000	70134.030000	34897.635000	67687.470000	98635.995000	-0.372431	-0.755050	-2.289042	-3.224730	-7.263754	-28.531271	-2.479541	-1.234033	-3.402980	2.990960	-1.739640	-0.630369	0.191650	0.738462	-1.000000	-1.000000	-1.000000	-1.000000	-1.000000	-1.000000	-1.000000	63.000000	0.000000	-1.000000	-1.000000	1210018.000000	1775724025.931906
99607.185000	77865.120000	97973.775000	54967.770000	70150.320000	34959.195000	67698.540000	98644.185000	1.041637	2.034535	0.080760	-1.867370	-5.945224	-26.002951	-0.934440	-2.476390	-3.402980	2.990960	-1.739640	-0.630369	0.191650	0.738462	-1.000000	-1.000000	-1.000000	-1.000000	-1.000000	-1.000000	-1.000000	63.000000	0.000000	-1.000000	-1.000000	1210019.000000	1775724025.931931
99623.115000	77880.690000	97990.470000	54982.260000	70163.010000	34955.370000	67716.405000	98671.005000	2.721765	5.196486	3.726906	1.952093	0.723537	-5.665967	2.392857	-1.799677	-3.402980	2.990960	-1.739640	-0.630369	0.191650	0.738462	-1.000000	-1.000000	-1.000000	-1.000000	-1.000000	-1.000000	-1.000000	63.000000	0.000000	-1.000000	-1.000000	1210020.000000	1775724025.931943
99634.185000	77885.010000	97995.870000	54985.140000	70162.560000	34931.205000	67728.330000	98695.710000	5.421710	7.893350	7.552786	6.776073	8.769587	18.976213	6.923009	3.285995	-0.106820	1.144500	-0.961380	-0.627379	0.184509	0.740843	-1.000000	-1.000000	-1.000000	-1.000000	-1.000000	-1.000000	-1.000000	63.000000	0.000000	-1.000000	-1.000000	1210021.000000	1775724025.933369
99632.880000	77872.680000	97982.370000	54968.490000	70147.890000	34917.210000	67725.405000	98701.560000	8.044750	8.112200	8.972324	9.249940	12.314490	29.767465	10.144650	10.966679	-0.106820	1.144500	-0.961380	-0.627379	0.184509	0.740843	-1.000000	-1.000000	-1.000000	-1.000000	-1.000000	-1.000000	-1.000000	63.000000	0.000000	-1.000000	-1.000000	1210022.000000	1775724025.933383
99622.755000	77859.630000	97969.815000	54956.340000	70143.840000	34929.585000	67717.080000	98684.055000	7.720188	3.801917	5.324853	6.234918	8.213447	21.157151	8.823790	15.030645	-0.106820	1.144500	-0.961380	-0.627379	0.184509	0.740843	-1.000000	-1.000000	-1.000000	-1.000000	-1.000000	-1.000000	-1.000000	63.000000	0.000000	-1.000000	-1.000000	1210023.000000	1775724025.943781
99614.880000	77857.785000	97969.995000	54957.960000	70146.405000	34930.800000	67710.870000	98671.140000	2.701068	-4.172539	-2.725350	-1.515344	-0.975581	2.968570	2.075544	10.082321	-0.106820	1.144500	-0.961380	-0.627379	0.184509	0.740843	-1.000000	-1.000000	-1.000000	-1.000000	-1.000000	-1.000000	-1.000000	63.000000	0.000000	-1.000000	-1.000000	1210024.000000	1775724025.943803
99613.935000	77860.080000	97969.995000	54958.455000	70141.860000	34918.200000	67706.955000	98668.035000	-5.132374	-11.331045	-10.437216	-8.949914	-9.126355	-11.830262	-7.042024	-2.633232	-0.106820	1.144500	-0.961380	-0.627379	0.184509	0.740843	-1.000000	-1.000000	-1.000000	-1.000000	-1.000000	-1.000000	-1.000000	63.000000	0.000000	-1.000000	-1.000000	1210025.000000	1775724025.943828
99613.980000	77862.690000	97971.435000	54957.060000	70139.385000	34914.690000	67706.910000	98667.720000	-11.260212	-13.049951	-12.923594	-11.247736	-11.867979	-17.407556	-13.527148	-15.453633	-0.106820	1.144500	-0.961380	-0.627379	0.184509	0.740843	-1.000000	-1.000000	-1.000000	-1.000000	-1.000000	-1.000000	-1.000000	63.000000	0.000000	-1.000000	-1.000000	1210026.000000	1775724025.943839
99612.765000	77863.860000	97975.260000	54954.450000	70138.800000	34911.990000	67707.045000	98668.035000	-12.169796	-8.423102	-9.047758	-7.787840	-9.003905	-14.766157	-13.975912	-20.683352	-0.106820	1.144500	-0.961380	-0.627379	0.184509	0.740843	-1.000000	-1.000000	-1.000000	-1.000000	-1.000000	-1.000000	-1.000000	63.000000	0.000000	-1.000000	-1.000000	1210027.000000	1775724025.945309
99620.730000	77864.580000	97979.220000	54957.555000	70147.935000	34899.030000	67713.930000	98676.990000	-7.696419	-0.518888	-1.423102	-1.457066	-2.846633	-7.631646	-8.453685	-16.001771	-0.106820	1.144500	-0.961380	-0.627379	0.184509	0.740843	-1.000000	-1.000000	-1.000000	-1.000000	-1.000000	-1.000000	-1.000000	63.000000	0.000000	-1.000000	-1.000000	1210028.000000	1775724025.945326
99622.440000	77862.645000	97979.580000	54960.255000	70155.495000	34897.005000	67719.510000	98679.285000	-0.359125	6.298733	5.892510	4.385742	3.965714	-0.081574	0.183423	-4.705058	-0.106820	1.144500	-0.961380	-0.627379	0.184509	0.740843	-1.000000	-1.000000	-1.000000	-1.000000	-1.000000	-1.000000	-1.000000	63.000000	0.000000	-1.000000	-1.000000	1210029.000000	1775724025.953856
99612.045000	77853.105000	97969.590000	54948.780000	70132.320000	34903.665000	67716.180000	98671.770000	6.112565	8.966727	9.464369	7.460631	8.633738	5.455731	7.944212	6.946340	-0.106820	1.144500	-0.961380	-0.627379	0.184509	0.740843	-1.000000	-1.000000	-1.000000	-1.000000	-1.000000	-1.000000	-1.000000	63.000000	0.000000	-1.000000	-1.000000	1210030.000000	1775724025.953880
99601.470000	77844.195000	97959.915000	54943.920000	70148.655000	34942.995000	67709.205000	98661.285000	8.324631	6.822172	7.809718	6.674897	8.784231	9.465753	11.299072	13.105100	0.213640	-0.396760	-0.625660	-0.622618	0.180297	0.744993	-1.000000	-1.000000	-1.000000	-1.000000	-1.000000	-1.000000	-1.000000	63.000000	0.000000	-1.000000	-1.000000	1210031.000000	1775724025.953907
99610.695000	77855.130000	97972.560000	54953.145000	70161.210000	34920.945000	67707.225000	98667.540000	5.752846	1.942956	2.555094	3.015206	5.399389	12.837000	9.048309	11.867912	0.213640	-0.396760	-0.625660	-0.622618	0.180297	0.744993	-1.000000	-1.000000	-1.000000	-1.000000	-1.000000	-1.000000	-1.000000	63.000000	0.000000	-1.000000	-1.000000	1210032.000000	1775724025.953918
99610.200000	77855.445000	97971.885000	54951.885000	70157.655000	34924.230000	67703.175000	98664.120000	1.476443	-1.904455	-2.210111	-0.567803	1.953884	13.259950	3.194397	6.169078	0.213640	-0.396760	-0.625660	-0.622618	0.180297	0.744993	-1.000000	-1.000000	-1.000000	-1.000000	-1.000000	-1.000000	-1.000000	63.000000	0.000000	-1.000000	-1.000000	1210033.000000	1775724025.956356
99612.630000	77856.210000	97974.630000	54951.480000	70166.745000	34963.335000	67712.985000	98668.440000	-1.102561	-2.466581	-3.570299	-1.992554	-0.016695	8.808385	-2.462260	0.510580	0.213640	-0.396760	-0.625660	-0.622618	0.180297	0.744993	-1.000000	-1.000000	-1.000000	-1.000000	-1.000000	-1.000000	-1.000000	63.000000	0.000000	-1.000000	-1.000000	1210034.000000	1775724025.956378
99616.545000	77858.775000	97977.510000	54948.735000	70167.240000	34947.945000	67714.830000	98673.840000	-1.138321	-0.634993	-1.955102	-1.655757	-1.151889	2.157033	-4.802989	-2.382732	0.213640	-0.396760	-0.625660	-0.622618	0.180297	0.744993	-1.000000	-1.000000	-1.000000	-1.000000	-1.000000	-1.000000	-1.000000	63.000000	0.000000	-1.000000	-1.000000	1210035.000000	1775724025.960521
99617.580000	77859.225000	97978.185000	54946.710000	70165.620000	34946.235000	67715.055000	98675.910000	0.225357	1.400245	0.482294	-0.992147	-2.211995	-3.990690	-3.412319	-2.229543	0.213640	-0.396760	-0.625660	-0.622618	0.180297	0.744993	-1.000000	-1.000000	-1.000000	-1.000000	-1.000000	-1.000000	-1.000000	63.000000	0.000000	-1.000000	-1.000000	1210036.000000	1775724025.960541
99617.715000	77858.055000	97976.880000	54942.795000	70155.000000	34927.830000	67714.470000	98676.180000	1.374224	2.107962	1.861697	-0.877158	-3.700234	-9.699904	-0.488959	-0.572596	0.213640	-0.396760	-0.625660	-0.622618	0.180297	0.744993	-1.000000	-1.000000	-1.000000	-1.000000	-1.000000	-1.000000	-1.000000	63.000000	0.000000	-1.000000	-1.000000	1210037.000000	1775724025.962715
99611.415000	77852.790000	97970.670000	54938.340000	70145.820000	34902.720000	67709.115000	98668.080000	1.139532	1.059283	1.327526	-1.327709	-5.681006	-14.898620	1.385513	0.439210	0.213640	-0.396760	-0.625660	-0.622618	0.180297	0.744993	-1.000000	-1.000000	-1.000000	-1.000000	-1.000000	-1.000000	-1.000000	63.000000	0.000000	-1.000000	-1.000000	1210038.000000	1775724025.962737
99609.840000	77849.595000	97968.645000	54935.955000	70153.335000	34918.965000	67710.330000	98667.225000	-0.634868	-1.207339	-0.770760	-1.847529	-7.064822	-17.579792	1.154505	-0.406246	0.213640	-0.396760	-0.625660	-0.622618	0.180297	0.744993	-1.000000	-1.000000	-1.000000	-1.000000	-1.000000	-1.000000	-1.000000	63.000000	0.000000	-1.000000	-1.000000	1210039.000000	1775724025.970429
99611.370000	77849.100000	97969.005000	54934.740000	70166.430000	34936.290000	67711.635000	98669.565000	-2.858150	-3.423818	-3.025074	-1.812814	-5.691372	-14.088033	-0.340442	-2.383389	0.213640	-0.396760	-0.625660	-0.622618	0.180297	0.744993	-1.000000	-1.000000	-1.000000	-1.000000	-1.000000	-1.000000	-1.000000	63.000000	0.000000	-1.000000	-1.000000	1210040.000000	1775724025.970454
99614.655000	77853.240000	97970.670000	54935.370000	70169.580000	34938.945000	67709.970000	98670.735000	-3.829433	-4.126914	-3.786623	-0.859229	-0.620967	-3.161749	-1.510346	-3.548247	-1.373400	-1.220800	-0.473060	-0.616881	0.177978	0.750181	-1.000000	-1.000000	-1.000000	-1.000000	-1.000000	-1.000000	-1.000000	63.000000	0.000000	-1.000000	-1.000000	1210041.000000	1775724025.970479
99617.760000	77856.120000	97971.255000	54934.560000	70158.555000	34921.710000	67712.130000	98673.210000	-2.654877	-2.598343	-2.426320	0.794298	5.564455	9.961932	-1.541840	-2.732192	-1.373400	-1.220800	-0.473060	-0.616881	0.177978	0.750181	-1.000000	-1.000000	-1.000000	-1.000000	-1.000000	-1.000000	-1.000000	63.000000	0.000000	-1.000000	-1.000000	1210042.000000	1775724025.970490
99611.190000	77851.620000	97965.765000	54930.240000	70153.470000	34908.120000	67706.730000	98665.470000	-0.147225	0.334146	0.109954	2.320332	8.456887	16.971770	-0.723600	-0.584819	-1.373400	-1.220800	-0.473060	-0.616881	0.177978	0.750181	-1.000000	-1.000000	-1.000000	-1.000000	-1.000000	-1.000000	-1.000000	63.000000	0.000000	-1.000000	-1.000000	1210043.000000	1775724025.975600
99611.460000	77852.610000	97969.545000	54930.060000	70168.095000	34935.210000	67709.880000	98666.145000	1.824317	2.747110	2.181971	2.815458	6.517915	14.737711	0.181397	1.218307	-1.373400	-1.220800	-0.473060	-0.616881	0.177978	0.750181	-1.000000	-1.000000	-1.000000	-1.000000	-1.000000	-1.000000	-1.000000	63.000000	0.000000	-1.000000	-1.000000	1210044.000000	1775724025.975625
99607.455000	77849.595000	97967.430000	54926.595000	70170.885000	34945.380000	67710.960000	98665.515000	2.091379	3.293113	2.932650	2.075847	2.545416	8.049700	0.778756	1.726392	-1.373400	-1.220800	-0.473060	-0.616881	0.177978	0.750181	-1.000000	-1.000000	-1.000000	-1.000000	-1.000000	-1.000000	-1.000000	63.000000	0.000000	-1.000000	-1.000000	1210045.000000	1775724025.978744
99606.600000	77849.910000	97966.710000	54926.145000	70169.220000	34936.155000	67712.085000	98665.785000	0.992815	2.109538	2.511093	0.664745	-0.287420	2.706074	1.180134	1.349624	-1.373400	-1.220800	-0.473060	-0.616881	0.177978	0.750181	-1.000000	-1.000000	-1.000000	-1.000000	-1.000000	-1.000000	-1.000000	63.000000	0.000000	-1.000000	-1.000000	1210046.000000	1775724025.978767
99607.095000	77853.240000	97969.860000	54929.385000	70174.755000	34938.720000	67715.910000	98667.720000	-0.323513	0.351455	1.457265	-0.543542	-1.445697	-0.531968	1.468042	0.912126	-1.373400	-1.220800	-0.473060	-0.616881	0.177978	0.750181	-1.000000	-1.000000	-1.000000	-1.000000	-1.000000	-1.000000	-1.000000	63.000000	0.000000	-1.000000	-1.000000	1210047.000000	1775724025.983996
99607.095000	77853.375000	97970.850000	54928.845000	70177.320000	34943.220000	67719.555000	98670.780000	-0.848483	-0.754007	0.455000	-0.869041	-1.693432	-3.187020	1.605874	0.879968	-1.373400	-1.220800	-0.473060	-0.616881	0.177978	0.750181	-1.000000	-1.000000	-1.000000	-1.000000	-1.000000	-1.000000	-1.000000	63.000000	0.000000	-1.000000	-1.000000	1210048.000000	1775724025.984020
