Channel1	Channel2	Channel3	Channel4	Channel5	Channel6	Channel7	Channel8	FilteredChannel1	FilteredChannel2	FilteredChannel3	FilteredChannel4	FilteredChannel5	FilteredChannel6	FilteredChannel7	FilteredChannel8	GyroX	GyroY	GyroZ	AccX	AccY	AccZ	PPG1	PPG2	rawPPG1	rawPPG2	rawPPG3	Hr	Hrv	Battery	Trigger	PhysicalTrigger	AutoTrigger	NumMeasurements	Timestamp
92599.560000	27208.125000	88081.380000	19456.470000	24775.875000	26004.960000	53434.530000	81350.505000	-2.932957	-0.958855	-1.759928	-1.946552	1.810162	3.575217	-3.647537	-9.642835	-2.517900	0.289940	1.144500	-0.763243	0.034668	0.633238	-1.000000	-1.000000	-1.000000	-1.000000	-1.000000	-1.000000	-1.000000	65.000000	0.000000	-1.000000	-1.000000	699134.000000	1775723002.859086
92607.750000	27217.980000	88090.875000	19468.485000	24782.715000	26019.360000	53434.440000	81355.185000	-2.314824	1.379579	1.513105	2.220510	5.494046	3.767950	-1.045787	-8.774214	-2.517900	0.289940	1.144500	-0.763243	0.034668	0.633238	-1.000000	-1.000000	-1.000000	-1.000000	-1.000000	-1.000000	-1.000000	65.000000	0.000000	-1.000000	-1.000000	699135.000000	1775723002.859108
92608.335000	27219.105000	88091.595000	19469.745000	24782.535000	26005.680000	53429.895000	81354.555000	-0.035846	3.720665	4.583004	5.576975	7.342111	4.411493	2.096873	-3.646519	-2.517900	0.289940	1.144500	-0.763243	0.034668	0.633238	-1.000000	-1.000000	-1.000000	-1.000000	-1.000000	-1.000000	-1.000000	65.000000	0.000000	-1.000000	-1.000000	699136.000000	1775723002.859118
92594.160000	27207.225000	88075.710000	19460.790000	24772.365000	25989.570000	53417.520000	81343.980000	2.585749	5.295645	6.160987	6.837324	6.541418	3.809411	3.570218	2.249574	-2.517900	0.289940	1.144500	-0.763243	0.034668	0.633238	-1.000000	-1.000000	-1.000000	-1.000000	-1.000000	-1.000000	-1.000000	65.000000	0.000000	-1.000000	-1.000000	699137.000000	1775723002.864423
92594.205000	27203.130000	88075.260000	19464.255000	24777.765000	26026.020000	53419.410000	81344.565000	3.179938	4.453832	4.630763	4.978976	3.103544	0.780727	2.439684	5.320487	-2.517900	0.289940	1.144500	-0.763243	0.034668	0.633238	-1.000000	-1.000000	-1.000000	-1.000000	-1.000000	-1.000000	-1.000000	65.000000	0.000000	-1.000000	-1.000000	699138.000000	1775723002.864439
92608.110000	27215.685000	88091.145000	19479.285000	24783.570000	26011.665000	53415.000000	81354.735000	1.571287	1.299808	0.843557	1.168462	-1.220804	-2.141113	-0.053244	4.957042	-2.517900	0.289940	1.144500	-0.763243	0.034668	0.633238	-1.000000	-1.000000	-1.000000	-1.000000	-1.000000	-1.000000	-1.000000	65.000000	0.000000	-1.000000	-1.000000	699139.000000	1775723002.879746
92624.805000	27231.390000	88109.415000	19498.320000	24799.005000	26007.075000	53421.030000	81367.695000	0.437427	-1.300697	-1.564244	-1.365736	-3.648076	-2.993306	-1.686610	3.559151	-2.517900	0.289940	1.144500	-0.763243	0.034668	0.633238	-1.000000	-1.000000	-1.000000	-1.000000	-1.000000	-1.000000	-1.000000	65.000000	0.000000	-1.000000	-1.000000	699140.000000	1775723002.879766
92631.015000	27234.180000	88115.670000	19506.870000	24806.970000	26011.530000	53422.425000	81372.555000	1.726280	-0.978906	-0.299760	-0.690150	-2.802132	-2.997204	-1.225804	3.280964	0.381500	2.014320	0.350980	-0.763121	0.035461	0.630736	-1.000000	-1.000000	-1.000000	-1.000000	-1.000000	-1.000000	-1.000000	65.000000	0.000000	-1.000000	-1.000000	699141.000000	1775723002.879786
92617.920000	27217.485000	88097.445000	19484.955000	24777.540000	25998.030000	53408.430000	81361.980000	3.727464	0.828491	2.377918	1.176277	-0.596039	-3.240930	0.536383	3.459560	0.381500	2.014320	0.350980	-0.763121	0.035461	0.630736	-1.000000	-1.000000	-1.000000	-1.000000	-1.000000	-1.000000	-1.000000	65.000000	0.000000	-1.000000	-1.000000	699142.000000	1775723002.879794
92609.730000	27209.610000	88091.235000	19484.910000	24765.030000	25969.095000	53404.425000	81356.760000	2.831919	0.475690	2.004539	0.261551	-1.039816	-4.123007	1.404628	1.762690	0.381500	2.014320	0.350980	-0.763121	0.035461	0.630736	-1.000000	-1.000000	-1.000000	-1.000000	-1.000000	-1.000000	-1.000000	65.000000	0.000000	-1.000000	-1.000000	699143.000000	1775723002.879805
92621.565000	27225.360000	88110.810000	19514.790000	24796.305000	25995.420000	53413.695000	81364.725000	-1.697947	-2.785576	-2.217011	-3.574867	-4.595944	-5.348712	0.546025	-2.202081	0.381500	2.014320	0.350980	-0.763121	0.035461	0.630736	-1.000000	-1.000000	-1.000000	-1.000000	-1.000000	-1.000000	-1.000000	65.000000	0.000000	-1.000000	-1.000000	699144.000000	1775723002.879813
92611.485000	27214.290000	88099.920000	19506.285000	24807.960000	26062.290000	53413.605000	81359.235000	-6.486202	-5.707151	-6.306560	-5.994898	-6.135774	-3.122764	-0.418147	-5.888706	0.381500	2.014320	0.350980	-0.763121	0.035461	0.630736	-1.000000	-1.000000	-1.000000	-1.000000	-1.000000	-1.000000	-1.000000	65.000000	0.000000	-1.000000	-1.000000	699145.000000	1775723002.879823
92606.310000	27211.185000	88093.530000	19499.310000	24796.935000	26064.945000	53405.640000	81359.280000	-8.349266	-5.792364	-7.208479	-4.909501	-2.367919	6.089255	-0.251965	-6.923230	0.381500	2.014320	0.350980	-0.763121	0.035461	0.630736	-1.000000	-1.000000	-1.000000	-1.000000	-1.000000	-1.000000	-1.000000	65.000000	0.000000	-1.000000	-1.000000	699146.000000	1775723002.879830
92607.885000	27216.945000	88095.510000	19504.305000	24783.165000	26031.420000	53398.485000	81360.945000	-6.935250	-3.497718	-5.474130	-2.523530	2.963546	16.561623	0.116002	-5.130789	0.381500	2.014320	0.350980	-0.763121	0.035461	0.630736	-1.000000	-1.000000	-1.000000	-1.000000	-1.000000	-1.000000	-1.000000	65.000000	0.000000	-1.000000	-1.000000	699147.000000	1775723002.895438
92607.345000	27211.320000	88095.915000	19505.970000	24784.560000	26030.880000	53399.340000	81363.105000	-3.241821	-0.160045	-2.447258	-0.695052	4.541913	17.027342	-0.419622	-1.643270	0.381500	2.014320	0.350980	-0.763121	0.035461	0.630736	-1.000000	-1.000000	-1.000000	-1.000000	-1.000000	-1.000000	-1.000000	65.000000	0.000000	-1.000000	-1.000000	699148.000000	1775723002.895456
92607.975000	27212.175000	88098.030000	19511.280000	24792.255000	26035.470000	53398.305000	81365.175000	1.357716	2.858315	1.076132	0.732138	2.101376	5.038498	-1.329854	2.060608	0.381500	2.014320	0.350980	-0.763121	0.035461	0.630736	-1.000000	-1.000000	-1.000000	-1.000000	-1.000000	-1.000000	-1.000000	65.000000	0.000000	-1.000000	-1.000000	699149.000000	1775723002.895478
92608.605000	27212.670000	88097.985000	19511.955000	24797.295000	26036.640000	53396.415000	81366.750000	5.207657	4.435271	4.171857	2.136646	-0.606424	-10.357664	-1.459584	4.614770	0.381500	2.014320	0.350980	-0.763121	0.035461	0.630736	-1.000000	-1.000000	-1.000000	-1.000000	-1.000000	-1.000000	-1.000000	65.000000	0.000000	-1.000000	-1.000000	699150.000000	1775723002.895487
92613.510000	27219.420000	88106.760000	19525.860000	24799.995000	26016.705000	53392.590000	81369.765000	7.118181	4.516574	5.971456	3.411023	-0.870885	-19.491400	-0.623459	5.282096	-0.183120	4.715340	-0.549360	-0.766600	0.038208	0.627257	-1.000000	-1.000000	-1.000000	-1.000000	-1.000000	-1.000000	-1.000000	65.000000	0.000000	-1.000000	-1.000000	699151.000000	1775723002.895497
92617.470000	27222.345000	88109.775000	19533.015000	24801.300000	26009.820000	53391.690000	81372.105000	6.931259	3.832467	6.244763	4.414489	0.805834	-19.697794	0.462413	4.204949	-0.183120	4.715340	-0.549360	-0.766600	0.038208	0.627257	-1.000000	-1.000000	-1.000000	-1.000000	-1.000000	-1.000000	-1.000000	65.000000	0.000000	-1.000000	-1.000000	699152.000000	1775723002.895505
92616.885000	27216.360000	88102.395000	19526.130000	24791.535000	26000.055000	53386.695000	81369.675000	5.135421	2.724642	4.968243	4.605511	2.147843	-13.520073	1.103255	2.055085	-0.183120	4.715340	-0.549360	-0.766600	0.038208	0.627257	-1.000000	-1.000000	-1.000000	-1.000000	-1.000000	-1.000000	-1.000000	65.000000	0.000000	-1.000000	-1.000000	699153.000000	1775723002.909751
92613.600000	27215.595000	88099.200000	19531.260000	24799.860000	26021.025000	53383.680000	81365.400000	2.192582	0.840367	1.939807	2.947034	1.564900	-4.072743	1.030308	-0.548009	-0.183120	4.715340	-0.549360	-0.766600	0.038208	0.627257	-1.000000	-1.000000	-1.000000	-1.000000	-1.000000	-1.000000	-1.000000	65.000000	0.000000	-1.000000	-1.000000	699154.000000	1775723002.909771
92618.415000	27217.845000	88105.950000	19539.675000	24808.230000	26056.125000	53386.335000	81370.575000	-1.251987	-1.650897	-2.042085	-0.268709	-0.148829	7.063220	0.513981	-2.908402	-0.183120	4.715340	-0.549360	-0.766600	0.038208	0.627257	-1.000000	-1.000000	-1.000000	-1.000000	-1.000000	-1.000000	-1.000000	65.000000	0.000000	-1.000000	-1.000000	699155.000000	1775723002.909810
92621.520000	27218.340000	88109.820000	19545.210000	24807.690000	26053.650000	53382.375000	81372.870000	-3.910602	-3.537516	-4.770137	-2.996350	-1.048439	17.895786	0.175597	-3.949139	-0.183120	4.715340	-0.549360	-0.766600	0.038208	0.627257	-1.000000	-1.000000	-1.000000	-1.000000	-1.000000	-1.000000	-1.000000	65.000000	0.000000	-1.000000	-1.000000	699156.000000	1775723002.909820
92614.545000	27214.830000	88101.180000	19538.595000	24793.785000	26028.405000	53375.085000	81367.110000	-4.804457	-3.889909	-4.871915	-3.915932	-0.985745	23.033997	0.120151	-3.186249	-0.183120	4.715340	-0.549360	-0.766600	0.038208	0.627257	-1.000000	-1.000000	-1.000000	-1.000000	-1.000000	-1.000000	-1.000000	65.000000	0.000000	-1.000000	-1.000000	699157.000000	1775723002.909836
92614.275000	27210.825000	88100.055000	19535.670000	24786.585000	26033.400000	53376.120000	81369.720000	-4.308983	-3.024818	-3.321693	-3.739567	-1.578530	17.413936	-0.102318	-1.488210	-0.183120	4.715340	-0.549360	-0.766600	0.038208	0.627257	-1.000000	-1.000000	-1.000000	-1.000000	-1.000000	-1.000000	-1.000000	65.000000	0.000000	-1.000000	-1.000000	699158.000000	1775723002.909844
92618.100000	27212.220000	88105.590000	19545.345000	24798.735000	26035.785000	53371.530000	81373.860000	-3.165134	-1.769945	-1.598431	-3.350340	-3.051532	3.538830	-0.504078	0.145209	-0.183120	4.715340	-0.549360	-0.766600	0.038208	0.627257	-1.000000	-1.000000	-1.000000	-1.000000	-1.000000	-1.000000	-1.000000	65.000000	0.000000	-1.000000	-1.000000	699159.000000	1775723002.909855
92613.870000	27213.075000	88102.710000	19552.680000	24795.360000	26021.475000	53371.035000	81371.970000	-1.560057	-0.439669	-0.014875	-2.199227	-3.363126	-10.238521	-0.669201	1.426535	-0.183120	4.715340	-0.549360	-0.766600	0.038208	0.627257	-1.000000	-1.000000	-1.000000	-1.000000	-1.000000	-1.000000	-1.000000	65.000000	0.000000	-1.000000	-1.000000	699160.000000	1775723002.909864
92617.965000	27215.010000	88104.735000	19552.770000	24786.810000	26012.655000	53374.455000	81377.280000	0.252106	1.017228	1.408271	0.222813	-1.505222	-17.771548	-0.305304	2.194354	-2.197440	6.683880	-1.663340	-0.770384	0.041870	0.624022	-1.000000	-1.000000	-1.000000	-1.000000	-1.000000	-1.000000	-1.000000	65.000000	0.000000	-1.000000	-1.000000	699161.000000	1775723002.915214
92617.875000	27212.220000	88104.465000	19552.995000	24788.295000	26022.330000	53369.055000	81377.820000	1.801368	2.313069	2.301392	2.749388	0.983245	-17.598263	0.536016	2.311992	-2.197440	6.683880	-1.663340	-0.770384	0.041870	0.624022	-1.000000	-1.000000	-1.000000	-1.000000	-1.000000	-1.000000	-1.000000	65.000000	0.000000	-1.000000	-1.000000	699162.000000	1775723002.915232
92612.880000	27206.820000	88099.470000	19552.185000	24783.570000	26017.740000	53364.780000	81376.875000	2.631245	2.714369	2.317445	3.663022	2.476592	-10.918195	1.174945	1.787499	-2.197440	6.683880	-1.663340	-0.770384	0.041870	0.624022	-1.000000	-1.000000	-1.000000	-1.000000	-1.000000	-1.000000	-1.000000	65.000000	0.000000	-1.000000	-1.000000	699163.000000	1775723002.915252
92608.290000	27203.670000	88093.755000	19549.485000	24774.435000	26011.980000	53357.985000	81375.525000	2.251780	1.730183	1.269284	2.459706	2.554186	-1.194809	0.793531	0.628634	-2.197440	6.683880	-1.663340	-0.770384	0.041870	0.624022	-1.000000	-1.000000	-1.000000	-1.000000	-1.000000	-1.000000	-1.000000	65.000000	0.000000	-1.000000	-1.000000	699164.000000	1775723002.915261
92601.000000	27202.770000	88089.930000	19553.445000	24772.230000	26014.725000	53348.715000	81367.290000	0.623750	-0.121604	-0.567942	0.118209	1.439959	6.961155	-0.667905	-1.035861	-2.197440	6.683880	-1.663340	-0.770384	0.041870	0.624022	-1.000000	-1.000000	-1.000000	-1.000000	-1.000000	-1.000000	-1.000000	65.000000	0.000000	-1.000000	-1.000000	699165.000000	1775723002.926330
92610.855000	27209.835000	88103.610000	19566.495000	24784.605000	26009.145000	53349.120000	81370.485000	-1.221508	-1.439723	-1.947171	-1.498447	0.263777	10.729829	-2.340446	-2.711192	-2.197440	6.683880	-1.663340	-0.770384	0.041870	0.624022	-1.000000	-1.000000	-1.000000	-1.000000	-1.000000	-1.000000	-1.000000	65.000000	0.000000	-1.000000	-1.000000	699166.000000	1775723002.926350
92613.060000	27211.770000	88106.175000	19568.610000	24782.490000	25981.290000	53344.530000	81367.110000	-1.588441	-1.064732	-1.292229	-0.995073	0.545999	9.502335	-2.913459	-3.471061	-2.197440	6.683880	-1.663340	-0.770384	0.041870	0.624022	-1.000000	-1.000000	-1.000000	-1.000000	-1.000000	-1.000000	-1.000000	65.000000	0.000000	-1.000000	-1.000000	699167.000000	1775723002.927940
92617.695000	27220.590000	88109.640000	19581.480000	24784.155000	25985.745000	53344.215000	81367.695000	0.152356	0.850288	1.326889	1.182553	2.164156	4.201753	-1.726361	-2.677686	-2.197440	6.683880	-1.663340	-0.770384	0.041870	0.624022	-1.000000	-1.000000	-1.000000	-1.000000	-1.000000	-1.000000	-1.000000	65.000000	0.000000	-1.000000	-1.000000	699168.000000	1775723002.927957
92625.660000	27227.745000	88113.105000	19595.880000	24803.370000	26051.670000	53360.010000	81384.030000	2.793543	3.088156	3.866298	3.494032	3.680617	-0.627925	0.937270	-0.385129	-2.197440	6.683880	-1.663340	-0.770384	0.041870	0.624022	-1.000000	-1.000000	-1.000000	-1.000000	-1.000000	-1.000000	-1.000000	65.000000	0.000000	-1.000000	-1.000000	699169.000000	1775723002.927976
92628.225000	27218.880000	88112.070000	19594.080000	24806.520000	26076.555000	53362.845000	81397.485000	4.580614	4.086291	4.362432	4.570468	4.390433	1.372510	4.378630	3.135342	-2.197440	6.683880	-1.663340	-0.770384	0.041870	0.624022	-1.000000	-1.000000	-1.000000	-1.000000	-1.000000	-1.000000	-1.000000	65.000000	0.000000	-1.000000	-1.000000	699170.000000	1775723002.927986
92621.745000	27208.980000	88113.375000	19594.935000	24805.755000	26083.395000	53353.710000	81392.535000	4.200649	2.365426	2.390244	3.243576	3.851197	9.594589	6.856729	6.617693	-3.998120	7.050120	-2.792580	-0.774412	0.043701	0.619627	-1.000000	-1.000000	-1.000000	-1.000000	-1.000000	-1.000000	-1.000000	65.000000	0.000000	-1.000000	-1.000000	699171.000000	1775723002.942482
92612.070000	27202.005000	88102.890000	19582.065000	24791.985000	26051.040000	53336.205000	81380.970000	1.090324	-2.111626	-1.139466	-0.839846	1.046761	14.375917	5.729807	7.196235	-3.998120	7.050120	-2.792580	-0.774412	0.043701	0.619627	-1.000000	-1.000000	-1.000000	-1.000000	-1.000000	-1.000000	-1.000000	65.000000	0.000000	-1.000000	-1.000000	699172.000000	1775723002.942502
92622.195000	27209.925000	88110.270000	19570.410000	24780.960000	26019.810000	53331.660000	81376.785000	-3.558050	-6.778490	-4.635496	-6.477028	-4.221547	6.861963	0.270471	3.020332	-3.998120	7.050120	-2.792580	-0.774412	0.043701	0.619627	-1.000000	-1.000000	-1.000000	-1.000000	-1.000000	-1.000000	-1.000000	65.000000	0.000000	-1.000000	-1.000000	699173.000000	1775723002.942522
92632.365000	27223.155000	88127.145000	19603.395000	24807.735000	26043.480000	53341.695000	81377.505000	-6.557225	-7.877325	-5.936882	-10.495820	-9.376530	-10.675309	-6.231809	-3.883944	-3.998120	7.050120	-2.792580	-0.774412	0.043701	0.619627	-1.000000	-1.000000	-1.000000	-1.000000	-1.000000	-1.000000	-1.000000	65.000000	0.000000	-1.000000	-1.000000	699174.000000	1775723002.942532
92635.695000	27231.885000	88136.685000	19621.305000	24825.060000	26096.760000	53349.345000	81385.380000	-5.451512	-3.760658	-3.433745	-8.661921	-9.740396	-24.568340	-8.752669	-8.869234	-3.998120	7.050120	-2.792580	-0.774412	0.043701	0.619627	-1.000000	-1.000000	-1.000000	-1.000000	-1.000000	-1.000000	-1.000000	65.000000	0.000000	-1.000000	-1.000000	699175.000000	1775723002.942542
92641.860000	27238.005000	88140.060000	19623.285000	24814.395000	26080.155000	53347.500000	81399.870000	-1.193962	3.235314	1.637825	-0.463173	-3.869019	-22.947173	-5.448345	-8.451477	-3.998120	7.050120	-2.792580	-0.774412	0.043701	0.619627	-1.000000	-1.000000	-1.000000	-1.000000	-1.000000	-1.000000	-1.000000	65.000000	0.000000	-1.000000	-1.000000	699176.000000	1775723002.942550
92636.595000	27227.385000	88126.695000	19611.045000	24803.685000	26053.695000	53341.605000	81406.305000	2.935234	8.361486	5.338088	8.229700	3.288471	-9.228473	0.575093	-2.824595	-3.998120	7.050120	-2.792580	-0.774412	0.043701	0.619627	-1.000000	-1.000000	-1.000000	-1.000000	-1.000000	-1.000000	-1.000000	65.000000	0.000000	-1.000000	-1.000000	699177.000000	1775723002.942560
92623.545000	27203.760000	88090.335000	19592.685000	24780.960000	26037.045000	53334.000000	81401.535000	3.955173	7.628138	3.800546	10.300976	5.427559	3.056769	4.567645	4.145522	-3.998120	7.050120	-2.792580	-0.774412	0.043701	0.619627	-1.000000	-1.000000	-1.000000	-1.000000	-1.000000	-1.000000	-1.000000	65.000000	0.000000	-1.000000	-1.000000	699178.000000	1775723002.942568
92622.060000	27197.685000	88084.440000	19598.400000	24782.490000	26047.980000	53327.025000	81398.925000	1.139441	0.744086	-3.374121	4.328997	1.366758	6.380432	4.238280	7.639680	-3.998120	7.050120	-2.792580	-0.774412	0.043701	0.619627	-1.000000	-1.000000	-1.000000	-1.000000	-1.000000	-1.000000	-1.000000	65.000000	0.000000	-1.000000	-1.000000	699179.000000	1775723002.953356
92626.425000	27212.310000	88114.545000	19616.805000	24790.815000	26051.220000	53326.350000	81395.370000	-3.077869	-7.457070	-10.642528	-3.953932	-4.156512	4.201729	0.878280	5.675017	-3.998120	7.050120	-2.792580	-0.774412	0.043701	0.619627	-1.000000	-1.000000	-1.000000	-1.000000	-1.000000	-1.000000	-1.000000	65.000000	0.000000	-1.000000	-1.000000	699180.000000	1775723002.953372
92627.820000	27215.910000	88129.755000	19621.125000	24787.575000	26030.160000	53328.285000	81395.595000	-5.020099	-10.332717	-10.114934	-7.313496	-5.490565	2.499737	-2.315311	0.284127	-3.280900	6.882260	-3.204600	-0.778196	0.042358	0.615538	-1.000000	-1.000000	-1.000000	-1.000000	-1.000000	-1.000000	-1.000000	65.000000	0.000000	-1.000000	-1.000000	699181.000000	1775723002.953393
92628.495000	27214.965000	88130.160000	19609.650000	24776.460000	26021.610000	53326.530000	81396.540000	-3.216260	-5.805866	-0.399314	-4.276113	-1.816264	2.498040	-2.949964	-4.664076	-3.280900	6.882260	-3.204600	-0.778196	0.042358	0.615538	-1.000000	-1.000000	-1.000000	-1.000000	-1.000000	-1.000000	-1.000000	65.000000	0.000000	-1.000000	-1.000000	699182.000000	1775723002.953402
92627.055000	27210.555000	88121.115000	19608.705000	24775.110000	26046.270000	53322.570000	81396.360000	0.703820	2.022203	11.016930	0.654590	3.124276	3.124364	-1.138210	-6.387788	-3.280900	6.882260	-3.204600	-0.778196	0.042358	0.615538	-1.000000	-1.000000	-1.000000	-1.000000	-1.000000	-1.000000	-1.000000	65.000000	0.000000	-1.000000	-1.000000	699183.000000	1775723002.957219
92628.675000	27211.500000	88119.180000	19614.510000	24782.895000	26051.760000	53314.650000	81396.135000	4.037574	7.559862	15.450316	3.251593	6.084354	4.982977	1.122960	-4.635896	-3.280900	6.882260	-3.204600	-0.778196	0.042358	0.615538	-1.000000	-1.000000	-1.000000	-1.000000	-1.000000	-1.000000	-1.000000	65.000000	0.000000	-1.000000	-1.000000	699184.000000	1775723002.957236
92625.840000	27210.690000	88118.595000	19619.505000	24789.645000	26052.120000	53313.750000	81393.435000	5.121835	8.300527	10.709003	3.270492	6.859806	7.942282	2.045207	-1.137646	-3.280900	6.882260	-3.204600	-0.778196	0.042358	0.615538	-1.000000	-1.000000	-1.000000	-1.000000	-1.000000	-1.000000	-1.000000	65.000000	0.000000	-1.000000	-1.000000	699185.000000	1775723002.959656
92622.105000	27211.275000	88115.895000	19629.180000	24788.745000	26048.745000	53316.135000	81391.995000	3.817027	5.294865	1.178867	2.577259	6.377356	9.134819	1.588028	1.960283	-3.280900	6.882260	-3.204600	-0.778196	0.042358	0.615538	-1.000000	-1.000000	-1.000000	-1.000000	-1.000000	-1.000000	-1.000000	65.000000	0.000000	-1.000000	-1.000000	699186.000000	1775723002.959674
92630.700000	27214.695000	88122.915000	19635.255000	24790.635000	26049.780000	53317.530000	81399.330000	1.230821	1.145238	-7.013207	2.411615	4.726941	6.189439	0.986096	3.562404	-3.280900	6.882260	-3.204600	-0.778196	0.042358	0.615538	-1.000000	-1.000000	-1.000000	-1.000000	-1.000000	-1.000000	-1.000000	65.000000	0.000000	-1.000000	-1.000000	699187.000000	1775723002.973730
92635.425000	27216.630000	88126.155000	19633.590000	24785.910000	26045.145000	53311.185000	81401.580000	-0.757811	-1.890055	-9.965320	2.458088	1.682218	-0.025386	0.922182	3.976442	-3.280900	6.882260	-3.204600	-0.778196	0.042358	0.615538	-1.000000	-1.000000	-1.000000	-1.000000	-1.000000	-1.000000	-1.000000	65.000000	0.000000	-1.000000	-1.000000	699188.000000	1775723002.973748
92631.060000	27211.320000	88120.800000	19631.430000	24783.660000	26034.885000	53300.295000	81396.810000	-1.117966	-3.057219	-7.625595	1.474295	-2.264555	-6.630150	0.680824	3.651609	-3.280900	6.882260	-3.204600	-0.778196	0.042358	0.615538	-1.000000	-1.000000	-1.000000	-1.000000	-1.000000	-1.000000	-1.000000	65.000000	0.000000	-1.000000	-1.000000	699189.000000	1775723002.973769
92630.160000	27213.570000	88119.270000	19639.485000	24790.950000	26022.915000	53293.410000	81395.955000	-0.714638	-3.018308	-3.038545	-0.899284	-5.652740	-11.169966	-0.666559	2.347555	-3.280900	6.882260	-3.204600	-0.778196	0.042358	0.615538	-1.000000	-1.000000	-1.000000	-1.000000	-1.000000	-1.000000	-1.000000	65.000000	0.000000	-1.000000	-1.000000	699190.000000	1775723002.973778
92638.665000	27216.315000	88123.320000	19643.670000	24802.290000	26031.645000	53300.115000	81404.505000	-0.646779	-2.462226	0.714125	-3.241970	-6.533516	-12.132501	-2.490413	0.274191	-2.350040	5.341000	-3.311420	-0.781431	0.039368	0.612975	-1.000000	-1.000000	-1.000000	-1.000000	-1.000000	-1.000000	-1.000000	65.000000	0.000000	-1.000000	-1.000000	699191.000000	1775723002.973790
92645.370000	27221.220000	88130.520000	19654.695000	24812.055000	26076.060000	53304.210000	81409.500000	-0.619662	-1.400441	2.774197	-3.800475	-4.008301	-7.861907	-2.778576	-1.252532	-2.350040	5.341000	-3.311420	-0.781431	0.039368	0.612975	-1.000000	-1.000000	-1.000000	-1.000000	-1.000000	-1.000000	-1.000000	65.000000	0.000000	-1.000000	-1.000000	699192.000000	1775723002.973798
92645.910000	27219.195000	88129.980000	19655.775000	24805.440000	26080.695000	53299.485000	81409.545000	-0.029567	0.058786	3.696569	-2.271893	0.290792	1.974128	-0.670628	-1.350112	-2.350040	5.341000	-3.311420	-0.781431	0.039368	0.612975	-1.000000	-1.000000	-1.000000	-1.000000	-1.000000	-1.000000	-1.000000	65.000000	0.000000	-1.000000	-1.000000	699193.000000	1775723002.975638
92646.720000	27216.315000	88128.810000	19655.460000	24802.155000	26055.405000	53293.455000	81410.085000	0.629188	1.118911	3.651247	-0.079691	3.002449	12.201137	2.090151	-0.698688	-2.350040	5.341000	-3.311420	-0.781431	0.039368	0.612975	-1.000000	-1.000000	-1.000000	-1.000000	-1.000000	-1.000000	-1.000000	65.000000	0.000000	-1.000000	-1.000000	699194.000000	1775723002.975654
92643.030000	27209.745000	88122.960000	19650.015000	24791.985000	26048.925000	53291.205000	81408.375000	0.377788	0.899110	2.273578	0.847446	1.984519	14.483187	3.125625	-0.500946	-2.350040	5.341000	-3.311420	-0.781431	0.039368	0.612975	-1.000000	-1.000000	-1.000000	-1.000000	-1.000000	-1.000000	-1.000000	65.000000	0.000000	-1.000000	-1.000000	699195.000000	1775723002.989314
92647.890000	27216.090000	88133.085000	19664.910000	24794.055000	26034.705000	53285.850000	81410.085000	-0.908845	-0.425033	-0.078381	0.072856	-1.754447	6.380360	1.877199	-1.119562	-2.350040	5.341000	-3.311420	-0.781431	0.039368	0.612975	-1.000000	-1.000000	-1.000000	-1.000000	-1.000000	-1.000000	-1.000000	65.000000	0.000000	-1.000000	-1.000000	699196.000000	1775723002.989333
92655.540000	27224.460000	88142.670000	19675.890000	24796.935000	26013.690000	53284.095000	81415.035000	-2.093224	-1.315231	-1.733052	-0.669394	-4.967919	-6.440141	-0.427428	-1.853279	-2.350040	5.341000	-3.311420	-0.781431	0.039368	0.612975	-1.000000	-1.000000	-1.000000	-1.000000	-1.000000	-1.000000	-1.000000	65.000000	0.000000	-1.000000	-1.000000	699197.000000	1775723002.989354
92655.855000	27225.675000	88144.335000	19678.545000	24796.890000	26017.560000	53285.985000	81415.845000	-1.923091	-0.439600	-1.334841	0.221280	-4.960950	-16.024170	-2.098219	-1.762318	-2.350040	5.341000	-3.311420	-0.781431	0.039368	0.612975	-1.000000	-1.000000	-1.000000	-1.000000	-1.000000	-1.000000	-1.000000	65.000000	0.000000	-1.000000	-1.000000	699198.000000	1775723002.989364
92647.845000	27218.520000	88140.285000	19680.480000	24819.840000	26104.230000	53288.820000	81412.155000	-0.734820	1.420648	0.229566	1.923945	-1.392920	-15.393855	-2.011820	-0.831587	-2.350040	5.341000	-3.311420	-0.781431	0.039368	0.612975	-1.000000	-1.000000	-1.000000	-1.000000	-1.000000	-1.000000	-1.000000	65.000000	0.000000	-1.000000	-1.000000	699199.000000	1775723002.989376
92630.520000	27196.830000	88118.325000	19660.950000	24795.495000	26111.565000	53281.710000	81403.785000	-0.363411	1.782040	0.459020	2.077413	3.690803	-1.652414	-0.424646	-0.107113	-2.350040	5.341000	-3.311420	-0.781431	0.039368	0.612975	-1.000000	-1.000000	-1.000000	-1.000000	-1.000000	-1.000000	-1.000000	65.000000	0.000000	-1.000000	-1.000000	699200.000000	1775723002.989385
92627.370000	27189.225000	88111.305000	19657.485000	24778.935000	26081.460000	53276.400000	81404.370000	-1.899109	-0.881995	-2.166034	-0.724433	6.209596	16.833479	1.062319	-0.387255	-2.380560	3.509800	-3.662400	-0.782164	0.037048	0.612242	-1.000000	-1.000000	-1.000000	-1.000000	-1.000000	-1.000000	-1.000000	65.000000	0.000000	-1.000000	-1.000000	699201.000000	1775723003.004936
92630.385000	27196.920000	88116.030000	19671.120000	24788.205000	26072.055000	53270.325000	81404.910000	-3.823421	-4.691295	-5.889464	-4.711269	3.668051	24.279880	1.043460	-1.073975	-2.380560	3.509800	-3.662400	-0.782164	0.037048	0.612242	-1.000000	-1.000000	-1.000000	-1.000000	-1.000000	-1.000000	-1.000000	65.000000	0.000000	-1.000000	-1.000000	699202.000000	1775723003.004955
92639.655000	27201.015000	88121.160000	19675.845000	24788.205000	26068.680000	53272.260000	81412.740000	-3.249758	-5.589954	-6.748454	-5.870984	-1.104735	14.161936	-0.235445	-0.783572	-2.380560	3.509800	-3.662400	-0.782164	0.037048	0.612242	-1.000000	-1.000000	-1.000000	-1.000000	-1.000000	-1.000000	-1.000000	65.000000	0.000000	-1.000000	-1.000000	699203.000000	1775723003.004976
92633.490000	27199.305000	88114.770000	19676.205000	24786.180000	26066.430000	53266.455000	81408.060000	0.669658	-1.880134	-2.964619	-2.541020	-3.551950	-5.021041	-1.357256	0.947434	-2.380560	3.509800	-3.662400	-0.782164	0.037048	0.612242	-1.000000	-1.000000	-1.000000	-1.000000	-1.000000	-1.000000	-1.000000	65.000000	0.000000	-1.000000	-1.000000	699204.000000	1775723003.004984
92627.100000	27200.835000	88110.855000	19680.255000	24785.145000	26063.460000	53258.355000	81400.905000	5.307766	3.913816	2.951494	2.766834	-2.491163	-20.060666	-1.513989	2.781776	-2.380560	3.509800	-3.662400	-0.782164	0.037048	0.612242	-1.000000	-1.000000	-1.000000	-1.000000	-1.000000	-1.000000	-1.000000	65.000000	0.000000	-1.000000	-1.000000	699205.000000	1775723003.004995
92645.325000	27212.805000	88132.545000	19694.295000	24793.965000	26062.605000	53263.395000	81415.845000	7.548941	8.145216	7.480152	6.685882	0.446756	-23.463664	-0.928435	3.210553	-2.380560	3.509800	-3.662400	-0.782164	0.037048	0.612242	-1.000000	-1.000000	-1.000000	-1.000000	-1.000000	-1.000000	-1.000000	65.000000	0.000000	-1.000000	-1.000000	699206.000000	1775723003.005004
92645.460000	27215.550000	88135.920000	19701.990000	24798.510000	26055.270000	53257.905000	81416.385000	7.091783	9.172910	9.554368	7.919507	3.463450	-16.028017	0.153482	2.610426	-2.380560	3.509800	-3.662400	-0.782164	0.037048	0.612242	-1.000000	-1.000000	-1.000000	-1.000000	-1.000000	-1.000000	-1.000000	65.000000	0.000000	-1.000000	-1.000000	699207.000000	1775723003.005014
92633.670000	27208.440000	88125.480000	19702.395000	24797.115000	26056.485000	53252.325000	81408.375000	4.858319	6.959089	9.068733	6.605314	5.216369	-3.678501	1.331998	1.811611	-2.380560	3.509800	-3.662400	-0.782164	0.037048	0.612242	-1.000000	-1.000000	-1.000000	-1.000000	-1.000000	-1.000000	-1.000000	65.000000	0.000000	-1.000000	-1.000000	699208.000000	1775723003.005022
92640.600000	27207.495000	88128.360000	19696.770000	24794.820000	26054.955000	53256.195000	81415.170000	1.060803	2.021478	5.320952	2.934752	4.617593	7.368223	1.923103	0.531249	-2.380560	3.509800	-3.662400	-0.782164	0.037048	0.612242	-1.000000	-1.000000	-1.000000	-1.000000	-1.000000	-1.000000	-1.000000	65.000000	0.000000	-1.000000	-1.000000	699209.000000	1775723003.010120
92634.210000	27203.400000	88121.430000	19691.370000	24777.765000	26033.310000	53253.315000	81411.165000	-3.293201	-3.997313	-0.935763	-2.477956	1.321043	13.151970	1.866139	-1.199336	-2.380560	3.509800	-3.662400	-0.782164	0.037048	0.612242	-1.000000	-1.000000	-1.000000	-1.000000	-1.000000	-1.000000	-1.000000	65.000000	0.000000	-1.000000	-1.000000	699210.000000	1775723003.010136
92639.880000	27207.720000	88128.855000	19704.195000	24797.070000	26076.195000	53256.870000	81415.980000	-6.226432	-8.439521	-6.812292	-7.521371	-3.305823	13.154795	1.579462	-2.515195	-3.845520	2.380560	-3.021480	-0.781309	0.034363	0.610472	-1.000000	-1.000000	-1.000000	-1.000000	-1.000000	-1.000000	-1.000000	65.000000	0.000000	-1.000000	-1.000000	699211.000000	1775723003.020355
92642.400000	27206.010000	88130.160000	19708.830000	24806.790000	26088.570000	53250.840000	81417.645000	-6.421311	-9.271153	-9.361401	-9.185038	-5.917494	10.951191	1.174894	-2.713024	-3.845520	2.380560	-3.021480	-0.781309	0.034363	0.610472	-1.000000	-1.000000	-1.000000	-1.000000	-1.000000	-1.000000	-1.000000	65.000000	0.000000	-1.000000	-1.000000	699212.000000	1775723003.020373
92646.000000	27209.070000	88132.860000	19713.465000	24807.735000	26087.265000	53250.615000	81420.885000	-3.971785	-6.454583	-7.652143	-6.312742	-4.219541	9.582209	0.414506	-1.718599	-3.845520	2.380560	-3.021480	-0.781309	0.034363	0.610472	-1.000000	-1.000000	-1.000000	-1.000000	-1.000000	-1.000000	-1.000000	65.000000	0.000000	-1.000000	-1.000000	699213.000000	1775723003.020392
92647.620000	27208.800000	88132.950000	19712.205000	24790.545000	26084.295000	53245.575000	81425.790000	-0.336016	-1.763948	-3.282375	-1.021841	-0.317667	7.313111	-0.781247	-0.081779	-3.845520	2.380560	-3.021480	-0.781309	0.034363	0.610472	-1.000000	-1.000000	-1.000000	-1.000000	-1.000000	-1.000000	-1.000000	65.000000	0.000000	-1.000000	-1.000000	699214.000000	1775723003.020401
92652.975000	27211.770000	88136.415000	19713.150000	24782.625000	26071.695000	53237.610000	81427.230000	2.639527	2.564141	1.131579	3.287317	1.449689	1.377330	-2.133197	1.392243	-3.845520	2.380560	-3.021480	-0.781309	0.034363	0.610472	-1.000000	-1.000000	-1.000000	-1.000000	-1.000000	-1.000000	-1.000000	65.000000	0.000000	-1.000000	-1.000000	699215.000000	1775723003.020411
92645.010000	27208.305000	88136.145000	19719.585000	24786.585000	26062.110000	53227.710000	81407.610000	3.718572	4.944897	3.762796	4.756231	-0.301163	-7.534853	-3.344635	1.628230	-3.845520	2.380560	-3.021480	-0.781309	0.034363	0.610472	-1.000000	-1.000000	-1.000000	-1.000000	-1.000000	-1.000000	-1.000000	65.000000	0.000000	-1.000000	-1.000000	699216.000000	1775723003.020419
92637.540000	27206.730000	88136.730000	19726.065000	24790.905000	26068.545000	53220.780000	81394.560000	2.380010	4.819141	4.109888	3.962615	-2.730387	-15.305489	-4.091451	-0.502747	-3.845520	2.380560	-3.021480	-0.781309	0.034363	0.610472	-1.000000	-1.000000	-1.000000	-1.000000	-1.000000	-1.000000	-1.000000	65.000000	0.000000	-1.000000	-1.000000	699217.000000	1775723003.029392
92640.870000	27212.265000	88140.960000	19728.810000	24796.035000	26072.325000	53226.360000	81401.985000	-0.698114	2.849554	2.774848	2.470366	-2.551436	-17.160468	-3.631566	-4.157936	-3.845520	2.380560	-3.021480	-0.781309	0.034363	0.610472	-1.000000	-1.000000	-1.000000	-1.000000	-1.000000	-1.000000	-1.000000	65.000000	0.000000	-1.000000	-1.000000	699218.000000	1775723003.029412
92657.160000	27228.960000	88160.445000	19752.210000	24819.345000	26089.650000	53242.740000	81429.480000	-3.061125	0.914106	1.288088	1.480100	0.918448	-11.301019	-0.899632	-5.474052	-3.845520	2.380560	-3.021480	-0.781309	0.034363	0.610472	-1.000000	-1.000000	-1.000000	-1.000000	-1.000000	-1.000000	-1.000000	65.000000	0.000000	-1.000000	-1.000000	699219.000000	1775723003.029436
92659.635000	27224.010000	88157.115000	19750.095000	24828.300000	26096.670000	53253.810000	81449.775000	-2.302719	0.554619	1.018237	1.505102	6.070024	-0.369155	4.223746	-1.022092	-3.845520	2.380560	-3.021480	-0.781309	0.034363	0.610472	-1.000000	-1.000000	-1.000000	-1.000000	-1.000000	-1.000000	-1.000000	65.000000	0.000000	-1.000000	-1.000000	699220.000000	1775723003.029445
92653.155000	27204.480000	88138.170000	19733.265000	24803.370000	26058.240000	53241.615000	81449.685000	0.874958	0.680091	1.027789	1.289068	9.322968	9.351543	9.217852	7.378581	-3.769220	1.754900	-1.892240	-0.780943	0.031433	0.611021	-1.000000	-1.000000	-1.000000	-1.000000	-1.000000	-1.000000	-1.000000	65.000000	0.000000	-1.000000	-1.000000	699221.000000	1775723003.031567
92649.780000	27197.685000	88130.970000	19725.345000	24765.930000	26008.155000	53221.095000	81435.735000	3.132108	-1.223968	-1.093953	-1.431153	6.131691	10.576616	9.645705	12.930974	-3.769220	1.754900	-1.892240	-0.780943	0.031433	0.611021	-1.000000	-1.000000	-1.000000	-1.000000	-1.000000	-1.000000	-1.000000	65.000000	0.000000	-1.000000	-1.000000	699222.000000	1775723003.031582
92653.200000	27205.605000	88138.755000	19733.535000	24774.120000	26040.870000	53224.830000	81432.180000	2.433378	-4.833526	-5.041869	-6.082964	-3.898632	2.249569	3.627755	10.133432	-3.769220	1.754900	-1.892240	-0.780943	0.031433	0.611021	-1.000000	-1.000000	-1.000000	-1.000000	-1.000000	-1.000000	-1.000000	65.000000	0.000000	-1.000000	-1.000000	699223.000000	1775723003.036328
92649.510000	27203.130000	88137.270000	19735.470000	24798.195000	26102.655000	53227.890000	81431.010000	-0.154959	-6.683055	-7.253568	-8.746703	-13.384282	-5.549973	-4.944997	0.298367	-3.769220	1.754900	-1.892240	-0.780943	0.031433	0.611021	-1.000000	-1.000000	-1.000000	-1.000000	-1.000000	-1.000000	-1.000000	65.000000	0.000000	-1.000000	-1.000000	699224.000000	1775723003.036346
92649.195000	27203.535000	88137.990000	19742.085000	24812.055000	26126.460000	53226.315000	81433.665000	-2.477737	-4.622479	-5.339092	-6.572068	-13.413167	-1.550926	-9.993896	-9.892428	-3.769220	1.754900	-1.892240	-0.780943	0.031433	0.611021	-1.000000	-1.000000	-1.000000	-1.000000	-1.000000	-1.000000	-1.000000	65.000000	0.000000	-1.000000	-1.000000	699225.000000	1775723003.040412
92656.035000	27210.825000	88145.865000	19755.270000	24820.155000	26134.245000	53227.620000	81440.280000	-3.146110	0.146864	-0.362015	-0.421075	-3.224896	12.140601	-9.030396	-14.255215	-3.769220	1.754900	-1.892240	-0.780943	0.031433	0.611021	-1.000000	-1.000000	-1.000000	-1.000000	-1.000000	-1.000000	-1.000000	65.000000	0.000000	-1.000000	-1.000000	699226.000000	1775723003.040430
92653.830000	27206.280000	88141.455000	19754.685000	24800.895000	26106.345000	53217.765000	81436.320000	-1.863891	4.924170	4.863623	6.402106	9.027056	21.707164	-4.135396	-11.235308	-3.769220	1.754900	-1.892240	-0.780943	0.031433	0.611021	-1.000000	-1.000000	-1.000000	-1.000000	-1.000000	-1.000000	-1.000000	65.000000	0.000000	-1.000000	-1.000000	699227.000000	1775723003.043177
92654.955000	27204.615000	88141.815000	19761.930000	24791.175000	26089.290000	53212.995000	81436.815000	0.406341	7.236963	7.646801	10.295075	13.951783	16.073065	0.812785	-3.951023	-3.769220	1.754900	-1.892240	-0.780943	0.031433	0.611021	-1.000000	-1.000000	-1.000000	-1.000000	-1.000000	-1.000000	-1.000000	65.000000	0.000000	-1.000000	-1.000000	699228.000000	1775723003.043194
92654.145000	27200.115000	88131.555000	19760.715000	24789.915000	26085.870000	53210.160000	81437.310000	2.114105	5.988417	6.637262	9.413958	8.848569	-2.846871	3.266217	3.024871	-3.769220	1.754900	-1.892240	-0.780943	0.031433	0.611021	-1.000000	-1.000000	-1.000000	-1.000000	-1.000000	-1.000000	-1.000000	65.000000	0.000000	-1.000000	-1.000000	699229.000000	1775723003.050411
92647.485000	27195.120000	88116.390000	19735.470000	24784.920000	26080.695000	53206.245000	81433.080000	2.296100	2.098577	2.296235	4.120737	-1.118022	-22.518519	3.261471	6.805646	-3.769220	1.754900	-1.892240	-0.780943	0.031433	0.611021	-1.000000	-1.000000	-1.000000	-1.000000	-1.000000	-1.000000	-1.000000	65.000000	0.000000	-1.000000	-1.000000	699230.000000	1775723003.050429
92653.155000	27199.800000	88133.715000	19745.325000	24792.435000	26090.910000	53209.125000	81437.265000	1.071586	-2.137865	-3.017079	-3.585739	-8.596547	-30.696345	2.284210	6.941829	-1.938020	1.144500	-1.785420	-0.779722	0.025635	0.612608	-1.000000	-1.000000	-1.000000	-1.000000	-1.000000	-1.000000	-1.000000	65.000000	0.000000	-1.000000	-1.000000	699231.000000	1775723003.058884
92657.205000	27201.555000	88150.005000	19763.595000	24795.405000	26096.445000	53208.810000	81441.135000	-0.311456	-4.345313	-5.330598	-9.383357	-9.495365	-23.591828	1.708322	4.865680	-1.938020	1.144500	-1.785420	-0.779722	0.025635	0.612608	-1.000000	-1.000000	-1.000000	-1.000000	-1.000000	-1.000000	-1.000000	65.000000	0.000000	-1.000000	-1.000000	699232.000000	1775723003.058901
92659.770000	27203.850000	88151.760000	19770.435000	24793.695000	26084.475000	53203.320000	81442.485000	-0.543520	-3.586505	-2.421390	-8.890594	-4.631529	-6.737848	1.794471	2.520412	-1.938020	1.144500	-1.785420	-0.779722	0.025635	0.612608	-1.000000	-1.000000	-1.000000	-1.000000	-1.000000	-1.000000	-1.000000	65.000000	0.000000	-1.000000	-1.000000	699233.000000	1775723003.058923
92662.920000	27206.415000	88152.120000	19774.530000	24796.845000	26085.060000	53200.305000	81443.880000	0.368135	-0.918527	3.030011	-2.580177	1.881818	9.709388	1.703510	0.854821	-1.938020	1.144500	-1.785420	-0.779722	0.025635	0.612608	-1.000000	-1.000000	-1.000000	-1.000000	-1.000000	-1.000000	-1.000000	65.000000	0.000000	-1.000000	-1.000000	699234.000000	1775723003.058932
92659.410000	27199.935000	88146.405000	19773.495000	24798.195000	26097.930000	53198.190000	81440.685000	1.291922	1.597383	6.053347	4.457201	6.176854	18.543857	0.785566	-0.314345	-1.938020	1.144500	-1.785420	-0.779722	0.025635	0.612608	-1.000000	-1.000000	-1.000000	-1.000000	-1.000000	-1.000000	-1.000000	65.000000	0.000000	-1.000000	-1.000000	699235.000000	1775723003.058943
92655.855000	27199.575000	88143.885000	19777.635000	24796.935000	26096.760000	53190.540000	81436.500000	1.061042	2.285504	4.171392	7.519445	6.775531	19.052053	-0.692454	-1.515172	-1.938020	1.144500	-1.785420	-0.779722	0.025635	0.612608	-1.000000	-1.000000	-1.000000	-1.000000	-1.000000	-1.000000	-1.000000	65.000000	0.000000	-1.000000	-1.000000	699236.000000	1775723003.058952
92655.585000	27199.935000	88143.120000	19780.515000	24794.190000	26086.005000	53185.320000	81435.420000	-0.515578	1.032924	-1.069078	5.691674	4.243713	13.751410	-2.131813	-2.842303	-1.938020	1.144500	-1.785420	-0.779722	0.025635	0.612608	-1.000000	-1.000000	-1.000000	-1.000000	-1.000000	-1.000000	-1.000000	65.000000	0.000000	-1.000000	-1.000000	699237.000000	1775723003.067102
92668.455000	27208.305000	88156.710000	19792.845000	24808.185000	26097.345000	53189.730000	81447.255000	-2.126279	-0.636083	-5.736243	1.436147	0.502596	5.473875	-2.841289	-3.442696	-1.938020	1.144500	-1.785420	-0.779722	0.025635	0.612608	-1.000000	-1.000000	-1.000000	-1.000000	-1.000000	-1.000000	-1.000000	65.000000	0.000000	-1.000000	-1.000000	699238.000000	1775723003.067121
92667.240000	27206.055000	88156.710000	19793.115000	24790.680000	26057.835000	53183.430000	81448.245000	-2.065936	-1.143950	-6.576812	-2.092471	-2.357498	-3.029094	-2.168837	-2.205981	-1.938020	1.144500	-1.785420	-0.779722	0.025635	0.612608	-1.000000	-1.000000	-1.000000	-1.000000	-1.000000	-1.000000	-1.000000	65.000000	0.000000	-1.000000	-1.000000	699239.000000	1775723003.067141
92656.980000	27198.900000	88145.505000	19787.220000	24775.515000	26038.395000	53178.705000	81441.720000	-0.552510	-0.596003	-3.839102	-3.696053	-4.176106	-10.355947	-0.463122	0.364354	-1.938020	1.144500	-1.785420	-0.779722	0.025635	0.612608	-1.000000	-1.000000	-1.000000	-1.000000	-1.000000	-1.000000	-1.000000	65.000000	0.000000	-1.000000	-1.000000	699240.000000	1775723003.067150
92656.530000	27195.525000	88145.910000	19789.245000	24786.270000	26094.060000	53184.105000	81443.745000	0.388353	-0.386006	-0.652922	-4.182746	-5.652152	-14.276066	1.180139	2.183734	-3.860780	1.220800	-0.259420	-0.776426	0.021912	0.615538	-1.000000	-1.000000	-1.000000	-1.000000	-1.000000	-1.000000	-1.000000	65.000000	0.000000	-1.000000	-1.000000	699241.000000	1775723003.073376
92652.570000	27189.270000	88142.355000	19788.030000	24790.770000	26113.185000	53183.295000	81444.555000	-0.225741	-1.192930	0.767274	-4.201268	-5.498787	-9.886910	2.295845	2.106230	-3.860780	1.220800	-0.259420	-0.776426	0.021912	0.615538	-1.000000	-1.000000	-1.000000	-1.000000	-1.000000	-1.000000	-1.000000	65.000000	0.000000	-1.000000	-1.000000	699242.000000	1775723003.073397
92653.605000	27191.655000	88143.570000	19791.495000	24790.230000	26084.700000	53179.380000	81445.635000	-1.371296	-2.222759	0.750596	-3.444831	-2.283715	2.317182	2.794977	0.873448	-3.860780	1.220800	-0.259420	-0.776426	0.021912	0.615538	-1.000000	-1.000000	-1.000000	-1.000000	-1.000000	-1.000000	-1.000000	65.000000	0.000000	-1.000000	-1.000000	699243.000000	1775723003.075416
92649.105000	27189.990000	88136.865000	19790.280000	24783.930000	26101.530000	53170.830000	81439.470000	-1.690711	-2.181443	0.499217	-1.657367	2.425567	12.884198	2.172927	-0.417252	-3.860780	1.220800	-0.259420	-0.776426	0.021912	0.615538	-1.000000	-1.000000	-1.000000	-1.000000	-1.000000	-1.000000	-1.000000	65.000000	0.000000	-1.000000	-1.000000	699244.000000	1775723003.075435
92656.395000	27194.085000	88144.470000	19796.940000	24792.795000	26129.835000	53167.770000	81443.745000	-0.704495	-0.551265	0.702621	0.769260	5.639553	14.830064	0.203135	-1.285345	-3.860780	1.220800	-0.259420	-0.776426	0.021912	0.615538	-1.000000	-1.000000	-1.000000	-1.000000	-1.000000	-1.000000	-1.000000	65.000000	0.000000	-1.000000	-1.000000	699245.000000	1775723003.079136
92667.510000	27203.130000	88157.610000	19810.440000	24799.635000	26112.375000	53161.110000	81448.380000	1.465249	2.129768	1.808355	3.299896	6.268826	9.770565	-2.253439	-1.357954	-3.860780	1.220800	-0.259420	-0.776426	0.021912	0.615538	-1.000000	-1.000000	-1.000000	-1.000000	-1.000000	-1.000000	-1.000000	65.000000	0.000000	-1.000000	-1.000000	699246.000000	1775723003.079151
92667.645000	27203.445000	88159.455000	19815.570000	24800.760000	26101.395000	53162.955000	81449.280000	4.166125	4.736473	3.862661	5.526356	5.149466	1.231505	-3.730393	-0.365272	-3.860780	1.220800	-0.259420	-0.776426	0.021912	0.615538	-1.000000	-1.000000	-1.000000	-1.000000	-1.000000	-1.000000	-1.000000	65.000000	0.000000	-1.000000	-1.000000	699247.000000	1775723003.089648
92664.630000	27202.455000	88159.365000	19820.205000	24808.140000	26129.655000	53168.085000	81451.170000	5.697345	5.778000	5.477403	6.555116	3.138787	-7.832889	-3.100794	1.125011	-3.860780	1.220800	-0.259420	-0.776426	0.021912	0.615538	-1.000000	-1.000000	-1.000000	-1.000000	-1.000000	-1.000000	-1.000000	65.000000	0.000000	-1.000000	-1.000000	699248.000000	1775723003.089666
92669.760000	27208.395000	88165.170000	19828.305000	24811.335000	26125.515000	53165.520000	81456.570000	4.506227	4.327145	4.827692	5.419205	0.762509	-12.963929	-0.427779	2.125934	-3.860780	1.220800	-0.259420	-0.776426	0.021912	0.615538	-1.000000	-1.000000	-1.000000	-1.000000	-1.000000	-1.000000	-1.000000	65.000000	0.000000	-1.000000	-1.000000	699249.000000	1775723003.089688
92670.480000	27216.225000	88167.510000	19839.330000	24810.660000	26111.205000	53164.350000	81458.280000	1.099949	1.254888	1.845500	2.457178	-1.536331	-12.079296	2.647712	2.201721	-3.860780	1.220800	-0.259420	-0.776426	0.021912	0.615538	-1.000000	-1.000000	-1.000000	-1.000000	-1.000000	-1.000000	-1.000000	65.000000	0.000000	-1.000000	-1.000000	699250.000000	1775723003.089697
92670.300000	27218.970000	88167.690000	19843.380000	24794.640000	26094.465000	53159.670000	81456.030000	-2.551625	-1.547572	-1.915395	-0.868058	-3.835863	-8.268913	4.068981	1.368728	-1.312360	0.152600	1.724380	-0.775267	0.023498	0.618468	-1.000000	-1.000000	-1.000000	-1.000000	-1.000000	-1.000000	-1.000000	65.000000	0.000000	-1.000000	-1.000000	699251.000000	1775723003.095921
92665.980000	27209.025000	88157.745000	19830.105000	24784.965000	26090.910000	53152.605000	81454.545000	-4.959756	-3.281480	-5.068090	-3.757971	-6.484120	-5.165139	2.966780	-0.261329	-1.312360	0.152600	1.724380	-0.775267	0.023498	0.618468	-1.000000	-1.000000	-1.000000	-1.000000	-1.000000	-1.000000	-1.000000	65.000000	0.000000	-1.000000	-1.000000	699252.000000	1775723003.095942
92654.955000	27193.545000	88146.315000	19819.530000	24786.855000	26062.380000	53140.230000	81449.190000	-5.897986	-4.815062	-7.233669	-6.663014	-8.627749	-3.400321	-0.090282	-2.279734	-1.312360	0.152600	1.724380	-0.775267	0.023498	0.618468	-1.000000	-1.000000	-1.000000	-1.000000	-1.000000	-1.000000	-1.000000	65.000000	0.000000	-1.000000	-1.000000	699253.000000	1775723003.095964
92652.930000	27186.885000	88143.885000	19815.390000	24779.970000	26045.190000	53129.970000	81446.085000	-5.784592	-6.844344	-8.223445	-9.434267	-8.198912	-2.266560	-3.694366	-3.940329	-1.312360	0.152600	1.724380	-0.775267	0.023498	0.618468	-1.000000	-1.000000	-1.000000	-1.000000	-1.000000	-1.000000	-1.000000	65.000000	0.000000	-1.000000	-1.000000	699254.000000	1775723003.095973
92653.020000	27184.005000	88143.120000	19814.895000	24779.295000	26068.185000	53122.095000	81437.760000	-4.571099	-8.142264	-7.170211	-10.188631	-4.359772	-0.384547	-6.136268	-4.569178	-1.312360	0.152600	1.724380	-0.775267	0.023498	0.618468	-1.000000	-1.000000	-1.000000	-1.000000	-1.000000	-1.000000	-1.000000	65.000000	0.000000	-1.000000	-1.000000	699255.000000	1775723003.108353
92658.285000	27189.945000	88152.300000	19830.780000	24802.830000	26120.880000	53122.635000	81427.680000	-1.768340	-6.499603	-3.273018	-6.867393	1.831807	5.374925	-5.938394	-4.047601	-1.312360	0.152600	1.724380	-0.775267	0.023498	0.618468	-1.000000	-1.000000	-1.000000	-1.000000	-1.000000	-1.000000	-1.000000	65.000000	0.000000	-1.000000	-1.000000	699256.000000	1775723003.108373
92664.225000	27199.350000	88164.945000	19844.955000	24812.100000	26133.750000	53132.085000	81430.380000	2.429507	-1.084338	2.993371	0.701584	8.797278	16.159065	-2.463952	-2.589566	-1.312360	0.152600	1.724380	-0.775267	0.023498	0.618468	-1.000000	-1.000000	-1.000000	-1.000000	-1.000000	-1.000000	-1.000000	65.000000	0.000000	-1.000000	-1.000000	699257.000000	1775723003.108397
92677.365000	27214.155000	88179.885000	19860.660000	24811.245000	26120.295000	53152.110000	81457.830000	6.788197	6.520473	9.679217	9.931386	13.975667	25.683093	3.693044	0.366970	-1.312360	0.152600	1.724380	-0.775267	0.023498	0.618468	-1.000000	-1.000000	-1.000000	-1.000000	-1.000000	-1.000000	-1.000000	65.000000	0.000000	-1.000000	-1.000000	699258.000000	1775723003.108407
92679.165000	27213.750000	88178.130000	19862.055000	24809.085000	26109.315000	53154.090000	81476.910000	9.594293	12.920013	13.831499	16.336013	13.997823	24.193287	10.303412	5.724047	-1.312360	0.152600	1.724380	-0.775267	0.023498	0.618468	-1.000000	-1.000000	-1.000000	-1.000000	-1.000000	-1.000000	-1.000000	65.000000	0.000000	-1.000000	-1.000000	699259.000000	1775723003.108419
92673.180000	27207.225000	88171.605000	19861.920000	24814.170000	26134.920000	53150.130000	81478.080000	9.117556	14.383590	12.604094	16.070441	7.911761	9.704663	13.567437	11.832660	-1.312360	0.152600	1.724380	-0.775267	0.023498	0.618468	-1.000000	-1.000000	-1.000000	-1.000000	-1.000000	-1.000000	-1.000000	65.000000	0.000000	-1.000000	-1.000000	699260.000000	1775723003.108428
92666.835000	27193.320000	88156.035000	19846.395000	24798.330000	26127.810000	53139.015000	81474.930000	4.540075	9.096841	5.242790	8.412300	-1.498075	-9.067789	10.358654	14.021609	-1.632820	-0.534100	2.502640	-0.775083	0.024414	0.621336	-1.000000	-1.000000	-1.000000	-1.000000	-1.000000	-1.000000	-1.000000	65.000000	0.000000	-1.000000	-1.000000	699261.000000	1775723003.110575
92665.980000	27187.920000	88148.745000	19838.790000	24792.300000	26114.670000	53133.795000	81472.455000	-2.610932	-0.967050	-5.529356	-3.606027	-10.279715	-22.235611	1.297357	9.035455	-1.632820	-0.534100	2.502640	-0.775083	0.024414	0.621336	-1.000000	-1.000000	-1.000000	-1.000000	-1.000000	-1.000000	-1.000000	65.000000	0.000000	-1.000000	-1.000000	699262.000000	1775723003.110590
92670.165000	27196.020000	88159.140000	19855.260000	24807.645000	26124.075000	53132.175000	81470.745000	-8.680582	-10.466743	-14.224198	-14.101180	-14.945829	-26.042633	-8.990187	-1.275169	-1.632820	-0.534100	2.502640	-0.775083	0.024414	0.621336	-1.000000	-1.000000	-1.000000	-1.000000	-1.000000	-1.000000	-1.000000	65.000000	0.000000	-1.000000	-1.000000	699263.000000	1775723003.113784
92659.860000	27191.970000	88152.660000	19856.430000	24801.840000	26118.225000	53123.850000	81461.115000	-10.614071	-14.105888	-15.909447	-17.224292	-13.183980	-21.238266	-15.148023	-11.586404	-1.632820	-0.534100	2.502640	-0.775083	0.024414	0.621336	-1.000000	-1.000000	-1.000000	-1.000000	-1.000000	-1.000000	-1.000000	65.000000	0.000000	-1.000000	-1.000000	699264.000000	1775723003.113801
92663.370000	27194.310000	88156.845000	19859.625000	24786.045000	26096.895000	53120.160000	81464.580000	-8.263029	-10.667871	-10.147496	-11.762160	-6.434501	-11.305797	-14.799589	-17.109921	-1.632820	-0.534100	2.502640	-0.775083	0.024414	0.621336	-1.000000	-1.000000	-1.000000	-1.000000	-1.000000	-1.000000	-1.000000	65.000000	0.000000	-1.000000	-1.000000	699265.000000	1775723003.120616
92673.360000	27200.340000	88165.395000	19867.590000	24786.990000	26103.015000	53122.230000	81473.175000	-3.306795	-3.133245	-0.718642	-1.914831	0.614441	-1.246233	-9.099571	-15.620180	-1.632820	-0.534100	2.502640	-0.775083	0.024414	0.621336	-1.000000	-1.000000	-1.000000	-1.000000	-1.000000	-1.000000	-1.000000	65.000000	0.000000	-1.000000	-1.000000	699266.000000	1775723003.120634
92675.475000	27200.205000	88166.880000	19876.095000	24791.355000	26101.620000	53118.045000	81472.455000	2.505334	4.384558	7.860191	6.929785	4.933053	6.087528	-0.993378	-8.008423	-1.632820	-0.534100	2.502640	-0.775083	0.024414	0.621336	-1.000000	-1.000000	-1.000000	-1.000000	-1.000000	-1.000000	-1.000000	65.000000	0.000000	-1.000000	-1.000000	699267.000000	1775723003.128564
92670.705000	27199.575000	88164.000000	19882.125000	24800.400000	26098.605000	53111.745000	81465.480000	7.019013	8.715724	12.221554	11.501268	6.980777	10.573997	6.085406	1.641123	-1.632820	-0.534100	2.502640	-0.775083	0.024414	0.621336	-1.000000	-1.000000	-1.000000	-1.000000	-1.000000	-1.000000	-1.000000	65.000000	0.000000	-1.000000	-1.000000	699268.000000	1775723003.128582
92675.790000	27201.960000	88166.745000	19879.740000	24810.255000	26109.585000	53111.340000	81468.720000	8.158052	8.628284	11.039692	10.914195	8.150089	12.538957	9.550298	8.448917	-1.632820	-0.534100	2.502640	-0.775083	0.024414	0.621336	-1.000000	-1.000000	-1.000000	-1.000000	-1.000000	-1.000000	-1.000000	65.000000	0.000000	-1.000000	-1.000000	699269.000000	1775723003.140310
92677.680000	27200.655000	88165.755000	19873.530000	24803.955000	26099.910000	53111.835000	81472.455000	5.859662	5.165388	5.742607	5.951951	8.437972	12.113780	9.088161	10.346449	-1.632820	-0.534100	2.502640	-0.775083	0.024414	0.621336	-1.000000	-1.000000	-1.000000	-1.000000	-1.000000	-1.000000	-1.000000	65.000000	0.000000	-1.000000	-1.000000	699270.000000	1775723003.140330
92666.970000	27193.770000	88156.485000	19869.750000	24787.755000	26069.580000	53105.085000	81467.910000	1.785178	0.437528	-0.758710	-1.259557	6.237109	8.684226	6.177965	8.423557	-1.663340	0.000000	2.426340	-0.773741	0.021973	0.622496	-1.000000	-1.000000	-1.000000	-1.000000	-1.000000	-1.000000	-1.000000	65.000000	0.000000	-1.000000	-1.000000	699271.000000	1775723003.140352
92665.935000	27193.860000	88157.070000	19874.385000	24783.210000	26106.255000	53104.455000	81468.180000	-2.495356	-3.730345	-6.007060	-7.488702	0.597172	2.452043	2.437512	4.612512	-1.663340	0.000000	2.426340	-0.773741	0.021973	0.622496	-1.000000	-1.000000	-1.000000	-1.000000	-1.000000	-1.000000	-1.000000	65.000000	0.000000	-1.000000	-1.000000	699272.000000	1775723003.140362
92662.335000	27189.045000	88154.325000	19879.380000	24796.485000	26153.685000	53102.520000	81465.660000	-5.654443	-6.040706	-8.412655	-9.668253	-6.012638	-1.915728	-0.883453	0.535684	-1.663340	0.000000	2.426340	-0.773741	0.021973	0.622496	-1.000000	-1.000000	-1.000000	-1.000000	-1.000000	-1.000000	-1.000000	65.000000	0.000000	-1.000000	-1.000000	699273.000000	1775723003.140375
92666.970000	27193.185000	88161.705000	19887.570000	24800.265000	26131.275000	53099.595000	81467.955000	-6.380099	-5.834039	-7.273704	-6.842549	-9.005761	-0.079453	-2.894435	-2.476329	-1.663340	0.000000	2.426340	-0.773741	0.021973	0.622496	-1.000000	-1.000000	-1.000000	-1.000000	-1.000000	-1.000000	-1.000000	65.000000	0.000000	-1.000000	-1.000000	699274.000000	1775723003.140384
92669.445000	27198.765000	88167.645000	19896.975000	24798.870000	26127.180000	53095.995000	81469.710000	-4.189755	-3.239031	-3.111437	-0.775489	-6.536079	3.917396	-3.431617	-3.596527	-1.663340	0.000000	2.426340	-0.773741	0.021973	0.622496	-1.000000	-1.000000	-1.000000	-1.000000	-1.000000	-1.000000	-1.000000	65.000000	0.000000	-1.000000	-1.000000	699275.000000	1775723003.140395
92664.045000	27194.355000	88165.980000	19896.345000	24799.095000	26129.970000	53093.520000	81468.045000	-0.222312	0.648082	2.173435	5.199844	-1.239819	2.969965	-2.947097	-2.888047	-1.663340	0.000000	2.426340	-0.773741	0.021973	0.622496	-1.000000	-1.000000	-1.000000	-1.000000	-1.000000	-1.000000	-1.000000	65.000000	0.000000	-1.000000	-1.000000	699276.000000	1775723003.140404
92663.280000	27187.155000	88161.120000	19890.225000	24796.575000	26120.205000	53092.890000	81473.085000	3.180400	3.668336	5.772837	7.806080	2.969869	-3.553292	-1.935020	-1.231113	-1.663340	0.000000	2.426340	-0.773741	0.021973	0.622496	-1.000000	-1.000000	-1.000000	-1.000000	-1.000000	-1.000000	-1.000000	65.000000	0.000000	-1.000000	-1.000000	699277.000000	1775723003.143248
92660.850000	27180.945000	88154.955000	19887.345000	24786.540000	26123.445000	53089.560000	81472.905000	4.310044	3.935090	5.679282	5.639189	3.929510	-10.856264	-0.722666	0.418588	-1.663340	0.000000	2.426340	-0.773741	0.021973	0.622496	-1.000000	-1.000000	-1.000000	-1.000000	-1.000000	-1.000000	-1.000000	65.000000	0.000000	-1.000000	-1.000000	699278.000000	1775723003.143265
92670.480000	27190.620000	88166.070000	19901.430000	24791.760000	26121.105000	53089.740000	81479.115000	3.438452	1.838981	2.530131	0.597268	1.925311	-14.122644	0.387384	1.514725	-1.663340	0.000000	2.426340	-0.773741	0.021973	0.622496	-1.000000	-1.000000	-1.000000	-1.000000	-1.000000	-1.000000	-1.000000	65.000000	0.000000	-1.000000	-1.000000	699279.000000	1775723003.147073
92676.195000	27196.650000	88171.785000	19909.755000	24793.020000	26115.075000	53086.410000	81481.455000	2.210850	-0.093557	-0.701576	-3.263029	-0.763590	-11.633167	1.124107	1.914274	-1.663340	0.000000	2.426340	-0.773741	0.021973	0.622496	-1.000000	-1.000000	-1.000000	-1.000000	-1.000000	-1.000000	-1.000000	65.000000	0.000000	-1.000000	-1.000000	699280.000000	1775723003.147087
92674.800000	27194.625000	88169.355000	19910.205000	24783.120000	26106.885000	53081.865000	81480.735000	1.682818	-0.053205	-1.721965	-3.520645	-2.017268	-5.371360	1.271814	1.616603	0.991900	0.946120	3.021480	-0.772459	0.021179	0.622984	-1.000000	-1.000000	-1.000000	-1.000000	-1.000000	-1.000000	-1.000000	65.000000	0.000000	-1.000000	-1.000000	699281.000000	1775723003.157304
92669.175000	27188.595000	88162.020000	19905.480000	24787.530000	26141.175000	53079.345000	81479.115000	1.168871	1.027553	-1.167116	-1.511687	-1.701715	1.841622	0.749798	0.531650	0.991900	0.946120	3.021480	-0.772459	0.021179	0.622984	-1.000000	-1.000000	-1.000000	-1.000000	-1.000000	-1.000000	-1.000000	65.000000	0.000000	-1.000000	-1.000000	699282.000000	1775723003.157323
92671.380000	27197.055000	88166.880000	19918.395000	24808.770000	26155.305000	53072.730000	81479.385000	-0.379636	1.269491	-0.901744	0.130767	-0.180036	9.057086	-0.190500	-1.145742	0.991900	0.946120	3.021480	-0.772459	0.021179	0.622984	-1.000000	-1.000000	-1.000000	-1.000000	-1.000000	-1.000000	-1.000000	65.000000	0.000000	-1.000000	-1.000000	699283.000000	1775723003.157344
92683.620000	27212.400000	88185.060000	19942.020000	24826.410000	26172.045000	53075.970000	81487.170000	-2.326237	0.717517	-0.978574	1.023141	2.952601	15.238954	-0.982469	-2.508228	0.991900	0.946120	3.021480	-0.772459	0.021179	0.622984	-1.000000	-1.000000	-1.000000	-1.000000	-1.000000	-1.000000	-1.000000	65.000000	0.000000	-1.000000	-1.000000	699284.000000	1775723003.157354
92695.905000	27222.615000	88201.485000	19960.470000	24815.205000	26131.815000	53074.980000	81496.755000	-2.705465	0.886726	0.262507	2.645186	6.601108	16.609260	-0.958679	-2.345858	0.991900	0.946120	3.021480	-0.772459	0.021179	0.622984	-1.000000	-1.000000	-1.000000	-1.000000	-1.000000	-1.000000	-1.000000	65.000000	0.000000	-1.000000	-1.000000	699285.000000	1775723003.159058
92692.710000	27213.300000	88192.395000	19952.910000	24803.595000	26109.360000	53067.465000	81494.145000	-0.883943	1.778114	2.898272	4.725695	7.066021	9.016193	-0.084884	-0.493908	0.991900	0.946120	3.021480	-0.772459	0.021179	0.622984	-1.000000	-1.000000	-1.000000	-1.000000	-1.000000	-1.000000	-1.000000	65.000000	0.000000	-1.000000	-1.000000	699286.000000	1775723003.159073
92662.695000	27171.180000	88134.435000	19908.315000	24786.045000	26122.410000	53067.105000	81476.100000	0.657134	0.600958	3.114450	3.598499	1.784510	-5.538311	0.749762	1.154652	0.991900	0.946120	3.021480	-0.772459	0.021179	0.622984	-1.000000	-1.000000	-1.000000	-1.000000	-1.000000	-1.000000	-1.000000	65.000000	0.000000	-1.000000	-1.000000	699287.000000	1775723003.163968
92660.850000	27165.960000	88133.670000	19911.645000	24784.380000	26144.505000	53065.620000	81477.720000	-1.177351	-4.925786	-2.866047	-3.515464	-6.985133	-17.191194	0.908758	0.391973	0.991900	0.946120	3.021480	-0.772459	0.021179	0.622984	-1.000000	-1.000000	-1.000000	-1.000000	-1.000000	-1.000000	-1.000000	65.000000	0.000000	-1.000000	-1.000000	699288.000000	1775723003.163983
92666.565000	27175.005000	88162.020000	19932.480000	24780.870000	26122.050000	53059.410000	81480.690000	-5.300184	-11.591611	-11.141042	-12.297647	-13.518311	-17.680711	0.553194	-2.126479	0.991900	0.946120	3.021480	-0.772459	0.021179	0.622984	-1.000000	-1.000000	-1.000000	-1.000000	-1.000000	-1.000000	-1.000000	65.000000	0.000000	-1.000000	-1.000000	699289.000000	1775723003.172371
92668.635000	27178.335000	88178.580000	19947.645000	24795.180000	26132.850000	53059.995000	81482.355000	-7.019341	-12.613133	-12.175218	-14.093705	-13.124817	-8.781242	0.005114	-3.450778	0.991900	0.946120	3.021480	-0.772459	0.021179	0.622984	-1.000000	-1.000000	-1.000000	-1.000000	-1.000000	-1.000000	-1.000000	65.000000	0.000000	-1.000000	-1.000000	699290.000000	1775723003.172391
92674.620000	27184.905000	88184.160000	19946.970000	24803.550000	26140.635000	53059.230000	81487.440000	-3.715311	-5.387770	-2.613406	-6.042938	-5.362148	2.252156	-0.363835	-1.916113	2.472120	2.243220	2.792580	-0.772642	0.023560	0.622984	-1.000000	-1.000000	-1.000000	-1.000000	-1.000000	-1.000000	-1.000000	65.000000	0.000000	-1.000000	-1.000000	699291.000000	1775723003.172412
92674.440000	27182.385000	88171.830000	19935.270000	24795.045000	26129.790000	53050.185000	81487.035000	2.721515	5.852846	10.371850	5.608978	5.477914	9.962288	-0.361725	1.500763	2.472120	2.243220	2.792580	-0.772642	0.023560	0.622984	-1.000000	-1.000000	-1.000000	-1.000000	-1.000000	-1.000000	-1.000000	65.000000	0.000000	-1.000000	-1.000000	699292.000000	1775723003.172421
92677.320000	27185.490000	88168.185000	19931.445000	24788.070000	26118.900000	53042.130000	81478.485000	8.246675	14.347131	16.815351	12.296843	12.785292	11.555754	-0.470490	4.312838	2.472120	2.243220	2.792580	-0.772642	0.023560	0.622984	-1.000000	-1.000000	-1.000000	-1.000000	-1.000000	-1.000000	-1.000000	65.000000	0.000000	-1.000000	-1.000000	699293.000000	1775723003.186033
92666.970000	27180.495000	88159.095000	19939.545000	24787.890000	26117.280000	53036.100000	81463.455000	9.702257	15.867928	12.839378	10.976144	12.621612	7.106732	-1.144597	4.193364	2.472120	2.243220	2.792580	-0.772642	0.023560	0.622984	-1.000000	-1.000000	-1.000000	-1.000000	-1.000000	-1.000000	-1.000000	65.000000	0.000000	-1.000000	-1.000000	699294.000000	1775723003.186052
92669.580000	27183.555000	88169.355000	19940.805000	24786.360000	26118.000000	53041.860000	81472.950000	6.495118	10.676114	2.490302	5.114484	6.565549	0.212105	-1.733884	1.062637	2.472120	2.243220	2.792580	-0.772642	0.023560	0.622984	-1.000000	-1.000000	-1.000000	-1.000000	-1.000000	-1.000000	-1.000000	65.000000	0.000000	-1.000000	-1.000000	699295.000000	1775723003.186074
92684.070000	27199.935000	88197.210000	19964.025000	24801.390000	26131.455000	53055.180000	81496.215000	1.097659	2.642319	-6.322208	0.017668	-0.441940	-4.341891	-0.738295	-1.827631	2.472120	2.243220	2.792580	-0.772642	0.023560	0.622984	-1.000000	-1.000000	-1.000000	-1.000000	-1.000000	-1.000000	-1.000000	65.000000	0.000000	-1.000000	-1.000000	699296.000000	1775723003.186083
92688.165000	27203.085000	88197.480000	19971.945000	24801.210000	26123.985000	53053.425000	81508.230000	-2.654976	-3.524164	-8.006027	-1.249867	-4.158438	-4.216689	2.325608	-0.799714	2.472120	2.243220	2.792580	-0.772642	0.023560	0.622984	-1.000000	-1.000000	-1.000000	-1.000000	-1.000000	-1.000000	-1.000000	65.000000	0.000000	-1.000000	-1.000000	699297.000000	1775723003.186094
92683.395000	27190.620000	88181.235000	19958.805000	24782.085000	26096.490000	53043.030000	81508.140000	-3.264438	-6.081375	-4.078312	0.248192	-4.245640	-1.588228	5.298370	3.571910	2.472120	2.243220	2.792580	-0.772642	0.023560	0.622984	-1.000000	-1.000000	-1.000000	-1.000000	-1.000000	-1.000000	-1.000000	65.000000	0.000000	-1.000000	-1.000000	699298.000000	1775723003.186103
92681.460000	27181.890000	88172.865000	19956.330000	24788.520000	26126.010000	53040.060000	81504.945000	-2.503444	-6.929528	-0.825318	0.588597	-3.488883	-0.078507	5.113303	6.651868	2.472120	2.243220	2.792580	-0.772642	0.023560	0.622984	-1.000000	-1.000000	-1.000000	-1.000000	-1.000000	-1.000000	-1.000000	65.000000	0.000000	-1.000000	-1.000000	699299.000000	1775723003.190558
92676.510000	27180.495000	88174.170000	19964.745000	24802.335000	26178.345000	53037.495000	81495.720000	-2.468444	-7.868295	-1.697140	-2.053044	-3.088435	1.348424	1.370514	4.669657	2.472120	2.243220	2.792580	-0.772642	0.023560	0.622984	-1.000000	-1.000000	-1.000000	-1.000000	-1.000000	-1.000000	-1.000000	65.000000	0.000000	-1.000000	-1.000000	699300.000000	1775723003.190576
92678.085000	27186.120000	88179.435000	19971.900000	24799.230000	26162.505000	53033.265000	81496.080000	-3.337991	-8.001475	-4.384764	-5.201077	-1.735712	5.734562	-3.338555	-1.795625	2.105880	2.380560	2.517900	-0.773008	0.029175	0.622862	-1.000000	-1.000000	-1.000000	-1.000000	-1.000000	-1.000000	-1.000000	65.000000	0.000000	-1.000000	-1.000000	699301.000000	1775723003.193031
92677.455000	27187.065000	88179.975000	19972.980000	24798.510000	26155.800000	53031.780000	81495.855000	-3.827623	-5.515458	-4.906808	-5.750055	0.642820	9.885405	-6.171842	-8.552724	2.105880	2.380560	2.517900	-0.773008	0.029175	0.622862	-1.000000	-1.000000	-1.000000	-1.000000	-1.000000	-1.000000	-1.000000	65.000000	0.000000	-1.000000	-1.000000	699302.000000	1775723003.193045
92678.535000	27187.470000	88179.390000	19973.475000	24794.910000	26148.015000	53028.135000	81496.080000	-2.840980	-0.573860	-2.112614	-3.482475	2.209553	7.447550	-5.976315	-11.333783	2.105880	2.380560	2.517900	-0.773008	0.029175	0.622862	-1.000000	-1.000000	-1.000000	-1.000000	-1.000000	-1.000000	-1.000000	65.000000	0.000000	-1.000000	-1.000000	699303.000000	1775723003.205507
92673.180000	27185.310000	88172.325000	19974.555000	24791.760000	26140.995000	53020.395000	81493.155000	-0.612886	4.454306	1.917217	-0.395817	1.760034	-1.965968	-3.505859	-8.921966	2.105880	2.380560	2.517900	-0.773008	0.029175	0.622862	-1.000000	-1.000000	-1.000000	-1.000000	-1.000000	-1.000000	-1.000000	65.000000	0.000000	-1.000000	-1.000000	699304.000000	1775723003.205522
92676.780000	27183.870000	88175.700000	19979.235000	24795.585000	26144.910000	53018.685000	81496.620000	1.666847	7.081356	4.502427	1.767637	-0.073862	-12.339175	-0.495512	-3.225514	2.105880	2.380560	2.517900	-0.773008	0.029175	0.622862	-1.000000	-1.000000	-1.000000	-1.000000	-1.000000	-1.000000	-1.000000	65.000000	0.000000	-1.000000	-1.000000	699305.000000	1775723003.205540
92677.770000	27180.765000	88176.735000	19981.575000	24795.045000	26145.945000	53015.130000	81494.280000	3.141576	6.449606	4.789493	2.615851	-1.598499	-17.017929	1.783474	2.781854	2.105880	2.380560	2.517900	-0.773008	0.029175	0.622862	-1.000000	-1.000000	-1.000000	-1.000000	-1.000000	-1.000000	-1.000000	65.000000	0.000000	-1.000000	-1.000000	699306.000000	1775723003.205549
92679.660000	27182.835000	88177.365000	19981.530000	24789.780000	26141.985000	53010.630000	81492.390000	3.698627	3.555186	3.658630	2.478701	-1.799633	-13.629810	2.973237	6.687439	2.105880	2.380560	2.517900	-0.773008	0.029175	0.622862	-1.000000	-1.000000	-1.000000	-1.000000	-1.000000	-1.000000	-1.000000	65.000000	0.000000	-1.000000	-1.000000	699307.000000	1775723003.211413
92681.820000	27185.940000	88180.650000	19987.245000	24790.680000	26137.080000	53008.110000	81493.560000	3.451109	0.397978	2.185207	1.740462	-1.073179	-5.097779	3.138472	7.444732	2.105880	2.380560	2.517900	-0.773008	0.029175	0.622862	-1.000000	-1.000000	-1.000000	-1.000000	-1.000000	-1.000000	-1.000000	65.000000	0.000000	-1.000000	-1.000000	699308.000000	1775723003.211431
92693.745000	27198.270000	88196.850000	20007.270000	24799.995000	26126.685000	53015.895000	81509.940000	2.718291	-1.191973	1.215199	1.194662	0.037510	3.378336	2.751471	5.945440	2.105880	2.380560	2.517900	-0.773008	0.029175	0.622862	-1.000000	-1.000000	-1.000000	-1.000000	-1.000000	-1.000000	-1.000000	65.000000	0.000000	-1.000000	-1.000000	699309.000000	1775723003.211451
92702.160000	27206.280000	88205.400000	20015.730000	24797.745000	26092.485000	53017.290000	81524.655000	2.139061	-0.519971	1.404147	1.819253	1.483239	7.528127	2.598443	4.394844	2.105880	2.380560	2.517900	-0.773008	0.029175	0.622862	-1.000000	-1.000000	-1.000000	-1.000000	-1.000000	-1.000000	-1.000000	65.000000	0.000000	-1.000000	-1.000000	699310.000000	1775723003.211461
92697.480000	27198.405000	88196.715000	20004.705000	24785.505000	26089.200000	53006.805000	81517.410000	1.739803	1.222217	2.068951	2.881603	2.489374	5.996236	2.590439	3.761045	-0.488320	1.892240	2.014320	-0.773069	0.035034	0.621214	-1.000000	-1.000000	-1.000000	-1.000000	-1.000000	-1.000000	-1.000000	65.000000	0.000000	-1.000000	-1.000000	699311.000000	1775723003.213157
92687.580000	27187.245000	88188.390000	20003.220000	24797.070000	26164.215000	53005.500000	81506.160000	0.311007	1.393904	1.023979	1.924477	1.933370	3.109264	1.560712	2.263095	-0.488320	1.892240	2.014320	-0.773069	0.035034	0.621214	-1.000000	-1.000000	-1.000000	-1.000000	-1.000000	-1.000000	-1.000000	65.000000	0.000000	-1.000000	-1.000000	699312.000000	1775723003.213174
92688.750000	27189.675000	88193.340000	20016.405000	24816.060000	26211.915000	53007.930000	81508.995000	-2.889717	-1.344423	-2.584909	-1.589167	0.759406	6.785578	-0.714304	-1.807698	-0.488320	1.892240	2.014320	-0.773069	0.035034	0.621214	-1.000000	-1.000000	-1.000000	-1.000000	-1.000000	-1.000000	-1.000000	65.000000	0.000000	-1.000000	-1.000000	699313.000000	1775723003.217888
92678.985000	27182.610000	88182.135000	20012.670000	24804.405000	26184.285000	53000.550000	81502.965000	-6.475118	-5.159423	-6.649512	-4.978683	0.812788	17.076339	-2.886099	-6.915308	-0.488320	1.892240	2.014320	-0.773069	0.035034	0.621214	-1.000000	-1.000000	-1.000000	-1.000000	-1.000000	-1.000000	-1.000000	65.000000	0.000000	-1.000000	-1.000000	699314.000000	1775723003.217905
92677.995000	27177.570000	88176.780000	20004.300000	24786.045000	26157.510000	53000.055000	81505.890000	-8.206828	-7.192119	-8.613216	-6.073040	1.035210	21.825694	-3.842850	-9.791167	-0.488320	1.892240	2.014320	-0.773069	0.035034	0.621214	-1.000000	-1.000000	-1.000000	-1.000000	-1.000000	-1.000000	-1.000000	65.000000	0.000000	-1.000000	-1.000000	699315.000000	1775723003.220383
92686.815000	27182.430000	88184.160000	20011.320000	24789.690000	26161.920000	53000.685000	81512.685000	-6.704995	-6.110899	-7.425191	-5.135835	-0.967150	11.218595	-3.398614	-8.467540	-0.488320	1.892240	2.014320	-0.773069	0.035034	0.621214	-1.000000	-1.000000	-1.000000	-1.000000	-1.000000	-1.000000	-1.000000	65.000000	0.000000	-1.000000	-1.000000	699316.000000	1775723003.220396
92689.830000	27185.760000	88187.760000	20016.900000	24784.650000	26153.235000	52994.070000	81513.315000	-1.956215	-2.168999	-3.107958	-2.779638	-4.394365	-9.537659	-1.886320	-3.396794	-0.488320	1.892240	2.014320	-0.773069	0.035034	0.621214	-1.000000	-1.000000	-1.000000	-1.000000	-1.000000	-1.000000	-1.000000	65.000000	0.000000	-1.000000	-1.000000	699317.000000	1775723003.235797
92693.070000	27190.035000	88194.375000	20027.070000	24797.205000	26153.280000	52995.870000	81514.620000	4.169190	3.147817	3.036733	0.810483	-5.939521	-26.757482	-0.101976	2.780439	-0.488320	1.892240	2.014320	-0.773069	0.035034	0.621214	-1.000000	-1.000000	-1.000000	-1.000000	-1.000000	-1.000000	-1.000000	65.000000	0.000000	-1.000000	-1.000000	699318.000000	1775723003.235816
92699.280000	27194.580000	88201.305000	20035.980000	24801.660000	26146.665000	52996.770000	81518.805000	8.709652	7.542866	8.470943	4.800925	-3.563810	-31.131149	1.310424	6.994733	-0.488320	1.892240	2.014320	-0.773069	0.035034	0.621214	-1.000000	-1.000000	-1.000000	-1.000000	-1.000000	-1.000000	-1.000000	65.000000	0.000000	-1.000000	-1.000000	699319.000000	1775723003.235852
92705.445000	27198.495000	88205.625000	20042.280000	24804.360000	26147.205000	52989.120000	81520.200000	9.787581	9.156960	10.885412	7.598645	1.625773	-22.412329	2.106222	7.819907	-0.488320	1.892240	2.014320	-0.773069	0.035034	0.621214	-1.000000	-1.000000	-1.000000	-1.000000	-1.000000	-1.000000	-1.000000	65.000000	0.000000	-1.000000	-1.000000	699320.000000	1775723003.235862
92693.520000	27184.905000	88193.700000	20035.620000	24800.985000	26146.755000	52982.505000	81510.840000	7.212790	7.227079	9.110097	7.545031	6.180826	-6.670169	1.872849	5.525877	-1.785420	0.228900	1.907500	-0.774473	0.038574	0.618712	-1.000000	-1.000000	-1.000000	-1.000000	-1.000000	-1.000000	-1.000000	65.000000	0.000000	-1.000000	-1.000000	699321.000000	1775723003.235877
92680.650000	27170.145000	88177.815000	20019.510000	24780.645000	26120.565000	52977.465000	81504.405000	1.577521	1.897465	3.164520	3.657311	6.770479	8.111736	0.453272	1.107998	-1.785420	0.228900	1.907500	-0.774473	0.038574	0.618712	-1.000000	-1.000000	-1.000000	-1.000000	-1.000000	-1.000000	-1.000000	65.000000	0.000000	-1.000000	-1.000000	699322.000000	1775723003.235886
92679.210000	27169.830000	88177.230000	20022.480000	24786.720000	26155.035000	52979.355000	81506.655000	-5.392467	-5.075120	-4.965281	-3.050936	2.710194	16.403339	-1.232408	-3.640456	-1.785420	0.228900	1.907500	-0.774473	0.038574	0.618712	-1.000000	-1.000000	-1.000000	-1.000000	-1.000000	-1.000000	-1.000000	65.000000	0.000000	-1.000000	-1.000000	699323.000000	1775723003.235897
92676.915000	27167.220000	88172.820000	20020.545000	24784.065000	26192.385000	52973.730000	81506.835000	-10.362954	-10.031835	-11.173604	-8.944016	-2.952614	18.957478	-1.842105	-6.265024	-1.785420	0.228900	1.907500	-0.774473	0.038574	0.618712	-1.000000	-1.000000	-1.000000	-1.000000	-1.000000	-1.000000	-1.000000	65.000000	0.000000	-1.000000	-1.000000	699324.000000	1775723003.235906
92673.810000	27169.605000	88169.985000	20025.405000	24785.550000	26175.240000	52964.730000	81503.550000	-10.558891	-9.924088	-12.009830	-10.257260	-6.027739	19.131979	-1.167101	-5.467411	-1.785420	0.228900	1.907500	-0.774473	0.038574	0.618712	-1.000000	-1.000000	-1.000000	-1.000000	-1.000000	-1.000000	-1.000000	65.000000	0.000000	-1.000000	-1.000000	699325.000000	1775723003.241970
92683.620000	27173.880000	88181.730000	20034.720000	24783.480000	26162.685000	52966.035000	81511.470000	-5.943659	-4.819641	-7.190269	-6.130585	-4.986136	15.669925	-0.121087	-2.106606	-1.785420	0.228900	1.907500	-0.774473	0.038574	0.618712	-1.000000	-1.000000	-1.000000	-1.000000	-1.000000	-1.000000	-1.000000	65.000000	0.000000	-1.000000	-1.000000	699326.000000	1775723003.241990
92691.450000	27177.120000	88190.010000	20043.135000	24785.505000	26161.965000	52966.395000	81519.840000	1.357460	2.475024	1.016857	1.241818	-1.314922	5.850907	0.809066	2.124107	-1.785420	0.228900	1.907500	-0.774473	0.038574	0.618712	-1.000000	-1.000000	-1.000000	-1.000000	-1.000000	-1.000000	-1.000000	65.000000	0.000000	-1.000000	-1.000000	699327.000000	1775723003.244157
92683.530000	27172.755000	88183.035000	20045.205000	24781.410000	26130.600000	52952.310000	81511.560000	8.071891	8.229797	8.846017	8.094989	2.447345	-7.907483	1.538831	5.490386	-1.785420	0.228900	1.907500	-0.774473	0.038574	0.618712	-1.000000	-1.000000	-1.000000	-1.000000	-1.000000	-1.000000	-1.000000	65.000000	0.000000	-1.000000	-1.000000	699328.000000	1775723003.244175
92683.305000	27173.610000	88184.070000	20045.070000	24781.995000	26122.365000	52948.710000	81500.355000	10.759013	9.738626	12.258719	10.947145	4.374267	-19.781151	1.455048	5.957079	-1.785420	0.228900	1.907500	-0.774473	0.038574	0.618712	-1.000000	-1.000000	-1.000000	-1.000000	-1.000000	-1.000000	-1.000000	65.000000	0.000000	-1.000000	-1.000000	699329.000000	1775723003.249570
92687.355000	27175.905000	88189.200000	20047.230000	24791.715000	26151.165000	52956.270000	81498.330000	8.304595	6.914448	9.844041	8.581548	4.194833	-23.914345	0.568292	2.680723	-1.785420	0.228900	1.907500	-0.774473	0.038574	0.618712	-1.000000	-1.000000	-1.000000	-1.000000	-1.000000	-1.000000	-1.000000	65.000000	0.000000	-1.000000	-1.000000	699330.000000	1775723003.249587
92687.715000	27178.920000	88195.230000	20059.515000	24811.605000	26207.010000	52962.435000	81502.695000	2.942413	2.072975	4.011202	2.931617	3.400869	-15.812306	0.328467	-2.178505	-1.144500	-0.671440	1.007160	-0.777098	0.037048	0.617735	-1.000000	-1.000000	-1.000000	-1.000000	-1.000000	-1.000000	-1.000000	65.000000	0.000000	-1.000000	-1.000000	699331.000000	1775723003.251995
92695.320000	27192.555000	88206.885000	20078.010000	24824.385000	26203.905000	52962.210000	81516.105000	-2.003522	-1.889901	-1.421871	-2.144187	3.608957	2.813537	1.583714	-4.812589	-1.144500	-0.671440	1.007160	-0.777098	0.037048	0.617735	-1.000000	-1.000000	-1.000000	-1.000000	-1.000000	-1.000000	-1.000000	65.000000	0.000000	-1.000000	-1.000000	699332.000000	1775723003.252014
92695.230000	27184.770000	88200.630000	20068.290000	24798.105000	26136.090000	52952.445000	81525.600000	-4.485977	-3.428052	-4.275023	-4.146915	3.867056	19.728199	2.935360	-3.080270	-1.144500	-0.671440	1.007160	-0.777098	0.037048	0.617735	-1.000000	-1.000000	-1.000000	-1.000000	-1.000000	-1.000000	-1.000000	65.000000	0.000000	-1.000000	-1.000000	699333.000000	1775723003.265695
92699.145000	27181.485000	88197.885000	20066.580000	24791.805000	26118.135000	52951.185000	81533.475000	-4.434380	-3.389840	-5.108023	-4.182029	0.994976	20.492969	2.292734	1.683677	-1.144500	-0.671440	1.007160	-0.777098	0.037048	0.617735	-1.000000	-1.000000	-1.000000	-1.000000	-1.000000	-1.000000	-1.000000	65.000000	0.000000	-1.000000	-1.000000	699334.000000	1775723003.265709
92696.445000	27174.150000	88190.370000	20063.160000	24793.560000	26167.410000	52950.555000	81531.045000	-3.112307	-3.614630	-5.575574	-4.605230	-5.422010	5.477375	-0.460155	5.767960	-1.144500	-0.671440	1.007160	-0.777098	0.037048	0.617735	-1.000000	-1.000000	-1.000000	-1.000000	-1.000000	-1.000000	-1.000000	65.000000	0.000000	-1.000000	-1.000000	699335.000000	1775723003.265726
92688.885000	27167.805000	88186.365000	20063.970000	24795.675000	26216.100000	52950.060000	81525.600000	-2.025850	-4.616330	-6.198049	-5.653578	-11.010341	-8.611005	-3.337270	5.877513	-1.144500	-0.671440	1.007160	-0.777098	0.037048	0.617735	-1.000000	-1.000000	-1.000000	-1.000000	-1.000000	-1.000000	-1.000000	65.000000	0.000000	-1.000000	-1.000000	699336.000000	1775723003.265732
92698.380000	27177.660000	88197.660000	20075.940000	24798.960000	26184.645000	52942.545000	81531.315000	-1.805648	-5.145348	-5.891045	-5.584160	-11.332486	-8.963230	-4.576732	1.669511	-1.144500	-0.671440	1.007160	-0.777098	0.037048	0.617735	-1.000000	-1.000000	-1.000000	-1.000000	-1.000000	-1.000000	-1.000000	65.000000	0.000000	-1.000000	-1.000000	699337.000000	1775723003.265738
92700.000000	27179.235000	88199.190000	20076.885000	24795.090000	26169.795000	52933.410000	81529.425000	-1.575515	-3.454676	-3.214802	-2.950403	-6.175929	-0.737666	-4.170069	-3.955531	-1.144500	-0.671440	1.007160	-0.777098	0.037048	0.617735	-1.000000	-1.000000	-1.000000	-1.000000	-1.000000	-1.000000	-1.000000	65.000000	0.000000	-1.000000	-1.000000	699338.000000	1775723003.265743
92694.870000	27175.500000	88196.625000	20077.740000	24798.285000	26182.305000	52934.670000	81524.070000	-0.470574	0.460934	1.402086	1.430719	1.064741	3.985721	-2.983291	-7.644039	-1.144500	-0.671440	1.007160	-0.777098	0.037048	0.617735	-1.000000	-1.000000	-1.000000	-1.000000	-1.000000	-1.000000	-1.000000	65.000000	0.000000	-1.000000	-1.000000	699339.000000	1775723003.267640
92692.620000	27174.375000	88196.805000	20081.655000	24795.495000	26186.175000	52936.155000	81524.610000	0.819898	4.286344	5.398078	5.051323	6.594316	1.943822	-1.234067	-8.096472	-1.144500	-0.671440	1.007160	-0.777098	0.037048	0.617735	-1.000000	-1.000000	-1.000000	-1.000000	-1.000000	-1.000000	-1.000000	65.000000	0.000000	-1.000000	-1.000000	699340.000000	1775723003.267657
92700.180000	27181.485000	88204.095000	20089.800000	24790.275000	26171.145000	52932.060000	81530.055000	1.412401	5.918285	6.763721	6.292539	8.372344	-2.578471	1.140247	-5.633249	0.747740	-1.297100	0.106820	-0.777830	0.034729	0.617308	-1.000000	-1.000000	-1.000000	-1.000000	-1.000000	-1.000000	-1.000000	65.000000	0.000000	-1.000000	-1.000000	699341.000000	1775723003.274071
92703.600000	27182.205000	88203.195000	20092.185000	24794.235000	26170.380000	52931.790000	81535.095000	1.658458	5.316702	5.640349	5.371387	6.528039	-5.959356	3.371697	-1.182862	0.747740	-1.297100	0.106820	-0.777830	0.034729	0.617308	-1.000000	-1.000000	-1.000000	-1.000000	-1.000000	-1.000000	-1.000000	65.000000	0.000000	-1.000000	-1.000000	699342.000000	1775723003.274090
92699.910000	27177.120000	88197.390000	20088.630000	24783.840000	26156.880000	52927.110000	81535.050000	2.013672	3.367218	3.032984	3.073551	2.809759	-7.052207	4.336157	3.621554	0.747740	-1.297100	0.106820	-0.777830	0.034729	0.617308	-1.000000	-1.000000	-1.000000	-1.000000	-1.000000	-1.000000	-1.000000	65.000000	0.000000	-1.000000	-1.000000	699343.000000	1775723003.279437
92690.910000	27170.055000	88187.130000	20084.760000	24777.765000	26154.360000	52916.130000	81524.475000	1.789971	0.516359	-0.459512	-0.120143	-0.988864	-5.841652	3.431188	6.483722	0.747740	-1.297100	0.106820	-0.777830	0.034729	0.617308	-1.000000	-1.000000	-1.000000	-1.000000	-1.000000	-1.000000	-1.000000	65.000000	0.000000	-1.000000	-1.000000	699344.000000	1775723003.279454
92689.020000	27165.870000	88182.810000	20083.005000	24781.095000	26166.825000	52911.855000	81518.445000	0.194747	-2.758123	-4.135722	-3.488474	-3.656848	-2.523813	0.875704	5.702868	0.747740	-1.297100	0.106820	-0.777830	0.034729	0.617308	-1.000000	-1.000000	-1.000000	-1.000000	-1.000000	-1.000000	-1.000000	65.000000	0.000000	-1.000000	-1.000000	699345.000000	1775723003.279476
92695.410000	27166.320000	88187.130000	20085.210000	24785.820000	26173.845000	52909.470000	81520.155000	-1.939931	-5.201555	-6.410349	-5.660055	-4.033654	2.741351	-2.005594	1.954448	0.747740	-1.297100	0.106820	-0.777830	0.034729	0.617308	-1.000000	-1.000000	-1.000000	-1.000000	-1.000000	-1.000000	-1.000000	65.000000	0.000000	-1.000000	-1.000000	699346.000000	1775723003.279485
92704.995000	27179.730000	88202.835000	20104.380000	24797.520000	26175.600000	52913.025000	81527.715000	-2.518732	-5.156162	-5.352103	-5.094460	-1.605237	8.488880	-3.325418	-1.730119	0.747740	-1.297100	0.106820	-0.777830	0.034729	0.617308	-1.000000	-1.000000	-1.000000	-1.000000	-1.000000	-1.000000	-1.000000	65.000000	0.000000	-1.000000	-1.000000	699347.000000	1775723003.283938
92712.060000	27188.775000	88212.960000	20119.365000	24805.080000	26182.035000	52924.455000	81542.655000	-0.456253	-1.826628	-0.474844	-1.098306	2.586509	11.810787	-1.933120	-2.369564	0.747740	-1.297100	0.106820	-0.777830	0.034729	0.617308	-1.000000	-1.000000	-1.000000	-1.000000	-1.000000	-1.000000	-1.000000	65.000000	0.000000	-1.000000	-1.000000	699348.000000	1775723003.283955
92706.030000	27181.980000	88207.110000	20121.660000	24796.980000	26179.065000	52920.630000	81543.915000	2.778943	3.170507	5.692003	4.679310	5.979715	10.685349	1.550173	0.418344	0.747740	-1.297100	0.106820	-0.777830	0.034729	0.617308	-1.000000	-1.000000	-1.000000	-1.000000	-1.000000	-1.000000	-1.000000	65.000000	0.000000	-1.000000	-1.000000	699349.000000	1775723003.286850
92699.730000	27175.095000	88202.520000	20126.430000	24794.685000	26178.390000	52912.530000	81537.615000	4.182080	6.140997	8.731246	8.450990	5.823703	5.421048	4.503171	3.824847	0.747740	-1.297100	0.106820	-0.777830	0.034729	0.617308	-1.000000	-1.000000	-1.000000	-1.000000	-1.000000	-1.000000	-1.000000	65.000000	0.000000	-1.000000	-1.000000	699350.000000	1775723003.286865
92702.295000	27178.560000	88201.755000	20127.420000	24792.615000	26175.330000	52909.155000	81538.335000	2.219026	4.752912	6.259819	7.442850	1.684201	-1.743972	4.258804	4.358016	2.624720	-0.793520	-0.198380	-0.777647	0.033264	0.616637	-1.000000	-1.000000	-1.000000	-1.000000	-1.000000	-1.000000	-1.000000	65.000000	0.000000	-1.000000	-1.000000	699351.000000	1775723003.292984
92704.635000	27180.810000	88192.935000	20104.695000	24785.145000	26169.885000	52904.925000	81538.785000	-1.477057	0.522234	0.011044	1.803341	-3.965558	-7.895902	0.811594	1.347203	2.624720	-0.793520	-0.198380	-0.777647	0.033264	0.616637	-1.000000	-1.000000	-1.000000	-1.000000	-1.000000	-1.000000	-1.000000	65.000000	0.000000	-1.000000	-1.000000	699352.000000	1775723003.293003
92686.725000	27177.840000	88178.535000	20112.930000	24782.400000	26160.165000	52890.435000	81522.360000	-4.333754	-3.231867	-6.435429	-5.988824	-8.033620	-11.034349	-3.570726	-3.146380	2.624720	-0.793520	-0.198380	-0.777647	0.033264	0.616637	-1.000000	-1.000000	-1.000000	-1.000000	-1.000000	-1.000000	-1.000000	65.000000	0.000000	-1.000000	-1.000000	699353.000000	1775723003.294438
92686.275000	27176.670000	88190.145000	20119.275000	24784.380000	26153.145000	52886.430000	81521.955000	-5.516334	-4.678145	-10.039346	-11.561636	-8.639173	-10.771943	-6.671916	-6.887747	2.624720	-0.793520	-0.198380	-0.777647	0.033264	0.616637	-1.000000	-1.000000	-1.000000	-1.000000	-1.000000	-1.000000	-1.000000	65.000000	0.000000	-1.000000	-1.000000	699354.000000	1775723003.294457
92703.645000	27178.245000	88209.090000	20127.195000	24788.700000	26149.365000	52893.765000	81539.100000	-4.734318	-3.943151	-8.450278	-11.014855	-5.484189	-7.735034	-6.935638	-7.844371	2.624720	-0.793520	-0.198380	-0.777647	0.033264	0.616637	-1.000000	-1.000000	-1.000000	-1.000000	-1.000000	-1.000000	-1.000000	65.000000	0.000000	-1.000000	-1.000000	699355.000000	1775723003.299513
92705.220000	27178.470000	88209.045000	20132.685000	24791.670000	26155.530000	52897.455000	81543.060000	-1.213926	-1.902960	-1.528451	-4.546946	0.062448	-2.738360	-3.555475	-4.436161	2.624720	-0.793520	-0.198380	-0.777647	0.033264	0.616637	-1.000000	-1.000000	-1.000000	-1.000000	-1.000000	-1.000000	-1.000000	65.000000	0.000000	-1.000000	-1.000000	699356.000000	1775723003.299538
92706.390000	27181.170000	88210.620000	20139.120000	24800.445000	26179.785000	52899.480000	81545.445000	3.960395	0.474431	6.745021	3.809740	5.558190	3.640657	2.265662	2.048910	2.624720	-0.793520	-0.198380	-0.777647	0.033264	0.616637	-1.000000	-1.000000	-1.000000	-1.000000	-1.000000	-1.000000	-1.000000	65.000000	0.000000	-1.000000	-1.000000	699357.000000	1775723003.306056
92703.510000	27178.290000	88206.930000	20136.195000	24803.460000	26209.755000	52895.565000	81543.510000	7.498156	2.280290	10.953504	9.453957	8.814481	10.833156	7.316493	7.505073	2.624720	-0.793520	-0.198380	-0.777647	0.033264	0.616637	-1.000000	-1.000000	-1.000000	-1.000000	-1.000000	-1.000000	-1.000000	65.000000	0.000000	-1.000000	-1.000000	699358.000000	1775723003.306075
92700.360000	27173.745000	88204.095000	20133.675000	24789.330000	26194.365000	52888.320000	81542.160000	6.996789	2.764305	8.804151	9.790856	8.427526	16.463616	8.564024	8.574604	2.624720	-0.793520	-0.198380	-0.777647	0.033264	0.616637	-1.000000	-1.000000	-1.000000	-1.000000	-1.000000	-1.000000	-1.000000	65.000000	0.000000	-1.000000	-1.000000	699359.000000	1775723003.307728
92706.435000	27179.730000	88211.655000	20143.485000	24787.260000	26172.180000	52884.045000	81547.380000	3.031590	1.854121	2.403729	5.512418	4.055297	15.554018	5.323785	5.223342	2.624720	-0.793520	-0.198380	-0.777647	0.033264	0.616637	-1.000000	-1.000000	-1.000000	-1.000000	-1.000000	-1.000000	-1.000000	65.000000	0.000000	-1.000000	-1.000000	699360.000000	1775723003.307745
92710.935000	27183.780000	88216.020000	20150.505000	24779.745000	26145.405000	52879.905000	81549.450000	-1.500574	0.613283	-3.790241	0.077344	-2.504357	5.059859	-0.321109	0.204100	2.395820	1.297100	0.137340	-0.777464	0.035278	0.617918	-1.000000	-1.000000	-1.000000	-1.000000	-1.000000	-1.000000	-1.000000	65.000000	0.000000	-1.000000	-1.000000	699361.000000	1775723003.314427
92716.110000	27190.935000	88225.695000	20167.290000	24798.780000	26159.355000	52883.685000	81551.880000	-3.877780	0.292408	-6.340428	-2.981215	-7.461808	-10.531720	-5.013175	-3.517086	2.395820	1.297100	0.137340	-0.777464	0.035278	0.617918	-1.000000	-1.000000	-1.000000	-1.000000	-1.000000	-1.000000	-1.000000	65.000000	0.000000	-1.000000	-1.000000	699362.000000	1775723003.314448
92712.555000	27188.055000	88223.085000	20167.290000	24802.110000	26197.695000	52885.665000	81549.855000	-3.626047	0.907328	-4.960031	-2.662322	-7.500266	-20.450106	-6.266897	-4.781948	2.395820	1.297100	0.137340	-0.777464	0.035278	0.617918	-1.000000	-1.000000	-1.000000	-1.000000	-1.000000	-1.000000	-1.000000	65.000000	0.000000	-1.000000	-1.000000	699363.000000	1775723003.314470
92720.610000	27195.930000	88230.870000	20174.625000	24800.805000	26160.435000	52877.745000	81555.345000	-2.113179	1.394149	-1.860556	-0.763983	-2.885442	-17.533005	-4.083024	-4.085413	2.395820	1.297100	0.137340	-0.777464	0.035278	0.617918	-1.000000	-1.000000	-1.000000	-1.000000	-1.000000	-1.000000	-1.000000	65.000000	0.000000	-1.000000	-1.000000	699364.000000	1775723003.314480
92719.575000	27194.085000	88228.260000	20173.860000	24798.735000	26142.480000	52865.910000	81555.480000	-0.674142	0.985106	0.562446	0.236731	2.462046	-6.567693	-0.936705	-2.359821	2.395820	1.297100	0.137340	-0.777464	0.035278	0.617918	-1.000000	-1.000000	-1.000000	-1.000000	-1.000000	-1.000000	-1.000000	65.000000	0.000000	-1.000000	-1.000000	699365.000000	1775723003.329821
92702.925000	27174.420000	88208.955000	20160.810000	24803.595000	26235.855000	52868.295000	81547.335000	-0.209803	-0.638764	0.834660	-0.919743	4.906618	4.033411	0.714857	-0.623245	2.395820	1.297100	0.137340	-0.777464	0.035278	0.617918	-1.000000	-1.000000	-1.000000	-1.000000	-1.000000	-1.000000	-1.000000	65.000000	0.000000	-1.000000	-1.000000	699366.000000	1775723003.329841
92697.750000	27166.050000	88201.395000	20153.520000	24801.345000	26264.160000	52868.430000	81547.425000	-1.447919	-3.700054	-1.524523	-4.035650	3.922124	13.732621	0.861462	0.121019	2.395820	1.297100	0.137340	-0.777464	0.035278	0.617918	-1.000000	-1.000000	-1.000000	-1.000000	-1.000000	-1.000000	-1.000000	65.000000	0.000000	-1.000000	-1.000000	699367.000000	1775723003.329865
92701.395000	27166.635000	88203.690000	20156.085000	24781.005000	26200.845000	52868.295000	81552.330000	-3.539095	-6.935500	-4.855225	-7.219160	0.740358	21.477921	0.991869	-0.048308	2.395820	1.297100	0.137340	-0.777464	0.035278	0.617918	-1.000000	-1.000000	-1.000000	-1.000000	-1.000000	-1.000000	-1.000000	65.000000	0.000000	-1.000000	-1.000000	699368.000000	1775723003.329875
92702.025000	27164.475000	88204.770000	20160.270000	24765.030000	26187.435000	52865.460000	81551.925000	-4.006776	-7.564634	-5.822221	-7.552551	-3.644709	18.379606	1.706511	0.023699	2.395820	1.297100	0.137340	-0.777464	0.035278	0.617918	-1.000000	-1.000000	-1.000000	-1.000000	-1.000000	-1.000000	-1.000000	65.000000	0.000000	-1.000000	-1.000000	699369.000000	1775723003.329906
92704.185000	27165.690000	88208.775000	20168.055000	24788.655000	26220.105000	52862.580000	81552.510000	-1.522284	-4.181661	-2.670381	-3.592667	-7.253120	2.033391	2.325615	0.881858	2.395820	1.297100	0.137340	-0.777464	0.035278	0.617918	-1.000000	-1.000000	-1.000000	-1.000000	-1.000000	-1.000000	-1.000000	65.000000	0.000000	-1.000000	-1.000000	699370.000000	1775723003.329916
92703.195000	27164.970000	88208.145000	20167.335000	24787.035000	26202.960000	52856.280000	81552.645000	2.625503	1.707289	3.044036	3.018669	-6.615017	-15.915365	1.993145	1.905504	0.198380	1.785420	0.518840	-0.776060	0.036255	0.618407	-1.000000	-1.000000	-1.000000	-1.000000	-1.000000	-1.000000	-1.000000	65.000000	0.000000	-1.000000	-1.000000	699371.000000	1775723003.331214
92704.680000	27167.985000	88211.880000	20175.255000	24789.195000	26197.425000	52853.805000	81554.625000	5.939961	7.126943	8.003573	8.737351	-0.968710	-23.935797	0.572956	2.329452	0.198380	1.785420	0.518840	-0.776060	0.036255	0.618407	-1.000000	-1.000000	-1.000000	-1.000000	-1.000000	-1.000000	-1.000000	65.000000	0.000000	-1.000000	-1.000000	699372.000000	1775723003.331229
92702.430000	27161.595000	88205.400000	20171.745000	24786.045000	26204.085000	52854.480000	81554.490000	6.698017	9.612610	9.571848	10.735872	5.816333	-20.390582	-1.108908	1.951277	0.198380	1.785420	0.518840	-0.776060	0.036255	0.618407	-1.000000	-1.000000	-1.000000	-1.000000	-1.000000	-1.000000	-1.000000	65.000000	0.000000	-1.000000	-1.000000	699373.000000	1775723003.340041
92705.895000	27165.510000	88211.610000	20180.295000	24792.525000	26212.005000	52850.610000	81555.570000	4.844102	8.322032	7.212705	8.491733	9.366397	-9.382293	-1.934468	1.016720	0.198380	1.785420	0.518840	-0.776060	0.036255	0.618407	-1.000000	-1.000000	-1.000000	-1.000000	-1.000000	-1.000000	-1.000000	65.000000	0.000000	-1.000000	-1.000000	699374.000000	1775723003.340060
92718.090000	27177.525000	88224.795000	20196.945000	24800.715000	26216.370000	52849.890000	81563.760000	1.898240	4.599857	2.840209	3.953811	8.566801	3.684796	-1.562826	0.068625	0.198380	1.785420	0.518840	-0.776060	0.036255	0.618407	-1.000000	-1.000000	-1.000000	-1.000000	-1.000000	-1.000000	-1.000000	65.000000	0.000000	-1.000000	-1.000000	699375.000000	1775723003.340083
92723.130000	27182.610000	88229.655000	20203.605000	24801.030000	26205.435000	52847.235000	81566.145000	-0.159670	1.054801	-0.632908	0.073641	5.073490	13.305447	-0.523403	-0.263560	0.198380	1.785420	0.518840	-0.776060	0.036255	0.618407	-1.000000	-1.000000	-1.000000	-1.000000	-1.000000	-1.000000	-1.000000	65.000000	0.000000	-1.000000	-1.000000	699376.000000	1775723003.340092
92720.430000	27177.390000	88223.895000	20195.910000	24782.940000	26177.715000	52838.505000	81563.670000	-0.816007	-1.049230	-2.173906	-2.100856	0.468168	15.234523	0.341187	-0.049423	0.198380	1.785420	0.518840	-0.776060	0.036255	0.618407	-1.000000	-1.000000	-1.000000	-1.000000	-1.000000	-1.000000	-1.000000	65.000000	0.000000	-1.000000	-1.000000	699377.000000	1775723003.346073
92711.835000	27164.970000	88212.015000	20185.155000	24764.805000	26163.135000	52835.715000	81560.745000	-1.455409	-2.786935	-3.292648	-4.081787	-4.958025	8.760190	0.369968	-0.204221	0.198380	1.785420	0.518840	-0.776060	0.036255	0.618407	-1.000000	-1.000000	-1.000000	-1.000000	-1.000000	-1.000000	-1.000000	65.000000	0.000000	-1.000000	-1.000000	699378.000000	1775723003.346092
92710.080000	27162.630000	88213.230000	20193.570000	24778.980000	26182.980000	52840.170000	81562.680000	-3.306413	-5.349569	-5.329543	-6.816657	-9.956661	-1.245155	-0.151624	-1.217839	0.198380	1.785420	0.518840	-0.776060	0.036255	0.618407	-1.000000	-1.000000	-1.000000	-1.000000	-1.000000	-1.000000	-1.000000	65.000000	0.000000	-1.000000	-1.000000	699379.000000	1775723003.353366
92710.080000	27163.440000	88211.340000	20193.705000	24773.670000	26176.095000	52827.795000	81561.735000	-5.581191	-7.749307	-7.235671	-8.554616	-11.225242	-7.065616	-0.339398	-2.389708	0.198380	1.785420	0.518840	-0.776060	0.036255	0.618407	-1.000000	-1.000000	-1.000000	-1.000000	-1.000000	-1.000000	-1.000000	65.000000	0.000000	-1.000000	-1.000000	699380.000000	1775723003.353386
92705.580000	27161.010000	88207.515000	20197.260000	24781.680000	26188.020000	52819.515000	81554.355000	-6.353526	-7.779806	-6.996039	-7.147400	-6.955248	-5.171731	-0.266283	-2.853716	0.473060	2.578940	1.007160	-0.776304	0.034241	0.617613	-1.000000	-1.000000	-1.000000	-1.000000	-1.000000	-1.000000	-1.000000	65.000000	0.000000	-1.000000	-1.000000	699381.000000	1775723003.353412
92714.805000	27166.230000	88218.495000	20205.765000	24790.320000	26205.795000	52819.020000	81550.620000	-4.565900	-4.610739	-3.941962	-2.692323	0.853989	1.863890	-0.542448	-2.596614	0.473060	2.578940	1.007160	-0.776304	0.034241	0.617613	-1.000000	-1.000000	-1.000000	-1.000000	-1.000000	-1.000000	-1.000000	65.000000	0.000000	-1.000000	-1.000000	699382.000000	1775723003.353422
92718.450000	27171.765000	88225.200000	20214.945000	24787.350000	26185.995000	52813.845000	81545.355000	-0.555227	0.610991	1.156801	2.956791	8.238263	8.771432	-0.823481	-1.971695	0.473060	2.578940	1.007160	-0.776304	0.034241	0.617613	-1.000000	-1.000000	-1.000000	-1.000000	-1.000000	-1.000000	-1.000000	65.000000	0.000000	-1.000000	-1.000000	699383.000000	1775723003.360706
92719.530000	27175.995000	88231.005000	20220.885000	24775.380000	26176.095000	52816.095000	81551.385000	4.087873	5.762505	6.493974	7.534824	11.314815	10.227543	-0.338061	-0.889783	0.473060	2.578940	1.007160	-0.776304	0.034241	0.617613	-1.000000	-1.000000	-1.000000	-1.000000	-1.000000	-1.000000	-1.000000	65.000000	0.000000	-1.000000	-1.000000	699384.000000	1775723003.360726
92734.200000	27191.835000	88248.960000	20240.325000	24793.695000	26196.030000	52834.500000	81575.370000	7.286263	8.937451	9.895606	9.441601	8.706111	4.907728	1.375094	1.427382	0.473060	2.578940	1.007160	-0.776304	0.034241	0.617613	-1.000000	-1.000000	-1.000000	-1.000000	-1.000000	-1.000000	-1.000000	65.000000	0.000000	-1.000000	-1.000000	699385.000000	1775723003.360746
92740.995000	27193.950000	88251.030000	20246.040000	24807.330000	26194.635000	52837.065000	81590.895000	8.074326	9.320599	10.150092	8.501243	3.386480	-2.513655	4.249329	5.568853	0.473060	2.578940	1.007160	-0.776304	0.034241	0.617613	-1.000000	-1.000000	-1.000000	-1.000000	-1.000000	-1.000000	-1.000000	65.000000	0.000000	-1.000000	-1.000000	699386.000000	1775723003.360755
92737.620000	27182.115000	88236.855000	20235.060000	24792.480000	26177.580000	52821.405000	81589.680000	6.468570	6.602710	6.773609	4.985479	-0.764512	-7.173753	6.404035	9.831577	0.473060	2.578940	1.007160	-0.776304	0.034241	0.617613	-1.000000	-1.000000	-1.000000	-1.000000	-1.000000	-1.000000	-1.000000	65.000000	0.000000	-1.000000	-1.000000	699387.000000	1775723003.373563
92724.075000	27161.370000	88212.285000	20211.750000	24782.400000	26197.515000	52809.480000	81576.585000	2.324193	0.479068	-0.489842	-1.366975	-3.514972	-8.250319	4.752337	10.195198	0.473060	2.578940	1.007160	-0.776304	0.034241	0.617613	-1.000000	-1.000000	-1.000000	-1.000000	-1.000000	-1.000000	-1.000000	65.000000	0.000000	-1.000000	-1.000000	699388.000000	1775723003.373582
92713.185000	27152.595000	88204.770000	20207.835000	24785.730000	26241.885000	52812.225000	81567.495000	-3.976189	-7.774330	-9.939780	-9.555041	-6.226638	-5.490028	-1.037259	4.148354	0.473060	2.578940	1.007160	-0.776304	0.034241	0.617613	-1.000000	-1.000000	-1.000000	-1.000000	-1.000000	-1.000000	-1.000000	65.000000	0.000000	-1.000000	-1.000000	699389.000000	1775723003.373605
92712.645000	27153.360000	88207.470000	20213.415000	24764.760000	26203.320000	52806.735000	81568.395000	-10.100171	-14.162445	-16.758527	-15.474630	-8.368767	0.756388	-7.167212	-5.837992	0.473060	2.578940	1.007160	-0.776304	0.034241	0.617613	-1.000000	-1.000000	-1.000000	-1.000000	-1.000000	-1.000000	-1.000000	65.000000	0.000000	-1.000000	-1.000000	699390.000000	1775723003.373616
92716.470000	27158.310000	88213.725000	20222.955000	24769.080000	26183.745000	52802.280000	81571.770000	-12.418996	-14.275486	-15.962129	-14.418292	-8.605569	5.133382	-9.624322	-13.661502	1.983800	2.350040	0.732480	-0.776426	0.032959	0.617735	-1.000000	-1.000000	-1.000000	-1.000000	-1.000000	-1.000000	-1.000000	65.000000	0.000000	-1.000000	-1.000000	699391.000000	1775723003.373627
92721.960000	27163.665000	88219.710000	20230.830000	24787.980000	26214.480000	52801.965000	81575.685000	-8.851296	-7.142885	-6.953214	-5.731346	-5.759098	2.901561	-7.528544	-14.556114	1.983800	2.350040	0.732480	-0.776426	0.032959	0.617735	-1.000000	-1.000000	-1.000000	-1.000000	-1.000000	-1.000000	-1.000000	65.000000	0.000000	-1.000000	-1.000000	699392.000000	1775723003.373636
92719.890000	27160.875000	88216.470000	20230.560000	24787.755000	26215.335000	52799.355000	81574.920000	-0.997665	3.551515	5.497613	6.020579	0.614009	-2.282007	-2.585283	-8.588360	1.983800	2.350040	0.732480	-0.776426	0.032959	0.617735	-1.000000	-1.000000	-1.000000	-1.000000	-1.000000	-1.000000	-1.000000	65.000000	0.000000	-1.000000	-1.000000	699393.000000	1775723003.380726
92721.645000	27161.685000	88219.755000	20235.375000	24783.435000	26205.210000	52797.150000	81576.855000	6.836672	12.035504	14.720757	14.447691	7.890362	-4.548953	2.626839	0.167956	1.983800	2.350040	0.732480	-0.776426	0.032959	0.617735	-1.000000	-1.000000	-1.000000	-1.000000	-1.000000	-1.000000	-1.000000	65.000000	0.000000	-1.000000	-1.000000	699394.000000	1775723003.380746
92725.965000	27166.860000	88228.170000	20249.145000	24796.170000	26235.045000	52795.080000	81578.835000	10.923547	14.552473	16.896395	16.048791	11.750781	-2.973871	5.949596	7.122431	1.983800	2.350040	0.732480	-0.776426	0.032959	0.617735	-1.000000	-1.000000	-1.000000	-1.000000	-1.000000	-1.000000	-1.000000	65.000000	0.000000	-1.000000	-1.000000	699395.000000	1775723003.380769
92731.860000	27171.855000	88231.860000	20252.520000	24801.525000	26235.945000	52793.145000	81582.075000	10.424555	11.390025	12.808609	11.822102	10.658570	0.895421	6.527999	9.894640	1.983800	2.350040	0.732480	-0.776426	0.032959	0.617735	-1.000000	-1.000000	-1.000000	-1.000000	-1.000000	-1.000000	-1.000000	65.000000	0.000000	-1.000000	-1.000000	699396.000000	1775723003.380779
92729.835000	27168.165000	88228.530000	20252.025000	24804.045000	26245.485000	52793.820000	81580.995000	6.752544	5.263464	5.536424	4.734584	6.238514	4.955853	4.895214	8.605011	1.983800	2.350040	0.732480	-0.776426	0.032959	0.617735	-1.000000	-1.000000	-1.000000	-1.000000	-1.000000	-1.000000	-1.000000	65.000000	0.000000	-1.000000	-1.000000	699397.000000	1775723003.393503
92723.445000	27163.890000	88227.585000	20255.355000	24803.145000	26244.135000	52788.555000	81576.405000	1.625993	-1.292499	-2.125073	-2.641295	0.617014	6.519196	2.264813	4.667305	1.983800	2.350040	0.732480	-0.776426	0.032959	0.617735	-1.000000	-1.000000	-1.000000	-1.000000	-1.000000	-1.000000	-1.000000	65.000000	0.000000	-1.000000	-1.000000	699398.000000	1775723003.393523
92724.345000	27164.430000	88230.330000	20257.695000	24790.005000	26224.065000	52782.660000	81575.820000	-3.536134	-6.564766	-8.015032	-8.208216	-4.837725	3.887393	-0.414398	-0.163502	1.983800	2.350040	0.732480	-0.776426	0.032959	0.617735	-1.000000	-1.000000	-1.000000	-1.000000	-1.000000	-1.000000	-1.000000	65.000000	0.000000	-1.000000	-1.000000	699399.000000	1775723003.393544
92727.945000	27166.950000	88234.425000	20261.655000	24781.275000	26206.470000	52782.705000	81580.545000	-7.040436	-9.131236	-10.449568	-10.446537	-9.330881	-2.687983	-2.571604	-3.959285	1.983800	2.350040	0.732480	-0.776426	0.032959	0.617735	-1.000000	-1.000000	-1.000000	-1.000000	-1.000000	-1.000000	-1.000000	65.000000	0.000000	-1.000000	-1.000000	699400.000000	1775723003.393553
92725.245000	27159.030000	88224.210000	20249.820000	24768.090000	26194.185000	52779.510000	81581.535000	-7.505437	-8.419598	-9.192665	-9.373006	-11.969914	-10.458969	-3.587734	-5.169782	2.960440	1.571780	1.129240	-0.775267	0.031860	0.618346	-1.000000	-1.000000	-1.000000	-1.000000	-1.000000	-1.000000	-1.000000	65.000000	0.000000	-1.000000	-1.000000	699401.000000	1775723003.393565
92717.910000	27153.765000	88216.830000	20252.745000	24777.630000	26208.540000	52776.900000	81578.340000	-5.340155	-5.553853	-6.032977	-6.527293	-11.392143	-14.506746	-3.156014	-3.809782	2.960440	1.571780	1.129240	-0.775267	0.031860	0.618346	-1.000000	-1.000000	-1.000000	-1.000000	-1.000000	-1.000000	-1.000000	65.000000	0.000000	-1.000000	-1.000000	699402.000000	1775723003.393574
92719.530000	27155.655000	88223.580000	20263.725000	24787.170000	26219.925000	52774.875000	81580.410000	-2.339563	-2.266402	-2.906035	-3.052947	-6.390340	-10.700203	-1.716389	-1.405586	2.960440	1.571780	1.129240	-0.775267	0.031860	0.618346	-1.000000	-1.000000	-1.000000	-1.000000	-1.000000	-1.000000	-1.000000	65.000000	0.000000	-1.000000	-1.000000	699403.000000	1775723003.400457
92721.060000	27161.505000	88229.160000	20273.580000	24789.285000	26218.710000	52767.405000	81577.755000	0.277808	0.787163	0.075038	1.169513	2.195467	0.146113	-0.148956	0.525345	2.960440	1.571780	1.129240	-0.775267	0.031860	0.618346	-1.000000	-1.000000	-1.000000	-1.000000	-1.000000	-1.000000	-1.000000	65.000000	0.000000	-1.000000	-1.000000	699404.000000	1775723003.400475
92717.235000	27160.650000	88227.000000	20276.595000	24787.800000	26217.270000	52754.535000	81571.005000	2.268131	3.628153	3.325746	5.689049	10.472766	11.704882	0.573497	1.242451	2.960440	1.571780	1.129240	-0.775267	0.031860	0.618346	-1.000000	-1.000000	-1.000000	-1.000000	-1.000000	-1.000000	-1.000000	65.000000	0.000000	-1.000000	-1.000000	699405.000000	1775723003.400498
92736.945000	27176.400000	88246.170000	20293.875000	24798.240000	26216.955000	52758.855000	81585.495000	3.738677	5.904263	6.226022	8.800376	14.218041	17.219121	0.149121	0.964298	2.960440	1.571780	1.129240	-0.775267	0.031860	0.618346	-1.000000	-1.000000	-1.000000	-1.000000	-1.000000	-1.000000	-1.000000	65.000000	0.000000	-1.000000	-1.000000	699406.000000	1775723003.400508
92745.495000	27182.295000	88251.930000	20294.595000	24783.660000	26208.630000	52769.070000	81597.420000	5.175265	7.169436	7.999165	9.151854	12.042875	14.455388	-0.117940	1.112243	2.960440	1.571780	1.129240	-0.775267	0.031860	0.618346	-1.000000	-1.000000	-1.000000	-1.000000	-1.000000	-1.000000	-1.000000	65.000000	0.000000	-1.000000	-1.000000	699407.000000	1775723003.407719
92741.445000	27171.630000	88240.140000	20284.920000	24773.805000	26219.430000	52776.810000	81604.305000	6.294605	6.688829	7.729578	6.202162	5.106816	6.158586	1.459697	2.722345	2.960440	1.571780	1.129240	-0.775267	0.031860	0.618346	-1.000000	-1.000000	-1.000000	-1.000000	-1.000000	-1.000000	-1.000000	65.000000	0.000000	-1.000000	-1.000000	699408.000000	1775723003.407738
92731.230000	27155.295000	88224.705000	20272.410000	24771.105000	26228.385000	52764.795000	81597.330000	5.159330	3.119920	3.923758	0.029213	-3.749141	-2.277939	4.215697	4.432473	2.960440	1.571780	1.129240	-0.775267	0.031860	0.618346	-1.000000	-1.000000	-1.000000	-1.000000	-1.000000	-1.000000	-1.000000	65.000000	0.000000	-1.000000	-1.000000	699409.000000	1775723003.407760
92737.755000	27164.610000	88238.205000	20291.445000	24784.605000	26218.980000	52753.725000	81595.395000	0.743717	-3.191594	-2.878476	-7.099061	-10.123396	-6.794088	5.047488	3.676259	2.960440	1.571780	1.129240	-0.775267	0.031860	0.618346	-1.000000	-1.000000	-1.000000	-1.000000	-1.000000	-1.000000	-1.000000	65.000000	0.000000	-1.000000	-1.000000	699410.000000	1775723003.407769
92742.930000	27169.605000	88244.505000	20298.330000	24797.385000	26228.655000	52752.870000	81596.520000	-4.636970	-8.505927	-8.446056	-10.643558	-10.221311	-7.245676	2.069503	-0.114450	3.555580	0.564620	1.983800	-0.774351	0.032288	0.618529	-1.000000	-1.000000	-1.000000	-1.000000	-1.000000	-1.000000	-1.000000	65.000000	0.000000	-1.000000	-1.000000	699411.000000	1775723003.414875
92731.545000	27152.910000	88225.380000	20278.890000	24779.835000	26212.995000	52750.890000	81593.505000	-7.665127	-9.328503	-9.200683	-8.447455	-4.555835	-5.736684	-2.816291	-4.694910	3.555580	0.564620	1.983800	-0.774351	0.032288	0.618529	-1.000000	-1.000000	-1.000000	-1.000000	-1.000000	-1.000000	-1.000000	65.000000	0.000000	-1.000000	-1.000000	699412.000000	1775723003.414894
92735.370000	27160.110000	88231.590000	20292.705000	24778.710000	26189.775000	52749.630000	81596.160000	-7.456683	-6.172661	-6.142163	-3.273781	1.777841	-4.664500	-6.044592	-7.289594	3.555580	0.564620	1.983800	-0.774351	0.032288	0.618529	-1.000000	-1.000000	-1.000000	-1.000000	-1.000000	-1.000000	-1.000000	65.000000	0.000000	-1.000000	-1.000000	699413.000000	1775723003.414917
92732.220000	27158.580000	88225.920000	20295.630000	24770.925000	26230.320000	52748.010000	81595.530000	-5.031895	-1.513667	-2.097884	1.534868	4.200742	-4.570181	-5.804702	-6.644163	3.555580	0.564620	1.983800	-0.774351	0.032288	0.618529	-1.000000	-1.000000	-1.000000	-1.000000	-1.000000	-1.000000	-1.000000	65.000000	0.000000	-1.000000	-1.000000	699414.000000	1775723003.414926
92739.060000	27165.555000	88234.155000	20306.970000	24791.850000	26262.270000	52750.080000	81602.910000	-1.492899	2.956132	1.517111	5.034385	2.918952	-2.020269	-2.775670	-3.281882	3.555580	0.564620	1.983800	-0.774351	0.032288	0.618529	-1.000000	-1.000000	-1.000000	-1.000000	-1.000000	-1.000000	-1.000000	65.000000	0.000000	-1.000000	-1.000000	699415.000000	1775723003.422915
92740.185000	27165.285000	88244.010000	20308.995000	24796.485000	26261.730000	52747.920000	81604.170000	2.215868	6.149537	4.515644	7.027819	1.432989	5.248058	1.100294	1.186520	3.555580	0.564620	1.983800	-0.774351	0.032288	0.618529	-1.000000	-1.000000	-1.000000	-1.000000	-1.000000	-1.000000	-1.000000	65.000000	0.000000	-1.000000	-1.000000	699416.000000	1775723003.422934
92740.050000	27162.270000	88246.395000	20309.355000	24774.570000	26224.110000	52740.855000	81602.010000	5.008025	7.111204	6.810139	6.915592	1.431555	11.814580	3.767719	4.738956	3.555580	0.564620	1.983800	-0.774351	0.032288	0.618529	-1.000000	-1.000000	-1.000000	-1.000000	-1.000000	-1.000000	-1.000000	65.000000	0.000000	-1.000000	-1.000000	699417.000000	1775723003.428212
92742.390000	27164.160000	88247.700000	20317.680000	24783.255000	26217.720000	52739.010000	81602.055000	5.870687	5.450284	7.521970	4.476242	1.104171	9.707169	3.984129	5.751628	3.555580	0.564620	1.983800	-0.774351	0.032288	0.618529	-1.000000	-1.000000	-1.000000	-1.000000	-1.000000	-1.000000	-1.000000	65.000000	0.000000	-1.000000	-1.000000	699418.000000	1775723003.428227
92744.325000	27164.790000	88246.485000	20318.535000	24788.520000	26215.560000	52733.610000	81602.820000	4.665060	2.059423	5.628341	0.767883	-0.506468	-1.029306	2.087452	4.104263	3.555580	0.564620	1.983800	-0.774351	0.032288	0.618529	-1.000000	-1.000000	-1.000000	-1.000000	-1.000000	-1.000000	-1.000000	65.000000	0.000000	-1.000000	-1.000000	699419.000000	1775723003.428247
92742.660000	27165.915000	88247.790000	20333.340000	24787.035000	26231.670000	52727.445000	81600.210000	2.202668	-1.307586	1.450660	-2.387471	-1.780684	-11.685136	-0.492722	1.143957	3.555580	0.564620	1.983800	-0.774351	0.032288	0.618529	-1.000000	-1.000000	-1.000000	-1.000000	-1.000000	-1.000000	-1.000000	65.000000	0.000000	-1.000000	-1.000000	699420.000000	1775723003.428256
92747.520000	27165.870000	88250.850000	20341.800000	24784.470000	26245.035000	52729.380000	81604.935000	-0.427239	-3.334285	-3.155904	-3.538754	-1.750888	-13.805534	-2.323963	-1.469534	1.327620	-1.022420	1.831200	-0.774534	0.033935	0.620421	-1.000000	-1.000000	-1.000000	-1.000000	-1.000000	-1.000000	-1.000000	65.000000	0.000000	-1.000000	-1.000000	699421.000000	1775723003.438974
92740.095000	27158.985000	88240.950000	20335.140000	24785.865000	26235.045000	52722.945000	81601.560000	-2.378638	-3.851351	-6.246928	-2.800268	-1.083270	-6.607695	-2.549457	-2.656028	1.327620	-1.022420	1.831200	-0.774534	0.033935	0.620421	-1.000000	-1.000000	-1.000000	-1.000000	-1.000000	-1.000000	-1.000000	65.000000	0.000000	-1.000000	-1.000000	699422.000000	1775723003.438994
92754.765000	27174.060000	88253.730000	20325.825000	24799.770000	26227.125000	52723.620000	81612.990000	-3.174286	-3.243067	-6.968533	-2.187829	-0.219812	3.229324	-1.315532	-2.189220	1.327620	-1.022420	1.831200	-0.774534	0.033935	0.620421	-1.000000	-1.000000	-1.000000	-1.000000	-1.000000	-1.000000	-1.000000	65.000000	0.000000	-1.000000	-1.000000	699423.000000	1775723003.439015
92759.535000	27176.850000	88262.145000	20336.220000	24805.935000	26240.580000	52726.410000	81616.680000	-2.374773	-1.465780	-5.021849	-3.093263	1.208158	8.752510	0.567621	-0.413328	1.327620	-1.022420	1.831200	-0.774534	0.033935	0.620421	-1.000000	-1.000000	-1.000000	-1.000000	-1.000000	-1.000000	-1.000000	65.000000	0.000000	-1.000000	-1.000000	699424.000000	1775723003.439025
92749.635000	27167.265000	88256.115000	20341.845000	24803.010000	26269.785000	52723.260000	81612.630000	-0.404813	0.940845	-1.013671	-4.060851	2.849542	9.171647	2.310123	1.650200	1.327620	-1.022420	1.831200	-0.774534	0.033935	0.620421	-1.000000	-1.000000	-1.000000	-1.000000	-1.000000	-1.000000	-1.000000	65.000000	0.000000	-1.000000	-1.000000	699425.000000	1775723003.439036
92733.435000	27144.495000	88231.230000	20316.825000	24768.180000	26249.805000	52706.070000	81599.625000	0.551332	1.720530	2.221571	-3.437905	2.505262	7.456642	2.838913	2.160797	1.327620	-1.022420	1.831200	-0.774534	0.033935	0.620421	-1.000000	-1.000000	-1.000000	-1.000000	-1.000000	-1.000000	-1.000000	65.000000	0.000000	-1.000000	-1.000000	699426.000000	1775723003.439045
92725.740000	27135.090000	88222.905000	20314.575000	24763.545000	26236.305000	52696.035000	81582.975000	-1.229819	-0.836563	1.643434	-2.238766	-1.735112	4.071711	1.077328	-0.204872	1.327620	-1.022420	1.831200	-0.774534	0.033935	0.620421	-1.000000	-1.000000	-1.000000	-1.000000	-1.000000	-1.000000	-1.000000	65.000000	0.000000	-1.000000	-1.000000	699427.000000	1775723003.443323
92732.085000	27145.305000	88232.985000	20328.930000	24774.390000	26241.255000	52700.355000	81582.930000	-4.240686	-4.755680	-1.808223	-1.320985	-7.471816	-1.879392	-2.177242	-4.408928	1.327620	-1.022420	1.831200	-0.774534	0.033935	0.620421	-1.000000	-1.000000	-1.000000	-1.000000	-1.000000	-1.000000	-1.000000	65.000000	0.000000	-1.000000	-1.000000	699428.000000	1775723003.443341
92739.870000	27154.035000	88240.275000	20337.210000	24783.570000	26251.740000	52710.300000	81595.665000	-4.831343	-5.502692	-3.536680	0.864933	-8.976305	-7.774140	-3.890236	-6.883635	1.327620	-1.022420	1.831200	-0.774534	0.033935	0.620421	-1.000000	-1.000000	-1.000000	-1.000000	-1.000000	-1.000000	-1.000000	65.000000	0.000000	-1.000000	-1.000000	699429.000000	1775723003.450903
92745.720000	27159.660000	88246.530000	20346.570000	24789.285000	26259.255000	52714.935000	81611.235000	-1.144592	-0.957143	-0.635171	5.100064	-3.643506	-9.267206	-1.802996	-4.246528	1.327620	-1.022420	1.831200	-0.774534	0.033935	0.620421	-1.000000	-1.000000	-1.000000	-1.000000	-1.000000	-1.000000	-1.000000	65.000000	0.000000	-1.000000	-1.000000	699430.000000	1775723003.450919
92746.260000	27158.670000	88248.015000	20352.330000	24791.355000	26255.835000	52710.750000	81619.560000	4.795145	6.049666	5.031586	9.282433	5.116551	-5.512237	2.748464	3.091614	1.388660	-1.144500	2.121140	-0.772947	0.033386	0.621580	-1.000000	-1.000000	-1.000000	-1.000000	-1.000000	-1.000000	-1.000000	65.000000	0.000000	-1.000000	-1.000000	699431.000000	1775723003.454318
92748.510000	27153.855000	88244.100000	20350.845000	24781.185000	26238.285000	52701.345000	81623.475000	8.998328	10.441498	9.068621	10.373008	11.262658	-0.179842	5.858807	10.587957	1.388660	-1.144500	2.121140	-0.772947	0.033386	0.621580	-1.000000	-1.000000	-1.000000	-1.000000	-1.000000	-1.000000	-1.000000	65.000000	0.000000	-1.000000	-1.000000	699432.000000	1775723003.454331
92750.760000	27152.550000	88241.535000	20349.585000	24763.995000	26224.560000	52696.530000	81622.710000	8.933880	9.228359	8.406167	6.909274	10.618218	2.147316	4.753366	13.139974	1.388660	-1.144500	2.121140	-0.772947	0.033386	0.621580	-1.000000	-1.000000	-1.000000	-1.000000	-1.000000	-1.000000	-1.000000	65.000000	0.000000	-1.000000	-1.000000	699433.000000	1775723003.460493
92745.945000	27158.175000	88243.560000	20356.290000	24774.120000	26230.095000	52692.795000	81614.745000	4.923401	3.600924	3.466545	0.282493	3.785577	0.517578	0.219685	8.802123	1.388660	-1.144500	2.121140	-0.772947	0.033386	0.621580	-1.000000	-1.000000	-1.000000	-1.000000	-1.000000	-1.000000	-1.000000	65.000000	0.000000	-1.000000	-1.000000	699434.000000	1775723003.460505
92747.205000	27160.830000	88249.275000	20362.410000	24782.625000	26220.780000	52688.475000	81616.365000	-0.863130	-2.530161	-2.467363	-5.939093	-3.878946	-1.909961	-4.510069	-0.197155	1.388660	-1.144500	2.121140	-0.772947	0.033386	0.621580	-1.000000	-1.000000	-1.000000	-1.000000	-1.000000	-1.000000	-1.000000	65.000000	0.000000	-1.000000	-1.000000	699435.000000	1775723003.460555
92743.875000	27154.305000	88244.460000	20355.615000	24764.445000	26209.935000	52685.595000	81614.970000	-5.818818	-6.089820	-6.117942	-8.872122	-7.305436	-2.234759	-6.652969	-8.991611	1.388660	-1.144500	2.121140	-0.772947	0.033386	0.621580	-1.000000	-1.000000	-1.000000	-1.000000	-1.000000	-1.000000	-1.000000	65.000000	0.000000	-1.000000	-1.000000	699436.000000	1775723003.460572
92746.170000	27156.330000	88247.880000	20363.535000	24772.815000	26248.005000	52685.955000	81617.085000	-8.032820	-6.688564	-6.538342	-8.278840	-6.247774	0.212901	-5.438610	-13.205841	1.388660	-1.144500	2.121140	-0.772947	0.033386	0.621580	-1.000000	-1.000000	-1.000000	-1.000000	-1.000000	-1.000000	-1.000000	65.000000	0.000000	-1.000000	-1.000000	699437.000000	1775723003.472638
92742.660000	27149.805000	88241.580000	20361.465000	24775.470000	26272.755000	52682.220000	81617.085000	-7.071281	-5.432577	-4.794142	-5.457584	-3.002913	5.769750	-1.912540	-11.517027	1.388660	-1.144500	2.121140	-0.772947	0.033386	0.621580	-1.000000	-1.000000	-1.000000	-1.000000	-1.000000	-1.000000	-1.000000	65.000000	0.000000	-1.000000	-1.000000	699438.000000	1775723003.472658
92742.030000	27145.890000	88236.450000	20356.695000	24769.035000	26248.770000	52675.605000	81614.790000	-3.973310	-3.513644	-2.556705	-1.996949	0.606745	12.373401	1.838290	-5.801318	1.388660	-1.144500	2.121140	-0.772947	0.033386	0.621580	-1.000000	-1.000000	-1.000000	-1.000000	-1.000000	-1.000000	-1.000000	65.000000	0.000000	-1.000000	-1.000000	699439.000000	1775723003.472681
92746.980000	27149.220000	88240.545000	20362.770000	24776.010000	26247.420000	52670.655000	81613.170000	-0.306091	-1.609234	-0.895176	0.705890	3.094701	13.921111	3.860371	0.576421	1.388660	-1.144500	2.121140	-0.772947	0.033386	0.621580	-1.000000	-1.000000	-1.000000	-1.000000	-1.000000	-1.000000	-1.000000	65.000000	0.000000	-1.000000	-1.000000	699440.000000	1775723003.472690
92753.640000	27154.845000	88248.150000	20373.795000	24785.370000	26243.325000	52667.910000	81613.575000	2.935540	0.449271	0.513126	2.504981	3.973518	6.942621	3.604256	4.937781	3.280900	-1.251320	2.334780	-0.771055	0.032104	0.624327	-1.000000	-1.000000	-1.000000	-1.000000	-1.000000	-1.000000	-1.000000	65.000000	0.000000	-1.000000	-1.000000	699441.000000	1775723003.472702
92757.645000	27159.075000	88255.260000	20383.650000	24784.380000	26230.005000	52666.020000	81614.160000	5.270182	2.920812	2.490282	4.218768	3.872730	-4.836884	2.050981	6.460289	3.280900	-1.251320	2.334780	-0.771055	0.032104	0.624327	-1.000000	-1.000000	-1.000000	-1.000000	-1.000000	-1.000000	-1.000000	65.000000	0.000000	-1.000000	-1.000000	699442.000000	1775723003.472711
92762.370000	27164.520000	88262.010000	20391.525000	24775.785000	26215.560000	52672.140000	81622.620000	6.149585	5.191237	4.797736	5.898928	2.798901	-14.970122	0.726405	5.910277	3.280900	-1.251320	2.334780	-0.771055	0.032104	0.624327	-1.000000	-1.000000	-1.000000	-1.000000	-1.000000	-1.000000	-1.000000	65.000000	0.000000	-1.000000	-1.000000	699443.000000	1775723003.485311
92758.050000	27158.355000	88256.295000	20389.455000	24766.470000	26248.950000	52679.250000	81630.180000	5.041696	5.956568	5.948605	6.300951	0.056307	-18.407239	0.732921	4.703464	3.280900	-1.251320	2.334780	-0.771055	0.032104	0.624327	-1.000000	-1.000000	-1.000000	-1.000000	-1.000000	-1.000000	-1.000000	65.000000	0.000000	-1.000000	-1.000000	699444.000000	1775723003.485331
92758.815000	27157.860000	88257.465000	20395.215000	24766.065000	26262.945000	52669.530000	81629.370000	1.961705	4.202813	4.458198	4.208579	-3.850786	-12.428113	1.777667	3.616166	3.280900	-1.251320	2.334780	-0.771055	0.032104	0.624327	-1.000000	-1.000000	-1.000000	-1.000000	-1.000000	-1.000000	-1.000000	65.000000	0.000000	-1.000000	-1.000000	699445.000000	1775723003.485355
92753.640000	27157.680000	88255.170000	20403.315000	24771.555000	26266.545000	52663.005000	81618.030000	-2.093310	0.408483	0.516952	0.196888	-6.553766	0.552949	1.999732	1.971591	3.280900	-1.251320	2.334780	-0.771055	0.032104	0.624327	-1.000000	-1.000000	-1.000000	-1.000000	-1.000000	-1.000000	-1.000000	65.000000	0.000000	-1.000000	-1.000000	699446.000000	1775723003.485365
92755.260000	27156.510000	88256.790000	20400.255000	24772.860000	26242.020000	52660.260000	81617.985000	-5.431517	-3.449707	-3.834416	-3.680784	-5.807790	12.206351	0.075588	-1.139825	3.280900	-1.251320	2.334780	-0.771055	0.032104	0.624327	-1.000000	-1.000000	-1.000000	-1.000000	-1.000000	-1.000000	-1.000000	65.000000	0.000000	-1.000000	-1.000000	699447.000000	1775723003.500149
92752.335000	27150.705000	88251.300000	20388.150000	24769.305000	26237.115000	52658.010000	81619.020000	-6.608796	-5.586126	-6.425877	-6.220481	-1.938540	14.575773	-2.947105	-4.780960	3.280900	-1.251320	2.334780	-0.771055	0.032104	0.624327	-1.000000	-1.000000	-1.000000	-1.000000	-1.000000	-1.000000	-1.000000	65.000000	0.000000	-1.000000	-1.000000	699448.000000	1775723003.500172
