Channel1	Channel2	Channel3	Channel4	Channel5	Channel6	Channel7	Channel8	FilteredChannel1	FilteredChannel2	FilteredChannel3	FilteredChannel4	FilteredChannel5	FilteredChannel6	FilteredChannel7	FilteredChannel8	GyroX	GyroY	GyroZ	AccX	AccY	AccZ	PPG1	PPG2	rawPPG1	rawPPG2	rawPPG3	Hr	Hrv	Battery	Trigger	PhysicalTrigger	AutoTrigger	NumMeasurements	Timestamp
-12073.095000	-26208.540000	1150.470000	20203.290000	6582.150000	-9383.895000	-45132.030000	-35962.605000	-0.212246	-0.675585	-1.974341	-2.886243	0.086818	-3.636470	-0.537791	-0.139864	-3.998120	1.464960	-0.869820	-0.602721	0.257079	0.746458	-1.000000	-1.000000	-1.000000	-1.000000	-1.000000	-1.000000	-1.000000	50.000000	0.000000	-1.000000	-1.000000	419189.000000	1775804110.843539
-12075.885000	-26208.450000	1152.450000	20206.305000	6587.280000	-9378.945000	-45131.895000	-35965.305000	-0.025548	-0.847519	-2.140989	-2.799367	1.170418	-2.930509	-0.293763	-0.113379	-3.998120	1.464960	-0.869820	-0.602721	0.257079	0.746458	-1.000000	-1.000000	-1.000000	-1.000000	-1.000000	-1.000000	-1.000000	50.000000	0.000000	-1.000000	-1.000000	419190.000000	1775804110.843566
-12081.555000	-26211.780000	1151.235000	20206.035000	6587.505000	-9381.690000	-45137.745000	-35971.020000	-0.297831	-1.368905	-2.100788	-1.821798	2.014021	-0.354973	0.360845	-0.127064	-3.998120	1.464960	-0.869820	-0.602721	0.257079	0.746458	-1.000000	-1.000000	-1.000000	-1.000000	-1.000000	-1.000000	-1.000000	50.000000	0.000000	-1.000000	-1.000000	419191.000000	1775804110.843592
-12079.440000	-26211.510000	1150.875000	20206.935000	6587.145000	-9383.220000	-45136.845000	-35968.950000	-1.084953	-1.765446	-1.522015	-0.093759	2.645731	2.386307	0.582321	-0.513071	-3.998120	1.464960	-0.869820	-0.602721	0.257079	0.746458	-1.000000	-1.000000	-1.000000	-1.000000	-1.000000	-1.000000	-1.000000	50.000000	0.000000	-1.000000	-1.000000	419192.000000	1775804110.843605
-12073.320000	-26207.325000	1153.755000	20210.940000	6588.270000	-9378.225000	-45128.745000	-35961.345000	-1.617495	-1.525564	-0.450621	1.715530	2.643928	3.609524	0.281401	-0.802598	-7.538440	1.663340	-0.396760	-0.601561	0.256530	0.745420	-1.000000	-1.000000	-1.000000	-1.000000	-1.000000	-1.000000	-1.000000	50.000000	0.000000	-1.000000	-1.000000	419193.000000	1775804110.843620
-12073.095000	-26207.730000	1152.630000	20209.185000	6586.920000	-9378.945000	-45126.945000	-35959.905000	-0.927739	-0.386191	0.804182	2.891606	1.771018	3.117941	0.314038	-0.108599	-7.538440	1.663340	-0.396760	-0.601561	0.256530	0.745420	-1.000000	-1.000000	-1.000000	-1.000000	-1.000000	-1.000000	-1.000000	50.000000	0.000000	-1.000000	-1.000000	419194.000000	1775804110.843638
-12075.840000	-26209.080000	1152.090000	20208.600000	6584.985000	-9383.580000	-45129.780000	-35963.730000	0.682112	1.149524	1.744454	2.910525	0.267778	1.576669	0.897652	1.300034	-7.538440	1.663340	-0.396760	-0.601561	0.256530	0.745420	-1.000000	-1.000000	-1.000000	-1.000000	-1.000000	-1.000000	-1.000000	50.000000	0.000000	-1.000000	-1.000000	419195.000000	1775804110.843653
-12082.140000	-26212.815000	1147.230000	20199.870000	6575.355000	-9391.005000	-45136.980000	-35970.705000	1.725138	2.017173	1.830477	1.544913	-1.500645	-0.577261	0.989329	1.898355	-7.538440	1.663340	-0.396760	-0.601561	0.256530	0.745420	-1.000000	-1.000000	-1.000000	-1.000000	-1.000000	-1.000000	-1.000000	50.000000	0.000000	-1.000000	-1.000000	419196.000000	1775804110.843664
-12080.025000	-26211.870000	1146.780000	20198.205000	6579.135000	-9386.595000	-45134.685000	-35967.825000	1.250012	1.642186	0.941310	-0.837589	-3.069578	-2.750015	-0.192712	0.788374	-7.538440	1.663340	-0.396760	-0.601561	0.256530	0.745420	-1.000000	-1.000000	-1.000000	-1.000000	-1.000000	-1.000000	-1.000000	50.000000	0.000000	-1.000000	-1.000000	419197.000000	1775804110.850474
-12079.980000	-26214.435000	1143.945000	20196.270000	6577.020000	-9386.550000	-45136.350000	-35968.230000	-0.081031	0.471640	-0.372513	-3.075073	-3.577439	-3.708655	-1.888392	-1.072460	-7.538440	1.663340	-0.396760	-0.601561	0.256530	0.745420	-1.000000	-1.000000	-1.000000	-1.000000	-1.000000	-1.000000	-1.000000	50.000000	0.000000	-1.000000	-1.000000	419198.000000	1775804110.850500
-12077.730000	-26212.815000	1147.545000	20202.480000	6580.395000	-9380.880000	-45134.550000	-35968.095000	-0.886973	-0.584722	-1.209064	-3.676177	-2.377558	-2.573618	-2.659493	-2.065406	-7.538440	1.663340	-0.396760	-0.601561	0.256530	0.745420	-1.000000	-1.000000	-1.000000	-1.000000	-1.000000	-1.000000	-1.000000	50.000000	0.000000	-1.000000	-1.000000	419199.000000	1775804110.852002
-12076.290000	-26210.520000	1149.930000	20205.585000	6582.330000	-9377.370000	-45132.120000	-35966.745000	-0.527117	-0.856274	-0.908936	-1.925575	0.130025	0.179546	-1.854980	-1.590036	-7.538440	1.663340	-0.396760	-0.601561	0.256530	0.745420	-1.000000	-1.000000	-1.000000	-1.000000	-1.000000	-1.000000	-1.000000	50.000000	0.000000	-1.000000	-1.000000	419200.000000	1775804110.852026
-12082.005000	-26216.820000	1144.170000	20199.780000	6579.135000	-9382.680000	-45135.990000	-35971.020000	0.456976	-0.354124	0.296449	1.182410	2.655516	2.903368	-0.016017	-0.252155	-7.538440	1.663340	-0.396760	-0.601561	0.256530	0.745420	-1.000000	-1.000000	-1.000000	-1.000000	-1.000000	-1.000000	-1.000000	50.000000	0.000000	-1.000000	-1.000000	419201.000000	1775804110.858369
-12081.285000	-26216.100000	1143.540000	20198.520000	6580.215000	-9386.865000	-45138.420000	-35971.380000	0.976373	0.195417	1.260135	3.409630	3.802575	3.704241	1.542481	0.864445	-7.538440	1.663340	-0.396760	-0.601561	0.256530	0.745420	-1.000000	-1.000000	-1.000000	-1.000000	-1.000000	-1.000000	-1.000000	50.000000	0.000000	-1.000000	-1.000000	419202.000000	1775804110.858390
-12075.930000	-26209.935000	1150.245000	20205.405000	6586.065000	-9385.065000	-45135.540000	-35967.420000	0.702672	0.382189	1.294443	3.469792	3.208208	2.022059	1.904209	1.221538	-3.372460	2.670500	-0.030520	-0.596678	0.253356	0.743467	-1.000000	-1.000000	-1.000000	-1.000000	-1.000000	-1.000000	-1.000000	50.000000	0.000000	-1.000000	-1.000000	419203.000000	1775804110.858414
-12075.930000	-26209.440000	1151.505000	20207.700000	6584.490000	-9385.515000	-45135.540000	-35967.780000	0.340148	0.627236	0.962644	2.176020	1.721454	-0.697810	1.370588	1.165727	-3.372460	2.670500	-0.030520	-0.596678	0.253356	0.743467	-1.000000	-1.000000	-1.000000	-1.000000	-1.000000	-1.000000	-1.000000	50.000000	0.000000	-1.000000	-1.000000	419204.000000	1775804110.858426
-12076.020000	-26208.495000	1151.280000	20205.495000	6574.185000	-9388.395000	-45136.575000	-35968.545000	0.336040	1.105560	0.836930	0.809176	-0.021812	-2.562132	0.697580	1.044064	-3.372460	2.670500	-0.030520	-0.596678	0.253356	0.743467	-1.000000	-1.000000	-1.000000	-1.000000	-1.000000	-1.000000	-1.000000	50.000000	0.000000	-1.000000	-1.000000	419205.000000	1775804110.863505
-12080.655000	-26212.815000	1147.680000	20202.120000	6558.840000	-9390.645000	-45138.780000	-35972.460000	0.269653	1.214567	0.576964	-0.417066	-2.321626	-2.886476	0.142308	0.661132	-3.372460	2.670500	-0.030520	-0.596678	0.253356	0.743467	-1.000000	-1.000000	-1.000000	-1.000000	-1.000000	-1.000000	-1.000000	50.000000	0.000000	-1.000000	-1.000000	419206.000000	1775804110.863532
-12086.820000	-26220.105000	1140.930000	20196.090000	6550.380000	-9390.600000	-45142.290000	-35977.320000	-0.457090	0.274773	-0.422981	-1.837878	-5.175875	-2.051723	-0.437015	-0.268192	-3.372460	2.670500	-0.030520	-0.596678	0.253356	0.743467	-1.000000	-1.000000	-1.000000	-1.000000	-1.000000	-1.000000	-1.000000	50.000000	0.000000	-1.000000	-1.000000	419207.000000	1775804110.868321
-12083.805000	-26218.170000	1141.380000	20197.890000	6563.790000	-9385.020000	-45137.610000	-35972.325000	-1.707695	-1.561614	-2.059826	-3.240142	-6.811318	-0.540152	-0.966968	-1.428842	-3.372460	2.670500	-0.030520	-0.596678	0.253356	0.743467	-1.000000	-1.000000	-1.000000	-1.000000	-1.000000	-1.000000	-1.000000	50.000000	0.000000	-1.000000	-1.000000	419208.000000	1775804110.868348
-12085.695000	-26220.195000	1139.760000	20199.240000	6597.585000	-9380.655000	-45137.745000	-35973.630000	-2.440161	-3.048511	-3.279447	-3.665952	-4.162438	1.379913	-0.965743	-1.871942	-3.372460	2.670500	-0.030520	-0.596678	0.253356	0.743467	-1.000000	-1.000000	-1.000000	-1.000000	-1.000000	-1.000000	-1.000000	50.000000	0.000000	-1.000000	-1.000000	419209.000000	1775804110.869822
-12090.060000	-26223.840000	1138.005000	20195.505000	6593.850000	-9384.255000	-45142.515000	-35978.625000	-1.912622	-3.042885	-3.051800	-2.477873	3.481899	3.090794	-0.330526	-1.197049	-3.372460	2.670500	-0.030520	-0.596678	0.253356	0.743467	-1.000000	-1.000000	-1.000000	-1.000000	-1.000000	-1.000000	-1.000000	50.000000	0.000000	-1.000000	-1.000000	419210.000000	1775804110.869845
-12086.955000	-26219.655000	1142.235000	20198.655000	6579.810000	-9386.730000	-45141.120000	-35976.555000	-0.490109	-1.563902	-1.324651	-0.250413	11.152592	3.442512	0.287044	-0.099151	-3.372460	2.670500	-0.030520	-0.596678	0.253356	0.743467	-1.000000	-1.000000	-1.000000	-1.000000	-1.000000	-1.000000	-1.000000	50.000000	0.000000	-1.000000	-1.000000	419211.000000	1775804110.874202
-12087.495000	-26220.690000	1141.065000	20195.370000	6569.010000	-9396.090000	-45145.890000	-35978.715000	1.126866	0.664250	1.147158	1.854413	11.928138	1.729397	0.366509	0.717339	-3.372460	2.670500	-0.030520	-0.596678	0.253356	0.743467	-1.000000	-1.000000	-1.000000	-1.000000	-1.000000	-1.000000	-1.000000	50.000000	0.000000	-1.000000	-1.000000	419212.000000	1775804110.874229
-12084.705000	-26219.295000	1142.685000	20195.595000	6568.110000	-9400.680000	-45147.015000	-35977.815000	2.446710	2.709705	3.240648	2.947906	4.496670	-1.459598	-0.032893	1.114437	2.014320	1.922760	0.259420	-0.595641	0.246642	0.741941	-1.000000	-1.000000	-1.000000	-1.000000	-1.000000	-1.000000	-1.000000	50.000000	0.000000	-1.000000	-1.000000	419213.000000	1775804110.879705
-12080.115000	-26214.930000	1146.420000	20199.465000	6577.830000	-9394.740000	-45144.045000	-35974.260000	3.154499	3.766662	4.063654	2.837285	-5.445769	-4.249205	-0.456762	1.248404	2.014320	1.922760	0.259420	-0.595641	0.246642	0.741941	-1.000000	-1.000000	-1.000000	-1.000000	-1.000000	-1.000000	-1.000000	50.000000	0.000000	-1.000000	-1.000000	419214.000000	1775804110.879727
-12079.620000	-26212.860000	1149.435000	20205.180000	6587.190000	-9381.195000	-45138.960000	-35972.595000	3.129227	3.643501	3.552121	2.156374	-10.744165	-4.309446	-0.227782	1.364389	2.014320	1.922760	0.259420	-0.595641	0.246642	0.741941	-1.000000	-1.000000	-1.000000	-1.000000	-1.000000	-1.000000	-1.000000	50.000000	0.000000	-1.000000	-1.000000	419215.000000	1775804110.883012
-12083.355000	-26217.630000	1145.655000	20203.605000	6585.165000	-9381.645000	-45139.680000	-35974.890000	2.195246	2.473745	2.097525	1.561037	-8.768231	-0.921701	0.845361	1.391402	2.014320	1.922760	0.259420	-0.595641	0.246642	0.741941	-1.000000	-1.000000	-1.000000	-1.000000	-1.000000	-1.000000	-1.000000	50.000000	0.000000	-1.000000	-1.000000	419216.000000	1775804110.883054
-12088.755000	-26223.975000	1138.770000	20198.070000	6586.605000	-9379.935000	-45140.625000	-35977.635000	0.160611	0.264099	-0.121125	0.801832	-2.586070	3.635988	1.927235	0.852440	2.014320	1.922760	0.259420	-0.595641	0.246642	0.741941	-1.000000	-1.000000	-1.000000	-1.000000	-1.000000	-1.000000	-1.000000	50.000000	0.000000	-1.000000	-1.000000	419217.000000	1775804110.889414
-12085.335000	-26221.995000	1140.750000	20199.735000	6587.550000	-9377.865000	-45136.935000	-35973.720000	-2.440179	-2.518122	-2.731765	-0.663881	2.914869	6.040136	2.014977	-0.350095	2.014320	1.922760	0.259420	-0.595641	0.246642	0.741941	-1.000000	-1.000000	-1.000000	-1.000000	-1.000000	-1.000000	-1.000000	50.000000	0.000000	-1.000000	-1.000000	419218.000000	1775804110.889440
-12085.605000	-26219.745000	1144.080000	20200.635000	6580.935000	-9385.785000	-45142.065000	-35976.060000	-4.163638	-4.424501	-4.474991	-2.374638	4.897328	4.787455	0.971933	-1.516117	2.014320	1.922760	0.259420	-0.595641	0.246642	0.741941	-1.000000	-1.000000	-1.000000	-1.000000	-1.000000	-1.000000	-1.000000	50.000000	0.000000	-1.000000	-1.000000	419219.000000	1775804110.891930
-12081.915000	-26216.730000	1145.520000	20202.705000	6581.115000	-9386.145000	-45141.255000	-35973.000000	-3.858902	-4.097888	-4.069251	-3.149118	3.305977	0.698297	-0.686559	-1.919646	2.014320	1.922760	0.259420	-0.595641	0.246642	0.741941	-1.000000	-1.000000	-1.000000	-1.000000	-1.000000	-1.000000	-1.000000	50.000000	0.000000	-1.000000	-1.000000	419220.000000	1775804110.891954
-12082.590000	-26218.575000	1141.065000	20198.430000	6582.195000	-9385.425000	-45141.165000	-35973.315000	-1.757027	-1.739671	-1.794281	-2.524304	0.086473	-3.847580	-2.186325	-1.445808	2.014320	1.922760	0.259420	-0.595641	0.246642	0.741941	-1.000000	-1.000000	-1.000000	-1.000000	-1.000000	-1.000000	-1.000000	50.000000	0.000000	-1.000000	-1.000000	419221.000000	1775804110.894099
-12081.645000	-26216.595000	1144.260000	20200.815000	6578.280000	-9386.325000	-45140.625000	-35973.045000	0.801436	1.048766	0.723737	-1.138838	-2.360115	-6.282183	-2.730950	-0.492348	2.014320	1.922760	0.259420	-0.595641	0.246642	0.741941	-1.000000	-1.000000	-1.000000	-1.000000	-1.000000	-1.000000	-1.000000	50.000000	0.000000	-1.000000	-1.000000	419222.000000	1775804110.894118
-12086.640000	-26221.095000	1139.085000	20194.515000	6567.570000	-9392.265000	-45142.200000	-35976.510000	2.351308	2.661320	2.137468	0.099103	-3.101643	-5.708161	-2.106051	0.285866	2.960440	1.968540	0.427280	-0.598509	0.243041	0.742247	-1.000000	-1.000000	-1.000000	-1.000000	-1.000000	-1.000000	-1.000000	50.000000	0.000000	-1.000000	-1.000000	419223.000000	1775804110.898335
-12088.305000	-26223.795000	1136.205000	20192.445000	6566.220000	-9389.295000	-45139.140000	-35975.610000	2.164596	2.426353	2.055208	0.615296	-2.746559	-3.132395	-0.778253	0.430943	2.960440	1.968540	0.427280	-0.598509	0.243041	0.742247	-1.000000	-1.000000	-1.000000	-1.000000	-1.000000	-1.000000	-1.000000	50.000000	0.000000	-1.000000	-1.000000	419224.000000	1775804110.898359
-12086.145000	-26223.795000	1136.160000	20194.335000	6574.770000	-9382.815000	-45134.055000	-35971.830000	0.732296	0.809909	0.887011	0.469347	-1.622035	0.139868	0.735682	0.172304	2.960440	1.968540	0.427280	-0.598509	0.243041	0.742247	-1.000000	-1.000000	-1.000000	-1.000000	-1.000000	-1.000000	-1.000000	50.000000	0.000000	-1.000000	-1.000000	419225.000000	1775804110.903281
-12081.825000	-26218.440000	1140.840000	20198.385000	6576.345000	-9381.465000	-45140.940000	-35970.480000	-0.535156	-0.800235	-0.257503	0.428888	0.679265	3.288565	1.949478	0.171447	2.960440	1.968540	0.427280	-0.598509	0.243041	0.742247	-1.000000	-1.000000	-1.000000	-1.000000	-1.000000	-1.000000	-1.000000	50.000000	0.000000	-1.000000	-1.000000	419226.000000	1775804110.903306
-12075.120000	-26210.520000	1149.210000	20206.395000	6584.985000	-9380.205000	-45140.535000	-35967.330000	-0.468649	-0.985609	-0.201141	1.231813	3.806897	5.373093	2.124556	0.670847	2.960440	1.968540	0.427280	-0.598509	0.243041	0.742247	-1.000000	-1.000000	-1.000000	-1.000000	-1.000000	-1.000000	-1.000000	50.000000	0.000000	-1.000000	-1.000000	419227.000000	1775804110.912074
-12077.415000	-26209.620000	1147.770000	20202.435000	6583.050000	-9384.975000	-45136.620000	-35967.285000	0.789955	0.469480	1.171970	2.607379	6.205133	5.357105	1.114509	1.248313	2.960440	1.968540	0.427280	-0.598509	0.243041	0.742247	-1.000000	-1.000000	-1.000000	-1.000000	-1.000000	-1.000000	-1.000000	50.000000	0.000000	-1.000000	-1.000000	419228.000000	1775804110.912100
-12080.790000	-26211.690000	1145.655000	20199.060000	6573.285000	-9389.340000	-45139.095000	-35972.640000	1.797805	2.154565	2.478131	3.156552	6.046545	2.955113	-0.164607	1.200573	2.960440	1.968540	0.427280	-0.598509	0.243041	0.742247	-1.000000	-1.000000	-1.000000	-1.000000	-1.000000	-1.000000	-1.000000	50.000000	0.000000	-1.000000	-1.000000	419229.000000	1775804110.912130
-12081.870000	-26213.445000	1147.635000	20203.020000	6571.755000	-9392.940000	-45144.810000	-35978.310000	1.230854	2.282464	2.192480	1.850571	2.599798	-0.861346	-1.026848	0.020672	2.960440	1.968540	0.427280	-0.598509	0.243041	0.742247	-1.000000	-1.000000	-1.000000	-1.000000	-1.000000	-1.000000	-1.000000	50.000000	0.000000	-1.000000	-1.000000	419230.000000	1775804110.912142
-12076.830000	-26210.565000	1149.660000	20204.595000	6577.020000	-9388.170000	-45140.670000	-35971.335000	-0.582042	0.521217	0.377143	-0.524852	-2.406695	-4.099700	-1.500545	-1.801259	2.960440	1.968540	0.427280	-0.598509	0.243041	0.742247	-1.000000	-1.000000	-1.000000	-1.000000	-1.000000	-1.000000	-1.000000	50.000000	0.000000	-1.000000	-1.000000	419231.000000	1775804110.915602
-12082.005000	-26217.540000	1139.940000	20195.505000	6575.715000	-9387.630000	-45141.705000	-35972.955000	-2.147385	-1.905263	-1.811262	-2.505619	-5.781608	-4.889397	-1.449978	-2.752790	2.960440	1.968540	0.427280	-0.598509	0.243041	0.742247	-1.000000	-1.000000	-1.000000	-1.000000	-1.000000	-1.000000	-1.000000	50.000000	0.000000	-1.000000	-1.000000	419232.000000	1775804110.915630
-12090.195000	-26226.855000	1131.705000	20189.430000	6573.285000	-9388.665000	-45145.980000	-35979.840000	-2.743245	-3.836751	-3.705149	-3.699091	-5.885535	-2.997573	-0.772437	-2.087249	0.900340	0.549360	0.167860	-0.601073	0.244323	0.743040	-1.000000	-1.000000	-1.000000	-1.000000	-1.000000	-1.000000	-1.000000	50.000000	0.000000	-1.000000	-1.000000	419233.000000	1775804110.917482
-12087.045000	-26223.480000	1137.420000	20194.155000	6575.535000	-9387.630000	-45145.710000	-35977.545000	-2.681651	-4.733770	-4.851151	-4.129530	-3.568385	0.025541	0.043379	-0.663138	0.900340	0.549360	0.167860	-0.601073	0.244323	0.743040	-1.000000	-1.000000	-1.000000	-1.000000	-1.000000	-1.000000	-1.000000	50.000000	0.000000	-1.000000	-1.000000	419234.000000	1775804110.917505
-12082.275000	-26218.305000	1141.830000	20195.865000	6575.535000	-9388.980000	-45143.640000	-35973.720000	-1.865232	-3.855180	-4.124421	-3.162382	-0.534088	2.341315	0.608937	0.667993	0.900340	0.549360	0.167860	-0.601073	0.244323	0.743040	-1.000000	-1.000000	-1.000000	-1.000000	-1.000000	-1.000000	-1.000000	50.000000	0.000000	-1.000000	-1.000000	419235.000000	1775804110.921257
-12086.820000	-26221.680000	1137.735000	20192.175000	6569.955000	-9395.190000	-45148.275000	-35978.895000	-0.000901	-0.898396	-1.093466	-0.621204	1.799305	2.919332	0.966169	1.749030	0.900340	0.549360	0.167860	-0.601073	0.244323	0.743040	-1.000000	-1.000000	-1.000000	-1.000000	-1.000000	-1.000000	-1.000000	50.000000	0.000000	-1.000000	-1.000000	419236.000000	1775804110.921282
-12085.605000	-26219.520000	1142.055000	20199.690000	6578.775000	-9389.655000	-45144.540000	-35978.535000	2.120996	2.776420	2.687834	2.341722	2.710662	1.836364	1.098707	2.240091	0.900340	0.549360	0.167860	-0.601073	0.244323	0.743040	-1.000000	-1.000000	-1.000000	-1.000000	-1.000000	-1.000000	-1.000000	50.000000	0.000000	-1.000000	-1.000000	419237.000000	1775804110.925409
-12086.235000	-26220.015000	1141.920000	20197.935000	6575.805000	-9392.490000	-45146.475000	-35979.795000	3.264556	5.163978	5.155594	4.390419	2.548009	0.234084	0.999134	1.814204	0.900340	0.549360	0.167860	-0.601073	0.244323	0.743040	-1.000000	-1.000000	-1.000000	-1.000000	-1.000000	-1.000000	-1.000000	50.000000	0.000000	-1.000000	-1.000000	419238.000000	1775804110.925431
-12085.830000	-26219.385000	1142.235000	20197.845000	6572.160000	-9392.715000	-45146.160000	-35979.615000	3.025963	5.300101	5.377713	4.770047	1.858706	-0.762168	0.759070	0.792775	0.900340	0.549360	0.167860	-0.601073	0.244323	0.743040	-1.000000	-1.000000	-1.000000	-1.000000	-1.000000	-1.000000	-1.000000	50.000000	0.000000	-1.000000	-1.000000	419239.000000	1775804110.933194
-12084.975000	-26217.450000	1143.720000	20199.375000	6573.240000	-9390.015000	-45146.115000	-35980.020000	1.842010	3.558461	3.626491	3.362897	0.694012	-0.893401	0.398972	-0.189201	0.900340	0.549360	0.167860	-0.601073	0.244323	0.743040	-1.000000	-1.000000	-1.000000	-1.000000	-1.000000	-1.000000	-1.000000	50.000000	0.000000	-1.000000	-1.000000	419240.000000	1775804110.933218
-12083.625000	-26218.125000	1141.560000	20196.540000	6573.780000	-9387.810000	-45145.440000	-35977.095000	0.453527	1.053203	0.912387	0.866360	-0.614773	-0.344010	-0.004840	-0.663761	0.900340	0.549360	0.167860	-0.601073	0.244323	0.743040	-1.000000	-1.000000	-1.000000	-1.000000	-1.000000	-1.000000	-1.000000	50.000000	0.000000	-1.000000	-1.000000	419241.000000	1775804110.934743
-12078.765000	-26213.805000	1145.700000	20199.780000	6579.810000	-9387.765000	-45147.105000	-35973.495000	-0.482964	-1.101742	-1.582624	-1.590895	-1.261491	0.506672	-0.336895	-0.436269	0.900340	0.549360	0.167860	-0.601073	0.244323	0.743040	-1.000000	-1.000000	-1.000000	-1.000000	-1.000000	-1.000000	-1.000000	50.000000	0.000000	-1.000000	-1.000000	419242.000000	1775804110.934766
-12081.960000	-26216.190000	1144.755000	20198.340000	6574.005000	-9395.955000	-45152.955000	-35977.590000	-0.750147	-2.271873	-2.958983	-3.044739	-0.905561	0.899785	-0.694621	0.216400	-2.807840	-0.381500	1.144500	-0.600768	0.248290	0.743956	-1.000000	-1.000000	-1.000000	-1.000000	-1.000000	-1.000000	-1.000000	50.000000	0.000000	-1.000000	-1.000000	419243.000000	1775804110.939747
-12080.115000	-26211.465000	1148.985000	20201.445000	6571.845000	-9394.830000	-45152.370000	-35977.275000	-0.733151	-2.428951	-2.925234	-3.094381	-0.260048	0.196142	-1.216541	0.529940	-2.807840	-0.381500	1.144500	-0.600768	0.248290	0.743956	-1.000000	-1.000000	-1.000000	-1.000000	-1.000000	-1.000000	-1.000000	50.000000	0.000000	-1.000000	-1.000000	419244.000000	1775804110.939771
-12077.055000	-26207.325000	1152.630000	20203.965000	6573.195000	-9390.375000	-45145.665000	-35974.755000	-0.812019	-1.805601	-1.789102	-1.972700	-0.176016	-1.074029	-1.453901	0.108895	-2.807840	-0.381500	1.144500	-0.600768	0.248290	0.743956	-1.000000	-1.000000	-1.000000	-1.000000	-1.000000	-1.000000	-1.000000	50.000000	0.000000	-1.000000	-1.000000	419245.000000	1775804110.942627
-12079.755000	-26214.795000	1142.595000	20194.155000	6566.085000	-9395.190000	-45145.035000	-35974.125000	-0.915705	-0.839778	-0.395289	-0.499156	-0.627167	-1.639880	-0.652783	-0.554939	-2.807840	-0.381500	1.144500	-0.600768	0.248290	0.743956	-1.000000	-1.000000	-1.000000	-1.000000	-1.000000	-1.000000	-1.000000	50.000000	0.000000	-1.000000	-1.000000	419246.000000	1775804110.942651
-12081.915000	-26217.720000	1139.625000	20193.435000	6572.160000	-9390.015000	-45144.270000	-35973.630000	-1.027956	-0.425118	0.037736	0.177855	-1.053613	-1.073783	0.982327	-0.858071	-2.807840	-0.381500	1.144500	-0.600768	0.248290	0.743956	-1.000000	-1.000000	-1.000000	-1.000000	-1.000000	-1.000000	-1.000000	50.000000	0.000000	-1.000000	-1.000000	419247.000000	1775804110.947249
-12085.065000	-26220.150000	1138.005000	20194.065000	6570.630000	-9387.855000	-45144.630000	-35975.070000	-1.304291	-1.025297	-0.837951	-0.209674	-0.845110	0.176487	2.237873	-0.762383	-2.807840	-0.381500	1.144500	-0.600768	0.248290	0.743956	-1.000000	-1.000000	-1.000000	-1.000000	-1.000000	-1.000000	-1.000000	50.000000	0.000000	-1.000000	-1.000000	419248.000000	1775804110.947276
-12080.430000	-26215.560000	1142.820000	20198.610000	6569.685000	-9384.975000	-45142.245000	-35971.380000	-1.511759	-1.798362	-1.775528	-0.578574	0.119470	1.525664	2.224047	-0.511925	-2.807840	-0.381500	1.144500	-0.600768	0.248290	0.743956	-1.000000	-1.000000	-1.000000	-1.000000	-1.000000	-1.000000	-1.000000	50.000000	0.000000	-1.000000	-1.000000	419249.000000	1775804110.950194
-12078.405000	-26211.600000	1147.320000	20203.560000	6574.635000	-9384.795000	-45144.315000	-35972.145000	-1.010111	-1.405584	-1.234412	0.163209	1.257715	2.315722	1.067123	-0.192170	-2.807840	-0.381500	1.144500	-0.600768	0.248290	0.743956	-1.000000	-1.000000	-1.000000	-1.000000	-1.000000	-1.000000	-1.000000	50.000000	0.000000	-1.000000	-1.000000	419250.000000	1775804110.950217
-12079.440000	-26212.455000	1146.735000	20202.255000	6582.555000	-9384.390000	-45145.755000	-35974.080000	0.352526	0.443765	0.917057	1.830144	2.168085	2.031571	-0.572528	0.095549	-2.807840	-0.381500	1.144500	-0.600768	0.248290	0.743956	-1.000000	-1.000000	-1.000000	-1.000000	-1.000000	-1.000000	-1.000000	50.000000	0.000000	-1.000000	-1.000000	419251.000000	1775804110.954534
-12083.580000	-26216.055000	1144.260000	20201.670000	6581.745000	-9387.270000	-45148.950000	-35978.490000	1.680566	2.465313	3.130003	3.059786	2.771079	0.670026	-2.061981	0.023567	-2.807840	-0.381500	1.144500	-0.600768	0.248290	0.743956	-1.000000	-1.000000	-1.000000	-1.000000	-1.000000	-1.000000	-1.000000	50.000000	0.000000	-1.000000	-1.000000	419252.000000	1775804110.954557
-12073.050000	-26206.065000	1153.170000	20208.060000	6576.030000	-9385.335000	-45138.960000	-35966.160000	2.104690	3.249184	3.835268	2.798739	2.474875	-1.181492	-2.712256	-0.303512	-2.670500	-0.106820	2.166920	-0.601561	0.251647	0.742857	-1.000000	-1.000000	-1.000000	-1.000000	-1.000000	-1.000000	-1.000000	50.000000	0.000000	-1.000000	-1.000000	419253.000000	1775804110.957374
-12071.835000	-26205.840000	1152.360000	20204.865000	6574.365000	-9385.830000	-45136.080000	-35963.460000	1.917672	2.798778	2.986264	1.326785	0.602107	-2.568561	-1.816385	-0.003415	-2.670500	-0.106820	2.166920	-0.601561	0.251647	0.742857	-1.000000	-1.000000	-1.000000	-1.000000	-1.000000	-1.000000	-1.000000	50.000000	0.000000	-1.000000	-1.000000	419254.000000	1775804110.957393
-12085.740000	-26218.530000	1141.290000	20193.930000	6570.495000	-9396.495000	-45148.590000	-35977.905000	1.407147	1.550055	1.150945	-0.734410	-2.311648	-2.988125	0.132639	0.943394	-2.670500	-0.106820	2.166920	-0.601561	0.251647	0.742857	-1.000000	-1.000000	-1.000000	-1.000000	-1.000000	-1.000000	-1.000000	50.000000	0.000000	-1.000000	-1.000000	419255.000000	1775804110.961127
-12089.790000	-26220.285000	1140.435000	20195.910000	6577.965000	-9394.335000	-45152.370000	-35981.505000	-0.131113	-0.679702	-1.477565	-3.034479	-4.509047	-2.753554	1.165752	0.918722	-2.670500	-0.106820	2.166920	-0.601561	0.251647	0.742857	-1.000000	-1.000000	-1.000000	-1.000000	-1.000000	-1.000000	-1.000000	50.000000	0.000000	-1.000000	-1.000000	419256.000000	1775804110.961148
-12095.190000	-26226.270000	1134.270000	20190.375000	6574.050000	-9394.380000	-45155.160000	-35985.330000	-2.685347	-3.419662	-4.152307	-4.668233	-4.445330	-1.998011	0.232558	-0.849631	-2.670500	-0.106820	2.166920	-0.601561	0.251647	0.742857	-1.000000	-1.000000	-1.000000	-1.000000	-1.000000	-1.000000	-1.000000	50.000000	0.000000	-1.000000	-1.000000	419257.000000	1775804110.971466
-12090.645000	-26222.445000	1136.385000	20191.770000	6574.680000	-9390.240000	-45152.055000	-35980.920000	-4.525309	-5.018340	-5.396522	-4.522682	-2.259063	-0.381495	-1.372641	-2.782420	-2.670500	-0.106820	2.166920	-0.601561	0.251647	0.742857	-1.000000	-1.000000	-1.000000	-1.000000	-1.000000	-1.000000	-1.000000	50.000000	0.000000	-1.000000	-1.000000	419258.000000	1775804110.971492
-12083.400000	-26216.415000	1141.740000	20196.495000	6579.000000	-9383.220000	-45144.945000	-35973.180000	-3.731384	-4.000134	-4.138650	-2.327654	0.577084	2.035260	-1.580570	-2.682194	-2.670500	-0.106820	2.166920	-0.601561	0.251647	0.742857	-1.000000	-1.000000	-1.000000	-1.000000	-1.000000	-1.000000	-1.000000	50.000000	0.000000	-1.000000	-1.000000	419259.000000	1775804110.971521
-12080.565000	-26214.525000	1144.800000	20199.060000	6569.910000	-9384.615000	-45142.920000	-35971.425000	-0.099045	-0.421867	-0.563016	1.213000	2.625846	4.381014	0.355518	0.018286	-2.670500	-0.106820	2.166920	-0.601561	0.251647	0.742857	-1.000000	-1.000000	-1.000000	-1.000000	-1.000000	-1.000000	-1.000000	50.000000	0.000000	-1.000000	-1.000000	419260.000000	1775804110.971534
-12081.105000	-26214.210000	1144.890000	20198.025000	6555.420000	-9392.355000	-45144.540000	-35972.685000	4.281515	3.769402	3.620027	4.539254	2.698237	5.122395	3.097733	3.535349	-2.670500	-0.106820	2.166920	-0.601561	0.251647	0.742857	-1.000000	-1.000000	-1.000000	-1.000000	-1.000000	-1.000000	-1.000000	50.000000	0.000000	-1.000000	-1.000000	419261.000000	1775804110.973432
-12085.605000	-26216.460000	1140.930000	20193.480000	6546.870000	-9398.475000	-45147.015000	-35975.880000	6.482765	6.026904	6.022521	5.826940	0.355695	3.100013	4.384030	5.205410	-2.670500	-0.106820	2.166920	-0.601561	0.251647	0.742857	-1.000000	-1.000000	-1.000000	-1.000000	-1.000000	-1.000000	-1.000000	50.000000	0.000000	-1.000000	-1.000000	419262.000000	1775804110.973450
-12088.890000	-26219.475000	1137.690000	20190.375000	6561.045000	-9394.605000	-45146.475000	-35976.420000	5.027741	5.087949	5.241124	4.249265	-2.590761	-0.858350	3.133279	3.818252	-3.189340	1.358140	2.182180	-0.599791	0.250976	0.742552	-1.000000	-1.000000	-1.000000	-1.000000	-1.000000	-1.000000	-1.000000	50.000000	0.000000	-1.000000	-1.000000	419263.000000	1775804110.978198
-12085.065000	-26218.215000	1140.840000	20193.030000	6588.720000	-9384.840000	-45146.610000	-35975.835000	1.012145	1.732580	1.960564	0.810046	-2.463166	-3.941888	0.265390	0.457316	-3.189340	1.358140	2.182180	-0.599791	0.250976	0.742552	-1.000000	-1.000000	-1.000000	-1.000000	-1.000000	-1.000000	-1.000000	50.000000	0.000000	-1.000000	-1.000000	419264.000000	1775804110.978216
-12080.565000	-26214.480000	1143.900000	20194.335000	6579.585000	-9384.390000	-45145.080000	-35973.045000	-2.753323	-1.839218	-1.506378	-2.271595	2.222076	-3.849431	-2.361632	-2.625356	-3.189340	1.358140	2.182180	-0.599791	0.250976	0.742552	-1.000000	-1.000000	-1.000000	-1.000000	-1.000000	-1.000000	-1.000000	50.000000	0.000000	-1.000000	-1.000000	419265.000000	1775804110.993109
-12087.090000	-26221.635000	1137.735000	20190.420000	6573.330000	-9390.285000	-45149.130000	-35978.580000	-4.194239	-3.753296	-3.260510	-3.432084	7.537590	-1.248585	-3.514048	-3.888308	-3.189340	1.358140	2.182180	-0.599791	0.250976	0.742552	-1.000000	-1.000000	-1.000000	-1.000000	-1.000000	-1.000000	-1.000000	50.000000	0.000000	-1.000000	-1.000000	419266.000000	1775804110.993135
-12084.030000	-26218.170000	1141.245000	20196.450000	6582.240000	-9390.240000	-45148.005000	-35977.995000	-3.489146	-3.760262	-3.191375	-2.731521	8.245882	1.122379	-3.177178	-3.410470	-3.189340	1.358140	2.182180	-0.599791	0.250976	0.742552	-1.000000	-1.000000	-1.000000	-1.000000	-1.000000	-1.000000	-1.000000	50.000000	0.000000	-1.000000	-1.000000	419267.000000	1775804110.993163
-12078.495000	-26212.050000	1147.995000	20202.885000	6583.635000	-9389.340000	-45147.645000	-35976.285000	-1.782252	-2.427040	-1.963629	-0.895075	3.909992	1.586973	-1.934927	-2.021933	-3.189340	1.358140	2.182180	-0.599791	0.250976	0.742552	-1.000000	-1.000000	-1.000000	-1.000000	-1.000000	-1.000000	-1.000000	50.000000	0.000000	-1.000000	-1.000000	419268.000000	1775804110.993176
-12083.130000	-26217.315000	1144.530000	20198.385000	6575.445000	-9394.785000	-45152.055000	-35981.280000	0.119705	-0.345022	-0.118906	1.226042	-2.133652	0.555118	-0.423064	-0.399031	-3.189340	1.358140	2.182180	-0.599791	0.250976	0.742552	-1.000000	-1.000000	-1.000000	-1.000000	-1.000000	-1.000000	-1.000000	50.000000	0.000000	-1.000000	-1.000000	419269.000000	1775804110.993192
-12083.895000	-26215.515000	1147.905000	20203.560000	6581.115000	-9390.240000	-45150.705000	-35982.720000	1.369899	1.438077	1.461108	2.446174	-6.867530	-0.778106	0.726899	0.806362	-3.189340	1.358140	2.182180	-0.599791	0.250976	0.742552	-1.000000	-1.000000	-1.000000	-1.000000	-1.000000	-1.000000	-1.000000	50.000000	0.000000	-1.000000	-1.000000	419270.000000	1775804110.993204
-12082.545000	-26212.005000	1152.495000	20210.220000	6587.190000	-9385.515000	-45144.990000	-35979.930000	1.397652	2.072163	2.031911	2.245375	-8.456028	-1.265798	1.371597	1.269215	-3.189340	1.358140	2.182180	-0.599791	0.250976	0.742552	-1.000000	-1.000000	-1.000000	-1.000000	-1.000000	-1.000000	-1.000000	50.000000	0.000000	-1.000000	-1.000000	419271.000000	1775804110.997346
-12079.665000	-26213.850000	1145.700000	20201.310000	6581.610000	-9387.000000	-45143.505000	-35974.125000	0.681554	1.719205	1.573874	1.096383	-6.476320	-0.416797	1.918487	1.467454	-3.189340	1.358140	2.182180	-0.599791	0.250976	0.742552	-1.000000	-1.000000	-1.000000	-1.000000	-1.000000	-1.000000	-1.000000	50.000000	0.000000	-1.000000	-1.000000	419272.000000	1775804110.997373
-12079.260000	-26215.695000	1143.405000	20197.755000	6574.680000	-9388.350000	-45145.215000	-35973.540000	0.130069	0.824467	0.206436	-0.740079	-2.744147	0.949813	2.357412	1.954075	-0.900340	2.380560	2.227960	-0.599486	0.248107	0.743040	-1.000000	-1.000000	-1.000000	-1.000000	-1.000000	-1.000000	-1.000000	50.000000	0.000000	-1.000000	-1.000000	419273.000000	1775804110.998834
-12083.625000	-26219.340000	1140.480000	20196.270000	6574.005000	-9386.460000	-45146.790000	-35978.265000	-0.022878	-0.400796	-1.717473	-2.972485	0.186631	1.578528	2.034440	2.327799	-0.900340	2.380560	2.227960	-0.599486	0.248107	0.743040	-1.000000	-1.000000	-1.000000	-1.000000	-1.000000	-1.000000	-1.000000	50.000000	0.000000	-1.000000	-1.000000	419274.000000	1775804110.998854
-12079.890000	-26215.875000	1143.045000	20199.465000	6581.475000	-9380.970000	-45143.820000	-35974.575000	-0.153651	-1.550422	-3.143935	-4.380970	1.604883	1.244950	0.714546	1.721228	-0.900340	2.380560	2.227960	-0.599486	0.248107	0.743040	-1.000000	-1.000000	-1.000000	-1.000000	-1.000000	-1.000000	-1.000000	50.000000	0.000000	-1.000000	-1.000000	419275.000000	1775804111.004836
-12084.075000	-26218.665000	1140.885000	20196.360000	6572.835000	-9392.445000	-45150.840000	-35981.190000	-0.412052	-1.957117	-3.035536	-3.794207	2.378242	0.431859	-0.996214	0.080812	-0.900340	2.380560	2.227960	-0.599486	0.248107	0.743040	-1.000000	-1.000000	-1.000000	-1.000000	-1.000000	-1.000000	-1.000000	50.000000	0.000000	-1.000000	-1.000000	419276.000000	1775804111.004863
-12085.560000	-26219.475000	1140.345000	20194.920000	6571.530000	-9396.855000	-45151.740000	-35981.640000	-0.685597	-1.403131	-1.415768	-1.497918	2.787944	-0.856147	-2.427147	-1.854080	-0.900340	2.380560	2.227960	-0.599486	0.248107	0.743040	-1.000000	-1.000000	-1.000000	-1.000000	-1.000000	-1.000000	-1.000000	50.000000	0.000000	-1.000000	-1.000000	419277.000000	1775804111.005481
-12081.780000	-26215.515000	1145.430000	20199.510000	6572.655000	-9394.245000	-45148.455000	-35977.725000	-0.808924	-0.280940	0.806696	1.197163	2.489946	-2.445034	-3.046996	-3.102430	-0.900340	2.380560	2.227960	-0.599486	0.248107	0.743040	-1.000000	-1.000000	-1.000000	-1.000000	-1.000000	-1.000000	-1.000000	50.000000	0.000000	-1.000000	-1.000000	419278.000000	1775804111.005498
-12077.640000	-26212.770000	1147.635000	20202.345000	6575.715000	-9388.845000	-45149.445000	-35973.990000	-0.379365	1.029881	2.784266	3.320086	1.806085	-3.032286	-2.358352	-2.750958	-0.900340	2.380560	2.227960	-0.599486	0.248107	0.743040	-1.000000	-1.000000	-1.000000	-1.000000	-1.000000	-1.000000	-1.000000	50.000000	0.000000	-1.000000	-1.000000	419279.000000	1775804111.011101
-12080.700000	-26217.045000	1142.460000	20199.195000	6574.275000	-9389.340000	-45149.220000	-35975.655000	0.676516	2.090156	3.801997	4.356139	1.355532	-1.577312	-0.577128	-0.845883	-0.900340	2.380560	2.227960	-0.599486	0.248107	0.743040	-1.000000	-1.000000	-1.000000	-1.000000	-1.000000	-1.000000	-1.000000	50.000000	0.000000	-1.000000	-1.000000	419280.000000	1775804111.011126
-12080.565000	-26216.955000	1142.865000	20200.815000	6575.760000	-9385.920000	-45145.305000	-35973.585000	1.562451	2.188821	3.188173	3.872604	1.143296	1.174945	1.365133	1.327515	-0.900340	2.380560	2.227960	-0.599486	0.248107	0.743040	-1.000000	-1.000000	-1.000000	-1.000000	-1.000000	-1.000000	-1.000000	50.000000	0.000000	-1.000000	-1.000000	419281.000000	1775804111.014197
-12082.770000	-26218.980000	1141.065000	20198.745000	6570.405000	-9388.620000	-45148.770000	-35976.105000	1.447230	1.092026	1.112844	1.994381	0.709556	3.406243	2.612514	2.406427	-0.900340	2.380560	2.227960	-0.599486	0.248107	0.743040	-1.000000	-1.000000	-1.000000	-1.000000	-1.000000	-1.000000	-1.000000	50.000000	0.000000	-1.000000	-1.000000	419282.000000	1775804111.014223
-12082.095000	-26216.820000	1143.810000	20200.005000	6568.740000	-9387.495000	-45149.895000	-35977.230000	0.393828	-0.492826	-1.202176	-0.389464	-0.286518	3.785100	2.625192	1.931299	1.602300	2.456860	0.503580	-0.601500	0.244689	0.744810	-1.000000	-1.000000	-1.000000	-1.000000	-1.000000	-1.000000	-1.000000	50.000000	0.000000	-1.000000	-1.000000	419283.000000	1775804111.021115
-12080.430000	-26214.705000	1145.430000	20200.320000	6570.720000	-9384.300000	-45147.420000	-35975.205000	-0.780212	-1.496682	-2.432165	-2.198790	-1.540352	2.356623	1.454772	0.445266	1.602300	2.456860	0.503580	-0.601500	0.244689	0.744810	-1.000000	-1.000000	-1.000000	-1.000000	-1.000000	-1.000000	-1.000000	50.000000	0.000000	-1.000000	-1.000000	419284.000000	1775804111.021141
-12077.460000	-26213.580000	1145.970000	20202.885000	6576.660000	-9383.895000	-45145.890000	-35973.405000	-1.210865	-1.347128	-2.116692	-2.744066	-2.064718	0.289960	-0.023825	-0.910382	1.602300	2.456860	0.503580	-0.601500	0.244689	0.744810	-1.000000	-1.000000	-1.000000	-1.000000	-1.000000	-1.000000	-1.000000	50.000000	0.000000	-1.000000	-1.000000	419285.000000	1775804111.025434
-12085.695000	-26222.040000	1138.095000	20195.280000	6574.860000	-9392.220000	-45152.190000	-35981.190000	-0.820578	-0.536753	-1.006686	-2.171673	-1.224986	-1.459723	-1.011196	-1.438653	1.602300	2.456860	0.503580	-0.601500	0.244689	0.744810	-1.000000	-1.000000	-1.000000	-1.000000	-1.000000	-1.000000	-1.000000	50.000000	0.000000	-1.000000	-1.000000	419286.000000	1775804111.025453
-12083.445000	-26218.755000	1142.190000	20198.520000	6572.475000	-9394.065000	-45152.370000	-35981.640000	-0.380436	-0.104180	-0.267088	-1.299616	0.267085	-2.809072	-1.541218	-1.462493	1.602300	2.456860	0.503580	-0.601500	0.244689	0.744810	-1.000000	-1.000000	-1.000000	-1.000000	-1.000000	-1.000000	-1.000000	50.000000	0.000000	-1.000000	-1.000000	419287.000000	1775804111.026866
-12078.180000	-26213.535000	1146.645000	20201.085000	6574.140000	-9391.545000	-45148.365000	-35976.960000	-0.229227	-0.165806	-0.037841	-0.546011	1.108195	-3.576714	-1.714924	-1.284079	1.602300	2.456860	0.503580	-0.601500	0.244689	0.744810	-1.000000	-1.000000	-1.000000	-1.000000	-1.000000	-1.000000	-1.000000	50.000000	0.000000	-1.000000	-1.000000	419288.000000	1775804111.026884
-12080.925000	-26216.460000	1143.900000	20198.835000	6570.720000	-9392.715000	-45149.175000	-35978.895000	0.105048	0.034453	0.347965	0.276332	0.828077	-3.082681	-1.200832	-0.578052	1.602300	2.456860	0.503580	-0.601500	0.244689	0.744810	-1.000000	-1.000000	-1.000000	-1.000000	-1.000000	-1.000000	-1.000000	50.000000	0.000000	-1.000000	-1.000000	419289.000000	1775804111.031115
-12081.555000	-26215.605000	1142.100000	20194.110000	6563.430000	-9393.030000	-45147.465000	-35978.085000	0.650444	0.595196	0.862422	0.950654	-0.261753	-1.242567	-0.031195	0.622665	1.602300	2.456860	0.503580	-0.601500	0.244689	0.744810	-1.000000	-1.000000	-1.000000	-1.000000	-1.000000	-1.000000	-1.000000	50.000000	0.000000	-1.000000	-1.000000	419290.000000	1775804111.031142
-12085.470000	-26219.520000	1138.095000	20189.430000	6559.110000	-9397.170000	-45153.450000	-35984.565000	0.780300	0.852205	0.816367	0.845480	-1.707039	0.954582	1.034386	1.521262	1.602300	2.456860	0.503580	-0.601500	0.244689	0.744810	-1.000000	-1.000000	-1.000000	-1.000000	-1.000000	-1.000000	-1.000000	50.000000	0.000000	-1.000000	-1.000000	419291.000000	1775804111.038343
-12088.395000	-26221.995000	1138.590000	20193.165000	6563.880000	-9393.165000	-45156.645000	-35989.335000	0.155259	0.367499	0.028106	0.013500	-2.672227	2.398903	1.132496	1.312393	1.602300	2.456860	0.503580	-0.601500	0.244689	0.744810	-1.000000	-1.000000	-1.000000	-1.000000	-1.000000	-1.000000	-1.000000	50.000000	0.000000	-1.000000	-1.000000	419292.000000	1775804111.038371
-12082.725000	-26214.975000	1145.700000	20199.960000	6569.055000	-9397.800000	-45159.930000	-35986.455000	-0.744790	-0.488747	-0.723030	-0.443139	-1.993815	2.735469	0.126236	0.108268	2.151660	1.907500	0.457800	-0.598143	0.248229	0.745848	-1.000000	-1.000000	-1.000000	-1.000000	-1.000000	-1.000000	-1.000000	50.000000	0.000000	-1.000000	-1.000000	419293.000000	1775804111.038398
-12080.520000	-26212.815000	1147.950000	20202.480000	6574.905000	-9394.470000	-45155.970000	-35983.080000	-0.898782	-0.708953	-0.423252	0.433094	0.626473	2.206598	-1.070671	-0.853693	2.151660	1.907500	0.457800	-0.598143	0.248229	0.745848	-1.000000	-1.000000	-1.000000	-1.000000	-1.000000	-1.000000	-1.000000	50.000000	0.000000	-1.000000	-1.000000	419294.000000	1775804111.038410
-12079.215000	-26213.625000	1146.645000	20201.040000	6573.645000	-9388.620000	-45147.600000	-35978.490000	0.104208	0.100660	0.840912	2.071151	3.809880	1.399044	-1.098409	-0.422748	2.151660	1.907500	0.457800	-0.598143	0.248229	0.745848	-1.000000	-1.000000	-1.000000	-1.000000	-1.000000	-1.000000	-1.000000	50.000000	0.000000	-1.000000	-1.000000	419295.000000	1775804111.043646
-12082.950000	-26219.070000	1141.110000	20196.405000	6570.450000	-9389.700000	-45146.880000	-35979.390000	1.389866	0.986024	1.707317	2.772860	5.313911	0.928241	0.558277	1.155074	2.151660	1.907500	0.457800	-0.598143	0.248229	0.745848	-1.000000	-1.000000	-1.000000	-1.000000	-1.000000	-1.000000	-1.000000	50.000000	0.000000	-1.000000	-1.000000	419296.000000	1775804111.043670
-12082.815000	-26218.305000	1141.155000	20197.935000	6574.635000	-9389.835000	-45148.005000	-35979.840000	1.712569	0.816030	1.056441	1.546792	3.961480	0.681457	2.695186	2.449216	2.151660	1.907500	0.457800	-0.598143	0.248229	0.745848	-1.000000	-1.000000	-1.000000	-1.000000	-1.000000	-1.000000	-1.000000	50.000000	0.000000	-1.000000	-1.000000	419297.000000	1775804111.055725
-12082.095000	-26216.550000	1143.360000	20200.320000	6575.040000	-9391.185000	-45150.300000	-35981.145000	0.798368	-0.269160	-0.647928	-0.775833	0.756226	0.048168	3.368362	2.234367	2.151660	1.907500	0.457800	-0.598143	0.248229	0.745848	-1.000000	-1.000000	-1.000000	-1.000000	-1.000000	-1.000000	-1.000000	50.000000	0.000000	-1.000000	-1.000000	419298.000000	1775804111.055752
-12082.365000	-26216.190000	1143.270000	20201.940000	6577.920000	-9391.815000	-45153.180000	-35982.810000	-0.537764	-1.145788	-1.917572	-2.450265	-2.239973	-1.101954	1.785117	0.516946	2.151660	1.907500	0.457800	-0.598143	0.248229	0.745848	-1.000000	-1.000000	-1.000000	-1.000000	-1.000000	-1.000000	-1.000000	50.000000	0.000000	-1.000000	-1.000000	419299.000000	1775804111.055781
-12087.720000	-26222.130000	1137.105000	20196.855000	6573.105000	-9394.740000	-45156.330000	-35987.490000	-1.489279	-1.213665	-1.989519	-2.644859	-3.764699	-2.284773	-1.156351	-1.743331	2.151660	1.907500	0.457800	-0.598143	0.248229	0.745848	-1.000000	-1.000000	-1.000000	-1.000000	-1.000000	-1.000000	-1.000000	50.000000	0.000000	-1.000000	-1.000000	419300.000000	1775804111.055793
-12085.830000	-26220.015000	1140.300000	20199.195000	6572.610000	-9394.605000	-45153.945000	-35986.680000	-1.858905	-0.838757	-1.297893	-1.880500	-3.887776	-2.897605	-3.686668	-3.423035	2.151660	1.907500	0.457800	-0.598143	0.248229	0.745848	-1.000000	-1.000000	-1.000000	-1.000000	-1.000000	-1.000000	-1.000000	50.000000	0.000000	-1.000000	-1.000000	419301.000000	1775804111.055808
-12087.000000	-26220.780000	1138.725000	20197.665000	6570.720000	-9394.920000	-45152.685000	-35987.085000	-1.612550	-0.386001	-0.380612	-0.904982	-3.203163	-2.558589	-4.283251	-3.675078	2.151660	1.907500	0.457800	-0.598143	0.248229	0.745848	-1.000000	-1.000000	-1.000000	-1.000000	-1.000000	-1.000000	-1.000000	50.000000	0.000000	-1.000000	-1.000000	419302.000000	1775804111.055819
-12089.385000	-26222.715000	1135.305000	20192.175000	6565.275000	-9398.520000	-45154.665000	-35990.190000	-0.793223	0.128107	0.491884	-0.132776	-2.153139	-1.361868	-2.704071	-2.380191	-0.915600	2.334780	1.312360	-0.598265	0.255798	0.744505	-1.000000	-1.000000	-1.000000	-1.000000	-1.000000	-1.000000	-1.000000	50.000000	0.000000	-1.000000	-1.000000	419303.000000	1775804111.057132
-12091.635000	-26225.280000	1132.830000	20188.935000	6563.655000	-9400.365000	-45156.240000	-35993.295000	0.169836	0.542365	0.942706	0.108318	-1.063148	0.056990	-0.172179	-0.383453	-0.915600	2.334780	1.312360	-0.598265	0.255798	0.744505	-1.000000	-1.000000	-1.000000	-1.000000	-1.000000	-1.000000	-1.000000	50.000000	0.000000	-1.000000	-1.000000	419304.000000	1775804111.057150
-12084.975000	-26220.465000	1137.150000	20194.470000	6569.640000	-9395.595000	-45150.930000	-35985.870000	0.928542	0.721844	0.897830	-0.015689	0.086553	1.166463	1.868650	1.372567	-0.915600	2.334780	1.312360	-0.598265	0.255798	0.744505	-1.000000	-1.000000	-1.000000	-1.000000	-1.000000	-1.000000	-1.000000	50.000000	0.000000	-1.000000	-1.000000	419305.000000	1775804111.061557
-12086.505000	-26221.140000	1135.530000	20191.410000	6565.365000	-9399.015000	-45155.790000	-35990.280000	1.598819	0.900060	0.831815	0.230518	1.553680	1.945886	2.812746	2.604064	-0.915600	2.334780	1.312360	-0.598265	0.255798	0.744505	-1.000000	-1.000000	-1.000000	-1.000000	-1.000000	-1.000000	-1.000000	50.000000	0.000000	-1.000000	-1.000000	419306.000000	1775804111.061577
-12084.120000	-26216.190000	1142.325000	20197.845000	6570.405000	-9393.165000	-45153.720000	-35989.560000	2.138652	1.255124	1.109187	1.151236	3.030429	2.410292	2.604838	3.105958	-0.915600	2.334780	1.312360	-0.598265	0.255798	0.744505	-1.000000	-1.000000	-1.000000	-1.000000	-1.000000	-1.000000	-1.000000	50.000000	0.000000	-1.000000	-1.000000	419307.000000	1775804111.065485
-12084.930000	-26216.190000	1143.810000	20199.330000	6566.850000	-9392.175000	-45154.440000	-35990.055000	2.118045	1.583648	1.641970	2.319032	3.756699	2.486417	1.516997	2.578659	-0.915600	2.334780	1.312360	-0.598265	0.255798	0.744505	-1.000000	-1.000000	-1.000000	-1.000000	-1.000000	-1.000000	-1.000000	50.000000	0.000000	-1.000000	-1.000000	419308.000000	1775804111.065506
-12086.325000	-26217.990000	1142.370000	20200.365000	6563.745000	-9395.325000	-45156.330000	-35991.540000	1.269315	1.434921	1.928003	3.024796	3.176145	2.055141	0.149384	1.219788	-0.915600	2.334780	1.312360	-0.598265	0.255798	0.744505	-1.000000	-1.000000	-1.000000	-1.000000	-1.000000	-1.000000	-1.000000	50.000000	0.000000	-1.000000	-1.000000	419309.000000	1775804111.069530
-12088.620000	-26225.955000	1130.310000	20185.605000	6553.710000	-9400.140000	-45155.565000	-35990.415000	-0.238654	0.331169	1.093653	2.360411	1.150403	0.796642	-0.964213	-0.339327	-0.915600	2.334780	1.312360	-0.598265	0.255798	0.744505	-1.000000	-1.000000	-1.000000	-1.000000	-1.000000	-1.000000	-1.000000	50.000000	0.000000	-1.000000	-1.000000	419310.000000	1775804111.069545
-12083.715000	-26222.670000	1133.010000	20184.480000	6544.800000	-9401.400000	-45150.975000	-35985.690000	-1.737349	-1.600523	-1.194170	-0.190816	-1.853251	-1.237634	-1.405214	-1.351691	-0.915600	2.334780	1.312360	-0.598265	0.255798	0.744505	-1.000000	-1.000000	-1.000000	-1.000000	-1.000000	-1.000000	-1.000000	50.000000	0.000000	-1.000000	-1.000000	419311.000000	1775804111.073498
-12081.420000	-26218.755000	1138.680000	20192.760000	6537.150000	-9407.115000	-45154.305000	-35986.410000	-2.274493	-3.102707	-3.533176	-3.317951	-4.669843	-3.194533	-0.992343	-1.345651	-0.915600	2.334780	1.312360	-0.598265	0.255798	0.744505	-1.000000	-1.000000	-1.000000	-1.000000	-1.000000	-1.000000	-1.000000	50.000000	0.000000	-1.000000	-1.000000	419312.000000	1775804111.073515
-12076.515000	-26212.410000	1144.800000	20199.780000	6542.505000	-9402.795000	-45152.505000	-35983.755000	-1.419060	-2.720687	-3.732354	-4.305800	-5.660371	-3.977078	-0.185812	-0.606872	-2.990960	1.663340	0.289940	-0.599669	0.258178	0.744505	-1.000000	-1.000000	-1.000000	-1.000000	-1.000000	-1.000000	-1.000000	50.000000	0.000000	-1.000000	-1.000000	419313.000000	1775804111.078155
-12076.605000	-26211.960000	1145.655000	20201.265000	6571.170000	-9394.380000	-45151.470000	-35984.205000	0.223748	-0.442044	-1.313102	-2.021936	-3.106852	-2.780992	0.372490	0.115720	-2.990960	1.663340	0.289940	-0.599669	0.258178	0.744505	-1.000000	-1.000000	-1.000000	-1.000000	-1.000000	-1.000000	-1.000000	50.000000	0.000000	-1.000000	-1.000000	419314.000000	1775804111.078174
-12079.980000	-26215.290000	1142.640000	20199.015000	6601.455000	-9381.735000	-45149.490000	-35985.330000	1.384816	2.035915	1.823733	1.626035	3.690899	0.491950	0.540056	0.267811	-2.990960	1.663340	0.289940	-0.599669	0.258178	0.744505	-1.000000	-1.000000	-1.000000	-1.000000	-1.000000	-1.000000	-1.000000	50.000000	0.000000	-1.000000	-1.000000	419315.000000	1775804111.081573
-12085.155000	-26220.555000	1137.645000	20194.470000	6581.160000	-9385.695000	-45151.335000	-35989.065000	1.027953	2.729768	3.207115	3.648707	11.725771	4.453575	0.442550	-0.301307	-2.990960	1.663340	0.289940	-0.599669	0.258178	0.744505	-1.000000	-1.000000	-1.000000	-1.000000	-1.000000	-1.000000	-1.000000	50.000000	0.000000	-1.000000	-1.000000	419316.000000	1775804111.081593
-12083.805000	-26219.025000	1140.615000	20196.180000	6572.970000	-9385.740000	-45148.140000	-35987.130000	-0.694213	1.165243	2.017758	2.724945	14.203095	6.423956	0.149529	-1.253773	-2.990960	1.663340	0.289940	-0.599669	0.258178	0.744505	-1.000000	-1.000000	-1.000000	-1.000000	-1.000000	-1.000000	-1.000000	50.000000	0.000000	-1.000000	-1.000000	419317.000000	1775804111.086594
-12088.395000	-26223.075000	1136.520000	20193.885000	6574.185000	-9391.770000	-45151.380000	-35991.405000	-2.451411	-1.280486	-0.437080	-0.003764	7.320797	4.596290	-0.238881	-1.893134	-2.990960	1.663340	0.289940	-0.599669	0.258178	0.744505	-1.000000	-1.000000	-1.000000	-1.000000	-1.000000	-1.000000	-1.000000	50.000000	0.000000	-1.000000	-1.000000	419318.000000	1775804111.086618
-12086.640000	-26220.420000	1139.985000	20199.240000	6584.310000	-9390.645000	-45151.515000	-35990.145000	-2.964467	-2.812966	-2.271050	-2.353496	-4.530548	-0.148601	-0.643744	-1.752796	-2.990960	1.663340	0.289940	-0.599669	0.258178	0.744505	-1.000000	-1.000000	-1.000000	-1.000000	-1.000000	-1.000000	-1.000000	50.000000	0.000000	-1.000000	-1.000000	419319.000000	1775804111.092416
-12084.435000	-26217.495000	1143.720000	20201.220000	6575.355000	-9397.800000	-45157.815000	-35991.000000	-1.840942	-2.490630	-2.387652	-2.817727	-13.433941	-5.038059	-1.090654	-0.860829	-2.990960	1.663340	0.289940	-0.599669	0.258178	0.744505	-1.000000	-1.000000	-1.000000	-1.000000	-1.000000	-1.000000	-1.000000	50.000000	0.000000	-1.000000	-1.000000	419320.000000	1775804111.092440
-12080.790000	-26217.135000	1141.335000	20194.785000	6561.810000	-9402.210000	-45155.115000	-35988.165000	0.489119	-0.549164	-0.895672	-1.538196	-15.592573	-7.679611	-1.479365	0.477807	-2.990960	1.663340	0.289940	-0.599669	0.258178	0.744505	-1.000000	-1.000000	-1.000000	-1.000000	-1.000000	-1.000000	-1.000000	50.000000	0.000000	-1.000000	-1.000000	419321.000000	1775804111.103742
-12080.295000	-26218.305000	1140.030000	20195.460000	6564.060000	-9397.980000	-45151.110000	-35985.645000	2.954458	1.730700	0.939815	-0.011184	-12.355297	-7.168966	-1.299471	1.854755	-2.990960	1.663340	0.289940	-0.599669	0.258178	0.744505	-1.000000	-1.000000	-1.000000	-1.000000	-1.000000	-1.000000	-1.000000	50.000000	0.000000	-1.000000	-1.000000	419322.000000	1775804111.103770
-12084.930000	-26220.510000	1141.605000	20202.255000	6574.770000	-9396.360000	-45156.060000	-35991.540000	4.183585	2.870898	1.809174	0.767215	-6.043511	-3.757682	-0.202004	2.690877	-2.624720	0.717220	0.350980	-0.597472	0.255187	0.745420	-1.000000	-1.000000	-1.000000	-1.000000	-1.000000	-1.000000	-1.000000	50.000000	0.000000	-1.000000	-1.000000	419323.000000	1775804111.103799
-12083.310000	-26217.990000	1142.550000	20201.670000	6579.495000	-9392.130000	-45155.880000	-35992.395000	3.358219	2.353718	1.530044	1.133469	1.829521	1.242816	1.155537	2.317258	-2.624720	0.717220	0.350980	-0.597472	0.255187	0.745420	-1.000000	-1.000000	-1.000000	-1.000000	-1.000000	-1.000000	-1.000000	50.000000	0.000000	-1.000000	-1.000000	419324.000000	1775804111.103811
-12079.080000	-26213.085000	1146.690000	20205.720000	6577.830000	-9388.665000	-45150.795000	-35988.750000	1.117688	0.983359	0.808365	1.488171	8.987986	5.740162	1.910629	0.828199	-2.624720	0.717220	0.350980	-0.597472	0.255187	0.745420	-1.000000	-1.000000	-1.000000	-1.000000	-1.000000	-1.000000	-1.000000	50.000000	0.000000	-1.000000	-1.000000	419325.000000	1775804111.103825
-12082.500000	-26216.595000	1143.585000	20201.805000	6568.200000	-9396.720000	-45155.025000	-35992.935000	-0.998694	-0.105701	0.258130	1.551642	12.254668	7.743057	1.965931	-0.727458	-2.624720	0.717220	0.350980	-0.597472	0.255187	0.745420	-1.000000	-1.000000	-1.000000	-1.000000	-1.000000	-1.000000	-1.000000	50.000000	0.000000	-1.000000	-1.000000	419326.000000	1775804111.103836
-12080.520000	-26215.650000	1143.675000	20198.610000	6565.680000	-9395.685000	-45151.920000	-35989.065000	-2.105443	-0.655664	-0.147358	0.819429	9.942833	6.262275	1.480350	-1.500076	-2.624720	0.717220	0.350980	-0.597472	0.255187	0.745420	-1.000000	-1.000000	-1.000000	-1.000000	-1.000000	-1.000000	-1.000000	50.000000	0.000000	-1.000000	-1.000000	419327.000000	1775804111.105012
-12083.580000	-26222.310000	1136.160000	20192.760000	6564.330000	-9393.615000	-45151.605000	-35987.985000	-2.274155	-1.111548	-0.778546	-0.815545	3.719775	2.274124	0.638545	-1.311407	-2.624720	0.717220	0.350980	-0.597472	0.255187	0.745420	-1.000000	-1.000000	-1.000000	-1.000000	-1.000000	-1.000000	-1.000000	50.000000	0.000000	-1.000000	-1.000000	419328.000000	1775804111.105030
-12079.755000	-26218.620000	1139.535000	20195.910000	6571.935000	-9393.165000	-45152.550000	-35985.150000	-1.833176	-1.680337	-1.651640	-2.599207	-2.420153	-1.737016	-0.214897	-0.389089	-2.624720	0.717220	0.350980	-0.597472	0.255187	0.745420	-1.000000	-1.000000	-1.000000	-1.000000	-1.000000	-1.000000	-1.000000	50.000000	0.000000	-1.000000	-1.000000	419329.000000	1775804111.111277
-12078.990000	-26215.605000	1144.215000	20201.130000	6576.300000	-9392.130000	-45150.570000	-35985.330000	-0.965330	-1.851397	-2.012862	-3.124082	-5.089606	-3.845626	-0.844149	0.677670	-2.624720	0.717220	0.350980	-0.597472	0.255187	0.745420	-1.000000	-1.000000	-1.000000	-1.000000	-1.000000	-1.000000	-1.000000	50.000000	0.000000	-1.000000	-1.000000	419330.000000	1775804111.111298
-12074.490000	-26210.970000	1149.390000	20206.395000	6576.300000	-9388.080000	-45147.690000	-35982.405000	0.200467	-0.944526	-0.978269	-1.503555	-3.793233	-3.703906	-1.075584	1.239878	-2.624720	0.717220	0.350980	-0.597472	0.255187	0.745420	-1.000000	-1.000000	-1.000000	-1.000000	-1.000000	-1.000000	-1.000000	50.000000	0.000000	-1.000000	-1.000000	419331.000000	1775804111.119851
-12074.490000	-26211.375000	1149.075000	20204.415000	6571.935000	-9388.170000	-45148.185000	-35982.765000	1.324657	0.820750	1.169269	1.459785	-0.850742	-2.066200	-0.814398	1.046661	-2.624720	0.717220	0.350980	-0.597472	0.255187	0.745420	-1.000000	-1.000000	-1.000000	-1.000000	-1.000000	-1.000000	-1.000000	50.000000	0.000000	-1.000000	-1.000000	419332.000000	1775804111.119878
-12065.445000	-26201.295000	1159.200000	20215.755000	6583.950000	-9376.155000	-45140.175000	-35974.665000	2.010875	2.439574	3.095428	3.885380	1.180311	0.030249	-0.205274	0.403252	-3.341940	0.793520	-0.213640	-0.596617	0.254394	0.745420	-1.000000	-1.000000	-1.000000	-1.000000	-1.000000	-1.000000	-1.000000	50.000000	0.000000	-1.000000	-1.000000	419333.000000	1775804111.120011
-12042.180000	-26178.525000	1178.280000	20234.025000	6606.630000	-9352.845000	-45115.695000	-35949.240000	2.539346	3.556221	4.107466	4.915165	2.122015	2.255097	0.966274	0.344311	-3.341940	0.793520	-0.213640	-0.596617	0.254394	0.745420	-1.000000	-1.000000	-1.000000	-1.000000	-1.000000	-1.000000	-1.000000	50.000000	0.000000	-1.000000	-1.000000	419334.000000	1775804111.120031
-12064.320000	-26201.115000	1156.635000	20212.290000	6587.820000	-9375.930000	-45135.540000	-35972.910000	3.055812	4.053202	4.011844	4.521800	2.822732	4.134586	2.625912	1.311427	-3.341940	0.793520	-0.213640	-0.596617	0.254394	0.745420	-1.000000	-1.000000	-1.000000	-1.000000	-1.000000	-1.000000	-1.000000	50.000000	0.000000	-1.000000	-1.000000	419335.000000	1775804111.122779
-12075.615000	-26214.120000	1144.755000	20201.445000	6574.995000	-9390.195000	-45148.095000	-35985.780000	1.755676	2.191961	1.473143	1.609713	1.956935	3.280053	2.593885	1.099896	-3.341940	0.793520	-0.213640	-0.596617	0.254394	0.745420	-1.000000	-1.000000	-1.000000	-1.000000	-1.000000	-1.000000	-1.000000	50.000000	0.000000	-1.000000	-1.000000	419336.000000	1775804111.122801
-12074.400000	-26213.355000	1144.980000	20198.880000	6569.910000	-9393.615000	-45147.915000	-35984.115000	-2.623177	-2.994314	-3.899128	-4.049902	-2.046735	-1.773641	-0.983326	-2.280238	-3.341940	0.793520	-0.213640	-0.596617	0.254394	0.745420	-1.000000	-1.000000	-1.000000	-1.000000	-1.000000	-1.000000	-1.000000	50.000000	0.000000	-1.000000	-1.000000	419337.000000	1775804111.130634
-12073.995000	-26213.130000	1145.745000	20199.600000	6566.400000	-9394.830000	-45146.970000	-35983.035000	-7.405801	-8.408644	-8.900331	-9.272132	-7.188510	-7.930653	-5.850459	-6.517261	-3.341940	0.793520	-0.213640	-0.596617	0.254394	0.745420	-1.000000	-1.000000	-1.000000	-1.000000	-1.000000	-1.000000	-1.000000	50.000000	0.000000	-1.000000	-1.000000	419338.000000	1775804111.130659
-12076.245000	-26215.560000	1144.530000	20198.340000	6563.205000	-9394.515000	-45148.095000	-35986.230000	-8.688192	-9.808160	-9.632596	-10.175644	-9.544173	-10.296345	-7.884451	-7.639342	-3.341940	0.793520	-0.213640	-0.596617	0.254394	0.745420	-1.000000	-1.000000	-1.000000	-1.000000	-1.000000	-1.000000	-1.000000	50.000000	0.000000	-1.000000	-1.000000	419339.000000	1775804111.130686
-12074.670000	-26212.590000	1143.180000	20194.560000	6563.970000	-9389.340000	-45143.460000	-35982.495000	-5.502510	-6.169947	-5.521739	-6.087073	-7.187407	-6.897574	-5.458430	-4.532986	-3.341940	0.793520	-0.213640	-0.596617	0.254394	0.745420	-1.000000	-1.000000	-1.000000	-1.000000	-1.000000	-1.000000	-1.000000	50.000000	0.000000	-1.000000	-1.000000	419340.000000	1775804111.130696
-12070.530000	-26203.140000	1148.940000	20199.735000	6575.400000	-9382.950000	-45135.720000	-35976.420000	0.195738	0.413757	0.905866	0.462836	-1.073539	0.437227	0.011034	1.013241	-3.341940	0.793520	-0.213640	-0.596617	0.254394	0.745420	-1.000000	-1.000000	-1.000000	-1.000000	-1.000000	-1.000000	-1.000000	50.000000	0.000000	-1.000000	-1.000000	419341.000000	1775804111.137094
-12072.015000	-26202.420000	1147.815000	20197.305000	6577.290000	-9385.425000	-45133.335000	-35976.735000	5.561847	6.876596	6.530717	6.269454	6.174754	7.804722	5.748252	6.288137	-3.341940	0.793520	-0.213640	-0.596617	0.254394	0.745420	-1.000000	-1.000000	-1.000000	-1.000000	-1.000000	-1.000000	-1.000000	50.000000	0.000000	-1.000000	-1.000000	419342.000000	1775804111.137118
-12072.195000	-26210.295000	1149.075000	20204.235000	6574.050000	-9388.710000	-45144.045000	-35987.580000	8.273054	10.251973	9.185590	9.258094	11.220713	11.381579	8.797719	8.685774	-3.433500	1.373400	-0.183120	-0.596617	0.255065	0.743284	-1.000000	-1.000000	-1.000000	-1.000000	-1.000000	-1.000000	-1.000000	50.000000	0.000000	-1.000000	-1.000000	419343.000000	1775804111.137775
-12071.970000	-26209.935000	1150.605000	20205.270000	6571.215000	-9390.330000	-45147.780000	-35990.910000	7.487651	8.823888	8.251022	8.984389	11.398426	9.578284	7.279050	6.786466	-3.433500	1.373400	-0.183120	-0.596617	0.255065	0.743284	-1.000000	-1.000000	-1.000000	-1.000000	-1.000000	-1.000000	-1.000000	50.000000	0.000000	-1.000000	-1.000000	419344.000000	1775804111.137800
-12066.255000	-26204.715000	1155.420000	20208.825000	6568.830000	-9389.070000	-45142.695000	-35986.725000	4.261885	3.775070	4.821011	6.261318	6.665335	4.007826	2.200526	1.883816	-3.433500	1.373400	-0.183120	-0.596617	0.255065	0.743284	-1.000000	-1.000000	-1.000000	-1.000000	-1.000000	-1.000000	-1.000000	50.000000	0.000000	-1.000000	-1.000000	419345.000000	1775804111.142355
-12070.935000	-26208.585000	1152.540000	20207.160000	6569.460000	-9390.285000	-45145.170000	-35991.540000	0.557497	-1.605209	0.771245	2.309592	-0.228254	-1.948754	-2.938402	-2.732152	-3.433500	1.373400	-0.183120	-0.596617	0.255065	0.743284	-1.000000	-1.000000	-1.000000	-1.000000	-1.000000	-1.000000	-1.000000	50.000000	0.000000	-1.000000	-1.000000	419346.000000	1775804111.142378
-12075.435000	-26211.015000	1150.920000	20208.645000	6579.315000	-9392.085000	-45150.255000	-35997.705000	-2.410854	-4.911046	-2.600644	-1.704162	-5.563212	-5.637108	-5.417619	-4.849980	-3.433500	1.373400	-0.183120	-0.596617	0.255065	0.743284	-1.000000	-1.000000	-1.000000	-1.000000	-1.000000	-1.000000	-1.000000	50.000000	0.000000	-1.000000	-1.000000	419347.000000	1775804111.151159
-12071.745000	-26207.415000	1154.205000	20212.335000	6589.935000	-9387.900000	-45148.680000	-35994.870000	-4.295399	-5.676831	-4.712626	-4.663224	-6.745632	-6.245863	-5.048799	-4.500490	-3.433500	1.373400	-0.183120	-0.596617	0.255065	0.743284	-1.000000	-1.000000	-1.000000	-1.000000	-1.000000	-1.000000	-1.000000	50.000000	0.000000	-1.000000	-1.000000	419348.000000	1775804111.151184
-12076.695000	-26214.255000	1147.455000	20206.395000	6581.925000	-9388.440000	-45149.940000	-35999.055000	-4.761907	-4.455259	-5.275190	-5.833832	-4.071669	-4.349700	-2.921471	-2.586069	-3.433500	1.373400	-0.183120	-0.596617	0.255065	0.743284	-1.000000	-1.000000	-1.000000	-1.000000	-1.000000	-1.000000	-1.000000	50.000000	0.000000	-1.000000	-1.000000	419349.000000	1775804111.151210
-12074.715000	-26212.680000	1148.085000	20206.755000	6580.710000	-9384.570000	-45145.755000	-35998.290000	-3.743303	-2.318071	-4.507672	-5.410605	-0.663700	-1.281564	-0.156967	-0.121011	-3.433500	1.373400	-0.183120	-0.596617	0.255065	0.743284	-1.000000	-1.000000	-1.000000	-1.000000	-1.000000	-1.000000	-1.000000	50.000000	0.000000	-1.000000	-1.000000	419350.000000	1775804111.151223
-12075.120000	-26213.265000	1143.945000	20200.050000	6572.745000	-9387.405000	-45147.645000	-36000.720000	-1.751694	-0.260978	-2.993634	-4.145956	0.499011	1.421771	2.277548	1.884903	-3.433500	1.373400	-0.183120	-0.596617	0.255065	0.743284	-1.000000	-1.000000	-1.000000	-1.000000	-1.000000	-1.000000	-1.000000	50.000000	0.000000	-1.000000	-1.000000	419351.000000	1775804111.160812
-12073.365000	-26208.990000	1149.615000	20205.405000	6564.150000	-9390.870000	-45145.440000	-35998.965000	0.497122	1.387369	-1.098702	-2.510168	-1.013363	2.575343	3.586400	2.849455	-3.433500	1.373400	-0.183120	-0.596617	0.255065	0.743284	-1.000000	-1.000000	-1.000000	-1.000000	-1.000000	-1.000000	-1.000000	50.000000	0.000000	-1.000000	-1.000000	419352.000000	1775804111.160837
-12072.465000	-26207.595000	1151.010000	20206.440000	6553.440000	-9396.720000	-45145.800000	-35999.820000	2.309567	2.635226	1.066174	-0.460098	-3.649492	1.777217	3.426276	2.777692	-2.090620	1.037680	-1.251320	-0.599303	0.254699	0.741880	-1.000000	-1.000000	-1.000000	-1.000000	-1.000000	-1.000000	-1.000000	50.000000	0.000000	-1.000000	-1.000000	419353.000000	1775804111.162767
-12071.880000	-26205.345000	1153.890000	20209.005000	6553.530000	-9398.340000	-45148.590000	-36001.620000	3.169586	3.320053	3.161272	1.949283	-5.273580	-0.281470	2.040662	1.960897	-2.090620	1.037680	-1.251320	-0.599303	0.254699	0.741880	-1.000000	-1.000000	-1.000000	-1.000000	-1.000000	-1.000000	-1.000000	50.000000	0.000000	-1.000000	-1.000000	419354.000000	1775804111.162785
-12071.430000	-26207.190000	1151.235000	20207.160000	6583.185000	-9387.675000	-45143.595000	-35998.965000	2.902370	3.081161	4.353269	3.942703	-3.658504	-1.902972	0.115810	0.760233	-2.090620	1.037680	-1.251320	-0.599303	0.254699	0.741880	-1.000000	-1.000000	-1.000000	-1.000000	-1.000000	-1.000000	-1.000000	50.000000	0.000000	-1.000000	-1.000000	419355.000000	1775804111.162809
-12076.965000	-26216.505000	1141.965000	20197.620000	6594.255000	-9385.560000	-45142.920000	-36002.565000	1.634846	1.577959	3.713066	4.330740	2.346646	-1.448095	-1.366763	-0.393128	-2.090620	1.037680	-1.251320	-0.599303	0.254699	0.741880	-1.000000	-1.000000	-1.000000	-1.000000	-1.000000	-1.000000	-1.000000	50.000000	0.000000	-1.000000	-1.000000	419356.000000	1775804111.162821
-12081.420000	-26221.005000	1137.960000	20193.885000	6580.170000	-9390.735000	-45148.005000	-36007.290000	-0.341821	-1.109688	1.046851	2.498453	9.892591	0.799320	-1.885852	-1.314850	-2.090620	1.037680	-1.251320	-0.599303	0.254699	0.741880	-1.000000	-1.000000	-1.000000	-1.000000	-1.000000	-1.000000	-1.000000	50.000000	0.000000	-1.000000	-1.000000	419357.000000	1775804111.168227
-12079.440000	-26218.215000	1141.155000	20195.280000	6576.660000	-9391.005000	-45148.545000	-36007.065000	-2.334777	-3.818729	-2.291471	-0.568624	12.863292	2.640871	-1.868347	-2.050092	-2.090620	1.037680	-1.251320	-0.599303	0.254699	0.741880	-1.000000	-1.000000	-1.000000	-1.000000	-1.000000	-1.000000	-1.000000	50.000000	0.000000	-1.000000	-1.000000	419358.000000	1775804111.168251
-12073.275000	-26211.915000	1146.330000	20199.465000	6576.075000	-9389.250000	-45145.890000	-36003.060000	-3.096240	-4.578419	-3.944359	-2.641422	8.243099	2.536497	-1.716197	-2.239517	-2.090620	1.037680	-1.251320	-0.599303	0.254699	0.741880	-1.000000	-1.000000	-1.000000	-1.000000	-1.000000	-1.000000	-1.000000	50.000000	0.000000	-1.000000	-1.000000	419359.000000	1775804111.168902
-12075.840000	-26214.300000	1145.385000	20198.970000	6572.385000	-9392.445000	-45148.410000	-36006.975000	-1.883250	-2.497902	-2.702803	-2.268608	-0.780428	0.919395	-1.241708	-1.430741	-2.090620	1.037680	-1.251320	-0.599303	0.254699	0.741880	-1.000000	-1.000000	-1.000000	-1.000000	-1.000000	-1.000000	-1.000000	50.000000	0.000000	-1.000000	-1.000000	419360.000000	1775804111.168923
-12073.500000	-26210.430000	1150.155000	20202.705000	6575.310000	-9390.465000	-45146.745000	-36007.110000	0.452930	1.067854	0.340201	-0.037328	-8.535752	-0.942080	-0.376326	-0.028808	-2.090620	1.037680	-1.251320	-0.599303	0.254699	0.741880	-1.000000	-1.000000	-1.000000	-1.000000	-1.000000	-1.000000	-1.000000	50.000000	0.000000	-1.000000	-1.000000	419361.000000	1775804111.173446
-12076.740000	-26212.005000	1149.570000	20203.470000	6572.070000	-9395.775000	-45150.795000	-36011.655000	2.233629	3.835268	3.049951	2.312562	-11.297379	-2.121736	0.505565	0.985563	-2.090620	1.037680	-1.251320	-0.599303	0.254699	0.741880	-1.000000	-1.000000	-1.000000	-1.000000	-1.000000	-1.000000	-1.000000	50.000000	0.000000	-1.000000	-1.000000	419362.000000	1775804111.173464
-12073.455000	-26207.505000	1155.510000	20208.060000	6562.980000	-9396.945000	-45149.580000	-36010.260000	2.490774	4.486774	4.009664	3.416412	-9.036008	-2.400761	0.974278	1.101845	-0.427280	-0.305200	-1.510740	-0.600890	0.251952	0.742796	-1.000000	-1.000000	-1.000000	-1.000000	-1.000000	-1.000000	-1.000000	50.000000	0.000000	-1.000000	-1.000000	419363.000000	1775804111.177765
-12073.320000	-26208.855000	1152.900000	20204.460000	6560.820000	-9394.245000	-45148.140000	-36011.880000	1.504473	3.174026	3.072909	2.854676	-4.395532	-1.914322	0.995936	0.629779	-0.427280	-0.305200	-1.510740	-0.600890	0.251952	0.742796	-1.000000	-1.000000	-1.000000	-1.000000	-1.000000	-1.000000	-1.000000	50.000000	0.000000	-1.000000	-1.000000	419364.000000	1775804111.177783
-12072.915000	-26213.310000	1144.665000	20194.605000	6571.710000	-9387.270000	-45141.840000	-36006.120000	0.178825	0.767994	0.720766	0.734292	0.281700	-0.599007	1.014473	0.280193	-0.427280	-0.305200	-1.510740	-0.600890	0.251952	0.742796	-1.000000	-1.000000	-1.000000	-1.000000	-1.000000	-1.000000	-1.000000	50.000000	0.000000	-1.000000	-1.000000	419365.000000	1775804111.183020
-12072.870000	-26212.230000	1147.095000	20200.815000	6582.780000	-9387.180000	-45143.415000	-36006.840000	-0.832022	-1.826089	-2.308244	-2.271902	4.503342	1.409784	1.334518	0.511365	-0.427280	-0.305200	-1.510740	-0.600890	0.251952	0.742796	-1.000000	-1.000000	-1.000000	-1.000000	-1.000000	-1.000000	-1.000000	50.000000	0.000000	-1.000000	-1.000000	419366.000000	1775804111.183045
-12072.645000	-26212.455000	1146.870000	20200.770000	6577.515000	-9386.730000	-45144.090000	-36006.030000	-1.322564	-3.608210	-4.599716	-4.446976	7.913162	3.129330	1.524144	1.061197	-0.427280	-0.305200	-1.510740	-0.600890	0.251952	0.742796	-1.000000	-1.000000	-1.000000	-1.000000	-1.000000	-1.000000	-1.000000	50.000000	0.000000	-1.000000	-1.000000	419367.000000	1775804111.194874
-12074.715000	-26215.515000	1142.865000	20198.700000	6577.245000	-9386.415000	-45144.810000	-36006.390000	-1.369157	-3.853116	-4.849923	-4.331379	8.835943	3.371188	0.918434	1.218187	-0.427280	-0.305200	-1.510740	-0.600890	0.251952	0.742796	-1.000000	-1.000000	-1.000000	-1.000000	-1.000000	-1.000000	-1.000000	50.000000	0.000000	-1.000000	-1.000000	419368.000000	1775804111.194899
-12074.220000	-26214.255000	1145.790000	20201.445000	6577.335000	-9387.315000	-45144.765000	-36007.065000	-1.173030	-2.709942	-3.115472	-2.249945	6.113586	1.903636	-0.429054	0.606522	-0.427280	-0.305200	-1.510740	-0.600890	0.251952	0.742796	-1.000000	-1.000000	-1.000000	-1.000000	-1.000000	-1.000000	-1.000000	50.000000	0.000000	-1.000000	-1.000000	419369.000000	1775804111.194927
-12071.340000	-26210.745000	1150.200000	20204.460000	6571.845000	-9390.375000	-45143.865000	-36005.220000	-0.776667	-0.791871	-0.310226	0.483189	0.909782	-0.493158	-1.740830	-0.486122	-0.427280	-0.305200	-1.510740	-0.600890	0.251952	0.742796	-1.000000	-1.000000	-1.000000	-1.000000	-1.000000	-1.000000	-1.000000	50.000000	0.000000	-1.000000	-1.000000	419370.000000	1775804111.194939
-12075.840000	-26214.750000	1146.105000	20200.095000	6565.905000	-9396.315000	-45148.365000	-36008.280000	-0.160609	1.227299	2.487859	2.635276	-4.397133	-2.806557	-2.335545	-1.452479	-0.427280	-0.305200	-1.510740	-0.600890	0.251952	0.742796	-1.000000	-1.000000	-1.000000	-1.000000	-1.000000	-1.000000	-1.000000	50.000000	0.000000	-1.000000	-1.000000	419371.000000	1775804111.194954
-12072.060000	-26210.970000	1148.175000	20199.960000	6568.110000	-9397.620000	-45151.515000	-36005.895000	0.428211	2.559660	4.068360	3.257477	-7.711630	-4.245865	-2.221157	-1.874981	-0.427280	-0.305200	-1.510740	-0.600890	0.251952	0.742796	-1.000000	-1.000000	-1.000000	-1.000000	-1.000000	-1.000000	-1.000000	50.000000	0.000000	-1.000000	-1.000000	419372.000000	1775804111.194965
-12073.590000	-26214.300000	1144.530000	20197.395000	6571.215000	-9394.560000	-45149.535000	-36004.995000	0.764976	2.732099	3.754581	2.190790	-7.673444	-4.148423	-1.690096	-1.604942	-0.778260	0.778260	-1.297100	-0.596861	0.252014	0.744566	-1.000000	-1.000000	-1.000000	-1.000000	-1.000000	-1.000000	-1.000000	50.000000	0.000000	-1.000000	-1.000000	419373.000000	1775804111.204250
-12076.380000	-26216.190000	1142.505000	20197.395000	6573.375000	-9393.165000	-45151.380000	-36008.145000	0.789580	1.824698	1.896741	0.282267	-4.304049	-2.199561	-0.752246	-0.792132	-0.778260	0.778260	-1.297100	-0.596861	0.252014	0.744566	-1.000000	-1.000000	-1.000000	-1.000000	-1.000000	-1.000000	-1.000000	50.000000	0.000000	-1.000000	-1.000000	419374.000000	1775804111.204274
-12072.240000	-26211.645000	1148.085000	20204.055000	6578.910000	-9385.470000	-45146.430000	-36003.195000	0.501624	0.375397	-0.372505	-1.164636	0.697198	1.034170	0.600179	0.111445	-0.778260	0.778260	-1.297100	-0.596861	0.252014	0.744566	-1.000000	-1.000000	-1.000000	-1.000000	-1.000000	-1.000000	-1.000000	50.000000	0.000000	-1.000000	-1.000000	419375.000000	1775804111.204353
-12068.010000	-26207.955000	1151.415000	20208.195000	6581.475000	-9382.320000	-45142.335000	-35997.750000	0.281101	-0.640980	-1.633144	-1.140052	4.982613	4.251013	2.142519	0.928633	-0.778260	0.778260	-1.297100	-0.596861	0.252014	0.744566	-1.000000	-1.000000	-1.000000	-1.000000	-1.000000	-1.000000	-1.000000	50.000000	0.000000	-1.000000	-1.000000	419376.000000	1775804111.204369
-12065.490000	-26205.930000	1152.945000	20208.330000	6582.915000	-9380.520000	-45139.905000	-35993.835000	0.579520	-0.569029	-1.259037	0.203620	6.808297	5.996696	3.424960	1.792281	-0.778260	0.778260	-1.297100	-0.596861	0.252014	0.744566	-1.000000	-1.000000	-1.000000	-1.000000	-1.000000	-1.000000	-1.000000	50.000000	0.000000	-1.000000	-1.000000	419377.000000	1775804111.205925
-12073.995000	-26214.075000	1143.720000	20196.945000	6568.020000	-9396.270000	-45152.955000	-36004.590000	0.987877	0.030937	-0.192534	1.311294	5.386443	5.026685	3.517056	2.213054	-0.778260	0.778260	-1.297100	-0.596861	0.252014	0.744566	-1.000000	-1.000000	-1.000000	-1.000000	-1.000000	-1.000000	-1.000000	50.000000	0.000000	-1.000000	-1.000000	419378.000000	1775804111.205940
-12075.480000	-26215.695000	1142.010000	20192.130000	6562.170000	-9399.330000	-45154.485000	-36006.705000	0.474099	-0.080947	-0.012634	0.543650	0.998873	1.037599	1.521482	1.150930	-0.778260	0.778260	-1.297100	-0.596861	0.252014	0.744566	-1.000000	-1.000000	-1.000000	-1.000000	-1.000000	-1.000000	-1.000000	50.000000	0.000000	-1.000000	-1.000000	419379.000000	1775804111.210498
-12073.185000	-26213.535000	1145.340000	20193.705000	6560.010000	-9394.605000	-45150.525000	-36003.690000	-1.040591	-1.153659	-0.995149	-1.836646	-4.361645	-4.050068	-1.773376	-1.241869	-0.778260	0.778260	-1.297100	-0.596861	0.252014	0.744566	-1.000000	-1.000000	-1.000000	-1.000000	-1.000000	-1.000000	-1.000000	50.000000	0.000000	-1.000000	-1.000000	419380.000000	1775804111.210524
-12075.795000	-26217.000000	1142.640000	20192.310000	6556.140000	-9395.820000	-45153.720000	-36006.930000	-2.311333	-2.101577	-1.856311	-3.672554	-7.599737	-6.854167	-4.029818	-3.205247	-0.778260	0.778260	-1.297100	-0.596861	0.252014	0.744566	-1.000000	-1.000000	-1.000000	-1.000000	-1.000000	-1.000000	-1.000000	50.000000	0.000000	-1.000000	-1.000000	419381.000000	1775804111.217082
-12072.420000	-26214.435000	1145.115000	20196.855000	6565.095000	-9391.050000	-45150.075000	-36003.150000	-2.280522	-1.978016	-1.555206	-3.197028	-6.733500	-5.624459	-3.805387	-3.308191	-0.778260	0.778260	-1.297100	-0.596861	0.252014	0.744566	-1.000000	-1.000000	-1.000000	-1.000000	-1.000000	-1.000000	-1.000000	50.000000	0.000000	-1.000000	-1.000000	419382.000000	1775804111.217105
-12073.005000	-26214.255000	1145.205000	20198.205000	6575.130000	-9389.070000	-45148.995000	-36002.790000	-0.968155	-0.766416	-0.226181	-0.515083	-1.958728	-1.475777	-1.557480	-1.583383	-1.220800	1.938020	-1.648080	-0.595457	0.254455	0.744871	-1.000000	-1.000000	-1.000000	-1.000000	-1.000000	-1.000000	-1.000000	50.000000	0.000000	-1.000000	-1.000000	419383.000000	1775804111.218766
-12073.410000	-26212.095000	1148.580000	20202.750000	6581.385000	-9389.565000	-45152.055000	-36005.265000	0.797599	0.939480	1.380117	2.836147	4.577535	2.982667	1.188670	0.839501	-1.220800	1.938020	-1.648080	-0.595457	0.254455	0.744871	-1.000000	-1.000000	-1.000000	-1.000000	-1.000000	-1.000000	-1.000000	50.000000	0.000000	-1.000000	-1.000000	419384.000000	1775804111.218784
-12075.435000	-26213.220000	1147.230000	20200.050000	6575.850000	-9390.240000	-45152.415000	-36006.480000	1.953946	2.301004	2.472201	5.000270	9.363360	5.362617	2.813063	2.482522	-1.220800	1.938020	-1.648080	-0.595457	0.254455	0.744871	-1.000000	-1.000000	-1.000000	-1.000000	-1.000000	-1.000000	-1.000000	50.000000	0.000000	-1.000000	-1.000000	419385.000000	1775804111.222747
-12075.570000	-26215.380000	1142.910000	20193.255000	6567.975000	-9393.210000	-45158.490000	-36006.525000	1.938588	2.596702	2.422198	4.674832	9.271656	4.741409	2.551555	2.586127	-1.220800	1.938020	-1.648080	-0.595457	0.254455	0.744871	-1.000000	-1.000000	-1.000000	-1.000000	-1.000000	-1.000000	-1.000000	50.000000	0.000000	-1.000000	-1.000000	419386.000000	1775804111.222766
-12070.575000	-26211.600000	1146.870000	20197.710000	6566.085000	-9394.290000	-45155.205000	-36002.790000	1.123497	1.720215	1.148229	1.917593	4.009588	1.911909	0.900726	1.622646	-1.220800	1.938020	-1.648080	-0.595457	0.254455	0.744871	-1.000000	-1.000000	-1.000000	-1.000000	-1.000000	-1.000000	-1.000000	50.000000	0.000000	-1.000000	-1.000000	419387.000000	1775804111.227029
-12075.255000	-26216.550000	1142.235000	20192.355000	6560.010000	-9400.095000	-45157.815000	-36007.020000	0.313121	0.288990	-0.579288	-1.585556	-3.327987	-1.439459	-0.823901	0.541148	-1.220800	1.938020	-1.648080	-0.595457	0.254455	0.744871	-1.000000	-1.000000	-1.000000	-1.000000	-1.000000	-1.000000	-1.000000	50.000000	0.000000	-1.000000	-1.000000	419388.000000	1775804111.227048
-12076.785000	-26218.215000	1141.155000	20196.180000	6569.100000	-9393.030000	-45154.485000	-36006.300000	-0.255856	-1.061108	-1.861867	-3.849484	-8.476771	-3.659009	-1.500176	-0.244616	-1.220800	1.938020	-1.648080	-0.595457	0.254455	0.744871	-1.000000	-1.000000	-1.000000	-1.000000	-1.000000	-1.000000	-1.000000	50.000000	0.000000	-1.000000	-1.000000	419389.000000	1775804111.231930
-12077.415000	-26219.745000	1140.345000	20196.135000	6567.615000	-9391.095000	-45153.945000	-36005.850000	-0.811100	-2.012425	-2.322830	-3.950823	-8.770207	-3.626803	-0.912884	-0.750957	-1.220800	1.938020	-1.648080	-0.595457	0.254455	0.744871	-1.000000	-1.000000	-1.000000	-1.000000	-1.000000	-1.000000	-1.000000	50.000000	0.000000	-1.000000	-1.000000	419390.000000	1775804111.231956
-12075.165000	-26216.190000	1143.315000	20194.605000	6560.550000	-9395.280000	-45157.230000	-36005.535000	-1.198594	-2.190471	-1.844992	-2.265610	-4.874845	-1.555276	0.272639	-0.900279	-1.220800	1.938020	-1.648080	-0.595457	0.254455	0.744871	-1.000000	-1.000000	-1.000000	-1.000000	-1.000000	-1.000000	-1.000000	50.000000	0.000000	-1.000000	-1.000000	419391.000000	1775804111.238458
-12076.065000	-26215.245000	1147.005000	20201.085000	6571.620000	-9390.960000	-45157.320000	-36007.155000	-1.015024	-1.287032	-0.460040	0.037929	0.184435	0.922923	1.022728	-0.695445	-1.220800	1.938020	-1.648080	-0.595457	0.254455	0.744871	-1.000000	-1.000000	-1.000000	-1.000000	-1.000000	-1.000000	-1.000000	50.000000	0.000000	-1.000000	-1.000000	419392.000000	1775804111.238482
-12080.475000	-26221.815000	1141.200000	20194.425000	6567.930000	-9391.995000	-45156.465000	-36007.830000	-0.377637	0.239819	1.248246	1.846699	4.003095	2.356551	0.872277	-0.395335	-2.762060	1.800680	-1.663340	-0.599547	0.252746	0.745176	-1.000000	-1.000000	-1.000000	-1.000000	-1.000000	-1.000000	-1.000000	50.000000	0.000000	-1.000000	-1.000000	419393.000000	1775804111.250439
-12076.515000	-26219.115000	1141.650000	20193.795000	6565.185000	-9393.705000	-45154.890000	-36003.195000	0.177013	1.290353	2.157641	2.354116	5.538480	2.365007	0.265371	-0.132248	-2.762060	1.800680	-1.663340	-0.599547	0.252746	0.745176	-1.000000	-1.000000	-1.000000	-1.000000	-1.000000	-1.000000	-1.000000	50.000000	0.000000	-1.000000	-1.000000	419394.000000	1775804111.250466
-12073.275000	-26215.155000	1144.755000	20200.320000	6571.035000	-9390.105000	-45150.795000	-35999.370000	0.566322	1.455177	1.756593	1.535209	4.621229	1.298831	-0.091845	0.331471	-2.762060	1.800680	-1.663340	-0.599547	0.252746	0.745176	-1.000000	-1.000000	-1.000000	-1.000000	-1.000000	-1.000000	-1.000000	50.000000	0.000000	-1.000000	-1.000000	419395.000000	1775804111.250493
-12078.270000	-26220.375000	1139.085000	20193.345000	6564.105000	-9393.030000	-45154.395000	-36003.555000	0.967549	1.205654	0.629427	0.332218	2.189322	-0.057862	0.021070	0.989045	-2.762060	1.800680	-1.663340	-0.599547	0.252746	0.745176	-1.000000	-1.000000	-1.000000	-1.000000	-1.000000	-1.000000	-1.000000	50.000000	0.000000	-1.000000	-1.000000	419396.000000	1775804111.250505
-12076.290000	-26218.080000	1141.200000	20194.020000	6565.770000	-9392.985000	-45154.260000	-36001.350000	1.068701	0.767834	-0.524399	-0.594566	-0.472923	-1.067733	0.138948	1.206098	-2.762060	1.800680	-1.663340	-0.599547	0.252746	0.745176	-1.000000	-1.000000	-1.000000	-1.000000	-1.000000	-1.000000	-1.000000	50.000000	0.000000	-1.000000	-1.000000	419397.000000	1775804111.253718
-12080.790000	-26221.500000	1139.355000	20193.075000	6564.195000	-9396.180000	-45158.265000	-36006.570000	0.534881	0.096689	-1.284227	-1.192019	-2.442139	-1.591006	-0.257720	0.514958	-2.762060	1.800680	-1.663340	-0.599547	0.252746	0.745176	-1.000000	-1.000000	-1.000000	-1.000000	-1.000000	-1.000000	-1.000000	50.000000	0.000000	-1.000000	-1.000000	419398.000000	1775804111.253742
-12076.695000	-26217.180000	1143.900000	20197.710000	6570.135000	-9390.960000	-45156.555000	-36003.915000	-0.360391	-0.563418	-1.308042	-1.244901	-3.024511	-1.593745	-1.053588	-0.768558	-2.762060	1.800680	-1.663340	-0.599547	0.252746	0.745176	-1.000000	-1.000000	-1.000000	-1.000000	-1.000000	-1.000000	-1.000000	50.000000	0.000000	-1.000000	-1.000000	419399.000000	1775804111.253768
-12073.770000	-26214.345000	1146.825000	20200.905000	6569.190000	-9389.115000	-45154.845000	-36001.080000	-0.882681	-0.732253	-0.479720	-0.468799	-2.045516	-0.886497	-1.545886	-1.728061	-2.762060	1.800680	-1.663340	-0.599547	0.252746	0.745176	-1.000000	-1.000000	-1.000000	-1.000000	-1.000000	-1.000000	-1.000000	50.000000	0.000000	-1.000000	-1.000000	419400.000000	1775804111.253781
-12075.615000	-26216.505000	1144.710000	20197.170000	6548.940000	-9397.710000	-45157.005000	-36003.870000	-0.569559	-0.250252	0.778233	0.794597	-0.616873	0.253219	-1.182096	-1.623923	-2.762060	1.800680	-1.663340	-0.599547	0.252746	0.745176	-1.000000	-1.000000	-1.000000	-1.000000	-1.000000	-1.000000	-1.000000	50.000000	0.000000	-1.000000	-1.000000	419401.000000	1775804111.255362
-12074.715000	-26213.490000	1149.660000	20201.895000	6543.315000	-9395.010000	-45152.415000	-36001.530000	0.152932	0.372305	1.620111	1.608981	-0.620753	0.866775	-0.138293	-0.669648	-2.762060	1.800680	-1.663340	-0.599547	0.252746	0.745176	-1.000000	-1.000000	-1.000000	-1.000000	-1.000000	-1.000000	-1.000000	50.000000	0.000000	-1.000000	-1.000000	419402.000000	1775804111.255470
-12072.555000	-26212.950000	1147.275000	20198.025000	6543.270000	-9391.005000	-45148.905000	-35999.280000	0.589476	0.597166	1.540643	1.409433	-2.148791	0.672585	1.098650	0.438869	-3.326680	0.549360	-1.434440	-0.598021	0.249999	0.746824	-1.000000	-1.000000	-1.000000	-1.000000	-1.000000	-1.000000	-1.000000	50.000000	0.000000	-1.000000	-1.000000	419403.000000	1775804111.258693
-12072.915000	-26215.155000	1143.360000	20193.480000	6578.730000	-9384.750000	-45147.690000	-35999.235000	0.563107	0.323491	0.555466	0.279062	-2.314061	0.558989	2.107696	1.256070	-3.326680	0.549360	-1.434440	-0.598021	0.249999	0.746824	-1.000000	-1.000000	-1.000000	-1.000000	-1.000000	-1.000000	-1.000000	50.000000	0.000000	-1.000000	-1.000000	419404.000000	1775804111.258715
-12075.165000	-26215.155000	1145.610000	20198.610000	6593.895000	-9386.955000	-45149.535000	-36002.700000	0.170728	-0.350147	-0.982419	-1.246574	1.852447	1.075514	2.337326	1.440340	-3.326680	0.549360	-1.434440	-0.598021	0.249999	0.746824	-1.000000	-1.000000	-1.000000	-1.000000	-1.000000	-1.000000	-1.000000	50.000000	0.000000	-1.000000	-1.000000	419405.000000	1775804111.268926
-12079.845000	-26218.305000	1142.910000	20196.360000	6582.330000	-9392.220000	-45156.015000	-36008.640000	-0.571382	-1.162346	-2.260974	-2.158257	8.598061	1.448240	1.276373	0.669452	-3.326680	0.549360	-1.434440	-0.598021	0.249999	0.746824	-1.000000	-1.000000	-1.000000	-1.000000	-1.000000	-1.000000	-1.000000	50.000000	0.000000	-1.000000	-1.000000	419406.000000	1775804111.268951
-12077.685000	-26215.380000	1146.735000	20199.195000	6585.120000	-9385.695000	-45153.270000	-36006.345000	-1.453713	-1.666343	-2.481461	-1.794367	11.739777	0.756005	-0.853657	-0.818188	-3.326680	0.549360	-1.434440	-0.598021	0.249999	0.746824	-1.000000	-1.000000	-1.000000	-1.000000	-1.000000	-1.000000	-1.000000	50.000000	0.000000	-1.000000	-1.000000	419407.000000	1775804111.268979
-12076.605000	-26213.265000	1149.435000	20202.165000	6583.770000	-9382.365000	-45151.830000	-36005.040000	-1.806303	-1.390045	-1.425408	-0.424237	7.598484	-0.500713	-2.752378	-1.930046	-3.326680	0.549360	-1.434440	-0.598021	0.249999	0.746824	-1.000000	-1.000000	-1.000000	-1.000000	-1.000000	-1.000000	-1.000000	50.000000	0.000000	-1.000000	-1.000000	419408.000000	1775804111.268990
-12075.975000	-26212.680000	1148.670000	20200.815000	6578.910000	-9387.765000	-45155.205000	-36005.490000	-1.094482	-0.250084	0.407493	1.158991	-1.372497	-1.249796	-3.129848	-1.678011	-3.326680	0.549360	-1.434440	-0.598021	0.249999	0.746824	-1.000000	-1.000000	-1.000000	-1.000000	-1.000000	-1.000000	-1.000000	50.000000	0.000000	-1.000000	-1.000000	419409.000000	1775804111.275655
-12069.990000	-26208.090000	1151.955000	20204.055000	6576.795000	-9388.890000	-45153.405000	-36000.405000	0.460241	1.208488	1.991872	2.095038	-9.939741	-1.470294	-1.992410	-0.180247	-3.326680	0.549360	-1.434440	-0.598021	0.249999	0.746824	-1.000000	-1.000000	-1.000000	-1.000000	-1.000000	-1.000000	-1.000000	50.000000	0.000000	-1.000000	-1.000000	419410.000000	1775804111.275680
-12070.350000	-26209.080000	1150.425000	20201.985000	6570.585000	-9393.885000	-45153.945000	-35999.955000	2.114955	2.230514	2.513478	1.952237	-14.103904	-1.702246	-0.227320	1.669947	-3.326680	0.549360	-1.434440	-0.598021	0.249999	0.746824	-1.000000	-1.000000	-1.000000	-1.000000	-1.000000	-1.000000	-1.000000	50.000000	0.000000	-1.000000	-1.000000	419411.000000	1775804111.275707
-12075.660000	-26212.860000	1147.590000	20198.610000	6565.905000	-9399.285000	-45158.040000	-36005.715000	2.862925	2.185536	1.772997	0.834815	-12.780779	-2.058096	1.242091	2.740185	-3.326680	0.549360	-1.434440	-0.598021	0.249999	0.746824	-1.000000	-1.000000	-1.000000	-1.000000	-1.000000	-1.000000	-1.000000	50.000000	0.000000	-1.000000	-1.000000	419412.000000	1775804111.275719
-12076.290000	-26213.895000	1147.320000	20197.845000	6567.300000	-9398.925000	-45159.615000	-36007.065000	1.931675	0.848903	0.117911	-0.818555	-7.378291	-2.177426	1.739076	2.139318	-5.295220	0.732480	-0.900340	-0.592589	0.250244	0.746885	-1.000000	-1.000000	-1.000000	-1.000000	-1.000000	-1.000000	-1.000000	50.000000	0.000000	-1.000000	-1.000000	419413.000000	1775804111.281108
-12075.165000	-26214.930000	1143.945000	20193.615000	6569.595000	-9393.120000	-45155.745000	-36003.150000	-0.216513	-1.133441	-1.630754	-2.277013	-0.235459	-1.366060	1.325277	0.219984	-5.295220	0.732480	-0.900340	-0.592589	0.250244	0.746885	-1.000000	-1.000000	-1.000000	-1.000000	-1.000000	-1.000000	-1.000000	50.000000	0.000000	-1.000000	-1.000000	419414.000000	1775804111.281134
-12073.005000	-26213.445000	1145.160000	20196.090000	6573.375000	-9385.425000	-45149.580000	-35998.110000	-2.041003	-2.534602	-2.597937	-2.806473	6.363062	0.877742	0.913405	-1.398867	-5.295220	0.732480	-0.900340	-0.592589	0.250244	0.746885	-1.000000	-1.000000	-1.000000	-1.000000	-1.000000	-1.000000	-1.000000	50.000000	0.000000	-1.000000	-1.000000	419415.000000	1775804111.282744
-12074.040000	-26213.265000	1145.610000	20197.260000	6574.725000	-9384.345000	-45151.065000	-35998.965000	-2.404499	-2.508368	-2.307175	-2.010447	10.509935	3.919950	1.177508	-1.505571	-5.295220	0.732480	-0.900340	-0.592589	0.250244	0.746885	-1.000000	-1.000000	-1.000000	-1.000000	-1.000000	-1.000000	-1.000000	50.000000	0.000000	-1.000000	-1.000000	419416.000000	1775804111.282765
-12072.600000	-26211.555000	1147.815000	20198.430000	6573.870000	-9385.695000	-45153.045000	-35999.595000	-1.441128	-1.160302	-0.864867	-0.112792	11.057138	5.899405	1.573574	-0.523911	-5.295220	0.732480	-0.900340	-0.592589	0.250244	0.746885	-1.000000	-1.000000	-1.000000	-1.000000	-1.000000	-1.000000	-1.000000	50.000000	0.000000	-1.000000	-1.000000	419417.000000	1775804111.287215
-12073.770000	-26211.510000	1147.995000	20197.710000	6568.965000	-9392.175000	-45157.365000	-36002.970000	-0.059830	0.660984	1.032735	1.935304	7.987657	5.077937	1.029663	0.229357	-5.295220	0.732480	-0.900340	-0.592589	0.250244	0.746885	-1.000000	-1.000000	-1.000000	-1.000000	-1.000000	-1.000000	-1.000000	50.000000	0.000000	-1.000000	-1.000000	419418.000000	1775804111.287237
-12072.870000	-26210.925000	1149.975000	20200.770000	6567.300000	-9393.255000	-45156.690000	-36003.240000	0.911344	1.985504	2.460781	3.084261	2.562306	1.432895	-0.624394	0.007153	-5.295220	0.732480	-0.900340	-0.592589	0.250244	0.746885	-1.000000	-1.000000	-1.000000	-1.000000	-1.000000	-1.000000	-1.000000	50.000000	0.000000	-1.000000	-1.000000	419419.000000	1775804111.290223
-12066.390000	-26204.850000	1152.630000	20203.335000	6572.070000	-9386.775000	-45145.980000	-35993.070000	1.275171	2.370066	2.859280	3.004134	-2.861429	-2.929880	-2.156035	-0.639426	-5.295220	0.732480	-0.900340	-0.592589	0.250244	0.746885	-1.000000	-1.000000	-1.000000	-1.000000	-1.000000	-1.000000	-1.000000	50.000000	0.000000	-1.000000	-1.000000	419420.000000	1775804111.290244
-12067.470000	-26207.280000	1150.875000	20201.355000	6573.420000	-9386.190000	-45146.295000	-35995.005000	1.356174	2.004768	2.225030	2.005088	-5.862867	-5.251806	-2.060963	-0.558450	-5.295220	0.732480	-0.900340	-0.592589	0.250244	0.746885	-1.000000	-1.000000	-1.000000	-1.000000	-1.000000	-1.000000	-1.000000	50.000000	0.000000	-1.000000	-1.000000	419421.000000	1775804111.294456
-12071.565000	-26211.420000	1148.040000	20198.565000	6570.135000	-9388.665000	-45149.535000	-36000.315000	1.146209	1.024010	0.778481	0.406714	-5.672910	-4.558278	-0.498900	0.248720	-5.295220	0.732480	-0.900340	-0.592589	0.250244	0.746885	-1.000000	-1.000000	-1.000000	-1.000000	-1.000000	-1.000000	-1.000000	50.000000	0.000000	-1.000000	-1.000000	419422.000000	1775804111.294481
-12077.865000	-26216.595000	1143.135000	20194.245000	6565.050000	-9391.140000	-45154.215000	-36006.480000	0.141089	-0.663706	-1.167217	-1.520054	-3.650842	-2.223909	0.735752	0.472007	-3.906560	1.037680	-0.015260	-0.595946	0.249450	0.745115	-1.000000	-1.000000	-1.000000	-1.000000	-1.000000	-1.000000	-1.000000	50.000000	0.000000	-1.000000	-1.000000	419423.000000	1775804111.298436
-12077.820000	-26213.085000	1147.410000	20197.665000	6565.545000	-9388.845000	-45156.015000	-36008.685000	-1.611971	-2.543055	-2.890213	-3.123222	-1.656326	-0.081121	0.395270	-0.580887	-3.906560	1.037680	-0.015260	-0.595946	0.249450	0.745115	-1.000000	-1.000000	-1.000000	-1.000000	-1.000000	-1.000000	-1.000000	50.000000	0.000000	-1.000000	-1.000000	419424.000000	1775804111.298463
-12074.715000	-26211.195000	1149.210000	20198.610000	6563.520000	-9390.330000	-45158.265000	-36006.165000	-2.943314	-3.330527	-3.302151	-3.434778	-0.406165	1.137191	-1.021942	-1.944411	-3.906560	1.037680	-0.015260	-0.595946	0.249450	0.745115	-1.000000	-1.000000	-1.000000	-1.000000	-1.000000	-1.000000	-1.000000	50.000000	0.000000	-1.000000	-1.000000	419425.000000	1775804111.305048
-12079.800000	-26219.385000	1140.210000	20190.555000	6556.095000	-9398.250000	-45162.180000	-36008.595000	-2.678210	-2.391797	-2.109086	-2.235123	0.248807	1.407086	-2.178202	-2.125421	-3.906560	1.037680	-0.015260	-0.595946	0.249450	0.745115	-1.000000	-1.000000	-1.000000	-1.000000	-1.000000	-1.000000	-1.000000	50.000000	0.000000	-1.000000	-1.000000	419426.000000	1775804111.305074
-12081.870000	-26222.940000	1137.825000	20189.115000	6556.815000	-9400.905000	-45162.810000	-36008.865000	-1.063874	-0.714259	-0.483551	-0.584379	0.471912	0.742427	-2.207422	-0.772087	-3.906560	1.037680	-0.015260	-0.595946	0.249450	0.745115	-1.000000	-1.000000	-1.000000	-1.000000	-1.000000	-1.000000	-1.000000	50.000000	0.000000	-1.000000	-1.000000	419427.000000	1775804111.312973
-12080.880000	-26223.390000	1136.385000	20186.685000	6561.045000	-9403.695000	-45164.070000	-36007.740000	0.727807	0.438434	0.411302	0.468825	0.681231	-0.412644	-1.057787	1.214171	-3.906560	1.037680	-0.015260	-0.595946	0.249450	0.745115	-1.000000	-1.000000	-1.000000	-1.000000	-1.000000	-1.000000	-1.000000	50.000000	0.000000	-1.000000	-1.000000	419428.000000	1775804111.312998
-12080.160000	-26222.760000	1138.140000	20188.080000	6563.475000	-9402.885000	-45163.710000	-36008.505000	1.991155	0.983995	0.713477	0.938371	1.498563	-1.079253	0.756888	2.750478	-3.906560	1.037680	-0.015260	-0.595946	0.249450	0.745115	-1.000000	-1.000000	-1.000000	-1.000000	-1.000000	-1.000000	-1.000000	50.000000	0.000000	-1.000000	-1.000000	419429.000000	1775804111.313026
-12074.940000	-26218.665000	1141.785000	20190.645000	6557.895000	-9401.040000	-45157.815000	-36003.015000	2.706460	1.552213	1.200020	1.399279	2.667209	-0.532226	2.569776	3.287746	-3.906560	1.037680	-0.015260	-0.595946	0.249450	0.745115	-1.000000	-1.000000	-1.000000	-1.000000	-1.000000	-1.000000	-1.000000	50.000000	0.000000	-1.000000	-1.000000	419430.000000	1775804111.313037
-12079.080000	-26221.905000	1138.320000	20188.710000	6553.800000	-9401.625000	-45159.435000	-36006.120000	2.919072	2.344511	2.077046	2.077022	2.924187	1.047244	3.839905	2.854346	-3.906560	1.037680	-0.015260	-0.595946	0.249450	0.745115	-1.000000	-1.000000	-1.000000	-1.000000	-1.000000	-1.000000	-1.000000	50.000000	0.000000	-1.000000	-1.000000	419431.000000	1775804111.314584
-12076.515000	-26218.620000	1139.985000	20188.260000	6558.705000	-9396.135000	-45159.300000	-36005.355000	2.385593	2.820807	2.666267	2.494920	1.638073	2.734302	3.996104	1.640685	-3.906560	1.037680	-0.015260	-0.595946	0.249450	0.745115	-1.000000	-1.000000	-1.000000	-1.000000	-1.000000	-1.000000	-1.000000	50.000000	0.000000	-1.000000	-1.000000	419432.000000	1775804111.314608
-12073.590000	-26215.830000	1141.875000	20190.645000	6566.535000	-9389.070000	-45155.115000	-36000.720000	1.114725	2.502870	2.344426	2.128184	-0.060841	3.753082	2.776966	0.017970	0.671440	0.778260	-1.068200	-0.600218	0.247314	0.744627	-1.000000	-1.000000	-1.000000	-1.000000	-1.000000	-1.000000	-1.000000	50.000000	0.000000	-1.000000	-1.000000	419433.000000	1775804111.318410
-12072.555000	-26212.545000	1146.285000	20198.250000	6574.410000	-9384.390000	-45155.385000	-36002.115000	-0.274817	1.582882	1.351022	1.249210	-0.521050	3.889851	0.762276	-1.306324	0.671440	0.778260	-1.068200	-0.600218	0.247314	0.744627	-1.000000	-1.000000	-1.000000	-1.000000	-1.000000	-1.000000	-1.000000	50.000000	0.000000	-1.000000	-1.000000	419434.000000	1775804111.318439
-12069.225000	-26209.485000	1150.470000	20202.255000	6579.360000	-9383.355000	-45153.900000	-36000.270000	-1.190464	0.510909	0.381012	0.629328	0.518982	3.018437	-1.160794	-1.913623	0.671440	0.778260	-1.068200	-0.600218	0.247314	0.744627	-1.000000	-1.000000	-1.000000	-1.000000	-1.000000	-1.000000	-1.000000	50.000000	0.000000	-1.000000	-1.000000	419435.000000	1775804111.322644
-12073.140000	-26213.940000	1147.230000	20199.690000	6574.500000	-9390.465000	-45158.175000	-36004.365000	-1.576892	-0.568454	-0.280139	0.395650	1.613884	0.853271	-2.535198	-1.998912	0.671440	0.778260	-1.068200	-0.600218	0.247314	0.744627	-1.000000	-1.000000	-1.000000	-1.000000	-1.000000	-1.000000	-1.000000	50.000000	0.000000	-1.000000	-1.000000	419436.000000	1775804111.322669
-12067.560000	-26209.170000	1151.235000	20201.490000	6569.190000	-9391.860000	-45155.745000	-35999.865000	-1.695351	-1.729780	-0.924857	-0.156122	0.926730	-2.490624	-3.271711	-1.859127	0.671440	0.778260	-1.068200	-0.600218	0.247314	0.744627	-1.000000	-1.000000	-1.000000	-1.000000	-1.000000	-1.000000	-1.000000	50.000000	0.000000	-1.000000	-1.000000	419437.000000	1775804111.327134
-12071.520000	-26213.310000	1146.285000	20195.145000	6559.470000	-9397.170000	-45159.390000	-36003.465000	-1.648899	-2.743004	-1.758448	-1.486956	-2.032137	-5.860517	-3.289556	-1.499894	0.671440	0.778260	-1.068200	-0.600218	0.247314	0.744627	-1.000000	-1.000000	-1.000000	-1.000000	-1.000000	-1.000000	-1.000000	50.000000	0.000000	-1.000000	-1.000000	419438.000000	1775804111.327157
-12073.140000	-26214.210000	1146.105000	20196.765000	6561.720000	-9393.615000	-45157.545000	-36003.420000	-1.485366	-3.221407	-2.608967	-3.185079	-5.678814	-7.489085	-2.551097	-0.919171	0.671440	0.778260	-1.068200	-0.600218	0.247314	0.744627	-1.000000	-1.000000	-1.000000	-1.000000	-1.000000	-1.000000	-1.000000	50.000000	0.000000	-1.000000	-1.000000	419439.000000	1775804111.332306
-12072.105000	-26214.030000	1145.610000	20197.845000	6569.820000	-9384.885000	-45153.315000	-36000.225000	-1.311756	-3.003441	-3.076355	-4.184720	-7.193533	-6.062417	-1.135863	-0.238230	0.671440	0.778260	-1.068200	-0.600218	0.247314	0.744627	-1.000000	-1.000000	-1.000000	-1.000000	-1.000000	-1.000000	-1.000000	50.000000	0.000000	-1.000000	-1.000000	419440.000000	1775804111.332331
-12067.740000	-26209.665000	1149.570000	20200.860000	6574.095000	-9381.375000	-45151.515000	-35997.930000	-0.879339	-1.957864	-2.624491	-3.515911	-4.717906	-1.695724	0.756283	0.584294	0.671440	0.778260	-1.068200	-0.600218	0.247314	0.744627	-1.000000	-1.000000	-1.000000	-1.000000	-1.000000	-1.000000	-1.000000	50.000000	0.000000	-1.000000	-1.000000	419441.000000	1775804111.334475
-12069.540000	-26210.880000	1148.040000	20198.700000	6573.960000	-9386.010000	-45155.880000	-36001.440000	0.106455	-0.149382	-1.083371	-1.296230	0.640411	3.448338	2.414707	1.411773	0.671440	0.778260	-1.068200	-0.600218	0.247314	0.744627	-1.000000	-1.000000	-1.000000	-1.000000	-1.000000	-1.000000	-1.000000	50.000000	0.000000	-1.000000	-1.000000	419442.000000	1775804111.334499
-12065.850000	-26208.405000	1151.055000	20202.615000	6572.160000	-9386.280000	-45151.695000	-35996.940000	1.312666	1.759113	0.933671	1.281102	5.495048	6.327339	2.889054	1.744508	2.365300	1.052940	-1.938020	-0.597655	0.246642	0.745054	-1.000000	-1.000000	-1.000000	-1.000000	-1.000000	-1.000000	-1.000000	50.000000	0.000000	-1.000000	-1.000000	419443.000000	1775804111.338491
-12067.110000	-26208.405000	1152.000000	20203.065000	6571.845000	-9386.550000	-45150.345000	-35997.615000	2.073632	2.899061	2.503905	3.040901	7.050481	5.586135	2.103309	1.411458	2.365300	1.052940	-1.938020	-0.597655	0.246642	0.745054	-1.000000	-1.000000	-1.000000	-1.000000	-1.000000	-1.000000	-1.000000	50.000000	0.000000	-1.000000	-1.000000	419444.000000	1775804111.338517
-12069.270000	-26210.340000	1149.165000	20197.485000	6564.555000	-9392.895000	-45153.810000	-36000.045000	1.934306	2.812328	2.989543	3.371039	4.920127	2.309977	0.773039	0.647681	2.365300	1.052940	-1.938020	-0.597655	0.246642	0.745054	-1.000000	-1.000000	-1.000000	-1.000000	-1.000000	-1.000000	-1.000000	50.000000	0.000000	-1.000000	-1.000000	419445.000000	1775804111.342681
-12073.320000	-26213.940000	1144.305000	20192.760000	6557.130000	-9401.355000	-45159.570000	-36003.240000	0.799066	1.539767	2.108342	2.074016	0.594394	-1.590750	-0.683800	-0.402474	2.365300	1.052940	-1.938020	-0.597655	0.246642	0.745054	-1.000000	-1.000000	-1.000000	-1.000000	-1.000000	-1.000000	-1.000000	50.000000	0.000000	-1.000000	-1.000000	419446.000000	1775804111.342700
-12073.095000	-26212.590000	1145.790000	20195.550000	6562.260000	-9399.690000	-45160.470000	-36002.430000	-0.866372	-0.342170	0.201168	-0.227777	-3.590062	-4.487904	-2.118293	-1.488878	2.365300	1.052940	-1.938020	-0.597655	0.246642	0.745054	-1.000000	-1.000000	-1.000000	-1.000000	-1.000000	-1.000000	-1.000000	50.000000	0.000000	-1.000000	-1.000000	419447.000000	1775804111.345759
-12070.485000	-26209.080000	1149.930000	20200.860000	6564.870000	-9391.995000	-45156.330000	-35998.830000	-2.035741	-1.734295	-1.505455	-1.905788	-5.230517	-4.916355	-2.878754	-1.949494	2.365300	1.052940	-1.938020	-0.597655	0.246642	0.745054	-1.000000	-1.000000	-1.000000	-1.000000	-1.000000	-1.000000	-1.000000	50.000000	0.000000	-1.000000	-1.000000	419448.000000	1775804111.345778
-12070.665000	-26211.105000	1147.680000	20197.710000	6548.355000	-9392.940000	-45152.370000	-35995.995000	-1.857231	-1.790171	-1.828250	-1.732161	-3.745957	-2.319703	-2.084440	-1.204867	2.365300	1.052940	-1.938020	-0.597655	0.246642	0.745054	-1.000000	-1.000000	-1.000000	-1.000000	-1.000000	-1.000000	-1.000000	50.000000	0.000000	-1.000000	-1.000000	419449.000000	1775804111.355994
-12073.095000	-26214.120000	1145.835000	20195.235000	6540.795000	-9392.985000	-45152.325000	-35997.030000	-0.548756	-0.838512	-0.908897	-0.290499	-1.272961	1.772589	0.176038	0.435353	2.365300	1.052940	-1.938020	-0.597655	0.246642	0.745054	-1.000000	-1.000000	-1.000000	-1.000000	-1.000000	-1.000000	-1.000000	50.000000	0.000000	-1.000000	-1.000000	419450.000000	1775804111.356021
-12079.305000	-26220.105000	1139.265000	20188.350000	6548.760000	-9394.695000	-45157.275000	-36003.555000	0.707438	-0.033444	0.044025	0.758758	0.229016	4.701316	2.424932	1.708058	2.365300	1.052940	-1.938020	-0.597655	0.246642	0.745054	-1.000000	-1.000000	-1.000000	-1.000000	-1.000000	-1.000000	-1.000000	50.000000	0.000000	-1.000000	-1.000000	419451.000000	1775804111.357735
-12077.190000	-26217.765000	1142.730000	20195.370000	6591.285000	-9388.980000	-45156.465000	-36003.015000	0.978725	-0.021752	0.209991	0.631388	2.036250	5.017034	3.037997	1.512324	2.365300	1.052940	-1.938020	-0.597655	0.246642	0.745054	-1.000000	-1.000000	-1.000000	-1.000000	-1.000000	-1.000000	-1.000000	50.000000	0.000000	-1.000000	-1.000000	419452.000000	1775804111.357758
-12078.495000	-26217.270000	1144.260000	20195.820000	6584.130000	-9395.730000	-45161.955000	-36006.435000	0.513073	-0.287012	-0.003832	0.132053	6.151970	3.169404	1.735398	0.080937	-0.045780	0.610400	-2.273740	-0.595091	0.249938	0.745543	-1.000000	-1.000000	-1.000000	-1.000000	-1.000000	-1.000000	-1.000000	50.000000	0.000000	-1.000000	-1.000000	419453.000000	1775804111.361150
-12077.685000	-26216.505000	1146.510000	20198.970000	6577.290000	-9394.560000	-45158.805000	-36005.535000	0.164263	-0.001181	0.264537	0.298066	10.102239	0.343988	-0.398824	-1.353657	-0.045780	0.610400	-2.273740	-0.595091	0.249938	0.745543	-1.000000	-1.000000	-1.000000	-1.000000	-1.000000	-1.000000	-1.000000	50.000000	0.000000	-1.000000	-1.000000	419454.000000	1775804111.361175
-12072.375000	-26212.905000	1147.905000	20199.735000	6578.055000	-9384.615000	-45151.110000	-35999.865000	0.424630	0.941427	1.120177	1.070069	8.889104	-2.075297	-1.743113	-1.648820	-0.045780	0.610400	-2.273740	-0.595091	0.249938	0.745543	-1.000000	-1.000000	-1.000000	-1.000000	-1.000000	-1.000000	-1.000000	50.000000	0.000000	-1.000000	-1.000000	419455.000000	1775804111.369692
-12076.020000	-26216.280000	1143.945000	20193.390000	6565.905000	-9387.990000	-45155.655000	-36004.185000	1.154491	1.926110	1.810698	1.514129	1.641470	-2.808770	-1.333241	-0.531720	-0.045780	0.610400	-2.273740	-0.595091	0.249938	0.745543	-1.000000	-1.000000	-1.000000	-1.000000	-1.000000	-1.000000	-1.000000	50.000000	0.000000	-1.000000	-1.000000	419456.000000	1775804111.369717
-12073.050000	-26214.165000	1144.170000	20193.660000	6563.880000	-9385.785000	-45155.475000	-36002.025000	1.661411	2.159618	1.516306	0.801102	-7.660146	-1.937416	0.075927	1.081193	-0.045780	0.610400	-2.273740	-0.595091	0.249938	0.745543	-1.000000	-1.000000	-1.000000	-1.000000	-1.000000	-1.000000	-1.000000	50.000000	0.000000	-1.000000	-1.000000	419457.000000	1775804111.369743
-12072.780000	-26213.490000	1145.925000	20195.820000	6568.155000	-9386.190000	-45154.305000	-36001.665000	1.388954	1.396115	0.277418	-0.762440	-13.811365	-0.729154	0.999504	2.005631	-0.045780	0.610400	-2.273740	-0.595091	0.249938	0.745543	-1.000000	-1.000000	-1.000000	-1.000000	-1.000000	-1.000000	-1.000000	50.000000	0.000000	-1.000000	-1.000000	419458.000000	1775804111.369755
-12073.365000	-26213.130000	1147.770000	20198.790000	6569.010000	-9387.855000	-45154.890000	-36003.105000	0.450560	0.141349	-0.965105	-1.862098	-13.494387	-0.144509	0.909952	1.840626	-0.045780	0.610400	-2.273740	-0.595091	0.249938	0.745543	-1.000000	-1.000000	-1.000000	-1.000000	-1.000000	-1.000000	-1.000000	50.000000	0.000000	-1.000000	-1.000000	419459.000000	1775804111.372191
-12072.780000	-26211.600000	1148.985000	20200.095000	6567.750000	-9390.600000	-45156.240000	-36003.645000	-0.708453	-0.944468	-1.384902	-1.608916	-7.327093	-0.379881	0.169845	0.831046	-0.045780	0.610400	-2.273740	-0.595091	0.249938	0.745543	-1.000000	-1.000000	-1.000000	-1.000000	-1.000000	-1.000000	-1.000000	50.000000	0.000000	-1.000000	-1.000000	419460.000000	1775804111.372214
-12071.025000	-26211.240000	1149.345000	20200.275000	6570.405000	-9395.775000	-45157.500000	-36002.610000	-1.586447	-1.480255	-0.971792	-0.364196	0.893090	-1.143328	-0.715881	-0.450541	-0.045780	0.610400	-2.273740	-0.595091	0.249938	0.745543	-1.000000	-1.000000	-1.000000	-1.000000	-1.000000	-1.000000	-1.000000	50.000000	0.000000	-1.000000	-1.000000	419461.000000	1775804111.376142
-12071.655000	-26213.850000	1145.430000	20197.170000	6575.130000	-9392.220000	-45153.450000	-36000.765000	-1.807808	-1.494856	-0.368978	0.750185	7.302090	-1.794946	-1.247980	-1.290633	-0.045780	0.610400	-2.273740	-0.595091	0.249938	0.745543	-1.000000	-1.000000	-1.000000	-1.000000	-1.000000	-1.000000	-1.000000	50.000000	0.000000	-1.000000	-1.000000	419462.000000	1775804111.376162
-12069.090000	-26208.360000	1150.695000	20200.995000	6575.940000	-9389.745000	-45153.630000	-35999.865000	-1.376153	-1.219223	-0.143377	0.941744	9.999910	-1.488369	-1.014929	-1.279370	-5.600420	1.770160	-0.595140	-0.598265	0.256103	0.742979	-1.000000	-1.000000	-1.000000	-1.000000	-1.000000	-1.000000	-1.000000	50.000000	0.000000	-1.000000	-1.000000	419463.000000	1775804111.381367
-12070.485000	-26210.250000	1149.210000	20198.655000	6574.725000	-9390.285000	-45156.645000	-36002.250000	-0.606076	-0.701208	-0.181920	0.377991	8.885451	0.069209	-0.195895	-0.665906	-5.600420	1.770160	-0.595140	-0.598265	0.256103	0.742979	-1.000000	-1.000000	-1.000000	-1.000000	-1.000000	-1.000000	-1.000000	50.000000	0.000000	-1.000000	-1.000000	419464.000000	1775804111.381393
-12065.445000	-26204.535000	1155.195000	20206.530000	6581.295000	-9382.230000	-45151.335000	-35997.390000	0.159253	0.038633	-0.040942	-0.199832	5.116006	2.151321	0.548733	-0.030556	-5.600420	1.770160	-0.595140	-0.598265	0.256103	0.742979	-1.000000	-1.000000	-1.000000	-1.000000	-1.000000	-1.000000	-1.000000	50.000000	0.000000	-1.000000	-1.000000	419465.000000	1775804111.383340
-12066.390000	-26204.220000	1155.555000	20206.395000	6578.100000	-9382.815000	-45151.650000	-35998.875000	0.741165	0.804022	0.435588	-0.184908	0.648160	3.720459	0.933697	0.361052	-5.600420	1.770160	-0.595140	-0.598265	0.256103	0.742979	-1.000000	-1.000000	-1.000000	-1.000000	-1.000000	-1.000000	-1.000000	50.000000	0.000000	-1.000000	-1.000000	419466.000000	1775804111.383364
-12068.595000	-26206.875000	1151.775000	20202.300000	6573.735000	-9384.390000	-45151.470000	-36000.360000	0.938245	1.205415	0.861555	0.242002	-2.987708	3.916077	1.017745	0.447450	-5.600420	1.770160	-0.595140	-0.598265	0.256103	0.742979	-1.000000	-1.000000	-1.000000	-1.000000	-1.000000	-1.000000	-1.000000	50.000000	0.000000	-1.000000	-1.000000	419467.000000	1775804111.398827
-12072.105000	-26211.555000	1146.690000	20197.440000	6567.930000	-9389.610000	-45154.755000	-36003.510000	0.446101	0.725594	0.495362	0.151437	-5.348913	2.248595	0.679206	0.069186	-5.600420	1.770160	-0.595140	-0.598265	0.256103	0.742979	-1.000000	-1.000000	-1.000000	-1.000000	-1.000000	-1.000000	-1.000000	50.000000	0.000000	-1.000000	-1.000000	419468.000000	1775804111.398856
-12069.405000	-26209.260000	1150.155000	20201.040000	6569.730000	-9390.735000	-45151.740000	-36000.945000	-0.578697	-0.599823	-0.761165	-0.808979	-6.267056	-0.792092	-0.098734	-0.639163	-5.600420	1.770160	-0.595140	-0.598265	0.256103	0.742979	-1.000000	-1.000000	-1.000000	-1.000000	-1.000000	-1.000000	-1.000000	50.000000	0.000000	-1.000000	-1.000000	419469.000000	1775804111.398982
-12068.640000	-26208.990000	1150.920000	20202.660000	6568.335000	-9394.155000	-45149.715000	-35999.505000	-1.302001	-1.788308	-1.841607	-1.677207	-5.344332	-3.713423	-0.806588	-1.034722	-5.600420	1.770160	-0.595140	-0.598265	0.256103	0.742979	-1.000000	-1.000000	-1.000000	-1.000000	-1.000000	-1.000000	-1.000000	50.000000	0.000000	-1.000000	-1.000000	419470.000000	1775804111.398999
-12071.565000	-26212.500000	1147.680000	20198.745000	6564.735000	-9394.470000	-45152.640000	-36001.890000	-1.109549	-1.911769	-1.748729	-1.473230	-2.726990	-5.009959	-0.926792	-0.673146	-5.600420	1.770160	-0.595140	-0.598265	0.256103	0.742979	-1.000000	-1.000000	-1.000000	-1.000000	-1.000000	-1.000000	-1.000000	50.000000	0.000000	-1.000000	-1.000000	419471.000000	1775804111.399021
-12067.740000	-26209.080000	1149.705000	20198.475000	6568.965000	-9387.270000	-45153.495000	-35999.280000	-0.243242	-1.013120	-0.670224	-0.456693	0.528038	-3.976274	-0.641877	0.140165	-5.600420	1.770160	-0.595140	-0.598265	0.256103	0.742979	-1.000000	-1.000000	-1.000000	-1.000000	-1.000000	-1.000000	-1.000000	50.000000	0.000000	-1.000000	-1.000000	419472.000000	1775804111.399033
-12066.165000	-26209.080000	1150.470000	20200.410000	6573.105000	-9381.015000	-45146.925000	-35995.185000	0.790463	0.354037	0.643126	0.574737	3.376913	-0.837138	-0.298380	0.935976	-8.225140	1.449700	-0.457800	-0.604796	0.255737	0.742613	-1.000000	-1.000000	-1.000000	-1.000000	-1.000000	-1.000000	-1.000000	50.000000	0.000000	-1.000000	-1.000000	419473.000000	1775804111.399048
-12063.465000	-26205.705000	1153.935000	20204.460000	6575.895000	-9381.465000	-45147.960000	-35993.970000	1.668159	1.672167	1.708114	1.359169	5.249857	3.046074	0.211982	1.550624	-8.225140	1.449700	-0.457800	-0.604796	0.255737	0.742613	-1.000000	-1.000000	-1.000000	-1.000000	-1.000000	-1.000000	-1.000000	50.000000	0.000000	-1.000000	-1.000000	419474.000000	1775804111.399060
-12062.430000	-26205.480000	1153.935000	20204.055000	6569.775000	-9383.580000	-45146.880000	-35992.170000	2.076649	2.479296	2.277034	1.945778	5.537385	5.443849	0.835316	1.786766	-8.225140	1.449700	-0.457800	-0.604796	0.255737	0.742613	-1.000000	-1.000000	-1.000000	-1.000000	-1.000000	-1.000000	-1.000000	50.000000	0.000000	-1.000000	-1.000000	419475.000000	1775804111.402565
-12065.625000	-26207.145000	1151.505000	20200.365000	6565.545000	-9386.730000	-45148.230000	-35994.645000	1.688948	2.395935	2.083850	2.020276	3.660123	4.796445	1.066981	1.327016	-8.225140	1.449700	-0.457800	-0.604796	0.255737	0.742613	-1.000000	-1.000000	-1.000000	-1.000000	-1.000000	-1.000000	-1.000000	50.000000	0.000000	-1.000000	-1.000000	419476.000000	1775804111.402590
-12069.315000	-26211.150000	1146.465000	20193.570000	6565.905000	-9388.755000	-45150.840000	-35998.065000	0.348971	1.242283	0.899665	1.027276	0.110738	1.522664	0.558834	0.040330	-8.225140	1.449700	-0.457800	-0.604796	0.255737	0.742613	-1.000000	-1.000000	-1.000000	-1.000000	-1.000000	-1.000000	-1.000000	50.000000	0.000000	-1.000000	-1.000000	419477.000000	1775804111.406417
-12070.305000	-26209.710000	1146.105000	20193.480000	6567.795000	-9389.385000	-45151.020000	-35998.380000	-1.559375	-0.621262	-1.001716	-0.942506	-3.215869	-2.354196	-0.503738	-1.703660	-8.225140	1.449700	-0.457800	-0.604796	0.255737	0.742613	-1.000000	-1.000000	-1.000000	-1.000000	-1.000000	-1.000000	-1.000000	50.000000	0.000000	-1.000000	-1.000000	419478.000000	1775804111.406437
-12067.650000	-26208.180000	1148.130000	20196.045000	6568.785000	-9388.665000	-45150.255000	-35997.660000	-2.971050	-2.158814	-2.576424	-2.669020	-4.448320	-4.676158	-1.448817	-2.971323	-8.225140	1.449700	-0.457800	-0.604796	0.255737	0.742613	-1.000000	-1.000000	-1.000000	-1.000000	-1.000000	-1.000000	-1.000000	50.000000	0.000000	-1.000000	-1.000000	419479.000000	1775804111.420316
-12064.725000	-26207.190000	1150.110000	20196.900000	6568.470000	-9385.875000	-45148.275000	-35996.670000	-2.815762	-2.401176	-2.689439	-2.752125	-3.283826	-4.406760	-1.557986	-2.886433	-8.225140	1.449700	-0.457800	-0.604796	0.255737	0.742613	-1.000000	-1.000000	-1.000000	-1.000000	-1.000000	-1.000000	-1.000000	50.000000	0.000000	-1.000000	-1.000000	419480.000000	1775804111.420344
-12064.995000	-26207.145000	1149.705000	20195.640000	6564.510000	-9385.920000	-45148.320000	-35996.985000	-1.044029	-1.345100	-1.217685	-1.090835	-1.001167	-2.020263	-0.689198	-1.429690	-8.225140	1.449700	-0.457800	-0.604796	0.255737	0.742613	-1.000000	-1.000000	-1.000000	-1.000000	-1.000000	-1.000000	-1.000000	50.000000	0.000000	-1.000000	-1.000000	419481.000000	1775804111.420509
-12068.640000	-26209.530000	1147.410000	20196.135000	6564.060000	-9385.830000	-45149.940000	-36000.090000	1.119107	0.103402	0.748377	1.064624	0.771391	0.936305	0.541913	0.482994	-8.225140	1.449700	-0.457800	-0.604796	0.255737	0.742613	-1.000000	-1.000000	-1.000000	-1.000000	-1.000000	-1.000000	-1.000000	50.000000	0.000000	-1.000000	-1.000000	419482.000000	1775804111.420525
-12072.645000	-26211.780000	1145.745000	20195.055000	6563.790000	-9390.600000	-45158.265000	-36005.940000	2.133582	0.926082	1.866834	2.384495	1.334211	2.794088	1.138909	1.636062	-4.516960	-0.228900	-1.342880	-0.604002	0.245727	0.743956	-1.000000	-1.000000	-1.000000	-1.000000	-1.000000	-1.000000	-1.000000	50.000000	0.000000	-1.000000	-1.000000	419483.000000	1775804111.420547
-12068.235000	-26208.720000	1147.410000	20194.245000	6560.055000	-9390.420000	-45153.765000	-36000.630000	1.568851	0.828416	1.679143	2.353813	1.012515	2.743623	0.614705	1.548537	-4.516960	-0.228900	-1.342880	-0.604002	0.245727	0.743956	-1.000000	-1.000000	-1.000000	-1.000000	-1.000000	-1.000000	-1.000000	50.000000	0.000000	-1.000000	-1.000000	419484.000000	1775804111.420558
-12066.930000	-26208.045000	1148.085000	20193.210000	6558.345000	-9389.745000	-45152.415000	-35999.775000	0.459081	0.398465	0.802493	1.268885	0.347041	1.318754	-0.271081	0.980867	-4.516960	-0.228900	-1.342880	-0.604002	0.245727	0.743956	-1.000000	-1.000000	-1.000000	-1.000000	-1.000000	-1.000000	-1.000000	50.000000	0.000000	-1.000000	-1.000000	419485.000000	1775804111.425206
-12068.640000	-26208.720000	1147.815000	20195.055000	6558.930000	-9391.230000	-45155.205000	-36002.340000	-0.070947	0.252309	0.068460	-0.104023	-0.221391	-0.200787	-0.437107	0.811031	-4.516960	-0.228900	-1.342880	-0.604002	0.245727	0.743956	-1.000000	-1.000000	-1.000000	-1.000000	-1.000000	-1.000000	-1.000000	50.000000	0.000000	-1.000000	-1.000000	419486.000000	1775804111.425228
-12071.070000	-26211.825000	1144.170000	20191.590000	6555.240000	-9393.705000	-45155.025000	-36003.060000	-0.037021	0.298437	-0.301592	-1.044798	-0.360749	-1.008248	0.115240	0.893792	-4.516960	-0.228900	-1.342880	-0.604002	0.245727	0.743956	-1.000000	-1.000000	-1.000000	-1.000000	-1.000000	-1.000000	-1.000000	50.000000	0.000000	-1.000000	-1.000000	419487.000000	1775804111.429366
-12066.975000	-26208.945000	1147.410000	20196.675000	6559.155000	-9390.195000	-45149.985000	-35998.740000	0.019319	0.167247	-0.515527	-1.266911	-0.032200	-1.042650	0.790526	0.772552	-4.516960	-0.228900	-1.342880	-0.604002	0.245727	0.743956	-1.000000	-1.000000	-1.000000	-1.000000	-1.000000	-1.000000	-1.000000	50.000000	0.000000	-1.000000	-1.000000	419488.000000	1775804111.429384
-12065.085000	-26208.045000	1149.705000	20202.705000	6568.695000	-9386.730000	-45150.705000	-35998.245000	0.066927	-0.056674	-0.516419	-0.682019	0.795741	-0.387869	1.322196	0.540738	-4.516960	-0.228900	-1.342880	-0.604002	0.245727	0.743956	-1.000000	-1.000000	-1.000000	-1.000000	-1.000000	-1.000000	-1.000000	50.000000	0.000000	-1.000000	-1.000000	419489.000000	1775804111.431032
-12063.690000	-26206.335000	1152.045000	20203.830000	6570.585000	-9389.340000	-45153.900000	-35999.280000	0.328190	-0.028301	-0.063264	0.583174	2.134246	0.687011	1.436397	0.358477	-4.516960	-0.228900	-1.342880	-0.604002	0.245727	0.743956	-1.000000	-1.000000	-1.000000	-1.000000	-1.000000	-1.000000	-1.000000	50.000000	0.000000	-1.000000	-1.000000	419490.000000	1775804111.431052
-12066.930000	-26207.415000	1151.145000	20200.815000	6559.785000	-9392.760000	-45159.120000	-36004.995000	0.567825	0.238435	0.631434	1.661910	3.012229	1.351829	0.657696	-0.073638	-4.516960	-0.228900	-1.342880	-0.604002	0.245727	0.743956	-1.000000	-1.000000	-1.000000	-1.000000	-1.000000	-1.000000	-1.000000	50.000000	0.000000	-1.000000	-1.000000	419491.000000	1775804111.438852
-12065.085000	-26204.355000	1154.745000	20205.315000	6567.030000	-9387.540000	-45157.320000	-36004.005000	0.316985	0.424298	1.005543	1.543556	2.036473	0.994042	-0.913524	-1.004360	-4.516960	-0.228900	-1.342880	-0.604002	0.245727	0.743956	-1.000000	-1.000000	-1.000000	-1.000000	-1.000000	-1.000000	-1.000000	50.000000	0.000000	-1.000000	-1.000000	419492.000000	1775804111.438879
-12067.245000	-26206.380000	1152.855000	20204.865000	6569.685000	-9391.230000	-45159.120000	-36005.130000	-0.422080	0.334730	0.769143	0.301220	-0.398269	0.040819	-2.265940	-1.959276	3.769220	0.579880	-1.724380	-0.594847	0.239196	0.744322	-1.000000	-1.000000	-1.000000	-1.000000	-1.000000	-1.000000	-1.000000	50.000000	0.000000	-1.000000	-1.000000	419493.000000	1775804111.438922
-12066.480000	-26210.430000	1146.600000	20197.170000	6575.085000	-9389.880000	-45156.060000	-36001.665000	-1.171929	-0.120280	-0.101408	-1.298462	-2.318571	-0.770065	-2.379815	-2.082108	3.769220	0.579880	-1.724380	-0.594847	0.239196	0.744322	-1.000000	-1.000000	-1.000000	-1.000000	-1.000000	-1.000000	-1.000000	50.000000	0.000000	-1.000000	-1.000000	419494.000000	1775804111.438936
-12062.790000	-26207.505000	1149.120000	20198.790000	6574.095000	-9386.055000	-45150.165000	-35996.940000	-1.393955	-0.879650	-1.419626	-2.725437	-2.584099	-1.050022	-1.022213	-0.952942	3.769220	0.579880	-1.724380	-0.594847	0.239196	0.744322	-1.000000	-1.000000	-1.000000	-1.000000	-1.000000	-1.000000	-1.000000	50.000000	0.000000	-1.000000	-1.000000	419495.000000	1775804111.443168
-12064.455000	-26209.395000	1147.455000	20193.660000	6550.245000	-9396.720000	-45153.855000	-35999.325000	-0.840391	-1.439813	-2.432845	-3.466157	-2.167452	-0.842369	1.121387	0.949862	3.769220	0.579880	-1.724380	-0.594847	0.239196	0.744322	-1.000000	-1.000000	-1.000000	-1.000000	-1.000000	-1.000000	-1.000000	50.000000	0.000000	-1.000000	-1.000000	419496.000000	1775804111.443190
-12063.645000	-26207.730000	1149.435000	20195.955000	6546.825000	-9393.030000	-45151.515000	-35998.515000	0.114095	-1.289231	-2.305152	-3.011457	-2.924978	-0.692134	2.679954	2.385500	3.769220	0.579880	-1.724380	-0.594847	0.239196	0.744322	-1.000000	-1.000000	-1.000000	-1.000000	-1.000000	-1.000000	-1.000000	50.000000	0.000000	-1.000000	-1.000000	419497.000000	1775804111.461614
-12068.280000	-26211.240000	1146.690000	20194.245000	6548.490000	-9393.390000	-45155.430000	-36003.240000	0.717945	-0.525172	-1.032011	-1.350956	-4.573549	-0.764489	2.613595	2.314970	3.769220	0.579880	-1.724380	-0.594847	0.239196	0.744322	-1.000000	-1.000000	-1.000000	-1.000000	-1.000000	-1.000000	-1.000000	50.000000	0.000000	-1.000000	-1.000000	419498.000000	1775804111.461640
-12070.305000	-26211.555000	1146.870000	20196.180000	6582.150000	-9385.020000	-45157.140000	-36007.335000	0.496102	0.287845	0.582452	0.931005	-3.927591	-0.394337	1.002548	0.694692	3.769220	0.579880	-1.724380	-0.594847	0.239196	0.744322	-1.000000	-1.000000	-1.000000	-1.000000	-1.000000	-1.000000	-1.000000	50.000000	0.000000	-1.000000	-1.000000	419499.000000	1775804111.461668
-12069.045000	-26210.385000	1149.210000	20199.690000	6592.365000	-9379.215000	-45153.810000	-36006.435000	-0.299036	0.743489	1.739870	2.997987	1.501398	0.939119	-1.110664	-1.524452	3.769220	0.579880	-1.724380	-0.594847	0.239196	0.744322	-1.000000	-1.000000	-1.000000	-1.000000	-1.000000	-1.000000	-1.000000	50.000000	0.000000	-1.000000	-1.000000	419500.000000	1775804111.461680
-12073.770000	-26217.000000	1143.180000	20194.245000	6575.490000	-9384.480000	-45155.295000	-36008.235000	-0.911770	0.798874	2.102312	4.084761	9.003879	2.613661	-2.384197	-2.922372	3.769220	0.579880	-1.724380	-0.594847	0.239196	0.744322	-1.000000	-1.000000	-1.000000	-1.000000	-1.000000	-1.000000	-1.000000	50.000000	0.000000	-1.000000	-1.000000	419501.000000	1775804111.461694
-12072.690000	-26217.495000	1141.830000	20191.635000	6567.300000	-9389.790000	-45157.455000	-36007.290000	-0.894195	0.439054	1.543809	3.560721	11.850997	2.962026	-2.270747	-2.642659	3.769220	0.579880	-1.724380	-0.594847	0.239196	0.744322	-1.000000	-1.000000	-1.000000	-1.000000	-1.000000	-1.000000	-1.000000	50.000000	0.000000	-1.000000	-1.000000	419502.000000	1775804111.461705
-12068.820000	-26212.500000	1147.815000	20196.135000	6567.750000	-9391.050000	-45157.320000	-36005.310000	-0.215523	-0.048009	0.427932	1.584162	6.751778	1.032721	-1.301408	-0.926129	7.752080	0.473060	-1.953280	-0.592101	0.238647	0.746153	-1.000000	-1.000000	-1.000000	-1.000000	-1.000000	-1.000000	-1.000000	50.000000	0.000000	-1.000000	-1.000000	419503.000000	1775804111.462476
