Channel1	Channel2	Channel3	Channel4	Channel5	Channel6	Channel7	Channel8	FilteredChannel1	FilteredChannel2	FilteredChannel3	FilteredChannel4	FilteredChannel5	FilteredChannel6	FilteredChannel7	FilteredChannel8	GyroX	GyroY	GyroZ	AccX	AccY	AccZ	PPG1	PPG2	rawPPG1	rawPPG2	rawPPG3	Hr	Hrv	Battery	Trigger	PhysicalTrigger	AutoTrigger	NumMeasurements	Timestamp
-15396.795000	-27917.550000	1331.280000	20791.170000	7039.620000	-10125.315000	-40846.140000	-32939.460000	-0.388181	2.090485	2.906973	5.483309	-1.644440	-5.138171	-3.668057	-2.061209	-7.004340	5.066320	-8.194620	-0.742918	0.116821	0.645079	-1.000000	-1.000000	-1.000000	-1.000000	-1.000000	-1.000000	-1.000000	51.000000	0.000000	-1.000000	-1.000000	353683.000000	1775803979.744470
-15399.765000	-27918.675000	1327.770000	20786.715000	7042.815000	-10128.555000	-40852.980000	-32945.580000	-0.605856	1.865317	3.771633	3.975106	-2.463509	-1.931969	-5.449161	-4.235071	-7.004340	5.066320	-8.194620	-0.742918	0.116821	0.645079	-1.000000	-1.000000	-1.000000	-1.000000	-1.000000	-1.000000	-1.000000	51.000000	0.000000	-1.000000	-1.000000	353684.000000	1775803979.750715
-15391.530000	-27914.220000	1322.955000	20762.865000	7029.495000	-10123.020000	-40845.015000	-32937.840000	-0.301863	1.634501	4.044644	1.549425	-2.124652	1.457309	-5.710568	-4.929223	-7.004340	5.066320	-8.194620	-0.742918	0.116821	0.645079	-1.000000	-1.000000	-1.000000	-1.000000	-1.000000	-1.000000	-1.000000	51.000000	0.000000	-1.000000	-1.000000	353685.000000	1775803979.750743
-15389.055000	-27909.450000	1331.055000	20778.660000	7032.690000	-10128.060000	-40846.050000	-32937.840000	0.468793	1.456503	2.759342	-2.459320	-1.629853	3.522399	-3.571371	-3.518565	-7.004340	5.066320	-8.194620	-0.742918	0.116821	0.645079	-1.000000	-1.000000	-1.000000	-1.000000	-1.000000	-1.000000	-1.000000	51.000000	0.000000	-1.000000	-1.000000	353686.000000	1775803979.750774
-15389.415000	-27911.205000	1330.290000	20783.295000	7033.500000	-10130.985000	-40844.295000	-32937.030000	1.307496	1.130574	0.373547	-6.167031	-1.667631	3.609929	0.467559	-0.515599	-7.004340	5.066320	-8.194620	-0.742918	0.116821	0.645079	-1.000000	-1.000000	-1.000000	-1.000000	-1.000000	-1.000000	-1.000000	51.000000	0.000000	-1.000000	-1.000000	353687.000000	1775803979.750786
-15388.740000	-27916.200000	1322.910000	20757.960000	7017.705000	-10134.765000	-40840.290000	-32934.150000	1.451733	0.207489	-1.906097	-6.946199	-1.759576	1.892131	4.467794	2.482386	-8.118320	4.578000	-4.745860	-0.744444	0.109619	0.645079	-1.000000	-1.000000	-1.000000	-1.000000	-1.000000	-1.000000	-1.000000	51.000000	0.000000	-1.000000	-1.000000	353688.000000	1775803979.753333
-15390.855000	-27914.805000	1325.520000	20762.640000	7019.055000	-10134.990000	-40840.515000	-32937.930000	0.500521	-1.520194	-3.576093	-5.428198	-1.745318	-0.526735	6.614962	3.997381	-8.118320	4.578000	-4.745860	-0.744444	0.109619	0.645079	-1.000000	-1.000000	-1.000000	-1.000000	-1.000000	-1.000000	-1.000000	51.000000	0.000000	-1.000000	-1.000000	353689.000000	1775803979.753358
-15394.860000	-27916.380000	1327.635000	20778.480000	7034.220000	-10130.490000	-40840.830000	-32942.340000	-1.184986	-3.277418	-4.212338	-2.886796	-1.128637	-2.076952	6.155178	3.393656	-8.118320	4.578000	-4.745860	-0.744444	0.109619	0.645079	-1.000000	-1.000000	-1.000000	-1.000000	-1.000000	-1.000000	-1.000000	51.000000	0.000000	-1.000000	-1.000000	353690.000000	1775803979.763272
-15394.455000	-27918.360000	1325.880000	20777.670000	7032.195000	-10126.755000	-40839.840000	-32940.495000	-2.787642	-3.949455	-3.336874	1.054521	1.164901	-1.716921	3.489582	1.121020	-8.118320	4.578000	-4.745860	-0.744444	0.109619	0.645079	-1.000000	-1.000000	-1.000000	-1.000000	-1.000000	-1.000000	-1.000000	51.000000	0.000000	-1.000000	-1.000000	353691.000000	1775803979.763299
-15395.715000	-27921.510000	1320.660000	20769.210000	7026.525000	-10125.180000	-40839.930000	-32940.900000	-3.388434	-3.225893	-1.455623	5.360817	4.300946	0.238865	-0.027152	-1.306660	-8.118320	4.578000	-4.745860	-0.744444	0.109619	0.645079	-1.000000	-1.000000	-1.000000	-1.000000	-1.000000	-1.000000	-1.000000	51.000000	0.000000	-1.000000	-1.000000	353692.000000	1775803979.763452
-15398.730000	-27925.020000	1316.430000	20765.340000	7025.850000	-10125.945000	-40841.595000	-32944.365000	-2.586347	-1.659695	0.147216	7.076847	5.644547	2.257735	-2.911387	-2.502796	-8.118320	4.578000	-4.745860	-0.744444	0.109619	0.645079	-1.000000	-1.000000	-1.000000	-1.000000	-1.000000	-1.000000	-1.000000	51.000000	0.000000	-1.000000	-1.000000	353693.000000	1775803979.763474
-15395.625000	-27922.995000	1317.735000	20765.295000	7026.570000	-10124.280000	-40838.355000	-32941.125000	-0.793803	0.063403	0.793465	4.959811	4.038573	2.856902	-4.273575	-2.218184	-8.118320	4.578000	-4.745860	-0.744444	0.109619	0.645079	-1.000000	-1.000000	-1.000000	-1.000000	-1.000000	-1.000000	-1.000000	51.000000	0.000000	-1.000000	-1.000000	353694.000000	1775803979.766108
-15395.580000	-27923.355000	1316.430000	20762.955000	7019.280000	-10133.775000	-40840.785000	-32941.800000	1.284562	1.634332	0.930988	0.842159	0.705121	1.587194	-3.942567	-0.932952	-8.118320	4.578000	-4.745860	-0.744444	0.109619	0.645079	-1.000000	-1.000000	-1.000000	-1.000000	-1.000000	-1.000000	-1.000000	51.000000	0.000000	-1.000000	-1.000000	353695.000000	1775803979.766158
-15393.600000	-27920.880000	1316.115000	20759.625000	7019.010000	-10136.925000	-40840.065000	-32940.270000	2.990017	2.913546	1.211531	-2.611034	-2.536501	-1.046669	-2.453438	0.656972	-8.118320	4.578000	-4.745860	-0.744444	0.109619	0.645079	-1.000000	-1.000000	-1.000000	-1.000000	-1.000000	-1.000000	-1.000000	51.000000	0.000000	-1.000000	-1.000000	353696.000000	1775803979.773024
-15391.440000	-27916.695000	1318.590000	20759.175000	7027.020000	-10131.615000	-40835.925000	-32938.920000	3.781763	3.689939	1.733133	-3.980744	-4.166708	-3.617228	-0.610578	1.841202	-8.118320	4.578000	-4.745860	-0.744444	0.109619	0.645079	-1.000000	-1.000000	-1.000000	-1.000000	-1.000000	-1.000000	-1.000000	51.000000	0.000000	-1.000000	-1.000000	353697.000000	1775803979.773049
-15392.790000	-27916.560000	1322.640000	20772.270000	7028.280000	-10130.490000	-40836.915000	-32941.080000	3.419893	3.751964	2.295661	-3.008191	-3.268594	-4.243948	1.042145	2.161138	-5.859840	3.998120	-3.860780	-0.744444	0.100097	0.643553	-1.000000	-1.000000	-1.000000	-1.000000	-1.000000	-1.000000	-1.000000	51.000000	0.000000	-1.000000	-1.000000	353698.000000	1775803979.773634
-15388.695000	-27910.755000	1332.000000	20778.210000	7020.405000	-10130.985000	-40837.995000	-32941.935000	2.064706	2.972624	2.786781	-0.014782	-0.659287	-2.355545	2.030654	1.489179	-5.859840	3.998120	-3.860780	-0.744444	0.100097	0.643553	-1.000000	-1.000000	-1.000000	-1.000000	-1.000000	-1.000000	-1.000000	51.000000	0.000000	-1.000000	-1.000000	353699.000000	1775803979.773652
-15388.830000	-27911.430000	1330.560000	20776.545000	7018.425000	-10129.590000	-40837.590000	-32942.745000	0.304797	1.488991	3.003359	3.519876	1.371018	0.665427	1.976608	0.131090	-5.859840	3.998120	-3.860780	-0.744444	0.100097	0.643553	-1.000000	-1.000000	-1.000000	-1.000000	-1.000000	-1.000000	-1.000000	51.000000	0.000000	-1.000000	-1.000000	353700.000000	1775803979.779716
-15395.850000	-27917.190000	1325.880000	20774.790000	7018.155000	-10135.125000	-40843.890000	-32949.495000	-1.334362	-0.481234	2.226142	5.108937	1.473029	2.867003	0.970812	-1.318087	-5.859840	3.998120	-3.860780	-0.744444	0.100097	0.643553	-1.000000	-1.000000	-1.000000	-1.000000	-1.000000	-1.000000	-1.000000	51.000000	0.000000	-1.000000	-1.000000	353701.000000	1775803979.779741
-15397.830000	-27916.920000	1329.210000	20775.150000	7016.355000	-10133.280000	-40839.165000	-32951.295000	-2.785782	-2.729153	-0.059170	3.410369	0.330665	3.149274	-0.425003	-2.405450	-5.859840	3.998120	-3.860780	-0.744444	0.100097	0.643553	-1.000000	-1.000000	-1.000000	-1.000000	-1.000000	-1.000000	-1.000000	51.000000	0.000000	-1.000000	-1.000000	353702.000000	1775803979.782033
-15404.805000	-27931.095000	1308.330000	20755.485000	7015.005000	-10126.215000	-40828.680000	-32953.410000	-3.900936	-4.752646	-3.301840	-0.786332	-0.713467	1.984631	-1.117255	-2.768362	-5.859840	3.998120	-3.860780	-0.744444	0.100097	0.643553	-1.000000	-1.000000	-1.000000	-1.000000	-1.000000	-1.000000	-1.000000	51.000000	0.000000	-1.000000	-1.000000	353703.000000	1775803979.782056
-15407.145000	-27934.605000	1302.885000	20748.285000	7011.450000	-10126.530000	-40827.285000	-32953.050000	-4.195581	-5.972123	-6.520084	-5.740896	-1.004457	0.804326	-0.194273	-2.069335	-5.859840	3.998120	-3.860780	-0.744444	0.100097	0.643553	-1.000000	-1.000000	-1.000000	-1.000000	-1.000000	-1.000000	-1.000000	51.000000	0.000000	-1.000000	-1.000000	353704.000000	1775803979.786271
-15391.620000	-27920.250000	1317.960000	20765.970000	7023.285000	-10133.730000	-40839.750000	-32940.855000	-2.942712	-5.462954	-8.040092	-8.843867	-0.436987	0.146222	1.414037	-0.165763	-5.859840	3.998120	-3.860780	-0.744444	0.100097	0.643553	-1.000000	-1.000000	-1.000000	-1.000000	-1.000000	-1.000000	-1.000000	51.000000	0.000000	-1.000000	-1.000000	353705.000000	1775803979.786297
-15385.905000	-27914.490000	1320.930000	20769.300000	7032.105000	-10134.045000	-40841.010000	-32936.355000	0.443516	-2.052174	-5.612426	-7.143199	1.166010	-0.652824	1.498812	2.708696	-5.859840	3.998120	-3.860780	-0.744444	0.100097	0.643553	-1.000000	-1.000000	-1.000000	-1.000000	-1.000000	-1.000000	-1.000000	51.000000	0.000000	-1.000000	-1.000000	353706.000000	1775803979.811441
-15393.465000	-27920.025000	1316.295000	20763.045000	7021.755000	-10135.890000	-40839.705000	-32942.835000	4.740804	3.396260	0.426417	-0.897605	3.202172	-1.817110	-0.443980	5.223255	-5.859840	3.998120	-3.860780	-0.744444	0.100097	0.643553	-1.000000	-1.000000	-1.000000	-1.000000	-1.000000	-1.000000	-1.000000	51.000000	0.000000	-1.000000	-1.000000	353707.000000	1775803979.811466
-15396.120000	-27922.050000	1314.630000	20756.430000	7014.870000	-10131.165000	-40839.570000	-32944.545000	6.833413	7.434835	6.252294	5.454170	3.573160	-2.511518	-2.519725	5.271946	-3.952340	3.433500	-1.602300	-0.744810	0.094787	0.641783	-1.000000	-1.000000	-1.000000	-1.000000	-1.000000	-1.000000	-1.000000	51.000000	0.000000	-1.000000	-1.000000	353708.000000	1775803979.811498
-15392.970000	-27917.775000	1316.295000	20755.305000	7018.920000	-10127.025000	-40838.805000	-32945.040000	5.010603	7.484334	8.391136	7.727411	1.091252	-1.824443	-2.885807	2.256138	-3.952340	3.433500	-1.602300	-0.744810	0.094787	0.641783	-1.000000	-1.000000	-1.000000	-1.000000	-1.000000	-1.000000	-1.000000	51.000000	0.000000	-1.000000	-1.000000	353709.000000	1775803979.811510
-15388.740000	-27912.195000	1324.080000	20770.920000	7023.960000	-10124.640000	-40836.015000	-32942.205000	0.930520	4.337602	6.695232	5.897900	-2.378613	0.186179	-1.365785	-1.928138	-3.952340	3.433500	-1.602300	-0.744810	0.094787	0.641783	-1.000000	-1.000000	-1.000000	-1.000000	-1.000000	-1.000000	-1.000000	51.000000	0.000000	-1.000000	-1.000000	353710.000000	1775803979.811525
-15388.965000	-27910.575000	1325.385000	20774.430000	7015.455000	-10129.860000	-40839.480000	-32944.905000	-2.489210	0.604193	3.362072	3.081024	-4.164088	2.219366	0.912774	-4.743637	-3.952340	3.433500	-1.602300	-0.744810	0.094787	0.641783	-1.000000	-1.000000	-1.000000	-1.000000	-1.000000	-1.000000	-1.000000	51.000000	0.000000	-1.000000	-1.000000	353711.000000	1775803979.811535
-15395.445000	-27916.020000	1318.995000	20774.520000	7015.365000	-10136.340000	-40843.305000	-32952.105000	-3.924644	-2.080129	0.183066	1.446858	-3.773962	2.588482	2.397875	-5.227383	-3.952340	3.433500	-1.602300	-0.744810	0.094787	0.641783	-1.000000	-1.000000	-1.000000	-1.000000	-1.000000	-1.000000	-1.000000	51.000000	0.000000	-1.000000	-1.000000	353712.000000	1775803979.811548
-15395.805000	-27916.290000	1318.230000	20761.920000	7017.795000	-10135.845000	-40838.580000	-32950.575000	-3.925919	-3.694720	-2.502494	0.259184	-2.219459	0.827615	2.294601	-4.074426	-3.952340	3.433500	-1.602300	-0.744810	0.094787	0.641783	-1.000000	-1.000000	-1.000000	-1.000000	-1.000000	-1.000000	-1.000000	51.000000	0.000000	-1.000000	-1.000000	353713.000000	1775803979.811558
-15393.960000	-27916.425000	1319.445000	20740.050000	7009.515000	-10134.405000	-40833.270000	-32946.390000	-3.201096	-4.481367	-4.509327	-2.386326	-0.387682	-1.604847	1.342700	-2.032858	-3.952340	3.433500	-1.602300	-0.744810	0.094787	0.641783	-1.000000	-1.000000	-1.000000	-1.000000	-1.000000	-1.000000	-1.000000	51.000000	0.000000	-1.000000	-1.000000	353714.000000	1775803979.811571
-15393.690000	-27916.155000	1322.100000	20765.745000	7024.635000	-10127.565000	-40832.460000	-32946.030000	-1.807281	-4.201334	-5.055997	-6.187745	1.216356	-2.605586	0.765953	0.594718	-3.952340	3.433500	-1.602300	-0.744810	0.094787	0.641783	-1.000000	-1.000000	-1.000000	-1.000000	-1.000000	-1.000000	-1.000000	51.000000	0.000000	-1.000000	-1.000000	353715.000000	1775803979.811581
-15390.450000	-27909.630000	1333.530000	20815.290000	7057.485000	-10118.655000	-40829.805000	-32946.345000	0.145939	-2.632324	-3.525166	-6.674929	3.245785	-1.193512	0.766635	3.072954	-3.952340	3.433500	-1.602300	-0.744810	0.094787	0.641783	-1.000000	-1.000000	-1.000000	-1.000000	-1.000000	-1.000000	-1.000000	51.000000	0.000000	-1.000000	-1.000000	353716.000000	1775803979.828163
-15388.515000	-27907.470000	1333.845000	20790.990000	7042.185000	-10117.215000	-40826.655000	-32944.140000	2.105908	-0.044894	-0.313176	-0.586563	6.220435	1.777915	0.756714	4.324588	-3.952340	3.433500	-1.602300	-0.744810	0.094787	0.641783	-1.000000	-1.000000	-1.000000	-1.000000	-1.000000	-1.000000	-1.000000	51.000000	0.000000	-1.000000	-1.000000	353717.000000	1775803979.828190
-15395.265000	-27916.290000	1322.280000	20773.080000	7036.470000	-10120.500000	-40830.750000	-32947.740000	3.215918	2.405474	2.643488	6.853595	7.464699	4.047133	0.247683	3.850353	-0.213640	3.219860	-0.350980	-0.749571	0.093017	0.639830	-1.000000	-1.000000	-1.000000	-1.000000	-1.000000	-1.000000	-1.000000	51.000000	0.000000	-1.000000	-1.000000	353718.000000	1775803979.828218
-15388.605000	-27910.260000	1326.690000	20767.905000	7033.770000	-10120.050000	-40829.085000	-32942.160000	2.836715	3.230301	3.099623	7.369771	3.816317	3.664853	-0.886645	2.053863	-0.213640	3.219860	-0.350980	-0.749571	0.093017	0.639830	-1.000000	-1.000000	-1.000000	-1.000000	-1.000000	-1.000000	-1.000000	51.000000	0.000000	-1.000000	-1.000000	353719.000000	1775803979.828230
-15383.655000	-27904.140000	1333.710000	20779.785000	7035.255000	-10120.590000	-40830.075000	-32940.000000	1.500018	2.410025	1.226930	0.610165	-3.323491	0.772059	-2.216549	0.044187	-0.213640	3.219860	-0.350980	-0.749571	0.093017	0.639830	-1.000000	-1.000000	-1.000000	-1.000000	-1.000000	-1.000000	-1.000000	51.000000	0.000000	-1.000000	-1.000000	353720.000000	1775803979.828250
-15386.490000	-27908.685000	1328.580000	20779.920000	7029.855000	-10125.495000	-40831.830000	-32940.765000	0.357526	1.221174	-0.741694	-6.486625	-9.352264	-2.775440	-2.987975	-1.200256	-0.213640	3.219860	-0.350980	-0.749571	0.093017	0.639830	-1.000000	-1.000000	-1.000000	-1.000000	-1.000000	-1.000000	-1.000000	51.000000	0.000000	-1.000000	-1.000000	353721.000000	1775803979.828262
-15395.040000	-27918.765000	1318.320000	20770.920000	7024.500000	-10122.255000	-40829.760000	-32944.050000	-0.510509	0.050425	-1.734846	-8.538935	-11.112353	-5.083083	-2.764720	-1.698667	-0.213640	3.219860	-0.350980	-0.749571	0.093017	0.639830	-1.000000	-1.000000	-1.000000	-1.000000	-1.000000	-1.000000	-1.000000	51.000000	0.000000	-1.000000	-1.000000	353722.000000	1775803979.828275
-15398.235000	-27919.980000	1315.215000	20763.360000	7019.595000	-10127.340000	-40836.915000	-32949.855000	-1.802947	-1.583611	-2.377059	-5.977045	-8.607194	-5.174253	-1.696711	-2.104415	-0.213640	3.219860	-0.350980	-0.749571	0.093017	0.639830	-1.000000	-1.000000	-1.000000	-1.000000	-1.000000	-1.000000	-1.000000	51.000000	0.000000	-1.000000	-1.000000	353723.000000	1775803979.828286
-15391.935000	-27911.700000	1323.855000	20771.910000	7023.510000	-10133.145000	-40839.615000	-32948.100000	-3.170519	-3.040384	-2.665024	-1.826909	-3.589566	-3.417268	-0.480352	-2.640805	-0.213640	3.219860	-0.350980	-0.749571	0.093017	0.639830	-1.000000	-1.000000	-1.000000	-1.000000	-1.000000	-1.000000	-1.000000	51.000000	0.000000	-1.000000	-1.000000	353724.000000	1775803979.828299
-15396.300000	-27915.795000	1322.280000	20781.225000	7031.880000	-10126.890000	-40841.955000	-32951.790000	-3.250436	-2.803477	-1.546147	2.327852	2.231706	-0.962992	0.278725	-2.749357	-0.213640	3.219860	-0.350980	-0.749571	0.093017	0.639830	-1.000000	-1.000000	-1.000000	-1.000000	-1.000000	-1.000000	-1.000000	51.000000	0.000000	-1.000000	-1.000000	353725.000000	1775803979.828310
-15387.255000	-27910.530000	1321.380000	20778.210000	7041.420000	-10119.015000	-40837.005000	-32943.285000	-1.486102	-0.686856	0.977472	5.979341	7.570009	1.664576	0.787172	-1.749065	-0.213640	3.219860	-0.350980	-0.749571	0.093017	0.639830	-1.000000	-1.000000	-1.000000	-1.000000	-1.000000	-1.000000	-1.000000	51.000000	0.000000	-1.000000	-1.000000	353726.000000	1775803979.836361
-15387.660000	-27910.170000	1324.080000	20776.545000	7037.865000	-10114.245000	-40833.990000	-32944.005000	1.327558	1.947036	3.366055	7.786970	10.878979	4.382753	1.688128	0.428121	-0.213640	3.219860	-0.350980	-0.749571	0.093017	0.639830	-1.000000	-1.000000	-1.000000	-1.000000	-1.000000	-1.000000	-1.000000	51.000000	0.000000	-1.000000	-1.000000	353727.000000	1775803979.836385
-15391.215000	-27916.695000	1319.490000	20764.935000	7025.040000	-10124.190000	-40836.420000	-32946.030000	3.633111	3.497435	4.219783	6.269885	10.206530	6.120418	2.947704	2.809096	0.671440	5.341000	-1.861720	-0.751829	0.094604	0.638365	-1.000000	-1.000000	-1.000000	-1.000000	-1.000000	-1.000000	-1.000000	51.000000	0.000000	-1.000000	-1.000000	353728.000000	1775803979.836415
-15388.560000	-27915.840000	1317.060000	20763.630000	7022.655000	-10126.170000	-40834.845000	-32941.395000	4.001919	2.999959	3.138804	1.698913	4.888502	5.176892	3.599276	3.961464	0.671440	5.341000	-1.861720	-0.751829	0.094604	0.638365	-1.000000	-1.000000	-1.000000	-1.000000	-1.000000	-1.000000	-1.000000	51.000000	0.000000	-1.000000	-1.000000	353729.000000	1775803979.836428
-15381.900000	-27908.145000	1325.520000	20765.115000	7017.030000	-10123.965000	-40831.245000	-32935.185000	2.521678	1.055802	0.887163	-3.435214	-2.697627	1.537832	2.961298	3.527892	0.671440	5.341000	-1.861720	-0.751829	0.094604	0.638365	-1.000000	-1.000000	-1.000000	-1.000000	-1.000000	-1.000000	-1.000000	51.000000	0.000000	-1.000000	-1.000000	353730.000000	1775803979.840142
-15384.195000	-27911.070000	1320.210000	20759.085000	7015.680000	-10125.315000	-40835.610000	-32937.840000	0.577617	-0.609715	-1.000166	-6.189218	-8.482642	-2.517671	1.325410	2.220251	0.671440	5.341000	-1.861720	-0.751829	0.094604	0.638365	-1.000000	-1.000000	-1.000000	-1.000000	-1.000000	-1.000000	-1.000000	51.000000	0.000000	-1.000000	-1.000000	353731.000000	1775803979.840166
-15382.755000	-27908.820000	1323.000000	20781.495000	7039.125000	-10121.040000	-40837.680000	-32938.155000	-0.899708	-1.136697	-1.720564	-5.189443	-9.319371	-4.612420	-0.749807	0.502600	0.671440	5.341000	-1.861720	-0.751829	0.094604	0.638365	-1.000000	-1.000000	-1.000000	-1.000000	-1.000000	-1.000000	-1.000000	51.000000	0.000000	-1.000000	-1.000000	353732.000000	1775803979.841714
-15377.670000	-27898.650000	1333.305000	20792.475000	7045.155000	-10111.140000	-40833.810000	-32933.295000	-1.743910	-0.765308	-1.389203	-0.690216	-4.451649	-3.851703	-2.626470	-1.353330	0.671440	5.341000	-1.861720	-0.751829	0.094604	0.638365	-1.000000	-1.000000	-1.000000	-1.000000	-1.000000	-1.000000	-1.000000	51.000000	0.000000	-1.000000	-1.000000	353733.000000	1775803979.841735
-15380.685000	-27897.885000	1335.195000	20791.170000	7039.755000	-10114.065000	-40841.280000	-32940.720000	-1.921287	0.182440	-0.181907	5.109047	3.126021	-0.969096	-3.535714	-2.779451	0.671440	5.341000	-1.861720	-0.751829	0.094604	0.638365	-1.000000	-1.000000	-1.000000	-1.000000	-1.000000	-1.000000	-1.000000	51.000000	0.000000	-1.000000	-1.000000	353734.000000	1775803979.848088
-15383.790000	-27899.190000	1340.055000	20788.245000	7039.935000	-10113.885000	-40845.105000	-32945.490000	-1.746657	1.031974	1.285031	8.201383	8.002881	1.911052	-3.372833	-3.569239	0.671440	5.341000	-1.861720	-0.751829	0.094604	0.638365	-1.000000	-1.000000	-1.000000	-1.000000	-1.000000	-1.000000	-1.000000	51.000000	0.000000	-1.000000	-1.000000	353735.000000	1775803979.848113
-15378.615000	-27897.750000	1337.040000	20776.680000	7039.530000	-10111.320000	-40839.345000	-32937.120000	-1.621566	0.824691	1.858395	5.831454	7.149938	2.850818	-2.496603	-3.686244	0.671440	5.341000	-1.861720	-0.751829	0.094604	0.638365	-1.000000	-1.000000	-1.000000	-1.000000	-1.000000	-1.000000	-1.000000	51.000000	0.000000	-1.000000	-1.000000	353736.000000	1775803979.849715
-15378.480000	-27905.220000	1321.110000	20764.215000	7036.830000	-10114.785000	-40835.880000	-32933.520000	-1.296521	-0.645620	0.538645	-1.127594	2.032841	1.675282	-0.802266	-2.484169	0.671440	5.341000	-1.861720	-0.751829	0.094604	0.638365	-1.000000	-1.000000	-1.000000	-1.000000	-1.000000	-1.000000	-1.000000	51.000000	0.000000	-1.000000	-1.000000	353737.000000	1775803979.849734
-15378.570000	-27906.120000	1321.560000	20768.805000	7025.310000	-10120.770000	-40838.940000	-32935.140000	-0.458614	-2.690562	-2.668613	-8.696345	-3.915211	-0.626772	1.550640	0.141136	-0.198380	7.675780	-0.564620	-0.750547	0.101562	0.639097	-1.000000	-1.000000	-1.000000	-1.000000	-1.000000	-1.000000	-1.000000	51.000000	0.000000	-1.000000	-1.000000	353738.000000	1775803979.858750
-15378.795000	-27902.880000	1330.650000	20776.815000	7021.890000	-10122.300000	-40842.540000	-32938.245000	0.533871	-4.060866	-5.654408	-11.949477	-8.023700	-2.934445	3.294673	2.689947	-0.198380	7.675780	-0.564620	-0.750547	0.101562	0.639097	-1.000000	-1.000000	-1.000000	-1.000000	-1.000000	-1.000000	-1.000000	51.000000	0.000000	-1.000000	-1.000000	353739.000000	1775803979.858776
-15381.855000	-27904.140000	1328.715000	20775.420000	7013.835000	-10123.740000	-40847.670000	-32942.700000	1.069695	-3.583487	-5.549871	-8.545868	-8.969840	-4.123823	3.141472	3.401435	-0.198380	7.675780	-0.564620	-0.750547	0.101562	0.639097	-1.000000	-1.000000	-1.000000	-1.000000	-1.000000	-1.000000	-1.000000	51.000000	0.000000	-1.000000	-1.000000	353740.000000	1775803979.858804
-15389.190000	-27910.260000	1324.260000	20769.210000	7001.595000	-10127.655000	-40854.960000	-32952.015000	0.756816	-1.432444	-2.143214	-0.998763	-6.833177	-3.519312	1.081554	1.835949	-0.198380	7.675780	-0.564620	-0.750547	0.101562	0.639097	-1.000000	-1.000000	-1.000000	-1.000000	-1.000000	-1.000000	-1.000000	51.000000	0.000000	-1.000000	-1.000000	353741.000000	1775803979.858816
-15386.040000	-27908.280000	1327.635000	20777.220000	7030.620000	-10122.255000	-40854.420000	-32949.270000	-0.249046	0.952970	2.010419	5.808711	-2.361952	-1.363398	-1.596238	-0.887717	-0.198380	7.675780	-0.564620	-0.750547	0.101562	0.639097	-1.000000	-1.000000	-1.000000	-1.000000	-1.000000	-1.000000	-1.000000	51.000000	0.000000	-1.000000	-1.000000	353742.000000	1775803979.861304
-15383.925000	-27908.100000	1324.890000	20774.745000	7033.680000	-10122.210000	-40854.870000	-32948.955000	-0.966638	2.518005	4.588208	8.913495	4.071768	1.540849	-3.103692	-2.726091	-0.198380	7.675780	-0.564620	-0.750547	0.101562	0.639097	-1.000000	-1.000000	-1.000000	-1.000000	-1.000000	-1.000000	-1.000000	51.000000	0.000000	-1.000000	-1.000000	353743.000000	1775803979.861324
-15383.070000	-27908.055000	1323.135000	20770.110000	7034.760000	-10117.800000	-40850.640000	-32947.065000	-0.452281	3.170226	4.863738	8.058282	10.662058	4.160216	-2.354859	-2.245467	-0.198380	7.675780	-0.564620	-0.750547	0.101562	0.639097	-1.000000	-1.000000	-1.000000	-1.000000	-1.000000	-1.000000	-1.000000	51.000000	0.000000	-1.000000	-1.000000	353744.000000	1775803979.866172
-15386.445000	-27910.440000	1321.785000	20768.805000	7028.910000	-10124.415000	-40854.420000	-32949.720000	0.960421	3.033355	3.261035	4.341601	13.441200	5.338420	0.150271	0.087605	-0.198380	7.675780	-0.564620	-0.750547	0.101562	0.639097	-1.000000	-1.000000	-1.000000	-1.000000	-1.000000	-1.000000	-1.000000	51.000000	0.000000	-1.000000	-1.000000	353745.000000	1775803979.866196
-15382.665000	-27909.765000	1323.630000	20770.470000	7011.630000	-10133.190000	-40853.340000	-32945.445000	2.079176	2.175960	0.939186	-0.223464	9.709487	4.152406	2.674491	2.551494	-0.198380	7.675780	-0.564620	-0.750547	0.101562	0.639097	-1.000000	-1.000000	-1.000000	-1.000000	-1.000000	-1.000000	-1.000000	51.000000	0.000000	-1.000000	-1.000000	353746.000000	1775803979.870115
-15379.965000	-27908.370000	1324.620000	20777.085000	7009.245000	-10132.335000	-40849.245000	-32942.205000	2.292309	0.943387	-0.800182	-3.299729	0.764781	0.812256	3.774114	3.855094	-0.198380	7.675780	-0.564620	-0.750547	0.101562	0.639097	-1.000000	-1.000000	-1.000000	-1.000000	-1.000000	-1.000000	-1.000000	51.000000	0.000000	-1.000000	-1.000000	353747.000000	1775803979.870140
-15383.565000	-27912.465000	1314.180000	20763.810000	7013.835000	-10130.355000	-40851.990000	-32947.020000	1.752062	-0.178186	-1.517411	-3.879634	-8.389267	-2.710959	3.262223	3.634171	-3.631880	6.165040	-0.640920	-0.751829	0.103576	0.641539	-1.000000	-1.000000	-1.000000	-1.000000	-1.000000	-1.000000	-1.000000	51.000000	0.000000	-1.000000	-1.000000	353748.000000	1775803979.873207
-15381.765000	-27908.910000	1316.970000	20763.000000	7030.170000	-10123.470000	-40852.665000	-32947.335000	0.651792	-0.955663	-1.761899	-3.072421	-12.074235	-4.002595	1.607528	1.932645	-3.631880	6.165040	-0.640920	-0.751829	0.103576	0.641539	-1.000000	-1.000000	-1.000000	-1.000000	-1.000000	-1.000000	-1.000000	51.000000	0.000000	-1.000000	-1.000000	353749.000000	1775803979.873228
-15380.865000	-27905.760000	1325.520000	20778.210000	7039.305000	-10116.045000	-40851.315000	-32947.290000	-0.672729	-1.189464	-1.630255	-1.984637	-8.127272	-2.232709	-0.527830	-0.636336	-3.631880	6.165040	-0.640920	-0.751829	0.103576	0.641539	-1.000000	-1.000000	-1.000000	-1.000000	-1.000000	-1.000000	-1.000000	51.000000	0.000000	-1.000000	-1.000000	353750.000000	1775803979.877852
-15384.015000	-27908.865000	1322.595000	20773.080000	7031.115000	-10117.260000	-40854.915000	-32951.880000	-1.672699	-0.786669	-0.542485	-0.282092	0.155107	1.216727	-2.304696	-2.897031	-3.631880	6.165040	-0.640920	-0.751829	0.103576	0.641539	-1.000000	-1.000000	-1.000000	-1.000000	-1.000000	-1.000000	-1.000000	51.000000	0.000000	-1.000000	-1.000000	353751.000000	1775803979.877875
-15377.220000	-27900.585000	1331.820000	20782.620000	7040.115000	-10114.020000	-40855.050000	-32949.405000	-1.989083	-0.097022	1.261268	1.935772	6.692050	3.781175	-3.174290	-3.934845	-3.631880	6.165040	-0.640920	-0.751829	0.103576	0.641539	-1.000000	-1.000000	-1.000000	-1.000000	-1.000000	-1.000000	-1.000000	51.000000	0.000000	-1.000000	-1.000000	353752.000000	1775803979.882209
-15375.960000	-27894.195000	1336.185000	20783.385000	7038.720000	-10117.440000	-40855.545000	-32949.495000	-1.427086	0.654236	2.819172	3.520017	7.901283	3.702122	-3.036263	-3.421977	-3.631880	6.165040	-0.640920	-0.751829	0.103576	0.641539	-1.000000	-1.000000	-1.000000	-1.000000	-1.000000	-1.000000	-1.000000	51.000000	0.000000	-1.000000	-1.000000	353753.000000	1775803979.882234
-15382.845000	-27903.240000	1328.535000	20775.285000	7028.280000	-10126.080000	-40860.630000	-32955.885000	-0.329904	1.236123	3.206827	3.403456	4.309948	0.987948	-2.116862	-1.760091	-3.631880	6.165040	-0.640920	-0.751829	0.103576	0.641539	-1.000000	-1.000000	-1.000000	-1.000000	-1.000000	-1.000000	-1.000000	51.000000	0.000000	-1.000000	-1.000000	353754.000000	1775803979.885607
-15385.590000	-27912.645000	1316.835000	20764.080000	7020.990000	-10129.680000	-40860.180000	-32954.220000	0.222424	0.630312	1.470152	0.968016	-1.698543	-3.029541	-0.930797	-0.004887	-3.631880	6.165040	-0.640920	-0.751829	0.103576	0.641539	-1.000000	-1.000000	-1.000000	-1.000000	-1.000000	-1.000000	-1.000000	51.000000	0.000000	-1.000000	-1.000000	353755.000000	1775803979.885635
-15383.745000	-27917.640000	1308.870000	20753.955000	7017.255000	-10128.735000	-40855.680000	-32947.020000	-0.251991	-1.762078	-2.420544	-3.258526	-7.203245	-6.180112	0.245025	1.279495	-3.631880	6.165040	-0.640920	-0.751829	0.103576	0.641539	-1.000000	-1.000000	-1.000000	-1.000000	-1.000000	-1.000000	-1.000000	51.000000	0.000000	-1.000000	-1.000000	353756.000000	1775803979.889998
-15380.775000	-27912.105000	1316.835000	20765.835000	7027.065000	-10119.060000	-40852.845000	-32946.165000	-0.846756	-4.431839	-6.304935	-6.849069	-9.245734	-6.298422	1.564260	2.374493	-3.631880	6.165040	-0.640920	-0.751829	0.103576	0.641539	-1.000000	-1.000000	-1.000000	-1.000000	-1.000000	-1.000000	-1.000000	51.000000	0.000000	-1.000000	-1.000000	353757.000000	1775803979.890023
-15383.430000	-27909.990000	1321.650000	20773.440000	7027.875000	-10114.425000	-40855.635000	-32951.970000	-0.567110	-4.813336	-6.947452	-6.616519	-6.351250	-2.745926	2.798455	3.090650	-9.552760	4.852680	0.549360	-0.747618	0.104187	0.642454	-1.000000	-1.000000	-1.000000	-1.000000	-1.000000	-1.000000	-1.000000	51.000000	0.000000	-1.000000	-1.000000	353758.000000	1775803979.893288
-15383.700000	-27910.620000	1318.545000	20763.810000	7025.670000	-10114.425000	-40858.155000	-32953.005000	0.399866	-2.064976	-3.297611	-1.973303	-0.128122	2.614946	3.052473	2.528646	-9.552760	4.852680	0.549360	-0.747618	0.104187	0.642454	-1.000000	-1.000000	-1.000000	-1.000000	-1.000000	-1.000000	-1.000000	51.000000	0.000000	-1.000000	-1.000000	353759.000000	1775803979.893309
-15379.290000	-27907.155000	1321.785000	20770.110000	7030.620000	-10111.005000	-40854.105000	-32947.515000	1.283041	2.089097	2.206912	3.799145	5.695987	6.550582	1.885588	0.686621	-9.552760	4.852680	0.549360	-0.747618	0.104187	0.642454	-1.000000	-1.000000	-1.000000	-1.000000	-1.000000	-1.000000	-1.000000	51.000000	0.000000	-1.000000	-1.000000	353760.000000	1775803979.898864
-15382.755000	-27912.015000	1317.555000	20765.835000	7022.880000	-10118.340000	-40859.505000	-32951.745000	1.690334	5.120271	6.114037	7.021979	8.211250	6.874346	-0.007085	-1.166455	-9.552760	4.852680	0.549360	-0.747618	0.104187	0.642454	-1.000000	-1.000000	-1.000000	-1.000000	-1.000000	-1.000000	-1.000000	51.000000	0.000000	-1.000000	-1.000000	353761.000000	1775803979.898891
-15382.125000	-27911.700000	1316.250000	20757.825000	7017.075000	-10123.605000	-40860.720000	-32952.555000	1.468503	5.482851	6.583481	6.395645	6.634616	3.545163	-1.701302	-2.103951	-9.552760	4.852680	0.549360	-0.747618	0.104187	0.642454	-1.000000	-1.000000	-1.000000	-1.000000	-1.000000	-1.000000	-1.000000	51.000000	0.000000	-1.000000	-1.000000	353762.000000	1775803979.901359
-15380.370000	-27911.520000	1316.160000	20764.620000	7008.435000	-10127.970000	-40859.505000	-32950.080000	0.678453	3.373236	4.023062	2.873777	2.053513	-1.624520	-2.645296	-2.122083	-9.552760	4.852680	0.549360	-0.747618	0.104187	0.642454	-1.000000	-1.000000	-1.000000	-1.000000	-1.000000	-1.000000	-1.000000	51.000000	0.000000	-1.000000	-1.000000	353763.000000	1775803979.901381
-15375.105000	-27905.040000	1322.370000	20777.715000	7014.780000	-10124.955000	-40854.510000	-32942.295000	-0.107206	0.480149	0.497387	-0.770514	-2.911010	-5.782296	-2.379975	-1.270217	-9.552760	4.852680	0.549360	-0.747618	0.104187	0.642454	-1.000000	-1.000000	-1.000000	-1.000000	-1.000000	-1.000000	-1.000000	51.000000	0.000000	-1.000000	-1.000000	353764.000000	1775803979.906016
-15374.880000	-27902.025000	1331.280000	20792.700000	7031.880000	-10121.805000	-40860.675000	-32947.155000	-0.310066	-1.354321	-1.669836	-1.657470	-5.007728	-6.570353	-0.956067	0.266488	-9.552760	4.852680	0.549360	-0.747618	0.104187	0.642454	-1.000000	-1.000000	-1.000000	-1.000000	-1.000000	-1.000000	-1.000000	51.000000	0.000000	-1.000000	-1.000000	353765.000000	1775803979.906042
-15378.030000	-27907.830000	1316.970000	20773.080000	7031.880000	-10119.240000	-40865.715000	-32952.420000	-0.135706	-1.670286	-1.816617	0.064930	-2.658549	-3.682221	0.505012	1.413228	-9.552760	4.852680	0.549360	-0.747618	0.104187	0.642454	-1.000000	-1.000000	-1.000000	-1.000000	-1.000000	-1.000000	-1.000000	51.000000	0.000000	-1.000000	-1.000000	353766.000000	1775803979.910094
-15378.390000	-27906.795000	1315.260000	20770.830000	7033.860000	-10115.730000	-40864.950000	-32952.195000	-0.312425	-1.476845	-1.522390	0.974320	2.029784	0.994325	0.865121	1.065906	-9.552760	4.852680	0.549360	-0.747618	0.104187	0.642454	-1.000000	-1.000000	-1.000000	-1.000000	-1.000000	-1.000000	-1.000000	51.000000	0.000000	-1.000000	-1.000000	353767.000000	1775803979.910120
-15376.725000	-27901.305000	1329.840000	20773.935000	7031.205000	-10113.165000	-40862.925000	-32951.160000	-0.995076	-1.510671	-1.895052	-1.086970	5.028306	4.856057	0.385938	-0.364420	-12.848920	4.944240	0.335720	-0.745604	0.104736	0.638975	-1.000000	-1.000000	-1.000000	-1.000000	-1.000000	-1.000000	-1.000000	51.000000	0.000000	-1.000000	-1.000000	353768.000000	1775803979.914099
-15376.545000	-27898.920000	1334.295000	20775.330000	7024.095000	-10121.535000	-40867.695000	-32954.220000	-1.538233	-1.344539	-1.714582	-4.198256	4.025954	6.010470	0.062231	-1.489997	-12.848920	4.944240	0.335720	-0.745604	0.104736	0.638975	-1.000000	-1.000000	-1.000000	-1.000000	-1.000000	-1.000000	-1.000000	51.000000	0.000000	-1.000000	-1.000000	353769.000000	1775803979.914124
-15370.290000	-27898.380000	1329.660000	20777.580000	7029.360000	-10116.945000	-40860.855000	-32946.480000	-1.285153	-0.590879	-0.142526	-5.335581	-0.119906	4.019929	0.292773	-1.433405	-12.848920	4.944240	0.335720	-0.745604	0.104736	0.638975	-1.000000	-1.000000	-1.000000	-1.000000	-1.000000	-1.000000	-1.000000	51.000000	0.000000	-1.000000	-1.000000	353770.000000	1775803979.918030
-15372.720000	-27904.005000	1322.190000	20775.150000	7025.535000	-10115.190000	-40859.145000	-32947.740000	-0.204217	0.178453	1.250437	-3.681396	-4.408400	0.382870	1.000352	-0.178638	-12.848920	4.944240	0.335720	-0.745604	0.104736	0.638975	-1.000000	-1.000000	-1.000000	-1.000000	-1.000000	-1.000000	-1.000000	51.000000	0.000000	-1.000000	-1.000000	353771.000000	1775803979.918056
-15375.060000	-27905.490000	1320.795000	20775.780000	7028.415000	-10115.415000	-40861.305000	-32949.945000	0.909393	0.106682	0.709640	-0.623827	-6.204797	-2.546518	1.796634	1.415767	-12.848920	4.944240	0.335720	-0.745604	0.104736	0.638975	-1.000000	-1.000000	-1.000000	-1.000000	-1.000000	-1.000000	-1.000000	51.000000	0.000000	-1.000000	-1.000000	353772.000000	1775803979.925354
-15374.340000	-27906.165000	1318.545000	20767.140000	7023.105000	-10116.765000	-40861.845000	-32948.190000	1.124022	-0.789216	-1.333851	1.846524	-5.025443	-3.595908	1.876526	2.123524	-12.848920	4.944240	0.335720	-0.745604	0.104736	0.638975	-1.000000	-1.000000	-1.000000	-1.000000	-1.000000	-1.000000	-1.000000	51.000000	0.000000	-1.000000	-1.000000	353773.000000	1775803979.925380
-15372.495000	-27907.650000	1315.935000	20751.885000	7007.265000	-10127.160000	-40863.645000	-32945.490000	0.471522	-1.579086	-3.003786	2.259408	-2.462861	-3.285793	0.810947	1.622296	-12.848920	4.944240	0.335720	-0.745604	0.104736	0.638975	-1.000000	-1.000000	-1.000000	-1.000000	-1.000000	-1.000000	-1.000000	51.000000	0.000000	-1.000000	-1.000000	353774.000000	1775803979.926022
-15374.520000	-27905.805000	1322.595000	20780.280000	7024.860000	-10116.945000	-40863.375000	-32949.000000	-0.273608	-1.433170	-2.859994	1.004213	-0.290316	-2.533764	-0.879992	0.533954	-12.848920	4.944240	0.335720	-0.745604	0.104736	0.638975	-1.000000	-1.000000	-1.000000	-1.000000	-1.000000	-1.000000	-1.000000	51.000000	0.000000	-1.000000	-1.000000	353775.000000	1775803979.926042
-15377.715000	-27909.720000	1317.780000	20776.365000	7030.755000	-10111.815000	-40862.835000	-32951.565000	-0.686525	-0.327411	-0.778252	0.674442	1.748827	-1.207742	-2.192319	-0.646004	-12.848920	4.944240	0.335720	-0.745604	0.104736	0.638975	-1.000000	-1.000000	-1.000000	-1.000000	-1.000000	-1.000000	-1.000000	51.000000	0.000000	-1.000000	-1.000000	353776.000000	1775803979.932690
-15376.995000	-27907.650000	1320.210000	20769.570000	7028.235000	-10115.505000	-40865.220000	-32952.915000	-0.845673	1.056061	1.982356	2.316242	4.368276	0.990796	-2.457454	-1.712147	-12.848920	4.944240	0.335720	-0.745604	0.104736	0.638975	-1.000000	-1.000000	-1.000000	-1.000000	-1.000000	-1.000000	-1.000000	51.000000	0.000000	-1.000000	-1.000000	353777.000000	1775803979.932716
-15381.180000	-27913.320000	1315.035000	20769.120000	7020.630000	-10122.210000	-40867.920000	-32956.740000	-0.808454	1.930164	3.714929	3.592629	6.076957	2.828805	-1.826889	-2.348657	-7.965720	4.440660	-0.732480	-0.747252	0.099548	0.638609	-1.000000	-1.000000	-1.000000	-1.000000	-1.000000	-1.000000	-1.000000	51.000000	0.000000	-1.000000	-1.000000	353778.000000	1775803979.933338
-15380.010000	-27912.825000	1314.945000	20773.845000	7016.445000	-10126.080000	-40867.830000	-32955.750000	-0.544610	1.890668	3.553442	2.693182	4.818900	2.665241	-0.894594	-2.234200	-7.965720	4.440660	-0.732480	-0.747252	0.099548	0.638609	-1.000000	-1.000000	-1.000000	-1.000000	-1.000000	-1.000000	-1.000000	51.000000	0.000000	-1.000000	-1.000000	353779.000000	1775803979.933360
-15374.205000	-27908.370000	1319.265000	20776.230000	7016.580000	-10124.370000	-40863.015000	-32948.955000	0.082719	1.234384	1.990843	0.549175	0.909863	0.654405	0.086869	-1.131126	-7.965720	4.440660	-0.732480	-0.747252	0.099548	0.638609	-1.000000	-1.000000	-1.000000	-1.000000	-1.000000	-1.000000	-1.000000	51.000000	0.000000	-1.000000	-1.000000	353780.000000	1775803979.944865
-15374.070000	-27908.415000	1316.250000	20755.935000	7011.405000	-10126.125000	-40864.770000	-32949.180000	1.205032	0.751799	0.312268	-1.534413	-3.183072	-1.394210	1.177186	0.899757	-7.965720	4.440660	-0.732480	-0.747252	0.099548	0.638609	-1.000000	-1.000000	-1.000000	-1.000000	-1.000000	-1.000000	-1.000000	51.000000	0.000000	-1.000000	-1.000000	353781.000000	1775803979.944892
-15378.705000	-27911.205000	1313.145000	20759.400000	7025.760000	-10123.245000	-40868.730000	-32955.480000	2.253980	0.677754	-0.774001	-3.483899	-4.972655	-1.935199	1.985223	2.827313	-7.965720	4.440660	-0.732480	-0.747252	0.099548	0.638609	-1.000000	-1.000000	-1.000000	-1.000000	-1.000000	-1.000000	-1.000000	51.000000	0.000000	-1.000000	-1.000000	353782.000000	1775803979.944967
-15375.060000	-27907.605000	1317.195000	20746.890000	7020.945000	-10114.245000	-40864.140000	-32952.600000	2.253524	0.533163	-1.347379	-5.013529	-3.489919	-0.658966	1.906644	3.212473	-7.965720	4.440660	-0.732480	-0.747252	0.099548	0.638609	-1.000000	-1.000000	-1.000000	-1.000000	-1.000000	-1.000000	-1.000000	51.000000	0.000000	-1.000000	-1.000000	353783.000000	1775803979.944986
-15373.305000	-27906.480000	1316.520000	20723.085000	6995.385000	-10115.190000	-40863.510000	-32952.195000	1.171732	0.131143	-1.386859	-5.535258	-0.555654	1.692921	1.137725	1.915152	-7.965720	4.440660	-0.732480	-0.747252	0.099548	0.638609	-1.000000	-1.000000	-1.000000	-1.000000	-1.000000	-1.000000	-1.000000	51.000000	0.000000	-1.000000	-1.000000	353784.000000	1775803979.945508
-15376.950000	-27909.990000	1314.225000	20748.105000	7003.395000	-10122.795000	-40869.855000	-32956.785000	-0.174561	-0.342989	-0.915852	-4.684559	0.623732	3.384559	0.249052	0.032050	-7.965720	4.440660	-0.732480	-0.747252	0.099548	0.638609	-1.000000	-1.000000	-1.000000	-1.000000	-1.000000	-1.000000	-1.000000	51.000000	0.000000	-1.000000	-1.000000	353785.000000	1775803979.945525
-15382.620000	-27916.110000	1311.840000	20792.160000	7040.790000	-10127.160000	-40872.780000	-32960.565000	-1.374299	-1.000550	-0.426348	-0.473896	0.423129	2.672751	-0.744341	-1.590463	-7.965720	4.440660	-0.732480	-0.747252	0.099548	0.638609	-1.000000	-1.000000	-1.000000	-1.000000	-1.000000	-1.000000	-1.000000	51.000000	0.000000	-1.000000	-1.000000	353786.000000	1775803979.950006
-15375.285000	-27908.415000	1317.510000	20779.920000	7022.250000	-10131.525000	-40871.610000	-32956.605000	-2.277122	-1.807952	-0.215840	8.029012	2.022404	-0.349688	-1.780790	-2.523490	-7.965720	4.440660	-0.732480	-0.747252	0.099548	0.638609	-1.000000	-1.000000	-1.000000	-1.000000	-1.000000	-1.000000	-1.000000	51.000000	0.000000	-1.000000	-1.000000	353787.000000	1775803979.950036
-15373.440000	-27909.270000	1317.240000	20770.695000	7018.425000	-10130.985000	-40869.945000	-32955.705000	-2.217296	-1.972076	0.053559	15.373897	4.690589	-3.617044	-2.143781	-2.260049	-0.091560	2.777320	-2.075360	-0.751158	0.095276	0.638670	-1.000000	-1.000000	-1.000000	-1.000000	-1.000000	-1.000000	-1.000000	51.000000	0.000000	-1.000000	-1.000000	353788.000000	1775803979.953333
-15373.755000	-27910.845000	1311.255000	20759.040000	7023.555000	-10123.380000	-40865.580000	-32955.345000	-0.860820	-1.024829	0.471199	14.127882	4.697990	-4.738290	-1.215722	-0.767796	-0.091560	2.777320	-2.075360	-0.751158	0.095276	0.638670	-1.000000	-1.000000	-1.000000	-1.000000	-1.000000	-1.000000	-1.000000	51.000000	0.000000	-1.000000	-1.000000	353789.000000	1775803979.953361
-15370.200000	-27903.465000	1323.270000	20773.755000	7033.185000	-10118.925000	-40865.040000	-32955.660000	0.954600	0.450235	0.674888	4.066571	1.677889	-2.683928	0.692364	1.059773	-0.091560	2.777320	-2.075360	-0.751158	0.095276	0.638670	-1.000000	-1.000000	-1.000000	-1.000000	-1.000000	-1.000000	-1.000000	51.000000	0.000000	-1.000000	-1.000000	353790.000000	1775803979.957206
-15374.880000	-27910.755000	1317.285000	20771.415000	7029.360000	-10119.555000	-40867.830000	-32958.315000	2.034851	1.624896	0.726390	-7.583283	-1.631837	1.300215	2.373701	2.084790	-0.091560	2.777320	-2.075360	-0.751158	0.095276	0.638670	-1.000000	-1.000000	-1.000000	-1.000000	-1.000000	-1.000000	-1.000000	51.000000	0.000000	-1.000000	-1.000000	353791.000000	1775803979.957229
-15376.770000	-27913.995000	1313.460000	20766.330000	7029.495000	-10111.320000	-40862.925000	-32957.280000	1.695236	1.738041	0.595258	-13.925396	-3.520934	4.630100	2.706356	1.812850	-0.091560	2.777320	-2.075360	-0.751158	0.095276	0.638670	-1.000000	-1.000000	-1.000000	-1.000000	-1.000000	-1.000000	-1.000000	51.000000	0.000000	-1.000000	-1.000000	353792.000000	1775803979.962794
-15380.280000	-27916.335000	1310.175000	20761.560000	7027.110000	-10113.345000	-40863.105000	-32961.150000	0.101212	0.491868	-0.222686	-13.561634	-4.115967	5.530153	1.714952	0.619261	-0.091560	2.777320	-2.075360	-0.751158	0.095276	0.638670	-1.000000	-1.000000	-1.000000	-1.000000	-1.000000	-1.000000	-1.000000	51.000000	0.000000	-1.000000	-1.000000	353793.000000	1775803979.962811
-15379.470000	-27911.520000	1317.420000	20770.065000	7030.620000	-10110.420000	-40856.265000	-32962.590000	-1.712967	-1.167493	-1.411512	-8.757151	-3.836422	3.834741	0.333258	-0.757191	-0.091560	2.777320	-2.075360	-0.751158	0.095276	0.638670	-1.000000	-1.000000	-1.000000	-1.000000	-1.000000	-1.000000	-1.000000	51.000000	0.000000	-1.000000	-1.000000	353794.000000	1775803979.976272
-15377.265000	-27907.425000	1319.085000	20771.820000	7028.460000	-10111.410000	-40852.800000	-32959.890000	-2.478486	-1.681394	-1.701203	-2.074511	-2.766077	0.543642	-0.532087	-1.624556	-0.091560	2.777320	-2.075360	-0.751158	0.095276	0.638670	-1.000000	-1.000000	-1.000000	-1.000000	-1.000000	-1.000000	-1.000000	51.000000	0.000000	-1.000000	-1.000000	353795.000000	1775803979.976300
-15363.180000	-27897.480000	1325.655000	20772.495000	7026.840000	-10116.855000	-40860.405000	-32946.570000	-1.376932	-0.324728	-0.447986	4.196524	-1.178110	-2.894387	-0.809318	-1.237376	-0.091560	2.777320	-2.075360	-0.751158	0.095276	0.638670	-1.000000	-1.000000	-1.000000	-1.000000	-1.000000	-1.000000	-1.000000	51.000000	0.000000	-1.000000	-1.000000	353796.000000	1775803979.976327
-15356.790000	-27893.520000	1331.145000	20776.680000	7028.370000	-10119.105000	-40864.860000	-32942.340000	1.486826	2.186929	1.662232	7.986038	0.353754	-5.355126	-1.369440	0.741733	-0.091560	2.777320	-2.075360	-0.751158	0.095276	0.638670	-1.000000	-1.000000	-1.000000	-1.000000	-1.000000	-1.000000	-1.000000	51.000000	0.000000	-1.000000	-1.000000	353797.000000	1775803979.976339
-15366.555000	-27905.535000	1318.635000	20764.035000	7014.420000	-10121.940000	-40861.935000	-32949.450000	4.372428	3.872980	3.051987	8.163051	1.238705	-6.157690	-2.573766	3.058518	2.762060	2.563680	-1.220800	-0.752317	0.101806	0.635802	-1.000000	-1.000000	-1.000000	-1.000000	-1.000000	-1.000000	-1.000000	51.000000	0.000000	-1.000000	-1.000000	353798.000000	1775803979.976354
-15365.790000	-27900.540000	1321.200000	20767.815000	7021.845000	-10113.705000	-40855.455000	-32945.535000	4.637146	2.843189	2.212701	4.977052	1.150994	-4.859717	-3.235729	3.470664	2.762060	2.563680	-1.220800	-0.752317	0.101806	0.635802	-1.000000	-1.000000	-1.000000	-1.000000	-1.000000	-1.000000	-1.000000	51.000000	0.000000	-1.000000	-1.000000	353799.000000	1775803979.976364
-15370.065000	-27902.970000	1323.630000	20775.510000	7034.895000	-10108.530000	-40858.335000	-32951.520000	1.526193	-0.505955	-0.514687	0.497720	0.966843	-1.465720	-2.132113	1.247729	2.762060	2.563680	-1.220800	-0.752317	0.101806	0.635802	-1.000000	-1.000000	-1.000000	-1.000000	-1.000000	-1.000000	-1.000000	51.000000	0.000000	-1.000000	-1.000000	353800.000000	1775803979.990753
-15374.565000	-27910.620000	1310.895000	20762.325000	7027.335000	-10108.665000	-40858.965000	-32954.130000	-2.990551	-3.931604	-3.170652	-2.630852	1.935274	2.886640	0.174485	-2.260939	2.762060	2.563680	-1.220800	-0.752317	0.101806	0.635802	-1.000000	-1.000000	-1.000000	-1.000000	-1.000000	-1.000000	-1.000000	51.000000	0.000000	-1.000000	-1.000000	353801.000000	1775803979.990782
-15369.615000	-27907.380000	1314.000000	20763.720000	7027.335000	-10106.505000	-40857.975000	-32952.555000	-6.151569	-5.674524	-4.465747	-3.719000	3.270950	6.011637	2.060656	-5.034113	2.762060	2.563680	-1.220800	-0.752317	0.101806	0.635802	-1.000000	-1.000000	-1.000000	-1.000000	-1.000000	-1.000000	-1.000000	51.000000	0.000000	-1.000000	-1.000000	353802.000000	1775803979.990895
-15355.350000	-27894.195000	1330.245000	20781.585000	7040.340000	-10099.845000	-40848.705000	-32940.225000	-5.883781	-4.773747	-3.719687	-3.143508	3.376258	6.418544	2.801466	-5.282360	2.762060	2.563680	-1.220800	-0.752317	0.101806	0.635802	-1.000000	-1.000000	-1.000000	-1.000000	-1.000000	-1.000000	-1.000000	51.000000	0.000000	-1.000000	-1.000000	353803.000000	1775803979.990913
-15338.925000	-27875.925000	1349.775000	20800.440000	7054.290000	-10089.720000	-40833.675000	-32925.330000	-1.662855	-0.809440	-0.135525	-0.421227	2.604437	4.613603	3.091148	-2.183738	2.762060	2.563680	-1.220800	-0.752317	0.101806	0.635802	-1.000000	-1.000000	-1.000000	-1.000000	-1.000000	-1.000000	-1.000000	51.000000	0.000000	-1.000000	-1.000000	353804.000000	1775803979.990937
-15373.170000	-27905.940000	1321.605000	20771.145000	7022.160000	-10124.820000	-40868.460000	-32965.200000	3.865084	4.311608	4.833520	3.456693	1.511610	1.475489	2.994471	2.266212	2.762060	2.563680	-1.220800	-0.752317	0.101806	0.635802	-1.000000	-1.000000	-1.000000	-1.000000	-1.000000	-1.000000	-1.000000	51.000000	0.000000	-1.000000	-1.000000	353805.000000	1775803979.990956
-15366.105000	-27895.995000	1332.405000	20778.390000	7026.300000	-10122.075000	-40868.775000	-32962.995000	5.804113	6.381465	6.932498	4.724951	-1.177688	-3.169474	0.717814	3.624188	2.762060	2.563680	-1.220800	-0.752317	0.101806	0.635802	-1.000000	-1.000000	-1.000000	-1.000000	-1.000000	-1.000000	-1.000000	51.000000	0.000000	-1.000000	-1.000000	353806.000000	1775803979.991585
-15363.630000	-27892.530000	1335.780000	20781.810000	7028.460000	-10117.620000	-40866.525000	-32961.555000	2.687354	3.847227	4.279627	1.750933	-5.261747	-7.873790	-3.744153	0.589066	2.762060	2.563680	-1.220800	-0.752317	0.101806	0.635802	-1.000000	-1.000000	-1.000000	-1.000000	-1.000000	-1.000000	-1.000000	51.000000	0.000000	-1.000000	-1.000000	353807.000000	1775803979.991604
-15365.430000	-27902.070000	1321.560000	20765.745000	7019.010000	-10117.395000	-40863.105000	-32957.280000	-1.799552	-0.482776	-0.617394	-2.805575	-7.741243	-9.016555	-6.762484	-2.872409	0.778260	3.906560	1.037680	-0.755369	0.113220	0.631651	-1.000000	-1.000000	-1.000000	-1.000000	-1.000000	-1.000000	-1.000000	51.000000	0.000000	-1.000000	-1.000000	353808.000000	1775803979.995522
-15366.645000	-27908.730000	1313.370000	20760.390000	7016.760000	-10113.390000	-40857.345000	-32952.420000	-4.014727	-3.864537	-5.060597	-6.203141	-6.831598	-5.155246	-5.369803	-2.882801	0.778260	3.906560	1.037680	-0.755369	0.113220	0.631651	-1.000000	-1.000000	-1.000000	-1.000000	-1.000000	-1.000000	-1.000000	51.000000	0.000000	-1.000000	-1.000000	353809.000000	1775803979.995549
-15363.945000	-27902.880000	1319.310000	20770.515000	7022.880000	-10104.345000	-40851.360000	-32950.530000	-3.300841	-5.315548	-7.573387	-7.098004	-3.233394	1.511852	-0.268203	0.550433	0.778260	3.906560	1.037680	-0.755369	0.113220	0.631651	-1.000000	-1.000000	-1.000000	-1.000000	-1.000000	-1.000000	-1.000000	51.000000	0.000000	-1.000000	-1.000000	353810.000000	1775803980.000535
-15362.685000	-27904.815000	1311.480000	20758.410000	7014.105000	-10103.490000	-40843.665000	-32943.870000	-0.782620	-4.315871	-6.918622	-4.761479	1.459891	7.523506	5.470124	4.713517	0.778260	3.906560	1.037680	-0.755369	0.113220	0.631651	-1.000000	-1.000000	-1.000000	-1.000000	-1.000000	-1.000000	-1.000000	51.000000	0.000000	-1.000000	-1.000000	353811.000000	1775803980.000570
-15359.805000	-27903.060000	1307.880000	20757.060000	7013.610000	-10105.830000	-40839.525000	-32938.470000	1.975172	-1.228248	-3.358388	-0.374398	5.196896	9.995122	8.806461	6.962439	0.778260	3.906560	1.037680	-0.755369	0.113220	0.631651	-1.000000	-1.000000	-1.000000	-1.000000	-1.000000	-1.000000	-1.000000	51.000000	0.000000	-1.000000	-1.000000	353812.000000	1775803980.001199
-15361.155000	-27903.150000	1317.195000	20770.920000	7025.445000	-10112.490000	-40849.110000	-32946.705000	3.648480	2.336616	1.271544	3.822944	6.677046	7.706035	8.043900	6.103768	0.778260	3.906560	1.037680	-0.755369	0.113220	0.631651	-1.000000	-1.000000	-1.000000	-1.000000	-1.000000	-1.000000	-1.000000	51.000000	0.000000	-1.000000	-1.000000	353813.000000	1775803980.001221
-15361.785000	-27899.865000	1326.195000	20770.020000	7035.075000	-10113.075000	-40855.005000	-32952.690000	3.542726	4.707396	5.551268	6.814037	6.574922	1.885672	3.155832	2.159746	0.778260	3.906560	1.037680	-0.755369	0.113220	0.631651	-1.000000	-1.000000	-1.000000	-1.000000	-1.000000	-1.000000	-1.000000	51.000000	0.000000	-1.000000	-1.000000	353814.000000	1775803980.006206
-15366.825000	-27906.615000	1315.845000	20755.305000	7022.205000	-10117.890000	-40859.190000	-32957.505000	1.769104	5.022313	8.384110	7.766471	5.667352	-4.352964	-3.794087	-3.467404	0.778260	3.906560	1.037680	-0.755369	0.113220	0.631651	-1.000000	-1.000000	-1.000000	-1.000000	-1.000000	-1.000000	-1.000000	51.000000	0.000000	-1.000000	-1.000000	353815.000000	1775803980.006234
-15367.545000	-27911.430000	1305.270000	20737.845000	7021.125000	-10110.735000	-40853.925000	-32953.320000	-0.820957	3.166097	7.961879	5.143049	3.175862	-7.876890	-9.133296	-7.966055	0.778260	3.906560	1.037680	-0.755369	0.113220	0.631651	-1.000000	-1.000000	-1.000000	-1.000000	-1.000000	-1.000000	-1.000000	51.000000	0.000000	-1.000000	-1.000000	353816.000000	1775803980.010234
-15372.630000	-27913.095000	1306.620000	20757.195000	7026.570000	-10108.260000	-40857.840000	-32960.700000	-3.013902	-0.082107	3.622082	-0.411333	-1.022029	-7.164056	-9.933738	-8.863845	0.778260	3.906560	1.037680	-0.755369	0.113220	0.631651	-1.000000	-1.000000	-1.000000	-1.000000	-1.000000	-1.000000	-1.000000	51.000000	0.000000	-1.000000	-1.000000	353817.000000	1775803980.010264
-15368.850000	-27906.570000	1319.625000	20781.045000	7027.650000	-10103.220000	-40856.355000	-32958.990000	-3.792503	-2.881147	-1.944738	-4.336666	-4.809638	-3.003831	-6.220407	-6.021049	-4.425400	3.097780	0.457800	-0.750303	0.115661	0.633726	-1.000000	-1.000000	-1.000000	-1.000000	-1.000000	-1.000000	-1.000000	51.000000	0.000000	-1.000000	-1.000000	353818.000000	1775803980.018457
-15367.230000	-27906.390000	1318.050000	20773.080000	7027.245000	-10108.620000	-40856.670000	-32956.830000	-2.709295	-3.448087	-4.817431	-2.930473	-6.130822	1.914591	-0.514945	-1.226648	-4.425400	3.097780	0.457800	-0.750303	0.115661	0.633726	-1.000000	-1.000000	-1.000000	-1.000000	-1.000000	-1.000000	-1.000000	51.000000	0.000000	-1.000000	-1.000000	353819.000000	1775803980.018486
-15367.185000	-27904.275000	1321.785000	20777.760000	7025.580000	-10117.890000	-40858.965000	-32957.865000	-0.221825	-1.700894	-3.900023	1.579974	-4.994198	4.537453	4.295333	3.431687	-4.425400	3.097780	0.457800	-0.750303	0.115661	0.633726	-1.000000	-1.000000	-1.000000	-1.000000	-1.000000	-1.000000	-1.000000	51.000000	0.000000	-1.000000	-1.000000	353820.000000	1775803980.018517
-15368.940000	-27906.255000	1318.860000	20779.470000	7022.745000	-10119.780000	-40860.585000	-32960.340000	2.274090	0.747112	-1.265382	4.235671	-2.787390	3.492461	6.406835	6.229756	-4.425400	3.097780	0.457800	-0.750303	0.115661	0.633726	-1.000000	-1.000000	-1.000000	-1.000000	-1.000000	-1.000000	-1.000000	51.000000	0.000000	-1.000000	-1.000000	353821.000000	1775803980.018531
-15370.470000	-27908.505000	1314.450000	20778.390000	7018.920000	-10122.615000	-40864.590000	-32963.580000	3.359554	2.095459	0.495745	2.955117	-0.875106	0.177280	5.576764	6.239522	-4.425400	3.097780	0.457800	-0.750303	0.115661	0.633726	-1.000000	-1.000000	-1.000000	-1.000000	-1.000000	-1.000000	-1.000000	51.000000	0.000000	-1.000000	-1.000000	353822.000000	1775803980.031084
-15362.280000	-27896.130000	1328.895000	20782.935000	7024.545000	-10118.745000	-40864.680000	-32960.970000	2.803608	1.874795	0.521775	-0.896146	0.295094	-2.545600	2.893677	3.935110	-4.425400	3.097780	0.457800	-0.750303	0.115661	0.633726	-1.000000	-1.000000	-1.000000	-1.000000	-1.000000	-1.000000	-1.000000	51.000000	0.000000	-1.000000	-1.000000	353823.000000	1775803980.031110
-15358.770000	-27892.890000	1329.120000	20776.995000	7024.905000	-10118.070000	-40863.420000	-32958.495000	1.666994	1.177607	0.020653	-4.714849	1.209493	-2.730191	0.067293	0.995640	-4.425400	3.097780	0.457800	-0.750303	0.115661	0.633726	-1.000000	-1.000000	-1.000000	-1.000000	-1.000000	-1.000000	-1.000000	51.000000	0.000000	-1.000000	-1.000000	353824.000000	1775803980.031141
-15357.735000	-27891.720000	1328.310000	20775.645000	7023.600000	-10115.145000	-40858.920000	-32954.175000	0.902223	0.919130	0.071620	-6.706790	2.191495	-0.532328	-1.436174	-0.904224	-4.425400	3.097780	0.457800	-0.750303	0.115661	0.633726	-1.000000	-1.000000	-1.000000	-1.000000	-1.000000	-1.000000	-1.000000	51.000000	0.000000	-1.000000	-1.000000	353825.000000	1775803980.031154
-15367.140000	-27904.680000	1316.655000	20765.250000	7018.965000	-10112.310000	-40859.685000	-32960.565000	0.180266	0.421772	-0.015525	-6.608387	2.675217	2.371174	-1.218857	-1.378016	-4.425400	3.097780	0.457800	-0.750303	0.115661	0.633726	-1.000000	-1.000000	-1.000000	-1.000000	-1.000000	-1.000000	-1.000000	51.000000	0.000000	-1.000000	-1.000000	353826.000000	1775803980.031170
-15369.390000	-27908.415000	1314.855000	20767.365000	7016.535000	-10111.095000	-40858.065000	-32961.465000	-1.359352	-1.453961	-1.275115	-4.962461	1.992255	4.211317	-0.114946	-1.362700	-4.425400	3.097780	0.457800	-0.750303	0.115661	0.633726	-1.000000	-1.000000	-1.000000	-1.000000	-1.000000	-1.000000	-1.000000	51.000000	0.000000	-1.000000	-1.000000	353827.000000	1775803980.031181
-15371.190000	-27915.480000	1303.380000	20760.480000	7019.415000	-10110.015000	-40852.215000	-32958.450000	-3.463874	-4.309779	-3.327965	-2.296277	0.452353	4.080389	0.782174	-1.624550	-6.561800	0.930860	0.213640	-0.748411	0.108154	0.638121	-1.000000	-1.000000	-1.000000	-1.000000	-1.000000	-1.000000	-1.000000	51.000000	0.000000	-1.000000	-1.000000	353828.000000	1775803980.033583
-15370.020000	-27913.545000	1302.165000	20758.455000	7023.105000	-10112.940000	-40854.150000	-32958.990000	-4.644370	-6.144214	-4.711766	0.791192	-0.719591	2.105285	1.008506	-1.827535	-6.561800	0.930860	0.213640	-0.748411	0.108154	0.638121	-1.000000	-1.000000	-1.000000	-1.000000	-1.000000	-1.000000	-1.000000	51.000000	0.000000	-1.000000	-1.000000	353829.000000	1775803980.033610
-15360.300000	-27899.820000	1318.365000	20772.810000	7029.315000	-10117.080000	-40857.525000	-32955.165000	-3.572002	-4.927997	-3.796031	3.752119	-0.536514	-0.886214	0.408289	-1.396065	-6.561800	0.930860	0.213640	-0.748411	0.108154	0.638121	-1.000000	-1.000000	-1.000000	-1.000000	-1.000000	-1.000000	-1.000000	51.000000	0.000000	-1.000000	-1.000000	353830.000000	1775803980.036995
-15361.740000	-27900.540000	1320.390000	20765.160000	7018.470000	-10115.550000	-40859.460000	-32958.180000	-0.307505	-0.329091	0.240751	6.305356	0.579075	-3.684852	-1.029932	-0.403163	-6.561800	0.930860	0.213640	-0.748411	0.108154	0.638121	-1.000000	-1.000000	-1.000000	-1.000000	-1.000000	-1.000000	-1.000000	51.000000	0.000000	-1.000000	-1.000000	353831.000000	1775803980.037019
-15365.115000	-27904.275000	1315.395000	20763.180000	7014.465000	-10115.415000	-40861.890000	-32961.330000	3.270399	5.171354	5.610338	7.451217	0.950338	-4.976139	-2.703186	0.442888	-6.561800	0.930860	0.213640	-0.748411	0.108154	0.638121	-1.000000	-1.000000	-1.000000	-1.000000	-1.000000	-1.000000	-1.000000	51.000000	0.000000	-1.000000	-1.000000	353832.000000	1775803980.048129
-15355.890000	-27896.445000	1318.860000	20758.185000	7017.570000	-10108.845000	-40855.590000	-32953.140000	4.950786	8.066899	8.644520	5.903048	-0.270622	-4.013665	-3.482912	0.644618	-6.561800	0.930860	0.213640	-0.748411	0.108154	0.638121	-1.000000	-1.000000	-1.000000	-1.000000	-1.000000	-1.000000	-1.000000	51.000000	0.000000	-1.000000	-1.000000	353833.000000	1775803980.048155
-15356.070000	-27898.155000	1316.160000	20748.510000	7010.865000	-10105.785000	-40854.870000	-32953.140000	4.329393	7.111023	7.411799	1.871961	-1.966428	-1.166911	-2.508920	0.625041	-6.561800	0.930860	0.213640	-0.748411	0.108154	0.638121	-1.000000	-1.000000	-1.000000	-1.000000	-1.000000	-1.000000	-1.000000	51.000000	0.000000	-1.000000	-1.000000	353834.000000	1775803980.048182
-15361.425000	-27902.565000	1314.945000	20744.415000	7001.685000	-10106.595000	-40859.010000	-32958.720000	2.263288	3.424252	2.997984	-2.913350	-2.898350	2.091267	-0.209905	0.722152	-6.561800	0.930860	0.213640	-0.748411	0.108154	0.638121	-1.000000	-1.000000	-1.000000	-1.000000	-1.000000	-1.000000	-1.000000	51.000000	0.000000	-1.000000	-1.000000	353835.000000	1775803980.048195
-15360.345000	-27895.320000	1325.880000	20758.095000	7012.620000	-10111.050000	-40865.580000	-32962.950000	-0.505589	-1.082190	-1.885559	-5.936062	-2.702874	3.840231	1.699973	0.365391	-6.561800	0.930860	0.213640	-0.748411	0.108154	0.638121	-1.000000	-1.000000	-1.000000	-1.000000	-1.000000	-1.000000	-1.000000	51.000000	0.000000	-1.000000	-1.000000	353836.000000	1775803980.050308
-15358.995000	-27889.335000	1333.710000	20794.005000	7036.200000	-10116.315000	-40870.530000	-32966.100000	-3.002783	-4.207453	-4.469583	-4.497682	-0.603586	2.985276	1.821632	-0.806054	-6.561800	0.930860	0.213640	-0.748411	0.108154	0.638121	-1.000000	-1.000000	-1.000000	-1.000000	-1.000000	-1.000000	-1.000000	51.000000	0.000000	-1.000000	-1.000000	353837.000000	1775803980.050330
-15361.065000	-27894.060000	1328.130000	20797.920000	7047.360000	-10117.170000	-40869.450000	-32965.785000	-4.091559	-4.681554	-3.934733	1.859380	3.939373	0.176037	0.468915	-2.057234	-5.646200	0.122080	-2.243220	-0.750853	0.101135	0.638609	-1.000000	-1.000000	-1.000000	-1.000000	-1.000000	-1.000000	-1.000000	51.000000	0.000000	-1.000000	-1.000000	353838.000000	1775803980.055791
-15363.180000	-27901.035000	1317.735000	20779.155000	7032.600000	-10116.135000	-40865.715000	-32962.770000	-3.532201	-3.478523	-2.309688	8.494433	8.466025	-2.569904	-0.677827	-2.202313	-5.646200	0.122080	-2.243220	-0.750853	0.101135	0.638609	-1.000000	-1.000000	-1.000000	-1.000000	-1.000000	-1.000000	-1.000000	51.000000	0.000000	-1.000000	-1.000000	353839.000000	1775803980.055819
-15361.110000	-27902.070000	1317.690000	20780.145000	7030.125000	-10114.830000	-40862.565000	-32958.180000	-1.969562	-2.446456	-2.012895	8.819510	8.456852	-3.386346	-0.237860	-0.686515	-5.646200	0.122080	-2.243220	-0.750853	0.101135	0.638609	-1.000000	-1.000000	-1.000000	-1.000000	-1.000000	-1.000000	-1.000000	51.000000	0.000000	-1.000000	-1.000000	353840.000000	1775803980.067484
-15358.005000	-27897.165000	1309.230000	20750.130000	7016.310000	-10106.820000	-40846.725000	-32945.805000	-0.040067	-1.955716	-3.113811	1.242659	2.344167	-1.799365	1.824749	2.042395	-5.646200	0.122080	-2.243220	-0.750853	0.101135	0.638609	-1.000000	-1.000000	-1.000000	-1.000000	-1.000000	-1.000000	-1.000000	51.000000	0.000000	-1.000000	-1.000000	353841.000000	1775803980.067513
-15361.515000	-27901.800000	1304.100000	20743.650000	7010.955000	-10108.035000	-40848.615000	-32950.440000	1.744143	-1.103660	-4.041185	-9.788965	-6.565827	1.190924	4.377351	4.678369	-5.646200	0.122080	-2.243220	-0.750853	0.101135	0.638609	-1.000000	-1.000000	-1.000000	-1.000000	-1.000000	-1.000000	-1.000000	51.000000	0.000000	-1.000000	-1.000000	353842.000000	1775803980.067544
-15363.270000	-27900.855000	1303.380000	20746.485000	7005.465000	-10109.565000	-40849.290000	-32951.205000	2.651230	0.388851	-3.522344	-17.420216	-13.050558	3.640085	5.441630	5.354090	-5.646200	0.122080	-2.243220	-0.750853	0.101135	0.638609	-1.000000	-1.000000	-1.000000	-1.000000	-1.000000	-1.000000	-1.000000	51.000000	0.000000	-1.000000	-1.000000	353843.000000	1775803980.067558
-15363.000000	-27898.875000	1307.430000	20754.945000	7011.405000	-10109.700000	-40851.720000	-32953.590000	2.251401	1.914406	-1.111133	-16.274726	-13.436399	3.906700	3.465736	3.033540	-5.646200	0.122080	-2.243220	-0.750853	0.101135	0.638609	-1.000000	-1.000000	-1.000000	-1.000000	-1.000000	-1.000000	-1.000000	51.000000	0.000000	-1.000000	-1.000000	353844.000000	1775803980.067574
-15364.890000	-27896.805000	1307.610000	20756.430000	7019.685000	-10111.995000	-40851.360000	-32953.050000	0.997037	2.965212	2.653707	-6.305006	-7.313558	1.950613	-0.933550	-1.165290	-5.646200	0.122080	-2.243220	-0.750853	0.101135	0.638609	-1.000000	-1.000000	-1.000000	-1.000000	-1.000000	-1.000000	-1.000000	51.000000	0.000000	-1.000000	-1.000000	353845.000000	1775803980.067585
-15366.645000	-27902.700000	1316.160000	20771.685000	7033.185000	-10112.310000	-40861.620000	-32962.545000	-0.292716	3.194098	6.291755	7.081032	2.579424	-0.884123	-5.488320	-4.985048	-5.646200	0.122080	-2.243220	-0.750853	0.101135	0.638609	-1.000000	-1.000000	-1.000000	-1.000000	-1.000000	-1.000000	-1.000000	51.000000	0.000000	-1.000000	-1.000000	353846.000000	1775803980.070488
-15364.305000	-27905.670000	1312.380000	20762.820000	7022.295000	-10115.190000	-40864.635000	-32962.905000	-1.031196	2.206077	8.163483	17.040501	11.469757	-3.063029	-8.236364	-6.862082	-5.646200	0.122080	-2.243220	-0.750853	0.101135	0.638609	-1.000000	-1.000000	-1.000000	-1.000000	-1.000000	-1.000000	-1.000000	51.000000	0.000000	-1.000000	-1.000000	353847.000000	1775803980.070515
-15368.490000	-27910.215000	1307.385000	20761.245000	7016.355000	-10118.115000	-40870.215000	-32968.170000	-1.007077	0.130539	7.100346	18.937000	14.516572	-3.776714	-8.284061	-6.330672	-1.876980	0.259420	-3.464020	-0.753111	0.098266	0.635680	-1.000000	-1.000000	-1.000000	-1.000000	-1.000000	-1.000000	-1.000000	51.000000	0.000000	-1.000000	-1.000000	353848.000000	1775803980.078998
-15363.585000	-27903.420000	1314.180000	20765.880000	7012.980000	-10115.865000	-40870.080000	-32965.380000	-0.424206	-1.901881	3.236619	12.613626	10.108273	-3.033819	-5.643656	-3.691760	-1.876980	0.259420	-3.464020	-0.753111	0.098266	0.635680	-1.000000	-1.000000	-1.000000	-1.000000	-1.000000	-1.000000	-1.000000	51.000000	0.000000	-1.000000	-1.000000	353849.000000	1775803980.079024
-15351.030000	-27882.990000	1326.060000	20770.830000	7021.800000	-10105.605000	-40854.915000	-32949.990000	0.622668	-2.073510	-1.195142	2.512153	1.620155	-1.038612	-0.891867	0.435221	-1.876980	0.259420	-3.464020	-0.753111	0.098266	0.635680	-1.000000	-1.000000	-1.000000	-1.000000	-1.000000	-1.000000	-1.000000	51.000000	0.000000	-1.000000	-1.000000	353850.000000	1775803980.079050
-15358.995000	-27887.940000	1322.460000	20767.455000	7024.410000	-10102.140000	-40847.220000	-32955.570000	2.020230	0.404938	-3.626504	-5.958572	-5.330593	1.876379	5.019662	5.051263	-1.876980	0.259420	-3.464020	-0.753111	0.098266	0.635680	-1.000000	-1.000000	-1.000000	-1.000000	-1.000000	-1.000000	-1.000000	51.000000	0.000000	-1.000000	-1.000000	353851.000000	1775803980.079062
-15363.540000	-27896.265000	1309.815000	20758.275000	7019.325000	-10101.105000	-40841.865000	-32957.865000	2.572230	3.312650	-4.062009	-10.290363	-7.582241	4.531986	10.148187	8.009992	-1.876980	0.259420	-3.464020	-0.753111	0.098266	0.635680	-1.000000	-1.000000	-1.000000	-1.000000	-1.000000	-1.000000	-1.000000	51.000000	0.000000	-1.000000	-1.000000	353852.000000	1775803980.082227
-15357.780000	-27894.105000	1305.180000	20751.660000	7013.655000	-10107.315000	-40842.180000	-32949.540000	1.189088	3.368359	-4.443485	-11.023819	-6.132053	5.130607	11.821132	7.438834	-1.876980	0.259420	-3.464020	-0.753111	0.098266	0.635680	-1.000000	-1.000000	-1.000000	-1.000000	-1.000000	-1.000000	-1.000000	51.000000	0.000000	-1.000000	-1.000000	353853.000000	1775803980.082253
-15354.225000	-27897.255000	1309.275000	20756.610000	7015.410000	-10124.010000	-40873.230000	-32957.055000	-1.096248	0.246010	-5.277261	-9.283175	-3.608800	2.539613	8.098386	3.891637	-1.876980	0.259420	-3.464020	-0.753111	0.098266	0.635680	-1.000000	-1.000000	-1.000000	-1.000000	-1.000000	-1.000000	-1.000000	51.000000	0.000000	-1.000000	-1.000000	353854.000000	1775803980.088582
-15355.440000	-27896.940000	1314.270000	20765.835000	7017.930000	-10121.580000	-40870.710000	-32959.305000	-2.412736	-3.528125	-4.867331	-5.271128	-1.347374	-2.434932	-0.566283	-0.722256	-1.876980	0.259420	-3.464020	-0.753111	0.098266	0.635680	-1.000000	-1.000000	-1.000000	-1.000000	-1.000000	-1.000000	-1.000000	51.000000	0.000000	-1.000000	-1.000000	353855.000000	1775803980.088606
-15362.865000	-27904.500000	1310.040000	20763.720000	7011.810000	-10124.280000	-40874.400000	-32966.955000	-2.424197	-5.586667	-2.081708	0.519697	0.534558	-6.760420	-9.852230	-4.796284	-1.876980	0.259420	-3.464020	-0.753111	0.098266	0.635680	-1.000000	-1.000000	-1.000000	-1.000000	-1.000000	-1.000000	-1.000000	51.000000	0.000000	-1.000000	-1.000000	353856.000000	1775803980.097302
-15361.830000	-27900.675000	1314.000000	20765.655000	7013.835000	-10120.005000	-40875.300000	-32969.025000	-2.057062	-5.201529	1.857566	5.912246	1.811722	-7.352464	-14.037035	-7.125086	-1.876980	0.259420	-3.464020	-0.753111	0.098266	0.635680	-1.000000	-1.000000	-1.000000	-1.000000	-1.000000	-1.000000	-1.000000	51.000000	0.000000	-1.000000	-1.000000	353857.000000	1775803980.097328
-15360.615000	-27898.425000	1312.875000	20761.920000	7020.810000	-10112.670000	-40872.960000	-32968.260000	-1.697576	-2.743592	4.817283	8.318767	2.407842	-3.630111	-10.946075	-6.901529	0.213640	1.999060	-2.487380	-0.754393	0.101379	0.631590	-1.000000	-1.000000	-1.000000	-1.000000	-1.000000	-1.000000	-1.000000	51.000000	0.000000	-1.000000	-1.000000	353858.000000	1775803980.097356
-15360.975000	-27903.735000	1306.395000	20759.355000	7025.220000	-10105.965000	-40866.930000	-32963.040000	-0.920378	0.729425	5.463558	6.838880	2.832488	2.433319	-2.861803	-3.998290	0.213640	1.999060	-2.487380	-0.754393	0.101379	0.631590	-1.000000	-1.000000	-1.000000	-1.000000	-1.000000	-1.000000	-1.000000	51.000000	0.000000	-1.000000	-1.000000	353859.000000	1775803980.097369
-15356.610000	-27899.775000	1310.175000	20763.810000	7028.325000	-10100.790000	-40861.440000	-32957.505000	0.452955	3.585003	3.723172	2.801521	3.263899	7.731816	5.977279	0.701770	0.213640	1.999060	-2.487380	-0.754393	0.101379	0.631590	-1.000000	-1.000000	-1.000000	-1.000000	-1.000000	-1.000000	-1.000000	51.000000	0.000000	-1.000000	-1.000000	353860.000000	1775803980.109982
-15357.330000	-27895.320000	1316.880000	20770.245000	7024.590000	-10109.520000	-40868.280000	-32963.625000	1.992172	4.813453	1.036152	-1.102439	3.012039	9.460008	11.552132	5.175558	0.213640	1.999060	-2.487380	-0.754393	0.101379	0.631590	-1.000000	-1.000000	-1.000000	-1.000000	-1.000000	-1.000000	-1.000000	51.000000	0.000000	-1.000000	-1.000000	353861.000000	1775803980.110008
-15359.670000	-27896.310000	1317.420000	20772.225000	7012.125000	-10118.565000	-40873.365000	-32967.495000	2.890237	4.564478	-0.673225	-2.766458	1.130397	6.306909	11.448175	6.986919	0.213640	1.999060	-2.487380	-0.754393	0.101379	0.631590	-1.000000	-1.000000	-1.000000	-1.000000	-1.000000	-1.000000	-1.000000	51.000000	0.000000	-1.000000	-1.000000	353862.000000	1775803980.110076
-15360.210000	-27894.465000	1317.015000	20771.055000	7014.735000	-10117.755000	-40869.315000	-32964.570000	2.481388	3.233351	-0.919798	-2.239434	-2.327729	-0.376889	6.241080	5.222438	0.213640	1.999060	-2.487380	-0.754393	0.101379	0.631590	-1.000000	-1.000000	-1.000000	-1.000000	-1.000000	-1.000000	-1.000000	51.000000	0.000000	-1.000000	-1.000000	353863.000000	1775803980.110091
-15359.445000	-27897.705000	1312.380000	20766.780000	7019.055000	-10115.595000	-40866.570000	-32962.365000	0.974047	1.130597	-0.747545	-1.191993	-5.378779	-6.698971	-0.521627	1.535823	0.213640	1.999060	-2.487380	-0.754393	0.101379	0.631590	-1.000000	-1.000000	-1.000000	-1.000000	-1.000000	-1.000000	-1.000000	51.000000	0.000000	-1.000000	-1.000000	353864.000000	1775803980.110111
-15356.430000	-27898.245000	1309.770000	20762.910000	7021.125000	-10110.015000	-40862.205000	-32958.270000	-0.599844	-1.248810	-1.200316	-1.086176	-5.590460	-8.908822	-5.015538	-1.489885	0.213640	1.999060	-2.487380	-0.754393	0.101379	0.631590	-1.000000	-1.000000	-1.000000	-1.000000	-1.000000	-1.000000	-1.000000	51.000000	0.000000	-1.000000	-1.000000	353865.000000	1775803980.110122
-15361.965000	-27907.290000	1301.265000	20759.085000	7017.480000	-10110.420000	-40863.150000	-32959.125000	-1.406167	-3.324335	-2.356036	-2.014271	-2.776703	-6.232581	-5.831491	-2.549415	0.213640	1.999060	-2.487380	-0.754393	0.101379	0.631590	-1.000000	-1.000000	-1.000000	-1.000000	-1.000000	-1.000000	-1.000000	51.000000	0.000000	-1.000000	-1.000000	353866.000000	1775803980.112107
-15361.695000	-27904.095000	1305.765000	20766.510000	7021.170000	-10105.695000	-40863.510000	-32960.115000	-1.520089	-4.549598	-3.381518	-2.787515	0.959087	-0.974431	-4.139624	-2.124125	0.213640	1.999060	-2.487380	-0.754393	0.101379	0.631590	-1.000000	-1.000000	-1.000000	-1.000000	-1.000000	-1.000000	-1.000000	51.000000	0.000000	-1.000000	-1.000000	353867.000000	1775803980.112134
-15359.805000	-27895.545000	1309.185000	20762.325000	7021.305000	-10103.400000	-40860.540000	-32956.830000	-1.301211	-4.130657	-3.006015	-2.094223	3.533707	3.714983	-1.909910	-1.351128	3.570840	1.907500	-1.785420	-0.755552	0.100647	0.631651	-1.000000	-1.000000	-1.000000	-1.000000	-1.000000	-1.000000	-1.000000	51.000000	0.000000	-1.000000	-1.000000	353868.000000	1775803980.113551
-15353.055000	-27886.815000	1310.805000	20755.215000	7023.285000	-10098.090000	-40849.065000	-32945.760000	-0.620429	-1.432003	-0.667675	-0.144468	4.205607	5.914924	-0.087192	-0.596109	3.570840	1.907500	-1.785420	-0.755552	0.100647	0.631651	-1.000000	-1.000000	-1.000000	-1.000000	-1.000000	-1.000000	-1.000000	51.000000	0.000000	-1.000000	-1.000000	353869.000000	1775803980.113568
-15346.215000	-27883.080000	1312.695000	20753.955000	7022.790000	-10097.460000	-40847.580000	-32942.430000	0.774219	2.699239	2.556043	1.496104	3.254619	5.376341	1.438377	0.491588	3.570840	1.907500	-1.785420	-0.755552	0.100647	0.631651	-1.000000	-1.000000	-1.000000	-1.000000	-1.000000	-1.000000	-1.000000	51.000000	0.000000	-1.000000	-1.000000	353870.000000	1775803980.117342
-15348.870000	-27883.980000	1316.835000	20762.100000	7021.395000	-10102.860000	-40853.340000	-32949.090000	2.384135	5.841531	4.849613	2.112456	1.368541	2.778476	2.324568	1.513462	3.570840	1.907500	-1.785420	-0.755552	0.100647	0.631651	-1.000000	-1.000000	-1.000000	-1.000000	-1.000000	-1.000000	-1.000000	51.000000	0.000000	-1.000000	-1.000000	353871.000000	1775803980.117364
-15353.775000	-27890.595000	1323.405000	20774.970000	7028.145000	-10106.370000	-40868.145000	-32962.230000	2.824379	5.718565	5.250253	2.658392	-0.572763	-0.927838	1.355601	0.970853	3.570840	1.907500	-1.785420	-0.755552	0.100647	0.631651	-1.000000	-1.000000	-1.000000	-1.000000	-1.000000	-1.000000	-1.000000	51.000000	0.000000	-1.000000	-1.000000	353872.000000	1775803980.121923
-15350.985000	-27887.130000	1325.655000	20776.410000	7025.625000	-10108.935000	-40870.755000	-32962.680000	1.234072	2.136692	3.975393	3.918852	-1.697130	-4.431125	-1.815859	-1.756876	3.570840	1.907500	-1.785420	-0.755552	0.100647	0.631651	-1.000000	-1.000000	-1.000000	-1.000000	-1.000000	-1.000000	-1.000000	51.000000	0.000000	-1.000000	-1.000000	353873.000000	1775803980.121946
-15347.385000	-27885.420000	1324.530000	20778.120000	7023.240000	-10113.165000	-40870.890000	-32959.890000	-1.346262	-2.570285	1.624494	4.875556	-1.870371	-6.269611	-5.209544	-4.764655	3.570840	1.907500	-1.785420	-0.755552	0.100647	0.631651	-1.000000	-1.000000	-1.000000	-1.000000	-1.000000	-1.000000	-1.000000	51.000000	0.000000	-1.000000	-1.000000	353874.000000	1775803980.133341
-15349.095000	-27887.220000	1321.380000	20777.445000	7026.660000	-10106.865000	-40869.135000	-32960.520000	-3.016868	-5.514346	-1.322011	3.821146	-1.638753	-5.571331	-5.931966	-5.262336	3.570840	1.907500	-1.785420	-0.755552	0.100647	0.631651	-1.000000	-1.000000	-1.000000	-1.000000	-1.000000	-1.000000	-1.000000	51.000000	0.000000	-1.000000	-1.000000	353875.000000	1775803980.133365
-15349.140000	-27885.240000	1328.940000	20788.020000	7025.805000	-10107.495000	-40869.630000	-32960.340000	-3.024709	-5.555667	-4.046597	0.676536	-1.247239	-2.465080	-3.005369	-2.551342	3.570840	1.907500	-1.785420	-0.755552	0.100647	0.631651	-1.000000	-1.000000	-1.000000	-1.000000	-1.000000	-1.000000	-1.000000	51.000000	0.000000	-1.000000	-1.000000	353876.000000	1775803980.133396
-15349.095000	-27889.875000	1321.020000	20783.475000	7023.645000	-10106.595000	-40867.065000	-32956.470000	-1.927094	-3.472969	-5.401209	-2.836162	-0.698350	1.703246	1.889987	1.669462	3.570840	1.907500	-1.785420	-0.755552	0.100647	0.631651	-1.000000	-1.000000	-1.000000	-1.000000	-1.000000	-1.000000	-1.000000	51.000000	0.000000	-1.000000	-1.000000	353877.000000	1775803980.133406
-15349.095000	-27895.770000	1301.310000	20757.240000	7021.080000	-10101.780000	-40857.795000	-32948.955000	-0.542154	-0.940585	-5.391234	-5.662506	-0.260443	4.987198	6.225262	5.293319	2.624720	0.625660	0.793520	-0.753660	0.097900	0.636534	-1.000000	-1.000000	-1.000000	-1.000000	-1.000000	-1.000000	-1.000000	51.000000	0.000000	-1.000000	-1.000000	353878.000000	1775803980.134730
-15349.590000	-27897.615000	1303.200000	20763.540000	7029.495000	-10105.335000	-40861.575000	-32951.745000	0.580520	0.656393	-5.078834	-8.027157	0.018261	6.109583	8.275819	6.980440	2.624720	0.625660	0.793520	-0.753660	0.097900	0.636534	-1.000000	-1.000000	-1.000000	-1.000000	-1.000000	-1.000000	-1.000000	51.000000	0.000000	-1.000000	-1.000000	353879.000000	1775803980.134754
-15351.705000	-27897.390000	1311.885000	20780.145000	7025.715000	-10109.790000	-40868.325000	-32957.820000	1.152571	1.199220	-4.062777	-8.537089	0.533660	4.745153	7.115936	5.943266	2.624720	0.625660	0.793520	-0.753660	0.097900	0.636534	-1.000000	-1.000000	-1.000000	-1.000000	-1.000000	-1.000000	-1.000000	51.000000	0.000000	-1.000000	-1.000000	353880.000000	1775803980.137430
-15354.270000	-27896.805000	1310.985000	20751.885000	7010.685000	-10114.740000	-40873.905000	-32963.445000	1.083903	1.501159	-0.851956	-5.286033	0.944637	1.409486	2.795986	2.189376	2.624720	0.625660	0.793520	-0.753660	0.097900	0.636534	-1.000000	-1.000000	-1.000000	-1.000000	-1.000000	-1.000000	-1.000000	51.000000	0.000000	-1.000000	-1.000000	353881.000000	1775803980.137452
-15355.395000	-27897.570000	1311.795000	20762.235000	7022.925000	-10110.330000	-40873.725000	-32964.030000	0.538105	2.093113	3.987058	0.063182	0.411421	-2.304809	-2.828493	-2.712207	2.624720	0.625660	0.793520	-0.753660	0.097900	0.636534	-1.000000	-1.000000	-1.000000	-1.000000	-1.000000	-1.000000	-1.000000	51.000000	0.000000	-1.000000	-1.000000	353882.000000	1775803980.141948
-15357.240000	-27898.380000	1313.100000	20770.380000	7028.775000	-10107.360000	-40876.515000	-32967.855000	-0.067227	2.697133	7.809713	4.626958	-0.284655	-4.277225	-6.835701	-6.236259	2.624720	0.625660	0.793520	-0.753660	0.097900	0.636534	-1.000000	-1.000000	-1.000000	-1.000000	-1.000000	-1.000000	-1.000000	51.000000	0.000000	-1.000000	-1.000000	353883.000000	1775803980.141970
-15352.065000	-27893.205000	1315.935000	20775.420000	7032.330000	-10102.005000	-40873.950000	-32963.535000	-0.226173	2.824261	8.622517	7.734067	0.402692	-3.407203	-7.329520	-6.642461	2.624720	0.625660	0.793520	-0.753660	0.097900	0.636534	-1.000000	-1.000000	-1.000000	-1.000000	-1.000000	-1.000000	-1.000000	51.000000	0.000000	-1.000000	-1.000000	353884.000000	1775803980.145880
-15354.360000	-27890.775000	1320.210000	20781.810000	7034.580000	-10106.190000	-40881.195000	-32970.915000	0.325924	2.458526	6.466039	9.260094	2.162859	-0.631334	-4.636340	-4.061766	2.624720	0.625660	0.793520	-0.753660	0.097900	0.636534	-1.000000	-1.000000	-1.000000	-1.000000	-1.000000	-1.000000	-1.000000	51.000000	0.000000	-1.000000	-1.000000	353885.000000	1775803980.145904
-15352.740000	-27890.865000	1321.335000	20774.115000	7024.095000	-10110.690000	-40880.205000	-32968.305000	1.211544	1.770256	2.763487	8.349180	3.054600	1.740361	-0.756908	-0.249155	2.624720	0.625660	0.793520	-0.753660	0.097900	0.636534	-1.000000	-1.000000	-1.000000	-1.000000	-1.000000	-1.000000	-1.000000	51.000000	0.000000	-1.000000	-1.000000	353886.000000	1775803980.159953
-15349.905000	-27893.790000	1314.270000	20764.710000	7012.845000	-10114.560000	-40875.165000	-32960.700000	1.748822	0.615690	-1.106470	4.292926	1.397510	1.950583	2.457029	3.026408	2.624720	0.625660	0.793520	-0.753660	0.097900	0.636534	-1.000000	-1.000000	-1.000000	-1.000000	-1.000000	-1.000000	-1.000000	51.000000	0.000000	-1.000000	-1.000000	353887.000000	1775803980.159980
-15344.685000	-27889.290000	1317.060000	20766.825000	7010.820000	-10114.470000	-40872.825000	-32957.685000	1.743627	-1.008774	-4.370265	-2.012474	-2.502894	0.250961	4.423060	5.127845	-1.327620	-1.175020	2.853620	-0.750120	0.099609	0.639159	-1.000000	-1.000000	-1.000000	-1.000000	-1.000000	-1.000000	-1.000000	51.000000	0.000000	-1.000000	-1.000000	353888.000000	1775803980.160007
-15340.770000	-27887.310000	1319.400000	20774.295000	7019.955000	-10108.440000	-40868.190000	-32953.275000	1.454752	-2.393970	-6.188322	-7.401533	-5.834074	-1.493075	5.160374	5.852992	-1.327620	-1.175020	2.853620	-0.750120	0.099609	0.639159	-1.000000	-1.000000	-1.000000	-1.000000	-1.000000	-1.000000	-1.000000	51.000000	0.000000	-1.000000	-1.000000	353889.000000	1775803980.160019
-15342.660000	-27889.110000	1318.185000	20775.420000	7026.705000	-10105.785000	-40867.380000	-32955.570000	0.940935	-2.798745	-5.808643	-8.684844	-5.450038	-1.544883	4.616808	4.854129	-1.327620	-1.175020	2.853620	-0.750120	0.099609	0.639159	-1.000000	-1.000000	-1.000000	-1.000000	-1.000000	-1.000000	-1.000000	51.000000	0.000000	-1.000000	-1.000000	353890.000000	1775803980.160034
-15349.230000	-27895.275000	1312.110000	20768.985000	7028.100000	-10104.345000	-40871.025000	-32961.735000	-0.209487	-2.447361	-3.708508	-5.788026	-1.079550	0.155831	2.731353	1.997066	-1.327620	-1.175020	2.853620	-0.750120	0.099609	0.639159	-1.000000	-1.000000	-1.000000	-1.000000	-1.000000	-1.000000	-1.000000	51.000000	0.000000	-1.000000	-1.000000	353891.000000	1775803980.160045
-15345.765000	-27893.430000	1313.595000	20773.260000	7033.680000	-10096.380000	-40867.290000	-32958.540000	-2.109372	-2.044334	-1.307597	-1.451235	4.319439	2.240212	-0.168379	-1.994941	-1.327620	-1.175020	2.853620	-0.750120	0.099609	0.639159	-1.000000	-1.000000	-1.000000	-1.000000	-1.000000	-1.000000	-1.000000	51.000000	0.000000	-1.000000	-1.000000	353892.000000	1775803980.164232
-15345.630000	-27893.700000	1313.595000	20773.755000	7031.385000	-10100.070000	-40869.855000	-32960.970000	-3.746605	-1.627445	0.529175	1.864129	7.318116	3.320776	-3.024591	-5.333487	-1.327620	-1.175020	2.853620	-0.750120	0.099609	0.639159	-1.000000	-1.000000	-1.000000	-1.000000	-1.000000	-1.000000	-1.000000	51.000000	0.000000	-1.000000	-1.000000	353893.000000	1775803980.164293
-15339.780000	-27888.390000	1319.130000	20777.670000	7032.105000	-10099.755000	-40865.805000	-32956.560000	-3.766001	-0.666183	1.898996	3.466726	6.392307	2.628741	-4.613822	-6.317225	-1.327620	-1.175020	2.853620	-0.750120	0.099609	0.639159	-1.000000	-1.000000	-1.000000	-1.000000	-1.000000	-1.000000	-1.000000	51.000000	0.000000	-1.000000	-1.000000	353894.000000	1775803980.171027
-15338.925000	-27888.750000	1317.510000	20772.810000	7027.245000	-10103.220000	-40865.715000	-32956.965000	-1.882629	0.969559	3.008817	3.552406	2.325546	0.275521	-4.376025	-4.619876	-1.327620	-1.175020	2.853620	-0.750120	0.099609	0.639159	-1.000000	-1.000000	-1.000000	-1.000000	-1.000000	-1.000000	-1.000000	51.000000	0.000000	-1.000000	-1.000000	353895.000000	1775803980.171053
-15340.635000	-27892.215000	1313.145000	20762.955000	7016.535000	-10109.385000	-40865.715000	-32957.235000	0.759655	2.495895	3.431982	2.203537	-2.833754	-2.704162	-2.689504	-1.397166	-1.327620	-1.175020	2.853620	-0.750120	0.099609	0.639159	-1.000000	-1.000000	-1.000000	-1.000000	-1.000000	-1.000000	-1.000000	51.000000	0.000000	-1.000000	-1.000000	353896.000000	1775803980.171083
-15340.905000	-27895.995000	1306.305000	20728.305000	6991.785000	-10113.030000	-40867.695000	-32959.170000	2.482682	2.750897	2.427418	-0.930439	-7.403123	-5.016905	-0.635132	1.535811	-1.327620	-1.175020	2.853620	-0.750120	0.099609	0.639159	-1.000000	-1.000000	-1.000000	-1.000000	-1.000000	-1.000000	-1.000000	51.000000	0.000000	-1.000000	-1.000000	353897.000000	1775803980.171096
-15342.930000	-27899.190000	1298.295000	20708.595000	6972.885000	-10111.365000	-40865.580000	-32960.160000	2.443670	1.382302	-0.039088	-5.839654	-10.586654	-5.570258	0.814522	2.901564	-3.891300	0.732480	3.708180	-0.749632	0.099548	0.637083	-1.000000	-1.000000	-1.000000	-1.000000	-1.000000	-1.000000	-1.000000	51.000000	0.000000	-1.000000	-1.000000	353898.000000	1775803980.176115
-15342.255000	-27894.105000	1309.680000	20770.380000	7013.655000	-10102.680000	-40862.970000	-32959.755000	1.099896	-0.600843	-2.600390	-9.069367	-10.516343	-3.654114	1.483205	2.621786	-3.891300	0.732480	3.708180	-0.749632	0.099548	0.637083	-1.000000	-1.000000	-1.000000	-1.000000	-1.000000	-1.000000	-1.000000	51.000000	0.000000	-1.000000	-1.000000	353899.000000	1775803980.176143
-15344.595000	-27894.150000	1318.725000	20816.145000	7060.635000	-10091.520000	-40861.305000	-32962.815000	-0.454756	-1.624020	-2.982987	-3.845094	-3.412854	0.571345	1.740858	1.461286	-3.891300	0.732480	3.708180	-0.749632	0.099548	0.637083	-1.000000	-1.000000	-1.000000	-1.000000	-1.000000	-1.000000	-1.000000	51.000000	0.000000	-1.000000	-1.000000	353900.000000	1775803980.191183
-15348.060000	-27898.740000	1312.020000	20789.055000	7042.050000	-10096.065000	-40865.490000	-32966.820000	-1.421677	-1.149041	-0.459695	10.081125	10.285291	5.386241	1.704984	0.162660	-3.891300	0.732480	3.708180	-0.749632	0.099548	0.637083	-1.000000	-1.000000	-1.000000	-1.000000	-1.000000	-1.000000	-1.000000	51.000000	0.000000	-1.000000	-1.000000	353901.000000	1775803980.191209
-15343.065000	-27892.845000	1316.880000	20777.850000	7035.345000	-10099.395000	-40866.165000	-32964.075000	-1.532205	0.006668	2.760199	21.080784	21.251621	7.817591	1.086133	-0.812132	-3.891300	0.732480	3.708180	-0.749632	0.099548	0.637083	-1.000000	-1.000000	-1.000000	-1.000000	-1.000000	-1.000000	-1.000000	51.000000	0.000000	-1.000000	-1.000000	353902.000000	1775803980.191237
-15339.015000	-27890.145000	1317.105000	20774.745000	7037.370000	-10096.470000	-40861.485000	-32959.710000	-0.633640	1.080172	4.089335	18.148353	20.048405	6.078609	0.009214	-0.931938	-3.891300	0.732480	3.708180	-0.749632	0.099548	0.637083	-1.000000	-1.000000	-1.000000	-1.000000	-1.000000	-1.000000	-1.000000	51.000000	0.000000	-1.000000	-1.000000	353903.000000	1775803980.191248
-15338.610000	-27888.840000	1318.770000	20781.360000	7036.290000	-10099.890000	-40863.600000	-32961.465000	1.060683	1.842684	3.004893	3.321869	7.499385	1.418250	-0.764633	0.015849	-3.891300	0.732480	3.708180	-0.749632	0.099548	0.637083	-1.000000	-1.000000	-1.000000	-1.000000	-1.000000	-1.000000	-1.000000	51.000000	0.000000	-1.000000	-1.000000	353904.000000	1775803980.191261
-15333.390000	-27882.090000	1326.825000	20787.795000	7040.430000	-10098.405000	-40861.935000	-32957.595000	2.628149	2.094398	0.688606	-12.291664	-7.691485	-3.297833	-0.809407	1.341915	-3.891300	0.732480	3.708180	-0.749632	0.099548	0.637083	-1.000000	-1.000000	-1.000000	-1.000000	-1.000000	-1.000000	-1.000000	51.000000	0.000000	-1.000000	-1.000000	353905.000000	1775803980.191272
-15335.055000	-27880.200000	1330.200000	20785.185000	7040.205000	-10102.230000	-40869.990000	-32962.005000	3.109007	1.768354	-1.213984	-19.570510	-17.233326	-5.906715	-0.533289	2.005248	-3.891300	0.732480	3.708180	-0.749632	0.099548	0.637083	-1.000000	-1.000000	-1.000000	-1.000000	-1.000000	-1.000000	-1.000000	51.000000	0.000000	-1.000000	-1.000000	353906.000000	1775803980.191283
-15333.930000	-27878.400000	1328.985000	20785.140000	7042.500000	-10098.990000	-40871.115000	-32963.130000	2.146914	0.933605	-1.946208	-17.019463	-17.966977	-5.784445	-0.604032	1.415207	-3.891300	0.732480	3.708180	-0.749632	0.099548	0.637083	-1.000000	-1.000000	-1.000000	-1.000000	-1.000000	-1.000000	-1.000000	51.000000	0.000000	-1.000000	-1.000000	353907.000000	1775803980.191294
-15333.480000	-27878.760000	1328.760000	20786.715000	7037.280000	-10095.390000	-40870.305000	-32963.940000	0.142326	-0.373799	-2.060428	-8.770378	-11.924650	-3.448801	-1.024956	-0.189233	-2.548420	2.136400	4.074420	-0.751951	0.095337	0.637266	-1.000000	-1.000000	-1.000000	-1.000000	-1.000000	-1.000000	-1.000000	51.000000	0.000000	-1.000000	-1.000000	353908.000000	1775803980.197206
-15328.755000	-27875.610000	1332.855000	20789.730000	7034.220000	-10087.920000	-40861.530000	-32956.380000	-1.839964	-1.870678	-2.191501	0.148676	-3.672068	0.080052	-0.888304	-1.676596	-2.548420	2.136400	4.074420	-0.751951	0.095337	0.637266	-1.000000	-1.000000	-1.000000	-1.000000	-1.000000	-1.000000	-1.000000	51.000000	0.000000	-1.000000	-1.000000	353909.000000	1775803980.197234
-15326.955000	-27880.830000	1325.835000	20783.520000	7031.475000	-10085.490000	-40852.755000	-32948.640000	-2.727381	-3.028728	-2.309818	6.325142	2.839819	3.488703	0.657587	-1.719797	-2.548420	2.136400	4.074420	-0.751951	0.095337	0.637266	-1.000000	-1.000000	-1.000000	-1.000000	-1.000000	-1.000000	-1.000000	51.000000	0.000000	-1.000000	-1.000000	353910.000000	1775803980.204117
-15327.945000	-27884.655000	1320.930000	20779.425000	7035.795000	-10089.540000	-40855.095000	-32950.305000	-2.313279	-3.603826	-2.385272	8.240277	6.149822	5.244480	3.085747	-0.154826	-2.548420	2.136400	4.074420	-0.751951	0.095337	0.637266	-1.000000	-1.000000	-1.000000	-1.000000	-1.000000	-1.000000	-1.000000	51.000000	0.000000	-1.000000	-1.000000	353911.000000	1775803980.204142
-15331.095000	-27888.390000	1315.755000	20776.005000	7044.885000	-10090.125000	-40856.040000	-32952.330000	-1.388681	-3.643482	-2.520654	6.315104	7.103750	4.287894	4.422111	1.488118	-2.548420	2.136400	4.074420	-0.751951	0.095337	0.637266	-1.000000	-1.000000	-1.000000	-1.000000	-1.000000	-1.000000	-1.000000	51.000000	0.000000	-1.000000	-1.000000	353912.000000	1775803980.204170
-15336.315000	-27892.395000	1311.300000	20772.180000	7036.110000	-10097.190000	-40857.930000	-32957.550000	-0.923942	-3.063976	-2.417788	2.580712	6.911831	1.002864	3.133742	1.443763	-2.548420	2.136400	4.074420	-0.751951	0.095337	0.637266	-1.000000	-1.000000	-1.000000	-1.000000	-1.000000	-1.000000	-1.000000	51.000000	0.000000	-1.000000	-1.000000	353913.000000	1775803980.204187
-15336.405000	-27889.830000	1314.495000	20773.980000	7032.330000	-10093.905000	-40849.290000	-32957.595000	-1.145159	-1.659062	-1.473600	-0.589782	5.464467	-2.818177	-0.075326	-0.468828	-2.548420	2.136400	4.074420	-0.751951	0.095337	0.637266	-1.000000	-1.000000	-1.000000	-1.000000	-1.000000	-1.000000	-1.000000	51.000000	0.000000	-1.000000	-1.000000	353914.000000	1775803980.206886
-15339.330000	-27892.440000	1309.905000	20764.755000	7028.145000	-10088.145000	-40845.420000	-32961.060000	-1.403565	0.553250	0.572407	-1.866539	2.334689	-4.908298	-2.851765	-2.796024	-2.548420	2.136400	4.074420	-0.751951	0.095337	0.637266	-1.000000	-1.000000	-1.000000	-1.000000	-1.000000	-1.000000	-1.000000	51.000000	0.000000	-1.000000	-1.000000	353915.000000	1775803980.206907
-15338.790000	-27895.995000	1306.305000	20766.375000	7025.940000	-10091.610000	-40855.995000	-32959.485000	-0.956152	2.884871	2.974231	-1.467606	-1.510875	-4.048125	-3.752984	-3.849658	-2.548420	2.136400	4.074420	-0.751951	0.095337	0.637266	-1.000000	-1.000000	-1.000000	-1.000000	-1.000000	-1.000000	-1.000000	51.000000	0.000000	-1.000000	-1.000000	353916.000000	1775803980.210129
-15327.180000	-27881.460000	1325.520000	20790.765000	7041.870000	-10090.395000	-40865.670000	-32954.130000	0.531455	4.503291	4.782760	0.195915	-3.929122	-1.211940	-3.661850	-2.812442	-2.548420	2.136400	4.074420	-0.751951	0.095337	0.637266	-1.000000	-1.000000	-1.000000	-1.000000	-1.000000	-1.000000	-1.000000	51.000000	0.000000	-1.000000	-1.000000	353917.000000	1775803980.210152
-15334.245000	-27887.850000	1317.960000	20780.235000	7043.760000	-10096.695000	-40865.715000	-32962.590000	2.759745	5.245232	5.869907	3.019911	-3.196631	1.424233	-3.827161	-0.205072	1.037680	1.953280	2.960440	-0.752989	0.087219	0.639036	-1.000000	-1.000000	-1.000000	-1.000000	-1.000000	-1.000000	-1.000000	51.000000	0.000000	-1.000000	-1.000000	353918.000000	1775803980.222946
-15331.545000	-27888.480000	1310.355000	20773.530000	7045.110000	-10093.905000	-40859.280000	-32959.215000	4.383489	4.811957	5.608688	5.148798	0.016880	2.430624	-3.605524	2.286896	1.037680	1.953280	2.960440	-0.752989	0.087219	0.639036	-1.000000	-1.000000	-1.000000	-1.000000	-1.000000	-1.000000	-1.000000	51.000000	0.000000	-1.000000	-1.000000	353919.000000	1775803980.222973
-15328.890000	-27884.700000	1315.530000	20776.680000	7028.460000	-10100.880000	-40860.540000	-32960.295000	4.144364	2.786055	2.999593	4.060138	2.600454	1.847002	-1.597736	3.333872	1.037680	1.953280	2.960440	-0.752989	0.087219	0.639036	-1.000000	-1.000000	-1.000000	-1.000000	-1.000000	-1.000000	-1.000000	51.000000	0.000000	-1.000000	-1.000000	353920.000000	1775803980.223003
-15332.445000	-27888.930000	1312.470000	20765.520000	7008.345000	-10112.490000	-40867.245000	-32965.515000	2.231392	-0.169723	-1.028793	0.016561	1.547734	0.324326	1.759456	2.852566	1.037680	1.953280	2.960440	-0.752989	0.087219	0.639036	-1.000000	-1.000000	-1.000000	-1.000000	-1.000000	-1.000000	-1.000000	51.000000	0.000000	-1.000000	-1.000000	353921.000000	1775803980.223016
-15333.390000	-27892.980000	1304.865000	20758.815000	7004.835000	-10112.670000	-40866.120000	-32965.020000	-0.386512	-2.912435	-4.394855	-4.601300	-3.102783	-1.510963	4.352662	1.361246	1.037680	1.953280	2.960440	-0.752989	0.087219	0.639036	-1.000000	-1.000000	-1.000000	-1.000000	-1.000000	-1.000000	-1.000000	51.000000	0.000000	-1.000000	-1.000000	353922.000000	1775803980.223031
-15333.795000	-27893.745000	1302.120000	20764.260000	7019.055000	-10107.315000	-40864.005000	-32963.400000	-2.715277	-4.706854	-6.042430	-7.408976	-7.309293	-2.445731	4.914401	-0.256364	1.037680	1.953280	2.960440	-0.752989	0.087219	0.639036	-1.000000	-1.000000	-1.000000	-1.000000	-1.000000	-1.000000	-1.000000	51.000000	0.000000	-1.000000	-1.000000	353923.000000	1775803980.223043
-15328.980000	-27886.500000	1312.245000	20780.055000	7034.220000	-10102.185000	-40863.330000	-32960.880000	-3.774726	-4.873961	-5.592432	-6.432096	-6.184360	-1.151537	3.929887	-0.995334	1.037680	1.953280	2.960440	-0.752989	0.087219	0.639036	-1.000000	-1.000000	-1.000000	-1.000000	-1.000000	-1.000000	-1.000000	51.000000	0.000000	-1.000000	-1.000000	353924.000000	1775803980.230378
-15328.755000	-27886.095000	1313.145000	20777.535000	7030.305000	-10101.690000	-40863.195000	-32961.690000	-3.053864	-2.994875	-2.807747	-1.466868	0.752405	2.043317	2.365904	-0.587643	1.037680	1.953280	2.960440	-0.752989	0.087219	0.639036	-1.000000	-1.000000	-1.000000	-1.000000	-1.000000	-1.000000	-1.000000	51.000000	0.000000	-1.000000	-1.000000	353925.000000	1775803980.230405
-15335.775000	-27891.855000	1310.445000	20778.210000	7032.465000	-10097.280000	-40863.240000	-32967.360000	-1.228317	0.013999	1.248435	4.527402	8.509070	5.053068	0.762345	0.175780	1.037680	1.953280	2.960440	-0.752989	0.087219	0.639036	-1.000000	-1.000000	-1.000000	-1.000000	-1.000000	-1.000000	-1.000000	51.000000	0.000000	-1.000000	-1.000000	353926.000000	1775803980.230434
-15333.840000	-27889.020000	1315.980000	20777.985000	7030.710000	-10095.975000	-40860.090000	-32966.955000	0.251185	2.245126	4.325206	7.595345	11.522899	5.924531	-0.595747	0.270361	1.037680	1.953280	2.960440	-0.752989	0.087219	0.639036	-1.000000	-1.000000	-1.000000	-1.000000	-1.000000	-1.000000	-1.000000	51.000000	0.000000	-1.000000	-1.000000	353927.000000	1775803980.230447
-15331.050000	-27887.805000	1312.065000	20775.645000	7036.155000	-10100.115000	-40858.065000	-32965.470000	0.785044	2.755196	4.992654	6.222899	8.420424	4.106196	-1.403244	-0.353883	0.259420	1.754900	4.364360	-0.751951	0.089111	0.639159	-1.000000	-1.000000	-1.000000	-1.000000	-1.000000	-1.000000	-1.000000	51.000000	0.000000	-1.000000	-1.000000	353928.000000	1775803980.237649
-15330.420000	-27890.145000	1298.340000	20751.255000	7029.495000	-10106.775000	-40858.245000	-32966.280000	0.951798	2.036850	3.113030	1.419423	1.820429	0.232007	-1.558567	-0.865903	0.259420	1.754900	4.364360	-0.751951	0.089111	0.639159	-1.000000	-1.000000	-1.000000	-1.000000	-1.000000	-1.000000	-1.000000	51.000000	0.000000	-1.000000	-1.000000	353929.000000	1775803980.237675
-15327.720000	-27885.195000	1310.850000	20771.820000	7020.630000	-10108.350000	-40854.960000	-32964.615000	1.250486	0.921838	-0.392679	-4.380110	-4.866943	-4.199596	-1.323684	-0.713434	0.259420	1.754900	4.364360	-0.751951	0.089111	0.639159	-1.000000	-1.000000	-1.000000	-1.000000	-1.000000	-1.000000	-1.000000	51.000000	0.000000	-1.000000	-1.000000	353930.000000	1775803980.241547
-15331.905000	-27888.525000	1310.220000	20776.185000	7021.125000	-10108.350000	-40851.855000	-32963.850000	1.474224	0.021106	-3.185298	-7.369371	-9.329614	-7.121902	-0.940318	-0.028319	0.259420	1.754900	4.364360	-0.751951	0.089111	0.639159	-1.000000	-1.000000	-1.000000	-1.000000	-1.000000	-1.000000	-1.000000	51.000000	0.000000	-1.000000	-1.000000	353931.000000	1775803980.241575
-15335.100000	-27894.870000	1298.340000	20763.495000	7023.690000	-10105.245000	-40846.095000	-32961.600000	1.051793	-0.623159	-3.584384	-5.431523	-10.106358	-6.954226	-0.401811	0.758114	0.259420	1.754900	4.364360	-0.751951	0.089111	0.639159	-1.000000	-1.000000	-1.000000	-1.000000	-1.000000	-1.000000	-1.000000	51.000000	0.000000	-1.000000	-1.000000	353932.000000	1775803980.243842
-15331.680000	-27893.430000	1303.695000	20776.545000	7029.450000	-10100.970000	-40848.120000	-32964.525000	-0.106551	-1.339635	-2.390110	-0.781075	-6.786836	-3.691738	0.187956	1.178039	0.259420	1.754900	4.364360	-0.751951	0.089111	0.639159	-1.000000	-1.000000	-1.000000	-1.000000	-1.000000	-1.000000	-1.000000	51.000000	0.000000	-1.000000	-1.000000	353933.000000	1775803980.243865
-15328.125000	-27886.725000	1314.360000	20782.170000	7028.325000	-10097.100000	-40849.020000	-32966.820000	-1.108944	-1.749794	-0.641415	3.438676	-0.868035	1.074082	0.328857	0.839094	0.259420	1.754900	4.364360	-0.751951	0.089111	0.639159	-1.000000	-1.000000	-1.000000	-1.000000	-1.000000	-1.000000	-1.000000	51.000000	0.000000	-1.000000	-1.000000	353934.000000	1775803980.246735
-15329.250000	-27887.490000	1313.685000	20769.705000	7026.030000	-10099.530000	-40850.730000	-32969.610000	-1.069159	-1.032508	1.623997	5.613910	4.622982	4.994551	-0.365443	-0.269789	0.259420	1.754900	4.364360	-0.751951	0.089111	0.639159	-1.000000	-1.000000	-1.000000	-1.000000	-1.000000	-1.000000	-1.000000	51.000000	0.000000	-1.000000	-1.000000	353935.000000	1775803980.246759
-15323.940000	-27881.595000	1319.085000	20779.920000	7031.835000	-10100.295000	-40848.705000	-32966.145000	-0.147140	0.675240	3.741644	4.893254	7.160733	6.154633	-1.485410	-1.483880	0.259420	1.754900	4.364360	-0.751951	0.089111	0.639159	-1.000000	-1.000000	-1.000000	-1.000000	-1.000000	-1.000000	-1.000000	51.000000	0.000000	-1.000000	-1.000000	353936.000000	1775803980.252861
-15322.365000	-27879.435000	1320.975000	20780.325000	7026.210000	-10106.595000	-40849.335000	-32966.325000	0.924216	2.335186	4.439379	2.023634	6.342533	4.147811	-2.104204	-1.839874	0.259420	1.754900	4.364360	-0.751951	0.089111	0.639159	-1.000000	-1.000000	-1.000000	-1.000000	-1.000000	-1.000000	-1.000000	51.000000	0.000000	-1.000000	-1.000000	353937.000000	1775803980.252886
-15328.800000	-27884.520000	1318.995000	20777.805000	7017.840000	-10114.290000	-40855.095000	-32972.490000	1.383912	2.873996	3.159527	-0.978748	3.153466	0.130190	-1.802672	-1.136631	-2.456860	0.640920	4.730600	-0.750242	0.096679	0.637450	-1.000000	-1.000000	-1.000000	-1.000000	-1.000000	-1.000000	-1.000000	51.000000	0.000000	-1.000000	-1.000000	353938.000000	1775803980.253364
-15330.645000	-27885.420000	1321.245000	20780.685000	7020.225000	-10114.155000	-40856.715000	-32973.570000	0.601578	1.667935	0.372230	-2.892190	-0.975855	-3.878234	-1.032882	-0.209100	-2.456860	0.640920	4.730600	-0.750242	0.096679	0.637450	-1.000000	-1.000000	-1.000000	-1.000000	-1.000000	-1.000000	-1.000000	51.000000	0.000000	-1.000000	-1.000000	353939.000000	1775803980.253381
-15329.565000	-27897.030000	1295.280000	20756.970000	7023.780000	-10101.015000	-40844.520000	-32965.245000	-1.129357	-0.989921	-3.097322	-3.864974	-3.996194	-5.529162	-0.053265	0.413053	-2.456860	0.640920	4.730600	-0.750242	0.096679	0.637450	-1.000000	-1.000000	-1.000000	-1.000000	-1.000000	-1.000000	-1.000000	51.000000	0.000000	-1.000000	-1.000000	353940.000000	1775803980.261267
-15334.740000	-27901.305000	1289.520000	20749.635000	7017.930000	-10101.555000	-40845.870000	-32969.115000	-2.570901	-3.971687	-6.693155	-4.846606	-4.360154	-3.458109	1.509693	1.075175	-2.456860	0.640920	4.730600	-0.750242	0.096679	0.637450	-1.000000	-1.000000	-1.000000	-1.000000	-1.000000	-1.000000	-1.000000	51.000000	0.000000	-1.000000	-1.000000	353941.000000	1775803980.261293
-15339.015000	-27904.230000	1292.760000	20762.055000	7009.740000	-10103.850000	-40848.165000	-32973.345000	-2.905716	-5.765278	-8.982138	-5.529573	-2.702521	0.907391	3.225380	1.667347	-2.456860	0.640920	4.730600	-0.750242	0.096679	0.637450	-1.000000	-1.000000	-1.000000	-1.000000	-1.000000	-1.000000	-1.000000	51.000000	0.000000	-1.000000	-1.000000	353942.000000	1775803980.262832
-15337.440000	-27900.450000	1296.000000	20767.455000	7010.505000	-10103.265000	-40847.220000	-32974.245000	-2.173718	-5.028745	-7.504112	-3.653529	-0.867544	4.286656	3.696394	1.416842	-2.456860	0.640920	4.730600	-0.750242	0.096679	0.637450	-1.000000	-1.000000	-1.000000	-1.000000	-1.000000	-1.000000	-1.000000	51.000000	0.000000	-1.000000	-1.000000	353943.000000	1775803980.262853
-15335.820000	-27899.865000	1293.885000	20763.405000	7012.980000	-10105.290000	-40842.675000	-32970.825000	-0.570436	-1.585574	-1.793634	1.408517	0.398006	4.659522	2.470114	0.349794	-2.456860	0.640920	4.730600	-0.750242	0.096679	0.637450	-1.000000	-1.000000	-1.000000	-1.000000	-1.000000	-1.000000	-1.000000	51.000000	0.000000	-1.000000	-1.000000	353944.000000	1775803980.267460
-15332.985000	-27897.435000	1297.035000	20764.260000	7022.070000	-10106.955000	-40841.730000	-32969.655000	1.602867	3.074626	5.308229	6.712161	1.687207	2.416250	0.555670	-0.525469	-2.456860	0.640920	4.730600	-0.750242	0.096679	0.637450	-1.000000	-1.000000	-1.000000	-1.000000	-1.000000	-1.000000	-1.000000	51.000000	0.000000	-1.000000	-1.000000	353945.000000	1775803980.267509
-15330.915000	-27894.645000	1301.490000	20771.415000	7029.585000	-10105.650000	-40843.170000	-32970.195000	3.612456	6.694009	10.217159	9.004003	3.496180	-0.688819	-0.997858	-0.555176	-2.456860	0.640920	4.730600	-0.750242	0.096679	0.637450	-1.000000	-1.000000	-1.000000	-1.000000	-1.000000	-1.000000	-1.000000	51.000000	0.000000	-1.000000	-1.000000	353946.000000	1775803980.270906
-15325.560000	-27886.905000	1307.295000	20774.835000	7032.555000	-10101.645000	-40838.940000	-32966.145000	4.623163	7.825968	11.208359	7.729000	5.204141	-2.766468	-1.867901	-0.005597	-2.456860	0.640920	4.730600	-0.750242	0.096679	0.637450	-1.000000	-1.000000	-1.000000	-1.000000	-1.000000	-1.000000	-1.000000	51.000000	0.000000	-1.000000	-1.000000	353947.000000	1775803980.270932
-15323.805000	-27884.970000	1308.870000	20776.005000	7035.660000	-10100.385000	-40837.905000	-32966.010000	4.249618	6.468866	8.625356	4.261332	5.399812	-2.819146	-2.005643	0.575287	-2.762060	0.412020	5.066320	-0.748411	0.098327	0.637144	-1.000000	-1.000000	-1.000000	-1.000000	-1.000000	-1.000000	-1.000000	51.000000	0.000000	-1.000000	-1.000000	353948.000000	1775803980.275724
-15332.265000	-27893.160000	1300.680000	20768.490000	7030.935000	-10106.100000	-40845.285000	-32974.875000	2.431128	3.222740	3.663503	-0.029695	3.164625	-1.412272	-1.645091	0.615035	-2.762060	0.412020	5.066320	-0.748411	0.098327	0.637144	-1.000000	-1.000000	-1.000000	-1.000000	-1.000000	-1.000000	-1.000000	51.000000	0.000000	-1.000000	-1.000000	353949.000000	1775803980.275749
-15327.450000	-27887.355000	1305.900000	20773.305000	7035.480000	-10098.675000	-40841.595000	-32971.500000	-0.575312	-1.153735	-2.204311	-4.125571	-0.953991	0.046492	-1.364349	-0.296452	-2.762060	0.412020	5.066320	-0.748411	0.098327	0.637144	-1.000000	-1.000000	-1.000000	-1.000000	-1.000000	-1.000000	-1.000000	51.000000	0.000000	-1.000000	-1.000000	353950.000000	1775803980.279364
-15332.085000	-27892.980000	1300.185000	20770.830000	7031.205000	-10100.250000	-40843.395000	-32974.695000	-3.625742	-5.184088	-7.006933	-6.771861	-5.089637	0.857941	-1.244637	-1.632329	-2.762060	0.412020	5.066320	-0.748411	0.098327	0.637144	-1.000000	-1.000000	-1.000000	-1.000000	-1.000000	-1.000000	-1.000000	51.000000	0.000000	-1.000000	-1.000000	353951.000000	1775803980.279390
-15329.025000	-27894.555000	1297.395000	20769.795000	7029.180000	-10097.505000	-40834.440000	-32968.215000	-5.223668	-7.315737	-9.131913	-7.024303	-7.419188	1.126184	-0.695979	-2.190153	-2.762060	0.412020	5.066320	-0.748411	0.098327	0.637144	-1.000000	-1.000000	-1.000000	-1.000000	-1.000000	-1.000000	-1.000000	51.000000	0.000000	-1.000000	-1.000000	353952.000000	1775803980.283791
-15329.565000	-27893.565000	1299.780000	20768.355000	7020.675000	-10106.415000	-40837.725000	-32970.510000	-4.697640	-6.997573	-8.265665	-5.150413	-7.409238	0.828652	0.594147	-1.337632	-2.762060	0.412020	5.066320	-0.748411	0.098327	0.637144	-1.000000	-1.000000	-1.000000	-1.000000	-1.000000	-1.000000	-1.000000	51.000000	0.000000	-1.000000	-1.000000	353953.000000	1775803980.283817
-15329.880000	-27894.240000	1298.160000	20759.985000	7012.845000	-10110.465000	-40834.440000	-32968.215000	-2.509600	-4.562637	-5.041140	-2.372633	-5.723006	-0.277919	2.001335	0.385072	-2.762060	0.412020	5.066320	-0.748411	0.098327	0.637144	-1.000000	-1.000000	-1.000000	-1.000000	-1.000000	-1.000000	-1.000000	51.000000	0.000000	-1.000000	-1.000000	353954.000000	1775803980.285402
-15325.380000	-27890.640000	1298.160000	20763.990000	7019.010000	-10107.630000	-40831.965000	-32964.930000	0.208604	-0.954427	-0.767689	0.070152	-3.104000	-1.802757	2.603549	1.890659	-2.762060	0.412020	5.066320	-0.748411	0.098327	0.637144	-1.000000	-1.000000	-1.000000	-1.000000	-1.000000	-1.000000	-1.000000	51.000000	0.000000	-1.000000	-1.000000	353955.000000	1775803980.285450
-15324.480000	-27884.160000	1303.920000	20767.995000	7022.520000	-10109.430000	-40839.345000	-32971.365000	2.448902	2.657494	3.024171	1.906585	0.409133	-2.502761	2.012205	2.392839	-2.762060	0.412020	5.066320	-0.748411	0.098327	0.637144	-1.000000	-1.000000	-1.000000	-1.000000	-1.000000	-1.000000	-1.000000	51.000000	0.000000	-1.000000	-1.000000	353956.000000	1775803980.290334
-15323.580000	-27880.785000	1309.050000	20771.910000	7019.145000	-10104.615000	-40837.770000	-32970.465000	3.586999	5.318889	5.469536	3.564119	4.435862	-1.541900	0.337977	1.564214	-2.762060	0.412020	5.066320	-0.748411	0.098327	0.637144	-1.000000	-1.000000	-1.000000	-1.000000	-1.000000	-1.000000	-1.000000	51.000000	0.000000	-1.000000	-1.000000	353957.000000	1775803980.290358
-15326.100000	-27886.050000	1304.010000	20765.205000	6997.680000	-10105.785000	-40835.610000	-32969.970000	3.274467	6.124616	6.189162	4.760047	6.941043	0.640712	-1.594566	-0.139920	-0.793520	-1.526000	5.600420	-0.749693	0.097290	0.638975	-1.000000	-1.000000	-1.000000	-1.000000	-1.000000	-1.000000	-1.000000	51.000000	0.000000	-1.000000	-1.000000	353958.000000	1775803980.294219
-15324.750000	-27887.040000	1302.120000	20767.680000	7003.080000	-10100.655000	-40831.740000	-32968.665000	1.678322	4.415618	4.774087	4.468863	5.911965	2.815135	-2.447624	-1.541617	-0.793520	-1.526000	5.600420	-0.749693	0.097290	0.638975	-1.000000	-1.000000	-1.000000	-1.000000	-1.000000	-1.000000	-1.000000	51.000000	0.000000	-1.000000	-1.000000	353959.000000	1775803980.294243
-15319.080000	-27882.405000	1306.440000	20772.945000	7026.255000	-10095.930000	-40829.130000	-32964.345000	-0.263334	0.879855	1.604274	2.583776	2.797856	3.969463	-1.614125	-1.736937	-0.793520	-1.526000	5.600420	-0.749693	0.097290	0.638975	-1.000000	-1.000000	-1.000000	-1.000000	-1.000000	-1.000000	-1.000000	51.000000	0.000000	-1.000000	-1.000000	353960.000000	1775803980.298306
-15323.715000	-27887.265000	1300.860000	20767.860000	7042.545000	-10096.515000	-40832.505000	-32969.115000	-1.461071	-2.517392	-1.746217	0.250496	1.666647	3.768587	0.132762	-0.822410	-0.793520	-1.526000	5.600420	-0.749693	0.097290	0.638975	-1.000000	-1.000000	-1.000000	-1.000000	-1.000000	-1.000000	-1.000000	51.000000	0.000000	-1.000000	-1.000000	353961.000000	1775803980.298332
-15323.130000	-27886.095000	1301.760000	20769.030000	7030.260000	-10102.230000	-40833.540000	-32969.115000	-1.743922	-4.288648	-3.858425	-1.626331	3.554043	2.128512	1.315703	0.213677	-0.793520	-1.526000	5.600420	-0.749693	0.097290	0.638975	-1.000000	-1.000000	-1.000000	-1.000000	-1.000000	-1.000000	-1.000000	51.000000	0.000000	-1.000000	-1.000000	353962.000000	1775803980.302470
-15320.970000	-27884.790000	1301.715000	20770.830000	7029.630000	-10103.940000	-40834.215000	-32967.090000	-1.553509	-4.154222	-4.249869	-2.730377	4.709964	-0.746172	1.123433	0.564728	-0.793520	-1.526000	5.600420	-0.749693	0.097290	0.638975	-1.000000	-1.000000	-1.000000	-1.000000	-1.000000	-1.000000	-1.000000	51.000000	0.000000	-1.000000	-1.000000	353963.000000	1775803980.302497
-15319.890000	-27886.320000	1298.520000	20767.230000	7025.670000	-10103.310000	-40834.260000	-32965.560000	-1.036498	-2.559320	-3.136203	-2.880372	1.847304	-3.731793	0.025450	0.411528	-0.793520	-1.526000	5.600420	-0.749693	0.097290	0.638975	-1.000000	-1.000000	-1.000000	-1.000000	-1.000000	-1.000000	-1.000000	51.000000	0.000000	-1.000000	-1.000000	353964.000000	1775803980.306292
-15318.765000	-27883.170000	1305.810000	20767.230000	7021.485000	-10095.750000	-40831.290000	-32964.840000	-0.232032	-0.382137	-1.165347	-2.284525	-3.957989	-5.060686	-0.897660	0.295432	-0.793520	-1.526000	5.600420	-0.749693	0.097290	0.638975	-1.000000	-1.000000	-1.000000	-1.000000	-1.000000	-1.000000	-1.000000	51.000000	0.000000	-1.000000	-1.000000	353965.000000	1775803980.306320
-15319.665000	-27881.415000	1313.505000	20776.275000	7027.425000	-10091.340000	-40831.965000	-32966.235000	0.535660	1.530391	1.172944	-1.214127	-8.962394	-3.663391	-0.920108	0.314784	-0.793520	-1.526000	5.600420	-0.749693	0.097290	0.638975	-1.000000	-1.000000	-1.000000	-1.000000	-1.000000	-1.000000	-1.000000	51.000000	0.000000	-1.000000	-1.000000	353966.000000	1775803980.314178
-15321.015000	-27887.040000	1299.825000	20767.770000	7032.645000	-10085.085000	-40831.650000	-32968.170000	0.834709	2.566705	3.176127	0.214707	-9.902795	-0.218107	-0.182970	0.171455	-0.793520	-1.526000	5.600420	-0.749693	0.097290	0.638975	-1.000000	-1.000000	-1.000000	-1.000000	-1.000000	-1.000000	-1.000000	51.000000	0.000000	-1.000000	-1.000000	353967.000000	1775803980.314205
-15322.950000	-27892.215000	1291.905000	20759.265000	7029.315000	-10098.630000	-40838.670000	-32969.385000	0.481602	2.182662	3.241994	1.145676	-6.264407	2.969677	0.492230	-0.321849	-0.366240	-0.289940	6.012440	-0.749876	0.101318	0.639159	-1.000000	-1.000000	-1.000000	-1.000000	-1.000000	-1.000000	-1.000000	51.000000	0.000000	-1.000000	-1.000000	353968.000000	1775803980.315658
-15315.750000	-27883.845000	1302.525000	20772.540000	7036.335000	-10100.565000	-40837.815000	-32964.165000	-0.129469	0.630931	0.900419	0.834306	-0.500903	3.440981	0.396287	-0.821470	-0.366240	-0.289940	6.012440	-0.749876	0.101318	0.639159	-1.000000	-1.000000	-1.000000	-1.000000	-1.000000	-1.000000	-1.000000	51.000000	0.000000	-1.000000	-1.000000	353969.000000	1775803980.315685
-15312.735000	-27880.425000	1306.215000	20773.755000	7026.615000	-10098.720000	-40835.880000	-32963.445000	-0.174561	-0.582321	-1.541139	0.321084	4.156218	0.983142	-0.228362	-0.684546	-0.366240	-0.289940	6.012440	-0.749876	0.101318	0.639159	-1.000000	-1.000000	-1.000000	-1.000000	-1.000000	-1.000000	-1.000000	51.000000	0.000000	-1.000000	-1.000000	353970.000000	1775803980.328005
-15320.790000	-27889.470000	1297.215000	20761.650000	7016.625000	-10107.315000	-40840.605000	-32972.040000	0.452611	-0.494188	-1.923230	0.574756	5.482790	-2.139911	-0.551799	0.007001	-0.366240	-0.289940	6.012440	-0.749876	0.101318	0.639159	-1.000000	-1.000000	-1.000000	-1.000000	-1.000000	-1.000000	-1.000000	51.000000	0.000000	-1.000000	-1.000000	353971.000000	1775803980.328032
-15321.375000	-27889.290000	1299.465000	20764.980000	7024.230000	-10105.245000	-40841.505000	-32974.200000	0.694438	0.002885	-0.854906	0.717698	3.398608	-3.765044	-0.349856	0.254104	-0.366240	-0.289940	6.012440	-0.749876	0.101318	0.639159	-1.000000	-1.000000	-1.000000	-1.000000	-1.000000	-1.000000	-1.000000	51.000000	0.000000	-1.000000	-1.000000	353972.000000	1775803980.328164
-15315.750000	-27884.610000	1302.930000	20768.085000	7033.995000	-10098.585000	-40837.320000	-32968.305000	0.025763	-0.026093	0.207522	0.156062	0.558503	-3.043574	0.117065	-0.262435	-0.366240	-0.289940	6.012440	-0.749876	0.101318	0.639159	-1.000000	-1.000000	-1.000000	-1.000000	-1.000000	-1.000000	-1.000000	51.000000	0.000000	-1.000000	-1.000000	353973.000000	1775803980.328182
-15316.830000	-27888.210000	1300.725000	20774.160000	7026.975000	-10098.360000	-40836.420000	-32967.945000	-0.670671	-0.236579	0.868030	-0.186119	-0.290225	-0.212559	0.819539	-0.529908	-0.366240	-0.289940	6.012440	-0.749876	0.101318	0.639159	-1.000000	-1.000000	-1.000000	-1.000000	-1.000000	-1.000000	-1.000000	51.000000	0.000000	-1.000000	-1.000000	353974.000000	1775803980.329561
-15321.330000	-27891.810000	1299.870000	20772.180000	7020.630000	-10099.980000	-40841.415000	-32974.065000	-0.720346	-0.279296	1.080635	0.374259	0.486277	3.135408	1.510778	0.039536	-0.366240	-0.289940	6.012440	-0.749876	0.101318	0.639159	-1.000000	-1.000000	-1.000000	-1.000000	-1.000000	-1.000000	-1.000000	51.000000	0.000000	-1.000000	-1.000000	353975.000000	1775803980.329586
-15315.480000	-27884.205000	1306.485000	20775.870000	7023.060000	-10094.940000	-40838.895000	-32971.140000	-0.412249	-0.254760	0.843811	1.230851	0.813664	4.963024	1.537528	0.743305	-0.366240	-0.289940	6.012440	-0.749876	0.101318	0.639159	-1.000000	-1.000000	-1.000000	-1.000000	-1.000000	-1.000000	-1.000000	51.000000	0.000000	-1.000000	-1.000000	353976.000000	1775803980.331406
-15315.030000	-27885.780000	1302.480000	20772.045000	7025.265000	-10091.520000	-40835.385000	-32968.395000	0.045338	0.043647	0.499672	1.383288	0.168600	4.594355	0.844591	1.014110	-0.366240	-0.289940	6.012440	-0.749876	0.101318	0.639159	-1.000000	-1.000000	-1.000000	-1.000000	-1.000000	-1.000000	-1.000000	51.000000	0.000000	-1.000000	-1.000000	353977.000000	1775803980.331438
-15314.715000	-27883.935000	1305.090000	20768.805000	7017.570000	-10097.955000	-40840.110000	-32970.375000	0.644699	0.684525	0.197947	0.378866	-0.584238	2.633491	0.041045	1.029647	0.244160	1.876980	6.042960	-0.748533	0.107849	0.640806	-1.000000	-1.000000	-1.000000	-1.000000	-1.000000	-1.000000	-1.000000	51.000000	0.000000	-1.000000	-1.000000	353978.000000	1775803980.334190
-15312.510000	-27880.290000	1310.670000	20774.790000	7008.660000	-10106.190000	-40843.485000	-32972.130000	1.074678	1.224837	-0.082391	-1.297901	-1.202565	-0.344168	-0.688752	0.825613	0.244160	1.876980	6.042960	-0.748533	0.107849	0.640806	-1.000000	-1.000000	-1.000000	-1.000000	-1.000000	-1.000000	-1.000000	51.000000	0.000000	-1.000000	-1.000000	353979.000000	1775803980.334210
-15303.510000	-27876.420000	1300.860000	20766.285000	7017.345000	-10101.105000	-40834.485000	-32961.780000	1.203617	1.388008	-0.301827	-2.519366	-1.774698	-3.564228	-1.322164	0.405864	0.244160	1.876980	6.042960	-0.748533	0.107849	0.640806	-1.000000	-1.000000	-1.000000	-1.000000	-1.000000	-1.000000	-1.000000	51.000000	0.000000	-1.000000	-1.000000	353980.000000	1775803980.338928
-15304.455000	-27873.315000	1313.100000	20791.080000	7035.480000	-10103.355000	-40835.925000	-32963.670000	1.259458	1.223292	-0.587503	-2.291748	-1.191042	-5.404921	-1.279077	0.233296	0.244160	1.876980	6.042960	-0.748533	0.107849	0.640806	-1.000000	-1.000000	-1.000000	-1.000000	-1.000000	-1.000000	-1.000000	51.000000	0.000000	-1.000000	-1.000000	353981.000000	1775803980.338954
-15304.365000	-27876.870000	1308.825000	20776.095000	7032.330000	-10098.225000	-40833.180000	-32962.725000	1.070919	0.659829	-0.761176	-0.375349	1.518373	-4.632868	-0.349288	0.380166	0.244160	1.876980	6.042960	-0.748533	0.107849	0.640806	-1.000000	-1.000000	-1.000000	-1.000000	-1.000000	-1.000000	-1.000000	51.000000	0.000000	-1.000000	-1.000000	353982.000000	1775803980.341187
-15308.145000	-27879.435000	1302.885000	20771.640000	7038.000000	-10087.785000	-40830.660000	-32963.760000	0.098689	-0.551623	-0.708331	1.659669	4.730585	-1.491926	0.779799	0.222454	0.244160	1.876980	6.042960	-0.748533	0.107849	0.640806	-1.000000	-1.000000	-1.000000	-1.000000	-1.000000	-1.000000	-1.000000	51.000000	0.000000	-1.000000	-1.000000	353983.000000	1775803980.341211
-15314.040000	-27885.240000	1299.465000	20763.855000	7028.370000	-10089.855000	-40835.340000	-32969.790000	-1.723413	-2.331704	-0.986901	1.509930	5.490271	2.554859	1.287196	-0.661436	0.244160	1.876980	6.042960	-0.748533	0.107849	0.640806	-1.000000	-1.000000	-1.000000	-1.000000	-1.000000	-1.000000	-1.000000	51.000000	0.000000	-1.000000	-1.000000	353984.000000	1775803980.348729
-15307.740000	-27882.360000	1301.805000	20767.770000	7025.085000	-10093.005000	-40835.340000	-32965.740000	-3.536308	-3.867358	-1.639518	-0.749761	2.522179	5.203122	0.716557	-1.967355	0.244160	1.876980	6.042960	-0.748533	0.107849	0.640806	-1.000000	-1.000000	-1.000000	-1.000000	-1.000000	-1.000000	-1.000000	51.000000	0.000000	-1.000000	-1.000000	353985.000000	1775803980.348758
-15305.265000	-27879.795000	1302.795000	20763.945000	7034.580000	-10091.475000	-40834.575000	-32964.615000	-3.861489	-3.932197	-1.708274	-2.770322	-2.480212	4.738576	-0.622213	-2.696077	0.244160	1.876980	6.042960	-0.748533	0.107849	0.640806	-1.000000	-1.000000	-1.000000	-1.000000	-1.000000	-1.000000	-1.000000	51.000000	0.000000	-1.000000	-1.000000	353986.000000	1775803980.349269
-15306.255000	-27877.995000	1306.395000	20759.310000	7026.075000	-10093.860000	-40837.140000	-32967.630000	-2.055984	-1.968538	-0.502837	-2.844462	-6.165511	1.672357	-1.770373	-2.099827	0.244160	1.876980	6.042960	-0.748533	0.107849	0.640806	-1.000000	-1.000000	-1.000000	-1.000000	-1.000000	-1.000000	-1.000000	51.000000	0.000000	-1.000000	-1.000000	353987.000000	1775803980.349292
-15311.790000	-27879.165000	1311.480000	20785.680000	7025.130000	-10101.555000	-40842.000000	-32976.315000	0.632282	1.091495	1.617031	-0.768613	-6.727665	-2.059739	-2.147823	-0.777171	0.137340	3.174080	4.700080	-0.745970	0.110840	0.642210	-1.000000	-1.000000	-1.000000	-1.000000	-1.000000	-1.000000	-1.000000	51.000000	0.000000	-1.000000	-1.000000	353988.000000	1775803980.361909
-15312.195000	-27877.005000	1316.070000	20805.525000	7049.025000	-10094.805000	-40834.890000	-32977.620000	2.294316	3.514555	3.640249	3.433177	-4.366891	-4.663031	-1.738620	0.049375	0.137340	3.174080	4.700080	-0.745970	0.110840	0.642210	-1.000000	-1.000000	-1.000000	-1.000000	-1.000000	-1.000000	-1.000000	51.000000	0.000000	-1.000000	-1.000000	353989.000000	1775803980.361937
-15309.225000	-27877.320000	1312.380000	20788.110000	7034.940000	-10090.890000	-40832.730000	-32972.760000	2.333513	4.193817	4.422706	8.159222	0.021472	-4.806005	-0.453968	0.240579	0.137340	3.174080	4.700080	-0.745970	0.110840	0.642210	-1.000000	-1.000000	-1.000000	-1.000000	-1.000000	-1.000000	-1.000000	51.000000	0.000000	-1.000000	-1.000000	353990.000000	1775803980.361968
-15299.955000	-27876.645000	1307.070000	20776.635000	7025.940000	-10098.675000	-40847.670000	-32962.140000	1.786048	3.171986	3.076879	8.967855	3.849665	-2.450378	1.199534	0.926695	0.137340	3.174080	4.700080	-0.745970	0.110840	0.642210	-1.000000	-1.000000	-1.000000	-1.000000	-1.000000	-1.000000	-1.000000	51.000000	0.000000	-1.000000	-1.000000	353991.000000	1775803980.361980
-15298.605000	-27874.755000	1308.555000	20780.595000	7034.535000	-10093.455000	-40848.570000	-32962.275000	1.825422	1.258521	-0.158222	3.370415	4.352881	0.638748	1.722111	2.746031	0.137340	3.174080	4.700080	-0.745970	0.110840	0.642210	-1.000000	-1.000000	-1.000000	-1.000000	-1.000000	-1.000000	-1.000000	51.000000	0.000000	-1.000000	-1.000000	353992.000000	1775803980.361996
-15302.250000	-27877.050000	1307.295000	20783.025000	7046.955000	-10086.030000	-40845.915000	-32966.640000	2.202106	-0.595341	-3.531041	-5.054262	2.396756	2.848406	0.696957	4.432488	0.137340	3.174080	4.700080	-0.745970	0.110840	0.642210	-1.000000	-1.000000	-1.000000	-1.000000	-1.000000	-1.000000	-1.000000	51.000000	0.000000	-1.000000	-1.000000	353993.000000	1775803980.362007
-15304.410000	-27878.040000	1307.025000	20782.935000	7039.080000	-10091.925000	-40850.730000	-32971.500000	1.627108	-1.865166	-5.117531	-10.411500	0.826879	3.825102	-0.454099	3.945326	0.137340	3.174080	4.700080	-0.745970	0.110840	0.642210	-1.000000	-1.000000	-1.000000	-1.000000	-1.000000	-1.000000	-1.000000	51.000000	0.000000	-1.000000	-1.000000	353994.000000	1775803980.366934
-15299.730000	-27874.620000	1309.095000	20785.365000	7018.785000	-10096.065000	-40847.220000	-32967.135000	-0.263265	-2.375366	-4.288269	-10.022224	-0.071588	3.281004	-0.546555	0.982572	0.137340	3.174080	4.700080	-0.745970	0.110840	0.642210	-1.000000	-1.000000	-1.000000	-1.000000	-1.000000	-1.000000	-1.000000	51.000000	0.000000	-1.000000	-1.000000	353995.000000	1775803980.366962
-15300.225000	-27876.465000	1308.555000	20784.735000	7006.050000	-10102.500000	-40848.075000	-32966.595000	-2.256804	-2.017222	-1.755433	-5.283794	-2.169365	1.002241	0.382803	-2.456185	0.137340	3.174080	4.700080	-0.745970	0.110840	0.642210	-1.000000	-1.000000	-1.000000	-1.000000	-1.000000	-1.000000	-1.000000	51.000000	0.000000	-1.000000	-1.000000	353996.000000	1775803980.377172
