Channel1	Channel2	Channel3	Channel4	Channel5	Channel6	Channel7	Channel8	FilteredChannel1	FilteredChannel2	FilteredChannel3	FilteredChannel4	FilteredChannel5	FilteredChannel6	FilteredChannel7	FilteredChannel8	GyroX	GyroY	GyroZ	AccX	AccY	AccZ	PPG1	PPG2	rawPPG1	rawPPG2	rawPPG3	Hr	Hrv	Battery	Trigger	PhysicalTrigger	AutoTrigger	NumMeasurements	Timestamp
-18028.935000	-31527.585000	-145.080000	20162.520000	5983.470000	-11636.955000	-36777.645000	-23697.765000	2.200541	2.688026	3.683795	4.468874	3.831071	-3.770887	3.661362	1.913232	2.350040	2.533160	-1.495480	-0.648985	0.085205	0.739134	-1.000000	-1.000000	-1.000000	-1.000000	-1.000000	-1.000000	-1.000000	51.000000	0.000000	-1.000000	-1.000000	259020.000000	1775803790.360317
-18025.380000	-31523.895000	-140.085000	20170.620000	5992.380000	-11640.915000	-36777.240000	-23694.255000	3.847814	4.043698	3.853368	1.395197	-2.983054	-3.241836	2.642907	3.488498	2.350040	2.533160	-1.495480	-0.648985	0.085205	0.739134	-1.000000	-1.000000	-1.000000	-1.000000	-1.000000	-1.000000	-1.000000	51.000000	0.000000	-1.000000	-1.000000	259021.000000	1775803790.360331
-18028.890000	-31525.605000	-141.615000	20170.755000	5995.035000	-11645.415000	-36779.895000	-23698.170000	3.248708	3.148533	2.148438	-1.643314	-7.445440	-1.887651	0.780763	3.245662	2.350040	2.533160	-1.495480	-0.648985	0.085205	0.739134	-1.000000	-1.000000	-1.000000	-1.000000	-1.000000	-1.000000	-1.000000	51.000000	0.000000	-1.000000	-1.000000	259022.000000	1775803790.360343
-18030.555000	-31526.325000	-141.840000	20168.415000	5994.045000	-11642.130000	-36779.940000	-23700.690000	1.469370	1.337133	0.162633	-2.849465	-7.076180	-0.568162	-0.992796	1.800802	2.350040	2.533160	-1.495480	-0.648985	0.085205	0.739134	-1.000000	-1.000000	-1.000000	-1.000000	-1.000000	-1.000000	-1.000000	51.000000	0.000000	-1.000000	-1.000000	259023.000000	1775803790.363510
-18029.565000	-31523.760000	-140.445000	20169.135000	5995.485000	-11636.055000	-36776.430000	-23700.195000	-0.323104	-0.197717	-1.102030	-2.431653	-3.269628	0.891882	-1.813481	0.006066	2.350040	2.533160	-1.495480	-0.648985	0.085205	0.739134	-1.000000	-1.000000	-1.000000	-1.000000	-1.000000	-1.000000	-1.000000	51.000000	0.000000	-1.000000	-1.000000	259024.000000	1775803790.363540
-18029.700000	-31522.815000	-138.645000	20172.870000	5995.755000	-11635.200000	-36777.960000	-23701.320000	-1.304049	-0.859318	-1.395020	-1.389213	0.889349	2.726901	-1.387215	-1.282466	2.350040	2.533160	-1.495480	-0.648985	0.085205	0.739134	-1.000000	-1.000000	-1.000000	-1.000000	-1.000000	-1.000000	-1.000000	51.000000	0.000000	-1.000000	-1.000000	259025.000000	1775803790.376319
-18032.625000	-31524.660000	-139.725000	20168.730000	5984.505000	-11640.465000	-36782.505000	-23704.380000	-1.282190	-0.719583	-0.950928	-0.362818	3.040673	4.114336	-0.339693	-1.620087	2.350040	2.533160	-1.495480	-0.648985	0.085205	0.739134	-1.000000	-1.000000	-1.000000	-1.000000	-1.000000	-1.000000	-1.000000	51.000000	0.000000	-1.000000	-1.000000	259026.000000	1775803790.376354
-18031.230000	-31521.645000	-134.415000	20174.580000	5985.135000	-11641.230000	-36780.570000	-23704.335000	-0.722853	-0.344960	-0.265152	0.282302	2.381407	3.725028	0.306091	-1.232787	3.860780	2.655240	-1.602300	-0.649901	0.085510	0.741148	-1.000000	-1.000000	-1.000000	-1.000000	-1.000000	-1.000000	-1.000000	51.000000	0.000000	-1.000000	-1.000000	259027.000000	1775803790.376387
-18033.615000	-31524.660000	-137.565000	20173.230000	5983.470000	-11643.030000	-36777.645000	-23703.300000	-0.143458	-0.177030	0.268910	0.511678	0.050099	1.408793	0.338875	-0.504145	3.860780	2.655240	-1.602300	-0.649901	0.085510	0.741148	-1.000000	-1.000000	-1.000000	-1.000000	-1.000000	-1.000000	-1.000000	51.000000	0.000000	-1.000000	-1.000000	259028.000000	1775803790.376402
-18028.305000	-31525.560000	-146.565000	20163.285000	5987.970000	-11639.340000	-36775.440000	-23694.705000	0.296156	-0.363822	0.183558	0.292883	-1.708461	-1.418830	0.351479	0.502504	3.860780	2.655240	-1.602300	-0.649901	0.085510	0.741148	-1.000000	-1.000000	-1.000000	-1.000000	-1.000000	-1.000000	-1.000000	51.000000	0.000000	-1.000000	-1.000000	259029.000000	1775803790.376418
-18020.745000	-31518.045000	-141.795000	20165.940000	5989.860000	-11643.390000	-36779.490000	-23689.755000	0.849309	-0.677146	-0.799707	-0.600041	-1.458381	-3.122750	0.570425	1.856244	3.860780	2.655240	-1.602300	-0.649901	0.085510	0.741148	-1.000000	-1.000000	-1.000000	-1.000000	-1.000000	-1.000000	-1.000000	51.000000	0.000000	-1.000000	-1.000000	259030.000000	1775803790.376430
-18028.305000	-31523.715000	-144.945000	20163.330000	5981.760000	-11646.180000	-36782.280000	-23698.440000	1.549764	-0.617862	-1.903122	-1.683330	0.283257	-3.253211	0.464012	2.913237	3.860780	2.655240	-1.602300	-0.649901	0.085510	0.741148	-1.000000	-1.000000	-1.000000	-1.000000	-1.000000	-1.000000	-1.000000	51.000000	0.000000	-1.000000	-1.000000	259031.000000	1775803790.386606
-18029.700000	-31525.065000	-144.405000	20164.320000	5981.355000	-11642.580000	-36782.010000	-23699.880000	1.529300	-0.289408	-2.015373	-1.919631	1.672147	-2.356313	-0.323420	2.317564	3.860780	2.655240	-1.602300	-0.649901	0.085510	0.741148	-1.000000	-1.000000	-1.000000	-1.000000	-1.000000	-1.000000	-1.000000	51.000000	0.000000	-1.000000	-1.000000	259032.000000	1775803790.386635
-18025.110000	-31520.115000	-138.735000	20172.690000	5989.140000	-11635.695000	-36774.765000	-23693.625000	0.244079	-0.163157	-0.864449	-0.786902	1.740394	-0.791432	-1.135178	-0.080875	3.860780	2.655240	-1.602300	-0.649901	0.085510	0.741148	-1.000000	-1.000000	-1.000000	-1.000000	-1.000000	-1.000000	-1.000000	51.000000	0.000000	-1.000000	-1.000000	259033.000000	1775803790.386665
-18024.435000	-31520.070000	-138.555000	20173.410000	5989.995000	-11635.155000	-36772.785000	-23692.725000	-1.339012	-0.076317	1.081226	1.424417	1.277566	1.247385	-0.929407	-2.469347	3.860780	2.655240	-1.602300	-0.649901	0.085510	0.741148	-1.000000	-1.000000	-1.000000	-1.000000	-1.000000	-1.000000	-1.000000	51.000000	0.000000	-1.000000	-1.000000	259034.000000	1775803790.386678
-18029.790000	-31526.055000	-143.865000	20166.570000	5982.345000	-11639.655000	-36775.755000	-23697.630000	-2.114796	0.146493	2.716476	3.388471	0.936834	2.825991	0.252850	-3.298646	3.860780	2.655240	-1.602300	-0.649901	0.085510	0.741148	-1.000000	-1.000000	-1.000000	-1.000000	-1.000000	-1.000000	-1.000000	51.000000	0.000000	-1.000000	-1.000000	259035.000000	1775803790.388118
-18028.170000	-31524.480000	-145.125000	20161.530000	5978.205000	-11646.270000	-36776.790000	-23696.910000	-2.084821	0.105215	2.787286	3.338491	0.146518	2.609744	1.154239	-2.776808	3.860780	2.655240	-1.602300	-0.649901	0.085510	0.741148	-1.000000	-1.000000	-1.000000	-1.000000	-1.000000	-1.000000	-1.000000	51.000000	0.000000	-1.000000	-1.000000	259036.000000	1775803790.388147
-18024.705000	-31520.070000	-138.870000	20170.395000	5992.830000	-11641.230000	-36772.740000	-23694.165000	-1.525961	-0.194948	1.311218	1.120620	-1.132047	0.489895	0.931110	-1.678624	1.541260	2.014320	-0.854560	-0.651854	0.092102	0.741026	-1.000000	-1.000000	-1.000000	-1.000000	-1.000000	-1.000000	-1.000000	51.000000	0.000000	-1.000000	-1.000000	259037.000000	1775803790.392801
-18023.220000	-31517.190000	-134.550000	20173.275000	5986.620000	-11639.025000	-36771.705000	-23692.815000	-0.401956	-0.070438	-0.213608	-1.217697	-1.619334	-1.806246	0.076237	-0.298049	1.541260	2.014320	-0.854560	-0.651854	0.092102	0.741026	-1.000000	-1.000000	-1.000000	-1.000000	-1.000000	-1.000000	-1.000000	51.000000	0.000000	-1.000000	-1.000000	259038.000000	1775803790.392830
-18022.860000	-31515.930000	-132.840000	20174.535000	5970.735000	-11637.720000	-36772.470000	-23692.590000	1.006609	0.711227	-0.562981	-1.817307	-1.167795	-2.449782	-0.574402	1.109586	1.541260	2.014320	-0.854560	-0.651854	0.092102	0.741026	-1.000000	-1.000000	-1.000000	-1.000000	-1.000000	-1.000000	-1.000000	51.000000	0.000000	-1.000000	-1.000000	259039.000000	1775803790.398869
-18023.220000	-31516.695000	-132.885000	20178.000000	5977.395000	-11636.955000	-36774.810000	-23693.265000	1.944347	1.464960	-0.038499	-0.847391	-1.176023	-1.311419	-0.866440	1.994971	1.541260	2.014320	-0.854560	-0.651854	0.092102	0.741026	-1.000000	-1.000000	-1.000000	-1.000000	-1.000000	-1.000000	-1.000000	51.000000	0.000000	-1.000000	-1.000000	259040.000000	1775803790.398900
-18019.800000	-31514.040000	-133.020000	20175.255000	5990.850000	-11626.920000	-36767.430000	-23688.945000	1.924536	1.420172	0.260225	0.338683	-1.414939	0.562514	-0.923379	2.021483	1.541260	2.014320	-0.854560	-0.651854	0.092102	0.741026	-1.000000	-1.000000	-1.000000	-1.000000	-1.000000	-1.000000	-1.000000	51.000000	0.000000	-1.000000	-1.000000	259041.000000	1775803790.402351
-18026.955000	-31522.140000	-140.130000	20169.225000	6015.960000	-11623.140000	-36771.390000	-23695.515000	1.047363	0.403286	-0.381777	0.498548	0.288706	2.289212	-0.616760	1.327416	1.541260	2.014320	-0.854560	-0.651854	0.092102	0.741026	-1.000000	-1.000000	-1.000000	-1.000000	-1.000000	-1.000000	-1.000000	51.000000	0.000000	-1.000000	-1.000000	259042.000000	1775803790.402380
-18025.515000	-31519.890000	-136.890000	20171.610000	5999.760000	-11628.090000	-36773.775000	-23695.515000	-0.357528	-1.229931	-1.787000	-0.666527	4.122892	3.077944	-0.134642	0.131444	1.541260	2.014320	-0.854560	-0.651854	0.092102	0.741026	-1.000000	-1.000000	-1.000000	-1.000000	-1.000000	-1.000000	-1.000000	51.000000	0.000000	-1.000000	-1.000000	259043.000000	1775803790.411839
-18022.590000	-31513.320000	-133.335000	20169.765000	5984.010000	-11630.430000	-36772.110000	-23694.165000	-1.625954	-2.480045	-2.813423	-2.136103	6.209873	2.028219	0.005872	-1.155524	1.541260	2.014320	-0.854560	-0.651854	0.092102	0.741026	-1.000000	-1.000000	-1.000000	-1.000000	-1.000000	-1.000000	-1.000000	51.000000	0.000000	-1.000000	-1.000000	259044.000000	1775803790.411870
-18026.145000	-31513.455000	-134.730000	20170.305000	5996.565000	-11626.020000	-36769.275000	-23696.820000	-1.940715	-2.194919	-2.338887	-2.590576	3.195961	-0.648070	-0.104564	-1.817876	1.541260	2.014320	-0.854560	-0.651854	0.092102	0.741026	-1.000000	-1.000000	-1.000000	-1.000000	-1.000000	-1.000000	-1.000000	51.000000	0.000000	-1.000000	-1.000000	259045.000000	1775803790.411901
-18031.680000	-31521.870000	-137.025000	20173.770000	5998.770000	-11625.885000	-36771.255000	-23701.140000	-1.375547	-0.661758	-0.645304	-1.591498	-2.627949	-3.189246	0.024192	-1.636141	1.541260	2.014320	-0.854560	-0.651854	0.092102	0.741026	-1.000000	-1.000000	-1.000000	-1.000000	-1.000000	-1.000000	-1.000000	51.000000	0.000000	-1.000000	-1.000000	259046.000000	1775803790.411914
-18030.510000	-31522.995000	-136.170000	20174.850000	5992.470000	-11621.250000	-36765.000000	-23697.360000	-0.710421	0.486238	0.991308	0.395685	-6.500503	-3.925508	0.481701	-0.974270	-2.731540	1.709120	0.824040	-0.650755	0.097656	0.738401	-1.000000	-1.000000	-1.000000	-1.000000	-1.000000	-1.000000	-1.000000	51.000000	0.000000	-1.000000	-1.000000	259047.000000	1775803790.411997
-18017.055000	-31508.775000	-123.030000	20188.170000	6005.295000	-11624.580000	-36763.380000	-23685.525000	0.049752	0.678106	2.002269	2.577993	-6.470972	-2.703202	1.088380	0.197090	-2.731540	1.709120	0.824040	-0.650755	0.097656	0.738401	-1.000000	-1.000000	-1.000000	-1.000000	-1.000000	-1.000000	-1.000000	51.000000	0.000000	-1.000000	-1.000000	259048.000000	1775803790.412024
-18005.985000	-31497.435000	-113.265000	20199.690000	6018.030000	-11618.415000	-36762.075000	-23677.155000	1.762228	1.254324	2.970198	4.464358	-3.078198	-0.602303	1.555840	2.234139	-2.731540	1.709120	0.824040	-0.650755	0.097656	0.738401	-1.000000	-1.000000	-1.000000	-1.000000	-1.000000	-1.000000	-1.000000	51.000000	0.000000	-1.000000	-1.000000	259049.000000	1775803790.414566
-18025.965000	-31517.865000	-134.280000	20179.215000	5996.475000	-11625.165000	-36771.795000	-23696.235000	3.893093	2.616644	3.680488	5.156206	1.587996	1.134365	1.263002	4.121258	-2.731540	1.709120	0.824040	-0.650755	0.097656	0.738401	-1.000000	-1.000000	-1.000000	-1.000000	-1.000000	-1.000000	-1.000000	51.000000	0.000000	-1.000000	-1.000000	259050.000000	1775803790.414593
-18028.440000	-31521.330000	-139.095000	20172.555000	6000.030000	-11627.100000	-36769.320000	-23695.560000	3.824521	2.566403	2.219489	2.816581	4.047395	1.652576	-0.219361	3.487263	-2.731540	1.709120	0.824040	-0.650755	0.097656	0.738401	-1.000000	-1.000000	-1.000000	-1.000000	-1.000000	-1.000000	-1.000000	51.000000	0.000000	-1.000000	-1.000000	259051.000000	1775803790.421695
-18026.775000	-31516.290000	-134.055000	20175.255000	6009.795000	-11637.945000	-36779.805000	-23697.900000	0.496120	-0.116309	-1.772880	-2.505305	2.944545	0.687999	-2.305711	-0.120224	-2.731540	1.709120	0.824040	-0.650755	0.097656	0.738401	-1.000000	-1.000000	-1.000000	-1.000000	-1.000000	-1.000000	-1.000000	51.000000	0.000000	-1.000000	-1.000000	259052.000000	1775803790.421723
-18022.680000	-31513.455000	-131.355000	20176.380000	6002.640000	-11635.290000	-36776.205000	-23693.490000	-3.471832	-3.147906	-5.282770	-7.281266	0.521837	-1.083187	-3.753685	-4.006968	-2.731540	1.709120	0.824040	-0.650755	0.097656	0.738401	-1.000000	-1.000000	-1.000000	-1.000000	-1.000000	-1.000000	-1.000000	51.000000	0.000000	-1.000000	-1.000000	259053.000000	1775803790.426062
-18021.465000	-31514.040000	-134.370000	20170.350000	5985.495000	-11632.005000	-36770.985000	-23691.330000	-4.891203	-3.824787	-5.469427	-8.144385	-1.401373	-2.084937	-3.405357	-5.248266	-2.731540	1.709120	0.824040	-0.650755	0.097656	0.738401	-1.000000	-1.000000	-1.000000	-1.000000	-1.000000	-1.000000	-1.000000	51.000000	0.000000	-1.000000	-1.000000	259054.000000	1775803790.426090
-18019.665000	-31513.095000	-132.615000	20175.570000	5990.310000	-11616.030000	-36769.680000	-23688.315000	-3.142370	-2.013399	-2.632099	-5.016953	-2.939806	-0.798074	-0.889222	-3.229260	-2.731540	1.709120	0.824040	-0.650755	0.097656	0.738401	-1.000000	-1.000000	-1.000000	-1.000000	-1.000000	-1.000000	-1.000000	51.000000	0.000000	-1.000000	-1.000000	259055.000000	1775803790.429458
-18015.300000	-31506.300000	-126.225000	20184.255000	6001.335000	-11608.560000	-36765.990000	-23683.455000	0.137621	0.711867	1.139771	0.144965	-3.375228	2.820933	2.629818	0.473525	-2.731540	1.709120	0.824040	-0.650755	0.097656	0.738401	-1.000000	-1.000000	-1.000000	-1.000000	-1.000000	-1.000000	-1.000000	51.000000	0.000000	-1.000000	-1.000000	259056.000000	1775803790.429482
-18023.085000	-31511.295000	-131.040000	20179.665000	5998.410000	-11625.750000	-36771.480000	-23691.330000	2.764234	2.815254	4.010441	5.102999	-1.320955	6.314977	5.040372	3.491909	-3.097780	0.579880	0.350980	-0.653075	0.096802	0.736509	-1.000000	-1.000000	-1.000000	-1.000000	-1.000000	-1.000000	-1.000000	51.000000	0.000000	-1.000000	-1.000000	259057.000000	1775803790.430743
-18025.830000	-31511.745000	-123.480000	20190.555000	5997.555000	-11622.735000	-36779.940000	-23700.915000	3.152671	3.243658	4.916846	7.809850	2.346677	6.177204	4.686573	3.839447	-3.097780	0.579880	0.350980	-0.653075	0.096802	0.736509	-1.000000	-1.000000	-1.000000	-1.000000	-1.000000	-1.000000	-1.000000	51.000000	0.000000	-1.000000	-1.000000	259058.000000	1775803790.430763
-18027.675000	-31513.140000	-125.280000	20185.605000	5991.525000	-11617.155000	-36777.015000	-23701.680000	1.260289	1.811041	3.860819	7.345206	4.844355	1.951452	1.616436	1.213204	-3.097780	0.579880	0.350980	-0.653075	0.096802	0.736509	-1.000000	-1.000000	-1.000000	-1.000000	-1.000000	-1.000000	-1.000000	51.000000	0.000000	-1.000000	-1.000000	259059.000000	1775803790.435342
-18033.570000	-31524.930000	-143.460000	20169.405000	5985.270000	-11638.620000	-36784.395000	-23704.695000	-1.387897	-0.680822	1.335502	3.907034	4.337452	-3.407029	-2.167075	-2.351975	-3.097780	0.579880	0.350980	-0.653075	0.096802	0.736509	-1.000000	-1.000000	-1.000000	-1.000000	-1.000000	-1.000000	-1.000000	51.000000	0.000000	-1.000000	-1.000000	259060.000000	1775803790.435370
-18030.825000	-31527.630000	-151.155000	20163.645000	5984.685000	-11641.410000	-36779.265000	-23698.890000	-3.049960	-3.192398	-2.415342	-1.701262	1.331378	-7.425639	-4.353937	-4.101214	-3.097780	0.579880	0.350980	-0.653075	0.096802	0.736509	-1.000000	-1.000000	-1.000000	-1.000000	-1.000000	-1.000000	-1.000000	51.000000	0.000000	-1.000000	-1.000000	259061.000000	1775803790.443977
-18035.415000	-31532.445000	-155.655000	20160.540000	5986.035000	-11632.230000	-36776.565000	-23699.205000	-2.841028	-4.651667	-6.207162	-7.204506	-1.905300	-8.711162	-3.839125	-2.792164	-3.097780	0.579880	0.350980	-0.653075	0.096802	0.736509	-1.000000	-1.000000	-1.000000	-1.000000	-1.000000	-1.000000	-1.000000	51.000000	0.000000	-1.000000	-1.000000	259062.000000	1775803790.444013
-18018.585000	-31514.175000	-132.075000	20172.285000	6003.585000	-11613.960000	-36763.200000	-23685.255000	-0.789470	-3.800636	-7.194530	-9.244592	-2.899088	-5.731463	-0.859444	0.770677	-3.097780	0.579880	0.350980	-0.653075	0.096802	0.736509	-1.000000	-1.000000	-1.000000	-1.000000	-1.000000	-1.000000	-1.000000	51.000000	0.000000	-1.000000	-1.000000	259063.000000	1775803790.444046
-18024.390000	-31519.980000	-138.150000	20167.785000	6001.065000	-11628.270000	-36770.490000	-23692.140000	2.358228	-0.178000	-3.344493	-6.132586	-0.791299	0.932829	3.002298	4.537796	-3.097780	0.579880	0.350980	-0.653075	0.096802	0.736509	-1.000000	-1.000000	-1.000000	-1.000000	-1.000000	-1.000000	-1.000000	51.000000	0.000000	-1.000000	-1.000000	259064.000000	1775803790.444061
-18021.960000	-31515.795000	-133.830000	20177.460000	5999.580000	-11629.575000	-36775.890000	-23694.165000	4.894118	4.418663	3.386992	0.331390	2.480470	7.011107	5.084684	6.086361	-3.097780	0.579880	0.350980	-0.653075	0.096802	0.736509	-1.000000	-1.000000	-1.000000	-1.000000	-1.000000	-1.000000	-1.000000	51.000000	0.000000	-1.000000	-1.000000	259065.000000	1775803790.447440
-18020.745000	-31513.905000	-131.355000	20179.080000	5998.455000	-11620.845000	-36769.455000	-23690.835000	5.069164	7.054414	8.458478	6.451521	3.796591	8.585430	3.758294	4.230618	-3.097780	0.579880	0.350980	-0.653075	0.096802	0.736509	-1.000000	-1.000000	-1.000000	-1.000000	-1.000000	-1.000000	-1.000000	51.000000	0.000000	-1.000000	-1.000000	259066.000000	1775803790.447474
-18029.520000	-31521.735000	-139.230000	20171.430000	5999.040000	-11619.630000	-36769.500000	-23697.315000	2.662268	6.227787	8.936241	9.164925	2.052305	6.032194	0.339040	0.217095	-2.533160	1.266580	-0.381500	-0.655211	0.092895	0.736937	-1.000000	-1.000000	-1.000000	-1.000000	-1.000000	-1.000000	-1.000000	51.000000	0.000000	-1.000000	-1.000000	259067.000000	1775803790.451380
-18030.510000	-31521.105000	-139.050000	20172.825000	6008.085000	-11616.030000	-36766.305000	-23698.350000	-1.203139	2.434183	4.918614	7.262814	-1.093124	2.121936	-2.537695	-3.687110	-2.533160	1.266580	-0.381500	-0.655211	0.092895	0.736937	-1.000000	-1.000000	-1.000000	-1.000000	-1.000000	-1.000000	-1.000000	51.000000	0.000000	-1.000000	-1.000000	259068.000000	1775803790.451410
-18027.495000	-31516.695000	-132.255000	20180.880000	6011.595000	-11610.675000	-36763.380000	-23695.830000	-4.625786	-2.204707	-0.967717	2.306190	-3.106893	-1.053992	-3.430222	-5.762025	-2.533160	1.266580	-0.381500	-0.655211	0.092895	0.736937	-1.000000	-1.000000	-1.000000	-1.000000	-1.000000	-1.000000	-1.000000	51.000000	0.000000	-1.000000	-1.000000	259069.000000	1775803790.455904
-18028.125000	-31515.705000	-130.455000	20181.645000	6009.705000	-11610.810000	-36768.195000	-23697.855000	-5.688747	-5.036783	-5.154312	-2.328510	-2.970472	-2.715682	-2.607445	-5.234828	-2.533160	1.266580	-0.381500	-0.655211	0.092895	0.736937	-1.000000	-1.000000	-1.000000	-1.000000	-1.000000	-1.000000	-1.000000	51.000000	0.000000	-1.000000	-1.000000	259070.000000	1775803790.455945
-18017.820000	-31507.695000	-125.235000	20187.540000	6009.390000	-11630.655000	-36781.110000	-23692.680000	-3.815708	-4.806557	-5.780977	-4.376807	-1.757399	-3.528429	-1.579402	-2.594299	-2.533160	1.266580	-0.381500	-0.655211	0.092895	0.736937	-1.000000	-1.000000	-1.000000	-1.000000	-1.000000	-1.000000	-1.000000	51.000000	0.000000	-1.000000	-1.000000	259071.000000	1775803790.458643
-18020.610000	-31512.600000	-130.815000	20180.115000	6000.435000	-11632.905000	-36778.590000	-23692.815000	-0.109162	-2.336279	-3.714709	-4.034887	-1.058183	-4.812079	-1.615696	0.782931	-2.533160	1.266580	-0.381500	-0.655211	0.092895	0.736937	-1.000000	-1.000000	-1.000000	-1.000000	-1.000000	-1.000000	-1.000000	51.000000	0.000000	-1.000000	-1.000000	259072.000000	1775803790.458673
-18018.225000	-31509.270000	-127.035000	20183.400000	5999.445000	-11624.175000	-36771.390000	-23689.215000	3.275007	0.334241	-1.179224	-2.886658	-1.494318	-6.072094	-1.978191	3.447007	-2.533160	1.266580	-0.381500	-0.655211	0.092895	0.736937	-1.000000	-1.000000	-1.000000	-1.000000	-1.000000	-1.000000	-1.000000	51.000000	0.000000	-1.000000	-1.000000	259073.000000	1775803790.463252
-18020.835000	-31512.825000	-133.470000	20175.975000	5992.335000	-11626.470000	-36773.820000	-23692.410000	4.440569	1.559857	0.213207	-2.146652	-2.419022	-5.054047	-0.952316	4.390213	-2.533160	1.266580	-0.381500	-0.655211	0.092895	0.736937	-1.000000	-1.000000	-1.000000	-1.000000	-1.000000	-1.000000	-1.000000	51.000000	0.000000	-1.000000	-1.000000	259074.000000	1775803790.463283
-18022.590000	-31513.590000	-132.525000	20179.530000	6000.570000	-11622.555000	-36774.540000	-23693.715000	3.016895	1.079388	0.213467	-1.902718	-2.517159	-1.126108	1.442433	3.334565	-2.533160	1.266580	-0.381500	-0.655211	0.092895	0.736937	-1.000000	-1.000000	-1.000000	-1.000000	-1.000000	-1.000000	-1.000000	51.000000	0.000000	-1.000000	-1.000000	259075.000000	1775803790.475580
-18019.530000	-31510.125000	-127.890000	20186.730000	6005.880000	-11619.540000	-36770.445000	-23690.295000	0.196239	-0.223995	-0.340091	-1.359097	-0.726444	3.751489	3.575839	0.967082	-2.533160	1.266580	-0.381500	-0.655211	0.092895	0.736937	-1.000000	-1.000000	-1.000000	-1.000000	-1.000000	-1.000000	-1.000000	51.000000	0.000000	-1.000000	-1.000000	259076.000000	1775803790.475612
-18022.545000	-31513.815000	-134.865000	20175.390000	5990.895000	-11627.415000	-36772.605000	-23691.195000	-2.226456	-1.148536	-0.413298	0.038811	2.390024	6.953585	4.256117	-1.293929	-1.800680	1.480220	0.000000	-0.654417	0.087280	0.737608	-1.000000	-1.000000	-1.000000	-1.000000	-1.000000	-1.000000	-1.000000	51.000000	0.000000	-1.000000	-1.000000	259077.000000	1775803790.475762
-18025.740000	-31518.090000	-139.320000	20171.340000	5986.215000	-11626.290000	-36771.525000	-23692.140000	-3.218276	-1.269911	-0.030091	1.361108	4.334754	6.812096	3.320311	-2.412174	-1.800680	1.480220	0.000000	-0.654417	0.087280	0.737608	-1.000000	-1.000000	-1.000000	-1.000000	-1.000000	-1.000000	-1.000000	51.000000	0.000000	-1.000000	-1.000000	259078.000000	1775803790.475784
-18022.140000	-31512.915000	-132.435000	20182.455000	5995.395000	-11623.455000	-36766.215000	-23690.160000	-2.835719	-0.895233	0.260185	1.643900	3.652028	3.792564	1.405918	-2.328663	-1.800680	1.480220	0.000000	-0.654417	0.087280	0.737608	-1.000000	-1.000000	-1.000000	-1.000000	-1.000000	-1.000000	-1.000000	51.000000	0.000000	-1.000000	-1.000000	259079.000000	1775803790.475812
-18023.625000	-31513.050000	-133.515000	20177.775000	5993.460000	-11631.240000	-36768.105000	-23693.580000	-1.463583	-0.099723	0.669296	1.547544	1.825384	-0.008617	-0.426270	-1.511509	-1.800680	1.480220	0.000000	-0.654417	0.087280	0.737608	-1.000000	-1.000000	-1.000000	-1.000000	-1.000000	-1.000000	-1.000000	51.000000	0.000000	-1.000000	-1.000000	259080.000000	1775803790.475827
-18022.950000	-31512.555000	-132.300000	20179.620000	5999.760000	-11628.135000	-36772.605000	-23693.535000	0.333880	1.048605	1.457280	1.747471	0.804301	-2.864216	-1.688150	-0.573486	-1.800680	1.480220	0.000000	-0.654417	0.087280	0.737608	-1.000000	-1.000000	-1.000000	-1.000000	-1.000000	-1.000000	-1.000000	51.000000	0.000000	-1.000000	-1.000000	259081.000000	1775803790.480793
-18023.130000	-31510.305000	-128.025000	20187.540000	6008.580000	-11616.615000	-36775.080000	-23693.805000	1.782868	2.016755	2.202308	1.987359	1.044027	-3.767461	-2.637541	0.074711	-1.800680	1.480220	0.000000	-0.654417	0.087280	0.737608	-1.000000	-1.000000	-1.000000	-1.000000	-1.000000	-1.000000	-1.000000	51.000000	0.000000	-1.000000	-1.000000	259082.000000	1775803790.480824
-18031.455000	-31518.630000	-137.430000	20177.235000	5999.760000	-11620.890000	-36776.655000	-23700.690000	2.212589	2.150505	2.255414	1.877533	1.746247	-2.357573	-3.308798	0.329332	-1.800680	1.480220	0.000000	-0.654417	0.087280	0.737608	-1.000000	-1.000000	-1.000000	-1.000000	-1.000000	-1.000000	-1.000000	51.000000	0.000000	-1.000000	-1.000000	259083.000000	1775803790.484295
-18030.915000	-31518.450000	-138.060000	20175.705000	5993.010000	-11624.535000	-36777.105000	-23701.500000	1.364600	1.088479	1.093583	0.866133	1.267650	0.025883	-3.220851	0.144234	-1.800680	1.480220	0.000000	-0.654417	0.087280	0.737608	-1.000000	-1.000000	-1.000000	-1.000000	-1.000000	-1.000000	-1.000000	51.000000	0.000000	-1.000000	-1.000000	259084.000000	1775803790.484327
-18022.005000	-31508.145000	-127.755000	20183.445000	5996.340000	-11627.190000	-36776.880000	-23696.010000	0.045691	-0.483427	-0.776814	-0.969915	-1.161535	1.192182	-2.030185	-0.121859	-1.800680	1.480220	0.000000	-0.654417	0.087280	0.737608	-1.000000	-1.000000	-1.000000	-1.000000	-1.000000	-1.000000	-1.000000	51.000000	0.000000	-1.000000	-1.000000	259085.000000	1775803790.488598
-18021.690000	-31506.975000	-125.415000	20188.575000	6003.180000	-11631.015000	-36776.340000	-23695.470000	-0.275659	-1.022645	-1.684957	-2.142814	-3.842702	0.402519	-0.013848	0.293127	-1.800680	1.480220	0.000000	-0.654417	0.087280	0.737608	-1.000000	-1.000000	-1.000000	-1.000000	-1.000000	-1.000000	-1.000000	51.000000	0.000000	-1.000000	-1.000000	259086.000000	1775803790.488629
-18022.545000	-31510.170000	-128.070000	20187.630000	6000.480000	-11628.855000	-36774.000000	-23693.490000	0.634956	-0.171711	-0.946482	-1.575918	-4.441303	-1.248155	2.078071	1.461489	-0.045780	1.388660	-0.808780	-0.653197	0.084900	0.736753	-1.000000	-1.000000	-1.000000	-1.000000	-1.000000	-1.000000	-1.000000	51.000000	0.000000	-1.000000	-1.000000	259087.000000	1775803790.492482
-18020.070000	-31509.675000	-128.790000	20185.335000	5996.160000	-11629.395000	-36773.055000	-23689.935000	1.539944	0.719717	0.187726	-0.145032	-2.821200	-2.129262	3.481808	2.552515	-0.045780	1.388660	-0.808780	-0.653197	0.084900	0.736753	-1.000000	-1.000000	-1.000000	-1.000000	-1.000000	-1.000000	-1.000000	51.000000	0.000000	-1.000000	-1.000000	259088.000000	1775803790.492510
-18022.275000	-31510.170000	-129.465000	20182.185000	5992.830000	-11632.005000	-36775.980000	-23693.940000	1.418283	0.549619	0.367956	0.514394	-0.762676	-1.518890	3.659120	2.699429	-0.045780	1.388660	-0.808780	-0.653197	0.084900	0.736753	-1.000000	-1.000000	-1.000000	-1.000000	-1.000000	-1.000000	-1.000000	51.000000	0.000000	-1.000000	-1.000000	259089.000000	1775803790.493982
-18027.810000	-31513.230000	-136.845000	20171.790000	5979.690000	-11635.155000	-36776.565000	-23697.315000	0.150311	-0.509978	-0.561512	-0.343315	0.150860	-0.077572	2.439487	1.449326	-0.045780	1.388660	-0.808780	-0.653197	0.084900	0.736753	-1.000000	-1.000000	-1.000000	-1.000000	-1.000000	-1.000000	-1.000000	51.000000	0.000000	-1.000000	-1.000000	259090.000000	1775803790.494006
-18025.020000	-31511.475000	-136.530000	20171.385000	5975.460000	-11633.355000	-36773.280000	-23694.525000	-1.697597	-1.650286	-1.941302	-2.179962	-0.423127	1.146053	0.397203	-0.824815	-0.045780	1.388660	-0.808780	-0.653197	0.084900	0.736753	-1.000000	-1.000000	-1.000000	-1.000000	-1.000000	-1.000000	-1.000000	51.000000	0.000000	-1.000000	-1.000000	259091.000000	1775803790.498051
-18032.130000	-31521.465000	-143.055000	20164.275000	5956.200000	-11646.450000	-36781.560000	-23702.220000	-3.095717	-2.241299	-2.847033	-3.580765	-1.755681	1.541211	-1.459246	-2.924395	-0.045780	1.388660	-0.808780	-0.653197	0.084900	0.736753	-1.000000	-1.000000	-1.000000	-1.000000	-1.000000	-1.000000	-1.000000	51.000000	0.000000	-1.000000	-1.000000	259092.000000	1775803790.498080
-18032.400000	-31522.455000	-143.280000	20163.555000	5949.900000	-11655.135000	-36782.100000	-23701.770000	-3.331953	-2.256709	-2.630609	-3.339400	-2.810800	0.726525	-2.640721	-3.888857	-0.045780	1.388660	-0.808780	-0.653197	0.084900	0.736753	-1.000000	-1.000000	-1.000000	-1.000000	-1.000000	-1.000000	-1.000000	51.000000	0.000000	-1.000000	-1.000000	259093.000000	1775803790.504873
-18026.370000	-31516.020000	-134.865000	20174.760000	5958.720000	-11652.930000	-36778.275000	-23696.910000	-2.257785	-1.655045	-1.080292	-1.102192	-2.353470	-0.937700	-2.960243	-3.345474	-0.045780	1.388660	-0.808780	-0.653197	0.084900	0.736753	-1.000000	-1.000000	-1.000000	-1.000000	-1.000000	-1.000000	-1.000000	51.000000	0.000000	-1.000000	-1.000000	259094.000000	1775803790.504905
-18025.380000	-31514.175000	-131.130000	20182.860000	5997.465000	-11634.975000	-36774.585000	-23696.595000	0.008499	0.006745	1.684496	2.804462	1.415736	-1.532417	-1.999655	-1.287159	-0.045780	1.388660	-0.808780	-0.653197	0.084900	0.736753	-1.000000	-1.000000	-1.000000	-1.000000	-1.000000	-1.000000	-1.000000	51.000000	0.000000	-1.000000	-1.000000	259095.000000	1775803790.507966
-18027.765000	-31516.695000	-134.190000	20182.185000	6041.025000	-11615.355000	-36774.990000	-23699.115000	2.582315	2.378795	4.572668	6.873340	9.470260	1.017175	0.099364	1.394337	-0.045780	1.388660	-0.808780	-0.653197	0.084900	0.736753	-1.000000	-1.000000	-1.000000	-1.000000	-1.000000	-1.000000	-1.000000	51.000000	0.000000	-1.000000	-1.000000	259096.000000	1775803790.507997
-18033.345000	-31521.150000	-139.095000	20174.670000	6012.990000	-11621.115000	-36779.670000	-23705.595000	3.855639	3.894970	5.595257	8.411555	18.186171	5.883385	2.059991	3.038295	0.213640	0.457800	0.305200	-0.652952	0.086487	0.736753	-1.000000	-1.000000	-1.000000	-1.000000	-1.000000	-1.000000	-1.000000	51.000000	0.000000	-1.000000	-1.000000	259097.000000	1775803790.510663
-18029.565000	-31514.220000	-131.265000	20181.240000	6003.630000	-11622.645000	-36776.880000	-23703.660000	3.001794	3.481689	3.843967	5.828329	19.110229	8.824485	2.548791	2.683353	0.213640	0.457800	0.305200	-0.652952	0.086487	0.736753	-1.000000	-1.000000	-1.000000	-1.000000	-1.000000	-1.000000	-1.000000	51.000000	0.000000	-1.000000	-1.000000	259098.000000	1775803790.510688
-18025.065000	-31508.325000	-124.560000	20187.045000	6005.520000	-11617.965000	-36770.805000	-23699.475000	1.014994	1.913429	0.812558	0.730329	7.825640	6.484705	1.667455	1.125661	0.213640	0.457800	0.305200	-0.652952	0.086487	0.736753	-1.000000	-1.000000	-1.000000	-1.000000	-1.000000	-1.000000	-1.000000	51.000000	0.000000	-1.000000	-1.000000	259099.000000	1775803790.515794
-18032.040000	-31515.705000	-130.230000	20182.230000	5999.220000	-11618.820000	-36768.780000	-23702.490000	-0.543398	0.502522	-1.419462	-3.714936	-9.613668	0.052471	0.658621	-0.070131	0.213640	0.457800	0.305200	-0.652952	0.086487	0.736753	-1.000000	-1.000000	-1.000000	-1.000000	-1.000000	-1.000000	-1.000000	51.000000	0.000000	-1.000000	-1.000000	259100.000000	1775803790.515829
-18039.060000	-31528.845000	-145.710000	20168.415000	5991.210000	-11615.535000	-36764.820000	-23703.120000	-1.446217	-0.902178	-2.760558	-6.151184	-22.924330	-6.493183	0.280641	-0.375356	0.213640	0.457800	0.305200	-0.652952	0.086487	0.736753	-1.000000	-1.000000	-1.000000	-1.000000	-1.000000	-1.000000	-1.000000	51.000000	0.000000	-1.000000	-1.000000	259101.000000	1775803790.520591
-18030.780000	-31523.895000	-145.170000	20166.615000	5998.185000	-11610.315000	-36766.485000	-23694.300000	-2.114047	-2.913185	-4.273660	-7.172920	-25.929175	-9.812349	0.230863	-0.140137	0.213640	0.457800	0.305200	-0.652952	0.086487	0.736753	-1.000000	-1.000000	-1.000000	-1.000000	-1.000000	-1.000000	-1.000000	51.000000	0.000000	-1.000000	-1.000000	259102.000000	1775803790.520623
-18026.640000	-31517.010000	-137.475000	20173.050000	6002.145000	-11623.230000	-36775.125000	-23693.625000	-1.974905	-4.344950	-5.352119	-6.790488	-18.380420	-9.083041	-0.325950	0.476885	0.213640	0.457800	0.305200	-0.652952	0.086487	0.736753	-1.000000	-1.000000	-1.000000	-1.000000	-1.000000	-1.000000	-1.000000	51.000000	0.000000	-1.000000	-1.000000	259103.000000	1775803790.524483
-18028.665000	-31517.640000	-136.980000	20173.410000	5991.480000	-11631.690000	-36774.180000	-23697.450000	-0.482492	-3.367359	-4.108956	-4.104461	-4.879125	-6.191871	-1.831091	1.077868	0.213640	0.457800	0.305200	-0.652952	0.086487	0.736753	-1.000000	-1.000000	-1.000000	-1.000000	-1.000000	-1.000000	-1.000000	51.000000	0.000000	-1.000000	-1.000000	259104.000000	1775803790.524516
-18024.390000	-31513.455000	-134.145000	20175.480000	5986.395000	-11644.965000	-36778.590000	-23697.045000	1.458237	-0.236573	-0.383934	0.525317	7.505918	-3.614515	-3.513385	0.803820	0.213640	0.457800	0.305200	-0.652952	0.086487	0.736753	-1.000000	-1.000000	-1.000000	-1.000000	-1.000000	-1.000000	-1.000000	51.000000	0.000000	-1.000000	-1.000000	259105.000000	1775803790.529405
-18023.805000	-31514.805000	-134.730000	20175.165000	5977.305000	-11631.825000	-36770.040000	-23694.525000	2.535110	2.953415	3.702310	4.978109	13.562850	-1.779335	-3.885831	-0.440092	0.213640	0.457800	0.305200	-0.652952	0.086487	0.736753	-1.000000	-1.000000	-1.000000	-1.000000	-1.000000	-1.000000	-1.000000	51.000000	0.000000	-1.000000	-1.000000	259106.000000	1775803790.529438
-18029.970000	-31519.980000	-138.645000	20169.900000	5960.970000	-11628.945000	-36776.655000	-23700.690000	2.139010	4.210874	5.752538	7.025866	12.462237	0.912017	-2.219246	-1.793121	-0.839300	0.946120	1.648080	-0.652281	0.088501	0.737242	-1.000000	-1.000000	-1.000000	-1.000000	-1.000000	-1.000000	-1.000000	51.000000	0.000000	-1.000000	-1.000000	259107.000000	1775803790.530789
-18022.230000	-31511.295000	-130.545000	20177.595000	5963.670000	-11614.815000	-36767.970000	-23693.265000	0.484886	3.030093	4.935178	5.960816	6.913126	5.363202	0.692070	-2.462212	-0.839300	0.946120	1.648080	-0.652281	0.088501	0.737242	-1.000000	-1.000000	-1.000000	-1.000000	-1.000000	-1.000000	-1.000000	51.000000	0.000000	-1.000000	-1.000000	259108.000000	1775803790.530813
-18009.990000	-31499.100000	-118.890000	20189.340000	5988.060000	-11611.755000	-36760.905000	-23681.925000	-1.053485	0.971236	2.639680	3.277624	1.744721	10.023730	3.508105	-1.800031	-0.839300	0.946120	1.648080	-0.652281	0.088501	0.737242	-1.000000	-1.000000	-1.000000	-1.000000	-1.000000	-1.000000	-1.000000	51.000000	0.000000	-1.000000	-1.000000	259109.000000	1775803790.545015
-18028.170000	-31514.940000	-133.110000	20181.780000	6009.615000	-11632.320000	-36781.920000	-23703.660000	-1.327798	-0.267336	0.633525	1.022059	1.346026	11.614367	4.921121	-0.014805	-0.839300	0.946120	1.648080	-0.652281	0.088501	0.737242	-1.000000	-1.000000	-1.000000	-1.000000	-1.000000	-1.000000	-1.000000	51.000000	0.000000	-1.000000	-1.000000	259110.000000	1775803790.545056
-18032.625000	-31518.090000	-132.930000	20189.115000	6015.555000	-11634.120000	-36780.345000	-23705.145000	-1.379591	-1.208639	-1.160552	-0.450800	5.631231	7.584639	3.538562	0.916015	-0.839300	0.946120	1.648080	-0.652281	0.088501	0.737242	-1.000000	-1.000000	-1.000000	-1.000000	-1.000000	-1.000000	-1.000000	51.000000	0.000000	-1.000000	-1.000000	259111.000000	1775803790.545092
-18028.665000	-31514.760000	-130.140000	20190.645000	6013.620000	-11628.810000	-36773.865000	-23699.070000	-2.375984	-2.773239	-3.190759	-1.661156	9.479896	-0.490775	-0.051650	-0.086077	-0.839300	0.946120	1.648080	-0.652281	0.088501	0.737242	-1.000000	-1.000000	-1.000000	-1.000000	-1.000000	-1.000000	-1.000000	51.000000	0.000000	-1.000000	-1.000000	259112.000000	1775803790.545112
-18030.600000	-31520.250000	-142.470000	20169.945000	6003.405000	-11619.225000	-36770.625000	-23699.745000	-3.211848	-4.031440	-4.671988	-2.959162	7.526005	-7.251028	-2.798459	-1.275432	-0.839300	0.946120	1.648080	-0.652281	0.088501	0.737242	-1.000000	-1.000000	-1.000000	-1.000000	-1.000000	-1.000000	-1.000000	51.000000	0.000000	-1.000000	-1.000000	259113.000000	1775803790.545132
-18029.340000	-31517.505000	-135.225000	20176.380000	5994.945000	-11627.235000	-36773.415000	-23700.015000	-2.400247	-3.725761	-4.810495	-4.671506	-0.972247	-8.782630	-2.752190	-0.909914	-0.839300	0.946120	1.648080	-0.652281	0.088501	0.737242	-1.000000	-1.000000	-1.000000	-1.000000	-1.000000	-1.000000	-1.000000	51.000000	0.000000	-1.000000	-1.000000	259114.000000	1775803790.545146
-18029.385000	-31513.230000	-128.835000	20180.745000	5978.385000	-11649.105000	-36786.600000	-23705.595000	-0.090470	-1.699510	-3.178382	-5.774525	-11.850512	-6.304686	-1.123137	0.564470	-0.839300	0.946120	1.648080	-0.652281	0.088501	0.737242	-1.000000	-1.000000	-1.000000	-1.000000	-1.000000	-1.000000	-1.000000	51.000000	0.000000	-1.000000	-1.000000	259115.000000	1775803790.547529
-18028.395000	-31516.605000	-137.520000	20174.805000	5981.130000	-11643.705000	-36784.845000	-23703.210000	2.452554	1.249139	0.017979	-4.490713	-19.240317	-3.598619	-0.224220	1.726174	-0.839300	0.946120	1.648080	-0.652281	0.088501	0.737242	-1.000000	-1.000000	-1.000000	-1.000000	-1.000000	-1.000000	-1.000000	51.000000	0.000000	-1.000000	-1.000000	259116.000000	1775803790.547563
-18032.940000	-31522.590000	-142.740000	20170.890000	5995.980000	-11632.860000	-36778.635000	-23703.705000	3.900363	3.495867	2.928410	-1.182895	-18.644081	-1.739068	-0.410818	1.941054	-1.159760	1.907500	2.914660	-0.651671	0.088379	0.737791	-1.000000	-1.000000	-1.000000	-1.000000	-1.000000	-1.000000	-1.000000	51.000000	0.000000	-1.000000	-1.000000	259117.000000	1775803790.552162
-18030.465000	-31520.655000	-141.480000	20174.760000	5999.085000	-11628.540000	-36774.810000	-23700.375000	3.601887	3.699276	3.673193	2.123284	-9.402810	0.966653	-0.134916	1.582681	-1.159760	1.907500	2.914660	-0.651671	0.088379	0.737791	-1.000000	-1.000000	-1.000000	-1.000000	-1.000000	-1.000000	-1.000000	51.000000	0.000000	-1.000000	-1.000000	259118.000000	1775803790.552198
-18033.480000	-31524.165000	-144.495000	20176.020000	5999.490000	-11628.990000	-36776.655000	-23702.670000	1.970960	2.147247	2.476255	4.231872	3.887058	4.723563	1.301774	1.134150	-1.159760	1.907500	2.914660	-0.651671	0.088379	0.737791	-1.000000	-1.000000	-1.000000	-1.000000	-1.000000	-1.000000	-1.000000	51.000000	0.000000	-1.000000	-1.000000	259119.000000	1775803790.556957
-18042.480000	-31532.805000	-151.245000	20171.430000	5989.410000	-11639.295000	-36783.405000	-23711.580000	-0.143965	0.036886	0.706001	4.924278	13.924532	7.092024	2.613858	0.470151	-1.159760	1.907500	2.914660	-0.651671	0.088379	0.737791	-1.000000	-1.000000	-1.000000	-1.000000	-1.000000	-1.000000	-1.000000	51.000000	0.000000	-1.000000	-1.000000	259120.000000	1775803790.556988
-18032.445000	-31520.565000	-136.395000	20170.710000	5984.595000	-11637.765000	-36779.670000	-23704.920000	-1.960999	-1.546559	-0.454372	4.091250	15.842401	5.871606	2.316714	-0.668400	-1.159760	1.907500	2.914660	-0.651671	0.088379	0.737791	-1.000000	-1.000000	-1.000000	-1.000000	-1.000000	-1.000000	-1.000000	51.000000	0.000000	-1.000000	-1.000000	259121.000000	1775803790.560931
-18024.840000	-31511.565000	-133.470000	20174.985000	5984.460000	-11629.350000	-36772.245000	-23698.080000	-2.307373	-1.384311	-0.009558	2.134015	10.234027	1.899169	0.778130	-1.501480	-1.159760	1.907500	2.914660	-0.651671	0.088379	0.737791	-1.000000	-1.000000	-1.000000	-1.000000	-1.000000	-1.000000	-1.000000	51.000000	0.000000	-1.000000	-1.000000	259122.000000	1775803790.560964
-18027.450000	-31513.005000	-135.900000	20172.240000	5984.235000	-11631.510000	-36777.060000	-23702.355000	-0.623147	0.822084	1.795583	0.142752	1.878297	-1.799611	-0.477491	-1.023066	-1.159760	1.907500	2.914660	-0.651671	0.088379	0.737791	-1.000000	-1.000000	-1.000000	-1.000000	-1.000000	-1.000000	-1.000000	51.000000	0.000000	-1.000000	-1.000000	259123.000000	1775803790.565556
-18032.490000	-31518.315000	-141.210000	20165.265000	5980.680000	-11627.865000	-36775.620000	-23704.695000	1.533851	3.089721	2.918394	-1.269175	-4.367166	-3.307042	-0.938735	0.163688	-1.159760	1.907500	2.914660	-0.651671	0.088379	0.737791	-1.000000	-1.000000	-1.000000	-1.000000	-1.000000	-1.000000	-1.000000	51.000000	0.000000	-1.000000	-1.000000	259124.000000	1775803790.565588
-18040.230000	-31530.420000	-152.055000	20158.830000	5977.035000	-11630.340000	-36776.565000	-23708.295000	1.862933	2.784927	1.540599	-2.404406	-6.555459	-2.925992	-1.108673	0.584035	-1.159760	1.907500	2.914660	-0.651671	0.088379	0.737791	-1.000000	-1.000000	-1.000000	-1.000000	-1.000000	-1.000000	-1.000000	51.000000	0.000000	-1.000000	-1.000000	259125.000000	1775803790.566224
-18039.105000	-31527.945000	-148.365000	20168.235000	5989.005000	-11629.170000	-36776.700000	-23707.170000	-0.105357	-0.500434	-1.903847	-3.187332	-5.209107	-1.872764	-1.273975	-0.158046	-1.159760	1.907500	2.914660	-0.651671	0.088379	0.737791	-1.000000	-1.000000	-1.000000	-1.000000	-1.000000	-1.000000	-1.000000	51.000000	0.000000	-1.000000	-1.000000	259126.000000	1775803790.566248
-18036.630000	-31521.240000	-143.100000	20171.520000	6008.985000	-11619.135000	-36772.380000	-23705.910000	-2.523813	-4.155565	-4.779575	-2.559019	-1.282060	-0.859889	-1.255192	-1.129130	1.403920	1.129240	1.938020	-0.651793	0.086487	0.738890	-1.000000	-1.000000	-1.000000	-1.000000	-1.000000	-1.000000	-1.000000	51.000000	0.000000	-1.000000	-1.000000	259127.000000	1775803790.571836
-18032.490000	-31519.215000	-137.745000	20175.975000	6004.395000	-11619.630000	-36770.805000	-23702.445000	-3.119389	-4.987756	-4.544265	-0.084494	3.796023	0.201055	-0.735429	-1.214902	1.403920	1.129240	1.938020	-0.651793	0.086487	0.738890	-1.000000	-1.000000	-1.000000	-1.000000	-1.000000	-1.000000	-1.000000	51.000000	0.000000	-1.000000	-1.000000	259128.000000	1775803790.571866
-18030.825000	-31517.370000	-135.720000	20176.335000	5996.835000	-11624.940000	-36773.055000	-23701.995000	-1.313482	-2.427145	-1.227472	2.880033	6.858080	1.028944	0.161861	-0.182633	1.403920	1.129240	1.938020	-0.651793	0.086487	0.738890	-1.000000	-1.000000	-1.000000	-1.000000	-1.000000	-1.000000	-1.000000	51.000000	0.000000	-1.000000	-1.000000	259129.000000	1775803790.575862
-18035.595000	-31523.220000	-142.650000	20168.595000	5988.105000	-11633.355000	-36780.075000	-23707.620000	1.411150	1.247144	2.604291	4.200799	4.965049	0.607770	0.627761	1.085322	1.403920	1.129240	1.938020	-0.651793	0.086487	0.738890	-1.000000	-1.000000	-1.000000	-1.000000	-1.000000	-1.000000	-1.000000	51.000000	0.000000	-1.000000	-1.000000	259130.000000	1775803790.575890
-18035.955000	-31521.195000	-139.230000	20172.870000	5989.995000	-11632.545000	-36780.615000	-23709.195000	2.932893	3.347767	4.199601	2.799521	-1.093227	-1.262745	0.025040	1.369301	1.403920	1.129240	1.938020	-0.651793	0.086487	0.738890	-1.000000	-1.000000	-1.000000	-1.000000	-1.000000	-1.000000	-1.000000	51.000000	0.000000	-1.000000	-1.000000	259131.000000	1775803790.580236
-18034.290000	-31520.700000	-138.105000	20175.480000	5995.125000	-11625.750000	-36774.945000	-23705.640000	2.423950	3.035352	3.019147	-0.195099	-6.985369	-2.979379	-1.023491	0.481746	1.403920	1.129240	1.938020	-0.651793	0.086487	0.738890	-1.000000	-1.000000	-1.000000	-1.000000	-1.000000	-1.000000	-1.000000	51.000000	0.000000	-1.000000	-1.000000	259132.000000	1775803790.580268
-18038.565000	-31527.135000	-144.945000	20170.125000	5991.525000	-11624.985000	-36773.370000	-23707.890000	0.712257	1.242123	0.487611	-2.645030	-8.746151	-2.597404	-1.115945	-0.557260	1.403920	1.129240	1.938020	-0.651793	0.086487	0.738890	-1.000000	-1.000000	-1.000000	-1.000000	-1.000000	-1.000000	-1.000000	51.000000	0.000000	-1.000000	-1.000000	259133.000000	1775803790.583462
-18032.625000	-31518.945000	-138.915000	20172.555000	5990.895000	-11623.905000	-36765.090000	-23702.220000	-0.914527	-0.697696	-1.844729	-3.534063	-6.004306	-0.080399	0.302893	-0.808865	1.403920	1.129240	1.938020	-0.651793	0.086487	0.738890	-1.000000	-1.000000	-1.000000	-1.000000	-1.000000	-1.000000	-1.000000	51.000000	0.000000	-1.000000	-1.000000	259134.000000	1775803790.583494
-18037.485000	-31523.760000	-141.705000	20171.025000	5983.650000	-11625.075000	-36763.515000	-23706.045000	-1.603880	-1.682611	-2.915126	-3.018851	-1.381683	2.701895	2.422696	-0.215521	1.403920	1.129240	1.938020	-0.651793	0.086487	0.738890	-1.000000	-1.000000	-1.000000	-1.000000	-1.000000	-1.000000	-1.000000	51.000000	0.000000	-1.000000	-1.000000	259135.000000	1775803790.592476
-18040.590000	-31526.550000	-143.190000	20170.710000	5979.105000	-11628.630000	-36767.520000	-23711.715000	-1.417435	-1.508748	-2.462592	-1.632921	2.202103	3.841324	3.672351	0.424733	1.403920	1.129240	1.938020	-0.651793	0.086487	0.738890	-1.000000	-1.000000	-1.000000	-1.000000	-1.000000	-1.000000	-1.000000	51.000000	0.000000	-1.000000	-1.000000	259136.000000	1775803790.592509
-18043.110000	-31530.015000	-146.700000	20166.210000	5975.730000	-11630.160000	-36771.795000	-23714.730000	-1.069086	-0.977325	-1.251650	-0.136467	3.440756	2.753931	2.711494	0.177382	4.364360	1.831200	0.412020	-0.649779	0.086548	0.739134	-1.000000	-1.000000	-1.000000	-1.000000	-1.000000	-1.000000	-1.000000	51.000000	0.000000	-1.000000	-1.000000	259137.000000	1775803790.592538
-18027.810000	-31514.670000	-131.715000	20182.860000	5992.200000	-11649.870000	-36790.650000	-23704.020000	-0.605739	-0.410836	0.080606	1.092330	3.232942	0.022832	-0.614737	-0.663598	4.364360	1.831200	0.412020	-0.649779	0.086548	0.739134	-1.000000	-1.000000	-1.000000	-1.000000	-1.000000	-1.000000	-1.000000	51.000000	0.000000	-1.000000	-1.000000	259138.000000	1775803790.592553
-18020.790000	-31506.885000	-122.715000	20192.355000	5996.520000	-11639.565000	-36789.705000	-23699.880000	0.829983	0.947607	1.861410	2.603302	3.537054	-3.096410	-4.951075	-0.626122	4.364360	1.831200	0.412020	-0.649779	0.086548	0.739134	-1.000000	-1.000000	-1.000000	-1.000000	-1.000000	-1.000000	-1.000000	51.000000	0.000000	-1.000000	-1.000000	259139.000000	1775803790.598285
-18028.260000	-31516.020000	-133.515000	20180.070000	5985.990000	-11635.515000	-36782.550000	-23704.650000	3.005055	2.966924	3.812782	4.245756	4.576513	-4.448639	-7.479789	0.756025	4.364360	1.831200	0.412020	-0.649779	0.086548	0.739134	-1.000000	-1.000000	-1.000000	-1.000000	-1.000000	-1.000000	-1.000000	51.000000	0.000000	-1.000000	-1.000000	259140.000000	1775803790.598316
-18025.515000	-31514.265000	-132.795000	20178.720000	5995.980000	-11618.640000	-36770.175000	-23698.350000	3.882096	3.669826	4.047618	4.058789	4.445184	-2.194966	-5.500603	2.118608	4.364360	1.831200	0.412020	-0.649779	0.086548	0.739134	-1.000000	-1.000000	-1.000000	-1.000000	-1.000000	-1.000000	-1.000000	51.000000	0.000000	-1.000000	-1.000000	259141.000000	1775803790.607105
-18025.740000	-31513.815000	-131.490000	20180.610000	6000.930000	-11613.015000	-36763.695000	-23697.495000	2.220279	1.844482	1.595816	1.048048	2.384433	2.952929	0.762701	2.256817	4.364360	1.831200	0.412020	-0.649779	0.086548	0.739134	-1.000000	-1.000000	-1.000000	-1.000000	-1.000000	-1.000000	-1.000000	51.000000	0.000000	-1.000000	-1.000000	259142.000000	1775803790.607138
-18026.415000	-31511.565000	-127.710000	20185.605000	5997.195000	-11619.675000	-36774.045000	-23701.995000	-0.912139	-1.241507	-1.863131	-2.792790	-0.364267	7.552092	7.440923	1.149765	4.364360	1.831200	0.412020	-0.649779	0.086548	0.739134	-1.000000	-1.000000	-1.000000	-1.000000	-1.000000	-1.000000	-1.000000	51.000000	0.000000	-1.000000	-1.000000	259143.000000	1775803790.607169
-18026.730000	-31512.600000	-130.545000	20181.960000	5989.455000	-11627.865000	-36780.795000	-23703.435000	-3.618290	-3.527590	-4.018838	-4.806897	-2.925630	7.739933	9.708821	-0.781389	4.364360	1.831200	0.412020	-0.649779	0.086548	0.739134	-1.000000	-1.000000	-1.000000	-1.000000	-1.000000	-1.000000	-1.000000	51.000000	0.000000	-1.000000	-1.000000	259144.000000	1775803790.607183
-18029.340000	-31515.480000	-133.245000	20179.080000	5990.490000	-11628.405000	-36780.210000	-23705.415000	-4.699771	-4.076800	-4.160380	-4.383159	-5.118265	2.676205	6.001379	-2.794701	4.364360	1.831200	0.412020	-0.649779	0.086548	0.739134	-1.000000	-1.000000	-1.000000	-1.000000	-1.000000	-1.000000	-1.000000	51.000000	0.000000	-1.000000	-1.000000	259145.000000	1775803790.608566
-18031.725000	-31516.605000	-132.030000	20182.500000	5996.970000	-11629.260000	-36779.670000	-23707.710000	-4.065823	-3.250227	-2.984101	-2.594827	-6.060545	-4.374179	-0.614511	-3.901512	4.364360	1.831200	0.412020	-0.649779	0.086548	0.739134	-1.000000	-1.000000	-1.000000	-1.000000	-1.000000	-1.000000	-1.000000	51.000000	0.000000	-1.000000	-1.000000	259146.000000	1775803790.608595
-18032.985000	-31518.045000	-135.405000	20178.540000	5995.755000	-11628.540000	-36774.990000	-23706.270000	-2.365546	-1.804589	-1.334136	-0.524171	-4.667079	-8.945041	-5.549535	-3.501797	2.304260	1.846460	1.007160	-0.648314	0.094116	0.738340	-1.000000	-1.000000	-1.000000	-1.000000	-1.000000	-1.000000	-1.000000	51.000000	0.000000	-1.000000	-1.000000	259147.000000	1775803790.616097
-18027.585000	-31513.455000	-135.045000	20178.630000	6002.370000	-11621.115000	-36765.000000	-23697.180000	-0.226683	-0.171443	0.222116	1.128508	-1.290806	-8.679383	-6.182378	-1.529699	2.304260	1.846460	1.007160	-0.648314	0.094116	0.738340	-1.000000	-1.000000	-1.000000	-1.000000	-1.000000	-1.000000	-1.000000	51.000000	0.000000	-1.000000	-1.000000	259148.000000	1775803790.616131
-18024.390000	-31505.265000	-136.170000	20173.320000	6002.280000	-11616.705000	-36759.195000	-23693.175000	2.049431	1.652713	1.353344	1.881633	2.388509	-4.165146	-2.866847	1.581231	2.304260	1.846460	1.007160	-0.648314	0.094116	0.738340	-1.000000	-1.000000	-1.000000	-1.000000	-1.000000	-1.000000	-1.000000	51.000000	0.000000	-1.000000	-1.000000	259149.000000	1775803790.617704
-18023.355000	-31502.340000	-133.965000	20171.925000	5999.940000	-11613.870000	-36760.950000	-23693.940000	3.995018	3.581332	2.019104	1.657961	4.575060	1.890993	1.688965	4.504323	2.304260	1.846460	1.007160	-0.648314	0.094116	0.738340	-1.000000	-1.000000	-1.000000	-1.000000	-1.000000	-1.000000	-1.000000	51.000000	0.000000	-1.000000	-1.000000	259150.000000	1775803790.617732
-18033.930000	-31518.990000	-139.230000	20173.860000	5994.630000	-11623.095000	-36774.540000	-23706.585000	4.550754	4.482741	2.230991	0.949039	4.196752	6.077445	3.982586	5.219584	2.304260	1.846460	1.007160	-0.648314	0.094116	0.738340	-1.000000	-1.000000	-1.000000	-1.000000	-1.000000	-1.000000	-1.000000	51.000000	0.000000	-1.000000	-1.000000	259151.000000	1775803790.620522
-18032.040000	-31515.975000	-138.105000	20173.185000	5987.520000	-11622.735000	-36769.005000	-23701.815000	2.890933	2.848164	1.861981	0.541338	1.478979	6.199555	2.300898	2.749492	2.304260	1.846460	1.007160	-0.648314	0.094116	0.738340	-1.000000	-1.000000	-1.000000	-1.000000	-1.000000	-1.000000	-1.000000	51.000000	0.000000	-1.000000	-1.000000	259152.000000	1775803790.620551
-18034.965000	-31520.250000	-141.300000	20169.855000	5976.990000	-11627.415000	-36771.795000	-23704.515000	-0.203356	-0.803074	0.971287	0.680759	-2.206227	2.796076	-1.601756	-1.312304	2.304260	1.846460	1.007160	-0.648314	0.094116	0.738340	-1.000000	-1.000000	-1.000000	-1.000000	-1.000000	-1.000000	-1.000000	51.000000	0.000000	-1.000000	-1.000000	259153.000000	1775803790.630845
-18035.640000	-31522.860000	-142.740000	20167.830000	5975.460000	-11627.730000	-36772.335000	-23705.955000	-2.794936	-4.010642	-0.062112	0.846210	-5.042185	-1.503433	-4.446249	-4.217864	2.304260	1.846460	1.007160	-0.648314	0.094116	0.738340	-1.000000	-1.000000	-1.000000	-1.000000	-1.000000	-1.000000	-1.000000	51.000000	0.000000	-1.000000	-1.000000	259154.000000	1775803790.630876
-18036.495000	-31521.465000	-139.860000	20170.530000	5989.005000	-11619.450000	-36771.750000	-23708.880000	-3.565377	-4.884343	-0.764986	0.642661	-5.151271	-3.978384	-4.525852	-4.639472	2.304260	1.846460	1.007160	-0.648314	0.094116	0.738340	-1.000000	-1.000000	-1.000000	-1.000000	-1.000000	-1.000000	-1.000000	51.000000	0.000000	-1.000000	-1.000000	259155.000000	1775803790.630908
-18036.315000	-31520.340000	-139.995000	20168.505000	5974.245000	-11622.465000	-36769.230000	-23707.080000	-2.492825	-3.157451	-0.744943	0.299657	-1.885266	-3.373812	-2.204907	-2.994727	2.304260	1.846460	1.007160	-0.648314	0.094116	0.738340	-1.000000	-1.000000	-1.000000	-1.000000	-1.000000	-1.000000	-1.000000	51.000000	0.000000	-1.000000	-1.000000	259156.000000	1775803790.630923
-18027.810000	-31512.285000	-133.830000	20169.855000	5955.480000	-11627.370000	-36765.270000	-23698.440000	-0.283006	0.239408	0.028867	0.114932	2.264221	-0.791989	1.136771	-0.216981	-2.807840	1.648080	0.091560	-0.650206	0.103271	0.737608	-1.000000	-1.000000	-1.000000	-1.000000	-1.000000	-1.000000	-1.000000	51.000000	0.000000	-1.000000	-1.000000	259157.000000	1775803790.635351
-18031.365000	-31515.750000	-134.910000	20172.015000	5966.235000	-11611.890000	-36760.230000	-23698.935000	2.138099	3.698462	1.107046	0.126331	3.958801	1.664176	4.026103	2.788855	-2.807840	1.648080	0.091560	-0.650206	0.103271	0.737608	-1.000000	-1.000000	-1.000000	-1.000000	-1.000000	-1.000000	-1.000000	51.000000	0.000000	-1.000000	-1.000000	259158.000000	1775803790.635383
-18028.980000	-31514.940000	-131.625000	20182.725000	5997.780000	-11624.355000	-36768.015000	-23697.945000	3.607245	5.438866	1.763537	0.458217	3.902425	2.984895	5.238864	4.793697	-2.807840	1.648080	0.091560	-0.650206	0.103271	0.737608	-1.000000	-1.000000	-1.000000	-1.000000	-1.000000	-1.000000	-1.000000	51.000000	0.000000	-1.000000	-1.000000	259159.000000	1775803790.636594
-18020.610000	-31503.465000	-123.975000	20184.435000	5994.405000	-11656.845000	-36786.015000	-23700.285000	3.454696	4.746205	1.618084	1.229501	5.207904	2.171579	3.683928	4.639068	-2.807840	1.648080	0.091560	-0.650206	0.103271	0.737608	-1.000000	-1.000000	-1.000000	-1.000000	-1.000000	-1.000000	-1.000000	51.000000	0.000000	-1.000000	-1.000000	259160.000000	1775803790.636618
-18018.000000	-31500.495000	-118.980000	20192.310000	5985.135000	-11656.350000	-36790.020000	-23699.790000	2.243667	2.704649	1.045032	1.996919	7.188079	-1.706084	-0.669521	2.320559	-2.807840	1.648080	0.091560	-0.650206	0.103271	0.737608	-1.000000	-1.000000	-1.000000	-1.000000	-1.000000	-1.000000	-1.000000	51.000000	0.000000	-1.000000	-1.000000	259161.000000	1775803790.638688
-18026.820000	-31512.240000	-131.715000	20188.620000	6005.295000	-11637.990000	-36775.305000	-23698.575000	0.600383	0.400340	0.192075	1.893454	6.323471	-5.922112	-5.138215	-0.848238	-2.807840	1.648080	0.091560	-0.650206	0.103271	0.737608	-1.000000	-1.000000	-1.000000	-1.000000	-1.000000	-1.000000	-1.000000	51.000000	0.000000	-1.000000	-1.000000	259162.000000	1775803790.638714
-18032.355000	-31520.655000	-139.905000	20179.260000	6005.970000	-11629.125000	-36769.410000	-23699.340000	-1.678496	-2.437096	-1.670826	0.180185	2.199254	-5.378535	-5.736516	-3.206666	-2.807840	1.648080	0.091560	-0.650206	0.103271	0.737608	-1.000000	-1.000000	-1.000000	-1.000000	-1.000000	-1.000000	-1.000000	51.000000	0.000000	-1.000000	-1.000000	259163.000000	1775803790.654542
-18033.795000	-31521.330000	-140.355000	20171.745000	5987.070000	-11632.590000	-36773.730000	-23703.210000	-4.361458	-5.688631	-4.501096	-3.149620	-3.053830	0.771844	-1.654077	-3.956136	-2.807840	1.648080	0.091560	-0.650206	0.103271	0.737608	-1.000000	-1.000000	-1.000000	-1.000000	-1.000000	-1.000000	-1.000000	51.000000	0.000000	-1.000000	-1.000000	259164.000000	1775803790.654575
-18022.455000	-31507.515000	-127.530000	20179.170000	5982.075000	-11634.345000	-36771.750000	-23697.090000	-5.774357	-7.299524	-6.135993	-6.467923	-8.245282	7.612802	3.608688	-3.275424	-2.807840	1.648080	0.091560	-0.650206	0.103271	0.737608	-1.000000	-1.000000	-1.000000	-1.000000	-1.000000	-1.000000	-1.000000	51.000000	0.000000	-1.000000	-1.000000	259165.000000	1775803790.654611
-18018.270000	-31500.990000	-122.985000	20186.145000	5988.780000	-11640.105000	-36773.190000	-23695.245000	-4.152071	-5.029096	-4.212782	-7.002106	-11.895241	9.832419	6.184744	-1.535929	-2.807840	1.648080	0.091560	-0.650206	0.103271	0.737608	-1.000000	-1.000000	-1.000000	-1.000000	-1.000000	-1.000000	-1.000000	51.000000	0.000000	-1.000000	-1.000000	259166.000000	1775803790.654627
-18023.445000	-31507.380000	-126.180000	20188.170000	5991.120000	-11635.470000	-36769.500000	-23696.730000	-0.048639	0.375222	0.696728	-3.520975	-11.417823	6.366008	5.077036	0.662276	-5.142620	2.868880	0.396760	-0.653380	0.102600	0.737974	-1.000000	-1.000000	-1.000000	-1.000000	-1.000000	-1.000000	-1.000000	51.000000	0.000000	-1.000000	-1.000000	259167.000000	1775803790.654647
-18032.625000	-31517.460000	-136.350000	20173.545000	5976.810000	-11636.280000	-36777.105000	-23706.000000	3.479130	4.966638	4.996858	1.728485	-6.384729	0.241492	1.684548	2.067280	-5.142620	2.868880	0.396760	-0.653380	0.102600	0.737974	-1.000000	-1.000000	-1.000000	-1.000000	-1.000000	-1.000000	-1.000000	51.000000	0.000000	-1.000000	-1.000000	259168.000000	1775803790.654661
-18032.220000	-31515.165000	-133.425000	20178.180000	5990.085000	-11622.240000	-36773.820000	-23705.370000	3.888691	5.495588	5.617159	4.969072	0.366503	-4.467457	-2.029037	1.679033	-5.142620	2.868880	0.396760	-0.653380	0.102600	0.737974	-1.000000	-1.000000	-1.000000	-1.000000	-1.000000	-1.000000	-1.000000	51.000000	0.000000	-1.000000	-1.000000	259169.000000	1775803790.670838
-18023.355000	-31503.645000	-117.720000	20200.950000	6013.080000	-11618.280000	-36771.345000	-23699.745000	1.840271	2.804300	3.232263	5.225579	6.392329	-5.391505	-4.359089	0.179179	-5.142620	2.868880	0.396760	-0.653380	0.102600	0.737974	-1.000000	-1.000000	-1.000000	-1.000000	-1.000000	-1.000000	-1.000000	51.000000	0.000000	-1.000000	-1.000000	259170.000000	1775803790.670874
-18036.495000	-31517.910000	-132.525000	20183.445000	6010.965000	-11625.570000	-36771.255000	-23708.700000	-0.200428	0.004289	0.727567	4.388103	10.964844	-3.269756	-4.344953	-0.804830	-5.142620	2.868880	0.396760	-0.653380	0.102600	0.737974	-1.000000	-1.000000	-1.000000	-1.000000	-1.000000	-1.000000	-1.000000	51.000000	0.000000	-1.000000	-1.000000	259171.000000	1775803790.670904
-18046.215000	-31526.370000	-142.740000	20168.685000	5979.555000	-11653.065000	-36785.565000	-23717.430000	-1.359142	-1.707016	-1.001804	2.753269	11.945406	-1.526828	-2.713181	-0.954468	-5.142620	2.868880	0.396760	-0.653380	0.102600	0.737974	-1.000000	-1.000000	-1.000000	-1.000000	-1.000000	-1.000000	-1.000000	51.000000	0.000000	-1.000000	-1.000000	259172.000000	1775803790.670946
-18040.770000	-31525.065000	-143.235000	20163.195000	5923.845000	-11679.030000	-36784.080000	-23709.510000	-2.127364	-2.902526	-2.836788	-0.887233	5.675968	-3.323479	-1.279514	-0.914153	-5.142620	2.868880	0.396760	-0.653380	0.102600	0.737974	-1.000000	-1.000000	-1.000000	-1.000000	-1.000000	-1.000000	-1.000000	51.000000	0.000000	-1.000000	-1.000000	259173.000000	1775803790.670964
-18023.445000	-31507.200000	-129.510000	20167.200000	5873.940000	-11686.860000	-36777.375000	-23698.980000	-1.733688	-2.940420	-4.034354	-5.191759	-8.153419	-7.955865	-0.558199	-0.230016	-5.142620	2.868880	0.396760	-0.653380	0.102600	0.737974	-1.000000	-1.000000	-1.000000	-1.000000	-1.000000	-1.000000	-1.000000	51.000000	0.000000	-1.000000	-1.000000	259174.000000	1775803790.670978
-18001.215000	-31483.890000	-108.450000	20179.755000	5855.580000	-11695.680000	-36778.365000	-23683.320000	1.367556	-0.099089	-2.337172	-6.562417	-22.869386	-10.805937	0.510238	2.091188	-5.142620	2.868880	0.396760	-0.653380	0.102600	0.737974	-1.000000	-1.000000	-1.000000	-1.000000	-1.000000	-1.000000	-1.000000	51.000000	0.000000	-1.000000	-1.000000	259175.000000	1775803790.670993
-17999.415000	-31481.370000	-104.760000	20188.215000	5926.185000	-11668.005000	-36777.870000	-23682.105000	6.448799	5.285867	2.624525	-3.050667	-26.527540	-7.317661	2.231595	5.374780	-5.142620	2.868880	0.396760	-0.653380	0.102600	0.737974	-1.000000	-1.000000	-1.000000	-1.000000	-1.000000	-1.000000	-1.000000	51.000000	0.000000	-1.000000	-1.000000	259176.000000	1775803790.671005
-18031.455000	-31515.390000	-134.955000	20170.485000	5958.270000	-11649.645000	-36776.835000	-23704.335000	9.111951	8.814319	7.024641	3.023314	-10.458488	3.346352	3.564335	6.622502	-5.508860	3.708180	3.006220	-0.652830	0.091858	0.738218	-1.000000	-1.000000	-1.000000	-1.000000	-1.000000	-1.000000	-1.000000	51.000000	0.000000	-1.000000	-1.000000	259177.000000	1775803790.672282
-18038.745000	-31519.665000	-132.390000	20181.105000	5969.790000	-11650.410000	-36785.520000	-23716.035000	4.826670	5.472412	5.870347	6.863056	19.435288	16.586372	3.439314	2.866670	-5.508860	3.708180	3.006220	-0.652830	0.091858	0.738218	-1.000000	-1.000000	-1.000000	-1.000000	-1.000000	-1.000000	-1.000000	51.000000	0.000000	-1.000000	-1.000000	259178.000000	1775803790.672306
-18036.720000	-31522.230000	-144.900000	20159.010000	5987.610000	-11643.030000	-36784.170000	-23711.130000	-4.929609	-3.732428	-0.867867	5.858815	44.167129	24.330357	1.611941	-4.706099	-5.508860	3.708180	3.006220	-0.652830	0.091858	0.738218	-1.000000	-1.000000	-1.000000	-1.000000	-1.000000	-1.000000	-1.000000	51.000000	0.000000	-1.000000	-1.000000	259179.000000	1775803790.675404
-18038.250000	-31520.070000	-136.260000	20169.360000	5992.425000	-11657.610000	-36791.730000	-23713.245000	-12.984845	-11.824867	-7.915205	1.229000	47.964307	21.166922	-1.055848	-10.668740	-5.508860	3.708180	3.006220	-0.652830	0.091858	0.738218	-1.000000	-1.000000	-1.000000	-1.000000	-1.000000	-1.000000	-1.000000	51.000000	0.000000	-1.000000	-1.000000	259180.000000	1775803790.675432
-18017.100000	-31493.025000	-99.945000	20216.385000	6024.780000	-11626.605000	-36782.235000	-23699.655000	-13.364353	-12.512836	-9.400024	-2.654406	29.966730	8.824118	-2.994873	-10.481461	-5.508860	3.708180	3.006220	-0.652830	0.091858	0.738218	-1.000000	-1.000000	-1.000000	-1.000000	-1.000000	-1.000000	-1.000000	51.000000	0.000000	-1.000000	-1.000000	259181.000000	1775803790.679935
-18016.920000	-31505.265000	-124.605000	20195.730000	6005.790000	-11607.975000	-36773.145000	-23691.060000	-5.745630	-5.127938	-3.627903	-1.670698	1.323628	-4.848831	-2.738225	-4.040994	-5.508860	3.708180	3.006220	-0.652830	0.091858	0.738218	-1.000000	-1.000000	-1.000000	-1.000000	-1.000000	-1.000000	-1.000000	51.000000	0.000000	-1.000000	-1.000000	259182.000000	1775803790.679964
-18019.035000	-31507.875000	-131.040000	20182.230000	6002.685000	-11595.465000	-36768.420000	-23693.040000	4.766441	4.762329	4.205134	1.934453	-25.208858	-12.377580	-0.049017	4.750542	-5.508860	3.708180	3.006220	-0.652830	0.091858	0.738218	-1.000000	-1.000000	-1.000000	-1.000000	-1.000000	-1.000000	-1.000000	51.000000	0.000000	-1.000000	-1.000000	259183.000000	1775803790.685606
-18020.970000	-31502.745000	-120.555000	20192.850000	6019.695000	-11592.090000	-36762.615000	-23696.955000	11.442280	10.340555	7.444696	2.371305	-40.957643	-12.689359	3.352603	10.480461	-5.508860	3.708180	3.006220	-0.652830	0.091858	0.738218	-1.000000	-1.000000	-1.000000	-1.000000	-1.000000	-1.000000	-1.000000	51.000000	0.000000	-1.000000	-1.000000	259184.000000	1775803790.685636
-18025.380000	-31509.540000	-130.275000	20181.870000	5999.310000	-11600.415000	-36758.655000	-23697.540000	11.006472	9.451255	5.235045	-1.290733	-41.947203	-9.938318	5.104382	9.979359	-5.508860	3.708180	3.006220	-0.652830	0.091858	0.738218	-1.000000	-1.000000	-1.000000	-1.000000	-1.000000	-1.000000	-1.000000	51.000000	0.000000	-1.000000	-1.000000	259185.000000	1775803790.701545
-18029.205000	-31517.100000	-142.020000	20166.885000	6006.465000	-11628.720000	-36773.955000	-23700.870000	5.052444	4.179694	0.548212	-5.888971	-30.394007	-8.764819	3.780748	4.395078	-5.508860	3.708180	3.006220	-0.652830	0.091858	0.738218	-1.000000	-1.000000	-1.000000	-1.000000	-1.000000	-1.000000	-1.000000	51.000000	0.000000	-1.000000	-1.000000	259186.000000	1775803790.701576
-18012.285000	-31496.355000	-114.390000	20202.705000	6041.340000	-11623.005000	-36778.635000	-23690.700000	-1.933806	-1.792990	-3.483351	-8.145385	-12.183811	-10.503069	-0.652963	-2.254853	-5.722500	4.394880	5.356260	-0.653685	0.082458	0.730833	-1.000000	-1.000000	-1.000000	-1.000000	-1.000000	-1.000000	-1.000000	51.000000	0.000000	-1.000000	-1.000000	259187.000000	1775803790.701608
-18008.820000	-31491.630000	-107.505000	20213.775000	6049.935000	-11602.575000	-36763.695000	-23688.495000	-5.484750	-4.609845	-3.816746	-5.176582	7.398840	-11.438433	-5.885540	-6.045600	-5.722500	4.394880	5.356260	-0.653685	0.082458	0.730833	-1.000000	-1.000000	-1.000000	-1.000000	-1.000000	-1.000000	-1.000000	51.000000	0.000000	-1.000000	-1.000000	259188.000000	1775803790.701623
-18020.835000	-31505.355000	-124.065000	20186.055000	5990.085000	-11624.715000	-36757.080000	-23695.740000	-4.628856	-3.359046	-0.347440	1.997097	21.555144	-7.149047	-7.898472	-5.839356	-5.722500	4.394880	5.356260	-0.653685	0.082458	0.730833	-1.000000	-1.000000	-1.000000	-1.000000	-1.000000	-1.000000	-1.000000	51.000000	0.000000	-1.000000	-1.000000	259189.000000	1775803790.701641
-18046.665000	-31530.330000	-149.850000	20154.780000	5960.970000	-11644.470000	-36754.605000	-23716.980000	-2.734503	-1.533965	2.327759	6.568480	22.279903	0.743631	-4.942243	-3.931006	-5.722500	4.394880	5.356260	-0.653685	0.082458	0.730833	-1.000000	-1.000000	-1.000000	-1.000000	-1.000000	-1.000000	-1.000000	51.000000	0.000000	-1.000000	-1.000000	259190.000000	1775803790.701655
-18054.000000	-31533.345000	-147.420000	20165.085000	5965.380000	-11623.320000	-36744.705000	-23724.405000	-3.310874	-2.596803	0.359374	3.738177	9.733903	7.130614	0.656173	-3.264991	-5.722500	4.394880	5.356260	-0.653685	0.082458	0.730833	-1.000000	-1.000000	-1.000000	-1.000000	-1.000000	-1.000000	-1.000000	51.000000	0.000000	-1.000000	-1.000000	259191.000000	1775803790.701672
-18031.635000	-31513.995000	-134.280000	20174.445000	5955.885000	-11667.330000	-36769.815000	-23706.135000	-5.171170	-4.995189	-3.898741	-2.517469	-4.898007	9.771012	4.795807	-3.585032	-5.722500	4.394880	5.356260	-0.653685	0.082458	0.730833	-1.000000	-1.000000	-1.000000	-1.000000	-1.000000	-1.000000	-1.000000	51.000000	0.000000	-1.000000	-1.000000	259192.000000	1775803790.701690
-18020.970000	-31507.065000	-134.190000	20157.390000	5959.755000	-11714.670000	-36809.280000	-23700.015000	-3.677644	-4.046388	-4.997557	-5.187485	-10.507007	7.699798	3.717956	-1.759440	-5.722500	4.394880	5.356260	-0.653685	0.082458	0.730833	-1.000000	-1.000000	-1.000000	-1.000000	-1.000000	-1.000000	-1.000000	51.000000	0.000000	-1.000000	-1.000000	259193.000000	1775803790.716625
-18053.370000	-31535.730000	-150.930000	20159.460000	5980.905000	-11693.025000	-36787.905000	-23720.355000	2.073549	1.014824	-1.608455	-2.771003	-4.697043	1.326883	-2.651086	2.904609	-5.722500	4.394880	5.356260	-0.653685	0.082458	0.730833	-1.000000	-1.000000	-1.000000	-1.000000	-1.000000	-1.000000	-1.000000	51.000000	0.000000	-1.000000	-1.000000	259194.000000	1775803790.716666
-18024.030000	-31504.185000	-117.090000	20198.610000	5989.860000	-11667.915000	-36772.380000	-23702.850000	7.423638	5.968684	3.180255	2.380169	7.671758	-3.126758	-7.965556	6.992027	-5.722500	4.394880	5.356260	-0.653685	0.082458	0.730833	-1.000000	-1.000000	-1.000000	-1.000000	-1.000000	-1.000000	-1.000000	51.000000	0.000000	-1.000000	-1.000000	259195.000000	1775803790.716698
-18009.270000	-31481.595000	-91.035000	20213.370000	6004.080000	-11654.100000	-36774.630000	-23698.890000	9.413940	8.529798	7.557296	8.792246	18.772411	0.954806	-5.750120	8.055217	-5.722500	4.394880	5.356260	-0.653685	0.082458	0.730833	-1.000000	-1.000000	-1.000000	-1.000000	-1.000000	-1.000000	-1.000000	51.000000	0.000000	-1.000000	-1.000000	259196.000000	1775803790.716714
-18026.280000	-31494.960000	-99.630000	20205.810000	6002.595000	-11633.310000	-36779.355000	-23708.430000	8.766756	9.426016	11.001656	13.912137	22.016131	11.615639	2.438991	6.466238	2.243220	-2.365300	6.683880	-0.664732	0.070373	0.719114	-1.000000	-1.000000	-1.000000	-1.000000	-1.000000	-1.000000	-1.000000	51.000000	0.000000	-1.000000	-1.000000	259197.000000	1775803790.716732
-18033.480000	-31517.190000	-133.785000	20181.060000	5998.545000	-11612.835000	-36756.630000	-23706.495000	5.221209	7.186614	10.112936	12.678632	15.262779	20.634473	10.029057	2.881565	2.243220	-2.365300	6.683880	-0.664732	0.070373	0.719114	-1.000000	-1.000000	-1.000000	-1.000000	-1.000000	-1.000000	-1.000000	51.000000	0.000000	-1.000000	-1.000000	259198.000000	1775803790.716745
-18052.875000	-31536.405000	-154.755000	20158.605000	5988.735000	-11616.795000	-36755.145000	-23722.920000	-1.706373	-0.378574	1.408246	2.487096	1.373325	21.140225	13.007668	-1.934279	2.243220	-2.365300	6.683880	-0.664732	0.070373	0.719114	-1.000000	-1.000000	-1.000000	-1.000000	-1.000000	-1.000000	-1.000000	51.000000	0.000000	-1.000000	-1.000000	259199.000000	1775803790.716761
-18051.615000	-31534.335000	-153.090000	20156.985000	5961.600000	-11647.035000	-36815.940000	-23733.585000	-9.518054	-10.669005	-11.926050	-12.253799	-13.876832	10.741254	9.835648	-6.647350	2.243220	-2.365300	6.683880	-0.664732	0.070373	0.719114	-1.000000	-1.000000	-1.000000	-1.000000	-1.000000	-1.000000	-1.000000	51.000000	0.000000	-1.000000	-1.000000	259200.000000	1775803790.716774
-18016.425000	-31491.045000	-106.515000	20202.975000	5997.240000	-11626.965000	-36819.990000	-23710.950000	-13.078113	-16.189165	-20.007570	-21.564294	-24.009251	-7.206001	-0.249557	-9.188087	2.243220	-2.365300	6.683880	-0.664732	0.070373	0.719114	-1.000000	-1.000000	-1.000000	-1.000000	-1.000000	-1.000000	-1.000000	51.000000	0.000000	-1.000000	-1.000000	259201.000000	1775803790.718904
-18062.775000	-31537.395000	-152.325000	20153.835000	5953.905000	-11617.515000	-36738.540000	-23735.430000	-9.330533	-11.918474	-15.832788	-18.477514	-24.334400	-23.244836	-11.347944	-7.530262	2.243220	-2.365300	6.683880	-0.664732	0.070373	0.719114	-1.000000	-1.000000	-1.000000	-1.000000	-1.000000	-1.000000	-1.000000	51.000000	0.000000	-1.000000	-1.000000	259202.000000	1775803790.718934
-18073.170000	-31548.195000	-165.690000	20132.505000	5922.225000	-11633.670000	-36683.460000	-23741.595000	-2.309952	-2.385355	-4.077345	-7.426012	-16.718253	-28.604361	-11.255376	-2.866094	2.243220	-2.365300	6.683880	-0.664732	0.070373	0.719114	-1.000000	-1.000000	-1.000000	-1.000000	-1.000000	-1.000000	-1.000000	51.000000	0.000000	-1.000000	-1.000000	259203.000000	1775803790.722782
-18059.580000	-31537.395000	-158.715000	20133.810000	5897.835000	-11661.345000	-36707.670000	-23731.965000	2.121547	4.372458	5.380578	1.821160	-8.016869	-23.341435	2.655462	1.535656	2.243220	-2.365300	6.683880	-0.664732	0.070373	0.719114	-1.000000	-1.000000	-1.000000	-1.000000	-1.000000	-1.000000	-1.000000	51.000000	0.000000	-1.000000	-1.000000	259204.000000	1775803790.722812
-18004.275000	-31488.300000	-113.715000	20170.260000	5878.530000	-11718.945000	-36797.355000	-23693.985000	4.915324	7.560804	9.951053	6.712349	-1.920186	-14.697281	14.954670	5.249170	2.243220	-2.365300	6.683880	-0.664732	0.070373	0.719114	-1.000000	-1.000000	-1.000000	-1.000000	-1.000000	-1.000000	-1.000000	51.000000	0.000000	-1.000000	-1.000000	259205.000000	1775803790.726733
-17937.630000	-31425.210000	-52.380000	20237.175000	5897.160000	-11790.630000	-36834.390000	-23643.720000	11.278895	12.241822	14.260136	12.162325	3.323723	-9.799234	8.467222	10.491839	2.243220	-2.365300	6.683880	-0.664732	0.070373	0.719114	-1.000000	-1.000000	-1.000000	-1.000000	-1.000000	-1.000000	-1.000000	51.000000	0.000000	-1.000000	-1.000000	259206.000000	1775803790.726761
-17964.495000	-31447.305000	-66.780000	20235.060000	5809.500000	-11795.805000	-36786.780000	-23654.520000	20.554558	19.195204	20.122969	20.620903	9.114568	-9.428762	-13.364810	16.602298	12.360600	-9.415420	12.833660	-0.677000	0.062988	0.709654	-1.000000	-1.000000	-1.000000	-1.000000	-1.000000	-1.000000	-1.000000	51.000000	0.000000	-1.000000	-1.000000	259207.000000	1775803790.731685
-17957.700000	-31440.555000	-60.660000	20239.335000	5812.740000	-11799.000000	-36790.020000	-23655.015000	23.144621	20.786161	21.344471	25.814992	12.233672	-6.662777	-28.992967	17.489201	12.360600	-9.415420	12.833660	-0.677000	0.062988	0.709654	-1.000000	-1.000000	-1.000000	-1.000000	-1.000000	-1.000000	-1.000000	51.000000	0.000000	-1.000000	-1.000000	259208.000000	1775803790.731717
-17951.085000	-31435.830000	-61.335000	20223.405000	5864.580000	-11785.545000	-36816.930000	-23651.730000	11.967267	10.611165	11.687640	19.211275	11.958746	5.269700	-24.466409	8.360874	12.360600	-9.415420	12.833660	-0.677000	0.062988	0.709654	-1.000000	-1.000000	-1.000000	-1.000000	-1.000000	-1.000000	-1.000000	51.000000	0.000000	-1.000000	-1.000000	259209.000000	1775803790.735468
-17964.675000	-31448.475000	-73.845000	20212.200000	5873.625000	-11800.440000	-36840.645000	-23666.265000	-8.196583	-7.618509	-6.302841	0.468617	13.956680	23.841876	-6.425691	-7.570957	12.360600	-9.415420	12.833660	-0.677000	0.062988	0.709654	-1.000000	-1.000000	-1.000000	-1.000000	-1.000000	-1.000000	-1.000000	51.000000	0.000000	-1.000000	-1.000000	259210.000000	1775803790.735498
-17979.750000	-31457.655000	-76.905000	20217.195000	5880.015000	-11768.355000	-36813.555000	-23680.665000	-26.746788	-24.601615	-23.887319	-21.317580	19.551281	39.054677	11.180624	-22.427639	12.360600	-9.415420	12.833660	-0.677000	0.062988	0.709654	-1.000000	-1.000000	-1.000000	-1.000000	-1.000000	-1.000000	-1.000000	51.000000	0.000000	-1.000000	-1.000000	259211.000000	1775803790.738629
-18029.565000	-31498.560000	-111.645000	20185.200000	5827.680000	-11793.870000	-36778.545000	-23717.655000	-36.478002	-33.451003	-33.347376	-34.946908	20.882567	42.302466	22.258839	-30.236800	12.360600	-9.415420	12.833660	-0.677000	0.062988	0.709654	-1.000000	-1.000000	-1.000000	-1.000000	-1.000000	-1.000000	-1.000000	51.000000	0.000000	-1.000000	-1.000000	259212.000000	1775803790.738658
-18050.580000	-31525.020000	-147.645000	20140.740000	5822.505000	-11858.760000	-36786.330000	-23739.435000	-35.889536	-32.631382	-32.566801	-35.927355	10.487046	29.877285	27.267431	-29.314063	12.360600	-9.415420	12.833660	-0.677000	0.062988	0.709654	-1.000000	-1.000000	-1.000000	-1.000000	-1.000000	-1.000000	-1.000000	51.000000	0.000000	-1.000000	-1.000000	259213.000000	1775803790.744732
-18022.995000	-31516.155000	-156.780000	20112.885000	5797.665000	-11877.300000	-36837.360000	-23711.175000	-25.413469	-23.428344	-23.909595	-27.558349	-8.941809	3.881112	24.424386	-19.958955	12.360600	-9.415420	12.833660	-0.677000	0.062988	0.709654	-1.000000	-1.000000	-1.000000	-1.000000	-1.000000	-1.000000	-1.000000	51.000000	0.000000	-1.000000	-1.000000	259214.000000	1775803790.744763
-17956.980000	-31448.340000	-82.845000	20186.820000	5941.980000	-11727.540000	-36852.615000	-23654.295000	-4.433160	-5.942287	-8.469927	-12.800846	-23.716245	-21.720553	10.708800	-1.915438	12.360600	-9.415420	12.833660	-0.677000	0.062988	0.709654	-1.000000	-1.000000	-1.000000	-1.000000	-1.000000	-1.000000	-1.000000	51.000000	0.000000	-1.000000	-1.000000	259215.000000	1775803790.747333
-17993.610000	-31466.385000	-65.115000	20273.535000	6072.930000	-11586.195000	-36788.490000	-23687.640000	22.974548	17.840701	13.952896	10.146287	-17.571265	-24.750030	-8.206788	21.121262	12.360600	-9.415420	12.833660	-0.677000	0.062988	0.709654	-1.000000	-1.000000	-1.000000	-1.000000	-1.000000	-1.000000	-1.000000	51.000000	0.000000	-1.000000	-1.000000	259216.000000	1775803790.747364
-17991.450000	-31462.560000	-64.935000	20274.885000	5971.950000	-11685.420000	-36787.230000	-23688.225000	43.199343	37.966041	36.757880	38.520741	8.251701	-1.444457	-18.817444	37.353096	14.222320	-3.784480	39.721780	-0.676878	0.061401	0.728025	-1.000000	-1.000000	-1.000000	-1.000000	-1.000000	-1.000000	-1.000000	51.000000	0.000000	-1.000000	-1.000000	259217.000000	1775803790.753168
-17968.815000	-31449.150000	-72.090000	20200.140000	5742.630000	-11903.580000	-36821.745000	-23663.430000	44.314590	42.785411	46.661087	55.800964	22.968628	16.715497	-15.787609	36.868822	14.222320	-3.784480	39.721780	-0.676878	0.061401	0.728025	-1.000000	-1.000000	-1.000000	-1.000000	-1.000000	-1.000000	-1.000000	51.000000	0.000000	-1.000000	-1.000000	259218.000000	1775803790.753201
-17943.390000	-31435.740000	-77.670000	20171.745000	5751.180000	-11910.330000	-36814.320000	-23636.790000	28.740024	30.834188	36.149261	44.119999	-1.438754	-2.630910	-7.327637	22.720275	14.222320	-3.784480	39.721780	-0.676878	0.061401	0.728025	-1.000000	-1.000000	-1.000000	-1.000000	-1.000000	-1.000000	-1.000000	51.000000	0.000000	-1.000000	-1.000000	259219.000000	1775803790.755565
-17927.595000	-31419.945000	-57.150000	20210.670000	5788.215000	-11824.200000	-36803.520000	-23632.920000	8.118769	10.506261	11.164470	7.302736	-47.136126	-45.155902	-1.685944	5.360556	14.222320	-3.784480	39.721780	-0.676878	0.061401	0.728025	-1.000000	-1.000000	-1.000000	-1.000000	-1.000000	-1.000000	-1.000000	51.000000	0.000000	-1.000000	-1.000000	259220.000000	1775803790.755598
-17930.790000	-31424.265000	-55.035000	20219.985000	5803.560000	-11767.410000	-36797.580000	-23641.155000	-8.596881	-8.507298	-14.083162	-29.157498	-67.971728	-63.801692	0.753217	-8.509205	14.222320	-3.784480	39.721780	-0.676878	0.061401	0.728025	-1.000000	-1.000000	-1.000000	-1.000000	-1.000000	-1.000000	-1.000000	51.000000	0.000000	-1.000000	-1.000000	259221.000000	1775803790.765917
-17984.520000	-31470.930000	-106.920000	20163.240000	5924.880000	-11701.395000	-36788.940000	-23684.040000	-19.961541	-21.694416	-29.228871	-44.385975	-40.734562	-34.521211	2.371695	-18.540804	14.222320	-3.784480	39.721780	-0.676878	0.061401	0.728025	-1.000000	-1.000000	-1.000000	-1.000000	-1.000000	-1.000000	-1.000000	51.000000	0.000000	-1.000000	-1.000000	259222.000000	1775803790.765948
-18028.395000	-31502.970000	-135.315000	20149.335000	5994.585000	-11624.940000	-36761.490000	-23714.190000	-28.993458	-29.872556	-33.967974	-38.767597	20.073835	23.738817	4.254778	-26.477765	14.222320	-3.784480	39.721780	-0.676878	0.061401	0.728025	-1.000000	-1.000000	-1.000000	-1.000000	-1.000000	-1.000000	-1.000000	51.000000	0.000000	-1.000000	-1.000000	259223.000000	1775803790.765979
-18020.340000	-31490.820000	-103.815000	20206.170000	5915.160000	-11649.735000	-36734.445000	-23704.605000	-35.288197	-32.860394	-30.843095	-22.140619	76.857409	72.361078	6.652735	-30.655128	14.222320	-3.784480	39.721780	-0.676878	0.061401	0.728025	-1.000000	-1.000000	-1.000000	-1.000000	-1.000000	-1.000000	-1.000000	51.000000	0.000000	-1.000000	-1.000000	259224.000000	1775803790.765994
-17982.405000	-31458.780000	-80.145000	20197.305000	5753.925000	-11840.085000	-36749.970000	-23682.915000	-31.700352	-26.106906	-18.495242	-0.518270	88.897786	77.839083	8.272854	-25.455439	14.222320	-3.784480	39.721780	-0.676878	0.061401	0.728025	-1.000000	-1.000000	-1.000000	-1.000000	-1.000000	-1.000000	-1.000000	51.000000	0.000000	-1.000000	-1.000000	259225.000000	1775803790.774661
-18011.385000	-31500.045000	-136.665000	20125.485000	5803.200000	-11916.045000	-36820.215000	-23698.980000	-13.680705	-8.251326	1.219351	18.556968	43.936912	29.888857	4.601015	-8.870837	14.222320	-3.784480	39.721780	-0.676878	0.061401	0.728025	-1.000000	-1.000000	-1.000000	-1.000000	-1.000000	-1.000000	-1.000000	51.000000	0.000000	-1.000000	-1.000000	259226.000000	1775803790.774691
-18071.505000	-31536.180000	-141.480000	20186.145000	6002.955000	-11774.070000	-36827.145000	-23737.320000	9.958778	11.486256	17.774118	25.482270	-20.743381	-41.290861	-7.531045	11.126427	8.347220	-32.976860	66.564120	-0.690489	0.030212	0.739378	-1.000000	-1.000000	-1.000000	-1.000000	-1.000000	-1.000000	-1.000000	51.000000	0.000000	-1.000000	-1.000000	259227.000000	1775803790.774738
-18039.375000	-31486.455000	-89.730000	20230.290000	5841.630000	-11838.015000	-36806.940000	-23715.495000	24.642694	22.278371	23.527335	21.660760	-53.996277	-82.206128	-21.542262	23.210916	8.347220	-32.976860	66.564120	-0.690489	0.030212	0.739378	-1.000000	-1.000000	-1.000000	-1.000000	-1.000000	-1.000000	-1.000000	51.000000	0.000000	-1.000000	-1.000000	259228.000000	1775803790.774758
-17984.475000	-31451.535000	-80.235000	20203.065000	5797.935000	-11852.595000	-36807.570000	-23694.615000	27.576824	24.539636	22.184027	16.241799	-48.329669	-68.811558	-24.901914	24.639623	8.347220	-32.976860	66.564120	-0.690489	0.030212	0.739378	-1.000000	-1.000000	-1.000000	-1.000000	-1.000000	-1.000000	-1.000000	51.000000	0.000000	-1.000000	-1.000000	259229.000000	1775803790.777837
-18071.010000	-31558.950000	-189.000000	20112.570000	6003.945000	-11688.255000	-36805.095000	-23747.670000	24.924705	22.362643	17.120413	9.241358	-27.086353	-19.268378	-13.251345	19.576247	8.347220	-32.976860	66.564120	-0.690489	0.030212	0.739378	-1.000000	-1.000000	-1.000000	-1.000000	-1.000000	-1.000000	-1.000000	51.000000	0.000000	-1.000000	-1.000000	259230.000000	1775803790.777869
-18030.330000	-31501.890000	-115.425000	20212.380000	6125.895000	-11569.005000	-36763.155000	-23713.560000	17.744138	13.674580	5.892196	-3.534473	2.452878	40.135238	6.463690	10.741754	8.347220	-32.976860	66.564120	-0.690489	0.030212	0.739378	-1.000000	-1.000000	-1.000000	-1.000000	-1.000000	-1.000000	-1.000000	51.000000	0.000000	-1.000000	-1.000000	259231.000000	1775803790.780185
-18002.835000	-31469.670000	-76.230000	20247.840000	5979.960000	-11654.190000	-36744.570000	-23697.450000	6.801098	0.946874	-6.419691	-14.080658	35.792037	85.025792	24.543342	1.443474	8.347220	-32.976860	66.564120	-0.690489	0.030212	0.739378	-1.000000	-1.000000	-1.000000	-1.000000	-1.000000	-1.000000	-1.000000	51.000000	0.000000	-1.000000	-1.000000	259232.000000	1775803790.780214
-18034.245000	-31511.205000	-119.655000	20209.635000	6048.720000	-11615.130000	-36787.365000	-23715.540000	-2.317427	-6.975849	-9.891250	-12.372525	48.783582	89.415626	32.575211	-3.915884	8.347220	-32.976860	66.564120	-0.690489	0.030212	0.739378	-1.000000	-1.000000	-1.000000	-1.000000	-1.000000	-1.000000	-1.000000	51.000000	0.000000	-1.000000	-1.000000	259233.000000	1775803790.783744
-18044.325000	-31536.990000	-158.580000	20188.395000	6262.875000	-11417.265000	-36762.660000	-23706.315000	-8.042874	-9.313437	-6.902780	-4.228490	31.928945	51.357590	25.377164	-5.513444	8.347220	-32.976860	66.564120	-0.690489	0.030212	0.739378	-1.000000	-1.000000	-1.000000	-1.000000	-1.000000	-1.000000	-1.000000	51.000000	0.000000	-1.000000	-1.000000	259234.000000	1775803790.783778
-18009.315000	-31485.195000	-94.005000	20253.150000	6250.320000	-11391.390000	-36726.795000	-23686.965000	-11.983109	-10.461450	-5.644368	-0.186292	7.707761	1.939133	7.628633	-5.735073	8.347220	-32.976860	66.564120	-0.690489	0.030212	0.739378	-1.000000	-1.000000	-1.000000	-1.000000	-1.000000	-1.000000	-1.000000	51.000000	0.000000	-1.000000	-1.000000	259235.000000	1775803790.787566
-17992.215000	-31451.715000	-49.365000	20296.575000	6163.605000	-11480.805000	-36728.415000	-23684.355000	-12.051320	-8.427009	-4.205698	0.977606	-9.583075	-34.029790	-8.562533	-4.834898	8.347220	-32.976860	66.564120	-0.690489	0.030212	0.739378	-1.000000	-1.000000	-1.000000	-1.000000	-1.000000	-1.000000	-1.000000	51.000000	0.000000	-1.000000	-1.000000	259236.000000	1775803790.787600
-17994.870000	-31459.590000	-67.680000	20259.090000	6087.195000	-11559.690000	-36744.930000	-23685.300000	-6.717510	-0.512818	2.346166	4.022661	-30.120398	-60.212705	-16.574656	-3.153813	26.857600	-46.222540	49.686560	-0.693724	0.022156	0.707579	-1.000000	-1.000000	-1.000000	-1.000000	-1.000000	-1.000000	-1.000000	51.000000	0.000000	-1.000000	-1.000000	259237.000000	1775803790.791709
-17996.670000	-31470.030000	-90.315000	20205.900000	5986.800000	-11613.870000	-36757.080000	-23681.745000	-0.006060	7.743313	8.899620	4.360446	-59.353801	-83.564198	-18.680207	-2.283006	26.857600	-46.222540	49.686560	-0.693724	0.022156	0.707579	-1.000000	-1.000000	-1.000000	-1.000000	-1.000000	-1.000000	-1.000000	51.000000	0.000000	-1.000000	-1.000000	259238.000000	1775803790.791739
-17983.755000	-31463.415000	-85.050000	20214.135000	5952.555000	-11622.915000	-36753.300000	-23665.680000	3.073343	8.658085	6.989977	-4.154358	-82.986663	-94.137243	-18.192846	-2.588293	26.857600	-46.222540	49.686560	-0.693724	0.022156	0.707579	-1.000000	-1.000000	-1.000000	-1.000000	-1.000000	-1.000000	-1.000000	51.000000	0.000000	-1.000000	-1.000000	259239.000000	1775803790.795561
-18004.590000	-31479.480000	-91.575000	20229.480000	6025.410000	-11606.670000	-36767.250000	-23684.670000	1.511833	1.609562	-2.787721	-15.984113	-78.541256	-76.072259	-15.172113	-3.052346	26.857600	-46.222540	49.686560	-0.693724	0.022156	0.707579	-1.000000	-1.000000	-1.000000	-1.000000	-1.000000	-1.000000	-1.000000	51.000000	0.000000	-1.000000	-1.000000	259240.000000	1775803790.795600
-18034.695000	-31514.220000	-126.855000	20194.470000	6076.080000	-11576.880000	-36767.295000	-23703.210000	-3.419749	-8.648665	-13.174098	-19.998970	-34.091716	-26.889169	-9.080065	-3.900880	26.857600	-46.222540	49.686560	-0.693724	0.022156	0.707579	-1.000000	-1.000000	-1.000000	-1.000000	-1.000000	-1.000000	-1.000000	51.000000	0.000000	-1.000000	-1.000000	259241.000000	1775803790.804954
-18028.395000	-31507.740000	-126.630000	20210.670000	6146.775000	-11533.905000	-36746.865000	-23699.205000	-9.503529	-16.903328	-18.640332	-13.130207	37.055589	36.762564	-0.565187	-5.730585	26.857600	-46.222540	49.686560	-0.693724	0.022156	0.707579	-1.000000	-1.000000	-1.000000	-1.000000	-1.000000	-1.000000	-1.000000	51.000000	0.000000	-1.000000	-1.000000	259242.000000	1775803790.804985
-18017.820000	-31480.695000	-78.075000	20276.955000	6053.985000	-11600.190000	-36766.890000	-23699.385000	-12.123857	-17.821045	-15.839827	1.071045	98.896338	87.263314	8.588884	-6.612714	26.857600	-46.222540	49.686560	-0.693724	0.022156	0.707579	-1.000000	-1.000000	-1.000000	-1.000000	-1.000000	-1.000000	-1.000000	51.000000	0.000000	-1.000000	-1.000000	259243.000000	1775803790.805014
-18020.925000	-31492.620000	-107.595000	20193.165000	5855.985000	-11714.130000	-36799.290000	-23699.610000	-7.466482	-8.698254	-3.916362	16.818586	112.093949	98.906237	14.187583	-4.041721	26.857600	-46.222540	49.686560	-0.693724	0.022156	0.707579	-1.000000	-1.000000	-1.000000	-1.000000	-1.000000	-1.000000	-1.000000	51.000000	0.000000	-1.000000	-1.000000	259244.000000	1775803790.805029
-18014.175000	-31491.405000	-128.025000	20135.160000	5916.150000	-11701.575000	-36804.015000	-23695.965000	2.577951	5.670516	10.443519	23.018230	65.101759	65.680245	12.319439	1.605115	26.857600	-46.222540	49.686560	-0.693724	0.022156	0.707579	-1.000000	-1.000000	-1.000000	-1.000000	-1.000000	-1.000000	-1.000000	51.000000	0.000000	-1.000000	-1.000000	259245.000000	1775803790.815582
-17971.155000	-31435.515000	-51.885000	20250.720000	6015.870000	-11660.265000	-36782.055000	-23667.930000	12.894816	17.492009	18.676117	14.431172	-5.215116	12.327953	5.422692	8.032491	26.857600	-46.222540	49.686560	-0.693724	0.022156	0.707579	-1.000000	-1.000000	-1.000000	-1.000000	-1.000000	-1.000000	-1.000000	51.000000	0.000000	-1.000000	-1.000000	259246.000000	1775803790.815616
-17978.445000	-31445.460000	-64.170000	20228.445000	5990.715000	-11633.715000	-36765.765000	-23664.465000	19.673600	23.211962	20.345796	3.073168	-45.982698	-24.733111	0.870490	13.170895	82.602380	1.663340	16.160340	-0.655150	0.061523	0.712828	-1.000000	-1.000000	-1.000000	-1.000000	-1.000000	-1.000000	-1.000000	51.000000	0.000000	-1.000000	-1.000000	259247.000000	1775803790.815650
-17963.190000	-31422.780000	-44.865000	20224.530000	5908.590000	-11676.780000	-36771.075000	-23649.975000	20.049792	21.789055	17.999621	0.168643	-42.966212	-30.263996	2.318920	14.965673	82.602380	1.663340	16.160340	-0.655150	0.061523	0.712828	-1.000000	-1.000000	-1.000000	-1.000000	-1.000000	-1.000000	-1.000000	51.000000	0.000000	-1.000000	-1.000000	259248.000000	1775803790.815664
-17937.225000	-31402.125000	-30.195000	20210.445000	5731.380000	-11805.165000	-36774.900000	-23634.405000	13.273850	13.459103	11.502379	1.738977	-24.412001	-19.029005	6.011736	12.076170	82.602380	1.663340	16.160340	-0.655150	0.061523	0.712828	-1.000000	-1.000000	-1.000000	-1.000000	-1.000000	-1.000000	-1.000000	51.000000	0.000000	-1.000000	-1.000000	259249.000000	1775803790.815688
-17973.765000	-31446.045000	-78.975000	20174.130000	5723.820000	-11914.920000	-36819.855000	-23670.180000	2.035186	0.760698	0.841093	-0.304359	-19.132201	-15.459926	5.544081	4.705315	82.602380	1.663340	16.160340	-0.655150	0.061523	0.712828	-1.000000	-1.000000	-1.000000	-1.000000	-1.000000	-1.000000	-1.000000	51.000000	0.000000	-1.000000	-1.000000	259250.000000	1775803790.815701
-17988.300000	-31452.075000	-78.705000	20204.910000	5917.635000	-11871.315000	-36822.825000	-23687.550000	-10.886976	-13.700628	-12.720131	-7.063196	-21.483294	-25.316545	-1.712451	-6.384083	82.602380	1.663340	16.160340	-0.655150	0.061523	0.712828	-1.000000	-1.000000	-1.000000	-1.000000	-1.000000	-1.000000	-1.000000	51.000000	0.000000	-1.000000	-1.000000	259251.000000	1775803790.827848
-18044.595000	-31507.065000	-120.645000	20208.780000	6112.305000	-11615.715000	-36760.185000	-23715.045000	-23.333361	-26.832233	-25.320471	-12.245657	-1.187723	-25.542942	-10.216870	-18.532669	82.602380	1.663340	16.160340	-0.655150	0.061523	0.712828	-1.000000	-1.000000	-1.000000	-1.000000	-1.000000	-1.000000	-1.000000	51.000000	0.000000	-1.000000	-1.000000	259252.000000	1775803790.827879
-18037.755000	-31496.220000	-95.445000	20252.655000	6134.670000	-11546.505000	-36720.135000	-23704.830000	-31.274537	-33.651838	-30.607857	-9.319039	49.457588	8.686940	-9.672820	-25.848939	82.602380	1.663340	16.160340	-0.655150	0.061523	0.712828	-1.000000	-1.000000	-1.000000	-1.000000	-1.000000	-1.000000	-1.000000	51.000000	0.000000	-1.000000	-1.000000	259253.000000	1775803790.827907
-18060.345000	-31525.830000	-139.770000	20178.675000	6010.335000	-11660.670000	-36727.515000	-23725.665000	-29.421642	-29.562690	-24.557592	-0.068573	91.953677	61.532875	2.046214	-23.034181	82.602380	1.663340	16.160340	-0.655150	0.061523	0.712828	-1.000000	-1.000000	-1.000000	-1.000000	-1.000000	-1.000000	-1.000000	51.000000	0.000000	-1.000000	-1.000000	259254.000000	1775803790.827922
-18047.250000	-31502.520000	-112.995000	20206.215000	5973.390000	-11741.490000	-36750.330000	-23730.660000	-15.787350	-14.145418	-9.387779	6.443897	79.306339	82.334595	13.744724	-10.717639	82.602380	1.663340	16.160340	-0.655150	0.061523	0.712828	-1.000000	-1.000000	-1.000000	-1.000000	-1.000000	-1.000000	-1.000000	51.000000	0.000000	-1.000000	-1.000000	259255.000000	1775803790.827939
-18039.915000	-31485.960000	-89.370000	20217.690000	5851.080000	-11843.145000	-36805.590000	-23739.345000	5.373619	7.883040	9.155480	5.749817	7.901507	42.432979	12.377457	4.838272	82.602380	1.663340	16.160340	-0.655150	0.061523	0.712828	-1.000000	-1.000000	-1.000000	-1.000000	-1.000000	-1.000000	-1.000000	51.000000	0.000000	-1.000000	-1.000000	259256.000000	1775803790.827952
-18035.730000	-31489.515000	-97.110000	20199.960000	5892.750000	-11762.370000	-36788.220000	-23728.725000	25.705744	28.532061	25.329086	1.996731	-78.736744	-32.362036	-3.219579	17.186845	79.184140	31.695020	1.831200	-0.584227	0.133545	0.775694	-1.000000	-1.000000	-1.000000	-1.000000	-1.000000	-1.000000	-1.000000	51.000000	0.000000	-1.000000	-1.000000	259257.000000	1775803790.838389
-17950.185000	-31399.425000	-7.470000	20288.835000	5954.355000	-11704.230000	-36772.965000	-23664.465000	38.298360	40.533623	34.385718	0.586287	-125.353800	-86.154803	-20.234233	24.344599	79.184140	31.695020	1.831200	-0.584227	0.133545	0.775694	-1.000000	-1.000000	-1.000000	-1.000000	-1.000000	-1.000000	-1.000000	51.000000	0.000000	-1.000000	-1.000000	259258.000000	1775803790.838445
-17959.455000	-31427.415000	-47.835000	20228.355000	5838.165000	-11745.675000	-36779.805000	-23656.365000	41.116789	41.265758	34.311849	3.442971	-106.442243	-84.024289	-24.480633	27.818580	79.184140	31.695020	1.831200	-0.584227	0.133545	0.775694	-1.000000	-1.000000	-1.000000	-1.000000	-1.000000	-1.000000	-1.000000	51.000000	0.000000	-1.000000	-1.000000	259259.000000	1775803790.838476
-17962.380000	-31424.760000	-44.955000	20201.535000	5675.670000	-11860.290000	-36774.945000	-23660.460000	32.929295	29.922422	23.716325	5.442982	-47.089928	-40.886585	-13.964772	26.434289	79.184140	31.695020	1.831200	-0.584227	0.133545	0.775694	-1.000000	-1.000000	-1.000000	-1.000000	-1.000000	-1.000000	-1.000000	51.000000	0.000000	-1.000000	-1.000000	259260.000000	1775803790.838490
-18012.645000	-31474.800000	-106.875000	20115.360000	5694.300000	-11866.320000	-36751.950000	-23699.745000	12.001319	6.628765	2.159926	-1.699715	7.333291	2.755875	3.003783	15.550653	79.184140	31.695020	1.831200	-0.584227	0.133545	0.775694	-1.000000	-1.000000	-1.000000	-1.000000	-1.000000	-1.000000	-1.000000	51.000000	0.000000	-1.000000	-1.000000	259261.000000	1775803790.840154
-18030.645000	-31488.345000	-112.995000	20145.960000	5894.280000	-11806.380000	-36751.455000	-23713.110000	-17.554051	-22.436094	-24.358504	-16.740654	41.928151	25.607225	17.316903	-5.305906	79.184140	31.695020	1.831200	-0.584227	0.133545	0.775694	-1.000000	-1.000000	-1.000000	-1.000000	-1.000000	-1.000000	-1.000000	51.000000	0.000000	-1.000000	-1.000000	259262.000000	1775803790.840185
-18014.805000	-31484.745000	-102.420000	20204.190000	6109.605000	-11636.145000	-36734.715000	-23688.540000	-43.113946	-44.812941	-43.253646	-25.434322	74.845848	37.352099	23.363237	-27.178800	79.184140	31.695020	1.831200	-0.584227	0.133545	0.775694	-1.000000	-1.000000	-1.000000	-1.000000	-1.000000	-1.000000	-1.000000	51.000000	0.000000	-1.000000	-1.000000	259263.000000	1775803790.843987
-17964.900000	-31435.290000	-52.245000	20271.330000	6173.955000	-11626.470000	-36779.670000	-23659.830000	-49.727748	-48.008065	-42.355630	-13.704850	113.582585	52.404346	19.120612	-36.518069	79.184140	31.695020	1.831200	-0.584227	0.133545	0.775694	-1.000000	-1.000000	-1.000000	-1.000000	-1.000000	-1.000000	-1.000000	51.000000	0.000000	-1.000000	-1.000000	259264.000000	1775803790.844017
-17987.805000	-31457.925000	-61.515000	20273.355000	6122.565000	-11623.050000	-36731.295000	-23669.145000	-32.589954	-29.190230	-20.292128	15.131730	130.426604	63.819617	6.831397	-27.471541	79.184140	31.695020	1.831200	-0.584227	0.133545	0.775694	-1.000000	-1.000000	-1.000000	-1.000000	-1.000000	-1.000000	-1.000000	51.000000	0.000000	-1.000000	-1.000000	259265.000000	1775803790.861922
-18050.130000	-31520.250000	-113.445000	20227.770000	6086.160000	-11619.270000	-36701.145000	-23709.150000	-4.652553	-1.213078	8.707998	39.615421	91.369136	52.367398	-5.446665	-8.536741	79.184140	31.695020	1.831200	-0.584227	0.133545	0.775694	-1.000000	-1.000000	-1.000000	-1.000000	-1.000000	-1.000000	-1.000000	51.000000	0.000000	-1.000000	-1.000000	259266.000000	1775803790.861954
-18046.890000	-31499.640000	-94.005000	20243.430000	6072.480000	-11642.940000	-36726.660000	-23708.115000	14.520573	17.643281	25.915751	39.750364	-0.082373	13.713263	-10.177428	6.087992	40.973100	18.205180	-23.927680	-0.568297	0.200561	0.828550	-1.000000	-1.000000	-1.000000	-1.000000	-1.000000	-1.000000	-1.000000	51.000000	0.000000	-1.000000	-1.000000	259267.000000	1775803790.862037
-18010.395000	-31461.255000	-69.165000	20231.865000	5869.800000	-11818.080000	-36791.505000	-23684.445000	18.765316	22.288950	25.970758	15.965892	-102.619170	-38.637429	-10.156816	10.870859	40.973100	18.205180	-23.927680	-0.568297	0.200561	0.828550	-1.000000	-1.000000	-1.000000	-1.000000	-1.000000	-1.000000	-1.000000	51.000000	0.000000	-1.000000	-1.000000	259268.000000	1775803790.862062
-17979.930000	-31454.820000	-84.690000	20173.140000	5776.335000	-11917.845000	-36832.680000	-23678.055000	17.142452	20.866771	17.138256	-15.445978	-173.151387	-87.542426	-13.685457	10.719410	40.973100	18.205180	-23.927680	-0.568297	0.200561	0.828550	-1.000000	-1.000000	-1.000000	-1.000000	-1.000000	-1.000000	-1.000000	51.000000	0.000000	-1.000000	-1.000000	259269.000000	1775803790.862091
-18006.345000	-31475.925000	-95.220000	20189.745000	5936.895000	-11758.815000	-36795.375000	-23699.655000	17.285585	18.714675	7.067876	-38.635530	-182.349124	-110.827925	-20.296524	10.314670	40.973100	18.205180	-23.927680	-0.568297	0.200561	0.828550	-1.000000	-1.000000	-1.000000	-1.000000	-1.000000	-1.000000	-1.000000	51.000000	0.000000	-1.000000	-1.000000	259270.000000	1775803790.862106
-18020.520000	-31487.445000	-95.850000	20221.380000	6075.450000	-11632.005000	-36736.515000	-23696.955000	16.213765	13.278841	-1.909824	-43.254141	-114.788256	-82.268492	-18.521999	8.776858	40.973100	18.205180	-23.927680	-0.568297	0.200561	0.828550	-1.000000	-1.000000	-1.000000	-1.000000	-1.000000	-1.000000	-1.000000	51.000000	0.000000	-1.000000	-1.000000	259271.000000	1775803790.862150
-18005.940000	-31460.220000	-56.565000	20257.200000	6055.470000	-11577.555000	-36742.095000	-23695.920000	8.985451	3.233142	-7.593347	-26.107691	8.486402	-2.020546	-1.137887	4.770975	40.973100	18.205180	-23.927680	-0.568297	0.200561	0.828550	-1.000000	-1.000000	-1.000000	-1.000000	-1.000000	-1.000000	-1.000000	51.000000	0.000000	-1.000000	-1.000000	259272.000000	1775803790.862164
-18010.980000	-31459.680000	-50.445000	20235.645000	5966.505000	-11554.200000	-36732.690000	-23698.395000	-2.036177	-6.531885	-7.066847	3.624451	122.097074	86.689778	22.604065	-0.015227	40.973100	18.205180	-23.927680	-0.568297	0.200561	0.828550	-1.000000	-1.000000	-1.000000	-1.000000	-1.000000	-1.000000	-1.000000	51.000000	0.000000	-1.000000	-1.000000	259273.000000	1775803790.878571
-18016.605000	-31485.195000	-96.930000	20203.110000	5997.825000	-11625.840000	-36717.615000	-23686.380000	-10.832400	-11.492017	-2.386356	27.342551	163.700028	129.222729	36.314743	-3.113136	40.973100	18.205180	-23.927680	-0.568297	0.200561	0.828550	-1.000000	-1.000000	-1.000000	-1.000000	-1.000000	-1.000000	-1.000000	51.000000	0.000000	-1.000000	-1.000000	259274.000000	1775803790.878602
-18000.540000	-31469.580000	-99.315000	20204.640000	6043.365000	-11659.005000	-36726.795000	-23674.815000	-13.962978	-12.223940	-0.645698	31.351143	126.090209	101.324124	32.263595	-3.161692	40.973100	18.205180	-23.927680	-0.568297	0.200561	0.828550	-1.000000	-1.000000	-1.000000	-1.000000	-1.000000	-1.000000	-1.000000	51.000000	0.000000	-1.000000	-1.000000	259275.000000	1775803790.878637
-17946.405000	-31389.075000	1.215000	20309.175000	6065.910000	-11615.265000	-36745.965000	-23652.090000	-10.114572	-8.786152	-2.674057	19.786207	50.806344	24.758054	13.790100	-0.260528	40.973100	18.205180	-23.927680	-0.568297	0.200561	0.828550	-1.000000	-1.000000	-1.000000	-1.000000	-1.000000	-1.000000	-1.000000	51.000000	0.000000	-1.000000	-1.000000	259276.000000	1775803790.878653
-18056.970000	-31514.445000	-108.090000	20252.835000	6137.280000	-11542.230000	-36684.720000	-23709.645000	-2.081599	-1.511741	-2.480338	7.642883	-15.706801	-49.694731	-8.700792	2.675634	18.662980	36.395100	-24.919580	-0.587340	0.249206	0.807615	-1.000000	-1.000000	-1.000000	-1.000000	-1.000000	-1.000000	-1.000000	51.000000	0.000000	-1.000000	-1.000000	259277.000000	1775803790.878670
-18053.820000	-31501.755000	-88.155000	20245.545000	6009.885000	-11653.740000	-36685.305000	-23716.620000	1.093465	1.948522	-1.121511	0.450615	-52.274077	-83.449328	-22.526480	0.653177	18.662980	36.395100	-24.919580	-0.587340	0.249206	0.807615	-1.000000	-1.000000	-1.000000	-1.000000	-1.000000	-1.000000	-1.000000	51.000000	0.000000	-1.000000	-1.000000	259278.000000	1775803790.878683
-18020.295000	-31475.745000	-83.970000	20190.060000	5918.895000	-11696.445000	-36759.780000	-23698.755000	-3.735018	-2.641137	-3.088523	-7.536449	-66.427841	-77.161294	-23.834551	-6.344349	18.662980	36.395100	-24.919580	-0.587340	0.249206	0.807615	-1.000000	-1.000000	-1.000000	-1.000000	-1.000000	-1.000000	-1.000000	51.000000	0.000000	-1.000000	-1.000000	259279.000000	1775803790.878699
-18008.505000	-31476.735000	-99.225000	20196.405000	6111.360000	-11566.665000	-36779.175000	-23686.065000	-7.104035	-6.990412	-5.646475	-18.458830	-68.305615	-50.232889	-20.820628	-10.855611	18.662980	36.395100	-24.919580	-0.587340	0.249206	0.807615	-1.000000	-1.000000	-1.000000	-1.000000	-1.000000	-1.000000	-1.000000	51.000000	0.000000	-1.000000	-1.000000	259280.000000	1775803790.878712
-18022.590000	-31481.190000	-81.990000	20265.795000	6214.950000	-11508.390000	-36735.165000	-23699.070000	-1.927815	-3.964456	-4.664160	-24.462328	-48.031017	-11.411119	-18.584851	-7.488882	18.662980	36.395100	-24.919580	-0.587340	0.249206	0.807615	-1.000000	-1.000000	-1.000000	-1.000000	-1.000000	-1.000000	-1.000000	51.000000	0.000000	-1.000000	-1.000000	259281.000000	1775803790.892103
-18035.955000	-31491.945000	-94.095000	20227.860000	6047.235000	-11608.020000	-36731.655000	-23707.080000	6.958039	3.448860	-0.064671	-16.824629	-3.961357	30.334791	-11.771950	0.495352	18.662980	36.395100	-24.919580	-0.587340	0.249206	0.807615	-1.000000	-1.000000	-1.000000	-1.000000	-1.000000	-1.000000	-1.000000	51.000000	0.000000	-1.000000	-1.000000	259282.000000	1775803790.892132
-18060.525000	-31523.490000	-135.540000	20163.690000	5957.325000	-11689.425000	-36742.680000	-23715.765000	10.902492	8.265936	4.657254	-0.671119	31.372027	51.524681	2.469376	6.368459	18.662980	36.395100	-24.919580	-0.587340	0.249206	0.807615	-1.000000	-1.000000	-1.000000	-1.000000	-1.000000	-1.000000	-1.000000	51.000000	0.000000	-1.000000	-1.000000	259283.000000	1775803790.892161
-18085.230000	-31547.655000	-154.980000	20160.765000	6032.565000	-11621.520000	-36701.055000	-23731.065000	6.551835	6.295766	4.704435	9.303115	30.422928	38.707816	17.796002	6.820356	18.662980	36.395100	-24.919580	-0.587340	0.249206	0.807615	-1.000000	-1.000000	-1.000000	-1.000000	-1.000000	-1.000000	-1.000000	51.000000	0.000000	-1.000000	-1.000000	259284.000000	1775803790.892175
-18062.325000	-31513.410000	-109.530000	20218.320000	6104.385000	-11574.765000	-36730.035000	-23721.255000	-2.000582	-0.007238	0.761232	9.313602	8.882837	10.106869	26.515100	3.337281	18.662980	36.395100	-24.919580	-0.587340	0.249206	0.807615	-1.000000	-1.000000	-1.000000	-1.000000	-1.000000	-1.000000	-1.000000	51.000000	0.000000	-1.000000	-1.000000	259285.000000	1775803790.892192
-18027.045000	-31472.955000	-65.880000	20247.120000	6056.190000	-11611.530000	-36747.405000	-23699.880000	-6.209317	-2.490515	0.514642	9.143163	-2.372454	-7.479604	24.139656	0.380041	18.662980	36.395100	-24.919580	-0.587340	0.249206	0.807615	-1.000000	-1.000000	-1.000000	-1.000000	-1.000000	-1.000000	-1.000000	51.000000	0.000000	-1.000000	-1.000000	259286.000000	1775803790.892206
-18026.235000	-31457.880000	-41.895000	20251.215000	5828.625000	-11910.555000	-36809.100000	-23721.030000	-1.063795	3.950343	8.668352	14.817509	-1.497193	-13.811565	9.959105	1.004678	-46.680340	22.310120	11.109280	-0.610045	0.255309	0.749449	-1.000000	-1.000000	-1.000000	-1.000000	-1.000000	-1.000000	-1.000000	51.000000	0.000000	-1.000000	-1.000000	259287.000000	1775803790.892221
-18106.920000	-31550.850000	-166.455000	20085.120000	5621.940000	-12022.965000	-36848.880000	-23778.495000	7.336344	12.538709	16.990403	17.413431	-11.903874	-29.536394	-11.129094	2.166823	-46.680340	22.310120	11.109280	-0.610045	0.255309	0.749449	-1.000000	-1.000000	-1.000000	-1.000000	-1.000000	-1.000000	-1.000000	51.000000	0.000000	-1.000000	-1.000000	259288.000000	1775803790.892234
-18037.395000	-31499.550000	-122.265000	20142.855000	5849.370000	-11730.465000	-36814.545000	-23718.285000	8.662819	11.350361	11.927643	4.806689	-36.273308	-49.698590	-28.144317	-0.297834	-46.680340	22.310120	11.109280	-0.610045	0.255309	0.749449	-1.000000	-1.000000	-1.000000	-1.000000	-1.000000	-1.000000	-1.000000	51.000000	0.000000	-1.000000	-1.000000	259289.000000	1775803790.895692
-17956.530000	-31417.740000	-41.445000	20246.445000	6109.155000	-11588.580000	-36832.320000	-23677.290000	4.775458	1.826428	-3.825156	-14.519898	-34.889115	-33.368483	-29.283563	-2.232756	-46.680340	22.310120	11.109280	-0.610045	0.255309	0.749449	-1.000000	-1.000000	-1.000000	-1.000000	-1.000000	-1.000000	-1.000000	51.000000	0.000000	-1.000000	-1.000000	259290.000000	1775803790.895724
-17945.820000	-31399.920000	-9.405000	20311.515000	6196.365000	-11502.540000	-36805.365000	-23662.620000	5.901933	-2.636384	-12.045472	-16.825923	22.754042	35.000592	-12.590867	2.884150	-46.680340	22.310120	11.109280	-0.610045	0.255309	0.749449	-1.000000	-1.000000	-1.000000	-1.000000	-1.000000	-1.000000	-1.000000	51.000000	0.000000	-1.000000	-1.000000	259291.000000	1775803790.900580
-18002.430000	-31448.070000	-45.180000	20278.710000	6127.020000	-11505.690000	-36733.410000	-23680.485000	10.514438	0.963063	-5.773452	2.868741	101.727640	110.136935	13.112576	11.394036	-46.680340	22.310120	11.109280	-0.610045	0.255309	0.749449	-1.000000	-1.000000	-1.000000	-1.000000	-1.000000	-1.000000	-1.000000	51.000000	0.000000	-1.000000	-1.000000	259292.000000	1775803790.900613
-17982.495000	-31438.845000	-39.060000	20272.410000	6065.910000	-11550.015000	-36745.515000	-23658.345000	6.851429	1.791010	2.985293	22.895509	130.863544	130.873539	36.006344	13.538666	-46.680340	22.310120	11.109280	-0.610045	0.255309	0.749449	-1.000000	-1.000000	-1.000000	-1.000000	-1.000000	-1.000000	-1.000000	51.000000	0.000000	-1.000000	-1.000000	259293.000000	1775803790.903366
-17987.670000	-31461.930000	-83.565000	20181.510000	5927.535000	-11636.910000	-36770.895000	-23653.440000	-7.447615	-6.473789	1.940171	21.052503	75.772825	75.302497	43.786007	6.203469	-46.680340	22.310120	11.109280	-0.610045	0.255309	0.749449	-1.000000	-1.000000	-1.000000	-1.000000	-1.000000	-1.000000	-1.000000	51.000000	0.000000	-1.000000	-1.000000	259294.000000	1775803790.903394
-17962.245000	-31417.920000	-28.530000	20256.525000	6025.005000	-11703.420000	-36849.600000	-23656.770000	-21.790635	-17.529257	-8.023248	-3.031762	-31.122968	-27.488671	28.128923	-5.501291	-46.680340	22.310120	11.109280	-0.610045	0.255309	0.749449	-1.000000	-1.000000	-1.000000	-1.000000	-1.000000	-1.000000	-1.000000	51.000000	0.000000	-1.000000	-1.000000	259295.000000	1775803790.921496
-17984.835000	-31442.130000	-48.915000	20252.745000	6015.060000	-11666.700000	-36810.045000	-23663.700000	-26.076777	-21.325571	-16.301014	-28.479138	-119.709371	-120.358599	-5.221983	-15.418613	-46.680340	22.310120	11.109280	-0.610045	0.255309	0.749449	-1.000000	-1.000000	-1.000000	-1.000000	-1.000000	-1.000000	-1.000000	51.000000	0.000000	-1.000000	-1.000000	259296.000000	1775803790.921526
-18045.045000	-31518.765000	-151.560000	20105.415000	5854.545000	-11771.550000	-36790.875000	-23703.975000	-20.697818	-16.480432	-17.246895	-37.886304	-142.928084	-155.644066	-35.292540	-20.761407	-95.909100	-13.016780	35.479500	-0.665770	0.247985	0.680540	-1.000000	-1.000000	-1.000000	-1.000000	-1.000000	-1.000000	-1.000000	51.000000	0.000000	-1.000000	-1.000000	259297.000000	1775803790.921600
-18025.605000	-31486.230000	-109.890000	20158.020000	5911.785000	-11786.940000	-36796.320000	-23714.820000	-12.678560	-9.778127	-14.994125	-33.529651	-107.112741	-124.918209	-42.930160	-21.663956	-95.909100	-13.016780	35.479500	-0.665770	0.247985	0.680540	-1.000000	-1.000000	-1.000000	-1.000000	-1.000000	-1.000000	-1.000000	51.000000	0.000000	-1.000000	-1.000000	259298.000000	1775803790.921622
-17998.695000	-31451.220000	-55.890000	20261.385000	6089.805000	-11573.415000	-36755.505000	-23691.735000	-4.147886	-2.744260	-9.385563	-18.901258	-38.958557	-50.015431	-27.163867	-17.542723	-95.909100	-13.016780	35.479500	-0.665770	0.247985	0.680540	-1.000000	-1.000000	-1.000000	-1.000000	-1.000000	-1.000000	-1.000000	51.000000	0.000000	-1.000000	-1.000000	259299.000000	1775803790.921647
-18015.885000	-31466.340000	-62.055000	20283.030000	6222.060000	-11415.915000	-36754.965000	-23685.795000	7.255087	8.343264	4.905101	9.298054	43.094127	44.398860	-1.005334	-6.506918	-95.909100	-13.016780	35.479500	-0.665770	0.247985	0.680540	-1.000000	-1.000000	-1.000000	-1.000000	-1.000000	-1.000000	-1.000000	51.000000	0.000000	-1.000000	-1.000000	259300.000000	1775803790.921662
-18039.915000	-31497.480000	-93.825000	20252.925000	6192.630000	-11456.505000	-36782.595000	-23692.320000	18.387825	19.890578	22.685616	41.449751	113.760705	127.446376	19.748529	9.191354	-95.909100	-13.016780	35.479500	-0.665770	0.247985	0.680540	-1.000000	-1.000000	-1.000000	-1.000000	-1.000000	-1.000000	-1.000000	51.000000	0.000000	-1.000000	-1.000000	259301.000000	1775803790.921679
-18005.490000	-31461.210000	-64.665000	20269.845000	6144.345000	-11500.875000	-36774.900000	-23683.455000	22.815103	23.685511	30.927389	55.796950	135.998975	156.571601	24.529610	22.096212	-95.909100	-13.016780	35.479500	-0.665770	0.247985	0.680540	-1.000000	-1.000000	-1.000000	-1.000000	-1.000000	-1.000000	-1.000000	51.000000	0.000000	-1.000000	-1.000000	259302.000000	1775803790.921724
-18007.380000	-31451.535000	-52.920000	20264.130000	6067.755000	-11562.570000	-36786.375000	-23709.105000	19.959374	18.944761	25.357240	42.366124	91.033863	109.435179	14.316281	25.667328	-95.909100	-13.016780	35.479500	-0.665770	0.247985	0.680540	-1.000000	-1.000000	-1.000000	-1.000000	-1.000000	-1.000000	-1.000000	51.000000	0.000000	-1.000000	-1.000000	259303.000000	1775803790.938907
-18009.495000	-31454.640000	-68.805000	20220.255000	5993.955000	-11611.665000	-36798.390000	-23729.310000	13.372975	10.882384	11.920261	10.195834	0.361379	10.304572	-1.344664	18.261983	-95.909100	-13.016780	35.479500	-0.665770	0.247985	0.680540	-1.000000	-1.000000	-1.000000	-1.000000	-1.000000	-1.000000	-1.000000	51.000000	0.000000	-1.000000	-1.000000	259304.000000	1775803790.938939
-18017.865000	-31471.515000	-85.140000	20216.430000	6040.170000	-11577.060000	-36775.890000	-23718.870000	5.010140	2.248843	-3.138181	-24.244425	-86.661198	-85.942909	-12.747069	4.019473	-95.909100	-13.016780	35.479500	-0.665770	0.247985	0.680540	-1.000000	-1.000000	-1.000000	-1.000000	-1.000000	-1.000000	-1.000000	51.000000	0.000000	-1.000000	-1.000000	259305.000000	1775803790.939021
-17991.945000	-31442.760000	-50.445000	20257.605000	6005.745000	-11593.665000	-36743.445000	-23685.975000	-3.489141	-6.186659	-15.284404	-45.097422	-124.490734	-130.886012	-13.827171	-7.971765	-95.909100	-13.016780	35.479500	-0.665770	0.247985	0.680540	-1.000000	-1.000000	-1.000000	-1.000000	-1.000000	-1.000000	-1.000000	51.000000	0.000000	-1.000000	-1.000000	259306.000000	1775803790.939047
-17969.670000	-31422.195000	-36.855000	20260.575000	5978.745000	-11629.080000	-36738.900000	-23655.420000	-8.583379	-11.332196	-19.391902	-42.662564	-101.082346	-111.968124	-4.576285	-9.716490	-48.725180	-34.273960	36.303540	-0.717100	0.166503	0.659605	-1.000000	-1.000000	-1.000000	-1.000000	-1.000000	-1.000000	-1.000000	51.000000	0.000000	-1.000000	-1.000000	259307.000000	1775803790.939076
-18001.035000	-31451.355000	-56.700000	20246.985000	5977.935000	-11645.280000	-36765.450000	-23673.105000	-8.654821	-10.983225	-14.265453	-21.197791	-40.267471	-53.322670	7.187544	-2.050830	-48.725180	-34.273960	36.303540	-0.717100	0.166503	0.659605	-1.000000	-1.000000	-1.000000	-1.000000	-1.000000	-1.000000	-1.000000	51.000000	0.000000	-1.000000	-1.000000	259308.000000	1775803790.939090
-18022.995000	-31479.390000	-94.005000	20191.500000	5998.095000	-11673.765000	-36781.290000	-23698.395000	-7.606202	-8.742861	-6.434709	2.806615	23.783109	9.343687	11.265170	5.278216	-48.725180	-34.273960	36.303540	-0.717100	0.166503	0.659605	-1.000000	-1.000000	-1.000000	-1.000000	-1.000000	-1.000000	-1.000000	51.000000	0.000000	-1.000000	-1.000000	259309.000000	1775803790.939106
-17987.805000	-31437.900000	-53.595000	20228.535000	6018.165000	-11691.540000	-36793.395000	-23697.720000	-8.782878	-8.385508	-2.529582	15.272168	67.706909	51.132327	4.564130	3.747411	-48.725180	-34.273960	36.303540	-0.717100	0.166503	0.659605	-1.000000	-1.000000	-1.000000	-1.000000	-1.000000	-1.000000	-1.000000	51.000000	0.000000	-1.000000	-1.000000	259310.000000	1775803790.939119
-18005.265000	-31456.980000	-71.055000	20230.155000	6073.425000	-11601.630000	-36759.960000	-23709.195000	-9.317518	-7.502245	-1.400882	16.102285	83.321856	66.271896	-6.044969	-5.224494	-48.725180	-34.273960	36.303540	-0.717100	0.166503	0.659605	-1.000000	-1.000000	-1.000000	-1.000000	-1.000000	-1.000000	-1.000000	51.000000	0.000000	-1.000000	-1.000000	259311.000000	1775803790.952490
-17978.400000	-31426.740000	-29.430000	20290.185000	6185.880000	-11524.590000	-36733.140000	-23668.920000	-5.696872	-2.859159	1.378370	14.261009	75.531504	65.137874	-10.167808	-12.939448	-48.725180	-34.273960	36.303540	-0.717100	0.166503	0.659605	-1.000000	-1.000000	-1.000000	-1.000000	-1.000000	-1.000000	-1.000000	51.000000	0.000000	-1.000000	-1.000000	259312.000000	1775803790.952523
-17977.815000	-31427.505000	-25.515000	20300.850000	6199.470000	-11497.905000	-36722.880000	-23647.095000	1.314347	4.448295	6.958650	15.718660	54.851641	58.528507	-3.723796	-11.613280	-48.725180	-34.273960	36.303540	-0.717100	0.166503	0.659605	-1.000000	-1.000000	-1.000000	-1.000000	-1.000000	-1.000000	-1.000000	51.000000	0.000000	-1.000000	-1.000000	259313.000000	1775803790.952562
-17980.695000	-31445.190000	-59.895000	20267.370000	6173.370000	-11475.630000	-36717.075000	-23641.335000	8.033639	10.256292	11.733516	17.424178	25.864980	45.424968	7.376177	-1.141255	-48.725180	-34.273960	36.303540	-0.717100	0.166503	0.659605	-1.000000	-1.000000	-1.000000	-1.000000	-1.000000	-1.000000	-1.000000	51.000000	0.000000	-1.000000	-1.000000	259314.000000	1775803790.952578
-17978.265000	-31437.720000	-48.870000	20268.990000	6132.060000	-11524.680000	-36725.130000	-23645.340000	10.478407	10.424648	10.201545	11.621854	-12.325978	19.451944	13.598751	10.299735	-48.725180	-34.273960	36.303540	-0.717100	0.166503	0.659605	-1.000000	-1.000000	-1.000000	-1.000000	-1.000000	-1.000000	-1.000000	51.000000	0.000000	-1.000000	-1.000000	259315.000000	1775803790.952596
-17981.415000	-31433.445000	-35.325000	20283.030000	6101.010000	-11560.005000	-36728.820000	-23649.930000	7.512166	5.210695	2.513467	-2.539457	-53.908118	-19.115474	10.095809	13.898568	-48.725180	-34.273960	36.303540	-0.717100	0.166503	0.659605	-1.000000	-1.000000	-1.000000	-1.000000	-1.000000	-1.000000	-1.000000	51.000000	0.000000	-1.000000	-1.000000	259316.000000	1775803790.952610
-18001.080000	-31455.450000	-58.050000	20260.260000	6073.155000	-11581.335000	-36735.345000	-23661.900000	1.117469	-1.387762	-5.357247	-16.923250	-83.547418	-58.598495	-0.626515	7.538879	59.147760	-16.343460	10.605700	-0.695311	0.036804	0.713743	-1.000000	-1.000000	-1.000000	-1.000000	-1.000000	-1.000000	-1.000000	51.000000	0.000000	-1.000000	-1.000000	259317.000000	1775803790.952626
-18004.680000	-31460.265000	-61.920000	20256.885000	6038.955000	-11593.665000	-36740.430000	-23667.030000	-5.835397	-6.543026	-9.606044	-24.211863	-87.303688	-80.965296	-11.763468	-4.054039	59.147760	-16.343460	10.605700	-0.695311	0.036804	0.713743	-1.000000	-1.000000	-1.000000	-1.000000	-1.000000	-1.000000	-1.000000	51.000000	0.000000	-1.000000	-1.000000	259318.000000	1775803790.952639
-17987.445000	-31453.650000	-84.105000	20223.270000	6041.205000	-11564.820000	-36722.340000	-23650.920000	-9.902811	-8.864176	-10.472988	-23.176439	-62.782852	-73.850676	-16.926818	-13.293776	59.147760	-16.343460	10.605700	-0.695311	0.036804	0.713743	-1.000000	-1.000000	-1.000000	-1.000000	-1.000000	-1.000000	-1.000000	51.000000	0.000000	-1.000000	-1.000000	259319.000000	1775803790.958140
-17972.820000	-31424.985000	-42.345000	20265.930000	6057.450000	-11580.930000	-36740.610000	-23651.775000	-7.856693	-6.534968	-8.189548	-15.594827	-19.115216	-39.484271	-13.697300	-14.481081	59.147760	-16.343460	10.605700	-0.695311	0.036804	0.713743	-1.000000	-1.000000	-1.000000	-1.000000	-1.000000	-1.000000	-1.000000	51.000000	0.000000	-1.000000	-1.000000	259320.000000	1775803790.958169
-17981.955000	-31428.090000	-44.100000	20256.705000	6033.465000	-11583.855000	-36742.950000	-23661.270000	-0.342420	0.653580	-1.744318	-3.035191	27.757339	5.529907	-5.214518	-7.925894	59.147760	-16.343460	10.605700	-0.695311	0.036804	0.713743	-1.000000	-1.000000	-1.000000	-1.000000	-1.000000	-1.000000	-1.000000	51.000000	0.000000	-1.000000	-1.000000	259321.000000	1775803790.968927
-17987.670000	-31434.120000	-51.345000	20252.745000	6035.760000	-11580.480000	-36748.170000	-23665.995000	7.101910	8.492091	7.069143	10.874912	60.431328	40.817739	2.939039	0.790332	59.147760	-16.343460	10.605700	-0.695311	0.036804	0.713743	-1.000000	-1.000000	-1.000000	-1.000000	-1.000000	-1.000000	-1.000000	51.000000	0.000000	-1.000000	-1.000000	259322.000000	1775803790.968959
-17986.140000	-31449.915000	-67.005000	20251.035000	6077.565000	-11553.480000	-36742.230000	-23661.675000	9.228351	10.925865	12.337037	19.707206	69.492289	55.440003	7.706592	6.560900	59.147760	-16.343460	10.605700	-0.695311	0.036804	0.713743	-1.000000	-1.000000	-1.000000	-1.000000	-1.000000	-1.000000	-1.000000	51.000000	0.000000	-1.000000	-1.000000	259323.000000	1775803790.968996
-17981.145000	-31444.290000	-60.030000	20258.055000	6084.855000	-11568.870000	-36745.875000	-23660.505000	5.922949	6.057653	10.226541	19.893600	58.380012	50.416406	9.211680	8.314851	59.147760	-16.343460	10.605700	-0.695311	0.036804	0.713743	-1.000000	-1.000000	-1.000000	-1.000000	-1.000000	-1.000000	-1.000000	51.000000	0.000000	-1.000000	-1.000000	259324.000000	1775803790.969012
-17992.890000	-31451.175000	-59.400000	20266.830000	6079.950000	-11611.350000	-36748.395000	-23674.095000	0.630249	-2.129029	3.266505	13.581633	35.829734	31.452720	8.425104	7.212711	59.147760	-16.343460	10.605700	-0.695311	0.036804	0.713743	-1.000000	-1.000000	-1.000000	-1.000000	-1.000000	-1.000000	-1.000000	51.000000	0.000000	-1.000000	-1.000000	259325.000000	1775803790.969029
-18004.725000	-31458.420000	-63.945000	20265.435000	6070.860000	-11600.730000	-36747.720000	-23679.045000	-3.974852	-8.194793	-3.211977	5.306017	8.668152	5.412866	6.038832	4.152253	59.147760	-16.343460	10.605700	-0.695311	0.036804	0.713743	-1.000000	-1.000000	-1.000000	-1.000000	-1.000000	-1.000000	-1.000000	51.000000	0.000000	-1.000000	-1.000000	259326.000000	1775803790.969042
-18014.400000	-31460.400000	-68.580000	20253.150000	6028.290000	-11592.135000	-36754.425000	-23677.290000	-7.024363	-9.587542	-6.268987	-2.036465	-17.768224	-17.387060	2.801976	0.289394	114.297400	-17.457440	-13.886600	-0.636168	0.007935	0.753294	-1.000000	-1.000000	-1.000000	-1.000000	-1.000000	-1.000000	-1.000000	51.000000	0.000000	-1.000000	-1.000000	259327.000000	1775803790.978727
-17988.840000	-31439.925000	-50.040000	20264.445000	6007.185000	-11616.255000	-36756.720000	-23661.540000	-7.390531	-6.330400	-5.724587	-7.515573	-38.313735	-27.609083	-0.472051	-2.055187	114.297400	-17.457440	-13.886600	-0.636168	0.007935	0.753294	-1.000000	-1.000000	-1.000000	-1.000000	-1.000000	-1.000000	-1.000000	51.000000	0.000000	-1.000000	-1.000000	259328.000000	1775803790.978760
-17998.830000	-31459.275000	-79.605000	20232.765000	6027.255000	-11584.170000	-36729.945000	-23659.290000	-3.703544	-0.035178	-2.801369	-10.631023	-47.092648	-24.063160	-2.500478	-1.121476	114.297400	-17.457440	-13.886600	-0.636168	0.007935	0.753294	-1.000000	-1.000000	-1.000000	-1.000000	-1.000000	-1.000000	-1.000000	51.000000	0.000000	-1.000000	-1.000000	259329.000000	1775803790.978794
-18002.745000	-31456.395000	-69.975000	20239.560000	5953.860000	-11652.345000	-36730.620000	-23667.570000	2.423739	5.646945	-0.067342	-11.412926	-40.620693	-12.843847	-1.750188	1.809290	114.297400	-17.457440	-13.886600	-0.636168	0.007935	0.753294	-1.000000	-1.000000	-1.000000	-1.000000	-1.000000	-1.000000	-1.000000	51.000000	0.000000	-1.000000	-1.000000	259330.000000	1775803790.978810
-18022.140000	-31473.405000	-88.515000	20209.095000	5880.285000	-11701.935000	-36753.930000	-23687.730000	6.459868	7.223537	0.610285	-10.214005	-24.753329	-3.678592	0.566553	2.978470	114.297400	-17.457440	-13.886600	-0.636168	0.007935	0.753294	-1.000000	-1.000000	-1.000000	-1.000000	-1.000000	-1.000000	-1.000000	51.000000	0.000000	-1.000000	-1.000000	259331.000000	1775803790.981091
