Channel1	Channel2	Channel3	Channel4	Channel5	Channel6	Channel7	Channel8	FilteredChannel1	FilteredChannel2	FilteredChannel3	FilteredChannel4	FilteredChannel5	FilteredChannel6	FilteredChannel7	FilteredChannel8	GyroX	GyroY	GyroZ	AccX	AccY	AccZ	PPG1	PPG2	rawPPG1	rawPPG2	rawPPG3	Hr	Hrv	Battery	Trigger	PhysicalTrigger	AutoTrigger	NumMeasurements	Timestamp
-23339.925000	-20209.770000	6743.655000	280950.660000	304601.760000	280212.390000	-22134.870000	-35795.340000	2.631098	-0.304794	-3.097752	-20.123592	-22.413323	-18.042874	5.997248	5.349158	-3.174080	1.892240	0.091560	-0.657957	0.039551	0.736204	-1.000000	-1.000000	-1.000000	-1.000000	-1.000000	-1.000000	-1.000000	52.000000	0.000000	-1.000000	-1.000000	555852.000000	1775788025.262398
-23350.860000	-20222.685000	6731.280000	281027.160000	304825.455000	280187.550000	-22135.995000	-35803.620000	0.759990	-2.185752	-5.082133	-21.446398	-25.135479	-24.746034	4.877658	0.895151	-3.174080	1.892240	0.091560	-0.657957	0.039551	0.736204	-1.000000	-1.000000	-1.000000	-1.000000	-1.000000	-1.000000	-1.000000	52.000000	0.000000	-1.000000	-1.000000	555853.000000	1775788025.266445
-23368.770000	-20240.190000	6720.435000	281124.630000	304956.135000	280375.470000	-22146.300000	-35821.170000	-2.013341	-4.339585	-6.749192	-13.082353	-16.791594	-24.738147	2.005649	-3.971199	-3.174080	1.892240	0.091560	-0.657957	0.039551	0.736204	-1.000000	-1.000000	-1.000000	-1.000000	-1.000000	-1.000000	-1.000000	52.000000	0.000000	-1.000000	-1.000000	555854.000000	1775788025.266473
-23369.355000	-20237.265000	6724.935000	281135.745000	304896.330000	280410.255000	-22151.790000	-35824.455000	-5.716243	-6.555030	-7.185550	9.596056	17.433031	-3.909980	-2.134653	-8.677570	-3.174080	1.892240	0.091560	-0.657957	0.039551	0.736204	-1.000000	-1.000000	-1.000000	-1.000000	-1.000000	-1.000000	-1.000000	52.000000	0.000000	-1.000000	-1.000000	555855.000000	1775788025.275203
-23370.120000	-20234.655000	6728.265000	281135.610000	304867.620000	280409.760000	-22156.290000	-35828.820000	-8.554382	-7.101154	-5.004263	35.043310	55.269981	33.686297	-6.312160	-11.744108	-3.174080	1.892240	0.091560	-0.657957	0.039551	0.736204	-1.000000	-1.000000	-1.000000	-1.000000	-1.000000	-1.000000	-1.000000	52.000000	0.000000	-1.000000	-1.000000	555856.000000	1775788025.275230
-23375.880000	-20240.460000	6722.550000	281133.405000	304869.645000	280408.230000	-22158.810000	-35834.535000	-7.978797	-4.242005	-0.052703	43.150371	61.672947	59.708337	-8.436738	-11.026153	-3.174080	1.892240	0.091560	-0.657957	0.039551	0.736204	-1.000000	-1.000000	-1.000000	-1.000000	-1.000000	-1.000000	-1.000000	52.000000	0.000000	-1.000000	-1.000000	555857.000000	1775788025.275255
-23371.605000	-20236.950000	6726.555000	281128.140000	304865.100000	280402.335000	-22155.660000	-35830.440000	-3.687949	1.072222	5.439688	26.543898	31.695989	52.249396	-7.090901	-6.136487	-3.174080	1.892240	0.091560	-0.657957	0.039551	0.736204	-1.000000	-1.000000	-1.000000	-1.000000	-1.000000	-1.000000	-1.000000	52.000000	0.000000	-1.000000	-1.000000	555858.000000	1775788025.275268
-23369.265000	-20234.880000	6728.040000	281125.530000	304863.075000	280399.545000	-22158.270000	-35829.315000	2.397185	6.198403	8.847559	-4.402512	-11.862482	15.833118	-2.662526	1.203736	-3.174080	1.892240	0.091560	-0.657957	0.039551	0.736204	-1.000000	-1.000000	-1.000000	-1.000000	-1.000000	-1.000000	-1.000000	52.000000	0.000000	-1.000000	-1.000000	555859.000000	1775788025.283223
-23363.370000	-20229.615000	6733.350000	281123.055000	304858.710000	280395.945000	-22152.465000	-35823.465000	7.810741	9.133095	9.189517	-32.158497	-43.698745	-27.289089	2.829811	8.265971	-3.174080	1.892240	0.091560	-0.657957	0.039551	0.736204	-1.000000	-1.000000	-1.000000	-1.000000	-1.000000	-1.000000	-1.000000	52.000000	0.000000	-1.000000	-1.000000	555860.000000	1775788025.283244
-23370.795000	-20237.760000	6724.755000	281123.325000	304861.230000	280393.785000	-22156.740000	-35830.845000	10.407023	8.989898	6.812398	-43.924479	-51.575278	-55.131875	6.971118	12.319374	-2.914660	2.578940	1.861720	-0.656248	0.040283	0.736265	-1.000000	-1.000000	-1.000000	-1.000000	-1.000000	-1.000000	-1.000000	52.000000	0.000000	-1.000000	-1.000000	555861.000000	1775788025.283268
-23372.640000	-20238.030000	6724.800000	281130.345000	304860.420000	280398.555000	-22163.445000	-35838.675000	8.950994	5.748057	2.511815	-37.038457	-37.860214	-57.757151	8.005209	11.558765	-2.914660	2.578940	1.861720	-0.656248	0.040283	0.736265	-1.000000	-1.000000	-1.000000	-1.000000	-1.000000	-1.000000	-1.000000	52.000000	0.000000	-1.000000	-1.000000	555862.000000	1775788025.283280
-23375.430000	-20241.315000	6721.605000	281131.290000	304860.780000	280399.860000	-22163.850000	-35846.415000	4.069646	0.628826	-2.333089	-17.569854	-13.564466	-38.743917	5.586863	6.192912	-2.914660	2.578940	1.861720	-0.656248	0.040283	0.736265	-1.000000	-1.000000	-1.000000	-1.000000	-1.000000	-1.000000	-1.000000	52.000000	0.000000	-1.000000	-1.000000	555863.000000	1775788025.286628
-23379.930000	-20245.725000	6717.285000	281130.660000	304861.005000	280399.320000	-22164.120000	-35849.115000	-1.801951	-4.171863	-5.926791	4.352382	9.181265	-10.011088	1.335731	-1.104442	-2.914660	2.578940	1.861720	-0.656248	0.040283	0.736265	-1.000000	-1.000000	-1.000000	-1.000000	-1.000000	-1.000000	-1.000000	52.000000	0.000000	-1.000000	-1.000000	555864.000000	1775788025.286649
-23375.565000	-20236.860000	6726.285000	281129.445000	304861.815000	280398.555000	-22156.785000	-35842.680000	-5.952590	-6.656650	-6.934658	19.765545	22.581998	15.407363	-2.103975	-6.474249	-2.914660	2.578940	1.861720	-0.656248	0.040283	0.736265	-1.000000	-1.000000	-1.000000	-1.000000	-1.000000	-1.000000	-1.000000	52.000000	0.000000	-1.000000	-1.000000	555865.000000	1775788025.290856
-23372.955000	-20232.045000	6731.730000	281122.695000	304858.485000	280392.480000	-22145.490000	-35834.220000	-6.721410	-5.762241	-4.869440	24.519396	24.792023	29.162271	-2.822940	-7.147139	-2.914660	2.578940	1.861720	-0.656248	0.040283	0.736265	-1.000000	-1.000000	-1.000000	-1.000000	-1.000000	-1.000000	-1.000000	52.000000	0.000000	-1.000000	-1.000000	555866.000000	1775788025.290872
-23371.290000	-20233.215000	6730.245000	281118.240000	304858.935000	280387.665000	-22144.140000	-35825.220000	-4.241671	-2.163498	-0.695278	19.716041	18.488112	29.622029	-0.863241	-3.181045	-2.914660	2.578940	1.861720	-0.656248	0.040283	0.736265	-1.000000	-1.000000	-1.000000	-1.000000	-1.000000	-1.000000	-1.000000	52.000000	0.000000	-1.000000	-1.000000	555867.000000	1775788025.293434
-23369.805000	-20236.860000	6726.780000	281116.215000	304857.315000	280384.605000	-22150.935000	-35822.745000	-0.372436	1.603473	3.032326	9.881375	8.455953	20.592994	1.528251	2.542577	-2.914660	2.578940	1.861720	-0.656248	0.040283	0.736265	-1.000000	-1.000000	-1.000000	-1.000000	-1.000000	-1.000000	-1.000000	52.000000	0.000000	-1.000000	-1.000000	555868.000000	1775788025.293452
-23364.450000	-20231.640000	6730.290000	281118.195000	304863.390000	280383.660000	-22149.945000	-35821.620000	2.729193	3.225857	4.148158	0.386417	-0.647424	8.367508	1.735635	6.238595	-2.914660	2.578940	1.861720	-0.656248	0.040283	0.736265	-1.000000	-1.000000	-1.000000	-1.000000	-1.000000	-1.000000	-1.000000	52.000000	0.000000	-1.000000	-1.000000	555869.000000	1775788025.297630
-23367.555000	-20233.620000	6727.995000	281121.390000	304861.455000	280383.030000	-22149.045000	-35823.780000	3.881258	2.511920	2.692226	-5.024549	-5.958920	-1.547702	-0.542552	5.689168	-2.914660	2.578940	1.861720	-0.656248	0.040283	0.736265	-1.000000	-1.000000	-1.000000	-1.000000	-1.000000	-1.000000	-1.000000	52.000000	0.000000	-1.000000	-1.000000	555870.000000	1775788025.297654
-23370.975000	-20236.185000	6726.510000	281123.505000	304863.885000	280385.010000	-22150.170000	-35827.380000	2.853222	0.639537	0.169732	-5.562588	-7.141964	-6.463405	-3.321738	1.405486	-1.709120	1.388660	2.502640	-0.659239	0.037659	0.737120	-1.000000	-1.000000	-1.000000	-1.000000	-1.000000	-1.000000	-1.000000	52.000000	0.000000	-1.000000	-1.000000	555871.000000	1775788025.302537
-23379.480000	-20244.285000	6719.355000	281122.650000	304864.065000	280384.290000	-22149.900000	-35835.345000	0.092220	-1.422180	-2.098165	-3.040784	-5.650830	-6.634184	-4.650255	-4.201259	-1.709120	1.388660	2.502640	-0.659239	0.037659	0.737120	-1.000000	-1.000000	-1.000000	-1.000000	-1.000000	-1.000000	-1.000000	52.000000	0.000000	-1.000000	-1.000000	555872.000000	1775788025.302563
-23381.595000	-20245.905000	6717.645000	281122.560000	304867.080000	280383.705000	-22151.655000	-35838.045000	-3.192546	-3.107122	-3.469044	-0.209596	-3.216839	-4.151033	-3.980461	-8.430401	-1.709120	1.388660	2.502640	-0.659239	0.037659	0.737120	-1.000000	-1.000000	-1.000000	-1.000000	-1.000000	-1.000000	-1.000000	52.000000	0.000000	-1.000000	-1.000000	555873.000000	1775788025.313442
-23382.090000	-20245.905000	6717.420000	281116.845000	304864.650000	280378.665000	-22158.765000	-35840.565000	-5.239747	-3.714405	-3.565041	0.995030	-1.061278	-1.464827	-2.086351	-9.400816	-1.709120	1.388660	2.502640	-0.659239	0.037659	0.737120	-1.000000	-1.000000	-1.000000	-1.000000	-1.000000	-1.000000	-1.000000	52.000000	0.000000	-1.000000	-1.000000	555874.000000	1775788025.313465
-23373.990000	-20238.165000	6724.980000	281113.020000	304868.700000	280374.930000	-22157.775000	-35834.895000	-4.579849	-2.494446	-2.052331	0.161477	0.214410	-0.173110	-0.204854	-6.596279	-1.709120	1.388660	2.502640	-0.659239	0.037659	0.737120	-1.000000	-1.000000	-1.000000	-1.000000	-1.000000	-1.000000	-1.000000	52.000000	0.000000	-1.000000	-1.000000	555875.000000	1775788025.315836
-23361.660000	-20226.780000	6734.160000	281089.080000	304795.980000	280349.595000	-22153.905000	-35824.590000	-0.947782	0.684650	1.005843	-2.143019	-0.615027	-0.836989	1.194443	-0.900244	-1.709120	1.388660	2.502640	-0.659239	0.037659	0.737120	-1.000000	-1.000000	-1.000000	-1.000000	-1.000000	-1.000000	-1.000000	52.000000	0.000000	-1.000000	-1.000000	555876.000000	1775788025.315858
-23355.765000	-20219.670000	6742.035000	281090.970000	304851.330000	280349.640000	-22150.980000	-35819.910000	4.240107	4.782619	4.664126	-4.871746	-4.230907	-3.067466	2.483867	5.636534	-1.709120	1.388660	2.502640	-0.659239	0.037659	0.737120	-1.000000	-1.000000	-1.000000	-1.000000	-1.000000	-1.000000	-1.000000	52.000000	0.000000	-1.000000	-1.000000	555877.000000	1775788025.318051
-23353.245000	-20216.205000	6748.020000	281115.000000	304881.435000	280372.635000	-22153.455000	-35819.595000	8.181085	7.665599	7.179925	-5.602686	-5.718008	-4.433621	3.649540	10.166347	-1.709120	1.388660	2.502640	-0.659239	0.037659	0.737120	-1.000000	-1.000000	-1.000000	-1.000000	-1.000000	-1.000000	-1.000000	52.000000	0.000000	-1.000000	-1.000000	555878.000000	1775788025.318070
-23352.255000	-20213.955000	6751.395000	281119.860000	304861.275000	280375.650000	-22159.080000	-35820.315000	8.345019	7.346819	6.992837	-1.721195	0.229151	-1.734494	3.806762	10.362926	-1.709120	1.388660	2.502640	-0.659239	0.037659	0.737120	-1.000000	-1.000000	-1.000000	-1.000000	-1.000000	-1.000000	-1.000000	52.000000	0.000000	-1.000000	-1.000000	555879.000000	1775788025.318091
-23352.840000	-20214.675000	6749.910000	281121.930000	304854.885000	280376.910000	-22158.270000	-35820.765000	4.388944	3.542845	3.757566	5.440959	9.054515	4.428143	2.313093	6.127286	-1.709120	1.388660	2.502640	-0.659239	0.037659	0.737120	-1.000000	-1.000000	-1.000000	-1.000000	-1.000000	-1.000000	-1.000000	52.000000	0.000000	-1.000000	-1.000000	555880.000000	1775788025.318102
-23356.305000	-20222.055000	6741.360000	281114.280000	304832.295000	280369.890000	-22148.370000	-35820.270000	-1.719863	-2.209581	-1.558688	10.616682	11.675455	9.279619	0.069109	-0.239468	0.335720	0.824040	1.587040	-0.661131	0.036133	0.736204	-1.000000	-1.000000	-1.000000	-1.000000	-1.000000	-1.000000	-1.000000	52.000000	0.000000	-1.000000	-1.000000	555881.000000	1775788025.321002
-23361.075000	-20230.650000	6729.300000	281082.015000	304787.070000	280337.490000	-22140.900000	-35819.955000	-7.213212	-7.717119	-7.268767	9.184839	4.755221	8.305731	-1.025110	-5.621186	0.335720	0.824040	1.587040	-0.661131	0.036133	0.736204	-1.000000	-1.000000	-1.000000	-1.000000	-1.000000	-1.000000	-1.000000	52.000000	0.000000	-1.000000	-1.000000	555882.000000	1775788025.321021
-23362.650000	-20231.415000	6733.170000	281104.740000	304892.460000	280360.170000	-22138.020000	-35823.600000	-9.967706	-10.940009	-11.215028	1.348878	-5.809498	1.391637	-0.225875	-8.006165	0.335720	0.824040	1.587040	-0.661131	0.036133	0.736204	-1.000000	-1.000000	-1.000000	-1.000000	-1.000000	-1.000000	-1.000000	52.000000	0.000000	-1.000000	-1.000000	555883.000000	1775788025.325821
-23364.990000	-20231.550000	6732.045000	281088.990000	304817.175000	280342.215000	-22142.295000	-35828.730000	-9.140529	-10.360598	-11.158248	-7.190394	-9.567873	-6.349177	1.078901	-7.360993	0.335720	0.824040	1.587040	-0.661131	0.036133	0.736204	-1.000000	-1.000000	-1.000000	-1.000000	-1.000000	-1.000000	-1.000000	52.000000	0.000000	-1.000000	-1.000000	555884.000000	1775788025.325843
-23361.255000	-20224.980000	6737.670000	281084.670000	304849.485000	280337.130000	-22146.390000	-35826.570000	-5.241362	-5.765793	-6.426442	-10.831157	-4.602857	-9.795580	0.865435	-4.856964	0.335720	0.824040	1.587040	-0.661131	0.036133	0.736204	-1.000000	-1.000000	-1.000000	-1.000000	-1.000000	-1.000000	-1.000000	52.000000	0.000000	-1.000000	-1.000000	555885.000000	1775788025.334980
-23362.965000	-20229.030000	6734.835000	281105.460000	304892.595000	280357.290000	-22146.975000	-35826.795000	0.159057	1.095908	0.954882	-8.454427	3.034896	-7.850173	-1.342541	-1.565033	0.335720	0.824040	1.587040	-0.661131	0.036133	0.736204	-1.000000	-1.000000	-1.000000	-1.000000	-1.000000	-1.000000	-1.000000	52.000000	0.000000	-1.000000	-1.000000	555886.000000	1775788025.335007
-23367.510000	-20233.575000	6730.920000	281111.220000	304880.085000	280360.575000	-22147.740000	-35829.405000	4.866037	6.985151	7.332288	-1.605109	9.697958	-1.685633	-3.995596	1.671641	0.335720	0.824040	1.587040	-0.661131	0.036133	0.736204	-1.000000	-1.000000	-1.000000	-1.000000	-1.000000	-1.000000	-1.000000	52.000000	0.000000	-1.000000	-1.000000	555887.000000	1775788025.335065
-23364.540000	-20229.930000	6734.250000	281114.145000	304871.310000	280361.295000	-22155.075000	-35829.270000	7.065596	9.255288	9.880569	6.425539	12.134900	5.756958	-5.228407	3.914829	0.335720	0.824040	1.587040	-0.661131	0.036133	0.736204	-1.000000	-1.000000	-1.000000	-1.000000	-1.000000	-1.000000	-1.000000	52.000000	0.000000	-1.000000	-1.000000	555888.000000	1775788025.335078
-23365.395000	-20231.595000	6732.945000	281114.460000	304865.145000	280361.205000	-22154.625000	-35830.170000	6.533091	7.785257	8.401387	11.138527	6.911520	10.169864	-4.466622	4.596271	0.335720	0.824040	1.587040	-0.661131	0.036133	0.736204	-1.000000	-1.000000	-1.000000	-1.000000	-1.000000	-1.000000	-1.000000	52.000000	0.000000	-1.000000	-1.000000	555889.000000	1775788025.338435
-23369.490000	-20236.815000	6725.835000	281110.680000	304865.685000	280358.145000	-22151.025000	-35832.510000	4.273699	4.214377	4.528255	9.896695	-3.844486	9.084867	-2.091908	3.841523	0.335720	0.824040	1.587040	-0.661131	0.036133	0.736204	-1.000000	-1.000000	-1.000000	-1.000000	-1.000000	-1.000000	-1.000000	52.000000	0.000000	-1.000000	-1.000000	555890.000000	1775788025.338458
-23363.910000	-20231.370000	6731.280000	281102.220000	304857.495000	280348.920000	-22146.480000	-35827.515000	1.480714	0.323524	0.141716	3.562702	-13.587353	3.396554	1.287983	2.290670	1.052940	1.541260	1.297100	-0.660826	0.036011	0.735899	-1.000000	-1.000000	-1.000000	-1.000000	-1.000000	-1.000000	-1.000000	52.000000	0.000000	-1.000000	-1.000000	555891.000000	1775788025.344838
-23359.050000	-20224.080000	6738.615000	281087.055000	304821.045000	280332.585000	-22144.680000	-35826.705000	-0.602230	-2.213537	-2.845450	-4.726128	-17.764442	-4.085878	4.635080	0.854284	1.052940	1.541260	1.297100	-0.660826	0.036011	0.735899	-1.000000	-1.000000	-1.000000	-1.000000	-1.000000	-1.000000	-1.000000	52.000000	0.000000	-1.000000	-1.000000	555892.000000	1775788025.344856
-23356.035000	-20219.130000	6744.060000	281072.250000	304820.280000	280315.485000	-22149.990000	-35830.620000	-1.164879	-2.370799	-3.117938	-11.546428	-16.380170	-10.465692	6.401450	-0.016539	1.052940	1.541260	1.297100	-0.660826	0.036011	0.735899	-1.000000	-1.000000	-1.000000	-1.000000	-1.000000	-1.000000	-1.000000	52.000000	0.000000	-1.000000	-1.000000	555893.000000	1775788025.348876
-23352.120000	-20213.145000	6749.595000	281072.880000	304813.620000	280312.605000	-22156.470000	-35828.955000	-0.568766	-0.716325	-1.164587	-14.178219	-10.699020	-13.347105	5.328344	-0.648861	1.052940	1.541260	1.297100	-0.660826	0.036011	0.735899	-1.000000	-1.000000	-1.000000	-1.000000	-1.000000	-1.000000	-1.000000	52.000000	0.000000	-1.000000	-1.000000	555894.000000	1775788025.348892
-23356.125000	-20220.030000	6742.170000	281092.005000	304878.060000	280330.245000	-22144.275000	-35823.780000	0.016275	0.896790	0.934546	-10.724287	-0.462590	-10.708310	1.919097	-1.183744	1.052940	1.541260	1.297100	-0.660826	0.036011	0.735899	-1.000000	-1.000000	-1.000000	-1.000000	-1.000000	-1.000000	-1.000000	52.000000	0.000000	-1.000000	-1.000000	555895.000000	1775788025.353372
-23355.045000	-20219.805000	6743.835000	281109.735000	304876.485000	280346.985000	-22137.030000	-35819.280000	-0.388033	0.717977	1.140109	-1.170889	13.835778	-1.987371	-1.238928	-1.145039	1.052940	1.541260	1.297100	-0.660826	0.036011	0.735899	-1.000000	-1.000000	-1.000000	-1.000000	-1.000000	-1.000000	-1.000000	52.000000	0.000000	-1.000000	-1.000000	555896.000000	1775788025.353396
-23345.190000	-20211.840000	6751.935000	281111.310000	304861.815000	280348.020000	-22135.365000	-35808.615000	-1.538206	-1.204106	-0.591400	10.736720	26.019831	9.661635	-2.013453	-0.204445	1.052940	1.541260	1.297100	-0.660826	0.036011	0.735899	-1.000000	-1.000000	-1.000000	-1.000000	-1.000000	-1.000000	-1.000000	52.000000	0.000000	-1.000000	-1.000000	555897.000000	1775788025.354076
-23344.875000	-20212.605000	6751.620000	281110.725000	304859.925000	280347.210000	-22142.385000	-35809.695000	-2.141680	-3.004946	-2.367317	18.400683	26.916874	17.811547	-1.100262	1.189045	1.052940	1.541260	1.297100	-0.660826	0.036011	0.735899	-1.000000	-1.000000	-1.000000	-1.000000	-1.000000	-1.000000	-1.000000	52.000000	0.000000	-1.000000	-1.000000	555898.000000	1775788025.354092
-23356.260000	-20223.045000	6740.775000	281093.265000	304827.615000	280330.740000	-22147.605000	-35821.935000	-1.842647	-3.485133	-2.996932	16.873666	14.038995	17.215102	-0.797826	1.608944	1.052940	1.541260	1.297100	-0.660826	0.036011	0.735899	-1.000000	-1.000000	-1.000000	-1.000000	-1.000000	-1.000000	-1.000000	52.000000	0.000000	-1.000000	-1.000000	555899.000000	1775788025.360902
-23363.370000	-20229.975000	6731.145000	281066.355000	304814.970000	280304.730000	-22150.125000	-35827.650000	-1.854363	-3.318360	-3.201851	6.201182	-6.117970	7.444546	-2.127771	-0.329356	1.052940	1.541260	1.297100	-0.660826	0.036011	0.735899	-1.000000	-1.000000	-1.000000	-1.000000	-1.000000	-1.000000	-1.000000	52.000000	0.000000	-1.000000	-1.000000	555900.000000	1775788025.360918
-23367.645000	-20236.635000	6726.060000	281094.210000	304905.465000	280332.225000	-22148.370000	-35829.540000	-2.831686	-3.306656	-3.733027	-7.917978	-21.459882	-6.214870	-3.856969	-3.915338	2.166920	1.983800	1.205540	-0.660704	0.037720	0.735289	-1.000000	-1.000000	-1.000000	-1.000000	-1.000000	-1.000000	-1.000000	52.000000	0.000000	-1.000000	-1.000000	555901.000000	1775788025.361570
-23369.265000	-20239.290000	6723.405000	281094.435000	304881.750000	280330.380000	-22149.045000	-35835.345000	-3.639655	-3.043376	-3.870595	-16.509203	-21.186936	-15.065124	-4.065910	-6.515342	2.166920	1.983800	1.205540	-0.660704	0.037720	0.735289	-1.000000	-1.000000	-1.000000	-1.000000	-1.000000	-1.000000	-1.000000	52.000000	0.000000	-1.000000	-1.000000	555902.000000	1775788025.361586
-23369.895000	-20235.690000	6727.680000	281096.820000	304874.280000	280330.020000	-22153.770000	-35842.365000	-2.760194	-1.544256	-2.300744	-14.610904	-7.746159	-14.177578	-2.231839	-6.254806	2.166920	1.983800	1.205540	-0.660704	0.037720	0.735289	-1.000000	-1.000000	-1.000000	-1.000000	-1.000000	-1.000000	-1.000000	52.000000	0.000000	-1.000000	-1.000000	555903.000000	1775788025.366607
-23370.345000	-20233.350000	6730.785000	281100.645000	304868.430000	280331.595000	-22153.500000	-35842.320000	0.032922	1.558158	1.313482	-5.437050	5.109110	-6.419684	0.476581	-3.347842	2.166920	1.983800	1.205540	-0.660704	0.037720	0.735289	-1.000000	-1.000000	-1.000000	-1.000000	-1.000000	-1.000000	-1.000000	52.000000	0.000000	-1.000000	-1.000000	555904.000000	1775788025.366628
-23365.845000	-20226.600000	6738.975000	281104.335000	304868.070000	280333.620000	-22145.490000	-35834.130000	3.586083	5.375620	5.779814	4.237785	8.336999	2.088528	2.807301	1.035545	2.166920	1.983800	1.205540	-0.660704	0.037720	0.735289	-1.000000	-1.000000	-1.000000	-1.000000	-1.000000	-1.000000	-1.000000	52.000000	0.000000	-1.000000	-1.000000	555905.000000	1775788025.369657
-23355.720000	-20216.745000	6748.695000	281102.670000	304858.980000	280332.405000	-22130.955000	-35818.065000	6.518394	8.321012	9.184163	9.546169	3.392654	7.109068	4.639039	5.915936	2.166920	1.983800	1.205540	-0.660704	0.037720	0.735289	-1.000000	-1.000000	-1.000000	-1.000000	-1.000000	-1.000000	-1.000000	52.000000	0.000000	-1.000000	-1.000000	555906.000000	1775788025.369681
-23351.670000	-20216.565000	6747.480000	281100.060000	304863.885000	280330.155000	-22127.940000	-35807.715000	7.967208	9.049744	9.920345	9.060086	-3.525537	7.447600	6.131769	10.227523	2.166920	1.983800	1.205540	-0.660704	0.037720	0.735289	-1.000000	-1.000000	-1.000000	-1.000000	-1.000000	-1.000000	-1.000000	52.000000	0.000000	-1.000000	-1.000000	555907.000000	1775788025.373176
-23349.510000	-20217.690000	6745.590000	281093.805000	304860.015000	280324.530000	-22137.840000	-35807.715000	7.316343	6.768514	7.110351	4.230007	-7.115957	4.205174	6.180804	12.088507	2.166920	1.983800	1.205540	-0.660704	0.037720	0.735289	-1.000000	-1.000000	-1.000000	-1.000000	-1.000000	-1.000000	-1.000000	52.000000	0.000000	-1.000000	-1.000000	555908.000000	1775788025.373195
-23352.525000	-20221.830000	6740.235000	281091.690000	304863.930000	280321.785000	-22139.550000	-35813.520000	4.217872	1.703179	1.218098	-1.935547	-5.651826	-0.392159	3.197841	9.446236	2.166920	1.983800	1.205540	-0.660704	0.037720	0.735289	-1.000000	-1.000000	-1.000000	-1.000000	-1.000000	-1.000000	-1.000000	52.000000	0.000000	-1.000000	-1.000000	555909.000000	1775788025.377639
-23352.120000	-20219.040000	6742.710000	281091.510000	304861.770000	280319.220000	-22139.370000	-35814.465000	-0.699776	-4.341621	-5.494350	-6.330467	-0.846958	-4.035407	-2.210404	2.240330	2.166920	1.983800	1.205540	-0.660704	0.037720	0.735289	-1.000000	-1.000000	-1.000000	-1.000000	-1.000000	-1.000000	-1.000000	52.000000	0.000000	-1.000000	-1.000000	555910.000000	1775788025.377655
-23353.425000	-20218.320000	6742.395000	281093.355000	304869.330000	280319.355000	-22143.600000	-35816.985000	-5.627779	-8.635187	-9.936515	-7.068497	4.273102	-5.205079	-7.094490	-6.529112	0.442540	2.166920	0.778260	-0.662413	0.041748	0.735411	-1.000000	-1.000000	-1.000000	-1.000000	-1.000000	-1.000000	-1.000000	52.000000	0.000000	-1.000000	-1.000000	555911.000000	1775788025.394613
-23357.745000	-20220.795000	6740.955000	281097.630000	304863.930000	280321.560000	-22152.870000	-35823.195000	-8.599648	-9.383905	-10.247643	-4.231216	7.331042	-3.679447	-9.060954	-12.762340	0.442540	2.166920	0.778260	-0.662413	0.041748	0.735411	-1.000000	-1.000000	-1.000000	-1.000000	-1.000000	-1.000000	-1.000000	52.000000	0.000000	-1.000000	-1.000000	555912.000000	1775788025.394634
-23361.345000	-20228.355000	6734.160000	281099.340000	304869.330000	280322.955000	-22146.615000	-35823.690000	-8.769145	-7.046230	-7.064522	0.412681	7.312690	-0.441738	-7.724597	-14.048154	0.442540	2.166920	0.778260	-0.662413	0.041748	0.735411	-1.000000	-1.000000	-1.000000	-1.000000	-1.000000	-1.000000	-1.000000	52.000000	0.000000	-1.000000	-1.000000	555913.000000	1775788025.394658
-23368.365000	-20236.545000	6725.655000	281098.755000	304871.400000	280323.090000	-22149.495000	-35828.640000	-6.619324	-3.647787	-2.758873	4.402652	4.782610	2.832086	-3.806176	-10.516203	0.442540	2.166920	0.778260	-0.662413	0.041748	0.735411	-1.000000	-1.000000	-1.000000	-1.000000	-1.000000	-1.000000	-1.000000	52.000000	0.000000	-1.000000	-1.000000	555914.000000	1775788025.394669
-23359.365000	-20227.995000	6732.180000	281080.755000	304820.685000	280304.595000	-22149.090000	-35821.845000	-3.087114	-0.674968	0.718675	5.538124	0.448939	4.259287	1.228236	-4.032915	0.442540	2.166920	0.778260	-0.662413	0.041748	0.735411	-1.000000	-1.000000	-1.000000	-1.000000	-1.000000	-1.000000	-1.000000	52.000000	0.000000	-1.000000	-1.000000	555915.000000	1775788025.394682
-23355.945000	-20223.945000	6735.285000	281063.295000	304836.750000	280288.485000	-22151.655000	-35821.980000	1.229131	2.061376	3.233767	2.711986	-5.469799	2.422415	5.309645	2.998613	0.442540	2.166920	0.778260	-0.662413	0.041748	0.735411	-1.000000	-1.000000	-1.000000	-1.000000	-1.000000	-1.000000	-1.000000	52.000000	0.000000	-1.000000	-1.000000	555916.000000	1775788025.394691
-23364.855000	-20230.065000	6732.495000	281078.865000	304881.120000	280303.605000	-22155.705000	-35833.005000	5.304792	4.806982	5.246309	-2.428284	-9.279664	-1.667721	6.855815	8.096290	0.442540	2.166920	0.778260	-0.662413	0.041748	0.735411	-1.000000	-1.000000	-1.000000	-1.000000	-1.000000	-1.000000	-1.000000	52.000000	0.000000	-1.000000	-1.000000	555917.000000	1775788025.405286
-23361.210000	-20224.845000	6737.220000	281051.415000	304803.675000	280273.995000	-22149.900000	-35830.305000	7.269271	6.462939	6.300777	-5.950704	-6.807531	-4.670300	5.755386	9.327373	0.442540	2.166920	0.778260	-0.662413	0.041748	0.735411	-1.000000	-1.000000	-1.000000	-1.000000	-1.000000	-1.000000	-1.000000	52.000000	0.000000	-1.000000	-1.000000	555918.000000	1775788025.405308
-23365.260000	-20225.835000	6738.795000	281070.990000	304884.765000	280293.300000	-22152.375000	-35834.580000	6.234873	6.047307	5.803255	-5.505235	-0.469317	-4.518671	3.306029	6.882256	0.442540	2.166920	0.778260	-0.662413	0.041748	0.735411	-1.000000	-1.000000	-1.000000	-1.000000	-1.000000	-1.000000	-1.000000	52.000000	0.000000	-1.000000	-1.000000	555919.000000	1775788025.405332
-23354.775000	-20219.085000	6736.500000	280989.810000	304617.870000	280197.855000	-22143.645000	-35819.640000	3.372927	3.968517	3.849070	-2.825720	1.689581	-2.938369	1.055666	3.150800	0.442540	2.166920	0.778260	-0.662413	0.041748	0.735411	-1.000000	-1.000000	-1.000000	-1.000000	-1.000000	-1.000000	-1.000000	52.000000	0.000000	-1.000000	-1.000000	555920.000000	1775788025.405342
-23356.620000	-20223.675000	6732.495000	281043.360000	304864.695000	280122.885000	-22139.640000	-35817.570000	0.670874	1.301012	0.864532	-1.180373	-4.758975	-5.239315	-0.108343	0.748552	-0.274680	2.487380	-1.022420	-0.663939	0.043152	0.734617	-1.000000	-1.000000	-1.000000	-1.000000	-1.000000	-1.000000	-1.000000	52.000000	0.000000	-1.000000	-1.000000	555921.000000	1775788025.405353
-23361.615000	-20227.860000	6736.185000	281125.485000	304959.060000	280282.455000	-22143.285000	-35823.195000	-0.974083	-1.309506	-2.338895	2.004554	-5.526975	-10.091869	-0.333193	0.218263	-0.274680	2.487380	-1.022420	-0.663939	0.043152	0.734617	-1.000000	-1.000000	-1.000000	-1.000000	-1.000000	-1.000000	-1.000000	52.000000	0.000000	-1.000000	-1.000000	555922.000000	1775788025.405363
-23357.565000	-20223.855000	6739.785000	281126.700000	304868.205000	280457.235000	-22144.455000	-35821.620000	-2.006598	-3.522680	-4.378540	12.142954	13.551458	-0.884154	-0.701985	-0.077031	-0.274680	2.487380	-1.022420	-0.663939	0.043152	0.734617	-1.000000	-1.000000	-1.000000	-1.000000	-1.000000	-1.000000	-1.000000	52.000000	0.000000	-1.000000	-1.000000	555923.000000	1775788025.406579
-23357.115000	-20223.720000	6739.785000	281122.020000	304850.745000	280464.660000	-22148.460000	-35823.510000	-2.648729	-4.574945	-4.279722	23.899358	34.208378	31.266591	-1.964107	-1.362495	-0.274680	2.487380	-1.022420	-0.663939	0.043152	0.734617	-1.000000	-1.000000	-1.000000	-1.000000	-1.000000	-1.000000	-1.000000	52.000000	0.000000	-1.000000	-1.000000	555924.000000	1775788025.406601
-23353.335000	-20218.230000	6745.770000	281118.420000	304849.935000	280461.330000	-22146.120000	-35821.395000	-2.514506	-3.804342	-2.421997	24.477934	30.471878	62.935469	-3.569901	-3.091571	-0.274680	2.487380	-1.022420	-0.663939	0.043152	0.734617	-1.000000	-1.000000	-1.000000	-1.000000	-1.000000	-1.000000	-1.000000	52.000000	0.000000	-1.000000	-1.000000	555925.000000	1775788025.411920
-23349.105000	-20211.615000	6754.545000	281117.115000	304842.150000	280457.190000	-22146.705000	-35820.630000	-1.466915	-1.441502	0.118182	9.750805	3.967384	60.869369	-4.243802	-4.016916	-0.274680	2.487380	-1.022420	-0.663939	0.043152	0.734617	-1.000000	-1.000000	-1.000000	-1.000000	-1.000000	-1.000000	-1.000000	52.000000	0.000000	-1.000000	-1.000000	555926.000000	1775788025.411944
-23355.090000	-20217.780000	6750.270000	281118.195000	304847.235000	280456.110000	-22146.795000	-35826.480000	-0.063198	1.317094	2.254074	-11.967155	-24.798198	19.301184	-3.265507	-3.579326	-0.274680	2.487380	-1.022420	-0.663939	0.043152	0.734617	-1.000000	-1.000000	-1.000000	-1.000000	-1.000000	-1.000000	-1.000000	52.000000	0.000000	-1.000000	-1.000000	555927.000000	1775788025.412770
-23361.660000	-20226.420000	6739.560000	281119.320000	304847.145000	280456.155000	-22147.155000	-35830.890000	0.531016	2.580656	2.615106	-28.436969	-38.475676	-37.364196	-1.099298	-2.384105	-0.274680	2.487380	-1.022420	-0.663939	0.043152	0.734617	-1.000000	-1.000000	-1.000000	-1.000000	-1.000000	-1.000000	-1.000000	52.000000	0.000000	-1.000000	-1.000000	555928.000000	1775788025.412786
-23365.395000	-20232.495000	6730.650000	281123.010000	304849.125000	280459.170000	-22149.270000	-35832.780000	-0.384670	1.184126	0.291124	-32.164050	-32.708537	-77.818778	1.121190	-1.284408	-0.274680	2.487380	-1.022420	-0.663939	0.043152	0.734617	-1.000000	-1.000000	-1.000000	-1.000000	-1.000000	-1.000000	-1.000000	52.000000	0.000000	-1.000000	-1.000000	555929.000000	1775788025.421778
-23366.385000	-20234.430000	6728.310000	281122.875000	304843.905000	280458.675000	-22148.865000	-35832.600000	-1.995899	-1.825935	-3.579119	-23.450557	-14.565781	-84.516076	2.447868	-0.367220	-0.274680	2.487380	-1.022420	-0.663939	0.043152	0.734617	-1.000000	-1.000000	-1.000000	-1.000000	-1.000000	-1.000000	-1.000000	52.000000	0.000000	-1.000000	-1.000000	555930.000000	1775788025.421802
-23366.295000	-20235.195000	6727.185000	281122.920000	304849.170000	280458.495000	-22147.245000	-35831.655000	-2.666622	-3.952613	-6.156334	-8.293360	4.875365	-59.807346	2.671476	0.770494	-1.876980	2.731540	-0.122080	-0.663634	0.041199	0.732786	-1.000000	-1.000000	-1.000000	-1.000000	-1.000000	-1.000000	-1.000000	52.000000	0.000000	-1.000000	-1.000000	555931.000000	1775788025.424665
-23355.855000	-20222.640000	6740.145000	281120.310000	304841.520000	280455.345000	-22142.250000	-35825.310000	-1.335882	-3.240121	-5.085064	5.965415	17.426785	-19.514324	2.297614	2.297112	-1.876980	2.731540	-0.122080	-0.663634	0.041199	0.732786	-1.000000	-1.000000	-1.000000	-1.000000	-1.000000	-1.000000	-1.000000	52.000000	0.000000	-1.000000	-1.000000	555932.000000	1775788025.424685
-23346.135000	-20209.950000	6753.330000	281115.000000	304839.360000	280450.440000	-22140.810000	-35820.495000	1.907426	0.621454	-0.069711	14.294679	20.270672	18.063216	1.916033	3.936121	-1.876980	2.731540	-0.122080	-0.663634	0.041199	0.732786	-1.000000	-1.000000	-1.000000	-1.000000	-1.000000	-1.000000	-1.000000	52.000000	0.000000	-1.000000	-1.000000	555933.000000	1775788025.426385
-23344.875000	-20209.815000	6751.845000	281091.735000	304777.395000	280424.745000	-22137.480000	-35816.220000	5.602354	5.803984	6.539881	15.066909	14.171546	40.270899	1.612198	5.013078	-1.876980	2.731540	-0.122080	-0.663634	0.041199	0.732786	-1.000000	-1.000000	-1.000000	-1.000000	-1.000000	-1.000000	-1.000000	52.000000	0.000000	-1.000000	-1.000000	555934.000000	1775788025.426401
-23351.355000	-20219.130000	6739.740000	281067.210000	304764.885000	280397.745000	-22138.155000	-35818.560000	7.192668	8.693765	10.374363	9.314570	1.721903	42.989560	1.054809	4.649151	-1.876980	2.731540	-0.122080	-0.663634	0.041199	0.732786	-1.000000	-1.000000	-1.000000	-1.000000	-1.000000	-1.000000	-1.000000	52.000000	0.000000	-1.000000	-1.000000	555935.000000	1775788025.435381
-23357.925000	-20226.645000	6735.330000	281090.565000	304864.560000	280419.480000	-22140.495000	-35825.580000	4.799425	6.450406	8.195001	1.039122	-9.070591	31.093647	-0.063992	2.245263	-1.876980	2.731540	-0.122080	-0.663634	0.041199	0.732786	-1.000000	-1.000000	-1.000000	-1.000000	-1.000000	-1.000000	-1.000000	52.000000	0.000000	-1.000000	-1.000000	555936.000000	1775788025.435405
-23361.345000	-20230.740000	6732.765000	281115.630000	304879.590000	280443.195000	-22144.230000	-35829.765000	-0.807833	-0.139262	1.155158	-3.064656	-6.812825	16.088959	-1.716615	-1.825203	-1.876980	2.731540	-0.122080	-0.663634	0.041199	0.732786	-1.000000	-1.000000	-1.000000	-1.000000	-1.000000	-1.000000	-1.000000	52.000000	0.000000	-1.000000	-1.000000	555937.000000	1775788025.440950
-23357.475000	-20225.655000	6737.085000	281118.555000	304852.455000	280445.490000	-22148.550000	-35831.340000	-6.352494	-6.910555	-6.013102	0.779499	7.784237	7.524589	-3.409954	-5.849541	-1.876980	2.731540	-0.122080	-0.663634	0.041199	0.732786	-1.000000	-1.000000	-1.000000	-1.000000	-1.000000	-1.000000	-1.000000	52.000000	0.000000	-1.000000	-1.000000	555938.000000	1775788025.440968
-23361.525000	-20227.455000	6736.635000	281117.745000	304847.370000	280444.365000	-22156.740000	-35843.490000	-8.537131	-9.634638	-9.009944	8.444186	19.046321	5.588374	-4.466057	-7.848593	-1.876980	2.731540	-0.122080	-0.663634	0.041199	0.732786	-1.000000	-1.000000	-1.000000	-1.000000	-1.000000	-1.000000	-1.000000	52.000000	0.000000	-1.000000	-1.000000	555939.000000	1775788025.440989
-23360.715000	-20225.745000	6737.445000	281112.165000	304844.535000	280440.315000	-22159.440000	-35845.380000	-6.572007	-7.219606	-6.951885	12.106069	15.302635	4.332131	-4.420793	-7.143445	-1.876980	2.731540	-0.122080	-0.663634	0.041199	0.732786	-1.000000	-1.000000	-1.000000	-1.000000	-1.000000	-1.000000	-1.000000	52.000000	0.000000	-1.000000	-1.000000	555940.000000	1775788025.441002
-23358.015000	-20220.300000	6743.745000	281109.105000	304850.475000	280437.705000	-22158.990000	-35846.370000	-2.111201	-1.748775	-1.985529	7.962838	0.145971	-0.345496	-2.996437	-4.202231	-2.319520	3.006220	0.976640	-0.661925	0.042236	0.731138	-1.000000	-1.000000	-1.000000	-1.000000	-1.000000	-1.000000	-1.000000	52.000000	0.000000	-1.000000	-1.000000	555941.000000	1775788025.442630
-23356.530000	-20215.485000	6749.370000	281100.420000	304826.220000	280427.220000	-22148.145000	-35844.750000	2.555767	3.821215	3.092441	-1.563893	-15.326203	-7.690204	-0.030006	0.141557	-2.319520	3.006220	0.976640	-0.661925	0.042236	0.731138	-1.000000	-1.000000	-1.000000	-1.000000	-1.000000	-1.000000	-1.000000	52.000000	0.000000	-1.000000	-1.000000	555942.000000	1775788025.442648
-23347.080000	-20207.430000	6754.905000	281074.545000	304779.960000	280399.635000	-22134.015000	-35826.840000	5.777841	7.352951	6.336514	-11.359662	-24.076063	-14.634012	4.226248	4.923496	-2.319520	3.006220	0.976640	-0.661925	0.042236	0.731138	-1.000000	-1.000000	-1.000000	-1.000000	-1.000000	-1.000000	-1.000000	52.000000	0.000000	-1.000000	-1.000000	555943.000000	1775788025.451324
-23347.575000	-20211.480000	6751.080000	281100.420000	304872.795000	280425.285000	-22134.330000	-35816.940000	6.875152	7.832375	6.731143	-16.851776	-23.659503	-18.004485	8.382409	9.216896	-2.319520	3.006220	0.976640	-0.661925	0.042236	0.731138	-1.000000	-1.000000	-1.000000	-1.000000	-1.000000	-1.000000	-1.000000	52.000000	0.000000	-1.000000	-1.000000	555944.000000	1775788025.451349
-23339.880000	-20206.125000	6755.400000	281110.140000	304851.375000	280433.115000	-22131.270000	-35808.030000	5.850260	5.264585	4.231712	-14.560365	-11.975237	-14.645803	9.910244	11.691501	-2.319520	3.006220	0.976640	-0.661925	0.042236	0.731138	-1.000000	-1.000000	-1.000000	-1.000000	-1.000000	-1.000000	-1.000000	52.000000	0.000000	-1.000000	-1.000000	555945.000000	1775788025.451374
-23335.020000	-20202.930000	6757.110000	281111.715000	304838.415000	280434.870000	-22127.265000	-35801.685000	3.303842	0.939651	0.150751	-4.700700	6.494610	-4.422886	7.241618	10.732161	-2.319520	3.006220	0.976640	-0.661925	0.042236	0.731138	-1.000000	-1.000000	-1.000000	-1.000000	-1.000000	-1.000000	-1.000000	52.000000	0.000000	-1.000000	-1.000000	555946.000000	1775788025.451386
-23340.780000	-20209.590000	6751.260000	281112.345000	304844.625000	280435.725000	-22134.915000	-35807.715000	0.141677	-3.180901	-3.562817	6.954087	19.644426	7.379458	1.360277	5.743629	-2.319520	3.006220	0.976640	-0.661925	0.042236	0.731138	-1.000000	-1.000000	-1.000000	-1.000000	-1.000000	-1.000000	-1.000000	52.000000	0.000000	-1.000000	-1.000000	555947.000000	1775788025.454912
-23347.890000	-20214.720000	6748.920000	281110.095000	304843.860000	280433.250000	-22138.155000	-35817.795000	-3.198603	-5.989509	-5.781356	13.560829	20.578444	14.222104	-5.296395	-2.257636	-2.319520	3.006220	0.976640	-0.661925	0.042236	0.731138	-1.000000	-1.000000	-1.000000	-1.000000	-1.000000	-1.000000	-1.000000	52.000000	0.000000	-1.000000	-1.000000	555948.000000	1775788025.454933
-23349.780000	-20216.970000	6746.670000	281106.900000	304848.180000	280431.495000	-22135.230000	-35819.280000	-6.300368	-7.217089	-6.247240	12.411649	12.330137	13.392402	-10.095863	-10.659415	-2.319520	3.006220	0.976640	-0.661925	0.042236	0.731138	-1.000000	-1.000000	-1.000000	-1.000000	-1.000000	-1.000000	-1.000000	52.000000	0.000000	-1.000000	-1.000000	555949.000000	1775788025.456425
-23349.690000	-20218.995000	6742.530000	281099.880000	304844.895000	280424.790000	-22135.680000	-35819.145000	-7.909897	-6.570882	-5.024426	5.494732	1.621121	6.710104	-10.960855	-15.761265	-2.319520	3.006220	0.976640	-0.661925	0.042236	0.731138	-1.000000	-1.000000	-1.000000	-1.000000	-1.000000	-1.000000	-1.000000	52.000000	0.000000	-1.000000	-1.000000	555950.000000	1775788025.456439
-23337.810000	-20203.740000	6761.790000	281097.945000	304842.285000	280420.470000	-22137.165000	-35813.520000	-6.558861	-3.715992	-2.215343	-2.845856	-6.461572	-1.700416	-7.713036	-14.811318	-3.250380	2.151660	1.037680	-0.662230	0.042480	0.730406	-1.000000	-1.000000	-1.000000	-1.000000	-1.000000	-1.000000	-1.000000	52.000000	0.000000	-1.000000	-1.000000	555951.000000	1775788025.464831
-23337.540000	-20203.470000	6760.035000	281073.105000	304772.760000	280393.245000	-22133.970000	-35812.530000	-2.083916	1.075703	1.969679	-8.896043	-11.206874	-8.339433	-2.256037	-8.116496	-3.250380	2.151660	1.037680	-0.662230	0.042480	0.730406	-1.000000	-1.000000	-1.000000	-1.000000	-1.000000	-1.000000	-1.000000	52.000000	0.000000	-1.000000	-1.000000	555952.000000	1775788025.464852
-23347.800000	-20217.420000	6744.375000	281084.085000	304855.695000	280404.135000	-22130.280000	-35817.930000	3.249467	5.695566	5.736342	-11.006535	-13.376972	-11.454683	3.037438	0.851131	-3.250380	2.151660	1.037680	-0.662230	0.042480	0.730406	-1.000000	-1.000000	-1.000000	-1.000000	-1.000000	-1.000000	-1.000000	52.000000	0.000000	-1.000000	-1.000000	555953.000000	1775788025.466158
-23360.670000	-20231.190000	6731.775000	281103.120000	304874.460000	280422.945000	-22140.495000	-35830.755000	5.835484	6.782774	5.949666	-8.236314	-9.264918	-9.541467	6.326972	7.441297	-3.250380	2.151660	1.037680	-0.662230	0.042480	0.730406	-1.000000	-1.000000	-1.000000	-1.000000	-1.000000	-1.000000	-1.000000	52.000000	0.000000	-1.000000	-1.000000	555954.000000	1775788025.466174
-23362.875000	-20231.370000	6733.035000	281103.030000	304853.625000	280422.405000	-22146.390000	-35835.570000	4.082413	3.312709	1.953636	-0.680046	2.744188	-2.142843	6.377077	8.829731	-3.250380	2.151660	1.037680	-0.662230	0.042480	0.730406	-1.000000	-1.000000	-1.000000	-1.000000	-1.000000	-1.000000	-1.000000	52.000000	0.000000	-1.000000	-1.000000	555955.000000	1775788025.480686
-23364.315000	-20231.370000	6732.945000	281101.500000	304851.285000	280420.785000	-22150.755000	-35838.180000	0.107952	-1.681288	-2.886342	7.965517	14.015946	7.084662	3.406428	5.881135	-3.250380	2.151660	1.037680	-0.662230	0.042480	0.730406	-1.000000	-1.000000	-1.000000	-1.000000	-1.000000	-1.000000	-1.000000	52.000000	0.000000	-1.000000	-1.000000	555956.000000	1775788025.480712
-23363.865000	-20231.280000	6731.820000	281099.655000	304856.595000	280419.255000	-22146.705000	-35835.210000	-2.534211	-4.179778	-4.730505	12.296146	15.459221	12.341997	-0.391523	1.990577	-3.250380	2.151660	1.037680	-0.662230	0.042480	0.730406	-1.000000	-1.000000	-1.000000	-1.000000	-1.000000	-1.000000	-1.000000	52.000000	0.000000	-1.000000	-1.000000	555957.000000	1775788025.480740
-23362.065000	-20228.625000	6734.160000	281094.885000	304856.865000	280415.475000	-22144.995000	-35832.150000	-2.048235	-2.794037	-2.725832	9.986065	7.676474	10.853270	-2.355353	0.125043	-3.250380	2.151660	1.037680	-0.662230	0.042480	0.730406	-1.000000	-1.000000	-1.000000	-1.000000	-1.000000	-1.000000	-1.000000	52.000000	0.000000	-1.000000	-1.000000	555958.000000	1775788025.480752
-23357.880000	-20222.955000	6741.000000	281090.745000	304850.385000	280412.145000	-22147.695000	-35831.655000	0.840834	1.026945	1.369899	2.995819	-2.806324	4.309831	-1.591082	0.861486	-3.250380	2.151660	1.037680	-0.662230	0.042480	0.730406	-1.000000	-1.000000	-1.000000	-1.000000	-1.000000	-1.000000	-1.000000	52.000000	0.000000	-1.000000	-1.000000	555959.000000	1775788025.480946
-23355.990000	-20221.245000	6743.070000	281088.945000	304851.015000	280409.490000	-22151.745000	-35832.420000	4.088840	4.795792	5.184171	-4.563068	-10.349916	-3.280758	0.471108	2.586726	-3.250380	2.151660	1.037680	-0.662230	0.042480	0.730406	-1.000000	-1.000000	-1.000000	-1.000000	-1.000000	-1.000000	-1.000000	52.000000	0.000000	-1.000000	-1.000000	555960.000000	1775788025.480961
-23358.510000	-20222.730000	6741.405000	281092.680000	304856.730000	280411.020000	-22156.065000	-35836.650000	5.662436	6.371290	6.768693	-8.941972	-12.333835	-8.207145	1.742270	3.194053	-2.624720	-0.289940	0.839300	-0.668089	0.038696	0.730162	-1.000000	-1.000000	-1.000000	-1.000000	-1.000000	-1.000000	-1.000000	52.000000	0.000000	-1.000000	-1.000000	555961.000000	1775788025.486200
-23357.925000	-20223.360000	6741.045000	281096.280000	304851.555000	280413.000000	-22147.110000	-35833.905000	4.537696	4.837544	5.216547	-8.456187	-8.976772	-8.686860	1.552382	1.819503	-2.624720	-0.289940	0.839300	-0.668089	0.038696	0.730162	-1.000000	-1.000000	-1.000000	-1.000000	-1.000000	-1.000000	-1.000000	52.000000	0.000000	-1.000000	-1.000000	555962.000000	1775788025.486225
-23356.980000	-20229.120000	6730.875000	281098.035000	304853.805000	280414.935000	-22138.875000	-35827.920000	1.337316	0.920498	1.115387	-4.095513	-2.906531	-5.311884	1.063103	-0.537563	-2.624720	-0.289940	0.839300	-0.668089	0.038696	0.730162	-1.000000	-1.000000	-1.000000	-1.000000	-1.000000	-1.000000	-1.000000	52.000000	0.000000	-1.000000	-1.000000	555963.000000	1775788025.486250
-23350.635000	-20222.730000	6736.230000	281071.755000	304778.115000	280389.465000	-22135.725000	-35820.945000	-2.042171	-3.396595	-3.684243	0.802461	1.327844	-0.838110	1.457939	-2.037972	-2.624720	-0.289940	0.839300	-0.668089	0.038696	0.730162	-1.000000	-1.000000	-1.000000	-1.000000	-1.000000	-1.000000	-1.000000	52.000000	0.000000	-1.000000	-1.000000	555964.000000	1775788025.486262
-23348.475000	-20218.905000	6742.080000	281077.830000	304849.575000	280397.070000	-22135.860000	-35819.505000	-3.808800	-5.793568	-6.630942	2.752373	0.988790	1.577729	2.209653	-1.848376	-2.624720	-0.289940	0.839300	-0.668089	0.038696	0.730162	-1.000000	-1.000000	-1.000000	-1.000000	-1.000000	-1.000000	-1.000000	52.000000	0.000000	-1.000000	-1.000000	555965.000000	1775788025.493205
-23351.310000	-20219.895000	6742.710000	281088.135000	304867.305000	280408.185000	-22142.655000	-35823.960000	-3.627880	-5.161287	-6.012875	1.830244	0.773952	1.785616	1.733999	-0.910528	-2.624720	-0.289940	0.839300	-0.668089	0.038696	0.730162	-1.000000	-1.000000	-1.000000	-1.000000	-1.000000	-1.000000	-1.000000	52.000000	0.000000	-1.000000	-1.000000	555966.000000	1775788025.493222
-23344.515000	-20211.210000	6752.430000	281085.795000	304854.750000	280405.350000	-22144.275000	-35820.495000	-2.470509	-2.401159	-2.471267	1.131472	6.041309	2.218169	-0.705792	-0.704899	-2.624720	-0.289940	0.839300	-0.668089	0.038696	0.730162	-1.000000	-1.000000	-1.000000	-1.000000	-1.000000	-1.000000	-1.000000	52.000000	0.000000	-1.000000	-1.000000	555967.000000	1775788025.499541
-23339.745000	-20204.370000	6760.485000	281084.355000	304850.835000	280403.595000	-22145.355000	-35818.605000	-1.126527	0.855566	1.892884	2.010886	12.526685	3.565030	-3.983581	-1.446093	-2.624720	-0.289940	0.839300	-0.668089	0.038696	0.730162	-1.000000	-1.000000	-1.000000	-1.000000	-1.000000	-1.000000	-1.000000	52.000000	0.000000	-1.000000	-1.000000	555968.000000	1775788025.499563
-23337.180000	-20198.655000	6767.325000	281084.985000	304844.400000	280401.795000	-22150.620000	-35819.730000	0.193121	3.380825	5.125244	3.064562	12.611367	4.175159	-6.065105	-2.189582	-2.624720	-0.289940	0.839300	-0.668089	0.038696	0.730162	-1.000000	-1.000000	-1.000000	-1.000000	-1.000000	-1.000000	-1.000000	52.000000	0.000000	-1.000000	-1.000000	555969.000000	1775788025.499587
-23335.740000	-20197.980000	6766.920000	281070.810000	304788.195000	280385.415000	-22138.155000	-35815.500000	1.118795	4.245751	5.866820	2.647670	4.210794	2.649240	-5.576998	-2.190394	-2.624720	-0.289940	0.839300	-0.668089	0.038696	0.730162	-1.000000	-1.000000	-1.000000	-1.000000	-1.000000	-1.000000	-1.000000	52.000000	0.000000	-1.000000	-1.000000	555970.000000	1775788025.499597
-23338.620000	-20205.855000	6753.195000	281028.690000	304713.630000	280341.720000	-22129.290000	-35813.385000	1.106541	2.815878	3.405942	-0.422512	-10.532301	-1.630384	-2.205426	-1.305712	-0.412020	-1.602300	-0.732480	-0.672789	0.032410	0.729673	-1.000000	-1.000000	-1.000000	-1.000000	-1.000000	-1.000000	-1.000000	52.000000	0.000000	-1.000000	-1.000000	555971.000000	1775788025.503395
-23346.405000	-20216.565000	6743.610000	281047.365000	304838.955000	280360.305000	-22133.115000	-35821.710000	-0.110170	-0.842829	-1.884558	-5.682894	-23.627419	-7.552680	2.749056	-0.047097	-0.412020	-1.602300	-0.732480	-0.672789	0.032410	0.729673	-1.000000	-1.000000	-1.000000	-1.000000	-1.000000	-1.000000	-1.000000	52.000000	0.000000	-1.000000	-1.000000	555972.000000	1775788025.503435
-23346.405000	-20217.465000	6741.360000	281037.330000	304755.615000	280348.245000	-22140.585000	-35827.335000	-2.112770	-5.326328	-7.739594	-9.084740	-22.561220	-10.706722	6.159988	0.474387	-0.412020	-1.602300	-0.732480	-0.672789	0.032410	0.729673	-1.000000	-1.000000	-1.000000	-1.000000	-1.000000	-1.000000	-1.000000	52.000000	0.000000	-1.000000	-1.000000	555973.000000	1775788025.510847
-23347.215000	-20221.065000	6729.615000	280983.330000	304644.600000	280233.495000	-22143.825000	-35828.235000	-3.604413	-8.054498	-10.835098	-7.735253	-8.749535	-9.452752	5.517252	-0.218756	-0.412020	-1.602300	-0.732480	-0.672789	0.032410	0.729673	-1.000000	-1.000000	-1.000000	-1.000000	-1.000000	-1.000000	-1.000000	52.000000	0.000000	-1.000000	-1.000000	555974.000000	1775788025.510867
-23368.770000	-20241.630000	6717.735000	281098.305000	304937.055000	280367.145000	-22151.205000	-35845.920000	-3.680054	-7.476943	-9.574017	-2.193406	6.626003	-6.217255	1.384564	-1.445321	-0.412020	-1.602300	-0.732480	-0.672789	0.032410	0.729673	-1.000000	-1.000000	-1.000000	-1.000000	-1.000000	-1.000000	-1.000000	52.000000	0.000000	-1.000000	-1.000000	555975.000000	1775788025.510889
-23372.325000	-20243.025000	6721.380000	281132.460000	304909.605000	280455.705000	-22150.890000	-35847.810000	-2.943677	-4.500475	-4.860427	9.093581	25.874868	3.768877	-3.327277	-2.419421	-0.412020	-1.602300	-0.732480	-0.672789	0.032410	0.729673	-1.000000	-1.000000	-1.000000	-1.000000	-1.000000	-1.000000	-1.000000	52.000000	0.000000	-1.000000	-1.000000	555976.000000	1775788025.510899
-23360.310000	-20227.680000	6737.085000	281125.305000	304834.545000	280446.480000	-22143.780000	-35836.470000	-1.644325	-0.272042	1.900652	24.090723	45.864492	24.580701	-5.558672	-2.145683	-0.412020	-1.602300	-0.732480	-0.672789	0.032410	0.729673	-1.000000	-1.000000	-1.000000	-1.000000	-1.000000	-1.000000	-1.000000	52.000000	0.000000	-1.000000	-1.000000	555977.000000	1775788025.515743
-23353.920000	-20222.235000	6739.245000	281102.670000	304785.855000	280421.460000	-22138.560000	-35826.255000	1.372190	5.175953	9.287559	30.489493	43.526521	41.812165	-3.853527	0.666659	-0.412020	-1.602300	-0.732480	-0.672789	0.032410	0.729673	-1.000000	-1.000000	-1.000000	-1.000000	-1.000000	-1.000000	-1.000000	52.000000	0.000000	-1.000000	-1.000000	555978.000000	1775788025.515769
-23352.615000	-20218.770000	6745.860000	281132.820000	304878.420000	280451.295000	-22145.490000	-35829.765000	5.978919	10.654742	14.658923	19.167654	11.479384	36.752197	0.466593	5.405234	-0.412020	-1.602300	-0.732480	-0.672789	0.032410	0.729673	-1.000000	-1.000000	-1.000000	-1.000000	-1.000000	-1.000000	-1.000000	52.000000	0.000000	-1.000000	-1.000000	555979.000000	1775788025.517643
-23349.555000	-20212.065000	6752.610000	281130.615000	304826.220000	280448.820000	-22146.660000	-35830.215000	9.550372	13.312792	15.284903	-3.561577	-26.842555	10.145241	4.092773	8.822316	-0.412020	-1.602300	-0.732480	-0.672789	0.032410	0.729673	-1.000000	-1.000000	-1.000000	-1.000000	-1.000000	-1.000000	-1.000000	52.000000	0.000000	-1.000000	-1.000000	555980.000000	1775788025.517664
-23352.525000	-20219.310000	6742.575000	281104.290000	304779.780000	280422.270000	-22136.085000	-35825.265000	9.459504	11.169799	10.498566	-24.298076	-48.431892	-21.828623	4.898216	8.195491	3.219860	-0.976640	-0.564620	-0.670714	0.028625	0.731566	-1.000000	-1.000000	-1.000000	-1.000000	-1.000000	-1.000000	-1.000000	52.000000	0.000000	-1.000000	-1.000000	555981.000000	1775788025.532468
-23359.455000	-20231.235000	6731.775000	281125.530000	304876.980000	280445.535000	-22132.575000	-35826.840000	5.218536	4.411936	1.672654	-34.534163	-48.137868	-43.774365	3.646869	3.949147	3.219860	-0.976640	-0.564620	-0.670714	0.028625	0.731566	-1.000000	-1.000000	-1.000000	-1.000000	-1.000000	-1.000000	-1.000000	52.000000	0.000000	-1.000000	-1.000000	555982.000000	1775788025.532539
-23354.505000	-20227.770000	6733.935000	281124.270000	304856.730000	280443.465000	-22128.615000	-35821.170000	-1.290649	-4.528781	-8.107798	-31.693534	-28.544968	-47.422138	2.017105	-1.376107	3.219860	-0.976640	-0.564620	-0.670714	0.028625	0.731566	-1.000000	-1.000000	-1.000000	-1.000000	-1.000000	-1.000000	-1.000000	52.000000	0.000000	-1.000000	-1.000000	555983.000000	1775788025.532600
-23352.255000	-20225.475000	6737.265000	281121.345000	304844.310000	280439.280000	-22131.180000	-35822.070000	-6.704901	-11.383124	-14.444962	-18.188686	0.622145	-33.467871	0.523327	-5.305566	3.219860	-0.976640	-0.564620	-0.670714	0.028625	0.731566	-1.000000	-1.000000	-1.000000	-1.000000	-1.000000	-1.000000	-1.000000	52.000000	0.000000	-1.000000	-1.000000	555984.000000	1775788025.532612
-23346.945000	-20215.620000	6748.965000	281120.040000	304839.315000	280435.905000	-22134.060000	-35820.765000	-8.348537	-12.550002	-14.103268	-1.154765	22.689718	-10.981425	-1.213899	-6.699580	3.219860	-0.976640	-0.564620	-0.670714	0.028625	0.731566	-1.000000	-1.000000	-1.000000	-1.000000	-1.000000	-1.000000	-1.000000	52.000000	0.000000	-1.000000	-1.000000	555985.000000	1775788025.532630
-23344.065000	-20209.455000	6756.570000	281121.615000	304839.405000	280434.420000	-22138.245000	-35821.755000	-6.061516	-7.779356	-7.454373	12.100470	28.057244	9.290397	-3.313329	-5.891768	3.219860	-0.976640	-0.564620	-0.670714	0.028625	0.731566	-1.000000	-1.000000	-1.000000	-1.000000	-1.000000	-1.000000	-1.000000	52.000000	0.000000	-1.000000	-1.000000	555986.000000	1775788025.532640
-23350.275000	-20215.575000	6749.595000	281125.800000	304842.960000	280435.365000	-22148.505000	-35829.990000	-2.006549	-0.373839	1.470634	18.204289	19.958506	21.061053	-5.238870	-4.052855	3.219860	-0.976640	-0.564620	-0.670714	0.028625	0.731566	-1.000000	-1.000000	-1.000000	-1.000000	-1.000000	-1.000000	-1.000000	52.000000	0.000000	-1.000000	-1.000000	555987.000000	1775788025.537118
-23352.795000	-20220.120000	6744.420000	281127.240000	304842.060000	280435.905000	-22151.205000	-35836.785000	0.992037	4.984189	7.353492	17.680938	7.413997	23.502815	-6.194957	-2.480277	3.219860	-0.976640	-0.564620	-0.670714	0.028625	0.731566	-1.000000	-1.000000	-1.000000	-1.000000	-1.000000	-1.000000	-1.000000	52.000000	0.000000	-1.000000	-1.000000	555988.000000	1775788025.537143
-23355.090000	-20221.020000	6742.485000	281125.170000	304841.385000	280432.170000	-22156.380000	-35847.045000	1.548766	5.662786	7.408247	12.841167	-2.361359	19.130785	-5.458444	-1.812030	3.219860	-0.976640	-0.564620	-0.670714	0.028625	0.731566	-1.000000	-1.000000	-1.000000	-1.000000	-1.000000	-1.000000	-1.000000	52.000000	0.000000	-1.000000	-1.000000	555989.000000	1775788025.537706
-23352.075000	-20216.745000	6744.780000	281097.405000	304771.770000	280402.470000	-22153.815000	-35845.380000	0.507592	2.830042	3.240635	5.638784	-7.984421	10.854670	-2.748439	-1.536649	3.219860	-0.976640	-0.564620	-0.670714	0.028625	0.731566	-1.000000	-1.000000	-1.000000	-1.000000	-1.000000	-1.000000	-1.000000	52.000000	0.000000	-1.000000	-1.000000	555990.000000	1775788025.537718
-23355.090000	-20219.085000	6744.285000	281103.300000	304856.955000	280408.230000	-22147.965000	-35843.355000	-0.401876	-0.400707	-1.284251	-2.416486	-10.701077	1.111516	1.462359	-0.392983	5.859840	-1.144500	-0.350980	-0.661009	0.028503	0.737486	-1.000000	-1.000000	-1.000000	-1.000000	-1.000000	-1.000000	-1.000000	52.000000	0.000000	-1.000000	-1.000000	555991.000000	1775788025.544374
-23347.980000	-20210.175000	6755.895000	281112.840000	304859.070000	280417.185000	-22138.830000	-35832.915000	-0.193853	-1.820692	-3.215408	-8.287972	-7.740649	-6.400358	6.062544	2.432474	5.859840	-1.144500	-0.350980	-0.661009	0.028503	0.737486	-1.000000	-1.000000	-1.000000	-1.000000	-1.000000	-1.000000	-1.000000	52.000000	0.000000	-1.000000	-1.000000	555992.000000	1775788025.544394
-23345.595000	-20209.680000	6755.130000	281113.110000	304852.320000	280415.025000	-22137.660000	-35823.105000	1.088764	-1.061194	-1.933067	-8.620263	2.113205	-8.009839	9.419910	6.362307	5.859840	-1.144500	-0.350980	-0.661009	0.028503	0.737486	-1.000000	-1.000000	-1.000000	-1.000000	-1.000000	-1.000000	-1.000000	52.000000	0.000000	-1.000000	-1.000000	555993.000000	1775788025.548252
-23351.715000	-20220.390000	6742.980000	281112.975000	304851.015000	280413.405000	-22145.895000	-35824.320000	2.521855	0.554539	0.654634	-3.820399	11.502783	-4.161391	9.626546	9.422974	5.859840	-1.144500	-0.350980	-0.661009	0.028503	0.737486	-1.000000	-1.000000	-1.000000	-1.000000	-1.000000	-1.000000	-1.000000	52.000000	0.000000	-1.000000	-1.000000	555994.000000	1775788025.548273
-23356.305000	-20226.780000	6736.815000	281115.720000	304846.695000	280413.315000	-22149.675000	-35830.350000	2.641163	0.906487	1.577434	2.180248	12.734291	1.094582	5.693935	9.122467	5.859840	-1.144500	-0.350980	-0.661009	0.028503	0.737486	-1.000000	-1.000000	-1.000000	-1.000000	-1.000000	-1.000000	-1.000000	52.000000	0.000000	-1.000000	-1.000000	555995.000000	1775788025.551771
-23355.315000	-20225.295000	6738.255000	281117.745000	304847.370000	280413.090000	-22148.955000	-35832.105000	0.927198	-0.634394	-0.054181	5.818223	5.760383	4.206862	-0.880626	4.465307	5.859840	-1.144500	-0.350980	-0.661009	0.028503	0.737486	-1.000000	-1.000000	-1.000000	-1.000000	-1.000000	-1.000000	-1.000000	52.000000	0.000000	-1.000000	-1.000000	555996.000000	1775788025.551796
-23350.905000	-20217.105000	6747.165000	281117.610000	304849.845000	280412.370000	-22150.395000	-35833.140000	-1.279782	-2.215719	-2.041176	5.928226	-3.888239	4.150864	-6.640554	-2.565263	5.859840	-1.144500	-0.350980	-0.661009	0.028503	0.737486	-1.000000	-1.000000	-1.000000	-1.000000	-1.000000	-1.000000	-1.000000	52.000000	0.000000	-1.000000	-1.000000	555997.000000	1775788025.559953
-23346.495000	-20211.840000	6753.105000	281111.985000	304831.485000	280407.420000	-22150.305000	-35832.375000	-2.096159	-1.622377	-1.735241	3.194375	-10.660116	1.800599	-8.839102	-8.283143	5.859840	-1.144500	-0.350980	-0.661009	0.028503	0.737486	-1.000000	-1.000000	-1.000000	-1.000000	-1.000000	-1.000000	-1.000000	52.000000	0.000000	-1.000000	-1.000000	555998.000000	1775788025.559978
-23338.035000	-20206.305000	6755.310000	281079.270000	304770.735000	280374.075000	-22137.885000	-35821.440000	-0.865174	1.230788	1.057783	-1.418273	-13.626534	-1.879130	-6.911286	-9.837012	5.859840	-1.144500	-0.350980	-0.661009	0.028503	0.737486	-1.000000	-1.000000	-1.000000	-1.000000	-1.000000	-1.000000	-1.000000	52.000000	0.000000	-1.000000	-1.000000	555999.000000	1775788025.560003
-23342.355000	-20214.090000	6746.175000	281098.485000	304873.875000	280392.345000	-22133.925000	-35821.890000	1.363508	4.126592	3.872498	-6.558285	-13.168823	-5.934841	-2.025450	-6.778279	5.859840	-1.144500	-0.350980	-0.661009	0.028503	0.737486	-1.000000	-1.000000	-1.000000	-1.000000	-1.000000	-1.000000	-1.000000	52.000000	0.000000	-1.000000	-1.000000	556000.000000	1775788025.560014
-23333.715000	-20203.380000	6757.245000	281104.155000	304854.975000	280395.720000	-22129.020000	-35814.240000	2.759752	4.707154	4.220399	-8.847322	-5.732268	-7.584720	3.384976	-1.240265	5.218920	-1.495480	3.143560	-0.648558	0.036194	0.744993	-1.000000	-1.000000	-1.000000	-1.000000	-1.000000	-1.000000	-1.000000	52.000000	0.000000	-1.000000	-1.000000	556001.000000	1775788025.560595
-23328.270000	-20194.020000	6768.900000	281100.105000	304827.435000	280389.060000	-22127.940000	-35811.945000	2.494006	2.958619	2.403444	-5.612581	7.494034	-4.516164	6.553640	3.662049	5.218920	-1.495480	3.143560	-0.648558	0.036194	0.744993	-1.000000	-1.000000	-1.000000	-1.000000	-1.000000	-1.000000	-1.000000	52.000000	0.000000	-1.000000	-1.000000	556002.000000	1775788025.560610
-23328.855000	-20193.930000	6769.035000	281075.895000	304770.870000	280361.880000	-22131.045000	-35814.465000	1.107351	0.675806	0.553842	0.584679	15.120272	0.825894	5.989639	5.752981	5.218920	-1.495480	3.143560	-0.648558	0.036194	0.744993	-1.000000	-1.000000	-1.000000	-1.000000	-1.000000	-1.000000	-1.000000	52.000000	0.000000	-1.000000	-1.000000	556003.000000	1775788025.565142
-23343.030000	-20208.690000	6755.715000	281102.085000	304870.365000	280387.080000	-22140.630000	-35829.180000	-1.014684	-1.432587	-0.780468	4.929072	11.097453	4.153260	2.073238	4.222358	5.218920	-1.495480	3.143560	-0.648558	0.036194	0.744993	-1.000000	-1.000000	-1.000000	-1.000000	-1.000000	-1.000000	-1.000000	52.000000	0.000000	-1.000000	-1.000000	556004.000000	1775788025.565159
-23348.610000	-20214.405000	6751.935000	281112.210000	304863.210000	280397.205000	-22140.945000	-35839.125000	-3.936285	-4.069175	-2.783827	6.559084	4.251526	5.259754	-3.270343	-0.341082	5.218920	-1.495480	3.143560	-0.648558	0.036194	0.744993	-1.000000	-1.000000	-1.000000	-1.000000	-1.000000	-1.000000	-1.000000	52.000000	0.000000	-1.000000	-1.000000	556005.000000	1775788025.569330
-23345.955000	-20212.830000	6752.070000	281097.855000	304806.555000	280381.635000	-22137.840000	-35836.065000	-6.604412	-6.800933	-5.398621	7.014837	2.176186	6.031675	-7.141944	-5.447334	5.218920	-1.495480	3.143560	-0.648558	0.036194	0.744993	-1.000000	-1.000000	-1.000000	-1.000000	-1.000000	-1.000000	-1.000000	52.000000	0.000000	-1.000000	-1.000000	556006.000000	1775788025.569342
-23345.055000	-20215.395000	6746.490000	281082.195000	304814.430000	280365.615000	-22137.930000	-35830.620000	-6.815657	-7.531258	-6.730518	5.403058	0.295447	5.333974	-7.266489	-7.472664	5.218920	-1.495480	3.143560	-0.648558	0.036194	0.744993	-1.000000	-1.000000	-1.000000	-1.000000	-1.000000	-1.000000	-1.000000	52.000000	0.000000	-1.000000	-1.000000	556007.000000	1775788025.573163
-23341.275000	-20209.275000	6752.970000	281082.735000	304817.085000	280364.760000	-22136.085000	-35825.670000	-3.547807	-4.908229	-5.315933	0.478364	-5.098125	1.322051	-3.771612	-4.503454	5.218920	-1.495480	3.143560	-0.648558	0.036194	0.744993	-1.000000	-1.000000	-1.000000	-1.000000	-1.000000	-1.000000	-1.000000	52.000000	0.000000	-1.000000	-1.000000	556008.000000	1775788025.573175
-23336.505000	-20202.570000	6759.720000	281081.205000	304839.270000	280361.655000	-22130.640000	-35817.120000	1.828235	0.325730	-1.255845	-5.430539	-9.183025	-4.182970	1.193108	1.878383	5.218920	-1.495480	3.143560	-0.648558	0.036194	0.744993	-1.000000	-1.000000	-1.000000	-1.000000	-1.000000	-1.000000	-1.000000	52.000000	0.000000	-1.000000	-1.000000	556009.000000	1775788025.581694
-23341.365000	-20214.315000	6747.885000	281099.295000	304870.995000	280379.475000	-22134.105000	-35816.850000	6.568622	5.691357	3.713781	-8.056453	-6.496064	-7.047190	5.175981	7.934241	5.218920	-1.495480	3.143560	-0.648558	0.036194	0.744993	-1.000000	-1.000000	-1.000000	-1.000000	-1.000000	-1.000000	-1.000000	52.000000	0.000000	-1.000000	-1.000000	556010.000000	1775788025.581718
-23344.785000	-20222.730000	6737.445000	281100.825000	304860.150000	280380.735000	-22138.515000	-35819.190000	8.144424	7.975736	6.525504	-5.268703	2.175414	-4.860019	6.395424	10.219275	-0.625660	0.747740	6.348160	-0.642393	0.049438	0.747190	-1.000000	-1.000000	-1.000000	-1.000000	-1.000000	-1.000000	-1.000000	52.000000	0.000000	-1.000000	-1.000000	556011.000000	1775788025.594602
-23334.480000	-20208.825000	6751.800000	281105.910000	304846.875000	280383.885000	-22132.395000	-35811.720000	6.068246	6.053002	5.586748	0.911156	9.592715	0.749605	4.585609	7.657343	-0.625660	0.747740	6.348160	-0.642393	0.049438	0.747190	-1.000000	-1.000000	-1.000000	-1.000000	-1.000000	-1.000000	-1.000000	52.000000	0.000000	-1.000000	-1.000000	556012.000000	1775788025.594626
-23332.275000	-20204.775000	6755.805000	281105.775000	304837.560000	280383.030000	-22132.980000	-35812.080000	2.410861	2.479425	2.938863	6.053889	8.806193	5.527487	1.390681	2.180584	-0.625660	0.747740	6.348160	-0.642393	0.049438	0.747190	-1.000000	-1.000000	-1.000000	-1.000000	-1.000000	-1.000000	-1.000000	52.000000	0.000000	-1.000000	-1.000000	556013.000000	1775788025.594648
-23334.660000	-20206.890000	6752.070000	281080.665000	304781.175000	280358.415000	-22132.530000	-35814.510000	-0.564437	0.214471	1.261912	6.580690	-0.664374	5.928156	-1.190301	-3.235752	-0.625660	0.747740	6.348160	-0.642393	0.049438	0.747190	-1.000000	-1.000000	-1.000000	-1.000000	-1.000000	-1.000000	-1.000000	52.000000	0.000000	-1.000000	-1.000000	556014.000000	1775788025.594659
-23343.210000	-20214.540000	6747.885000	281094.660000	304867.845000	280373.760000	-22138.740000	-35823.645000	-2.517277	-0.672246	0.559360	2.028946	-12.042080	1.560194	-2.485361	-6.886214	-0.625660	0.747740	6.348160	-0.642393	0.049438	0.747190	-1.000000	-1.000000	-1.000000	-1.000000	-1.000000	-1.000000	-1.000000	52.000000	0.000000	-1.000000	-1.000000	556015.000000	1775788025.594668
-23349.735000	-20219.850000	6744.195000	281098.080000	304868.790000	280377.585000	-22146.030000	-35830.665000	-4.185747	-1.736006	-0.528767	-3.881915	-14.456230	-3.868491	-3.025481	-8.506564	-0.625660	0.747740	6.348160	-0.642393	0.049438	0.747190	-1.000000	-1.000000	-1.000000	-1.000000	-1.000000	-1.000000	-1.000000	52.000000	0.000000	-1.000000	-1.000000	556016.000000	1775788025.594676
-23351.265000	-20221.020000	6744.555000	281094.885000	304861.860000	280374.795000	-22149.090000	-35832.780000	-5.548162	-3.416089	-2.236307	-6.479598	-4.426976	-5.937838	-3.366919	-8.158023	-0.625660	0.747740	6.348160	-0.642393	0.049438	0.747190	-1.000000	-1.000000	-1.000000	-1.000000	-1.000000	-1.000000	-1.000000	52.000000	0.000000	-1.000000	-1.000000	556017.000000	1775788025.594685
-23346.990000	-20217.105000	6746.265000	281072.520000	304796.520000	280351.125000	-22144.275000	-35827.920000	-5.445066	-4.446286	-3.454559	-5.258756	7.416484	-4.511774	-3.130628	-5.592260	-0.625660	0.747740	6.348160	-0.642393	0.049438	0.747190	-1.000000	-1.000000	-1.000000	-1.000000	-1.000000	-1.000000	-1.000000	52.000000	0.000000	-1.000000	-1.000000	556018.000000	1775788025.594693
-23342.355000	-20213.460000	6747.210000	281071.080000	304842.555000	280349.190000	-22144.140000	-35824.230000	-2.883611	-3.388952	-3.104987	-3.164883	9.525909	-2.739050	-1.487402	-0.870974	-0.625660	0.747740	6.348160	-0.642393	0.049438	0.747190	-1.000000	-1.000000	-1.000000	-1.000000	-1.000000	-1.000000	-1.000000	52.000000	0.000000	-1.000000	-1.000000	556019.000000	1775788025.598433
-23343.705000	-20215.890000	6744.375000	281095.920000	304880.670000	280372.545000	-22150.755000	-35826.480000	1.445899	-0.399250	-1.339943	-1.357732	4.332581	-1.642093	1.229534	4.575496	-0.625660	0.747740	6.348160	-0.642393	0.049438	0.747190	-1.000000	-1.000000	-1.000000	-1.000000	-1.000000	-1.000000	-1.000000	52.000000	0.000000	-1.000000	-1.000000	556020.000000	1775788025.598458
-23342.355000	-20214.270000	6745.995000	281099.565000	304861.185000	280375.470000	-22149.765000	-35824.770000	5.270612	2.712436	0.660224	1.882459	1.593323	0.883809	3.379887	8.281563	-3.799740	5.432560	5.157880	-0.646544	0.054077	0.746031	-1.000000	-1.000000	-1.000000	-1.000000	-1.000000	-1.000000	-1.000000	52.000000	0.000000	-1.000000	-1.000000	556021.000000	1775788025.601562
-23341.860000	-20210.805000	6750.855000	281084.805000	304805.610000	280359.405000	-22144.725000	-35824.005000	6.584290	4.249098	1.974718	6.268916	1.935568	4.920151	3.947344	8.628335	-3.799740	5.432560	5.157880	-0.646544	0.054077	0.746031	-1.000000	-1.000000	-1.000000	-1.000000	-1.000000	-1.000000	-1.000000	52.000000	0.000000	-1.000000	-1.000000	556022.000000	1775788025.601587
-23347.530000	-20214.990000	6748.110000	281075.040000	304827.570000	280350.720000	-22138.065000	-35828.640000	4.983670	3.816373	2.452298	7.931757	-0.978674	6.778046	3.496358	5.859977	-3.799740	5.432560	5.157880	-0.646544	0.054077	0.746031	-1.000000	-1.000000	-1.000000	-1.000000	-1.000000	-1.000000	-1.000000	52.000000	0.000000	-1.000000	-1.000000	556023.000000	1775788025.607545
-23359.050000	-20224.890000	6740.280000	281094.480000	304889.085000	280370.700000	-22144.635000	-35840.205000	1.246372	1.704144	1.935815	4.932005	-5.617786	4.490788	2.747813	1.230139	-3.799740	5.432560	5.157880	-0.646544	0.054077	0.746031	-1.000000	-1.000000	-1.000000	-1.000000	-1.000000	-1.000000	-1.000000	52.000000	0.000000	-1.000000	-1.000000	556024.000000	1775788025.607566
-23350.815000	-20214.810000	6750.675000	281092.005000	304866.855000	280366.020000	-22143.060000	-35834.445000	-3.004939	-1.252661	0.443313	0.267072	-4.263639	0.747168	1.453205	-3.566562	-3.799740	5.432560	5.157880	-0.646544	0.054077	0.746031	-1.000000	-1.000000	-1.000000	-1.000000	-1.000000	-1.000000	-1.000000	52.000000	0.000000	-1.000000	-1.000000	556025.000000	1775788025.608878
-23356.620000	-20222.280000	6742.620000	281090.745000	304866.090000	280363.905000	-22150.800000	-35840.475000	-5.467623	-3.356483	-1.070210	-2.579956	2.653373	-1.506279	-0.710521	-6.422734	-3.799740	5.432560	5.157880	-0.646544	0.054077	0.746031	-1.000000	-1.000000	-1.000000	-1.000000	-1.000000	-1.000000	-1.000000	52.000000	0.000000	-1.000000	-1.000000	556026.000000	1775788025.608895
-23361.705000	-20228.580000	6735.690000	281088.630000	304862.805000	280362.330000	-22157.145000	-35845.830000	-4.993910	-3.631944	-1.909701	-3.299625	7.094103	-2.253246	-3.305045	-6.235433	-3.799740	5.432560	5.157880	-0.646544	0.054077	0.746031	-1.000000	-1.000000	-1.000000	-1.000000	-1.000000	-1.000000	-1.000000	52.000000	0.000000	-1.000000	-1.000000	556027.000000	1775788025.612961
-23361.885000	-20228.940000	6736.005000	281089.755000	304861.230000	280363.185000	-22159.485000	-35846.505000	-2.591425	-2.711881	-2.333072	-3.084282	4.928259	-2.457933	-5.334362	-3.825746	-3.799740	5.432560	5.157880	-0.646544	0.054077	0.746031	-1.000000	-1.000000	-1.000000	-1.000000	-1.000000	-1.000000	-1.000000	52.000000	0.000000	-1.000000	-1.000000	556028.000000	1775788025.612978
-23362.515000	-20229.750000	6735.240000	281094.435000	304861.950000	280366.200000	-22160.205000	-35845.605000	0.199603	-1.311404	-2.262834	-2.468384	-1.293296	-2.294831	-5.618871	-0.612710	-3.799740	5.432560	5.157880	-0.646544	0.054077	0.746031	-1.000000	-1.000000	-1.000000	-1.000000	-1.000000	-1.000000	-1.000000	52.000000	0.000000	-1.000000	-1.000000	556029.000000	1775788025.617689
-23368.050000	-20235.915000	6727.005000	281093.760000	304861.905000	280365.210000	-22166.505000	-35851.005000	2.362082	0.279226	-1.383310	-1.382692	-6.752176	-1.561861	-3.702977	2.294784	-3.799740	5.432560	5.157880	-0.646544	0.054077	0.746031	-1.000000	-1.000000	-1.000000	-1.000000	-1.000000	-1.000000	-1.000000	52.000000	0.000000	-1.000000	-1.000000	556030.000000	1775788025.617711
-23368.230000	-20235.510000	6726.420000	281092.950000	304859.700000	280363.320000	-22163.130000	-35851.545000	3.256627	1.587599	-0.107767	-0.092313	-8.342186	-0.505857	-0.431684	3.946122	-3.631880	4.959500	1.052940	-0.656920	0.047302	0.745298	-1.000000	-1.000000	-1.000000	-1.000000	-1.000000	-1.000000	-1.000000	52.000000	0.000000	-1.000000	-1.000000	556031.000000	1775788025.626915
-23362.605000	-20229.570000	6730.785000	281061.720000	304783.560000	280331.010000	-22159.215000	-35845.920000	3.003682	2.407160	1.105039	0.189915	-7.374376	-0.312532	2.953410	4.072398	-3.631880	4.959500	1.052940	-0.656920	0.047302	0.745298	-1.000000	-1.000000	-1.000000	-1.000000	-1.000000	-1.000000	-1.000000	52.000000	0.000000	-1.000000	-1.000000	556032.000000	1775788025.626934
-23353.920000	-20218.005000	6745.455000	281070.180000	304868.790000	280340.010000	-22157.055000	-35839.980000	2.587889	3.233906	2.595922	-1.548802	-6.365395	-1.975250	5.549006	3.454091	-3.631880	4.959500	1.052940	-0.656920	0.047302	0.745298	-1.000000	-1.000000	-1.000000	-1.000000	-1.000000	-1.000000	-1.000000	52.000000	0.000000	-1.000000	-1.000000	556033.000000	1775788025.626956
-23351.580000	-20215.935000	6746.310000	281056.545000	304802.595000	280325.205000	-22157.640000	-35837.910000	2.699977	4.326085	4.591889	-3.900542	-3.502891	-4.085829	6.533433	2.876910	-3.631880	4.959500	1.052940	-0.656920	0.047302	0.745298	-1.000000	-1.000000	-1.000000	-1.000000	-1.000000	-1.000000	-1.000000	52.000000	0.000000	-1.000000	-1.000000	556034.000000	1775788025.626967
-23355.135000	-20221.425000	6739.335000	281036.385000	304784.460000	280305.135000	-22160.205000	-35839.845000	2.682866	4.623736	5.759184	-4.581531	1.533544	-4.447077	5.292701	2.117087	-3.631880	4.959500	1.052940	-0.656920	0.047302	0.745298	-1.000000	-1.000000	-1.000000	-1.000000	-1.000000	-1.000000	-1.000000	52.000000	0.000000	-1.000000	-1.000000	556035.000000	1775788025.628998
-23353.290000	-20219.490000	6740.865000	281032.965000	304796.610000	280300.095000	-22157.640000	-35837.865000	1.342649	2.701476	4.183598	-3.314215	4.753574	-2.950845	2.155654	0.531283	-3.631880	4.959500	1.052940	-0.656920	0.047302	0.745298	-1.000000	-1.000000	-1.000000	-1.000000	-1.000000	-1.000000	-1.000000	52.000000	0.000000	-1.000000	-1.000000	556036.000000	1775788025.629010
-23352.750000	-20218.950000	6744.105000	281074.005000	304894.080000	280339.245000	-22152.240000	-35837.730000	-1.294626	-1.108389	0.102869	0.148026	7.637672	0.496726	-1.335955	-1.729198	-3.631880	4.959500	1.052940	-0.656920	0.047302	0.745298	-1.000000	-1.000000	-1.000000	-1.000000	-1.000000	-1.000000	-1.000000	52.000000	0.000000	-1.000000	-1.000000	556037.000000	1775788025.633936
-23356.395000	-20225.880000	6735.825000	281067.975000	304819.695000	280332.810000	-22143.915000	-35837.640000	-3.932256	-4.867241	-4.154156	6.681198	14.164837	6.758617	-3.310813	-3.702897	-3.631880	4.959500	1.052940	-0.656920	0.047302	0.745298	-1.000000	-1.000000	-1.000000	-1.000000	-1.000000	-1.000000	-1.000000	52.000000	0.000000	-1.000000	-1.000000	556038.000000	1775788025.633956
-23356.440000	-20225.565000	6737.130000	281069.280000	304854.435000	280334.745000	-22142.565000	-35837.415000	-5.375692	-6.953524	-6.666419	13.563287	19.064749	13.348810	-3.053559	-4.533480	-3.631880	4.959500	1.052940	-0.656920	0.047302	0.745298	-1.000000	-1.000000	-1.000000	-1.000000	-1.000000	-1.000000	-1.000000	52.000000	0.000000	-1.000000	-1.000000	556039.000000	1775788025.647003
-23355.765000	-20222.595000	6742.125000	281086.200000	304879.680000	280351.845000	-22148.370000	-35842.545000	-5.108094	-6.633124	-6.640907	15.579352	15.358689	15.362895	-1.708677	-4.081329	-3.631880	4.959500	1.052940	-0.656920	0.047302	0.745298	-1.000000	-1.000000	-1.000000	-1.000000	-1.000000	-1.000000	-1.000000	52.000000	0.000000	-1.000000	-1.000000	556040.000000	1775788025.647022
-23361.345000	-20226.105000	6739.920000	281081.790000	304866.675000	280347.705000	-22157.415000	-35855.820000	-3.329231	-4.000996	-4.118653	11.031704	5.172682	11.146589	-1.282880	-3.084757	-1.083460	5.341000	0.656180	-0.659483	0.042175	0.741819	-1.000000	-1.000000	-1.000000	-1.000000	-1.000000	-1.000000	-1.000000	52.000000	0.000000	-1.000000	-1.000000	556041.000000	1775788025.647044
-23358.870000	-20223.630000	6743.880000	281077.830000	304861.455000	280342.530000	-22156.065000	-35855.055000	-0.915044	-0.260506	-0.316846	2.142281	-6.425264	2.638924	-2.515929	-2.388233	-1.083460	5.341000	0.656180	-0.659483	0.042175	0.741819	-1.000000	-1.000000	-1.000000	-1.000000	-1.000000	-1.000000	-1.000000	52.000000	0.000000	-1.000000	-1.000000	556042.000000	1775788025.647055
-23352.840000	-20216.970000	6750.855000	281078.415000	304859.700000	280340.820000	-22150.485000	-35845.695000	1.404752	3.094323	3.099629	-7.617148	-16.352603	-7.066955	-3.855344	-1.491656	-1.083460	5.341000	0.656180	-0.659483	0.042175	0.741819	-1.000000	-1.000000	-1.000000	-1.000000	-1.000000	-1.000000	-1.000000	52.000000	0.000000	-1.000000	-1.000000	556043.000000	1775788025.647065
-23353.155000	-20216.115000	6751.620000	281079.180000	304855.425000	280338.840000	-22150.800000	-35842.725000	3.384391	5.233928	5.108551	-14.478323	-21.629961	-14.388905	-3.206815	0.887471	-1.083460	5.341000	0.656180	-0.659483	0.042175	0.741819	-1.000000	-1.000000	-1.000000	-1.000000	-1.000000	-1.000000	-1.000000	52.000000	0.000000	-1.000000	-1.000000	556044.000000	1775788025.647075
-23352.165000	-20217.330000	6749.235000	281083.230000	304857.090000	280340.370000	-22149.270000	-35837.055000	4.527807	5.653564	5.141957	-15.797236	-20.244572	-16.500876	-0.415837	4.497307	-1.083460	5.341000	0.656180	-0.659483	0.042175	0.741819	-1.000000	-1.000000	-1.000000	-1.000000	-1.000000	-1.000000	-1.000000	52.000000	0.000000	-1.000000	-1.000000	556045.000000	1775788025.654978
-23356.845000	-20228.130000	6735.780000	281083.680000	304857.810000	280339.425000	-22152.555000	-35835.075000	4.101821	3.889625	2.832899	-11.586923	-12.790193	-12.942854	2.713061	7.312724	-1.083460	5.341000	0.656180	-0.659483	0.042175	0.741819	-1.000000	-1.000000	-1.000000	-1.000000	-1.000000	-1.000000	-1.000000	52.000000	0.000000	-1.000000	-1.000000	556046.000000	1775788025.654999
-23362.425000	-20232.810000	6731.955000	281084.535000	304863.120000	280339.965000	-22158.630000	-35842.770000	1.911252	0.157469	-1.351252	-4.374770	-2.192898	-5.768864	4.173784	7.286750	-1.083460	5.341000	0.656180	-0.659483	0.042175	0.741819	-1.000000	-1.000000	-1.000000	-1.000000	-1.000000	-1.000000	-1.000000	52.000000	0.000000	-1.000000	-1.000000	556047.000000	1775788025.655022
-23361.525000	-20230.020000	6735.240000	281083.140000	304860.780000	280339.965000	-22159.215000	-35845.785000	-1.206607	-3.867315	-5.343407	2.427796	7.630191	1.790734	3.236018	3.770378	-1.083460	5.341000	0.656180	-0.659483	0.042175	0.741819	-1.000000	-1.000000	-1.000000	-1.000000	-1.000000	-1.000000	-1.000000	52.000000	0.000000	-1.000000	-1.000000	556048.000000	1775788025.655032
-23358.330000	-20226.195000	6740.010000	281077.380000	304858.260000	280333.890000	-22155.930000	-35843.445000	-3.505762	-5.642505	-6.370996	6.298646	13.287728	6.946979	0.995224	-1.663879	-1.083460	5.341000	0.656180	-0.659483	0.042175	0.741819	-1.000000	-1.000000	-1.000000	-1.000000	-1.000000	-1.000000	-1.000000	52.000000	0.000000	-1.000000	-1.000000	556049.000000	1775788025.663096
-23357.295000	-20225.070000	6742.035000	281072.880000	304859.655000	280328.670000	-22156.920000	-35843.805000	-3.555878	-3.940116	-3.457376	6.470182	13.405332	8.273656	-0.671169	-5.967042	-1.083460	5.341000	0.656180	-0.659483	0.042175	0.741819	-1.000000	-1.000000	-1.000000	-1.000000	-1.000000	-1.000000	-1.000000	52.000000	0.000000	-1.000000	-1.000000	556050.000000	1775788025.663118
-23354.730000	-20222.595000	6744.645000	281072.745000	304860.645000	280327.275000	-22155.930000	-35842.635000	-1.519286	-0.023053	1.544397	4.031058	9.298459	6.191857	-0.887061	-7.003439	0.763000	5.569900	1.464960	-0.661314	0.046387	0.735167	-1.000000	-1.000000	-1.000000	-1.000000	-1.000000	-1.000000	-1.000000	52.000000	0.000000	-1.000000	-1.000000	556051.000000	1775788025.667338
-23351.715000	-20219.490000	6747.750000	281072.610000	304856.235000	280324.755000	-22152.015000	-35838.585000	1.169310	3.643988	5.638081	1.185056	3.674633	2.686625	-0.068165	-4.832457	0.763000	5.569900	1.464960	-0.661314	0.046387	0.735167	-1.000000	-1.000000	-1.000000	-1.000000	-1.000000	-1.000000	-1.000000	52.000000	0.000000	-1.000000	-1.000000	556052.000000	1775788025.667359
-23349.870000	-20217.690000	6749.820000	281075.805000	304857.000000	280325.385000	-22149.450000	-35836.515000	3.039592	5.280815	6.885665	-0.244628	-1.239679	-0.097869	1.018267	-1.004335	0.763000	5.569900	1.464960	-0.661314	0.046387	0.735167	-1.000000	-1.000000	-1.000000	-1.000000	-1.000000	-1.000000	-1.000000	52.000000	0.000000	-1.000000	-1.000000	556053.000000	1775788025.667374
-23355.270000	-20223.315000	6744.780000	281076.660000	304839.495000	280324.305000	-22154.670000	-35842.050000	3.204624	4.368701	5.054691	0.148511	-4.502014	-1.115303	1.601575	2.400955	0.763000	5.569900	1.464960	-0.661314	0.046387	0.735167	-1.000000	-1.000000	-1.000000	-1.000000	-1.000000	-1.000000	-1.000000	52.000000	0.000000	-1.000000	-1.000000	556054.000000	1775788025.667380
-23351.760000	-20221.020000	6744.870000	281051.055000	304787.430000	280298.385000	-22153.680000	-35839.260000	1.593354	1.457584	1.148310	0.981643	-7.123721	-1.078467	1.032214	3.728125	0.763000	5.569900	1.464960	-0.661314	0.046387	0.735167	-1.000000	-1.000000	-1.000000	-1.000000	-1.000000	-1.000000	-1.000000	52.000000	0.000000	-1.000000	-1.000000	556055.000000	1775788025.674544
-23351.850000	-20220.840000	6746.760000	281075.625000	304886.520000	280323.045000	-22154.805000	-35840.880000	-0.773649	-1.913935	-2.961677	0.607819	-8.680405	-1.238463	-0.516824	2.840742	0.763000	5.569900	1.464960	-0.661314	0.046387	0.735167	-1.000000	-1.000000	-1.000000	-1.000000	-1.000000	-1.000000	-1.000000	52.000000	0.000000	-1.000000	-1.000000	556056.000000	1775788025.674565
-23352.165000	-20221.020000	6747.210000	281078.685000	304865.460000	280325.790000	-22156.020000	-35841.690000	-2.471621	-4.010188	-5.296792	-0.055346	-4.352024	-0.802428	-2.051808	0.906242	0.763000	5.569900	1.464960	-0.661314	0.046387	0.735167	-1.000000	-1.000000	-1.000000	-1.000000	-1.000000	-1.000000	-1.000000	52.000000	0.000000	-1.000000	-1.000000	556057.000000	1775788025.678433
-23347.440000	-20215.980000	6749.010000	281046.330000	304785.945000	280294.470000	-22150.710000	-35836.245000	-2.760331	-4.032611	-5.033707	0.214670	4.596004	0.868364	-2.607467	-0.733802	0.763000	5.569900	1.464960	-0.661314	0.046387	0.735167	-1.000000	-1.000000	-1.000000	-1.000000	-1.000000	-1.000000	-1.000000	52.000000	0.000000	-1.000000	-1.000000	556058.000000	1775788025.678457
-23348.655000	-20215.980000	6751.035000	281056.680000	304871.445000	280305.135000	-22151.115000	-35838.090000	-1.753959	-2.304648	-2.816136	-0.128765	8.847080	1.579178	-1.795492	-1.242161	0.763000	5.569900	1.464960	-0.661314	0.046387	0.735167	-1.000000	-1.000000	-1.000000	-1.000000	-1.000000	-1.000000	-1.000000	52.000000	0.000000	-1.000000	-1.000000	556059.000000	1775788025.678485
-23352.255000	-20219.220000	6749.505000	281069.595000	304873.335000	280315.530000	-22156.470000	-35842.230000	-0.303765	-0.028446	-0.057518	-1.411641	7.417817	0.566156	-0.227131	-0.827122	0.763000	5.569900	1.464960	-0.661314	0.046387	0.735167	-1.000000	-1.000000	-1.000000	-1.000000	-1.000000	-1.000000	-1.000000	52.000000	0.000000	-1.000000	-1.000000	556060.000000	1775788025.678496
-23345.865000	-20213.325000	6752.835000	281045.790000	304787.565000	280289.745000	-22155.210000	-35837.370000	0.636298	1.477121	1.918959	-1.610571	4.830406	-0.306649	0.852550	-0.343201	-3.631880	5.600420	-1.159760	-0.664000	0.051636	0.729307	-1.000000	-1.000000	-1.000000	-1.000000	-1.000000	-1.000000	-1.000000	52.000000	0.000000	-1.000000	-1.000000	556061.000000	1775788025.681456
-23351.040000	-20217.285000	6751.530000	281059.470000	304864.380000	280302.795000	-22160.790000	-35848.035000	0.888433	1.808171	2.552345	-0.584551	0.118914	-0.602467	0.841806	-0.247862	-3.631880	5.600420	-1.159760	-0.664000	0.051636	0.729307	-1.000000	-1.000000	-1.000000	-1.000000	-1.000000	-1.000000	-1.000000	52.000000	0.000000	-1.000000	-1.000000	556062.000000	1775788025.681468
-23363.820000	-20230.335000	6738.930000	281075.850000	304880.445000	280318.410000	-22170.780000	-35863.515000	0.436660	1.019134	1.793620	0.929301	-4.330377	-0.329753	-0.069634	-0.899184	-3.631880	5.600420	-1.159760	-0.664000	0.051636	0.729307	-1.000000	-1.000000	-1.000000	-1.000000	-1.000000	-1.000000	-1.000000	52.000000	0.000000	-1.000000	-1.000000	556063.000000	1775788025.694266
-23371.605000	-20236.365000	6732.495000	281074.545000	304865.685000	280317.465000	-22175.820000	-35870.130000	-1.040420	-0.930987	-0.308323	3.165511	-3.070255	1.415868	-1.463546	-2.530392	-3.631880	5.600420	-1.159760	-0.664000	0.051636	0.729307	-1.000000	-1.000000	-1.000000	-1.000000	-1.000000	-1.000000	-1.000000	52.000000	0.000000	-1.000000	-1.000000	556064.000000	1775788025.694290
-23369.580000	-20231.955000	6737.580000	281072.700000	304864.020000	280316.205000	-22164.660000	-35863.290000	-2.875008	-3.067145	-2.739015	4.976402	1.205184	3.666839	-2.259038	-3.861028	-3.631880	5.600420	-1.159760	-0.664000	0.051636	0.729307	-1.000000	-1.000000	-1.000000	-1.000000	-1.000000	-1.000000	-1.000000	52.000000	0.000000	-1.000000	-1.000000	556065.000000	1775788025.699775
-23356.170000	-20217.780000	6752.430000	281065.725000	304857.855000	280310.130000	-22149.270000	-35847.045000	-2.969796	-3.134044	-3.186891	4.078418	2.138472	3.819387	-0.745169	-2.419938	-3.631880	5.600420	-1.159760	-0.664000	0.051636	0.729307	-1.000000	-1.000000	-1.000000	-1.000000	-1.000000	-1.000000	-1.000000	52.000000	0.000000	-1.000000	-1.000000	556066.000000	1775788025.699795
-23349.735000	-20215.125000	6754.320000	281062.035000	304855.830000	280305.405000	-22145.220000	-35835.390000	0.146025	0.104034	-0.276838	0.033928	-1.494158	0.834462	3.362302	2.716718	-3.631880	5.600420	-1.159760	-0.664000	0.051636	0.729307	-1.000000	-1.000000	-1.000000	-1.000000	-1.000000	-1.000000	-1.000000	52.000000	0.000000	-1.000000	-1.000000	556067.000000	1775788025.699818
-23352.480000	-20225.160000	6740.235000	281032.695000	304788.555000	280273.770000	-22150.305000	-35835.345000	4.999334	4.600109	3.940952	-5.479117	-7.486443	-4.216618	7.341086	8.953757	-3.631880	5.600420	-1.159760	-0.664000	0.051636	0.729307	-1.000000	-1.000000	-1.000000	-1.000000	-1.000000	-1.000000	-1.000000	52.000000	0.000000	-1.000000	-1.000000	556068.000000	1775788025.699829
-23349.960000	-20221.020000	6744.915000	281045.790000	304871.715000	280286.010000	-22155.030000	-35839.845000	7.991598	6.591029	5.610278	-9.969039	-12.363313	-9.099985	7.500084	11.657958	-3.631880	5.600420	-1.159760	-0.664000	0.051636	0.729307	-1.000000	-1.000000	-1.000000	-1.000000	-1.000000	-1.000000	-1.000000	52.000000	0.000000	-1.000000	-1.000000	556069.000000	1775788025.699842
-23348.565000	-20212.785000	6753.600000	281043.720000	304813.890000	280281.330000	-22163.400000	-35844.795000	6.902638	4.825844	3.681346	-10.442648	-10.949351	-10.526427	2.798787	8.102575	-3.631880	5.600420	-1.159760	-0.664000	0.051636	0.729307	-1.000000	-1.000000	-1.000000	-1.000000	-1.000000	-1.000000	-1.000000	52.000000	0.000000	-1.000000	-1.000000	556070.000000	1775788025.699880
-23357.430000	-20221.425000	6744.060000	281044.395000	304849.305000	280281.780000	-22168.035000	-35851.005000	2.424797	1.208844	0.405819	-5.501182	-2.402859	-6.487401	-4.253666	-0.174311	-4.654300	3.616620	-1.831200	-0.668150	0.050476	0.727293	-1.000000	-1.000000	-1.000000	-1.000000	-1.000000	-1.000000	-1.000000	52.000000	0.000000	-1.000000	-1.000000	556071.000000	1775788025.702726
-23367.285000	-20233.170000	6731.730000	281064.645000	304885.260000	280303.155000	-22171.455000	-35855.280000	-3.372090	-2.498431	-2.519426	2.759898	8.665121	1.477668	-9.674162	-8.731084	-4.654300	3.616620	-1.831200	-0.668150	0.050476	0.727293	-1.000000	-1.000000	-1.000000	-1.000000	-1.000000	-1.000000	-1.000000	52.000000	0.000000	-1.000000	-1.000000	556072.000000	1775788025.702740
-23365.395000	-20233.035000	6731.055000	281064.870000	304871.130000	280302.075000	-22169.880000	-35852.355000	-8.157395	-5.642183	-4.889569	10.615478	17.866031	9.839942	-10.589953	-13.240351	-4.654300	3.616620	-1.831200	-0.668150	0.050476	0.727293	-1.000000	-1.000000	-1.000000	-1.000000	-1.000000	-1.000000	-1.000000	52.000000	0.000000	-1.000000	-1.000000	556073.000000	1775788025.706028
-23362.785000	-20229.030000	6735.915000	281058.480000	304865.775000	280295.100000	-22169.205000	-35851.005000	-9.568150	-7.012505	-5.849084	14.349994	20.356104	14.514508	-6.700930	-11.732694	-4.654300	3.616620	-1.831200	-0.668150	0.050476	0.727293	-1.000000	-1.000000	-1.000000	-1.000000	-1.000000	-1.000000	-1.000000	52.000000	0.000000	-1.000000	-1.000000	556074.000000	1775788025.706044
-23373.315000	-20241.315000	6724.395000	281053.080000	304873.020000	280289.070000	-22172.715000	-35861.265000	-6.807513	-5.519598	-4.325972	11.529358	13.124426	12.437995	-0.250341	-5.643834	-4.654300	3.616620	-1.831200	-0.668150	0.050476	0.727293	-1.000000	-1.000000	-1.000000	-1.000000	-1.000000	-1.000000	-1.000000	52.000000	0.000000	-1.000000	-1.000000	556075.000000	1775788025.710175
-23371.155000	-20239.515000	6725.880000	281051.415000	304871.400000	280285.695000	-22172.220000	-35861.130000	-1.760894	-2.056232	-1.061875	3.335327	-0.025672	4.418262	5.428747	1.204685	-4.654300	3.616620	-1.831200	-0.668150	0.050476	0.727293	-1.000000	-1.000000	-1.000000	-1.000000	-1.000000	-1.000000	-1.000000	52.000000	0.000000	-1.000000	-1.000000	556076.000000	1775788025.710192
-23362.290000	-20228.220000	6737.445000	281051.010000	304867.260000	280283.175000	-22170.465000	-35856.585000	3.096588	1.752119	2.394707	-5.707905	-11.891054	-5.027146	8.084979	5.789811	-4.654300	3.616620	-1.831200	-0.668150	0.050476	0.727293	-1.000000	-1.000000	-1.000000	-1.000000	-1.000000	-1.000000	-1.000000	52.000000	0.000000	-1.000000	-1.000000	556077.000000	1775788025.724245
-23360.895000	-20225.880000	6740.595000	281051.055000	304864.875000	280281.555000	-22171.230000	-35862.210000	6.614097	5.202092	5.390606	-11.039873	-17.712174	-11.088782	7.517412	7.483129	-4.654300	3.616620	-1.831200	-0.668150	0.050476	0.727293	-1.000000	-1.000000	-1.000000	-1.000000	-1.000000	-1.000000	-1.000000	52.000000	0.000000	-1.000000	-1.000000	556078.000000	1775788025.724261
-23363.280000	-20226.330000	6743.025000	281053.575000	304864.695000	280283.085000	-22174.245000	-35866.710000	8.073402	7.451743	7.261445	-10.825189	-16.589475	-11.530408	4.743491	6.662713	-4.654300	3.616620	-1.831200	-0.668150	0.050476	0.727293	-1.000000	-1.000000	-1.000000	-1.000000	-1.000000	-1.000000	-1.000000	52.000000	0.000000	-1.000000	-1.000000	556079.000000	1775788025.724278
-23358.735000	-20219.445000	6750.990000	281036.520000	304812.045000	280264.905000	-22165.065000	-35857.845000	6.829330	7.273597	6.984050	-6.592677	-11.240651	-7.525086	1.235780	4.123019	-4.654300	3.616620	-1.831200	-0.668150	0.050476	0.727293	-1.000000	-1.000000	-1.000000	-1.000000	-1.000000	-1.000000	-1.000000	52.000000	0.000000	-1.000000	-1.000000	556080.000000	1775788025.724288
-23351.580000	-20213.640000	6753.960000	281026.935000	304837.785000	280253.655000	-22157.370000	-35846.145000	3.548518	4.691115	4.474009	-1.931867	-5.798177	-2.589276	-1.255035	1.680262	-1.556520	0.640920	-0.015260	-0.669798	0.043701	0.727171	-1.000000	-1.000000	-1.000000	-1.000000	-1.000000	-1.000000	-1.000000	52.000000	0.000000	-1.000000	-1.000000	556081.000000	1775788025.724300
-23354.595000	-20223.585000	6743.250000	281046.960000	304893.855000	280273.770000	-22148.640000	-35838.990000	-0.055208	0.862424	0.481677	1.029061	0.195727	0.936458	-1.645524	0.963984	-1.556520	0.640920	-0.015260	-0.669798	0.043701	0.727171	-1.000000	-1.000000	-1.000000	-1.000000	-1.000000	-1.000000	-1.000000	52.000000	0.000000	-1.000000	-1.000000	556082.000000	1775788025.724310
-23362.020000	-20239.965000	6724.170000	281040.435000	304877.250000	280267.245000	-22145.625000	-35835.795000	-3.031458	-3.566902	-4.504825	3.281348	9.865182	3.787852	-0.528493	1.572922	-1.556520	0.640920	-0.015260	-0.669798	0.043701	0.727171	-1.000000	-1.000000	-1.000000	-1.000000	-1.000000	-1.000000	-1.000000	52.000000	0.000000	-1.000000	-1.000000	556083.000000	1775788025.731186
-23369.715000	-20245.635000	6718.230000	281036.295000	304877.205000	280261.755000	-22157.505000	-35847.270000	-5.481430	-8.101875	-9.640968	5.498518	19.413211	6.438887	0.130495	1.388831	-1.556520	0.640920	-0.015260	-0.669798	0.043701	0.727171	-1.000000	-1.000000	-1.000000	-1.000000	-1.000000	-1.000000	-1.000000	52.000000	0.000000	-1.000000	-1.000000	556084.000000	1775788025.731208
-23380.245000	-20252.205000	6711.570000	281035.800000	304886.385000	280258.785000	-22170.870000	-35863.695000	-7.327330	-10.954645	-12.601458	6.264718	20.941377	7.254134	-1.590723	-1.498497	-1.556520	0.640920	-0.015260	-0.669798	0.043701	0.727171	-1.000000	-1.000000	-1.000000	-1.000000	-1.000000	-1.000000	-1.000000	52.000000	0.000000	-1.000000	-1.000000	556085.000000	1775788025.731227
-23374.215000	-20243.295000	6722.055000	281038.230000	304878.600000	280257.480000	-22172.940000	-35863.290000	-7.644785	-9.818218	-10.774807	4.787233	12.725010	5.284746	-5.488120	-6.595804	-1.556520	0.640920	-0.015260	-0.669798	0.043701	0.727171	-1.000000	-1.000000	-1.000000	-1.000000	-1.000000	-1.000000	-1.000000	52.000000	0.000000	-1.000000	-1.000000	556086.000000	1775788025.731235
-23367.690000	-20233.755000	6732.585000	281043.450000	304876.080000	280260.225000	-22173.885000	-35861.310000	-5.115382	-3.920082	-3.562885	2.189311	-0.440618	1.782750	-8.624318	-10.425015	-1.556520	0.640920	-0.015260	-0.669798	0.043701	0.727171	-1.000000	-1.000000	-1.000000	-1.000000	-1.000000	-1.000000	-1.000000	52.000000	0.000000	-1.000000	-1.000000	556087.000000	1775788025.736672
-23368.860000	-20233.260000	6734.070000	281043.540000	304875.540000	280260.045000	-22176.180000	-35869.230000	0.244406	4.675999	6.381151	0.016592	-12.231175	-1.203707	-7.982604	-9.651418	-1.556520	0.640920	-0.015260	-0.669798	0.043701	0.727171	-1.000000	-1.000000	-1.000000	-1.000000	-1.000000	-1.000000	-1.000000	52.000000	0.000000	-1.000000	-1.000000	556088.000000	1775788025.736692
-23371.515000	-20236.230000	6730.470000	281043.765000	304879.410000	280259.415000	-22176.990000	-35872.020000	5.911565	11.553350	13.964650	-1.208324	-17.827785	-2.561908	-3.361953	-4.557339	-1.556520	0.640920	-0.015260	-0.669798	0.043701	0.727171	-1.000000	-1.000000	-1.000000	-1.000000	-1.000000	-1.000000	-1.000000	52.000000	0.000000	-1.000000	-1.000000	556089.000000	1775788025.736712
-23363.055000	-20227.185000	6739.560000	281041.830000	304874.235000	280257.075000	-22170.420000	-35861.535000	8.860347	13.098281	15.206114	-1.923874	-15.873204	-2.573917	2.942975	2.042462	-1.556520	0.640920	-0.015260	-0.669798	0.043701	0.727171	-1.000000	-1.000000	-1.000000	-1.000000	-1.000000	-1.000000	-1.000000	52.000000	0.000000	-1.000000	-1.000000	556090.000000	1775788025.736722
-23357.835000	-20221.605000	6745.185000	281034.855000	304872.300000	280250.505000	-22160.205000	-35851.680000	8.334094	9.440207	10.417151	-2.680830	-8.841138	-2.196098	8.394482	7.865526	3.006220	0.183120	-0.274680	-0.666746	0.038818	0.727781	-1.000000	-1.000000	-1.000000	-1.000000	-1.000000	-1.000000	-1.000000	52.000000	0.000000	-1.000000	-1.000000	556091.000000	1775788025.741044
-23356.935000	-20222.955000	6742.395000	281028.825000	304871.805000	280243.620000	-22154.310000	-35845.335000	5.532873	3.373164	2.969516	-3.660768	-0.823453	-2.219446	11.378317	11.585340	3.006220	0.183120	-0.274680	-0.666746	0.038818	0.727781	-1.000000	-1.000000	-1.000000	-1.000000	-1.000000	-1.000000	-1.000000	52.000000	0.000000	-1.000000	-1.000000	556092.000000	1775788025.741058
-23355.630000	-20227.545000	6736.815000	281028.285000	304881.480000	280242.090000	-22154.715000	-35839.170000	1.754521	-2.629538	-4.114097	-4.386843	5.342796	-2.637012	10.936302	12.040129	3.006220	0.183120	-0.274680	-0.666746	0.038818	0.727781	-1.000000	-1.000000	-1.000000	-1.000000	-1.000000	-1.000000	-1.000000	52.000000	0.000000	-1.000000	-1.000000	556093.000000	1775788025.749752
-23360.670000	-20236.365000	6727.005000	281026.305000	304883.325000	280238.895000	-22166.370000	-35848.665000	-2.142112	-7.373949	-9.340268	-3.904266	8.855482	-2.628276	6.633887	8.540403	3.006220	0.183120	-0.274680	-0.666746	0.038818	0.727781	-1.000000	-1.000000	-1.000000	-1.000000	-1.000000	-1.000000	-1.000000	52.000000	0.000000	-1.000000	-1.000000	556094.000000	1775788025.749765
-23363.055000	-20235.915000	6728.985000	281030.220000	304885.035000	280240.335000	-22164.705000	-35855.640000	-5.439021	-10.092134	-11.834420	-1.714994	9.688000	-1.455995	-0.573827	1.549722	3.006220	0.183120	-0.274680	-0.666746	0.038818	0.727781	-1.000000	-1.000000	-1.000000	-1.000000	-1.000000	-1.000000	-1.000000	52.000000	0.000000	-1.000000	-1.000000	556095.000000	1775788025.749781
-23365.845000	-20235.510000	6730.245000	281033.595000	304880.085000	280243.845000	-22160.610000	-35859.735000	-7.354995	-9.866315	-10.729897	1.661286	7.758347	0.834415	-7.574302	-6.699017	3.006220	0.183120	-0.274680	-0.666746	0.038818	0.727781	-1.000000	-1.000000	-1.000000	-1.000000	-1.000000	-1.000000	-1.000000	52.000000	0.000000	-1.000000	-1.000000	556096.000000	1775788025.749791
-23361.705000	-20226.195000	6741.585000	281034.810000	304877.655000	280245.240000	-22158.990000	-35857.665000	-7.110896	-6.239005	-5.858819	4.897055	3.475447	3.450774	-10.754097	-12.539490	3.006220	0.183120	-0.274680	-0.666746	0.038818	0.727781	-1.000000	-1.000000	-1.000000	-1.000000	-1.000000	-1.000000	-1.000000	52.000000	0.000000	-1.000000	-1.000000	556097.000000	1775788025.756105
-23360.130000	-20221.245000	6748.695000	281031.255000	304871.940000	280241.910000	-22162.005000	-35856.495000	-4.453880	-0.147624	1.365069	6.384903	-1.728252	5.096340	-9.049151	-13.049456	3.006220	0.183120	-0.274680	-0.666746	0.038818	0.727781	-1.000000	-1.000000	-1.000000	-1.000000	-1.000000	-1.000000	-1.000000	52.000000	0.000000	-1.000000	-1.000000	556098.000000	1775788025.756129
-23356.755000	-20217.555000	6753.420000	281028.645000	304877.475000	280238.985000	-22158.540000	-35850.645000	-0.238851	5.983389	8.076049	5.149224	-5.726468	4.622248	-4.395124	-8.124600	3.006220	0.183120	-0.274680	-0.666746	0.038818	0.727781	-1.000000	-1.000000	-1.000000	-1.000000	-1.000000	-1.000000	-1.000000	52.000000	0.000000	-1.000000	-1.000000	556099.000000	1775788025.764912
-23351.670000	-20216.340000	6751.620000	281007.135000	304815.645000	280212.525000	-22156.245000	-35844.210000	3.841810	9.366840	11.178137	1.360272	-7.803107	1.598499	0.540119	-0.332486	3.006220	0.183120	-0.274680	-0.666746	0.038818	0.727781	-1.000000	-1.000000	-1.000000	-1.000000	-1.000000	-1.000000	-1.000000	52.000000	0.000000	-1.000000	-1.000000	556100.000000	1775788025.764935
-23354.370000	-20219.940000	6747.120000	281018.250000	304865.550000	280211.220000	-22156.875000	-35847.270000	6.168647	8.507128	9.114047	-3.505325	-8.630783	-3.302139	3.977483	6.662666	5.707240	1.266580	1.556520	-0.663145	0.041016	0.728087	-1.000000	-1.000000	-1.000000	-1.000000	-1.000000	-1.000000	-1.000000	52.000000	0.000000	-1.000000	-1.000000	556101.000000	1775788025.764958
-23353.695000	-20217.600000	6750.720000	281039.985000	304901.955000	280231.380000	-22159.485000	-35849.340000	5.838980	4.084022	3.068831	-6.139694	-5.627349	-7.101587	5.073166	9.736850	5.707240	1.266580	1.556520	-0.663145	0.041016	0.728087	-1.000000	-1.000000	-1.000000	-1.000000	-1.000000	-1.000000	-1.000000	52.000000	0.000000	-1.000000	-1.000000	556102.000000	1775788025.764969
-23350.815000	-20213.730000	6754.635000	281043.675000	304876.035000	280232.370000	-22162.185000	-35847.315000	3.231244	-1.361677	-3.476838	-3.664294	3.557657	-5.969249	3.848416	7.995123	5.707240	1.266580	1.556520	-0.663145	0.041016	0.728087	-1.000000	-1.000000	-1.000000	-1.000000	-1.000000	-1.000000	-1.000000	52.000000	0.000000	-1.000000	-1.000000	556103.000000	1775788025.767961
-23356.890000	-20223.180000	6742.935000	281031.795000	304820.730000	280216.620000	-22162.365000	-35849.070000	-0.179901	-5.212844	-7.363950	2.037430	11.960822	-0.339893	1.286384	3.274436	5.707240	1.266580	1.556520	-0.663145	0.041016	0.728087	-1.000000	-1.000000	-1.000000	-1.000000	-1.000000	-1.000000	-1.000000	52.000000	0.000000	-1.000000	-1.000000	556104.000000	1775788025.767980
-23357.700000	-20225.565000	6737.265000	281017.845000	304787.070000	280191.645000	-22162.770000	-35848.260000	-3.037237	-6.637635	-8.082722	5.335607	9.343751	4.331929	-1.091099	-1.542687	5.707240	1.266580	1.556520	-0.663145	0.041016	0.728087	-1.000000	-1.000000	-1.000000	-1.000000	-1.000000	-1.000000	-1.000000	52.000000	0.000000	-1.000000	-1.000000	556105.000000	1775788025.784586
-23350.365000	-20219.130000	6744.285000	281019.150000	304811.010000	280123.110000	-22155.705000	-35841.870000	-4.403459	-5.946514	-6.573582	3.084638	-3.218093	2.578058	-2.016227	-4.301604	5.707240	1.266580	1.556520	-0.663145	0.041016	0.728087	-1.000000	-1.000000	-1.000000	-1.000000	-1.000000	-1.000000	-1.000000	52.000000	0.000000	-1.000000	-1.000000	556106.000000	1775788025.784609
-23353.110000	-20221.695000	6745.680000	281062.620000	304938.450000	280070.370000	-22153.095000	-35844.030000	-3.678876	-3.390835	-3.236335	-1.467462	-10.959770	-6.720908	-1.087159	-4.288056	5.707240	1.266580	1.556520	-0.663145	0.041016	0.728087	-1.000000	-1.000000	-1.000000	-1.000000	-1.000000	-1.000000	-1.000000	52.000000	0.000000	-1.000000	-1.000000	556107.000000	1775788025.784635
-23363.280000	-20234.925000	6731.505000	281065.500000	304899.345000	280206.675000	-22154.670000	-35851.320000	-1.617549	-0.065400	1.021252	-2.298428	-1.660103	-15.248272	0.842030	-2.576868	5.707240	1.266580	1.556520	-0.663145	0.041016	0.728087	-1.000000	-1.000000	-1.000000	-1.000000	-1.000000	-1.000000	-1.000000	52.000000	0.000000	-1.000000	-1.000000	556108.000000	1775788025.784645
-23363.640000	-20233.800000	6733.215000	281065.320000	304853.445000	280452.015000	-22154.580000	-35853.165000	-0.035005	2.090507	4.035907	1.468591	15.616937	-4.199162	2.121442	-1.101407	5.707240	1.266580	1.556520	-0.663145	0.041016	0.728087	-1.000000	-1.000000	-1.000000	-1.000000	-1.000000	-1.000000	-1.000000	52.000000	0.000000	-1.000000	-1.000000	556109.000000	1775788025.784658
-23364.720000	-20234.970000	6731.955000	281064.195000	304841.835000	280533.825000	-22156.020000	-35855.055000	0.354655	2.478706	4.652267	4.708197	20.075955	35.240318	1.744997	-0.693051	5.707240	1.266580	1.556520	-0.663145	0.041016	0.728087	-1.000000	-1.000000	-1.000000	-1.000000	-1.000000	-1.000000	-1.000000	52.000000	0.000000	-1.000000	-1.000000	556110.000000	1775788025.784673
-23365.665000	-20231.730000	6737.535000	281066.670000	304838.145000	280534.545000	-22163.040000	-35860.095000	0.364579	2.250100	3.851993	3.365378	5.893779	77.822936	-0.037332	-0.774542	5.814060	2.563680	4.394880	-0.667601	0.046265	0.729368	-1.000000	-1.000000	-1.000000	-1.000000	-1.000000	-1.000000	-1.000000	52.000000	0.000000	-1.000000	-1.000000	556111.000000	1775788025.784687
-23365.395000	-20227.230000	6744.645000	281072.430000	304835.310000	280537.110000	-22167.855000	-35861.895000	0.796835	2.531495	3.180452	-1.560305	-14.102030	81.811575	-2.333656	-0.623468	5.814060	2.563680	4.394880	-0.667601	0.046265	0.729368	-1.000000	-1.000000	-1.000000	-1.000000	-1.000000	-1.000000	-1.000000	52.000000	0.000000	-1.000000	-1.000000	556112.000000	1775788025.784697
-23366.745000	-20228.040000	6742.800000	281074.455000	304835.535000	280538.145000	-22169.430000	-35862.345000	1.630782	3.312459	3.134680	-6.266136	-25.056538	32.885282	-4.021650	0.048027	5.814060	2.563680	4.394880	-0.667601	0.046265	0.729368	-1.000000	-1.000000	-1.000000	-1.000000	-1.000000	-1.000000	-1.000000	52.000000	0.000000	-1.000000	-1.000000	556113.000000	1775788025.785142
-23370.525000	-20232.765000	6737.490000	281072.745000	304831.980000	280536.660000	-22174.830000	-35864.955000	2.247860	3.522847	2.737555	-7.988278	-21.679634	-42.787171	-4.116572	1.155706	5.814060	2.563680	4.394880	-0.667601	0.046265	0.729368	-1.000000	-1.000000	-1.000000	-1.000000	-1.000000	-1.000000	-1.000000	52.000000	0.000000	-1.000000	-1.000000	556114.000000	1775788025.785156
-23367.825000	-20233.755000	6734.430000	281071.170000	304838.595000	280536.885000	-22172.940000	-35859.870000	2.105756	2.143253	0.804103	-6.627071	-8.336983	-103.488421	-2.428477	2.336955	5.814060	2.563680	4.394880	-0.667601	0.046265	0.729368	-1.000000	-1.000000	-1.000000	-1.000000	-1.000000	-1.000000	-1.000000	52.000000	0.000000	-1.000000	-1.000000	556115.000000	1775788025.797286
-23363.235000	-20233.035000	6732.720000	281065.320000	304834.095000	280531.305000	-22170.780000	-35857.485000	1.447272	-0.472326	-2.327796	-3.735291	6.660794	-121.235801	0.451791	3.278766	5.814060	2.563680	4.394880	-0.667601	0.046265	0.729368	-1.000000	-1.000000	-1.000000	-1.000000	-1.000000	-1.000000	-1.000000	52.000000	0.000000	-1.000000	-1.000000	556116.000000	1775788025.797309
-23353.830000	-20221.605000	6744.285000	281063.655000	304833.645000	280528.155000	-22168.665000	-35854.695000	1.106522	-2.608046	-4.709291	-0.901513	16.298938	-93.932036	3.541354	3.728704	5.814060	2.563680	4.394880	-0.667601	0.046265	0.729368	-1.000000	-1.000000	-1.000000	-1.000000	-1.000000	-1.000000	-1.000000	52.000000	0.000000	-1.000000	-1.000000	556117.000000	1775788025.811047
-23356.395000	-20222.955000	6744.240000	281063.835000	304827.570000	280527.795000	-22162.005000	-35858.115000	1.375309	-2.751731	-4.463792	1.220125	17.566798	-39.713021	5.743088	3.234242	5.814060	2.563680	4.394880	-0.667601	0.046265	0.729368	-1.000000	-1.000000	-1.000000	-1.000000	-1.000000	-1.000000	-1.000000	52.000000	0.000000	-1.000000	-1.000000	556118.000000	1775788025.811069
-23366.565000	-20233.620000	6734.655000	281064.015000	304832.610000	280526.400000	-22159.260000	-35866.215000	1.201645	-1.455470	-1.991755	2.821084	11.949836	16.825668	6.313922	1.318523	5.814060	2.563680	4.394880	-0.667601	0.046265	0.729368	-1.000000	-1.000000	-1.000000	-1.000000	-1.000000	-1.000000	-1.000000	52.000000	0.000000	-1.000000	-1.000000	556119.000000	1775788025.811094
-23360.130000	-20224.800000	6744.915000	281069.100000	304835.895000	280528.920000	-22156.920000	-35857.935000	-0.526908	-0.601127	0.451932	4.174840	3.813667	56.498526	5.051171	-1.637851	5.814060	2.563680	4.394880	-0.667601	0.046265	0.729368	-1.000000	-1.000000	-1.000000	-1.000000	-1.000000	-1.000000	-1.000000	52.000000	0.000000	-1.000000	-1.000000	556120.000000	1775788025.811105
-23345.865000	-20208.465000	6763.545000	281072.565000	304827.120000	280532.340000	-22155.840000	-35841.915000	-2.703256	-0.366317	1.996036	5.230919	-2.807245	71.205196	2.247509	-3.640776	2.762060	2.014320	4.349100	-0.674254	0.048279	0.730467	-1.000000	-1.000000	-1.000000	-1.000000	-1.000000	-1.000000	-1.000000	52.000000	0.000000	-1.000000	-1.000000	556121.000000	1775788025.811118
-23339.025000	-20201.130000	6769.980000	281059.560000	304783.830000	280519.155000	-22155.120000	-35833.905000	-2.899309	0.744129	3.559917	5.315712	-7.241055	63.153915	-1.249390	-2.661005	2.762060	2.014320	4.349100	-0.674254	0.048279	0.730467	-1.000000	-1.000000	-1.000000	-1.000000	-1.000000	-1.000000	-1.000000	52.000000	0.000000	-1.000000	-1.000000	556122.000000	1775788025.811128
-23327.235000	-20193.930000	6772.545000	281042.550000	304777.170000	280502.370000	-22142.070000	-35817.930000	-0.554251	2.833872	4.931922	3.142596	-11.075776	40.270318	-4.050055	0.862683	2.762060	2.014320	4.349100	-0.674254	0.048279	0.730467	-1.000000	-1.000000	-1.000000	-1.000000	-1.000000	-1.000000	-1.000000	52.000000	0.000000	-1.000000	-1.000000	556123.000000	1775788025.811141
-23328.945000	-20199.780000	6768.900000	281056.815000	304833.510000	280518.435000	-22137.435000	-35814.600000	2.352091	3.929471	4.301044	-1.120279	-12.394424	12.852104	-4.761880	4.313079	2.762060	2.014320	4.349100	-0.674254	0.048279	0.730467	-1.000000	-1.000000	-1.000000	-1.000000	-1.000000	-1.000000	-1.000000	52.000000	0.000000	-1.000000	-1.000000	556124.000000	1775788025.811151
-23333.940000	-20210.445000	6755.535000	281026.980000	304772.940000	280488.510000	-22124.565000	-35815.185000	3.133999	2.014783	0.523981	-4.942944	-7.202132	-9.236996	-3.142283	4.964588	2.762060	2.014320	4.349100	-0.674254	0.048279	0.730467	-1.000000	-1.000000	-1.000000	-1.000000	-1.000000	-1.000000	-1.000000	52.000000	0.000000	-1.000000	-1.000000	556125.000000	1775788025.811163
-23343.345000	-20219.310000	6748.560000	281050.245000	304864.020000	280512.495000	-22130.055000	-35826.615000	0.476043	-2.932832	-5.411313	-6.070658	3.117006	-20.580447	-0.588597	1.568397	2.762060	2.014320	4.349100	-0.674254	0.048279	0.730467	-1.000000	-1.000000	-1.000000	-1.000000	-1.000000	-1.000000	-1.000000	52.000000	0.000000	-1.000000	-1.000000	556126.000000	1775788025.811173
-23349.015000	-20224.845000	6743.880000	281055.285000	304849.620000	280516.365000	-22140.720000	-35836.605000	-4.396871	-8.365036	-10.536668	-3.539253	13.989206	-20.648263	0.554095	-4.806533	2.762060	2.014320	4.349100	-0.674254	0.048279	0.730467	-1.000000	-1.000000	-1.000000	-1.000000	-1.000000	-1.000000	-1.000000	52.000000	0.000000	-1.000000	-1.000000	556127.000000	1775788025.814784
-23349.465000	-20225.115000	6744.015000	281058.255000	304839.135000	280516.455000	-22142.790000	-35837.595000	-8.378362	-10.760772	-11.624546	2.022248	20.298603	-12.542268	-1.111660	-10.924427	2.762060	2.014320	4.349100	-0.674254	0.048279	0.730467	-1.000000	-1.000000	-1.000000	-1.000000	-1.000000	-1.000000	-1.000000	52.000000	0.000000	-1.000000	-1.000000	556128.000000	1775788025.814802
-23352.165000	-20226.060000	6743.070000	281063.520000	304837.830000	280520.055000	-22144.455000	-35840.520000	-8.670107	-8.204653	-7.556831	7.435493	16.532201	-2.343508	-4.224523	-13.018942	2.762060	2.014320	4.349100	-0.674254	0.048279	0.730467	-1.000000	-1.000000	-1.000000	-1.000000	-1.000000	-1.000000	-1.000000	52.000000	0.000000	-1.000000	-1.000000	556129.000000	1775788025.828669
-23352.480000	-20222.505000	6748.695000	281063.700000	304832.295000	280520.145000	-22143.555000	-35842.320000	-4.829977	-1.685559	-0.082416	9.286247	3.263316	4.416005	-5.820916	-9.481253	2.762060	2.014320	4.349100	-0.674254	0.048279	0.730467	-1.000000	-1.000000	-1.000000	-1.000000	-1.000000	-1.000000	-1.000000	52.000000	0.000000	-1.000000	-1.000000	556130.000000	1775788025.828692
-23343.885000	-20209.455000	6763.770000	281063.475000	304828.830000	280520.055000	-22143.195000	-35836.740000	1.303654	5.948838	7.731845	6.606349	-11.903288	5.793443	-4.204973	-1.925048	-0.915600	3.555580	3.204600	-0.672850	0.047058	0.730528	-1.000000	-1.000000	-1.000000	-1.000000	-1.000000	-1.000000	-1.000000	52.000000	0.000000	-1.000000	-1.000000	556131.000000	1775788025.828714
-23340.240000	-20205.135000	6766.470000	281058.345000	304823.970000	280515.420000	-22145.670000	-35835.210000	7.239767	11.831086	13.190335	0.848578	-21.168032	2.959384	-0.157625	6.324461	-0.915600	3.555580	3.204600	-0.672850	0.047058	0.730528	-1.000000	-1.000000	-1.000000	-1.000000	-1.000000	-1.000000	-1.000000	52.000000	0.000000	-1.000000	-1.000000	556132.000000	1775788025.828725
-23343.075000	-20208.420000	6761.160000	281052.720000	304835.355000	280510.560000	-22146.930000	-35838.945000	10.681237	13.675120	14.140009	-5.380023	-20.930591	-1.560637	3.995271	11.922252	-0.915600	3.555580	3.204600	-0.672850	0.047058	0.730528	-1.000000	-1.000000	-1.000000	-1.000000	-1.000000	-1.000000	-1.000000	52.000000	0.000000	-1.000000	-1.000000	556133.000000	1775788025.828738
-23344.380000	-20210.490000	6756.480000	281030.085000	304769.610000	280485.900000	-22147.740000	-35839.215000	10.042308	10.313784	9.546765	-9.945200	-13.483276	-5.679626	6.233169	12.732083	-0.915600	3.555580	3.204600	-0.672850	0.047058	0.730528	-1.000000	-1.000000	-1.000000	-1.000000	-1.000000	-1.000000	-1.000000	52.000000	0.000000	-1.000000	-1.000000	556134.000000	1775788025.828748
-23348.520000	-20213.595000	6753.375000	281030.985000	304827.840000	280486.755000	-22153.365000	-35844.615000	5.543915	2.942470	1.038139	-11.794242	-4.438987	-8.284995	5.918704	8.903401	-0.915600	3.555580	3.204600	-0.672850	0.047058	0.730528	-1.000000	-1.000000	-1.000000	-1.000000	-1.000000	-1.000000	-1.000000	52.000000	0.000000	-1.000000	-1.000000	556135.000000	1775788025.829528
-23352.480000	-20213.010000	6758.280000	281052.540000	304856.190000	280507.725000	-22157.955000	-35851.050000	-0.683893	-5.047548	-7.284359	-9.653176	4.786093	-7.714009	3.565603	2.553383	-0.915600	3.555580	3.204600	-0.672850	0.047058	0.730528	-1.000000	-1.000000	-1.000000	-1.000000	-1.000000	-1.000000	-1.000000	52.000000	0.000000	-1.000000	-1.000000	556136.000000	1775788025.829542
-23366.565000	-20230.155000	6739.380000	281057.265000	304844.670000	280510.695000	-22162.635000	-35859.645000	-6.113956	-10.398171	-11.745923	-2.509281	15.147241	-2.292441	0.347971	-3.690783	-0.915600	3.555580	3.204600	-0.672850	0.047058	0.730528	-1.000000	-1.000000	-1.000000	-1.000000	-1.000000	-1.000000	-1.000000	52.000000	0.000000	-1.000000	-1.000000	556137.000000	1775788025.833208
-23369.040000	-20237.490000	6727.860000	281055.960000	304842.150000	280509.255000	-22165.290000	-35858.070000	-9.112258	-12.024038	-11.853471	7.093039	21.885869	6.003528	-2.306587	-7.622941	-0.915600	3.555580	3.204600	-0.672850	0.047058	0.730528	-1.000000	-1.000000	-1.000000	-1.000000	-1.000000	-1.000000	-1.000000	52.000000	0.000000	-1.000000	-1.000000	556138.000000	1775788025.833224
-23356.395000	-20225.160000	6740.820000	281057.535000	304839.720000	280510.380000	-22164.480000	-35848.395000	-8.588630	-10.062677	-8.900251	13.587805	18.988147	11.918442	-3.280668	-7.694487	-0.915600	3.555580	3.204600	-0.672850	0.047058	0.730528	-1.000000	-1.000000	-1.000000	-1.000000	-1.000000	-1.000000	-1.000000	52.000000	0.000000	-1.000000	-1.000000	556139.000000	1775788025.842494
-23351.535000	-20221.515000	6744.510000	281055.240000	304833.060000	280506.960000	-22154.310000	-35842.545000	-4.012521	-4.521289	-3.311151	13.348220	7.319638	11.842820	-2.093213	-3.712142	-0.915600	3.555580	3.204600	-0.672850	0.047058	0.730528	-1.000000	-1.000000	-1.000000	-1.000000	-1.000000	-1.000000	-1.000000	52.000000	0.000000	-1.000000	-1.000000	556140.000000	1775788025.842510
-23359.365000	-20229.480000	6737.220000	281050.155000	304841.430000	280501.245000	-22155.255000	-35847.045000	2.753163	3.014309	3.824002	7.136966	-6.470713	6.253055	0.796881	2.117458	-4.501700	4.867940	1.770160	-0.670225	0.042297	0.730284	-1.000000	-1.000000	-1.000000	-1.000000	-1.000000	-1.000000	-1.000000	52.000000	0.000000	-1.000000	-1.000000	556141.000000	1775788025.842531
-23356.395000	-20223.090000	6744.780000	281045.070000	304839.540000	280496.385000	-22159.080000	-35846.280000	7.696742	8.871743	9.399123	-1.463811	-15.318975	-1.635825	3.578800	6.109734	-4.501700	4.867940	1.770160	-0.670225	0.042297	0.730284	-1.000000	-1.000000	-1.000000	-1.000000	-1.000000	-1.000000	-1.000000	52.000000	0.000000	-1.000000	-1.000000	556142.000000	1775788025.842542
-23350.995000	-20216.160000	6751.980000	281044.800000	304838.505000	280494.180000	-22153.815000	-35843.220000	8.364326	10.625721	11.145295	-8.411917	-16.168018	-8.034666	4.234356	6.149267	-4.501700	4.867940	1.770160	-0.670225	0.042297	0.730284	-1.000000	-1.000000	-1.000000	-1.000000	-1.000000	-1.000000	-1.000000	52.000000	0.000000	-1.000000	-1.000000	556143.000000	1775788025.849033
-23352.120000	-20218.905000	6748.605000	281044.035000	304836.885000	280490.760000	-22150.620000	-35843.625000	5.592358	8.676387	9.246250	-10.945965	-10.864952	-10.376052	2.606281	3.109234	-4.501700	4.867940	1.770160	-0.670225	0.042297	0.730284	-1.000000	-1.000000	-1.000000	-1.000000	-1.000000	-1.000000	-1.000000	52.000000	0.000000	-1.000000	-1.000000	556144.000000	1775788025.849064
-23354.955000	-20221.830000	6745.230000	281047.230000	304836.210000	280491.750000	-22152.195000	-35846.640000	1.439765	4.398642	4.772212	-8.612471	-3.441602	-8.300085	0.108541	-0.809983	-4.501700	4.867940	1.770160	-0.670225	0.042297	0.730284	-1.000000	-1.000000	-1.000000	-1.000000	-1.000000	-1.000000	-1.000000	52.000000	0.000000	-1.000000	-1.000000	556145.000000	1775788025.851594
-23361.030000	-20229.030000	6736.995000	281049.930000	304840.305000	280494.855000	-22152.195000	-35851.095000	-2.611962	-0.931059	-1.073774	-3.122167	2.825887	-3.289808	-2.087864	-3.963772	-4.501700	4.867940	1.770160	-0.670225	0.042297	0.730284	-1.000000	-1.000000	-1.000000	-1.000000	-1.000000	-1.000000	-1.000000	52.000000	0.000000	-1.000000	-1.000000	556146.000000	1775788025.851620
-23356.890000	-20226.690000	6737.355000	281051.370000	304843.005000	280496.025000	-22146.975000	-35845.740000	-5.487781	-5.698308	-6.486214	2.763916	6.529878	2.370631	-3.392944	-5.443860	-4.501700	4.867940	1.770160	-0.670225	0.042297	0.730284	-1.000000	-1.000000	-1.000000	-1.000000	-1.000000	-1.000000	-1.000000	52.000000	0.000000	-1.000000	-1.000000	556147.000000	1775788025.856030
-23342.130000	-20212.605000	6749.550000	281029.815000	304771.635000	280472.580000	-22143.510000	-35832.870000	-5.897140	-7.780563	-9.082506	6.152520	6.329599	6.018439	-3.355352	-4.505588	-4.501700	4.867940	1.770160	-0.670225	0.042297	0.730284	-1.000000	-1.000000	-1.000000	-1.000000	-1.000000	-1.000000	-1.000000	52.000000	0.000000	-1.000000	-1.000000	556148.000000	1775788025.856044
-23331.105000	-20198.520000	6765.615000	281024.595000	304817.535000	280466.730000	-22143.555000	-35825.535000	-2.990213	-5.601688	-7.017871	5.145112	1.414800	5.488961	-2.067709	-1.024262	-4.501700	4.867940	1.770160	-0.670225	0.042297	0.730284	-1.000000	-1.000000	-1.000000	-1.000000	-1.000000	-1.000000	-1.000000	52.000000	0.000000	-1.000000	-1.000000	556149.000000	1775788025.857066
-23335.965000	-20202.255000	6765.075000	281042.370000	304854.885000	280482.435000	-22149.540000	-35831.520000	1.812508	-0.229176	-1.071220	1.170514	-2.992206	1.799848	-0.575350	3.217903	-4.501700	4.867940	1.770160	-0.670225	0.042297	0.730284	-1.000000	-1.000000	-1.000000	-1.000000	-1.000000	-1.000000	-1.000000	52.000000	0.000000	-1.000000	-1.000000	556150.000000	1775788025.857081
-23345.685000	-20214.450000	6752.025000	281039.760000	304838.820000	280477.530000	-22155.345000	-35840.295000	4.821840	4.234094	4.608409	-1.525851	-0.104220	-1.006080	-0.146944	5.026247	-4.318580	5.127360	0.869820	-0.665892	0.037598	0.730101	-1.000000	-1.000000	-1.000000	-1.000000	-1.000000	-1.000000	-1.000000	52.000000	0.000000	-1.000000	-1.000000	556151.000000	1775788025.869999
-23349.375000	-20219.940000	6746.175000	281036.880000	304836.165000	280471.095000	-22156.380000	-35847.495000	3.366042	4.051753	5.593211	-0.864670	7.236973	-0.817658	-0.982567	2.648176	-4.318580	5.127360	0.869820	-0.665892	0.037598	0.730101	-1.000000	-1.000000	-1.000000	-1.000000	-1.000000	-1.000000	-1.000000	52.000000	0.000000	-1.000000	-1.000000	556152.000000	1775788025.870023
-23351.355000	-20220.480000	6746.355000	281041.470000	304841.385000	280472.220000	-22155.435000	-35851.275000	-1.380748	-0.340305	1.538770	1.329598	10.635963	0.736730	-1.885216	-2.332864	-4.318580	5.127360	0.869820	-0.665892	0.037598	0.730101	-1.000000	-1.000000	-1.000000	-1.000000	-1.000000	-1.000000	-1.000000	52.000000	0.000000	-1.000000	-1.000000	556153.000000	1775788025.870050
-23354.055000	-20221.290000	6744.060000	281044.305000	304838.010000	280474.785000	-22157.460000	-35854.425000	-5.701107	-4.978368	-3.729309	2.769744	7.032788	1.713831	-1.534184	-6.376664	-4.318580	5.127360	0.869820	-0.665892	0.037598	0.730101	-1.000000	-1.000000	-1.000000	-1.000000	-1.000000	-1.000000	-1.000000	52.000000	0.000000	-1.000000	-1.000000	556154.000000	1775788025.870061
-23348.340000	-20213.865000	6753.015000	281042.055000	304831.305000	280471.905000	-22152.645000	-35847.180000	-6.635784	-6.203442	-6.085493	2.671518	-0.666643	1.729614	0.234296	-6.717264	-4.318580	5.127360	0.869820	-0.665892	0.037598	0.730101	-1.000000	-1.000000	-1.000000	-1.000000	-1.000000	-1.000000	-1.000000	52.000000	0.000000	-1.000000	-1.000000	556155.000000	1775788025.870074
-23341.365000	-20206.755000	6758.910000	281013.345000	304755.885000	280441.170000	-22141.890000	-35833.860000	-3.576105	-3.111949	-3.988058	0.645465	-9.381954	0.472104	2.752873	-2.745447	-4.318580	5.127360	0.869820	-0.665892	0.037598	0.730101	-1.000000	-1.000000	-1.000000	-1.000000	-1.000000	-1.000000	-1.000000	52.000000	0.000000	-1.000000	-1.000000	556156.000000	1775788025.870084
-23342.355000	-20211.795000	6751.710000	281002.185000	304778.025000	280423.035000	-22138.065000	-35825.715000	1.755631	2.237274	0.865459	-3.605201	-17.370658	-2.911025	5.170600	3.861721	-4.318580	5.127360	0.869820	-0.665892	0.037598	0.730101	-1.000000	-1.000000	-1.000000	-1.000000	-1.000000	-1.000000	-1.000000	52.000000	0.000000	-1.000000	-1.000000	556157.000000	1775788025.872792
-23346.180000	-20218.590000	6746.895000	281028.330000	304868.700000	280440.720000	-22146.480000	-35830.080000	6.141782	6.107042	4.733872	-7.789195	-18.415080	-6.992709	6.101034	9.499121	-4.318580	5.127360	0.869820	-0.665892	0.037598	0.730101	-1.000000	-1.000000	-1.000000	-1.000000	-1.000000	-1.000000	-1.000000	52.000000	0.000000	-1.000000	-1.000000	556158.000000	1775788025.872803
-23353.830000	-20221.245000	6747.165000	281037.870000	304865.505000	280448.910000	-22160.070000	-35848.890000	6.880017	5.920400	5.046309	-7.129865	-5.214304	-7.228019	3.895802	10.175493	-4.318580	5.127360	0.869820	-0.665892	0.037598	0.730101	-1.000000	-1.000000	-1.000000	-1.000000	-1.000000	-1.000000	-1.000000	52.000000	0.000000	-1.000000	-1.000000	556159.000000	1775788025.876907
-23355.900000	-20221.110000	6746.355000	281033.145000	304850.745000	280442.430000	-22163.580000	-35857.845000	3.746670	2.391588	2.467789	-0.413439	15.970169	-1.493729	-1.397211	4.433514	-4.318580	5.127360	0.869820	-0.665892	0.037598	0.730101	-1.000000	-1.000000	-1.000000	-1.000000	-1.000000	-1.000000	-1.000000	52.000000	0.000000	-1.000000	-1.000000	556160.000000	1775788025.876922
-23356.305000	-20222.325000	6743.835000	281031.975000	304849.080000	280439.865000	-22163.445000	-35856.630000	-0.911776	-1.562866	-0.595606	7.316199	28.080387	6.287378	-6.886883	-4.524502	-2.121140	4.806900	1.495480	-0.658262	0.038635	0.732786	-1.000000	-1.000000	-1.000000	-1.000000	-1.000000	-1.000000	-1.000000	52.000000	0.000000	-1.000000	-1.000000	556161.000000	1775788025.890059
-23356.260000	-20221.470000	6745.815000	281035.260000	304847.460000	280440.765000	-22158.720000	-35851.860000	-4.079063	-3.531756	-2.337541	10.392974	22.300386	10.556802	-8.833138	-10.679148	-2.121140	4.806900	1.495480	-0.658262	0.038635	0.732786	-1.000000	-1.000000	-1.000000	-1.000000	-1.000000	-1.000000	-1.000000	52.000000	0.000000	-1.000000	-1.000000	556162.000000	1775788025.890081
