Channel1	Channel2	Channel3	Channel4	Channel5	Channel6	Channel7	Channel8	FilteredChannel1	FilteredChannel2	FilteredChannel3	FilteredChannel4	FilteredChannel5	FilteredChannel6	FilteredChannel7	FilteredChannel8	GyroX	GyroY	GyroZ	AccX	AccY	AccZ	PPG1	PPG2	rawPPG1	rawPPG2	rawPPG3	Hr	Hrv	Battery	Trigger	PhysicalTrigger	AutoTrigger	NumMeasurements	Timestamp
-19721.475000	-15863.535000	8538.795000	295187.805000	305255.160000	292598.010000	-10743.885000	-32727.555000	2.124744	-0.510698	-2.693010	-5.011935	-4.953901	-4.331013	7.520737	9.683297	-2.319520	2.090620	0.289940	-0.613341	-0.049438	0.775877	-1.000000	-1.000000	-1.000000	-1.000000	-1.000000	-1.000000	-1.000000	52.000000	0.000000	-1.000000	-1.000000	406431.000000	1775787726.311062
-19735.695000	-15866.865000	8542.170000	295177.455000	305245.170000	292586.985000	-10743.210000	-32732.820000	2.482201	0.004405	-0.745883	10.929521	11.337796	11.650649	5.582874	8.926964	-2.319520	2.090620	0.289940	-0.613341	-0.049438	0.775877	-1.000000	-1.000000	-1.000000	-1.000000	-1.000000	-1.000000	-1.000000	52.000000	0.000000	-1.000000	-1.000000	406432.000000	1775787726.311089
-19744.605000	-15872.445000	8541.945000	295162.605000	305230.005000	292571.280000	-10736.640000	-32733.810000	2.777497	1.721971	2.715881	25.058797	25.695301	25.430716	1.281221	4.735543	-2.319520	2.090620	0.289940	-0.613341	-0.049438	0.775877	-1.000000	-1.000000	-1.000000	-1.000000	-1.000000	-1.000000	-1.000000	52.000000	0.000000	-1.000000	-1.000000	406433.000000	1775787726.311117
-19733.895000	-15878.565000	8531.685000	295136.145000	305202.825000	292543.965000	-10740.915000	-32738.445000	1.587892	2.604561	5.253953	24.630408	25.186258	24.441327	-2.677155	-1.432233	-2.319520	2.090620	0.289940	-0.613341	-0.049438	0.775877	-1.000000	-1.000000	-1.000000	-1.000000	-1.000000	-1.000000	-1.000000	52.000000	0.000000	-1.000000	-1.000000	406434.000000	1775787726.311129
-19714.545000	-15860.115000	8540.910000	295092.540000	305158.545000	292500.495000	-10743.930000	-32734.170000	0.468169	2.161107	5.102298	6.954671	7.087243	6.292055	-4.685134	-6.637420	-2.319520	2.090620	0.289940	-0.613341	-0.049438	0.775877	-1.000000	-1.000000	-1.000000	-1.000000	-1.000000	-1.000000	-1.000000	52.000000	0.000000	-1.000000	-1.000000	406435.000000	1775787726.317581
-19716.525000	-15860.025000	8542.260000	295108.020000	305174.160000	292516.470000	-10748.205000	-32734.215000	1.526271	1.848737	2.912105	-17.624988	-18.044665	-18.396876	-4.957232	-8.470024	-2.319520	2.090620	0.289940	-0.613341	-0.049438	0.775877	-1.000000	-1.000000	-1.000000	-1.000000	-1.000000	-1.000000	-1.000000	52.000000	0.000000	-1.000000	-1.000000	406436.000000	1775787726.317605
-19722.240000	-15861.915000	8543.700000	295178.715000	305245.935000	292587.390000	-10744.290000	-32736.375000	3.543242	2.363409	0.635502	-31.946005	-32.695051	-32.384519	-4.093795	-6.591051	-2.319520	2.090620	0.289940	-0.613341	-0.049438	0.775877	-1.000000	-1.000000	-1.000000	-1.000000	-1.000000	-1.000000	-1.000000	52.000000	0.000000	-1.000000	-1.000000	406437.000000	1775787726.322730
-19727.955000	-15871.680000	8535.060000	295169.760000	305237.655000	292578.795000	-10752.165000	-32742.720000	3.262927	2.219712	-0.921459	-24.699529	-25.315646	-24.559466	-2.397370	-2.851624	-2.319520	2.090620	0.289940	-0.613341	-0.049438	0.775877	-1.000000	-1.000000	-1.000000	-1.000000	-1.000000	-1.000000	-1.000000	52.000000	0.000000	-1.000000	-1.000000	406438.000000	1775787726.322762
-19724.355000	-15867.630000	8539.290000	295156.080000	305223.975000	292565.295000	-10750.905000	-32737.590000	-0.237577	0.158780	-2.118344	-2.634759	-2.747687	-2.001093	-0.395689	0.485490	-2.319520	2.090620	0.289940	-0.613341	-0.049438	0.775877	-1.000000	-1.000000	-1.000000	-1.000000	-1.000000	-1.000000	-1.000000	52.000000	0.000000	-1.000000	-1.000000	406439.000000	1775787726.324116
-19712.880000	-15854.220000	8550.180000	295150.770000	305218.260000	292559.445000	-10735.245000	-32724.810000	-4.303143	-2.507804	-2.706801	15.960108	16.349014	16.751376	1.587087	2.770940	-2.319520	2.090620	0.289940	-0.613341	-0.049438	0.775877	-1.000000	-1.000000	-1.000000	-1.000000	-1.000000	-1.000000	-1.000000	52.000000	0.000000	-1.000000	-1.000000	406440.000000	1775787726.324139
-19712.655000	-15851.205000	8555.985000	295152.030000	305219.295000	292559.805000	-10727.685000	-32722.740000	-5.661550	-3.228809	-1.734023	19.869083	20.421951	20.408501	3.918613	4.581411	-0.961380	2.502640	-0.518840	-0.614500	-0.048706	0.775999	-1.000000	-1.000000	-1.000000	-1.000000	-1.000000	-1.000000	-1.000000	52.000000	0.000000	-1.000000	-1.000000	406441.000000	1775787726.336881
-19718.730000	-15857.640000	8550.765000	295149.735000	305216.865000	292556.790000	-10733.985000	-32730.480000	-3.934141	-1.641335	0.451521	11.456422	11.790474	11.455920	6.030627	5.505212	-0.961380	2.502640	-0.518840	-0.614500	-0.048706	0.775999	-1.000000	-1.000000	-1.000000	-1.000000	-1.000000	-1.000000	-1.000000	52.000000	0.000000	-1.000000	-1.000000	406442.000000	1775787726.336906
-19722.150000	-15861.555000	8546.850000	295156.305000	305223.435000	292563.360000	-10735.245000	-32732.775000	-1.502493	-0.032058	1.775478	-0.332751	-0.382253	-0.878051	5.854502	4.100666	-0.961380	2.502640	-0.518840	-0.614500	-0.048706	0.775999	-1.000000	-1.000000	-1.000000	-1.000000	-1.000000	-1.000000	-1.000000	52.000000	0.000000	-1.000000	-1.000000	406443.000000	1775787726.336938
-19723.095000	-15862.140000	8546.445000	295150.770000	305218.080000	292558.095000	-10737.495000	-32733.495000	-0.344295	-0.208063	0.820117	-8.063786	-8.392576	-8.849869	2.419445	0.345667	-0.961380	2.502640	-0.518840	-0.614500	-0.048706	0.775999	-1.000000	-1.000000	-1.000000	-1.000000	-1.000000	-1.000000	-1.000000	52.000000	0.000000	-1.000000	-1.000000	406444.000000	1775787726.336951
-19728.540000	-15866.505000	8544.330000	295156.035000	305223.660000	292563.270000	-10743.210000	-32738.355000	-0.433036	-1.664168	-1.564398	-9.364451	-9.723093	-9.959599	-2.670232	-3.731390	-0.961380	2.502640	-0.518840	-0.614500	-0.048706	0.775999	-1.000000	-1.000000	-1.000000	-1.000000	-1.000000	-1.000000	-1.000000	52.000000	0.000000	-1.000000	-1.000000	406445.000000	1775787726.336965
-19731.645000	-15871.635000	8540.145000	295157.745000	305225.910000	292565.745000	-10742.085000	-32738.445000	-0.811511	-2.894399	-3.489833	-5.882591	-6.042832	-5.990474	-6.731936	-5.979773	-0.961380	2.502640	-0.518840	-0.614500	-0.048706	0.775999	-1.000000	-1.000000	-1.000000	-1.000000	-1.000000	-1.000000	-1.000000	52.000000	0.000000	-1.000000	-1.000000	406446.000000	1775787726.336979
-19727.370000	-15872.490000	8538.030000	295150.410000	305218.530000	292558.410000	-10739.970000	-32736.195000	-0.618764	-2.945328	-3.831827	-0.830859	-0.705267	-0.424755	-7.728574	-5.467128	-0.961380	2.502640	-0.518840	-0.614500	-0.048706	0.775999	-1.000000	-1.000000	-1.000000	-1.000000	-1.000000	-1.000000	-1.000000	52.000000	0.000000	-1.000000	-1.000000	406447.000000	1775787726.342787
-19719.810000	-15861.690000	8543.880000	295083.585000	305150.805000	292491.945000	-10741.365000	-32733.180000	0.771668	-1.398301	-2.436509	1.566205	1.869424	2.272642	-5.285491	-2.536248	-0.961380	2.502640	-0.518840	-0.614500	-0.048706	0.775999	-1.000000	-1.000000	-1.000000	-1.000000	-1.000000	-1.000000	-1.000000	52.000000	0.000000	-1.000000	-1.000000	406448.000000	1775787726.342813
-19715.895000	-15857.460000	8547.075000	295159.185000	305226.540000	292566.825000	-10742.670000	-32735.115000	3.248291	1.737147	0.349909	-0.446282	-0.205656	0.222388	-0.979175	1.346473	-0.961380	2.502640	-0.518840	-0.614500	-0.048706	0.775999	-1.000000	-1.000000	-1.000000	-1.000000	-1.000000	-1.000000	-1.000000	52.000000	0.000000	-1.000000	-1.000000	406449.000000	1775787726.344324
-19721.970000	-15860.520000	8547.660000	295167.195000	305235.000000	292573.665000	-10743.165000	-32737.995000	5.346231	5.169959	3.502636	-1.313117	-1.300321	-1.011281	2.846546	4.153435	-0.961380	2.502640	-0.518840	-0.614500	-0.048706	0.775999	-1.000000	-1.000000	-1.000000	-1.000000	-1.000000	-1.000000	-1.000000	52.000000	0.000000	-1.000000	-1.000000	406450.000000	1775787726.344348
-19723.770000	-15859.800000	8549.325000	295115.400000	305182.620000	292521.555000	-10748.070000	-32740.920000	5.104758	6.604880	5.440425	3.156007	2.980545	2.908411	4.628904	4.521584	-0.763000	2.639980	-0.198380	-0.614134	-0.050537	0.775511	-1.000000	-1.000000	-1.000000	-1.000000	-1.000000	-1.000000	-1.000000	52.000000	0.000000	-1.000000	-1.000000	406451.000000	1775787726.351084
-19720.980000	-15855.615000	8552.610000	295106.355000	305173.215000	292512.780000	-10750.455000	-32741.685000	2.185076	4.982913	5.193889	6.873232	6.643787	6.178745	4.090371	2.679285	-0.763000	2.639980	-0.198380	-0.614134	-0.050537	0.775511	-1.000000	-1.000000	-1.000000	-1.000000	-1.000000	-1.000000	-1.000000	52.000000	0.000000	-1.000000	-1.000000	406452.000000	1775787726.351112
-19724.400000	-15859.215000	8551.305000	295177.275000	305245.575000	292584.330000	-10751.940000	-32745.735000	-1.617662	1.424947	3.074367	5.260998	5.094871	4.505099	2.075695	0.052194	-0.763000	2.639980	-0.198380	-0.614134	-0.050537	0.775511	-1.000000	-1.000000	-1.000000	-1.000000	-1.000000	-1.000000	-1.000000	52.000000	0.000000	-1.000000	-1.000000	406453.000000	1775787726.360165
-19726.560000	-15864.255000	8543.430000	295093.485000	305161.245000	292501.080000	-10751.400000	-32745.735000	-4.295575	-2.336899	-0.038450	2.207928	2.212076	1.832006	0.020094	-1.919091	-0.763000	2.639980	-0.198380	-0.614134	-0.050537	0.775511	-1.000000	-1.000000	-1.000000	-1.000000	-1.000000	-1.000000	-1.000000	52.000000	0.000000	-1.000000	-1.000000	406454.000000	1775787726.360192
-19728.045000	-15866.145000	8543.160000	295159.860000	305227.935000	292567.770000	-10747.665000	-32746.455000	-5.040409	-5.134258	-3.263673	0.184890	0.390690	0.401775	-0.895750	-2.472125	-0.763000	2.639980	-0.198380	-0.614134	-0.050537	0.775511	-1.000000	-1.000000	-1.000000	-1.000000	-1.000000	-1.000000	-1.000000	52.000000	0.000000	-1.000000	-1.000000	406455.000000	1775787726.360223
-19727.190000	-15866.955000	8541.405000	295114.185000	305181.630000	292521.645000	-10742.940000	-32743.215000	-3.982107	-6.155402	-5.440683	-1.260267	-0.971063	-0.596021	-0.317561	-1.572431	-0.763000	2.639980	-0.198380	-0.614134	-0.050537	0.775511	-1.000000	-1.000000	-1.000000	-1.000000	-1.000000	-1.000000	-1.000000	52.000000	0.000000	-1.000000	-1.000000	406456.000000	1775787726.360236
-19733.265000	-15874.515000	8534.160000	295158.555000	305226.630000	292565.385000	-10745.280000	-32750.100000	-1.827621	-5.132547	-5.618532	-1.647929	-1.454060	-0.945658	1.078507	0.079390	-0.763000	2.639980	-0.198380	-0.614134	-0.050537	0.775511	-1.000000	-1.000000	-1.000000	-1.000000	-1.000000	-1.000000	-1.000000	52.000000	0.000000	-1.000000	-1.000000	406457.000000	1775787726.360251
-19739.295000	-15878.340000	8532.135000	295180.830000	305249.085000	292586.850000	-10751.760000	-32760.945000	0.229320	-2.808371	-3.984706	-0.018328	-0.001478	0.299111	1.810521	1.106931	-0.763000	2.639980	-0.198380	-0.614134	-0.050537	0.775511	-1.000000	-1.000000	-1.000000	-1.000000	-1.000000	-1.000000	-1.000000	52.000000	0.000000	-1.000000	-1.000000	406458.000000	1775787726.360262
-19738.980000	-15875.640000	8536.995000	295166.745000	305234.775000	292572.495000	-10749.150000	-32755.680000	1.285296	-0.201675	-1.310620	3.489309	3.379958	3.238183	0.856913	0.641905	-0.763000	2.639980	-0.198380	-0.614134	-0.050537	0.775511	-1.000000	-1.000000	-1.000000	-1.000000	-1.000000	-1.000000	-1.000000	52.000000	0.000000	-1.000000	-1.000000	406459.000000	1775787726.362741
-19743.120000	-15874.695000	8540.910000	295160.445000	305228.115000	292565.970000	-10749.555000	-32751.045000	1.488424	2.278330	1.888731	5.156642	4.996672	4.489604	-1.109901	-0.291446	-0.763000	2.639980	-0.198380	-0.614134	-0.050537	0.775511	-1.000000	-1.000000	-1.000000	-1.000000	-1.000000	-1.000000	-1.000000	52.000000	0.000000	-1.000000	-1.000000	406460.000000	1775787726.362767
-19727.055000	-15863.625000	8552.205000	295150.185000	305217.990000	292555.620000	-10744.425000	-32744.790000	1.766339	4.551228	5.070381	1.298724	1.119378	0.587402	-2.433063	0.053061	-0.259420	2.578940	-0.885080	-0.611998	-0.051025	0.775145	-1.000000	-1.000000	-1.000000	-1.000000	-1.000000	-1.000000	-1.000000	52.000000	0.000000	-1.000000	-1.000000	406461.000000	1775787726.371968
-19717.065000	-15861.510000	8546.220000	295098.525000	305166.195000	292504.815000	-10747.710000	-32742.765000	3.107386	6.295750	7.147926	-7.261049	-7.434373	-7.645735	-2.210410	1.841495	-0.259420	2.578940	-0.885080	-0.611998	-0.051025	0.775145	-1.000000	-1.000000	-1.000000	-1.000000	-1.000000	-1.000000	-1.000000	52.000000	0.000000	-1.000000	-1.000000	406462.000000	1775787726.372005
-19719.765000	-15858.855000	8550.135000	295156.440000	305224.785000	292563.090000	-10756.620000	-32740.605000	5.155350	6.690235	6.735777	-15.506225	-15.615202	-15.359448	-1.137271	3.534493	-0.259420	2.578940	-0.885080	-0.611998	-0.051025	0.775145	-1.000000	-1.000000	-1.000000	-1.000000	-1.000000	-1.000000	-1.000000	52.000000	0.000000	-1.000000	-1.000000	406463.000000	1775787726.372034
-19739.970000	-15868.620000	8549.550000	295178.940000	305247.870000	292585.455000	-10761.480000	-32749.965000	5.347323	4.736930	3.532832	-15.392333	-15.355117	-14.767609	-0.656929	3.371244	-0.259420	2.578940	-0.885080	-0.611998	-0.051025	0.775145	-1.000000	-1.000000	-1.000000	-1.000000	-1.000000	-1.000000	-1.000000	52.000000	0.000000	-1.000000	-1.000000	406464.000000	1775787726.372046
-19730.970000	-15872.220000	8543.430000	295163.370000	305232.120000	292569.660000	-10753.470000	-32746.635000	1.657591	0.307454	-1.098077	-3.911179	-3.689490	-3.115412	-0.979028	0.816032	-0.259420	2.578940	-0.885080	-0.611998	-0.051025	0.775145	-1.000000	-1.000000	-1.000000	-1.000000	-1.000000	-1.000000	-1.000000	52.000000	0.000000	-1.000000	-1.000000	406465.000000	1775787726.379362
-19715.040000	-15852.870000	8558.055000	295144.875000	305213.265000	292550.310000	-10744.695000	-32733.405000	-3.661838	-4.600746	-5.020628	10.189275	10.501949	10.751759	-0.608332	-2.469353	-0.259420	2.578940	-0.885080	-0.611998	-0.051025	0.775145	-1.000000	-1.000000	-1.000000	-1.000000	-1.000000	-1.000000	-1.000000	52.000000	0.000000	-1.000000	-1.000000	406466.000000	1775787726.379387
-19709.145000	-15853.005000	8555.085000	295154.280000	305222.310000	292558.770000	-10736.505000	-32727.330000	-5.988519	-6.666376	-6.287113	15.885344	16.087972	15.922940	1.574852	-3.745055	-0.259420	2.578940	-0.885080	-0.611998	-0.051025	0.775145	-1.000000	-1.000000	-1.000000	-1.000000	-1.000000	-1.000000	-1.000000	52.000000	0.000000	-1.000000	-1.000000	406467.000000	1775787726.379419
-19721.025000	-15871.365000	8536.410000	295158.510000	305226.405000	292562.910000	-10735.515000	-32736.645000	-4.151014	-5.181264	-5.012759	11.643303	11.580793	11.125990	4.524386	-2.411424	-0.259420	2.578940	-0.885080	-0.611998	-0.051025	0.775145	-1.000000	-1.000000	-1.000000	-1.000000	-1.000000	-1.000000	-1.000000	52.000000	0.000000	-1.000000	-1.000000	406468.000000	1775787726.379431
-19727.505000	-15875.640000	8532.495000	295161.660000	305229.960000	292566.375000	-10741.095000	-32745.240000	-1.441215	-3.076574	-3.560209	3.559993	3.256359	2.760129	5.728612	-0.865280	-0.259420	2.578940	-0.885080	-0.611998	-0.051025	0.775145	-1.000000	-1.000000	-1.000000	-1.000000	-1.000000	-1.000000	-1.000000	52.000000	0.000000	-1.000000	-1.000000	406469.000000	1775787726.383386
-19731.510000	-15871.905000	8535.555000	294987.690000	305054.190000	292393.170000	-10739.790000	-32741.415000	-0.916670	-2.385835	-3.031820	-5.733048	-6.117708	-6.367049	3.583746	-1.159906	-0.259420	2.578940	-0.885080	-0.611998	-0.051025	0.775145	-1.000000	-1.000000	-1.000000	-1.000000	-1.000000	-1.000000	-1.000000	52.000000	0.000000	-1.000000	-1.000000	406470.000000	1775787726.383412
-19719.630000	-15862.860000	8540.145000	295011.090000	305076.105000	292417.560000	-10735.425000	-32731.290000	-1.991119	-1.776576	-1.915306	-18.825271	-19.190903	-18.918454	-0.812552	-2.243031	-1.358140	2.823100	-0.335720	-0.612059	-0.050537	0.774107	-1.000000	-1.000000	-1.000000	-1.000000	-1.000000	-1.000000	-1.000000	52.000000	0.000000	-1.000000	-1.000000	406471.000000	1775787726.387648
-19727.055000	-15869.475000	8540.280000	295245.360000	305314.155000	292651.605000	-10741.410000	-32742.315000	-2.114815	0.411607	1.017562	-25.503306	-25.789108	-24.978515	-4.721009	-1.966409	-1.358140	2.823100	-0.335720	-0.612059	-0.050537	0.774107	-1.000000	-1.000000	-1.000000	-1.000000	-1.000000	-1.000000	-1.000000	52.000000	0.000000	-1.000000	-1.000000	406472.000000	1775787726.387677
-19724.085000	-15864.525000	8547.885000	295177.005000	305246.160000	292582.845000	-10743.885000	-32740.515000	-0.393635	3.395280	4.810470	-6.823921	-6.782541	-5.975426	-6.434845	-0.353651	-1.358140	2.823100	-0.335720	-0.612059	-0.050537	0.774107	-1.000000	-1.000000	-1.000000	-1.000000	-1.000000	-1.000000	-1.000000	52.000000	0.000000	-1.000000	-1.000000	406473.000000	1775787726.394366
-19737.990000	-15871.995000	8544.060000	295155.360000	305224.335000	292560.345000	-10749.105000	-32747.265000	1.703467	5.126475	7.395620	28.252798	28.863874	28.919800	-5.993437	1.049457	-1.358140	2.823100	-0.335720	-0.612059	-0.050537	0.774107	-1.000000	-1.000000	-1.000000	-1.000000	-1.000000	-1.000000	-1.000000	52.000000	0.000000	-1.000000	-1.000000	406474.000000	1775787726.394392
-19743.750000	-15877.080000	8540.685000	295155.585000	305223.930000	292559.625000	-10750.455000	-32749.830000	2.302769	4.379324	7.105115	46.868432	47.853824	46.946756	-4.111332	1.375227	-1.358140	2.823100	-0.335720	-0.612059	-0.050537	0.774107	-1.000000	-1.000000	-1.000000	-1.000000	-1.000000	-1.000000	-1.000000	52.000000	0.000000	-1.000000	-1.000000	406475.000000	1775787726.400036
-19731.330000	-15876.405000	8535.510000	295084.890000	305152.470000	292489.110000	-10753.740000	-32748.570000	1.329078	1.553096	3.660759	32.889012	33.673923	32.315263	-1.494169	0.914167	-1.358140	2.823100	-0.335720	-0.612059	-0.050537	0.774107	-1.000000	-1.000000	-1.000000	-1.000000	-1.000000	-1.000000	-1.000000	52.000000	0.000000	-1.000000	-1.000000	406476.000000	1775787726.400062
-19723.860000	-15865.605000	8543.880000	295156.350000	305224.650000	292560.570000	-10749.690000	-32748.705000	0.868224	-1.287139	-1.191933	-1.517422	-1.406692	-2.421317	1.288891	0.587474	-1.358140	2.823100	-0.335720	-0.612059	-0.050537	0.774107	-1.000000	-1.000000	-1.000000	-1.000000	-1.000000	-1.000000	-1.000000	52.000000	0.000000	-1.000000	-1.000000	406477.000000	1775787726.400092
-19734.975000	-15870.915000	8543.070000	295173.990000	305242.785000	292578.075000	-10747.035000	-32750.640000	2.087427	-2.083708	-4.612879	-30.451570	-31.015254	-31.192413	3.828616	0.916004	-1.358140	2.823100	-0.335720	-0.612059	-0.050537	0.774107	-1.000000	-1.000000	-1.000000	-1.000000	-1.000000	-1.000000	-1.000000	52.000000	0.000000	-1.000000	-1.000000	406478.000000	1775787726.400104
-19755.855000	-15886.035000	8531.820000	295118.505000	305187.030000	292522.995000	-10746.540000	-32752.755000	2.870854	-1.268501	-5.270840	-36.954828	-37.785642	-37.181699	5.625400	1.480620	-1.358140	2.823100	-0.335720	-0.612059	-0.050537	0.774107	-1.000000	-1.000000	-1.000000	-1.000000	-1.000000	-1.000000	-1.000000	52.000000	0.000000	-1.000000	-1.000000	406479.000000	1775787726.406718
-19741.365000	-15883.245000	8529.705000	295124.310000	305192.970000	292529.340000	-10748.520000	-32752.755000	1.022405	-0.943532	-4.283884	-26.007146	-26.668999	-25.657352	5.915710	1.612656	-1.358140	2.823100	-0.335720	-0.612059	-0.050537	0.774107	-1.000000	-1.000000	-1.000000	-1.000000	-1.000000	-1.000000	-1.000000	52.000000	0.000000	-1.000000	-1.000000	406480.000000	1775787726.406742
-19723.545000	-15869.880000	8537.445000	295182.000000	305251.695000	292586.400000	-10756.215000	-32762.070000	-1.515391	-1.300764	-2.833769	-9.795628	-10.066799	-9.063807	4.130941	1.009412	-1.922760	2.823100	0.076300	-0.614073	-0.050476	0.772825	-1.000000	-1.000000	-1.000000	-1.000000	-1.000000	-1.000000	-1.000000	52.000000	0.000000	-1.000000	-1.000000	406481.000000	1775787726.406767
-19714.995000	-15863.040000	8541.585000	295157.385000	305226.630000	292561.155000	-10755.990000	-32756.580000	-1.063392	-0.424447	-0.676673	6.180149	6.309485	6.927983	0.658230	-0.152339	-1.922760	2.823100	0.076300	-0.614073	-0.050476	0.772825	-1.000000	-1.000000	-1.000000	-1.000000	-1.000000	-1.000000	-1.000000	52.000000	0.000000	-1.000000	-1.000000	406482.000000	1775787726.406780
-19719.540000	-15864.255000	8544.420000	295151.625000	305220.420000	292554.720000	-10744.380000	-32748.345000	2.224004	2.133112	2.249656	17.416003	17.776063	17.805352	-2.664130	-0.900117	-1.922760	2.823100	0.076300	-0.614073	-0.050476	0.772825	-1.000000	-1.000000	-1.000000	-1.000000	-1.000000	-1.000000	-1.000000	52.000000	0.000000	-1.000000	-1.000000	406483.000000	1775787726.411580
-19722.105000	-15864.885000	8545.005000	295146.855000	305215.425000	292549.185000	-10736.010000	-32743.440000	4.434248	4.198322	4.683627	18.723238	19.037710	18.575066	-3.499874	-0.142997	-1.922760	2.823100	0.076300	-0.614073	-0.050476	0.772825	-1.000000	-1.000000	-1.000000	-1.000000	-1.000000	-1.000000	-1.000000	52.000000	0.000000	-1.000000	-1.000000	406484.000000	1775787726.411606
-19726.515000	-15868.620000	8541.045000	295158.735000	305227.575000	292561.245000	-10735.965000	-32742.720000	2.699168	3.608836	5.059335	11.103845	11.179734	10.530932	-1.440096	1.697655	-1.922760	2.823100	0.076300	-0.614073	-0.050476	0.772825	-1.000000	-1.000000	-1.000000	-1.000000	-1.000000	-1.000000	-1.000000	52.000000	0.000000	-1.000000	-1.000000	406485.000000	1775787726.416249
-19720.440000	-15865.020000	8545.860000	295150.725000	305219.925000	292553.460000	-10734.705000	-32736.420000	-1.957418	0.502501	3.007586	1.103316	0.967603	0.448447	1.294684	2.941033	-1.922760	2.823100	0.076300	-0.614073	-0.050476	0.772825	-1.000000	-1.000000	-1.000000	-1.000000	-1.000000	-1.000000	-1.000000	52.000000	0.000000	-1.000000	-1.000000	406486.000000	1775787726.416276
-19713.960000	-15859.665000	8553.195000	295152.615000	305222.310000	292556.070000	-10739.160000	-32734.170000	-5.932851	-2.904910	-0.039135	-5.786648	-5.943929	-6.136664	2.136270	2.522648	-1.922760	2.823100	0.076300	-0.614073	-0.050476	0.772825	-1.000000	-1.000000	-1.000000	-1.000000	-1.000000	-1.000000	-1.000000	52.000000	0.000000	-1.000000	-1.000000	406487.000000	1775787726.420360
-19706.580000	-15852.330000	8559.270000	295144.920000	305214.885000	292548.735000	-10746.765000	-32732.325000	-6.344576	-4.247807	-1.984888	-8.057168	-8.055037	-7.887458	0.271646	0.668216	-1.922760	2.823100	0.076300	-0.614073	-0.050476	0.772825	-1.000000	-1.000000	-1.000000	-1.000000	-1.000000	-1.000000	-1.000000	52.000000	0.000000	-1.000000	-1.000000	406488.000000	1775787726.420387
-19699.425000	-15840.270000	8571.060000	295144.785000	305214.480000	292548.015000	-10749.600000	-32730.300000	-3.171156	-2.750277	-1.866429	-6.840509	-6.648905	-6.238582	-3.153733	-1.723708	-1.922760	2.823100	0.076300	-0.614073	-0.050476	0.772825	-1.000000	-1.000000	-1.000000	-1.000000	-1.000000	-1.000000	-1.000000	52.000000	0.000000	-1.000000	-1.000000	406489.000000	1775787726.424093
-19711.800000	-15850.620000	8560.935000	295143.660000	305213.265000	292546.620000	-10754.190000	-32740.110000	0.975906	0.217555	-0.561214	-3.871535	-3.627661	-3.190153	-5.907187	-3.838536	-1.922760	2.823100	0.076300	-0.614073	-0.050476	0.772825	-1.000000	-1.000000	-1.000000	-1.000000	-1.000000	-1.000000	-1.000000	52.000000	0.000000	-1.000000	-1.000000	406490.000000	1775787726.424119
-19719.090000	-15860.520000	8553.870000	295151.895000	305221.635000	292554.360000	-10746.810000	-32741.505000	2.742491	1.773588	-0.229313	-0.327870	-0.211704	0.038565	-6.008146	-5.325874	-0.747740	3.021480	-0.763000	-0.614500	-0.049011	0.772886	-1.000000	-1.000000	-1.000000	-1.000000	-1.000000	-1.000000	-1.000000	52.000000	0.000000	-1.000000	-1.000000	406491.000000	1775787726.436476
-19727.190000	-15870.150000	8543.610000	295152.525000	305221.995000	292554.405000	-10748.070000	-32746.545000	0.831659	-0.002497	-2.250973	3.102068	3.011786	2.961126	-2.930568	-5.836625	-0.747740	3.021480	-0.763000	-0.614500	-0.049011	0.772886	-1.000000	-1.000000	-1.000000	-1.000000	-1.000000	-1.000000	-1.000000	52.000000	0.000000	-1.000000	-1.000000	406492.000000	1775787726.436498
-19735.920000	-15877.980000	8537.805000	295151.445000	305220.870000	292553.235000	-10750.770000	-32752.710000	-2.911869	-3.921417	-5.513695	5.448779	5.200959	4.889558	1.776468	-4.924749	-0.747740	3.021480	-0.763000	-0.614500	-0.049011	0.772886	-1.000000	-1.000000	-1.000000	-1.000000	-1.000000	-1.000000	-1.000000	52.000000	0.000000	-1.000000	-1.000000	406493.000000	1775787726.436524
-19737.630000	-15877.935000	8536.905000	295091.820000	305160.480000	292494.015000	-10749.600000	-32753.115000	-5.418152	-6.736860	-7.324748	4.566688	4.265224	3.889776	5.439592	-2.641096	-0.747740	3.021480	-0.763000	-0.614500	-0.049011	0.772886	-1.000000	-1.000000	-1.000000	-1.000000	-1.000000	-1.000000	-1.000000	52.000000	0.000000	-1.000000	-1.000000	406494.000000	1775787726.436535
-19732.860000	-15875.730000	8539.605000	295157.745000	305227.260000	292560.480000	-10746.495000	-32752.395000	-4.553410	-5.812693	-5.621457	-0.124345	-0.376523	-0.559326	6.490950	0.532727	-0.747740	3.021480	-0.763000	-0.614500	-0.049011	0.772886	-1.000000	-1.000000	-1.000000	-1.000000	-1.000000	-1.000000	-1.000000	52.000000	0.000000	-1.000000	-1.000000	406495.000000	1775787726.436546
-19734.570000	-15875.505000	8540.460000	295169.670000	305239.860000	292572.630000	-10748.025000	-32756.265000	-0.276730	-1.042717	-0.558824	-3.234219	-3.318260	-3.200000	5.208434	3.800285	-0.747740	3.021480	-0.763000	-0.614500	-0.049011	0.772886	-1.000000	-1.000000	-1.000000	-1.000000	-1.000000	-1.000000	-1.000000	52.000000	0.000000	-1.000000	-1.000000	406496.000000	1775787726.436554
-19726.290000	-15866.100000	8544.645000	295111.035000	305180.595000	292513.860000	-10745.820000	-32753.025000	5.276209	5.214745	5.526884	-0.828889	-0.653463	-0.365015	2.671624	6.058482	-0.747740	3.021480	-0.763000	-0.614500	-0.049011	0.772886	-1.000000	-1.000000	-1.000000	-1.000000	-1.000000	-1.000000	-1.000000	52.000000	0.000000	-1.000000	-1.000000	406497.000000	1775787726.446457
-19729.890000	-15864.975000	8547.570000	295111.305000	305180.280000	292513.860000	-10744.875000	-32752.890000	9.241764	9.976961	9.778842	1.673279	2.029015	2.286434	-0.001190	6.600225	-0.747740	3.021480	-0.763000	-0.614500	-0.049011	0.772886	-1.000000	-1.000000	-1.000000	-1.000000	-1.000000	-1.000000	-1.000000	52.000000	0.000000	-1.000000	-1.000000	406498.000000	1775787726.446485
-19742.760000	-15871.365000	8549.190000	295184.205000	305253.810000	292586.085000	-10746.945000	-32759.280000	9.396856	10.997229	10.484051	0.692490	1.003803	1.106416	-1.989854	5.363085	-0.747740	3.021480	-0.763000	-0.614500	-0.049011	0.772886	-1.000000	-1.000000	-1.000000	-1.000000	-1.000000	-1.000000	-1.000000	52.000000	0.000000	-1.000000	-1.000000	406499.000000	1775787726.453197
-19737.450000	-15875.595000	8541.765000	295115.085000	305183.970000	292516.470000	-10744.515000	-32753.880000	5.305537	7.456005	7.473628	0.394682	0.501821	0.385495	-3.001397	2.733927	-0.747740	3.021480	-0.763000	-0.614500	-0.049011	0.772886	-1.000000	-1.000000	-1.000000	-1.000000	-1.000000	-1.000000	-1.000000	52.000000	0.000000	-1.000000	-1.000000	406500.000000	1775787726.453224
-19729.980000	-15876.810000	8533.035000	295124.850000	305193.465000	292526.280000	-10742.670000	-32751.675000	-0.491354	0.857317	1.741645	1.202724	1.093816	0.785651	-3.005197	-0.141810	-0.946120	1.876980	0.167860	-0.614989	-0.049927	0.774595	-1.000000	-1.000000	-1.000000	-1.000000	-1.000000	-1.000000	-1.000000	52.000000	0.000000	-1.000000	-1.000000	406501.000000	1775787726.453271
-19715.490000	-15863.940000	8541.360000	295111.755000	305180.325000	292513.140000	-10742.355000	-32744.025000	-4.032516	-5.219358	-4.480669	-0.498764	-0.746814	-1.081900	-2.123467	-1.834630	-0.946120	1.876980	0.167860	-0.614989	-0.049927	0.774595	-1.000000	-1.000000	-1.000000	-1.000000	-1.000000	-1.000000	-1.000000	52.000000	0.000000	-1.000000	-1.000000	406502.000000	1775787726.453285
-19718.415000	-15867.495000	8538.885000	295148.520000	305217.630000	292550.130000	-10745.370000	-32743.350000	-3.644935	-7.531093	-8.148193	-3.253337	-3.503873	-3.683746	-0.910089	-1.880272	-0.946120	1.876980	0.167860	-0.614989	-0.049927	0.774595	-1.000000	-1.000000	-1.000000	-1.000000	-1.000000	-1.000000	-1.000000	52.000000	0.000000	-1.000000	-1.000000	406503.000000	1775787726.453302
-19725.120000	-15872.220000	8536.320000	295108.965000	305178.030000	292511.115000	-10749.825000	-32744.970000	-1.426068	-5.962219	-7.736773	-3.206741	-3.304272	-3.266660	-0.175227	-1.162017	-0.946120	1.876980	0.167860	-0.614989	-0.049927	0.774595	-1.000000	-1.000000	-1.000000	-1.000000	-1.000000	-1.000000	-1.000000	52.000000	0.000000	-1.000000	-1.000000	406504.000000	1775787726.453313
-19728.990000	-15874.335000	8537.625000	295182.270000	305252.415000	292584.735000	-10753.290000	-32756.040000	-0.674447	-3.086871	-4.445427	0.209776	0.353718	0.550174	-0.319312	-1.173400	-0.946120	1.876980	0.167860	-0.614989	-0.049927	0.774595	-1.000000	-1.000000	-1.000000	-1.000000	-1.000000	-1.000000	-1.000000	52.000000	0.000000	-1.000000	-1.000000	406505.000000	1775787726.454512
-19730.520000	-15873.390000	8539.425000	295159.815000	305229.870000	292561.965000	-10756.170000	-32762.520000	-2.297243	-1.001515	-0.444200	5.624752	5.983549	6.204069	-0.952768	-2.712866	-0.946120	1.876980	0.167860	-0.614989	-0.049927	0.774595	-1.000000	-1.000000	-1.000000	-1.000000	-1.000000	-1.000000	-1.000000	52.000000	0.000000	-1.000000	-1.000000	406506.000000	1775787726.454533
-19734.390000	-15875.505000	8537.715000	295156.620000	305226.990000	292558.680000	-10754.235000	-32763.735000	-4.502654	0.053280	2.667335	9.619442	10.051424	10.152400	-1.197060	-4.865200	-0.946120	1.876980	0.167860	-0.614989	-0.049927	0.774595	-1.000000	-1.000000	-1.000000	-1.000000	-1.000000	-1.000000	-1.000000	52.000000	0.000000	-1.000000	-1.000000	406507.000000	1775787726.461964
-19733.670000	-15872.535000	8540.010000	295148.430000	305218.305000	292549.635000	-10748.115000	-32759.235000	-5.151059	0.676819	4.052574	7.511779	7.806848	7.729348	-0.284205	-5.454572	-0.946120	1.876980	0.167860	-0.614989	-0.049927	0.774595	-1.000000	-1.000000	-1.000000	-1.000000	-1.000000	-1.000000	-1.000000	52.000000	0.000000	-1.000000	-1.000000	406508.000000	1775787726.461991
-19730.340000	-15868.125000	8544.465000	295147.620000	305217.225000	292548.060000	-10745.235000	-32753.745000	-3.364765	1.405995	3.792420	-0.687249	-0.706432	-0.912028	1.812607	-2.980611	-0.946120	1.876980	0.167860	-0.614989	-0.049927	0.774595	-1.000000	-1.000000	-1.000000	-1.000000	-1.000000	-1.000000	-1.000000	52.000000	0.000000	-1.000000	-1.000000	406509.000000	1775787726.475914
-19723.545000	-15864.615000	8545.545000	295079.310000	305148.105000	292479.885000	-10747.800000	-32741.775000	0.351167	2.391092	2.664722	-10.797625	-11.182962	-11.386912	3.945574	1.985506	-0.946120	1.876980	0.167860	-0.614989	-0.049927	0.774595	-1.000000	-1.000000	-1.000000	-1.000000	-1.000000	-1.000000	-1.000000	52.000000	0.000000	-1.000000	-1.000000	406510.000000	1775787726.475938
-19722.240000	-15867.990000	8541.450000	295156.845000	305226.225000	292557.510000	-10756.620000	-32741.820000	4.454761	3.097301	1.212432	-17.887166	-18.519322	-18.562718	4.312126	7.079884	0.381500	0.763000	-0.824040	-0.617125	-0.051208	0.775022	-1.000000	-1.000000	-1.000000	-1.000000	-1.000000	-1.000000	-1.000000	52.000000	0.000000	-1.000000	-1.000000	406511.000000	1775787726.475967
-19720.710000	-15865.065000	8544.510000	295108.605000	305178.165000	292509.810000	-10753.965000	-32743.935000	6.964619	2.680084	-0.466922	-16.418544	-17.023239	-16.829730	2.129358	9.347000	0.381500	0.763000	-0.824040	-0.617125	-0.051208	0.775022	-1.000000	-1.000000	-1.000000	-1.000000	-1.000000	-1.000000	-1.000000	52.000000	0.000000	-1.000000	-1.000000	406512.000000	1775787726.475978
-19725.120000	-15866.370000	8545.095000	295136.865000	305206.785000	292538.610000	-10749.240000	-32751.630000	6.502155	1.034039	-1.972394	-5.882057	-6.162760	-5.802045	-1.130590	7.013093	0.381500	0.763000	-0.824040	-0.617125	-0.051208	0.775022	-1.000000	-1.000000	-1.000000	-1.000000	-1.000000	-1.000000	-1.000000	52.000000	0.000000	-1.000000	-1.000000	406513.000000	1775787726.475992
-19734.705000	-15873.840000	8541.495000	295172.010000	305242.605000	292573.305000	-10758.645000	-32766.705000	3.036188	-1.173079	-2.715309	7.953408	8.136618	8.494033	-3.221131	0.756818	0.381500	0.763000	-0.824040	-0.617125	-0.051208	0.775022	-1.000000	-1.000000	-1.000000	-1.000000	-1.000000	-1.000000	-1.000000	52.000000	0.000000	-1.000000	-1.000000	406514.000000	1775787726.476002
-19728.315000	-15866.505000	8550.675000	295158.105000	305228.655000	292559.040000	-10754.820000	-32761.845000	-1.869327	-3.075725	-2.482116	19.216249	19.775966	19.925736	-3.464832	-6.419620	0.381500	0.763000	-0.824040	-0.617125	-0.051208	0.775022	-1.000000	-1.000000	-1.000000	-1.000000	-1.000000	-1.000000	-1.000000	52.000000	0.000000	-1.000000	-1.000000	406515.000000	1775787726.478143
-19725.210000	-15861.780000	8555.490000	295145.685000	305215.830000	292545.720000	-10751.805000	-32756.355000	-5.394219	-3.544007	-1.184823	22.422527	23.086441	22.906341	-2.347044	-10.352517	0.381500	0.763000	-0.824040	-0.617125	-0.051208	0.775022	-1.000000	-1.000000	-1.000000	-1.000000	-1.000000	-1.000000	-1.000000	52.000000	0.000000	-1.000000	-1.000000	406516.000000	1775787726.478171
-19724.265000	-15860.970000	8554.365000	295151.220000	305221.230000	292550.895000	-10742.985000	-32748.930000	-5.485361	-1.981232	0.811513	14.700240	15.139302	14.697348	-0.239822	-8.394675	0.381500	0.763000	-0.824040	-0.617125	-0.051208	0.775022	-1.000000	-1.000000	-1.000000	-1.000000	-1.000000	-1.000000	-1.000000	52.000000	0.000000	-1.000000	-1.000000	406517.000000	1775787726.493102
-19727.640000	-15870.915000	8542.170000	295137.585000	305207.280000	292536.990000	-10739.520000	-32743.620000	-2.778300	0.388552	2.015275	0.292304	0.305369	-0.174218	2.307137	-1.749062	0.381500	0.763000	-0.824040	-0.617125	-0.051208	0.775022	-1.000000	-1.000000	-1.000000	-1.000000	-1.000000	-1.000000	-1.000000	52.000000	0.000000	-1.000000	-1.000000	406518.000000	1775787726.493129
-19726.830000	-15874.875000	8536.860000	295090.830000	305160.120000	292490.595000	-10740.780000	-32739.930000	0.355518	1.420364	0.941369	-13.707358	-14.094202	-14.352840	4.068074	5.503262	0.381500	0.763000	-0.824040	-0.617125	-0.051208	0.775022	-1.000000	-1.000000	-1.000000	-1.000000	-1.000000	-1.000000	-1.000000	52.000000	0.000000	-1.000000	-1.000000	406519.000000	1775787726.493159
-19728.720000	-15874.065000	8540.550000	295178.400000	305248.995000	292578.480000	-10746.855000	-32748.030000	2.117687	0.479144	-1.786090	-21.210722	-21.770512	-21.660595	3.647478	9.243822	0.381500	0.763000	-0.824040	-0.617125	-0.051208	0.775022	-1.000000	-1.000000	-1.000000	-1.000000	-1.000000	-1.000000	-1.000000	52.000000	0.000000	-1.000000	-1.000000	406520.000000	1775787726.493171
-19730.475000	-15872.805000	8542.620000	295162.920000	305233.920000	292563.405000	-10748.655000	-32751.540000	2.172486	-0.934904	-3.572065	-16.792057	-17.191327	-16.795287	0.766193	7.565317	-0.885080	1.403920	-0.076300	-0.614012	-0.050659	0.774412	-1.000000	-1.000000	-1.000000	-1.000000	-1.000000	-1.000000	-1.000000	52.000000	0.000000	-1.000000	-1.000000	406521.000000	1775787726.493185
-19729.395000	-15874.110000	8539.785000	295111.035000	305181.270000	292511.295000	-10748.790000	-32749.245000	1.177556	-1.150733	-2.669398	-3.284729	-3.296250	-2.849787	-3.026052	1.915574	-0.885080	1.403920	-0.076300	-0.614012	-0.050659	0.774412	-1.000000	-1.000000	-1.000000	-1.000000	-1.000000	-1.000000	-1.000000	52.000000	0.000000	-1.000000	-1.000000	406522.000000	1775787726.493196
-19732.680000	-15880.095000	8533.845000	295128.720000	305198.775000	292529.070000	-10747.890000	-32749.245000	0.067086	-0.115951	0.006376	7.240984	7.539208	7.865336	-5.376053	-3.882797	-0.885080	1.403920	-0.076300	-0.614012	-0.050659	0.774412	-1.000000	-1.000000	-1.000000	-1.000000	-1.000000	-1.000000	-1.000000	52.000000	0.000000	-1.000000	-1.000000	406523.000000	1775787726.493209
-19738.710000	-15885.720000	8529.660000	295180.380000	305251.155000	292580.325000	-10753.470000	-32757.615000	-0.692734	0.918623	2.203304	9.592834	9.928399	10.079467	-5.070255	-6.785319	-0.885080	1.403920	-0.076300	-0.614012	-0.050659	0.774412	-1.000000	-1.000000	-1.000000	-1.000000	-1.000000	-1.000000	-1.000000	52.000000	0.000000	-1.000000	-1.000000	406524.000000	1775787726.493219
-19741.950000	-15882.930000	8531.100000	295154.595000	305225.055000	292553.685000	-10754.415000	-32759.145000	-1.212430	1.087672	2.721314	9.067857	9.252236	9.181456	-2.802746	-6.456043	-0.885080	1.403920	-0.076300	-0.614012	-0.050659	0.774412	-1.000000	-1.000000	-1.000000	-1.000000	-1.000000	-1.000000	-1.000000	52.000000	0.000000	-1.000000	-1.000000	406525.000000	1775787726.495933
-19747.170000	-15879.195000	8536.770000	295102.305000	305171.955000	292500.900000	-10754.865000	-32760.900000	-1.541494	0.902602	2.224088	7.335077	7.328387	7.013432	-0.046900	-4.108585	-0.885080	1.403920	-0.076300	-0.614012	-0.050659	0.774412	-1.000000	-1.000000	-1.000000	-1.000000	-1.000000	-1.000000	-1.000000	52.000000	0.000000	-1.000000	-1.000000	406526.000000	1775787726.495969
-19736.235000	-15882.075000	8534.295000	295149.330000	305219.205000	292548.015000	-10752.120000	-32758.245000	-1.216193	1.192094	1.905013	1.450593	1.272938	0.831577	2.244843	-0.885327	-0.885080	1.403920	-0.076300	-0.614012	-0.050659	0.774412	-1.000000	-1.000000	-1.000000	-1.000000	-1.000000	-1.000000	-1.000000	52.000000	0.000000	-1.000000	-1.000000	406527.000000	1775787726.505368
-19714.770000	-15867.225000	8542.575000	295169.580000	305240.535000	292568.400000	-10750.050000	-32752.665000	0.752296	1.989241	2.026850	-4.936339	-5.187504	-5.553200	3.762079	2.442995	-0.885080	1.403920	-0.076300	-0.614012	-0.050659	0.774412	-1.000000	-1.000000	-1.000000	-1.000000	-1.000000	-1.000000	-1.000000	52.000000	0.000000	-1.000000	-1.000000	406528.000000	1775787726.505395
-19715.175000	-15862.590000	8546.715000	295154.415000	305225.955000	292553.595000	-10752.480000	-32753.205000	4.474337	3.002058	2.213749	-5.337970	-5.461669	-5.640647	4.300032	5.119226	-0.885080	1.403920	-0.076300	-0.614012	-0.050659	0.774412	-1.000000	-1.000000	-1.000000	-1.000000	-1.000000	-1.000000	-1.000000	52.000000	0.000000	-1.000000	-1.000000	406529.000000	1775787726.505425
-19721.655000	-15865.110000	8548.380000	295151.670000	305223.030000	292550.985000	-10758.510000	-32755.320000	7.369581	3.557155	2.056906	-1.215232	-1.061241	-1.055251	3.470172	6.122976	-0.885080	1.403920	-0.076300	-0.614012	-0.050659	0.774412	-1.000000	-1.000000	-1.000000	-1.000000	-1.000000	-1.000000	-1.000000	52.000000	0.000000	-1.000000	-1.000000	406530.000000	1775787726.505437
-19734.795000	-15867.180000	8552.880000	295145.280000	305216.505000	292544.370000	-10755.270000	-32754.555000	5.906264	2.406352	1.163832	1.454778	1.809914	1.981877	1.304142	4.794658	-2.533160	0.824040	0.030520	-0.612242	-0.049866	0.774839	-1.000000	-1.000000	-1.000000	-1.000000	-1.000000	-1.000000	-1.000000	52.000000	0.000000	-1.000000	-1.000000	406531.000000	1775787726.510267
-19740.285000	-15874.515000	8546.805000	295149.105000	305220.510000	292547.970000	-10751.850000	-32756.490000	-0.383832	-0.885670	-0.576368	0.424133	0.733281	1.037801	-1.028425	1.724222	-2.533160	0.824040	0.030520	-0.612242	-0.049866	0.774839	-1.000000	-1.000000	-1.000000	-1.000000	-1.000000	-1.000000	-1.000000	52.000000	0.000000	-1.000000	-1.000000	406532.000000	1775787726.510292
-19734.120000	-15884.775000	8532.405000	295163.235000	305234.325000	292561.245000	-10756.620000	-32763.150000	-7.712838	-5.178973	-3.117256	-1.920851	-1.862576	-1.530910	-2.179250	-1.709777	-2.533160	0.824040	0.030520	-0.612242	-0.049866	0.774839	-1.000000	-1.000000	-1.000000	-1.000000	-1.000000	-1.000000	-1.000000	52.000000	0.000000	-1.000000	-1.000000	406533.000000	1775787726.512374
-19735.065000	-15880.320000	8532.990000	295158.510000	305229.645000	292556.115000	-10758.870000	-32768.865000	-11.066844	-8.358384	-6.014927	-2.419540	-2.649121	-2.439775	-2.119910	-4.405657	-2.533160	0.824040	0.030520	-0.612242	-0.049866	0.774839	-1.000000	-1.000000	-1.000000	-1.000000	-1.000000	-1.000000	-1.000000	52.000000	0.000000	-1.000000	-1.000000	406534.000000	1775787726.512398
-19730.520000	-15873.120000	8537.040000	295152.210000	305223.390000	292549.725000	-10761.390000	-32768.595000	-8.448598	-8.141884	-7.517209	-0.894669	-1.293997	-1.295036	-1.693899	-5.628065	-2.533160	0.824040	0.030520	-0.612242	-0.049866	0.774839	-1.000000	-1.000000	-1.000000	-1.000000	-1.000000	-1.000000	-1.000000	52.000000	0.000000	-1.000000	-1.000000	406535.000000	1775787726.516881
-19730.295000	-15870.915000	8542.305000	295071.480000	305141.985000	292469.580000	-10757.610000	-32763.330000	-1.952096	-3.778132	-5.632030	-0.975268	-1.366536	-1.510735	-1.248973	-4.701561	-2.533160	0.824040	0.030520	-0.612242	-0.049866	0.774839	-1.000000	-1.000000	-1.000000	-1.000000	-1.000000	-1.000000	-1.000000	52.000000	0.000000	-1.000000	-1.000000	406536.000000	1775787726.516910
-19718.505000	-15857.055000	8552.520000	295094.880000	305165.160000	292493.700000	-10745.910000	-32751.450000	4.714505	2.824655	-0.422531	-5.649022	-5.913113	-5.982813	-0.286887	-1.389193	-2.533160	0.824040	0.030520	-0.612242	-0.049866	0.774839	-1.000000	-1.000000	-1.000000	-1.000000	-1.000000	-1.000000	-1.000000	52.000000	0.000000	-1.000000	-1.000000	406537.000000	1775787726.525519
-19715.040000	-15856.380000	8549.910000	295125.435000	305196.030000	292524.255000	-10737.180000	-32746.770000	8.853611	8.450251	5.605078	-10.069082	-10.167856	-9.979050	1.726196	3.336012	-2.533160	0.824040	0.030520	-0.612242	-0.049866	0.774839	-1.000000	-1.000000	-1.000000	-1.000000	-1.000000	-1.000000	-1.000000	52.000000	0.000000	-1.000000	-1.000000	406538.000000	1775787726.525545
-19727.370000	-15869.655000	8538.885000	295160.850000	305232.345000	292559.670000	-10742.445000	-32755.005000	9.110049	10.133863	8.850273	-5.153168	-5.054058	-4.690656	3.973560	6.958812	-2.533160	0.824040	0.030520	-0.612242	-0.049866	0.774839	-1.000000	-1.000000	-1.000000	-1.000000	-1.000000	-1.000000	-1.000000	52.000000	0.000000	-1.000000	-1.000000	406539.000000	1775787726.525574
-19732.005000	-15873.840000	8538.210000	295166.745000	305239.005000	292565.160000	-10748.565000	-32762.115000	5.109216	6.430307	7.095351	9.553505	9.899885	10.097291	4.259481	6.705493	-2.533160	0.824040	0.030520	-0.612242	-0.049866	0.774839	-1.000000	-1.000000	-1.000000	-1.000000	-1.000000	-1.000000	-1.000000	52.000000	0.000000	-1.000000	-1.000000	406540.000000	1775787726.525586
-19727.865000	-15867.405000	8541.855000	295085.745000	305156.520000	292483.395000	-10748.205000	-32759.370000	-1.362443	-0.662856	1.780009	22.085855	22.626829	22.372957	1.411841	2.292241	-2.426340	1.693860	-0.045780	-0.611021	-0.049194	0.775328	-1.000000	-1.000000	-1.000000	-1.000000	-1.000000	-1.000000	-1.000000	52.000000	0.000000	-1.000000	-1.000000	406541.000000	1775787726.530123
-19730.520000	-15870.060000	8539.920000	295171.110000	305242.380000	292568.040000	-10749.150000	-32764.275000	-6.557850	-6.549722	-3.229173	20.685191	21.174598	20.519587	-2.955289	-3.343297	-2.426340	1.693860	-0.045780	-0.611021	-0.049194	0.775328	-1.000000	-1.000000	-1.000000	-1.000000	-1.000000	-1.000000	-1.000000	52.000000	0.000000	-1.000000	-1.000000	406542.000000	1775787726.530152
-19738.035000	-15876.180000	8536.410000	295170.480000	305242.155000	292567.095000	-10746.495000	-32764.680000	-7.973200	-8.223708	-5.325874	8.690802	8.870496	8.116548	-5.921290	-6.807539	-2.426340	1.693860	-0.045780	-0.611021	-0.049194	0.775328	-1.000000	-1.000000	-1.000000	-1.000000	-1.000000	-1.000000	-1.000000	52.000000	0.000000	-1.000000	-1.000000	406543.000000	1775787726.530620
-19740.465000	-15879.330000	8535.555000	295161.255000	305233.110000	292558.005000	-10748.025000	-32761.935000	-6.076153	-6.235288	-4.589882	-2.591210	-2.748363	-3.304062	-5.818823	-6.665645	-2.426340	1.693860	-0.045780	-0.611021	-0.049194	0.775328	-1.000000	-1.000000	-1.000000	-1.000000	-1.000000	-1.000000	-1.000000	52.000000	0.000000	-1.000000	-1.000000	406544.000000	1775787726.530639
-19730.070000	-15872.265000	8541.675000	295157.385000	305229.330000	292554.045000	-10748.655000	-32753.295000	-2.450538	-2.560510	-2.259412	-9.328863	-9.653045	-9.824244	-3.178069	-3.355816	-2.426340	1.693860	-0.045780	-0.611021	-0.049194	0.775328	-1.000000	-1.000000	-1.000000	-1.000000	-1.000000	-1.000000	-1.000000	52.000000	0.000000	-1.000000	-1.000000	406545.000000	1775787726.535915
-19724.355000	-15863.580000	8546.715000	295147.395000	305219.835000	292545.135000	-10756.215000	-32754.915000	1.935866	1.583378	0.692517	-13.304376	-13.605686	-13.326513	0.055766	1.419143	-2.426340	1.693860	-0.045780	-0.611021	-0.049194	0.775328	-1.000000	-1.000000	-1.000000	-1.000000	-1.000000	-1.000000	-1.000000	52.000000	0.000000	-1.000000	-1.000000	406546.000000	1775787726.535943
-19722.150000	-15862.635000	8546.490000	295155.225000	305227.665000	292553.280000	-10758.780000	-32757.840000	6.001676	5.363251	3.355487	-14.946898	-15.114383	-14.446285	2.039174	5.095975	-2.426340	1.693860	-0.045780	-0.611021	-0.049194	0.775328	-1.000000	-1.000000	-1.000000	-1.000000	-1.000000	-1.000000	-1.000000	52.000000	0.000000	-1.000000	-1.000000	406547.000000	1775787726.545341
-19741.365000	-15875.685000	8539.290000	295155.495000	305227.665000	292552.965000	-10761.885000	-32769.540000	7.611850	7.113387	4.402061	-13.001146	-13.034775	-12.170217	2.264052	5.471311	-2.426340	1.693860	-0.045780	-0.611021	-0.049194	0.775328	-1.000000	-1.000000	-1.000000	-1.000000	-1.000000	-1.000000	-1.000000	52.000000	0.000000	-1.000000	-1.000000	406548.000000	1775787726.545366
-19748.070000	-15882.345000	8534.610000	295159.500000	305231.580000	292556.610000	-10763.415000	-32778.270000	4.908976	5.136784	2.863266	-7.098699	-7.089640	-6.328344	1.547724	2.222759	-2.426340	1.693860	-0.045780	-0.611021	-0.049194	0.775328	-1.000000	-1.000000	-1.000000	-1.000000	-1.000000	-1.000000	-1.000000	52.000000	0.000000	-1.000000	-1.000000	406549.000000	1775787726.545394
-19743.705000	-15887.115000	8528.805000	295162.785000	305234.370000	292558.860000	-10760.715000	-32776.515000	-0.898706	0.040622	-0.643966	0.760570	0.710466	1.076398	1.026332	-2.532955	-2.426340	1.693860	-0.045780	-0.611021	-0.049194	0.775328	-1.000000	-1.000000	-1.000000	-1.000000	-1.000000	-1.000000	-1.000000	52.000000	0.000000	-1.000000	-1.000000	406550.000000	1775787726.545406
-19731.645000	-15877.080000	8533.485000	295154.370000	305226.045000	292550.040000	-10756.485000	-32770.530000	-5.419463	-4.829345	-3.952228	7.267571	7.124363	6.961346	1.377014	-5.323398	-2.823100	1.052940	0.930860	-0.612791	-0.052002	0.774656	-1.000000	-1.000000	-1.000000	-1.000000	-1.000000	-1.000000	-1.000000	52.000000	0.000000	-1.000000	-1.000000	406551.000000	1775787726.546664
-19729.170000	-15872.535000	8537.040000	295154.055000	305226.135000	292550.220000	-10749.690000	-32765.580000	-5.157305	-5.953283	-4.762735	9.740378	9.572305	8.979098	2.539678	-3.948374	-2.823100	1.052940	0.930860	-0.612791	-0.052002	0.774656	-1.000000	-1.000000	-1.000000	-1.000000	-1.000000	-1.000000	-1.000000	52.000000	0.000000	-1.000000	-1.000000	406552.000000	1775787726.546682
-19725.255000	-15865.065000	8546.310000	295156.710000	305228.970000	292553.235000	-10739.430000	-32755.320000	-0.882836	-2.646456	-2.315336	7.953262	7.896486	7.165991	3.871990	0.759600	-2.823100	1.052940	0.930860	-0.612791	-0.052002	0.774656	-1.000000	-1.000000	-1.000000	-1.000000	-1.000000	-1.000000	-1.000000	52.000000	0.000000	-1.000000	-1.000000	406553.000000	1775787726.551224
-19726.740000	-15869.835000	8542.530000	295151.040000	305223.795000	292548.060000	-10745.640000	-32752.530000	3.636363	2.408116	1.885055	4.036632	4.190841	3.659101	4.342976	5.834634	-2.823100	1.052940	0.930860	-0.612791	-0.052002	0.774656	-1.000000	-1.000000	-1.000000	-1.000000	-1.000000	-1.000000	-1.000000	52.000000	0.000000	-1.000000	-1.000000	406554.000000	1775787726.551249
-19723.365000	-15868.980000	8542.620000	295150.860000	305223.885000	292548.195000	-10749.915000	-32751.630000	5.247946	5.475103	4.969519	0.255402	0.604956	0.465267	2.710165	8.198727	-2.823100	1.052940	0.930860	-0.612791	-0.052002	0.774656	-1.000000	-1.000000	-1.000000	-1.000000	-1.000000	-1.000000	-1.000000	52.000000	0.000000	-1.000000	-1.000000	406555.000000	1775787726.562297
-19719.450000	-15863.760000	8549.775000	295146.585000	305219.610000	292543.605000	-10747.395000	-32750.505000	3.544069	4.855369	5.082217	-2.214294	-1.797276	-1.578140	-1.140375	6.405496	-2.823100	1.052940	0.930860	-0.612791	-0.052002	0.774656	-1.000000	-1.000000	-1.000000	-1.000000	-1.000000	-1.000000	-1.000000	52.000000	0.000000	-1.000000	-1.000000	406556.000000	1775787726.562324
-19717.065000	-15862.635000	8550.810000	295153.155000	305225.820000	292549.410000	-10748.295000	-32749.065000	0.302581	1.809158	2.841479	-2.939597	-2.641559	-2.267977	-5.239170	1.492889	-2.823100	1.052940	0.930860	-0.612791	-0.052002	0.774656	-1.000000	-1.000000	-1.000000	-1.000000	-1.000000	-1.000000	-1.000000	52.000000	0.000000	-1.000000	-1.000000	406557.000000	1775787726.562352
-19723.680000	-15865.605000	8546.130000	295149.825000	305221.860000	292545.180000	-10753.065000	-32755.365000	-2.627502	-1.470142	-0.115150	-1.987971	-1.974037	-1.684164	-7.291281	-4.004212	-2.823100	1.052940	0.930860	-0.612791	-0.052002	0.774656	-1.000000	-1.000000	-1.000000	-1.000000	-1.000000	-1.000000	-1.000000	52.000000	0.000000	-1.000000	-1.000000	406558.000000	1775787726.562364
-19727.640000	-15868.710000	8543.655000	295155.585000	305227.845000	292550.535000	-10754.055000	-32758.875000	-4.597759	-3.791812	-2.835271	-0.089399	-0.406276	-0.341757	-6.652026	-7.916396	-2.823100	1.052940	0.930860	-0.612791	-0.052002	0.774656	-1.000000	-1.000000	-1.000000	-1.000000	-1.000000	-1.000000	-1.000000	52.000000	0.000000	-1.000000	-1.000000	406559.000000	1775787726.569042
-19722.195000	-15862.815000	8549.370000	295152.255000	305224.650000	292546.980000	-10755.990000	-32756.715000	-5.382224	-4.724057	-4.627422	1.624948	1.115224	0.953305	-4.069656	-9.061988	-2.823100	1.052940	0.930860	-0.612791	-0.052002	0.774656	-1.000000	-1.000000	-1.000000	-1.000000	-1.000000	-1.000000	-1.000000	52.000000	0.000000	-1.000000	-1.000000	406560.000000	1775787726.569066
-19723.815000	-15863.940000	8548.740000	295156.755000	305229.195000	292551.705000	-10758.195000	-32759.730000	-4.437754	-3.955490	-4.626739	2.298877	1.854769	1.583144	-0.734966	-7.128093	-0.793520	0.930860	0.747740	-0.614256	-0.053528	0.775083	-1.000000	-1.000000	-1.000000	-1.000000	-1.000000	-1.000000	-1.000000	52.000000	0.000000	-1.000000	-1.000000	406561.000000	1775787726.572471
-19727.730000	-15868.260000	8544.195000	295153.605000	305226.585000	292549.410000	-10755.270000	-32761.170000	-1.921317	-1.892785	-2.867066	1.753617	1.589805	1.394595	2.263285	-3.027546	-0.793520	0.930860	0.747740	-0.614256	-0.053528	0.775083	-1.000000	-1.000000	-1.000000	-1.000000	-1.000000	-1.000000	-1.000000	52.000000	0.000000	-1.000000	-1.000000	406562.000000	1775787726.572495
-19728.675000	-15869.205000	8545.185000	295155.810000	305229.195000	292551.930000	-10747.485000	-32759.865000	0.830681	0.174243	-0.601621	0.405699	0.589086	0.625608	4.437509	1.432268	-0.793520	0.930860	0.747740	-0.614256	-0.053528	0.775083	-1.000000	-1.000000	-1.000000	-1.000000	-1.000000	-1.000000	-1.000000	52.000000	0.000000	-1.000000	-1.000000	406563.000000	1775787726.573129
-19733.715000	-15873.255000	8541.990000	295154.820000	305228.520000	292550.805000	-10747.935000	-32764.185000	2.531816	1.263662	1.025958	-1.051424	-0.606903	-0.335154	5.713815	4.654471	-0.793520	0.930860	0.747740	-0.614256	-0.053528	0.775083	-1.000000	-1.000000	-1.000000	-1.000000	-1.000000	-1.000000	-1.000000	52.000000	0.000000	-1.000000	-1.000000	406564.000000	1775787726.573149
-19737.135000	-15875.820000	8540.145000	295154.280000	305227.530000	292549.635000	-10753.695000	-32769.135000	2.776991	1.327282	1.691597	-2.001723	-1.499476	-1.155676	5.567510	5.704248	-0.793520	0.930860	0.747740	-0.614256	-0.053528	0.775083	-1.000000	-1.000000	-1.000000	-1.000000	-1.000000	-1.000000	-1.000000	52.000000	0.000000	-1.000000	-1.000000	406565.000000	1775787726.574729
-19732.275000	-15872.265000	8542.305000	295134.075000	305206.965000	292528.890000	-10753.290000	-32764.815000	2.086589	0.974431	1.653274	-2.552842	-2.242250	-2.025740	3.385628	4.631569	-0.793520	0.930860	0.747740	-0.614256	-0.053528	0.775083	-1.000000	-1.000000	-1.000000	-1.000000	-1.000000	-1.000000	-1.000000	52.000000	0.000000	-1.000000	-1.000000	406566.000000	1775787726.574751
-19731.015000	-15874.830000	8538.435000	295106.805000	305178.255000	292500.990000	-10750.320000	-32761.170000	1.559353	0.953832	1.407365	-3.822316	-3.895518	-3.882828	-0.088472	2.730966	-0.793520	0.930860	0.747740	-0.614256	-0.053528	0.775083	-1.000000	-1.000000	-1.000000	-1.000000	-1.000000	-1.000000	-1.000000	52.000000	0.000000	-1.000000	-1.000000	406567.000000	1775787726.580561
-19737.315000	-15881.265000	8535.195000	295183.080000	305255.880000	292576.905000	-10753.695000	-32765.985000	1.637360	1.273780	1.116255	-4.740960	-5.207684	-5.339630	-3.012544	1.318552	-0.793520	0.930860	0.747740	-0.614256	-0.053528	0.775083	-1.000000	-1.000000	-1.000000	-1.000000	-1.000000	-1.000000	-1.000000	52.000000	0.000000	-1.000000	-1.000000	406568.000000	1775787726.580587
-19732.545000	-15877.395000	8537.130000	295163.235000	305236.305000	292557.150000	-10753.965000	-32762.250000	1.665314	1.306815	0.673457	-1.043084	-1.642073	-1.863907	-4.229043	0.487868	-0.793520	0.930860	0.747740	-0.614256	-0.053528	0.775083	-1.000000	-1.000000	-1.000000	-1.000000	-1.000000	-1.000000	-1.000000	52.000000	0.000000	-1.000000	-1.000000	406569.000000	1775787726.586133
-19736.910000	-15875.640000	8537.535000	295153.335000	305226.540000	292547.475000	-10756.980000	-32763.870000	1.119634	1.019312	0.309579	6.558021	6.213046	5.921811	-3.843917	-0.197192	-0.793520	0.930860	0.747740	-0.614256	-0.053528	0.775083	-1.000000	-1.000000	-1.000000	-1.000000	-1.000000	-1.000000	-1.000000	52.000000	0.000000	-1.000000	-1.000000	406570.000000	1775787726.586159
-19747.710000	-15878.340000	8537.895000	295159.860000	305233.515000	292554.270000	-10753.425000	-32766.030000	-0.064318	0.856544	0.340158	10.821633	10.934514	10.663022	-2.458035	-0.908795	-1.236060	1.113980	1.037680	-0.613036	-0.053467	0.774229	-1.000000	-1.000000	-1.000000	-1.000000	-1.000000	-1.000000	-1.000000	52.000000	0.000000	-1.000000	-1.000000	406571.000000	1775787726.602003
-19746.630000	-15883.965000	8532.225000	295155.810000	305229.375000	292550.445000	-10753.380000	-32768.370000	-1.782309	0.638480	0.524816	8.020250	8.494734	8.384648	-0.579339	-1.673234	-1.236060	1.113980	1.037680	-0.613036	-0.053467	0.774229	-1.000000	-1.000000	-1.000000	-1.000000	-1.000000	-1.000000	-1.000000	52.000000	0.000000	-1.000000	-1.000000	406572.000000	1775787726.602031
-19729.620000	-15877.800000	8534.070000	295156.080000	305229.825000	292550.400000	-10754.865000	-32774.400000	-2.824917	-0.009355	0.328934	0.975466	1.532464	1.658366	1.235438	-2.397767	-1.236060	1.113980	1.037680	-0.613036	-0.053467	0.774229	-1.000000	-1.000000	-1.000000	-1.000000	-1.000000	-1.000000	-1.000000	52.000000	0.000000	-1.000000	-1.000000	406573.000000	1775787726.602060
-19722.690000	-15865.965000	8542.260000	295148.700000	305222.355000	292542.165000	-10759.995000	-32779.980000	-1.372985	-0.430741	-0.085170	-5.809336	-5.446856	-5.159657	2.192049	-2.905946	-1.236060	1.113980	1.037680	-0.613036	-0.053467	0.774229	-1.000000	-1.000000	-1.000000	-1.000000	-1.000000	-1.000000	-1.000000	52.000000	0.000000	-1.000000	-1.000000	406574.000000	1775787726.602071
-19727.550000	-15867.270000	8544.870000	295149.015000	305222.130000	292541.400000	-10762.785000	-32777.325000	2.113919	0.283673	0.095125	-9.370630	-9.349763	-9.095552	1.774049	-2.848968	-1.236060	1.113980	1.037680	-0.613036	-0.053467	0.774229	-1.000000	-1.000000	-1.000000	-1.000000	-1.000000	-1.000000	-1.000000	52.000000	0.000000	-1.000000	-1.000000	406575.000000	1775787726.609338
-19723.590000	-15863.220000	8548.110000	295126.920000	305199.945000	292519.170000	-10762.065000	-32769.270000	4.589208	1.538879	0.978366	-9.227438	-9.540321	-9.477712	0.420465	-1.536981	-1.236060	1.113980	1.037680	-0.613036	-0.053467	0.774229	-1.000000	-1.000000	-1.000000	-1.000000	-1.000000	-1.000000	-1.000000	52.000000	0.000000	-1.000000	-1.000000	406576.000000	1775787726.609365
-19716.885000	-15860.745000	8547.615000	295085.880000	305158.005000	292478.130000	-10750.590000	-32756.580000	4.022785	1.891993	1.618353	-7.526502	-8.046085	-8.147503	-0.497198	1.461608	-1.236060	1.113980	1.037680	-0.613036	-0.053467	0.774229	-1.000000	-1.000000	-1.000000	-1.000000	-1.000000	-1.000000	-1.000000	52.000000	0.000000	-1.000000	-1.000000	406577.000000	1775787726.609396
-19719.000000	-15871.095000	8539.515000	295174.845000	305248.185000	292567.185000	-10735.740000	-32747.760000	1.201873	0.623393	0.961139	-5.026305	-5.549543	-5.641841	0.421236	5.353612	-1.236060	1.113980	1.037680	-0.613036	-0.053467	0.774229	-1.000000	-1.000000	-1.000000	-1.000000	-1.000000	-1.000000	-1.000000	52.000000	0.000000	-1.000000	-1.000000	406578.000000	1775787726.609409
-19728.045000	-15881.985000	8528.265000	295165.440000	305239.455000	292558.500000	-10742.400000	-32756.715000	-2.265886	-2.227077	-1.395384	1.893775	1.618813	1.643432	2.890904	7.821899	-1.236060	1.113980	1.037680	-0.613036	-0.053467	0.774229	-1.000000	-1.000000	-1.000000	-1.000000	-1.000000	-1.000000	-1.000000	52.000000	0.000000	-1.000000	-1.000000	406579.000000	1775787726.609423
-19724.355000	-15875.640000	8533.620000	295150.410000	305224.695000	292543.740000	-10754.595000	-32764.500000	-5.274477	-5.510296	-4.469069	12.536158	12.701517	12.801229	4.166562	6.253199	-1.236060	1.113980	1.037680	-0.613036	-0.053467	0.774229	-1.000000	-1.000000	-1.000000	-1.000000	-1.000000	-1.000000	-1.000000	52.000000	0.000000	-1.000000	-1.000000	406580.000000	1775787726.609434
-19726.785000	-15868.620000	8542.350000	295081.020000	305154.135000	292474.260000	-10755.900000	-32762.880000	-6.640644	-6.657719	-5.758691	16.931554	17.471568	17.587483	1.773553	0.502244	-1.205540	1.342880	1.236060	-0.612913	-0.052124	0.773619	-1.000000	-1.000000	-1.000000	-1.000000	-1.000000	-1.000000	-1.000000	52.000000	0.000000	-1.000000	-1.000000	406581.000000	1775787726.628610
-19729.845000	-15866.685000	8545.005000	295091.280000	305164.170000	292484.205000	-10750.815000	-32760.945000	-5.596968	-3.940340	-3.409700	8.015704	8.581147	8.726786	-3.025578	-6.029518	-1.205540	1.342880	1.236060	-0.612913	-0.052124	0.773619	-1.000000	-1.000000	-1.000000	-1.000000	-1.000000	-1.000000	-1.000000	52.000000	0.000000	-1.000000	-1.000000	406582.000000	1775787726.628632
-19732.275000	-15871.905000	8541.360000	295167.960000	305241.030000	292559.670000	-10749.285000	-32767.830000	-2.771516	1.136348	1.324537	-6.256863	-6.024086	-5.868426	-6.362881	-9.411973	-1.205540	1.342880	1.236060	-0.612913	-0.052124	0.773619	-1.000000	-1.000000	-1.000000	-1.000000	-1.000000	-1.000000	-1.000000	52.000000	0.000000	-1.000000	-1.000000	406583.000000	1775787726.628657
-19731.735000	-15869.160000	8546.670000	295173.945000	305247.285000	292564.845000	-10748.115000	-32768.910000	0.473054	5.155346	5.172194	-10.415799	-10.588320	-10.587753	-5.894469	-8.517544	-1.205540	1.342880	1.236060	-0.612913	-0.052124	0.773619	-1.000000	-1.000000	-1.000000	-1.000000	-1.000000	-1.000000	-1.000000	52.000000	0.000000	-1.000000	-1.000000	406584.000000	1775787726.628668
-19727.730000	-15864.795000	8551.395000	295154.820000	305228.070000	292545.630000	-10744.740000	-32763.510000	3.184025	6.161920	6.157903	-1.455459	-1.824073	-2.149063	-2.424150	-4.631654	-1.205540	1.342880	1.236060	-0.612913	-0.052124	0.773619	-1.000000	-1.000000	-1.000000	-1.000000	-1.000000	-1.000000	-1.000000	52.000000	0.000000	-1.000000	-1.000000	406585.000000	1775787726.628680
-19730.430000	-15871.140000	8542.395000	295147.890000	305221.590000	292539.195000	-10742.400000	-32761.980000	4.906693	4.573427	4.457123	8.388810	8.093283	7.516024	1.688722	0.455274	-1.205540	1.342880	1.236060	-0.612913	-0.052124	0.773619	-1.000000	-1.000000	-1.000000	-1.000000	-1.000000	-1.000000	-1.000000	52.000000	0.000000	-1.000000	-1.000000	406586.000000	1775787726.628689
-19731.870000	-15874.065000	8538.525000	295156.080000	305230.140000	292547.970000	-10746.630000	-32765.940000	5.196395	1.547896	0.937232	8.785609	8.723288	8.212566	4.296471	4.834925	-1.205540	1.342880	1.236060	-0.612913	-0.052124	0.773619	-1.000000	-1.000000	-1.000000	-1.000000	-1.000000	-1.000000	-1.000000	52.000000	0.000000	-1.000000	-1.000000	406587.000000	1775787726.628700
-19733.040000	-15872.355000	8542.080000	295155.540000	305229.960000	292547.745000	-10758.105000	-32777.010000	3.841427	-1.690641	-3.013691	1.045811	1.228117	1.097116	4.100722	6.530820	-1.205540	1.342880	1.236060	-0.612913	-0.052124	0.773619	-1.000000	-1.000000	-1.000000	-1.000000	-1.000000	-1.000000	-1.000000	52.000000	0.000000	-1.000000	-1.000000	406588.000000	1775787726.628710
-19730.790000	-15868.395000	8547.435000	295149.780000	305224.245000	292541.670000	-10759.500000	-32778.315000	1.481769	-3.622043	-5.230031	-7.684504	-7.369403	-7.046369	1.219466	4.761819	-1.205540	1.342880	1.236060	-0.612913	-0.052124	0.773619	-1.000000	-1.000000	-1.000000	-1.000000	-1.000000	-1.000000	-1.000000	52.000000	0.000000	-1.000000	-1.000000	406589.000000	1775787726.643306
-19728.225000	-15868.305000	8546.265000	295119.405000	305193.555000	292511.115000	-10753.965000	-32771.115000	-0.631750	-3.309936	-4.402456	-12.775548	-12.507480	-11.920237	-2.244834	1.200838	-1.205540	1.342880	1.236060	-0.612913	-0.052124	0.773619	-1.000000	-1.000000	-1.000000	-1.000000	-1.000000	-1.000000	-1.000000	52.000000	0.000000	-1.000000	-1.000000	406590.000000	1775787726.643337
-19728.540000	-15869.025000	8542.485000	295091.460000	305164.485000	292482.585000	-10752.705000	-32768.550000	-1.621578	-1.368864	-1.563287	-14.246878	-14.208363	-13.633202	-3.524545	-1.168110	-0.259420	1.159760	1.861720	-0.614622	-0.050781	0.772886	-1.000000	-1.000000	-1.000000	-1.000000	-1.000000	-1.000000	-1.000000	52.000000	0.000000	-1.000000	-1.000000	406591.000000	1775787726.643369
-19730.970000	-15871.725000	8541.225000	295178.760000	305252.370000	292568.715000	-10751.265000	-32768.145000	-1.638223	0.589423	0.997040	-11.582334	-11.863382	-11.508650	-1.792450	-0.974008	-0.259420	1.159760	1.861720	-0.614622	-0.050781	0.772886	-1.000000	-1.000000	-1.000000	-1.000000	-1.000000	-1.000000	-1.000000	52.000000	0.000000	-1.000000	-1.000000	406592.000000	1775787726.643380
-19735.155000	-15878.790000	8534.340000	295166.655000	305240.535000	292556.655000	-10754.820000	-32767.830000	-1.490918	1.245824	1.827305	-1.480277	-1.963660	-1.966281	1.253776	0.606113	-0.259420	1.159760	1.861720	-0.614622	-0.050781	0.772886	-1.000000	-1.000000	-1.000000	-1.000000	-1.000000	-1.000000	-1.000000	52.000000	0.000000	-1.000000	-1.000000	406593.000000	1775787726.643394
-19737.990000	-15885.090000	8528.130000	295160.895000	305234.955000	292551.255000	-10765.080000	-32774.715000	-1.721029	0.292000	0.924860	13.215599	12.814930	12.442326	3.072078	1.535116	-0.259420	1.159760	1.861720	-0.614622	-0.050781	0.772886	-1.000000	-1.000000	-1.000000	-1.000000	-1.000000	-1.000000	-1.000000	52.000000	0.000000	-1.000000	-1.000000	406594.000000	1775787726.643409
-19735.020000	-15876.315000	8538.030000	295156.620000	305230.905000	292547.025000	-10757.115000	-32768.730000	-2.024806	-1.245396	-0.509682	21.831863	21.747761	21.203683	2.460695	0.826481	-0.259420	1.159760	1.861720	-0.614622	-0.050781	0.772886	-1.000000	-1.000000	-1.000000	-1.000000	-1.000000	-1.000000	-1.000000	52.000000	0.000000	-1.000000	-1.000000	406595.000000	1775787726.643425
-19740.330000	-15877.440000	8539.245000	295154.730000	305229.465000	292545.720000	-10748.295000	-32763.465000	-1.695723	-1.563846	-0.691234	18.069263	18.334108	17.917128	0.781439	-0.645687	-0.259420	1.159760	1.861720	-0.614622	-0.050781	0.772886	-1.000000	-1.000000	-1.000000	-1.000000	-1.000000	-1.000000	-1.000000	52.000000	0.000000	-1.000000	-1.000000	406596.000000	1775787726.643435
-19734.030000	-15876.270000	8540.910000	295153.110000	305228.070000	292544.145000	-10739.385000	-32752.215000	-0.531404	-0.021844	0.949419	5.527559	6.000422	5.902750	0.343652	-1.153660	-0.259420	1.159760	1.861720	-0.614622	-0.050781	0.772886	-1.000000	-1.000000	-1.000000	-1.000000	-1.000000	-1.000000	-1.000000	52.000000	0.000000	-1.000000	-1.000000	406597.000000	1775787726.643448
-19727.235000	-15878.160000	8536.140000	295156.575000	305231.265000	292547.025000	-10748.610000	-32756.085000	1.246703	2.107787	2.918830	-7.561578	-7.099446	-6.888858	1.374334	-0.181172	-0.259420	1.159760	1.861720	-0.614622	-0.050781	0.772886	-1.000000	-1.000000	-1.000000	-1.000000	-1.000000	-1.000000	-1.000000	52.000000	0.000000	-1.000000	-1.000000	406598.000000	1775787726.643458
-19725.570000	-15872.490000	8538.120000	295154.370000	305228.610000	292544.100000	-10753.155000	-32763.015000	3.203768	3.269562	3.353425	-14.668185	-14.430502	-14.084247	1.718666	0.774316	-0.259420	1.159760	1.861720	-0.614622	-0.050781	0.772886	-1.000000	-1.000000	-1.000000	-1.000000	-1.000000	-1.000000	-1.000000	52.000000	0.000000	-1.000000	-1.000000	406599.000000	1775787726.643474
-19729.620000	-15874.695000	8533.530000	295151.760000	305225.820000	292540.725000	-10756.665000	-32770.980000	4.244269	3.000273	1.838329	-14.177412	-14.286593	-14.014415	-0.217327	-0.156659	-0.259420	1.159760	1.861720	-0.614622	-0.050781	0.772886	-1.000000	-1.000000	-1.000000	-1.000000	-1.000000	-1.000000	-1.000000	52.000000	0.000000	-1.000000	-1.000000	406600.000000	1775787726.643485
-19729.890000	-15871.320000	8541.135000	295148.070000	305221.995000	292536.810000	-10757.160000	-32770.485000	3.224877	1.682596	-0.502963	-8.679137	-9.091450	-9.021615	-3.386266	-2.837984	-1.434440	0.610400	0.656180	-0.614745	-0.050171	0.773436	-1.000000	-1.000000	-1.000000	-1.000000	-1.000000	-1.000000	-1.000000	52.000000	0.000000	-1.000000	-1.000000	406601.000000	1775787726.652441
-19723.500000	-15864.120000	8549.505000	295110.630000	305184.510000	292499.550000	-10752.075000	-32762.970000	0.508028	0.104265	-1.905972	-2.647903	-3.167909	-3.282479	-5.274419	-4.882943	-1.434440	0.610400	0.656180	-0.614745	-0.050171	0.773436	-1.000000	-1.000000	-1.000000	-1.000000	-1.000000	-1.000000	-1.000000	52.000000	0.000000	-1.000000	-1.000000	406602.000000	1775787726.652468
-19727.145000	-15868.755000	8543.025000	295105.095000	305178.885000	292494.600000	-10748.835000	-32762.205000	-2.157007	-0.982674	-1.523550	0.140368	-0.253484	-0.400258	-4.227997	-4.004483	-1.434440	0.610400	0.656180	-0.614745	-0.050171	0.773436	-1.000000	-1.000000	-1.000000	-1.000000	-1.000000	-1.000000	-1.000000	52.000000	0.000000	-1.000000	-1.000000	406603.000000	1775787726.655793
-19741.905000	-15882.930000	8531.910000	295184.565000	305259.480000	292574.295000	-10751.670000	-32772.015000	-3.778307	-1.877788	-0.663519	1.327136	1.227956	1.207944	-0.830081	-0.631227	-1.434440	0.610400	0.656180	-0.614745	-0.050171	0.773436	-1.000000	-1.000000	-1.000000	-1.000000	-1.000000	-1.000000	-1.000000	52.000000	0.000000	-1.000000	-1.000000	406604.000000	1775787726.655818
-19750.185000	-15885.405000	8531.775000	295110.270000	305184.915000	292500.540000	-10753.380000	-32772.105000	-4.866392	-3.434798	-1.144180	5.556151	5.808699	5.936899	2.567029	2.513613	-1.434440	0.610400	0.656180	-0.614745	-0.050171	0.773436	-1.000000	-1.000000	-1.000000	-1.000000	-1.000000	-1.000000	-1.000000	52.000000	0.000000	-1.000000	-1.000000	406605.000000	1775787726.655847
-19748.880000	-15892.515000	8522.730000	295141.320000	305216.010000	292531.635000	-10756.755000	-32772.870000	-5.483829	-5.167676	-2.785916	10.611887	11.113966	11.299824	3.889010	3.550897	-1.434440	0.610400	0.656180	-0.614745	-0.050171	0.773436	-1.000000	-1.000000	-1.000000	-1.000000	-1.000000	-1.000000	-1.000000	52.000000	0.000000	-1.000000	-1.000000	406606.000000	1775787726.655858
-19738.755000	-15888.465000	8524.215000	295164.540000	305239.545000	292554.180000	-10757.430000	-32773.455000	-4.205829	-5.357703	-3.895307	11.506475	12.022555	12.154291	2.845602	2.844001	-1.434440	0.610400	0.656180	-0.614745	-0.050171	0.773436	-1.000000	-1.000000	-1.000000	-1.000000	-1.000000	-1.000000	-1.000000	52.000000	0.000000	-1.000000	-1.000000	406607.000000	1775787726.659408
-19718.190000	-15864.840000	8541.945000	295081.920000	305155.530000	292470.570000	-10750.275000	-32762.655000	0.257119	-2.483831	-2.783542	7.659236	7.947571	7.919382	0.825184	1.822527	-1.434440	0.610400	0.656180	-0.614745	-0.050171	0.773436	-1.000000	-1.000000	-1.000000	-1.000000	-1.000000	-1.000000	-1.000000	52.000000	0.000000	-1.000000	-1.000000	406608.000000	1775787726.659433
-19737.495000	-15871.815000	8545.320000	295170.210000	305244.360000	292558.140000	-10752.345000	-32769.990000	6.462913	3.259543	1.178316	0.301205	0.220456	-0.011901	-0.431691	1.482242	-1.434440	0.610400	0.656180	-0.614745	-0.050171	0.773436	-1.000000	-1.000000	-1.000000	-1.000000	-1.000000	-1.000000	-1.000000	52.000000	0.000000	-1.000000	-1.000000	406609.000000	1775787726.663592
-19736.955000	-15871.905000	8548.425000	295158.735000	305233.020000	292546.440000	-10756.800000	-32772.825000	9.982663	8.621506	6.159513	-5.549763	-5.946820	-6.336554	-0.529460	1.358541	-1.434440	0.610400	0.656180	-0.614745	-0.050171	0.773436	-1.000000	-1.000000	-1.000000	-1.000000	-1.000000	-1.000000	-1.000000	52.000000	0.000000	-1.000000	-1.000000	406610.000000	1775787726.663619
-19720.800000	-15867.990000	8546.040000	295089.255000	305162.865000	292477.680000	-10752.570000	-32767.425000	8.145595	9.731865	8.676047	-6.344302	-6.825736	-7.229708	-0.319926	0.513070	-2.319520	1.098720	0.259420	-0.613585	-0.048950	0.773619	-1.000000	-1.000000	-1.000000	-1.000000	-1.000000	-1.000000	-1.000000	52.000000	0.000000	-1.000000	-1.000000	406611.000000	1775787726.671984
-19718.280000	-15860.880000	8548.020000	295168.185000	305243.145000	292557.060000	-10753.380000	-32772.690000	3.285005	6.224754	6.760162	-5.725531	-6.046964	-6.239464	-0.278180	-0.815617	-2.319520	1.098720	0.259420	-0.613585	-0.048950	0.773619	-1.000000	-1.000000	-1.000000	-1.000000	-1.000000	-1.000000	-1.000000	52.000000	0.000000	-1.000000	-1.000000	406612.000000	1775787726.672010
-19708.965000	-15850.845000	8558.370000	295161.435000	305236.980000	292550.580000	-10748.160000	-32765.355000	-0.912126	1.029437	1.737730	-4.300256	-4.299582	-4.156430	-0.166565	-1.746620	-2.319520	1.098720	0.259420	-0.613585	-0.048950	0.773619	-1.000000	-1.000000	-1.000000	-1.000000	-1.000000	-1.000000	-1.000000	52.000000	0.000000	-1.000000	-1.000000	406613.000000	1775787726.693161
-19717.695000	-15860.970000	8550.720000	295150.635000	305226.270000	292539.510000	-10749.060000	-32766.615000	-3.238681	-3.084644	-3.275670	0.029763	0.385799	0.745942	0.192999	-1.740199	-2.319520	1.098720	0.259420	-0.613585	-0.048950	0.773619	-1.000000	-1.000000	-1.000000	-1.000000	-1.000000	-1.000000	-1.000000	52.000000	0.000000	-1.000000	-1.000000	406614.000000	1775787726.693186
-19728.855000	-15874.470000	8537.895000	295155.675000	305231.220000	292543.920000	-10754.190000	-32771.880000	-4.793486	-5.834946	-6.555791	3.974847	4.518549	4.858792	0.437624	-1.033356	-2.319520	1.098720	0.259420	-0.613585	-0.048950	0.773619	-1.000000	-1.000000	-1.000000	-1.000000	-1.000000	-1.000000	-1.000000	52.000000	0.000000	-1.000000	-1.000000	406615.000000	1775787726.693214
-19731.150000	-15878.565000	8536.815000	295155.810000	305230.770000	292543.425000	-10751.985000	-32772.870000	-6.666166	-8.083423	-8.236066	3.952201	4.372970	4.528447	0.024079	-0.541017	-2.319520	1.098720	0.259420	-0.613585	-0.048950	0.773619	-1.000000	-1.000000	-1.000000	-1.000000	-1.000000	-1.000000	-1.000000	52.000000	0.000000	-1.000000	-1.000000	406616.000000	1775787726.693226
-19731.555000	-15880.095000	8535.555000	295153.470000	305228.205000	292540.005000	-10747.440000	-32769.945000	-7.951614	-9.182982	-8.110398	0.792646	0.827678	0.778002	-0.751267	-0.611134	-2.319520	1.098720	0.259420	-0.613585	-0.048950	0.773619	-1.000000	-1.000000	-1.000000	-1.000000	-1.000000	-1.000000	-1.000000	52.000000	0.000000	-1.000000	-1.000000	406617.000000	1775787726.693240
-19732.590000	-15881.805000	8532.315000	295158.285000	305233.020000	292544.595000	-10749.645000	-32769.720000	-6.791140	-7.497160	-5.539539	-2.781103	-3.175679	-3.352421	-0.998169	-0.603924	-2.319520	1.098720	0.259420	-0.613585	-0.048950	0.773619	-1.000000	-1.000000	-1.000000	-1.000000	-1.000000	-1.000000	-1.000000	52.000000	0.000000	-1.000000	-1.000000	406618.000000	1775787726.693251
-19733.175000	-15883.740000	8526.645000	295091.325000	305165.655000	292478.535000	-10749.780000	-32769.135000	-2.838842	-2.842779	-1.157747	-5.700610	-6.328311	-6.495324	-0.566586	-0.029486	-2.319520	1.098720	0.259420	-0.613585	-0.048950	0.773619	-1.000000	-1.000000	-1.000000	-1.000000	-1.000000	-1.000000	-1.000000	52.000000	0.000000	-1.000000	-1.000000	406619.000000	1775787726.693263
-19723.320000	-15869.070000	8539.470000	295082.010000	305156.070000	292469.265000	-10748.925000	-32764.680000	2.456616	3.212946	3.426856	-9.343234	-9.916943	-9.889616	-0.029549	0.898950	-2.319520	1.098720	0.259420	-0.613585	-0.048950	0.773619	-1.000000	-1.000000	-1.000000	-1.000000	-1.000000	-1.000000	-1.000000	52.000000	0.000000	-1.000000	-1.000000	406620.000000	1775787726.693274
-19727.685000	-15873.570000	8538.390000	295159.680000	305235.135000	292547.295000	-10760.355000	-32777.190000	7.076648	8.605769	7.082662	-11.162275	-11.446013	-11.141757	0.051413	1.494360	-3.326680	1.434440	-0.412020	-0.614439	-0.046814	0.775328	-1.000000	-1.000000	-1.000000	-1.000000	-1.000000	-1.000000	-1.000000	52.000000	0.000000	-1.000000	-1.000000	406621.000000	1775787726.693315
-19738.800000	-15880.275000	8536.455000	295172.955000	305248.860000	292560.705000	-10766.295000	-32794.020000	8.897208	11.029473	8.859763	-3.710468	-3.556235	-3.153833	-0.733694	0.636794	-3.326680	1.434440	-0.412020	-0.614439	-0.046814	0.775328	-1.000000	-1.000000	-1.000000	-1.000000	-1.000000	-1.000000	-1.000000	52.000000	0.000000	-1.000000	-1.000000	406622.000000	1775787726.693326
-19761.120000	-15890.805000	8532.990000	295163.820000	305239.500000	292551.120000	-10768.230000	-32805.945000	6.299170	8.732664	7.699875	12.301721	12.876980	13.072758	-2.065914	-2.196075	-3.326680	1.434440	-0.412020	-0.614439	-0.046814	0.775328	-1.000000	-1.000000	-1.000000	-1.000000	-1.000000	-1.000000	-1.000000	52.000000	0.000000	-1.000000	-1.000000	406623.000000	1775787726.708618
-19762.380000	-15887.790000	8537.670000	295160.310000	305235.720000	292546.980000	-10772.955000	-32803.605000	0.041810	2.621113	3.850850	24.396636	25.131451	24.968324	-2.710974	-5.294942	-3.326680	1.434440	-0.412020	-0.614439	-0.046814	0.775328	-1.000000	-1.000000	-1.000000	-1.000000	-1.000000	-1.000000	-1.000000	52.000000	0.000000	-1.000000	-1.000000	406624.000000	1775787726.708644
-19741.815000	-15883.290000	8536.545000	295156.170000	305231.535000	292542.030000	-10765.575000	-32796.765000	-5.590506	-3.571759	-0.703337	22.492615	23.010206	22.567226	-1.638477	-5.466206	-3.326680	1.434440	-0.412020	-0.614439	-0.046814	0.775328	-1.000000	-1.000000	-1.000000	-1.000000	-1.000000	-1.000000	-1.000000	52.000000	0.000000	-1.000000	-1.000000	406625.000000	1775787726.708688
-19720.980000	-15867.855000	8543.520000	295148.115000	305223.480000	292533.705000	-10748.790000	-32779.890000	-5.450601	-5.994077	-3.795041	8.153465	8.218753	7.693551	1.423945	-0.976995	-3.326680	1.434440	-0.412020	-0.614439	-0.046814	0.775328	-1.000000	-1.000000	-1.000000	-1.000000	-1.000000	-1.000000	-1.000000	52.000000	0.000000	-1.000000	-1.000000	406626.000000	1775787726.708701
-19724.985000	-15877.260000	8533.035000	295086.420000	305160.660000	292472.145000	-10743.390000	-32766.795000	0.949196	-3.852463	-4.660171	-10.465690	-10.838605	-11.216849	5.748199	6.618654	-3.326680	1.434440	-0.412020	-0.614439	-0.046814	0.775328	-1.000000	-1.000000	-1.000000	-1.000000	-1.000000	-1.000000	-1.000000	52.000000	0.000000	-1.000000	-1.000000	406627.000000	1775787726.708721
-19735.335000	-15883.470000	8530.335000	295149.375000	305224.335000	292535.370000	-10744.380000	-32773.140000	7.805695	-0.202750	-4.219449	-24.628672	-25.249908	-25.274432	8.951283	12.960746	-3.326680	1.434440	-0.412020	-0.614439	-0.046814	0.775328	-1.000000	-1.000000	-1.000000	-1.000000	-1.000000	-1.000000	-1.000000	52.000000	0.000000	-1.000000	-1.000000	406628.000000	1775787726.708732
-19729.935000	-15871.410000	8546.445000	295169.085000	305245.260000	292555.530000	-10743.840000	-32772.465000	8.866235	1.512973	-3.300097	-25.640107	-26.206911	-25.849191	8.270595	13.448298	-3.326680	1.434440	-0.412020	-0.614439	-0.046814	0.775328	-1.000000	-1.000000	-1.000000	-1.000000	-1.000000	-1.000000	-1.000000	52.000000	0.000000	-1.000000	-1.000000	406629.000000	1775787726.708746
-19722.285000	-15866.910000	8550.135000	295153.560000	305229.780000	292539.915000	-10742.670000	-32761.395000	3.813318	1.174690	-1.334977	-11.552636	-11.746229	-11.237558	3.342880	7.243510	-3.326680	1.434440	-0.412020	-0.614439	-0.046814	0.775328	-1.000000	-1.000000	-1.000000	-1.000000	-1.000000	-1.000000	-1.000000	52.000000	0.000000	-1.000000	-1.000000	406630.000000	1775787726.708756
-19725.570000	-15875.190000	8537.715000	295122.330000	305198.055000	292508.370000	-10753.425000	-32763.285000	-2.856241	0.357837	1.432954	6.598029	6.875339	7.241113	-3.478779	-1.793893	-2.807840	0.930860	-0.106820	-0.616331	-0.048096	0.775877	-1.000000	-1.000000	-1.000000	-1.000000	-1.000000	-1.000000	-1.000000	52.000000	0.000000	-1.000000	-1.000000	406631.000000	1775787726.708770
-19722.105000	-15869.475000	8541.900000	295087.365000	305162.010000	292473.045000	-10755.000000	-32762.655000	-7.203438	-0.520518	2.882006	14.660849	15.158307	15.273872	-9.237408	-9.026110	-2.807840	0.930860	-0.106820	-0.616331	-0.048096	0.775877	-1.000000	-1.000000	-1.000000	-1.000000	-1.000000	-1.000000	-1.000000	52.000000	0.000000	-1.000000	-1.000000	406632.000000	1775787726.708780
-19722.060000	-15865.290000	8549.775000	295177.725000	305253.270000	292562.730000	-10756.305000	-32765.940000	-8.036707	-1.347409	2.120660	10.679565	11.011961	10.951126	-11.679929	-12.247869	-2.807840	0.930860	-0.106820	-0.616331	-0.048096	0.775877	-1.000000	-1.000000	-1.000000	-1.000000	-1.000000	-1.000000	-1.000000	52.000000	0.000000	-1.000000	-1.000000	406633.000000	1775787726.724297
-19726.740000	-15870.915000	8544.555000	295159.455000	305235.135000	292543.875000	-10764.315000	-32774.760000	-6.153309	-1.608751	0.572572	5.262246	5.262024	5.078181	-9.948334	-11.661262	-2.807840	0.930860	-0.106820	-0.616331	-0.048096	0.775877	-1.000000	-1.000000	-1.000000	-1.000000	-1.000000	-1.000000	-1.000000	52.000000	0.000000	-1.000000	-1.000000	406634.000000	1775787726.724322
-19727.910000	-15872.445000	8543.250000	295156.755000	305232.525000	292540.995000	-10763.055000	-32778.180000	-3.272292	-1.459426	-0.625604	5.187877	4.987634	4.661629	-5.143695	-8.697355	-2.807840	0.930860	-0.106820	-0.616331	-0.048096	0.775877	-1.000000	-1.000000	-1.000000	-1.000000	-1.000000	-1.000000	-1.000000	52.000000	0.000000	-1.000000	-1.000000	406635.000000	1775787726.724348
-19724.355000	-15863.940000	8554.635000	295149.060000	305224.785000	292533.705000	-10755.765000	-32776.065000	-0.660854	-1.231805	-1.247187	6.030330	5.844968	5.443771	0.779231	-4.581944	-2.807840	0.930860	-0.106820	-0.616331	-0.048096	0.775877	-1.000000	-1.000000	-1.000000	-1.000000	-1.000000	-1.000000	-1.000000	52.000000	0.000000	-1.000000	-1.000000	406636.000000	1775787726.724360
-19731.510000	-15873.390000	8544.420000	295149.780000	305225.820000	292534.695000	-10756.980000	-32780.700000	1.335558	-0.701154	-1.081925	2.680281	2.622040	2.351725	6.162851	0.059753	-2.807840	0.930860	-0.106820	-0.616331	-0.048096	0.775877	-1.000000	-1.000000	-1.000000	-1.000000	-1.000000	-1.000000	-1.000000	52.000000	0.000000	-1.000000	-1.000000	406637.000000	1775787726.724374
-19745.100000	-15882.345000	8537.985000	295151.940000	305228.610000	292537.215000	-10758.330000	-32785.380000	2.257827	-0.209282	-0.705337	-3.780408	-3.705348	-3.666786	9.348934	4.256850	-2.807840	0.930860	-0.106820	-0.616331	-0.048096	0.775877	-1.000000	-1.000000	-1.000000	-1.000000	-1.000000	-1.000000	-1.000000	52.000000	0.000000	-1.000000	-1.000000	406638.000000	1775787726.724404
-19736.865000	-15880.275000	8537.895000	295152.705000	305229.330000	292537.845000	-10753.200000	-32779.755000	1.779178	-0.457277	-1.065623	-9.031521	-8.865596	-8.532426	9.194826	6.843998	-2.807840	0.930860	-0.106820	-0.616331	-0.048096	0.775877	-1.000000	-1.000000	-1.000000	-1.000000	-1.000000	-1.000000	-1.000000	52.000000	0.000000	-1.000000	-1.000000	406639.000000	1775787726.724429
-19736.280000	-15883.785000	8531.280000	295137.495000	305213.580000	292522.275000	-10751.535000	-32777.460000	1.054563	-0.944126	-1.856008	-10.349793	-10.183526	-9.731760	6.249118	7.619531	-2.807840	0.930860	-0.106820	-0.616331	-0.048096	0.775877	-1.000000	-1.000000	-1.000000	-1.000000	-1.000000	-1.000000	-1.000000	52.000000	0.000000	-1.000000	-1.000000	406640.000000	1775787726.724436
-19738.890000	-15886.935000	8524.755000	295091.595000	305166.645000	292475.970000	-10751.805000	-32777.100000	1.449751	-0.669946	-2.158167	-9.121427	-9.102999	-8.710666	2.173646	7.033985	-2.304260	1.464960	-1.098720	-0.614989	-0.050476	0.775755	-1.000000	-1.000000	-1.000000	-1.000000	-1.000000	-1.000000	-1.000000	52.000000	0.000000	-1.000000	-1.000000	406641.000000	1775787726.740396
-19743.435000	-15888.690000	8525.520000	295178.400000	305254.350000	292562.010000	-10749.285000	-32779.215000	2.489071	0.419576	-1.575239	-6.721869	-6.951893	-6.728425	-1.572666	5.219947	-2.304260	1.464960	-1.098720	-0.614989	-0.050476	0.775755	-1.000000	-1.000000	-1.000000	-1.000000	-1.000000	-1.000000	-1.000000	52.000000	0.000000	-1.000000	-1.000000	406642.000000	1775787726.740424
-19740.150000	-15885.045000	8529.210000	295166.340000	305242.515000	292549.995000	-10750.365000	-32779.170000	2.844248	1.790281	0.045894	-0.254805	-0.630984	-0.670920	-4.088846	2.270481	-2.304260	1.464960	-1.098720	-0.614989	-0.050476	0.775755	-1.000000	-1.000000	-1.000000	-1.000000	-1.000000	-1.000000	-1.000000	52.000000	0.000000	-1.000000	-1.000000	406643.000000	1775787726.740450
-19736.685000	-15882.165000	8529.030000	295089.480000	305164.935000	292473.495000	-10757.790000	-32780.340000	2.262969	3.069810	2.513461	8.709095	8.429009	8.110548	-5.185309	-1.099438	-2.304260	1.464960	-1.098720	-0.614989	-0.050476	0.775755	-1.000000	-1.000000	-1.000000	-1.000000	-1.000000	-1.000000	-1.000000	52.000000	0.000000	-1.000000	-1.000000	406644.000000	1775787726.740462
-19735.785000	-15878.745000	8535.105000	295163.865000	305240.085000	292547.925000	-10762.335000	-32785.605000	1.417375	3.953602	4.867377	11.855023	11.821855	11.402837	-5.344294	-3.851249	-2.304260	1.464960	-1.098720	-0.614989	-0.050476	0.775755	-1.000000	-1.000000	-1.000000	-1.000000	-1.000000	-1.000000	-1.000000	52.000000	0.000000	-1.000000	-1.000000	406645.000000	1775787726.740476
-19733.715000	-15876.045000	8539.110000	295169.850000	305246.880000	292553.910000	-10764.180000	-32787.405000	0.697459	4.007065	6.003338	8.721852	8.941930	8.639495	-4.873056	-5.316727	-2.304260	1.464960	-1.098720	-0.614989	-0.050476	0.775755	-1.000000	-1.000000	-1.000000	-1.000000	-1.000000	-1.000000	-1.000000	52.000000	0.000000	-1.000000	-1.000000	406646.000000	1775787726.740487
-19733.895000	-15874.290000	8540.505000	295151.310000	305228.070000	292535.415000	-10762.965000	-32787.990000	-0.023667	2.929873	5.376938	5.545145	5.951190	5.823547	-3.442229	-5.230965	-2.304260	1.464960	-1.098720	-0.614989	-0.050476	0.775755	-1.000000	-1.000000	-1.000000	-1.000000	-1.000000	-1.000000	-1.000000	52.000000	0.000000	-1.000000	-1.000000	406647.000000	1775787726.740502
-19734.165000	-15873.480000	8542.395000	295152.345000	305229.330000	292536.405000	-10753.290000	-32781.825000	-0.916987	0.861863	3.039031	2.859370	3.303429	3.308380	-0.651049	-3.500031	-2.304260	1.464960	-1.098720	-0.614989	-0.050476	0.775755	-1.000000	-1.000000	-1.000000	-1.000000	-1.000000	-1.000000	-1.000000	52.000000	0.000000	-1.000000	-1.000000	406648.000000	1775787726.740513
-19735.920000	-15876.945000	8538.795000	295158.015000	305234.910000	292541.400000	-10747.620000	-32775.615000	-1.927201	-1.671702	-0.397245	-1.390105	-1.103560	-1.011162	3.215907	-0.367000	-2.304260	1.464960	-1.098720	-0.614989	-0.050476	0.775755	-1.000000	-1.000000	-1.000000	-1.000000	-1.000000	-1.000000	-1.000000	52.000000	0.000000	-1.000000	-1.000000	406649.000000	1775787726.754988
-19733.895000	-15876.540000	8539.470000	295150.905000	305227.485000	292533.885000	-10752.075000	-32773.905000	-2.705481	-3.963976	-3.881643	-5.927601	-5.930610	-5.805366	6.607874	3.154831	-2.304260	1.464960	-1.098720	-0.614989	-0.050476	0.775755	-1.000000	-1.000000	-1.000000	-1.000000	-1.000000	-1.000000	-1.000000	52.000000	0.000000	-1.000000	-1.000000	406650.000000	1775787726.755015
-19732.455000	-15877.620000	8538.615000	295155.945000	305232.660000	292538.475000	-10754.145000	-32775.795000	-2.739228	-5.222537	-6.198725	-8.427510	-8.721312	-8.618641	7.289935	5.318990	-1.144500	2.578940	-0.381500	-0.609862	-0.050842	0.776121	-1.000000	-1.000000	-1.000000	-1.000000	-1.000000	-1.000000	-1.000000	52.000000	0.000000	-1.000000	-1.000000	406651.000000	1775787726.755043
-19741.635000	-15883.605000	8534.385000	295142.175000	305218.575000	292524.660000	-10754.190000	-32782.635000	-1.987318	-5.002264	-6.551257	-8.091623	-8.551346	-8.491021	4.467238	4.673359	-1.144500	2.578940	-0.381500	-0.609862	-0.050842	0.776121	-1.000000	-1.000000	-1.000000	-1.000000	-1.000000	-1.000000	-1.000000	52.000000	0.000000	-1.000000	-1.000000	406652.000000	1775787726.755055
-19754.640000	-15889.770000	8530.110000	295048.755000	305123.670000	292431.645000	-10754.505000	-32782.815000	-1.379529	-3.701155	-5.153728	-7.407557	-7.877838	-7.793545	-0.196169	1.347670	-1.144500	2.578940	-0.381500	-0.609862	-0.050842	0.776121	-1.000000	-1.000000	-1.000000	-1.000000	-1.000000	-1.000000	-1.000000	52.000000	0.000000	-1.000000	-1.000000	406653.000000	1775787726.755069
-19769.400000	-15901.245000	8525.745000	295145.505000	305221.410000	292528.665000	-10761.570000	-32789.070000	-1.934362	-2.218191	-2.908366	-8.442428	-8.822755	-8.586284	-4.212276	-2.788707	-1.144500	2.578940	-0.381500	-0.609862	-0.050842	0.776121	-1.000000	-1.000000	-1.000000	-1.000000	-1.000000	-1.000000	-1.000000	52.000000	0.000000	-1.000000	-1.000000	406654.000000	1775787726.755080
-19756.260000	-15892.065000	8533.845000	295190.235000	305267.715000	292573.935000	-10757.475000	-32787.855000	-2.945739	-0.879317	-0.418527	-4.870798	-5.030225	-4.662520	-6.063310	-5.468671	-1.144500	2.578940	-0.381500	-0.609862	-0.050842	0.776121	-1.000000	-1.000000	-1.000000	-1.000000	-1.000000	-1.000000	-1.000000	52.000000	0.000000	-1.000000	-1.000000	406655.000000	1775787726.758702
-19726.695000	-15875.280000	8538.210000	295153.515000	305230.770000	292537.035000	-10748.070000	-32776.425000	-1.503173	1.313180	2.357974	8.477223	8.719786	8.960182	-5.155974	-5.205651	-1.144500	2.578940	-0.381500	-0.609862	-0.050842	0.776121	-1.000000	-1.000000	-1.000000	-1.000000	-1.000000	-1.000000	-1.000000	52.000000	0.000000	-1.000000	-1.000000	406656.000000	1775787726.758723
-19727.460000	-15876.900000	8534.340000	295152.075000	305229.285000	292535.415000	-10749.960000	-32779.980000	4.126951	5.063328	5.035137	21.856011	22.497830	22.378013	-1.810997	-1.954867	-1.144500	2.578940	-0.381500	-0.609862	-0.050842	0.776121	-1.000000	-1.000000	-1.000000	-1.000000	-1.000000	-1.000000	-1.000000	52.000000	0.000000	-1.000000	-1.000000	406657.000000	1775787726.759352
-19722.420000	-15876.360000	8534.880000	295146.495000	305223.255000	292528.845000	-10755.675000	-32782.590000	10.707366	8.452059	6.209310	22.439958	23.174969	22.718369	1.982545	2.226713	-1.144500	2.578940	-0.381500	-0.609862	-0.050842	0.776121	-1.000000	-1.000000	-1.000000	-1.000000	-1.000000	-1.000000	-1.000000	52.000000	0.000000	-1.000000	-1.000000	406658.000000	1775787726.759368
-19723.590000	-15868.935000	8544.060000	295150.185000	305226.945000	292531.860000	-10755.585000	-32780.070000	12.711880	8.645658	5.120356	10.027874	10.461105	9.873580	3.721808	4.584462	-1.144500	2.578940	-0.381500	-0.609862	-0.050842	0.776121	-1.000000	-1.000000	-1.000000	-1.000000	-1.000000	-1.000000	-1.000000	52.000000	0.000000	-1.000000	-1.000000	406659.000000	1775787726.763645
-19726.200000	-15871.365000	8539.470000	295147.845000	305224.695000	292529.700000	-10755.585000	-32781.555000	7.982006	5.178633	2.648221	-5.989006	-6.052741	-6.548699	2.807075	4.181779	-1.144500	2.578940	-0.381500	-0.609862	-0.050842	0.776121	-1.000000	-1.000000	-1.000000	-1.000000	-1.000000	-1.000000	-1.000000	52.000000	0.000000	-1.000000	-1.000000	406660.000000	1775787726.763668
-19730.475000	-15872.490000	8538.840000	295152.660000	305229.735000	292534.560000	-10754.190000	-32785.155000	-1.039024	-0.224677	-0.121259	-16.437746	-16.891627	-17.130106	0.704387	1.937275	-1.922760	1.785420	0.305200	-0.610899	-0.050537	0.776121	-1.000000	-1.000000	-1.000000	-1.000000	-1.000000	-1.000000	-1.000000	52.000000	0.000000	-1.000000	-1.000000	406661.000000	1775787726.766997
-19726.245000	-15871.320000	8539.245000	295147.620000	305224.830000	292530.060000	-10757.160000	-32783.535000	-9.617017	-5.323393	-2.618871	-17.734980	-18.289001	-18.188100	-0.924755	-0.730092	-1.922760	1.785420	0.305200	-0.610899	-0.050537	0.776121	-1.000000	-1.000000	-1.000000	-1.000000	-1.000000	-1.000000	-1.000000	52.000000	0.000000	-1.000000	-1.000000	406662.000000	1775787726.767015
-19721.295000	-15868.620000	8543.700000	295149.195000	305226.585000	292531.635000	-10758.420000	-32778.135000	-13.507857	-8.137499	-4.115140	-11.929055	-12.312844	-11.903239	-1.506236	-2.416946	-1.922760	1.785420	0.305200	-0.610899	-0.050537	0.776121	-1.000000	-1.000000	-1.000000	-1.000000	-1.000000	-1.000000	-1.000000	52.000000	0.000000	-1.000000	-1.000000	406663.000000	1775787726.771352
-19727.370000	-15875.685000	8536.140000	295151.130000	305228.565000	292533.345000	-10762.290000	-32781.645000	-11.428718	-7.872567	-4.088955	-3.515381	-3.611815	-3.046824	-1.368298	-2.342143	-1.922760	1.785420	0.305200	-0.610899	-0.050537	0.776121	-1.000000	-1.000000	-1.000000	-1.000000	-1.000000	-1.000000	-1.000000	52.000000	0.000000	-1.000000	-1.000000	406664.000000	1775787726.771376
-19733.310000	-15876.765000	8536.995000	295152.615000	305230.185000	292534.785000	-10755.405000	-32782.905000	-5.772144	-5.451616	-3.013375	3.715182	3.858455	4.352081	-0.844298	-1.117970	-1.922760	1.785420	0.305200	-0.610899	-0.050537	0.776121	-1.000000	-1.000000	-1.000000	-1.000000	-1.000000	-1.000000	-1.000000	52.000000	0.000000	-1.000000	-1.000000	406665.000000	1775787726.782655
-19742.355000	-15877.980000	8541.585000	295150.410000	305227.440000	292531.770000	-10750.140000	-32784.480000	-0.347444	-2.386318	-1.574863	7.700793	7.936313	8.173186	0.229067	-0.048065	-1.922760	1.785420	0.305200	-0.610899	-0.050537	0.776121	-1.000000	-1.000000	-1.000000	-1.000000	-1.000000	-1.000000	-1.000000	52.000000	0.000000	-1.000000	-1.000000	406666.000000	1775787726.782678
-19760.805000	-15890.175000	8534.970000	295161.435000	305237.970000	292541.760000	-10758.825000	-32802.075000	2.350264	0.228707	-0.004265	8.162831	8.318690	8.240591	1.662255	-0.050755	-1.922760	1.785420	0.305200	-0.610899	-0.050537	0.776121	-1.000000	-1.000000	-1.000000	-1.000000	-1.000000	-1.000000	-1.000000	52.000000	0.000000	-1.000000	-1.000000	406667.000000	1775787726.782702
-19747.260000	-15887.340000	8533.620000	295159.140000	305235.945000	292539.555000	-10774.215000	-32815.935000	2.429736	1.751384	1.222738	6.317220	6.289060	5.964337	1.977658	-1.562594	-1.922760	1.785420	0.305200	-0.610899	-0.050537	0.776121	-1.000000	-1.000000	-1.000000	-1.000000	-1.000000	-1.000000	-1.000000	52.000000	0.000000	-1.000000	-1.000000	406668.000000	1775787726.782711
-19728.180000	-15868.305000	8546.310000	295149.735000	305226.855000	292530.465000	-10776.420000	-32813.820000	2.711830	2.777394	1.813667	3.315178	3.153575	2.738496	-0.017843	-3.765528	-1.922760	1.785420	0.305200	-0.610899	-0.050537	0.776121	-1.000000	-1.000000	-1.000000	-1.000000	-1.000000	-1.000000	-1.000000	52.000000	0.000000	-1.000000	-1.000000	406669.000000	1775787726.789420
-19723.185000	-15860.655000	8553.330000	295126.560000	305203.410000	292507.560000	-10764.945000	-32799.600000	5.686834	4.788444	2.494727	-0.845162	-0.977820	-1.287888	-2.773686	-4.003147	-1.922760	1.785420	0.305200	-0.610899	-0.050537	0.776121	-1.000000	-1.000000	-1.000000	-1.000000	-1.000000	-1.000000	-1.000000	52.000000	0.000000	-1.000000	-1.000000	406670.000000	1775787726.789446
-19710.090000	-15846.390000	8569.440000	295081.785000	305157.825000	292463.460000	-10741.995000	-32769.405000	9.947230	7.660029	3.866663	-6.583857	-6.586799	-6.610937	-2.788323	0.230970	-2.670500	1.052940	-0.122080	-0.615538	-0.050049	0.775206	-1.000000	-1.000000	-1.000000	-1.000000	-1.000000	-1.000000	-1.000000	52.000000	0.000000	-1.000000	-1.000000	406671.000000	1775787726.789477
-19704.600000	-15848.190000	8567.685000	295168.545000	305245.530000	292549.905000	-10735.110000	-32751.720000	11.775192	9.107469	5.145699	-11.115116	-11.020810	-10.695865	1.466079	8.319507	-2.670500	1.052940	-0.122080	-0.615538	-0.050049	0.775206	-1.000000	-1.000000	-1.000000	-1.000000	-1.000000	-1.000000	-1.000000	52.000000	0.000000	-1.000000	-1.000000	406672.000000	1775787726.789490
-19711.530000	-15863.355000	8551.215000	295154.145000	305231.715000	292535.640000	-10745.415000	-32753.340000	8.763503	6.564983	4.251176	-7.855943	-7.704941	-7.221750	6.852659	15.466981	-2.670500	1.052940	-0.122080	-0.615538	-0.050049	0.775206	-1.000000	-1.000000	-1.000000	-1.000000	-1.000000	-1.000000	-1.000000	52.000000	0.000000	-1.000000	-1.000000	406673.000000	1775787726.791534
-19720.890000	-15871.500000	8544.060000	295148.745000	305226.180000	292529.745000	-10751.040000	-32766.300000	1.049133	-0.594373	-0.367863	3.496462	3.720285	4.001331	8.051650	15.430956	-2.670500	1.052940	-0.122080	-0.615538	-0.050049	0.775206	-1.000000	-1.000000	-1.000000	-1.000000	-1.000000	-1.000000	-1.000000	52.000000	0.000000	-1.000000	-1.000000	406674.000000	1775787726.791557
-19728.000000	-15878.745000	8537.805000	295147.845000	305224.695000	292527.990000	-10748.790000	-32773.860000	-8.637224	-9.508046	-7.108337	13.463770	13.717823	13.573473	3.236899	5.955220	-2.670500	1.052940	-0.122080	-0.615538	-0.050049	0.775206	-1.000000	-1.000000	-1.000000	-1.000000	-1.000000	-1.000000	-1.000000	52.000000	0.000000	-1.000000	-1.000000	406675.000000	1775787726.798885
-19729.620000	-15881.400000	8534.880000	295153.560000	305230.410000	292533.345000	-10749.195000	-32777.145000	-15.874945	-15.252540	-11.794890	14.563023	14.699947	14.203409	-4.118017	-8.414840	-2.670500	1.052940	-0.122080	-0.615538	-0.050049	0.775206	-1.000000	-1.000000	-1.000000	-1.000000	-1.000000	-1.000000	-1.000000	52.000000	0.000000	-1.000000	-1.000000	406676.000000	1775787726.798909
-19724.805000	-15873.210000	8541.990000	295157.115000	305234.280000	292536.945000	-10755.765000	-32779.215000	-16.916504	-14.342808	-11.129319	7.923800	7.834193	7.251362	-9.226736	-19.567775	-2.670500	1.052940	-0.122080	-0.615538	-0.050049	0.775206	-1.000000	-1.000000	-1.000000	-1.000000	-1.000000	-1.000000	-1.000000	52.000000	0.000000	-1.000000	-1.000000	406677.000000	1775787726.808610
-19724.895000	-15871.455000	8542.755000	295146.405000	305223.975000	292526.460000	-10763.370000	-32783.040000	-11.085982	-6.898073	-4.978267	-1.174185	-1.431254	-1.830321	-10.063024	-21.854962	-2.670500	1.052940	-0.122080	-0.615538	-0.050049	0.775206	-1.000000	-1.000000	-1.000000	-1.000000	-1.000000	-1.000000	-1.000000	52.000000	0.000000	-1.000000	-1.000000	406678.000000	1775787726.808638
-19726.470000	-15870.915000	8544.285000	295076.295000	305152.965000	292457.115000	-10760.940000	-32780.295000	-1.437256	3.333648	3.554391	-9.693739	-9.960365	-9.998209	-7.358692	-15.178116	-2.670500	1.052940	-0.122080	-0.615538	-0.050049	0.775206	-1.000000	-1.000000	-1.000000	-1.000000	-1.000000	-1.000000	-1.000000	52.000000	0.000000	-1.000000	-1.000000	406679.000000	1775787726.808666
-19730.340000	-15873.345000	8544.015000	295152.885000	305230.185000	292534.110000	-10753.515000	-32783.175000	7.175869	11.166610	10.109288	-16.048924	-16.225927	-15.833827	-2.471574	-3.694392	-2.670500	1.052940	-0.122080	-0.615538	-0.050049	0.775206	-1.000000	-1.000000	-1.000000	-1.000000	-1.000000	-1.000000	-1.000000	52.000000	0.000000	-1.000000	-1.000000	406680.000000	1775787726.808679
-19735.965000	-15881.040000	8537.355000	295142.445000	305220.060000	292523.130000	-10746.540000	-32787.945000	11.157053	13.143453	11.765031	-15.143709	-15.204178	-14.511871	3.357743	7.095247	-2.899400	1.236060	-0.976640	-0.616576	-0.050598	0.774229	-1.000000	-1.000000	-1.000000	-1.000000	-1.000000	-1.000000	-1.000000	52.000000	0.000000	-1.000000	-1.000000	406681.000000	1775787726.817734
-19737.180000	-15880.050000	8537.310000	295091.055000	305167.770000	292471.695000	-10746.855000	-32786.730000	9.921757	9.279448	8.375498	-5.642291	-5.589649	-4.935165	8.302686	13.104042	-2.899400	1.236060	-0.976640	-0.616576	-0.050598	0.774229	-1.000000	-1.000000	-1.000000	-1.000000	-1.000000	-1.000000	-1.000000	52.000000	0.000000	-1.000000	-1.000000	406682.000000	1775787726.817758
-19734.570000	-15877.350000	8540.955000	295177.095000	305254.530000	292556.880000	-10746.675000	-32784.840000	5.637817	2.706962	2.424153	5.487130	5.595549	5.888388	10.150443	13.467357	-2.899400	1.236060	-0.976640	-0.616576	-0.050598	0.774229	-1.000000	-1.000000	-1.000000	-1.000000	-1.000000	-1.000000	-1.000000	52.000000	0.000000	-1.000000	-1.000000	406683.000000	1775787726.817784
-19734.120000	-15882.435000	8534.115000	295161.795000	305239.320000	292540.770000	-10745.640000	-32782.680000	1.373499	-2.758052	-2.776459	13.795232	13.896268	13.680652	7.940220	10.020133	-2.899400	1.236060	-0.976640	-0.616576	-0.050598	0.774229	-1.000000	-1.000000	-1.000000	-1.000000	-1.000000	-1.000000	-1.000000	52.000000	0.000000	-1.000000	-1.000000	406684.000000	1775787726.817796
-19729.215000	-15879.780000	8531.280000	295095.915000	305172.810000	292475.160000	-10747.170000	-32778.135000	-0.962820	-5.222812	-5.502530	16.915318	16.990680	16.342976	2.902030	5.296890	-2.899400	1.236060	-0.976640	-0.616576	-0.050598	0.774229	-1.000000	-1.000000	-1.000000	-1.000000	-1.000000	-1.000000	-1.000000	52.000000	0.000000	-1.000000	-1.000000	406685.000000	1775787726.832075
-19730.295000	-15880.140000	8531.775000	295135.695000	305212.455000	292514.985000	-10751.040000	-32779.080000	-1.288924	-4.865878	-5.809932	10.653583	10.676070	9.932313	-2.581943	1.086193	-2.899400	1.236060	-0.976640	-0.616576	-0.050598	0.774229	-1.000000	-1.000000	-1.000000	-1.000000	-1.000000	-1.000000	-1.000000	52.000000	0.000000	-1.000000	-1.000000	406686.000000	1775787726.832102
-19737.045000	-15885.450000	8531.595000	295173.000000	305250.885000	292552.650000	-10761.345000	-32788.800000	-0.868344	-2.921298	-4.256660	-0.815325	-0.859969	-1.293076	-6.629707	-2.174292	-2.899400	1.236060	-0.976640	-0.616576	-0.050598	0.774229	-1.000000	-1.000000	-1.000000	-1.000000	-1.000000	-1.000000	-1.000000	52.000000	0.000000	-1.000000	-1.000000	406687.000000	1775787726.832128
-19734.480000	-15879.690000	8538.885000	295158.690000	305237.025000	292538.790000	-10761.750000	-32788.485000	-1.058657	-0.835003	-1.477466	-7.034550	-7.060413	-7.023208	-8.373489	-4.818953	-2.899400	1.236060	-0.976640	-0.616576	-0.050598	0.774229	-1.000000	-1.000000	-1.000000	-1.000000	-1.000000	-1.000000	-1.000000	52.000000	0.000000	-1.000000	-1.000000	406688.000000	1775787726.832140
-19737.765000	-15883.380000	8534.745000	295154.730000	305233.110000	292534.470000	-10758.465000	-32791.230000	-1.945643	0.644946	1.588216	-5.894186	-5.787507	-5.420328	-7.356141	-6.552095	-2.899400	1.236060	-0.976640	-0.616576	-0.050598	0.774229	-1.000000	-1.000000	-1.000000	-1.000000	-1.000000	-1.000000	-1.000000	52.000000	0.000000	-1.000000	-1.000000	406689.000000	1775787726.832263
-19735.785000	-15880.230000	8538.795000	295153.515000	305231.670000	292532.760000	-10762.155000	-32795.865000	-2.603031	1.426360	3.669822	-3.216937	-2.999009	-2.558730	-3.685537	-6.554654	-2.899400	1.236060	-0.976640	-0.616576	-0.050598	0.774229	-1.000000	-1.000000	-1.000000	-1.000000	-1.000000	-1.000000	-1.000000	52.000000	0.000000	-1.000000	-1.000000	406690.000000	1775787726.832281
-19731.060000	-15874.065000	8546.220000	295131.555000	305209.215000	292510.260000	-10763.910000	-32796.405000	-2.214162	1.698403	4.062968	-3.224956	-3.066669	-2.753161	1.101006	-4.712345	-2.548420	1.220800	0.305200	-0.614439	-0.053894	0.774778	-1.000000	-1.000000	-1.000000	-1.000000	-1.000000	-1.000000	-1.000000	52.000000	0.000000	-1.000000	-1.000000	406691.000000	1775787726.832303
-19732.230000	-15877.395000	8538.480000	295085.115000	305161.650000	292463.550000	-10761.975000	-32796.090000	-0.685275	1.740249	3.043119	-6.642362	-6.735733	-6.595030	4.823271	-1.687753	-2.548420	1.220800	0.305200	-0.614439	-0.053894	0.774778	-1.000000	-1.000000	-1.000000	-1.000000	-1.000000	-1.000000	-1.000000	52.000000	0.000000	-1.000000	-1.000000	406692.000000	1775787726.832315
-19729.215000	-15872.715000	8543.745000	295174.755000	305252.415000	292552.830000	-10757.835000	-32791.905000	1.167955	1.452226	1.036907	-10.182117	-10.576521	-10.537658	6.396612	1.661958	-2.548420	1.220800	0.305200	-0.614439	-0.053894	0.774778	-1.000000	-1.000000	-1.000000	-1.000000	-1.000000	-1.000000	-1.000000	52.000000	0.000000	-1.000000	-1.000000	406693.000000	1775787726.838598
-19733.805000	-15877.800000	8539.470000	295159.140000	305236.845000	292537.350000	-10757.070000	-32789.790000	2.198893	0.579227	-1.364518	-6.719945	-7.218100	-7.245730	6.037240	4.477841	-2.548420	1.220800	0.305200	-0.614439	-0.053894	0.774778	-1.000000	-1.000000	-1.000000	-1.000000	-1.000000	-1.000000	-1.000000	52.000000	0.000000	-1.000000	-1.000000	406694.000000	1775787726.838626
-19737.720000	-15884.820000	8534.070000	295160.085000	305238.150000	292538.610000	-10756.170000	-32788.170000	1.723115	-0.932842	-3.349872	4.635784	4.354028	4.236527	4.320221	5.924999	-2.548420	1.220800	0.305200	-0.614439	-0.053894	0.774778	-1.000000	-1.000000	-1.000000	-1.000000	-1.000000	-1.000000	-1.000000	52.000000	0.000000	-1.000000	-1.000000	406695.000000	1775787726.838655
-19730.475000	-15877.890000	8540.370000	295152.075000	305230.365000	292530.870000	-10754.820000	-32780.565000	0.122569	-2.656751	-4.297196	14.685533	14.800309	14.624348	1.795746	5.572393	-2.548420	1.220800	0.305200	-0.614439	-0.053894	0.774778	-1.000000	-1.000000	-1.000000	-1.000000	-1.000000	-1.000000	-1.000000	52.000000	0.000000	-1.000000	-1.000000	406696.000000	1775787726.838666
-19735.875000	-15878.655000	8540.595000	295149.645000	305228.160000	292528.890000	-10762.965000	-32789.925000	-1.271048	-3.384806	-3.627043	15.494013	15.937040	15.802835	-0.995569	3.590817	-2.548420	1.220800	0.305200	-0.614439	-0.053894	0.774778	-1.000000	-1.000000	-1.000000	-1.000000	-1.000000	-1.000000	-1.000000	52.000000	0.000000	-1.000000	-1.000000	406697.000000	1775787726.841041
-19741.005000	-15880.455000	8541.855000	295090.695000	305168.220000	292469.580000	-10772.775000	-32803.335000	-1.722520	-2.367012	-1.372170	6.605485	7.126199	7.130249	-3.754365	0.118575	-2.548420	1.220800	0.305200	-0.614439	-0.053894	0.774778	-1.000000	-1.000000	-1.000000	-1.000000	-1.000000	-1.000000	-1.000000	52.000000	0.000000	-1.000000	-1.000000	406698.000000	1775787726.841063
-19749.375000	-15890.040000	8533.260000	295140.645000	305218.485000	292518.945000	-10773.315000	-32807.970000	-1.765907	-0.537707	1.152930	-6.627229	-6.319836	-6.160650	-6.018242	-4.392876	-2.548420	1.220800	0.305200	-0.614439	-0.053894	0.774778	-1.000000	-1.000000	-1.000000	-1.000000	-1.000000	-1.000000	-1.000000	52.000000	0.000000	-1.000000	-1.000000	406699.000000	1775787726.852318
-19754.550000	-15898.455000	8525.250000	295176.735000	305254.980000	292554.180000	-10763.235000	-32804.235000	-1.974559	0.439256	2.182313	-14.030831	-14.071711	-13.893713	-6.402807	-7.901751	-2.548420	1.220800	0.305200	-0.614439	-0.053894	0.774778	-1.000000	-1.000000	-1.000000	-1.000000	-1.000000	-1.000000	-1.000000	52.000000	0.000000	-1.000000	-1.000000	406700.000000	1775787726.852342
-19750.050000	-15884.685000	8538.930000	295153.875000	305232.030000	292531.050000	-10746.630000	-32790.330000	-1.938421	0.283972	1.424120	-8.974283	-9.254189	-9.280588	-3.382728	-7.581395	-0.640920	0.289940	0.167860	-0.613280	-0.057617	0.774961	-1.000000	-1.000000	-1.000000	-1.000000	-1.000000	-1.000000	-1.000000	52.000000	0.000000	-1.000000	-1.000000	406701.000000	1775787726.852370
-19734.795000	-15868.890000	8547.660000	295085.295000	305162.685000	292462.695000	-10743.930000	-32780.655000	-0.431928	0.842981	0.801378	1.318991	1.000262	0.709336	2.516718	-2.501394	-0.640920	0.289940	0.167860	-0.613280	-0.057617	0.774961	-1.000000	-1.000000	-1.000000	-1.000000	-1.000000	-1.000000	-1.000000	52.000000	0.000000	-1.000000	-1.000000	406702.000000	1775787726.852382
-19724.670000	-15869.565000	8546.625000	295155.405000	305233.605000	292533.030000	-10749.420000	-32775.390000	3.179485	3.421459	1.853100	5.269137	5.033031	4.690621	7.797919	4.844210	-0.640920	0.289940	0.167860	-0.613280	-0.057617	0.774961	-1.000000	-1.000000	-1.000000	-1.000000	-1.000000	-1.000000	-1.000000	52.000000	0.000000	-1.000000	-1.000000	406703.000000	1775787726.852396
-19724.580000	-15875.640000	8538.210000	295160.445000	305239.365000	292538.430000	-10761.885000	-32781.555000	7.291115	6.034131	3.246565	3.563182	3.478971	3.339003	8.352326	9.867533	-0.640920	0.289940	0.167860	-0.613280	-0.057617	0.774961	-1.000000	-1.000000	-1.000000	-1.000000	-1.000000	-1.000000	-1.000000	52.000000	0.000000	-1.000000	-1.000000	406704.000000	1775787726.852406
-19728.495000	-15878.565000	8536.995000	295146.585000	305225.730000	292524.930000	-10758.150000	-32783.445000	8.636686	5.443758	2.588685	3.177171	3.307351	3.426906	3.355931	9.207665	-0.640920	0.289940	0.167860	-0.613280	-0.057617	0.774961	-1.000000	-1.000000	-1.000000	-1.000000	-1.000000	-1.000000	-1.000000	52.000000	0.000000	-1.000000	-1.000000	406705.000000	1775787726.863846
-19738.755000	-15888.645000	8526.510000	295152.885000	305232.120000	292531.095000	-10759.140000	-32793.300000	5.144861	0.995121	-0.504168	4.228176	4.546706	4.818193	-3.618410	3.191097	-0.640920	0.289940	0.167860	-0.613280	-0.057617	0.774961	-1.000000	-1.000000	-1.000000	-1.000000	-1.000000	-1.000000	-1.000000	52.000000	0.000000	-1.000000	-1.000000	406706.000000	1775787726.863870
-19742.715000	-15893.640000	8521.470000	295152.795000	305231.670000	292530.600000	-10756.845000	-32795.595000	-2.003911	-4.952153	-4.302069	3.401535	3.744317	4.026116	-7.884802	-4.675641	-0.640920	0.289940	0.167860	-0.613280	-0.057617	0.774961	-1.000000	-1.000000	-1.000000	-1.000000	-1.000000	-1.000000	-1.000000	52.000000	0.000000	-1.000000	-1.000000	406707.000000	1775787726.869824
-19731.420000	-15878.520000	8535.330000	295073.955000	305151.615000	292450.995000	-10750.725000	-32783.445000	-8.726468	-8.758195	-6.290168	-1.030094	-0.894284	-0.695270	-7.332455	-9.893261	-0.640920	0.289940	0.167860	-0.613280	-0.057617	0.774961	-1.000000	-1.000000	-1.000000	-1.000000	-1.000000	-1.000000	-1.000000	52.000000	0.000000	-1.000000	-1.000000	406708.000000	1775787726.869850
-19742.715000	-15880.770000	8535.510000	295090.920000	305167.905000	292467.645000	-10753.380000	-32781.915000	-10.960947	-7.684541	-4.533972	-9.232288	-9.475881	-9.364310	-3.100121	-9.436395	-0.640920	0.289940	0.167860	-0.613280	-0.057617	0.774961	-1.000000	-1.000000	-1.000000	-1.000000	-1.000000	-1.000000	-1.000000	52.000000	0.000000	-1.000000	-1.000000	406709.000000	1775787726.869878
-19738.800000	-15881.670000	8539.200000	295183.395000	305261.685000	292559.760000	-10765.980000	-32789.205000	-8.109853	-2.460093	0.315812	-14.489711	-15.061846	-15.021082	1.543485	-4.181841	-0.640920	0.289940	0.167860	-0.613280	-0.057617	0.774961	-1.000000	-1.000000	-1.000000	-1.000000	-1.000000	-1.000000	-1.000000	52.000000	0.000000	-1.000000	-1.000000	406710.000000	1775787726.869889
-19721.835000	-15871.725000	8546.580000	295160.895000	305239.545000	292537.260000	-10771.290000	-32792.265000	-2.331645	3.352863	5.251130	-7.117121	-7.677145	-7.777073	3.425953	1.684628	0.350980	0.091560	0.427280	-0.611815	-0.058960	0.775572	-1.000000	-1.000000	-1.000000	-1.000000	-1.000000	-1.000000	-1.000000	52.000000	0.000000	-1.000000	-1.000000	406711.000000	1775787726.869903
-19738.755000	-15876.045000	8542.980000	295151.940000	305230.905000	292529.025000	-10767.465000	-32801.490000	3.780074	6.799587	7.552339	9.234883	9.084134	8.777380	2.185120	4.535048	0.350980	0.091560	0.427280	-0.611815	-0.058960	0.775572	-1.000000	-1.000000	-1.000000	-1.000000	-1.000000	-1.000000	-1.000000	52.000000	0.000000	-1.000000	-1.000000	406712.000000	1775787726.869913
-19772.595000	-15895.575000	8536.230000	295154.505000	305233.785000	292532.175000	-10761.480000	-32806.755000	6.645421	6.431921	6.054201	19.765551	20.148367	19.754388	0.362491	3.710331	0.350980	0.091560	0.427280	-0.611815	-0.058960	0.775572	-1.000000	-1.000000	-1.000000	-1.000000	-1.000000	-1.000000	-1.000000	52.000000	0.000000	-1.000000	-1.000000	406713.000000	1775787726.876086
-19761.930000	-15899.805000	8531.955000	295148.880000	305227.800000	292526.280000	-10765.215000	-32805.675000	3.849374	2.107751	1.330810	16.679772	17.375114	17.143214	0.253301	1.058921	0.350980	0.091560	0.427280	-0.611815	-0.058960	0.775572	-1.000000	-1.000000	-1.000000	-1.000000	-1.000000	-1.000000	-1.000000	52.000000	0.000000	-1.000000	-1.000000	406714.000000	1775787726.876109
-19736.820000	-15883.245000	8540.235000	295158.195000	305237.070000	292535.145000	-10760.985000	-32796.990000	-1.065082	-3.428082	-4.038540	4.306001	4.924696	5.000240	1.635153	-0.636845	0.350980	0.091560	0.427280	-0.611815	-0.058960	0.775572	-1.000000	-1.000000	-1.000000	-1.000000	-1.000000	-1.000000	-1.000000	52.000000	0.000000	-1.000000	-1.000000	406715.000000	1775787726.882122
-19708.155000	-15853.950000	8554.995000	295114.230000	305192.880000	292490.685000	-10752.165000	-32776.650000	-1.313186	-5.148022	-6.520888	-9.017150	-8.785148	-8.482487	3.064395	0.589004	0.350980	0.091560	0.427280	-0.611815	-0.058960	0.775572	-1.000000	-1.000000	-1.000000	-1.000000	-1.000000	-1.000000	-1.000000	52.000000	0.000000	-1.000000	-1.000000	406716.000000	1775787726.882146
-19710.450000	-15861.240000	8546.310000	295098.345000	305175.690000	292473.945000	-10751.625000	-32771.745000	4.617508	-0.891489	-4.610333	-18.291890	-18.538214	-18.212780	3.680281	4.415194	0.350980	0.091560	0.427280	-0.611815	-0.058960	0.775572	-1.000000	-1.000000	-1.000000	-1.000000	-1.000000	-1.000000	-1.000000	52.000000	0.000000	-1.000000	-1.000000	406717.000000	1775787726.882172
-19723.230000	-15875.055000	8537.445000	295172.145000	305250.390000	292547.520000	-10752.930000	-32780.115000	10.523640	4.988315	-0.797479	-20.113909	-20.716003	-20.529225	2.994378	7.674535	0.350980	0.091560	0.427280	-0.611815	-0.058960	0.775572	-1.000000	-1.000000	-1.000000	-1.000000	-1.000000	-1.000000	-1.000000	52.000000	0.000000	-1.000000	-1.000000	406718.000000	1775787726.882184
-19724.220000	-15877.215000	8529.390000	295056.585000	305133.660000	292432.455000	-10753.740000	-32777.910000	9.387786	6.112930	1.057539	-12.634917	-13.314862	-13.308185	0.762965	6.667857	0.350980	0.091560	0.427280	-0.611815	-0.058960	0.775572	-1.000000	-1.000000	-1.000000	-1.000000	-1.000000	-1.000000	-1.000000	52.000000	0.000000	-1.000000	-1.000000	406719.000000	1775787726.897597
-19722.465000	-15872.040000	8532.855000	295073.505000	305150.400000	292449.780000	-10752.120000	-32776.380000	0.987825	1.465842	0.005371	-2.240655	-2.717624	-2.779562	-2.282647	1.147188	0.350980	0.091560	0.427280	-0.611815	-0.058960	0.775572	-1.000000	-1.000000	-1.000000	-1.000000	-1.000000	-1.000000	-1.000000	52.000000	0.000000	-1.000000	-1.000000	406720.000000	1775787726.897621
-19724.355000	-15869.880000	8541.045000	295176.870000	305255.520000	292553.370000	-10752.390000	-32780.880000	-8.741638	-4.413972	-1.510437	5.651251	5.544337	5.560154	-4.636275	-5.518093	0.289940	0.473060	1.556520	-0.611998	-0.058899	0.775511	-1.000000	-1.000000	-1.000000	-1.000000	-1.000000	-1.000000	-1.000000	52.000000	0.000000	-1.000000	-1.000000	406721.000000	1775787726.897647
-19723.860000	-15868.980000	8545.410000	295181.955000	305261.550000	292558.500000	-10753.920000	-32783.130000	-13.949892	-7.055436	-0.832470	15.589112	15.948906	15.982846	-5.230115	-9.846952	0.289940	0.473060	1.556520	-0.611998	-0.058899	0.775511	-1.000000	-1.000000	-1.000000	-1.000000	-1.000000	-1.000000	-1.000000	52.000000	0.000000	-1.000000	-1.000000	406722.000000	1775787726.897658
-19724.445000	-15872.670000	8541.450000	295159.905000	305239.230000	292535.955000	-10754.640000	-32783.220000	-12.736047	-5.645015	1.931746	26.797030	27.592457	27.428786	-4.116434	-10.322419	0.289940	0.473060	1.556520	-0.611998	-0.058899	0.775511	-1.000000	-1.000000	-1.000000	-1.000000	-1.000000	-1.000000	-1.000000	52.000000	0.000000	-1.000000	-1.000000	406723.000000	1775787726.897672
-19728.855000	-15876.315000	8537.310000	295152.255000	305231.220000	292527.630000	-10754.100000	-32783.445000	-6.952988	-2.280245	4.202544	27.814519	28.741793	28.313030	-2.039858	-7.239999	0.289940	0.473060	1.556520	-0.611998	-0.058899	0.775511	-1.000000	-1.000000	-1.000000	-1.000000	-1.000000	-1.000000	-1.000000	52.000000	0.000000	-1.000000	-1.000000	406724.000000	1775787726.897682
-19732.140000	-15878.610000	8535.645000	295150.455000	305228.970000	292525.200000	-10757.340000	-32786.280000	-0.172902	0.606485	3.856422	13.201809	13.790816	13.283263	0.150148	-2.213083	0.289940	0.473060	1.556520	-0.611998	-0.058899	0.775511	-1.000000	-1.000000	-1.000000	-1.000000	-1.000000	-1.000000	-1.000000	53.000000	0.000000	-1.000000	-1.000000	406725.000000	1775787726.897694
-19735.470000	-15880.275000	8536.005000	295127.820000	305205.975000	292502.115000	-10764.945000	-32793.210000	4.650942	1.985955	1.236507	-9.338858	-9.408713	-9.718671	1.600050	2.460811	0.289940	0.473060	1.556520	-0.611998	-0.058899	0.775511	-1.000000	-1.000000	-1.000000	-1.000000	-1.000000	-1.000000	-1.000000	53.000000	0.000000	-1.000000	-1.000000	406726.000000	1775787726.897704
-19723.815000	-15868.395000	8540.370000	294877.755000	304952.130000	292252.635000	-10759.725000	-32783.040000	6.723731	2.417819	-1.545457	-32.034177	-32.792096	-32.655978	1.894289	5.183954	0.289940	0.473060	1.556520	-0.611998	-0.058899	0.775511	-1.000000	-1.000000	-1.000000	-1.000000	-1.000000	-1.000000	-1.000000	53.000000	0.000000	-1.000000	-1.000000	406727.000000	1775787726.900601
-19728.630000	-15871.275000	8540.145000	295110.405000	305186.535000	292485.780000	-10755.360000	-32788.215000	6.981272	2.970770	-2.652179	-49.367257	-50.600879	-49.858180	1.736880	5.987581	0.289940	0.473060	1.556520	-0.611998	-0.058899	0.775511	-1.000000	-1.000000	-1.000000	-1.000000	-1.000000	-1.000000	-1.000000	53.000000	0.000000	-1.000000	-1.000000	406728.000000	1775787726.900629
-19737.045000	-15879.465000	8538.255000	295233.930000	305313.210000	292608.900000	-10756.530000	-32798.250000	5.959554	3.447377	-1.940330	-42.217152	-43.382831	-42.281424	2.067361	5.263003	0.289940	0.473060	1.556520	-0.611998	-0.058899	0.775511	-1.000000	-1.000000	-1.000000	-1.000000	-1.000000	-1.000000	-1.000000	53.000000	0.000000	-1.000000	-1.000000	406729.000000	1775787726.904042
-19738.845000	-15882.480000	8534.835000	295167.960000	305247.375000	292543.020000	-10760.535000	-32798.970000	3.332414	2.518497	-0.666774	0.890883	0.560947	1.262851	2.553224	2.958410	0.289940	0.473060	1.556520	-0.611998	-0.058899	0.775511	-1.000000	-1.000000	-1.000000	-1.000000	-1.000000	-1.000000	-1.000000	53.000000	0.000000	-1.000000	-1.000000	406730.000000	1775787726.904070
-19736.865000	-15880.500000	8536.455000	295160.805000	305240.130000	292535.505000	-10761.480000	-32802.660000	-0.218101	0.077135	0.032959	50.873057	51.725500	51.427891	2.124493	-0.140993	-0.015260	0.457800	2.090620	-0.612059	-0.058533	0.776243	-1.000000	-1.000000	-1.000000	-1.000000	-1.000000	-1.000000	-1.000000	53.000000	0.000000	-1.000000	-1.000000	406731.000000	1775787726.914057
-19739.700000	-15884.595000	8532.810000	295152.210000	305231.265000	292526.235000	-10766.430000	-32810.535000	-2.857982	-2.264981	0.043405	67.693608	69.252440	68.111826	0.509973	-2.526733	-0.015260	0.457800	2.090620	-0.612059	-0.058533	0.776243	-1.000000	-1.000000	-1.000000	-1.000000	-1.000000	-1.000000	-1.000000	53.000000	0.000000	-1.000000	-1.000000	406732.000000	1775787726.914086
-19742.760000	-15885.720000	8531.370000	295154.325000	305233.785000	292528.260000	-10764.180000	-32809.950000	-3.541899	-3.137600	-0.219910	43.608624	44.975434	43.684170	-1.462474	-3.353001	-0.015260	0.457800	2.090620	-0.612059	-0.058533	0.776243	-1.000000	-1.000000	-1.000000	-1.000000	-1.000000	-1.000000	-1.000000	53.000000	0.000000	-1.000000	-1.000000	406733.000000	1775787726.914115
-19743.975000	-15881.715000	8534.565000	295149.420000	305228.835000	292522.725000	-10763.730000	-32809.680000	-2.689764	-2.357705	-0.335630	0.323929	0.845612	0.054480	-2.563073	-2.491254	-0.015260	0.457800	2.090620	-0.612059	-0.058533	0.776243	-1.000000	-1.000000	-1.000000	-1.000000	-1.000000	-1.000000	-1.000000	53.000000	0.000000	-1.000000	-1.000000	406734.000000	1775787726.914128
-19727.955000	-15861.645000	8557.020000	295146.585000	305225.685000	292519.800000	-10751.355000	-32790.645000	-0.914242	-0.073943	0.451994	-35.584417	-36.010325	-36.030528	-1.916616	0.021635	-0.015260	0.457800	2.090620	-0.612059	-0.058533	0.776243	-1.000000	-1.000000	-1.000000	-1.000000	-1.000000	-1.000000	-1.000000	53.000000	0.000000	-1.000000	-1.000000	406735.000000	1775787726.923219
-19724.265000	-15863.895000	8554.005000	295140.735000	305220.015000	292514.130000	-10747.845000	-32776.470000	1.668305	3.257261	2.631293	-49.323183	-50.363919	-49.714432	0.421477	3.921673	-0.015260	0.457800	2.090620	-0.612059	-0.058533	0.776243	-1.000000	-1.000000	-1.000000	-1.000000	-1.000000	-1.000000	-1.000000	53.000000	0.000000	-1.000000	-1.000000	406736.000000	1775787726.923244
-19720.890000	-15868.215000	8547.750000	295149.105000	305228.790000	292523.265000	-10750.005000	-32771.835000	4.255391	5.644922	4.594102	-40.777528	-41.921429	-40.908619	3.014690	7.768984	-0.015260	0.457800	2.090620	-0.612059	-0.058533	0.776243	-1.000000	-1.000000	-1.000000	-1.000000	-1.000000	-1.000000	-1.000000	53.000000	0.000000	-1.000000	-1.000000	406737.000000	1775787726.923270
-19716.885000	-15865.200000	8549.955000	295142.985000	305222.805000	292517.550000	-10747.530000	-32770.530000	5.142054	4.754652	3.752920	-19.094967	-19.887267	-18.860915	3.802322	8.820005	-0.015260	0.457800	2.090620	-0.612059	-0.058533	0.776243	-1.000000	-1.000000	-1.000000	-1.000000	-1.000000	-1.000000	-1.000000	53.000000	0.000000	-1.000000	-1.000000	406738.000000	1775787726.923282
-19721.295000	-15866.595000	8549.865000	295149.780000	305229.735000	292524.300000	-10753.110000	-32778.090000	3.355255	0.793434	0.030425	4.048236	3.825628	4.578574	1.982542	5.164649	-0.015260	0.457800	2.090620	-0.612059	-0.058533	0.776243	-1.000000	-1.000000	-1.000000	-1.000000	-1.000000	-1.000000	-1.000000	53.000000	0.000000	-1.000000	-1.000000	406739.000000	1775787726.939037
-19722.195000	-15866.145000	8552.340000	295147.170000	305227.035000	292521.195000	-10750.905000	-32781.420000	-0.546973	-3.724354	-4.021351	19.826116	20.104072	20.400122	-1.387826	-2.272596	-0.015260	0.457800	2.090620	-0.612059	-0.058533	0.776243	-1.000000	-1.000000	-1.000000	-1.000000	-1.000000	-1.000000	-1.000000	53.000000	0.000000	-1.000000	-1.000000	406740.000000	1775787726.939063
