Channel1	Channel2	Channel3	Channel4	Channel5	Channel6	Channel7	Channel8	FilteredChannel1	FilteredChannel2	FilteredChannel3	FilteredChannel4	FilteredChannel5	FilteredChannel6	FilteredChannel7	FilteredChannel8	GyroX	GyroY	GyroZ	AccX	AccY	AccZ	PPG1	PPG2	rawPPG1	rawPPG2	rawPPG3	Hr	Hrv	Battery	Trigger	PhysicalTrigger	AutoTrigger	NumMeasurements	Timestamp
-19048.185000	-14993.010000	8439.120000	279667.530000	303617.565000	278884.845000	-9289.260000	-26122.635000	1.710774	2.481084	3.379826	-8.155286	-4.448748	-4.657059	-1.029929	0.029725	2.136400	0.457800	-1.876980	-0.679747	-0.014099	0.719847	-1.000000	-1.000000	-1.000000	-1.000000	-1.000000	-1.000000	-1.000000	53.000000	0.000000	-1.000000	-1.000000	337542.000000	1775787588.516162
-19051.065000	-15001.830000	8428.095000	279671.085000	303607.395000	278884.395000	-9280.665000	-26117.775000	-2.045551	-1.408505	0.238204	-4.341092	7.897847	-1.833174	-2.498690	-5.394164	2.136400	0.457800	-1.876980	-0.679747	-0.014099	0.719847	-1.000000	-1.000000	-1.000000	-1.000000	-1.000000	-1.000000	-1.000000	53.000000	0.000000	-1.000000	-1.000000	337543.000000	1775787588.516190
-19060.740000	-15014.880000	8414.775000	279674.010000	303602.625000	278883.270000	-9289.845000	-26121.015000	-4.961911	-5.037526	-3.523551	2.482055	16.523843	2.475956	-1.234122	-7.319597	2.136400	0.457800	-1.876980	-0.679747	-0.014099	0.719847	-1.000000	-1.000000	-1.000000	-1.000000	-1.000000	-1.000000	-1.000000	53.000000	0.000000	-1.000000	-1.000000	337544.000000	1775787588.516201
-19065.240000	-15015.420000	8414.595000	279674.775000	303603.795000	278883.720000	-9297.765000	-26128.170000	-5.735324	-6.819589	-6.253928	7.550339	15.049866	4.950667	0.442955	-5.564654	2.136400	0.457800	-1.876980	-0.679747	-0.014099	0.719847	-1.000000	-1.000000	-1.000000	-1.000000	-1.000000	-1.000000	-1.000000	53.000000	0.000000	-1.000000	-1.000000	337545.000000	1775787588.518695
-19053.720000	-14998.860000	8432.280000	279674.460000	303595.785000	278885.340000	-9297.855000	-26121.735000	-4.040582	-5.299808	-5.810890	7.718466	4.714602	3.994368	0.047625	-2.253232	2.136400	0.457800	-1.876980	-0.679747	-0.014099	0.719847	-1.000000	-1.000000	-1.000000	-1.000000	-1.000000	-1.000000	-1.000000	53.000000	0.000000	-1.000000	-1.000000	337546.000000	1775787588.518722
-19047.825000	-14995.215000	8435.070000	279672.255000	303598.080000	278885.610000	-9295.695000	-26115.345000	0.050743	0.034111	-1.028327	3.401041	-7.647188	0.742466	-1.922483	1.020553	2.136400	0.457800	-1.876980	-0.679747	-0.014099	0.719847	-1.000000	-1.000000	-1.000000	-1.000000	-1.000000	-1.000000	-1.000000	53.000000	0.000000	-1.000000	-1.000000	337547.000000	1775787588.523760
-19051.920000	-15006.150000	8421.660000	279665.235000	303596.010000	278881.020000	-9298.980000	-26118.720000	5.097629	6.671932	5.647055	-2.692061	-15.336685	-2.700675	-3.200405	3.663497	2.136400	0.457800	-1.876980	-0.679747	-0.014099	0.719847	-1.000000	-1.000000	-1.000000	-1.000000	-1.000000	-1.000000	-1.000000	53.000000	0.000000	-1.000000	-1.000000	337548.000000	1775787588.523786
-19048.770000	-15004.260000	8423.955000	279663.930000	303601.005000	278881.110000	-9295.020000	-26115.840000	8.191677	10.069406	9.317122	-7.593039	-15.322618	-4.880949	-2.549973	4.885537	2.136400	0.457800	-1.876980	-0.679747	-0.014099	0.719847	-1.000000	-1.000000	-1.000000	-1.000000	-1.000000	-1.000000	-1.000000	53.000000	0.000000	-1.000000	-1.000000	337549.000000	1775787588.526878
-19038.465000	-14990.805000	8439.885000	279660.375000	303587.640000	278874.765000	-9284.805000	-26106.255000	7.666171	8.388430	7.987739	-9.299492	-9.133750	-5.295667	-0.195832	4.307157	2.136400	0.457800	-1.876980	-0.679747	-0.014099	0.719847	-1.000000	-1.000000	-1.000000	-1.000000	-1.000000	-1.000000	-1.000000	53.000000	0.000000	-1.000000	-1.000000	337550.000000	1775787588.526901
-19043.280000	-14994.225000	8436.420000	279662.220000	303597.810000	278872.785000	-9281.700000	-26109.270000	4.427086	3.908552	4.055702	-7.319315	-1.002895	-4.190971	2.938987	2.644458	0.259420	0.030520	-1.907500	-0.676939	-0.014282	0.720823	-1.000000	-1.000000	-1.000000	-1.000000	-1.000000	-1.000000	-1.000000	53.000000	0.000000	-1.000000	-1.000000	337551.000000	1775787588.533430
-19045.935000	-14996.430000	8434.665000	279666.135000	303594.885000	278872.245000	-9285.030000	-26113.770000	0.062046	-0.663524	0.125365	-2.634915	5.538245	-2.146271	5.204580	0.480438	0.259420	0.030520	-1.907500	-0.676939	-0.014282	0.720823	-1.000000	-1.000000	-1.000000	-1.000000	-1.000000	-1.000000	-1.000000	53.000000	0.000000	-1.000000	-1.000000	337552.000000	1775787588.533469
-19037.115000	-14985.945000	8446.815000	279671.130000	303595.875000	278875.395000	-9282.510000	-26108.145000	-4.055006	-4.091601	-2.914434	2.910229	8.980208	0.391340	4.933505	-1.969557	0.259420	0.030520	-1.907500	-0.676939	-0.014282	0.720823	-1.000000	-1.000000	-1.000000	-1.000000	-1.000000	-1.000000	-1.000000	53.000000	0.000000	-1.000000	-1.000000	337553.000000	1775787588.534127
-19040.940000	-14990.985000	8441.640000	279671.850000	303595.380000	278876.295000	-9285.615000	-26111.340000	-6.373319	-5.649367	-4.530206	7.224977	9.069184	2.979262	2.061325	-3.871812	0.259420	0.030520	-1.907500	-0.676939	-0.014282	0.720823	-1.000000	-1.000000	-1.000000	-1.000000	-1.000000	-1.000000	-1.000000	53.000000	0.000000	-1.000000	-1.000000	337554.000000	1775787588.534146
-19050.030000	-15003.000000	8427.645000	279667.620000	303592.365000	278874.945000	-9290.970000	-26117.415000	-6.407827	-5.591463	-4.977949	8.542641	6.478866	4.825420	-1.899935	-4.472734	0.259420	0.030520	-1.907500	-0.676939	-0.014282	0.720823	-1.000000	-1.000000	-1.000000	-1.000000	-1.000000	-1.000000	-1.000000	53.000000	0.000000	-1.000000	-1.000000	337555.000000	1775787588.543229
-19052.955000	-15007.095000	8422.875000	279661.635000	303599.610000	278871.705000	-9294.255000	-26119.890000	-5.244446	-5.220261	-5.462036	6.196018	2.694823	5.015276	-5.201052	-3.991946	0.259420	0.030520	-1.907500	-0.676939	-0.014282	0.720823	-1.000000	-1.000000	-1.000000	-1.000000	-1.000000	-1.000000	-1.000000	53.000000	0.000000	-1.000000	-1.000000	337556.000000	1775787588.543254
-19057.320000	-15008.535000	8422.335000	279660.105000	303610.950000	278870.175000	-9302.895000	-26127.990000	-3.788081	-4.874785	-5.974481	1.295203	-0.309464	3.291439	-6.664725	-2.960668	0.259420	0.030520	-1.907500	-0.676939	-0.014282	0.720823	-1.000000	-1.000000	-1.000000	-1.000000	-1.000000	-1.000000	-1.000000	53.000000	0.000000	-1.000000	-1.000000	337557.000000	1775787588.543811
-19052.370000	-15000.390000	8429.895000	279660.330000	303606.540000	278868.510000	-9301.185000	-26127.405000	-1.872692	-3.385217	-4.849860	-3.565419	-1.317336	0.484912	-5.893407	-1.618657	0.259420	0.030520	-1.907500	-0.676939	-0.014282	0.720823	-1.000000	-1.000000	-1.000000	-1.000000	-1.000000	-1.000000	-1.000000	53.000000	0.000000	-1.000000	-1.000000	337558.000000	1775787588.543828
-19052.865000	-14997.510000	8433.765000	279660.195000	303605.550000	278865.495000	-9303.255000	-26132.355000	0.865657	0.125730	-1.005422	-5.923561	-1.194735	-2.048292	-3.110762	0.034591	0.259420	0.030520	-1.907500	-0.676939	-0.014282	0.720823	-1.000000	-1.000000	-1.000000	-1.000000	-1.000000	-1.000000	-1.000000	53.000000	0.000000	-1.000000	-1.000000	337559.000000	1775787588.546010
-19046.430000	-14989.095000	8442.180000	279642.195000	303537.510000	278842.680000	-9300.150000	-26126.145000	4.015181	4.760190	4.434748	-5.381316	-2.771148	-3.722323	0.874946	1.986119	0.259420	0.030520	-1.907500	-0.676939	-0.014282	0.720823	-1.000000	-1.000000	-1.000000	-1.000000	-1.000000	-1.000000	-1.000000	53.000000	0.000000	-1.000000	-1.000000	337560.000000	1775787588.546027
-19038.735000	-14983.740000	8446.230000	279640.035000	303570.990000	278837.685000	-9290.565000	-26113.365000	6.548892	8.378755	8.868194	-3.611215	-7.596003	-4.963061	4.855722	4.223271	-1.876980	-0.671440	-0.732480	-0.673216	-0.010559	0.720945	-1.000000	-1.000000	-1.000000	-1.000000	-1.000000	-1.000000	-1.000000	53.000000	0.000000	-1.000000	-1.000000	337561.000000	1775787588.550032
-19043.640000	-14991.030000	8439.705000	279665.370000	303627.105000	278863.335000	-9296.640000	-26117.055000	7.398078	8.977443	9.876003	-1.426173	-10.317109	-4.975342	7.551326	6.374221	-1.876980	-0.671440	-0.732480	-0.673216	-0.010559	0.720945	-1.000000	-1.000000	-1.000000	-1.000000	-1.000000	-1.000000	-1.000000	53.000000	0.000000	-1.000000	-1.000000	337562.000000	1775787588.550054
-19046.745000	-14994.810000	8435.475000	279665.955000	303612.660000	278865.315000	-9296.460000	-26119.530000	5.639177	5.641595	6.464711	2.204041	-3.719168	-1.549372	7.640201	6.941491	-1.876980	-0.671440	-0.732480	-0.673216	-0.010559	0.720945	-1.000000	-1.000000	-1.000000	-1.000000	-1.000000	-1.000000	-1.000000	53.000000	0.000000	-1.000000	-1.000000	337563.000000	1775787588.555230
-19048.590000	-14996.880000	8432.055000	279661.050000	303599.880000	278863.200000	-9302.850000	-26123.490000	1.395293	-0.463027	-0.009876	6.537780	8.517586	4.658895	4.629806	4.484632	-1.876980	-0.671440	-0.732480	-0.673216	-0.010559	0.720945	-1.000000	-1.000000	-1.000000	-1.000000	-1.000000	-1.000000	-1.000000	53.000000	0.000000	-1.000000	-1.000000	337564.000000	1775787588.555254
-19041.120000	-14988.645000	8439.480000	279657.810000	303599.700000	278862.030000	-9307.530000	-26124.885000	-3.334075	-6.100974	-6.123032	8.206993	15.156945	9.231727	-0.298285	-0.348411	-1.876980	-0.671440	-0.732480	-0.673216	-0.010559	0.720945	-1.000000	-1.000000	-1.000000	-1.000000	-1.000000	-1.000000	-1.000000	53.000000	0.000000	-1.000000	-1.000000	337565.000000	1775787588.558726
-19051.920000	-15000.255000	8429.175000	279652.860000	303599.295000	278856.360000	-9308.070000	-26137.755000	-6.111309	-8.344397	-8.745238	5.305074	11.369086	8.695496	-4.886636	-5.298539	-1.876980	-0.671440	-0.732480	-0.673216	-0.010559	0.720945	-1.000000	-1.000000	-1.000000	-1.000000	-1.000000	-1.000000	-1.000000	53.000000	0.000000	-1.000000	-1.000000	337566.000000	1775787588.558749
-19061.010000	-15009.885000	8421.120000	279653.580000	303611.400000	278856.270000	-9304.155000	-26138.430000	-6.441123	-7.175422	-7.594686	-0.470126	1.760758	3.509961	-6.925087	-8.349316	-1.876980	-0.671440	-0.732480	-0.673216	-0.010559	0.720945	-1.000000	-1.000000	-1.000000	-1.000000	-1.000000	-1.000000	-1.000000	53.000000	0.000000	-1.000000	-1.000000	337567.000000	1775787588.563442
-19063.170000	-15013.170000	8416.710000	279654.480000	303608.025000	278854.110000	-9291.690000	-26130.555000	-5.429108	-4.631861	-4.660885	-5.554211	-6.396857	-3.004178	-5.274988	-8.171730	-1.876980	-0.671440	-0.732480	-0.673216	-0.010559	0.720945	-1.000000	-1.000000	-1.000000	-1.000000	-1.000000	-1.000000	-1.000000	53.000000	0.000000	-1.000000	-1.000000	337568.000000	1775787588.563464
-19057.680000	-15006.825000	8424.945000	279660.150000	303614.235000	278856.135000	-9282.420000	-26120.880000	-3.502489	-1.816808	-1.366575	-7.185634	-9.273519	-7.303618	-0.562482	-4.196428	-1.876980	-0.671440	-0.732480	-0.673216	-0.010559	0.720945	-1.000000	-1.000000	-1.000000	-1.000000	-1.000000	-1.000000	-1.000000	53.000000	0.000000	-1.000000	-1.000000	337569.000000	1775787588.565548
-19058.085000	-15011.280000	8420.085000	279661.365000	303610.500000	278856.405000	-9284.265000	-26116.695000	-0.333520	1.422910	2.097763	-4.988625	-7.491688	-7.701297	4.656064	2.257644	-1.876980	-0.671440	-0.732480	-0.673216	-0.010559	0.720945	-1.000000	-1.000000	-1.000000	-1.000000	-1.000000	-1.000000	-1.000000	53.000000	0.000000	-1.000000	-1.000000	337570.000000	1775787588.565562
-19053.540000	-15010.740000	8418.735000	279659.070000	303605.955000	278854.830000	-9287.145000	-26114.040000	3.523217	4.597975	5.097241	-0.903386	-3.863594	-4.869034	6.993315	7.913245	-1.846460	0.320460	0.946120	-0.672362	-0.008179	0.723448	-1.000000	-1.000000	-1.000000	-1.000000	-1.000000	-1.000000	-1.000000	53.000000	0.000000	-1.000000	-1.000000	337571.000000	1775787588.574525
-19051.380000	-15003.765000	8426.610000	279656.640000	303603.030000	278855.460000	-9288.270000	-26115.795000	6.525176	6.550947	6.511423	2.316611	-0.998549	-0.914847	4.799082	9.644479	-1.846460	0.320460	0.946120	-0.672362	-0.008179	0.723448	-1.000000	-1.000000	-1.000000	-1.000000	-1.000000	-1.000000	-1.000000	53.000000	0.000000	-1.000000	-1.000000	337572.000000	1775787588.574549
-19047.015000	-14997.240000	8434.215000	279653.220000	303607.530000	278855.550000	-9287.370000	-26115.210000	7.390390	6.882743	6.272236	3.055307	0.339579	2.200396	-0.357069	6.654831	-1.846460	0.320460	0.946120	-0.672362	-0.008179	0.723448	-1.000000	-1.000000	-1.000000	-1.000000	-1.000000	-1.000000	-1.000000	53.000000	0.000000	-1.000000	-1.000000	337573.000000	1775787588.574573
-19055.520000	-15005.385000	8426.340000	279650.745000	303608.925000	278853.795000	-9295.695000	-26131.545000	5.684723	5.684764	4.897284	1.611057	1.082748	3.562575	-5.287672	0.556302	-1.846460	0.320460	0.946120	-0.672362	-0.008179	0.723448	-1.000000	-1.000000	-1.000000	-1.000000	-1.000000	-1.000000	-1.000000	53.000000	0.000000	-1.000000	-1.000000	337574.000000	1775787588.574582
-19054.530000	-15003.135000	8430.210000	279649.170000	303605.730000	278849.880000	-9295.425000	-26135.415000	1.810255	2.800759	2.326879	-0.517258	2.013990	3.142261	-7.732521	-6.057388	-1.846460	0.320460	0.946120	-0.672362	-0.008179	0.723448	-1.000000	-1.000000	-1.000000	-1.000000	-1.000000	-1.000000	-1.000000	53.000000	0.000000	-1.000000	-1.000000	337575.000000	1775787588.588623
-19055.700000	-15003.315000	8429.805000	279646.740000	303597.990000	278843.490000	-9298.170000	-26132.490000	-2.723723	-1.195844	-1.123524	-1.853935	2.621738	1.405046	-7.065777	-10.297146	-1.846460	0.320460	0.946120	-0.672362	-0.008179	0.723448	-1.000000	-1.000000	-1.000000	-1.000000	-1.000000	-1.000000	-1.000000	53.000000	0.000000	-1.000000	-1.000000	337576.000000	1775787588.588646
-19053.495000	-15001.155000	8431.110000	279654.795000	303611.310000	278846.820000	-9293.355000	-26123.940000	-5.771579	-4.583642	-4.126492	-1.633868	2.309498	-0.712066	-3.800449	-9.680698	-1.846460	0.320460	0.946120	-0.672362	-0.008179	0.723448	-1.000000	-1.000000	-1.000000	-1.000000	-1.000000	-1.000000	-1.000000	53.000000	0.000000	-1.000000	-1.000000	337577.000000	1775787588.588670
-19043.595000	-14994.405000	8436.780000	279658.485000	303605.280000	278848.395000	-9282.555000	-26107.650000	-5.874593	-5.777378	-5.387301	0.176849	1.674099	-1.869032	0.946741	-3.857643	-1.846460	0.320460	0.946120	-0.672362	-0.008179	0.723448	-1.000000	-1.000000	-1.000000	-1.000000	-1.000000	-1.000000	-1.000000	53.000000	0.000000	-1.000000	-1.000000	337578.000000	1775787588.588681
-19042.245000	-14995.440000	8437.005000	279658.305000	303601.995000	278849.160000	-9284.085000	-26104.275000	-3.112950	-4.466529	-4.518543	2.646912	1.203967	-1.279551	5.638083	4.525065	-1.846460	0.320460	0.946120	-0.672362	-0.008179	0.723448	-1.000000	-1.000000	-1.000000	-1.000000	-1.000000	-1.000000	-1.000000	53.000000	0.000000	-1.000000	-1.000000	337579.000000	1775787588.588694
-19045.170000	-14996.520000	8437.140000	279656.730000	303602.760000	278850.105000	-9290.430000	-26110.800000	0.647251	-1.882656	-2.315794	4.039680	0.471134	0.461704	8.107555	10.750716	-1.846460	0.320460	0.946120	-0.672362	-0.008179	0.723448	-1.000000	-1.000000	-1.000000	-1.000000	-1.000000	-1.000000	-1.000000	53.000000	0.000000	-1.000000	-1.000000	337580.000000	1775787588.588704
-19046.520000	-14997.465000	8436.510000	279652.185000	303603.120000	278849.835000	-9295.200000	-26114.130000	2.854678	0.172583	-0.217875	3.127692	-0.536045	2.005399	6.646762	10.885842	-3.067260	-0.961380	1.617560	-0.676939	-0.011353	0.726011	-1.000000	-1.000000	-1.000000	-1.000000	-1.000000	-1.000000	-1.000000	53.000000	0.000000	-1.000000	-1.000000	337581.000000	1775787588.590628
-19042.020000	-14993.055000	8440.020000	279642.645000	303590.205000	278841.645000	-9290.880000	-26109.450000	2.506470	0.916032	0.893926	0.106600	-1.409135	2.229507	2.035033	5.101267	-3.067260	-0.961380	1.617560	-0.676939	-0.011353	0.726011	-1.000000	-1.000000	-1.000000	-1.000000	-1.000000	-1.000000	-1.000000	53.000000	0.000000	-1.000000	-1.000000	337582.000000	1775787588.590645
-19045.980000	-14996.880000	8436.195000	279639.405000	303598.305000	278836.785000	-9294.390000	-26113.905000	0.671917	0.791159	1.066325	-3.618929	-2.027905	0.729187	-2.737306	-2.535904	-3.067260	-0.961380	1.617560	-0.676939	-0.011353	0.726011	-1.000000	-1.000000	-1.000000	-1.000000	-1.000000	-1.000000	-1.000000	53.000000	0.000000	-1.000000	-1.000000	337583.000000	1775787588.594724
-19048.545000	-14998.050000	8435.025000	279641.970000	303604.515000	278835.660000	-9302.715000	-26118.765000	-1.200182	0.354255	0.626223	-5.962062	-1.796127	-1.718618	-5.305356	-7.900066	-3.067260	-0.961380	1.617560	-0.676939	-0.011353	0.726011	-1.000000	-1.000000	-1.000000	-1.000000	-1.000000	-1.000000	-1.000000	53.000000	0.000000	-1.000000	-1.000000	337584.000000	1775787588.594748
-19052.235000	-15000.345000	8430.795000	279647.100000	303609.960000	278836.335000	-9313.245000	-26127.540000	-2.412762	-0.193397	-0.162337	-5.184215	0.033804	-3.382400	-5.617901	-9.494638	-3.067260	-0.961380	1.617560	-0.676939	-0.011353	0.726011	-1.000000	-1.000000	-1.000000	-1.000000	-1.000000	-1.000000	-1.000000	53.000000	0.000000	-1.000000	-1.000000	337585.000000	1775787588.601550
-19052.775000	-14998.545000	8434.485000	279649.080000	303602.220000	278835.435000	-9320.805000	-26132.715000	-2.706920	-0.583718	-0.837917	-1.346664	2.569383	-3.000465	-4.763992	-7.973153	-3.067260	-0.961380	1.617560	-0.676939	-0.011353	0.726011	-1.000000	-1.000000	-1.000000	-1.000000	-1.000000	-1.000000	-1.000000	53.000000	0.000000	-1.000000	-1.000000	337586.000000	1775787588.601571
-19052.730000	-14996.430000	8438.130000	279651.420000	303610.635000	278837.730000	-9323.910000	-26132.895000	-1.942245	-0.397502	-0.704933	3.420809	3.759855	-0.816444	-3.273711	-4.535050	-3.067260	-0.961380	1.617560	-0.676939	-0.011353	0.726011	-1.000000	-1.000000	-1.000000	-1.000000	-1.000000	-1.000000	-1.000000	53.000000	0.000000	-1.000000	-1.000000	337587.000000	1775787588.602119
-19045.800000	-14985.090000	8449.380000	279652.095000	303601.410000	278839.440000	-9318.555000	-26126.685000	-0.157926	0.664428	0.685940	6.458371	2.684658	1.888475	-0.830880	-0.017860	-3.067260	-0.961380	1.617560	-0.676939	-0.011353	0.726011	-1.000000	-1.000000	-1.000000	-1.000000	-1.000000	-1.000000	-1.000000	53.000000	0.000000	-1.000000	-1.000000	337588.000000	1775787588.602130
-19059.210000	-15007.005000	8423.820000	279648.225000	303608.205000	278837.955000	-9302.940000	-26128.035000	1.971958	2.002081	2.418522	6.287760	0.113573	3.737985	3.001007	4.722783	-3.067260	-0.961380	1.617560	-0.676939	-0.011353	0.726011	-1.000000	-1.000000	-1.000000	-1.000000	-1.000000	-1.000000	-1.000000	53.000000	0.000000	-1.000000	-1.000000	337589.000000	1775787588.607186
-19064.970000	-15019.740000	8410.905000	279639.630000	303604.605000	278831.610000	-9293.355000	-26123.670000	2.896016	1.642557	2.006591	3.059634	-2.395814	3.744844	7.739836	8.219671	-3.067260	-0.961380	1.617560	-0.676939	-0.011353	0.726011	-1.000000	-1.000000	-1.000000	-1.000000	-1.000000	-1.000000	-1.000000	53.000000	0.000000	-1.000000	-1.000000	337590.000000	1775787588.607208
-19064.790000	-15023.745000	8408.295000	279640.260000	303618.870000	278832.330000	-9288.315000	-26119.980000	1.776347	-1.363062	-1.485095	-1.664475	-3.346063	1.808398	11.302153	9.146197	-2.044840	0.167860	-0.412020	-0.673155	-0.014465	0.726500	-1.000000	-1.000000	-1.000000	-1.000000	-1.000000	-1.000000	-1.000000	53.000000	0.000000	-1.000000	-1.000000	337591.000000	1775787588.611621
-19064.880000	-15021.855000	8410.500000	279624.285000	303563.385000	278812.395000	-9290.115000	-26123.265000	-0.127843	-4.649186	-5.122789	-5.660135	-3.106846	-1.232487	10.981448	7.244701	-2.044840	0.167860	-0.412020	-0.673155	-0.014465	0.726500	-1.000000	-1.000000	-1.000000	-1.000000	-1.000000	-1.000000	-1.000000	53.000000	0.000000	-1.000000	-1.000000	337592.000000	1775787588.611642
-19068.480000	-15021.225000	8411.040000	279613.890000	303578.325000	278797.455000	-9300.780000	-26132.670000	-1.040329	-4.879846	-5.204134	-7.573886	-3.954061	-4.523730	5.587365	3.020742	-2.044840	0.167860	-0.412020	-0.673155	-0.014465	0.726500	-1.000000	-1.000000	-1.000000	-1.000000	-1.000000	-1.000000	-1.000000	53.000000	0.000000	-1.000000	-1.000000	337593.000000	1775787588.615436
-19070.730000	-15017.940000	8416.350000	279644.580000	303638.445000	278824.320000	-9313.335000	-26142.705000	-0.608927	-1.303115	-1.134490	-6.567050	-4.394191	-6.510034	-3.418439	-2.538446	-2.044840	0.167860	-0.412020	-0.673155	-0.014465	0.726500	-1.000000	-1.000000	-1.000000	-1.000000	-1.000000	-1.000000	-1.000000	53.000000	0.000000	-1.000000	-1.000000	337594.000000	1775787588.615456
-19063.575000	-15009.570000	8424.855000	279648.090000	303613.020000	278826.435000	-9311.895000	-26138.790000	0.529600	4.033981	4.699188	-1.534299	0.296033	-4.441402	-12.197783	-7.474748	-2.044840	0.167860	-0.412020	-0.673155	-0.014465	0.726500	-1.000000	-1.000000	-1.000000	-1.000000	-1.000000	-1.000000	-1.000000	53.000000	0.000000	-1.000000	-1.000000	337595.000000	1775787588.624503
-19063.620000	-15011.865000	8422.335000	279646.560000	303606.675000	278827.110000	-9306.225000	-26134.650000	1.859998	8.200971	9.071320	5.976023	7.942404	1.796631	-16.094333	-9.144671	-2.044840	0.167860	-0.412020	-0.673155	-0.014465	0.726500	-1.000000	-1.000000	-1.000000	-1.000000	-1.000000	-1.000000	-1.000000	53.000000	0.000000	-1.000000	-1.000000	337596.000000	1775787588.624527
-19059.120000	-15010.605000	8422.965000	279645.255000	303612.525000	278828.505000	-9292.950000	-26125.065000	2.895363	8.934640	9.541220	11.003269	10.907498	7.965796	-12.507378	-6.165395	-2.044840	0.167860	-0.412020	-0.673155	-0.014465	0.726500	-1.000000	-1.000000	-1.000000	-1.000000	-1.000000	-1.000000	-1.000000	53.000000	0.000000	-1.000000	-1.000000	337597.000000	1775787588.624553
-19055.250000	-15008.625000	8422.290000	279637.920000	303608.520000	278824.815000	-9292.590000	-26119.845000	3.080562	5.830798	5.748938	9.903839	6.811386	9.780351	-3.137061	0.062617	-2.044840	0.167860	-0.412020	-0.673155	-0.014465	0.726500	-1.000000	-1.000000	-1.000000	-1.000000	-1.000000	-1.000000	-1.000000	53.000000	0.000000	-1.000000	-1.000000	337598.000000	1775787588.624564
-19056.870000	-15008.805000	8423.190000	279636.930000	303612.030000	278824.860000	-9297.495000	-26121.825000	2.172143	0.630847	-0.266141	3.470190	-0.533783	6.414395	6.627475	6.014252	-2.044840	0.167860	-0.412020	-0.673155	-0.014465	0.726500	-1.000000	-1.000000	-1.000000	-1.000000	-1.000000	-1.000000	-1.000000	53.000000	0.000000	-1.000000	-1.000000	337599.000000	1775787588.630541
-19057.905000	-15007.995000	8425.080000	279634.815000	303606.270000	278820.270000	-9299.115000	-26123.445000	0.235922	-4.175896	-5.508924	-4.288502	-6.519552	0.178573	11.390306	8.256547	-2.044840	0.167860	-0.412020	-0.673155	-0.014465	0.726500	-1.000000	-1.000000	-1.000000	-1.000000	-1.000000	-1.000000	-1.000000	53.000000	0.000000	-1.000000	-1.000000	337600.000000	1775787588.630563
-19060.110000	-15010.155000	8423.910000	279636.705000	303616.080000	278819.460000	-9301.590000	-26128.980000	-2.264014	-6.892598	-7.903963	-9.144630	-8.609950	-5.572261	9.594554	5.713194	-1.999060	0.503580	1.831200	-0.669005	-0.016479	0.726988	-1.000000	-1.000000	-1.000000	-1.000000	-1.000000	-1.000000	-1.000000	53.000000	0.000000	-1.000000	-1.000000	337601.000000	1775787588.631032
-19061.415000	-15011.865000	8421.975000	279639.135000	303610.635000	278817.210000	-9308.565000	-26138.610000	-4.383872	-7.139313	-7.243803	-9.123171	-6.688393	-8.403796	3.682951	0.047779	-1.999060	0.503580	1.831200	-0.669005	-0.016479	0.726988	-1.000000	-1.000000	-1.000000	-1.000000	-1.000000	-1.000000	-1.000000	53.000000	0.000000	-1.000000	-1.000000	337602.000000	1775787588.631047
-19052.595000	-15002.550000	8431.785000	279643.860000	303610.635000	278819.595000	-9308.565000	-26132.040000	-5.001407	-5.329112	-4.542036	-5.021439	-2.616917	-7.609690	-2.559757	-5.564668	-1.999060	0.503580	1.831200	-0.669005	-0.016479	0.726988	-1.000000	-1.000000	-1.000000	-1.000000	-1.000000	-1.000000	-1.000000	53.000000	0.000000	-1.000000	-1.000000	337603.000000	1775787588.633963
-19045.215000	-14994.900000	8437.770000	279621.540000	303540.210000	278796.825000	-9299.115000	-26119.845000	-3.326284	-1.926976	-0.791456	0.182250	-0.133197	-4.467587	-5.954937	-7.736301	-1.999060	0.503580	1.831200	-0.669005	-0.016479	0.726988	-1.000000	-1.000000	-1.000000	-1.000000	-1.000000	-1.000000	-1.000000	53.000000	0.000000	-1.000000	-1.000000	337604.000000	1775787588.633981
-19040.445000	-14988.285000	8445.555000	279620.505000	303589.620000	278798.175000	-9283.275000	-26108.010000	0.199962	2.217439	3.040301	2.967383	-1.693116	-1.445414	-4.804864	-4.779104	-1.999060	0.503580	1.831200	-0.669005	-0.016479	0.726988	-1.000000	-1.000000	-1.000000	-1.000000	-1.000000	-1.000000	-1.000000	53.000000	0.000000	-1.000000	-1.000000	337605.000000	1775787588.654013
-19038.420000	-14987.520000	8448.615000	279638.505000	303624.045000	278819.505000	-9280.350000	-26100.270000	3.645832	5.393000	5.609486	2.733291	-2.752888	0.753628	0.056369	1.590949	-1.999060	0.503580	1.831200	-0.669005	-0.016479	0.726988	-1.000000	-1.000000	-1.000000	-1.000000	-1.000000	-1.000000	-1.000000	53.000000	0.000000	-1.000000	-1.000000	337606.000000	1775787588.654041
-19039.545000	-14995.215000	8440.380000	279636.480000	303615.135000	278818.470000	-9285.120000	-26098.560000	4.897031	5.741265	5.567824	2.247268	2.817506	3.666864	5.017291	7.199885	-1.999060	0.503580	1.831200	-0.669005	-0.016479	0.726988	-1.000000	-1.000000	-1.000000	-1.000000	-1.000000	-1.000000	-1.000000	53.000000	0.000000	-1.000000	-1.000000	337607.000000	1775787588.654061
-19042.695000	-14999.085000	8435.430000	279635.265000	303611.985000	278815.680000	-9288.315000	-26104.815000	3.181866	2.649113	2.394065	3.070821	11.664113	7.073321	6.141164	8.322603	-1.999060	0.503580	1.831200	-0.669005	-0.016479	0.726988	-1.000000	-1.000000	-1.000000	-1.000000	-1.000000	-1.000000	-1.000000	53.000000	0.000000	-1.000000	-1.000000	337608.000000	1775787588.654067
-19045.980000	-15001.920000	8430.795000	279635.895000	303611.625000	278812.530000	-9287.640000	-26106.705000	-0.530556	-2.319367	-2.656394	3.790182	15.050206	8.181309	2.623850	4.119205	-1.999060	0.503580	1.831200	-0.669005	-0.016479	0.726988	-1.000000	-1.000000	-1.000000	-1.000000	-1.000000	-1.000000	-1.000000	53.000000	0.000000	-1.000000	-1.000000	337609.000000	1775787588.654075
-19053.360000	-15009.480000	8422.560000	279639.495000	303615.315000	278811.270000	-9292.725000	-26112.915000	-4.308104	-6.343943	-6.949951	2.997439	9.850549	5.415998	-2.853386	-2.909216	-1.999060	0.503580	1.831200	-0.669005	-0.016479	0.726988	-1.000000	-1.000000	-1.000000	-1.000000	-1.000000	-1.000000	-1.000000	53.000000	0.000000	-1.000000	-1.000000	337610.000000	1775787588.654081
-19052.640000	-15007.365000	8424.090000	279643.185000	303616.260000	278811.270000	-9299.340000	-26116.515000	-6.367702	-7.378239	-8.260341	1.041604	0.021329	0.248247	-6.997169	-8.826187	-0.763000	1.632820	0.701960	-0.671202	-0.018494	0.727598	-1.000000	-1.000000	-1.000000	-1.000000	-1.000000	-1.000000	-1.000000	53.000000	0.000000	-1.000000	-1.000000	337611.000000	1775787588.654090
-19049.085000	-15002.505000	8429.580000	279641.925000	303602.805000	278809.605000	-9300.555000	-26117.235000	-5.623698	-4.923499	-5.759883	-0.964413	-8.810797	-4.431790	-8.101039	-10.751816	-0.763000	1.632820	0.701960	-0.671202	-0.018494	0.727598	-1.000000	-1.000000	-1.000000	-1.000000	-1.000000	-1.000000	-1.000000	53.000000	0.000000	-1.000000	-1.000000	337612.000000	1775787588.654096
-19034.865000	-14988.105000	8439.255000	279555.075000	303348.735000	278715.060000	-9296.010000	-26105.355000	-1.911998	0.263447	-0.149827	-3.934664	-17.961845	-8.226235	-5.940148	-7.839498	-0.763000	1.632820	0.701960	-0.671202	-0.018494	0.727598	-1.000000	-1.000000	-1.000000	-1.000000	-1.000000	-1.000000	-1.000000	53.000000	0.000000	-1.000000	-1.000000	337613.000000	1775787588.656813
-19039.005000	-14990.715000	8436.375000	279574.650000	303520.005000	278602.560000	-9301.545000	-26109.765000	3.438354	6.141975	6.189563	-9.847934	-30.684949	-15.399835	-1.437482	-1.381266	-0.763000	1.632820	0.701960	-0.671202	-0.018494	0.727598	-1.000000	-1.000000	-1.000000	-1.000000	-1.000000	-1.000000	-1.000000	53.000000	0.000000	-1.000000	-1.000000	337614.000000	1775787588.656837
-19045.755000	-14995.215000	8437.950000	279690.345000	303729.300000	278680.230000	-9306.135000	-26117.550000	7.381751	9.554688	9.971582	-12.920838	-29.896950	-25.254867	3.220483	5.183413	-0.763000	1.632820	0.701960	-0.671202	-0.018494	0.727598	-1.000000	-1.000000	-1.000000	-1.000000	-1.000000	-1.000000	-1.000000	53.000000	0.000000	-1.000000	-1.000000	337615.000000	1775787588.658854
-19046.520000	-14995.170000	8440.020000	279691.110000	303604.335000	278906.040000	-9302.040000	-26118.720000	7.202675	8.222818	9.272006	-2.604051	3.191648	-20.349706	5.880976	8.214041	-0.763000	1.632820	0.701960	-0.671202	-0.018494	0.727598	-1.000000	-1.000000	-1.000000	-1.000000	-1.000000	-1.000000	-1.000000	53.000000	0.000000	-1.000000	-1.000000	337616.000000	1775787588.658871
-19057.140000	-15008.715000	8428.005000	279693.900000	303576.570000	279060.345000	-9290.250000	-26122.140000	3.081136	2.785950	4.730967	17.524430	45.807084	17.369502	6.349588	6.851877	-0.763000	1.632820	0.701960	-0.671202	-0.018494	0.727598	-1.000000	-1.000000	-1.000000	-1.000000	-1.000000	-1.000000	-1.000000	53.000000	0.000000	-1.000000	-1.000000	337617.000000	1775787588.662328
-19064.970000	-15020.325000	8413.245000	279694.080000	303573.735000	279062.685000	-9298.890000	-26132.265000	-2.472987	-4.088488	-1.755883	29.932978	57.677348	73.090773	5.667644	2.943666	-0.763000	1.632820	0.701960	-0.671202	-0.018494	0.727598	-1.000000	-1.000000	-1.000000	-1.000000	-1.000000	-1.000000	-1.000000	53.000000	0.000000	-1.000000	-1.000000	337618.000000	1775787588.662346
-19065.240000	-15018.345000	8414.595000	279700.155000	303577.470000	279064.530000	-9313.065000	-26141.490000	-6.588538	-9.300607	-7.817379	23.810780	31.958132	101.559427	3.726638	-1.294278	-0.763000	1.632820	0.701960	-0.671202	-0.018494	0.727598	-1.000000	-1.000000	-1.000000	-1.000000	-1.000000	-1.000000	-1.000000	53.000000	0.000000	-1.000000	-1.000000	337619.000000	1775787588.665923
-19071.360000	-15022.080000	8412.255000	279700.830000	303574.455000	279065.295000	-9315.405000	-26145.090000	-7.269518	-10.200325	-10.551650	3.856636	-7.362797	71.865317	-0.135917	-4.253362	-0.763000	1.632820	0.701960	-0.671202	-0.018494	0.727598	-1.000000	-1.000000	-1.000000	-1.000000	-1.000000	-1.000000	-1.000000	53.000000	0.000000	-1.000000	-1.000000	337620.000000	1775787588.665938
-19062.405000	-15011.055000	8425.620000	279702.405000	303578.055000	279066.735000	-9304.965000	-26131.500000	-4.277508	-6.071344	-8.076930	-17.395413	-35.088664	-2.589413	-4.354709	-4.521486	0.747740	2.227960	-0.900340	-0.673765	-0.015381	0.727110	-1.000000	-1.000000	-1.000000	-1.000000	-1.000000	-1.000000	-1.000000	53.000000	0.000000	-1.000000	-1.000000	337621.000000	1775787588.678284
-19049.130000	-14999.265000	8435.970000	279701.145000	303566.535000	279066.780000	-9295.290000	-26114.445000	1.193862	1.387313	-1.117018	-29.527665	-40.802817	-79.436518	-5.644425	-1.114365	0.747740	2.227960	-0.900340	-0.673765	-0.015381	0.727110	-1.000000	-1.000000	-1.000000	-1.000000	-1.000000	-1.000000	-1.000000	53.000000	0.000000	-1.000000	-1.000000	337622.000000	1775787588.678307
-19058.130000	-15015.645000	8417.250000	279697.005000	303576.705000	279067.095000	-9297.495000	-26115.075000	6.891284	8.577268	6.642322	-29.124030	-28.569271	-120.630055	-2.834358	4.809148	0.747740	2.227960	-0.900340	-0.673765	-0.015381	0.727110	-1.000000	-1.000000	-1.000000	-1.000000	-1.000000	-1.000000	-1.000000	53.000000	0.000000	-1.000000	-1.000000	337623.000000	1775787588.678333
-19070.460000	-15028.515000	8405.010000	279694.755000	303583.185000	279064.755000	-9308.430000	-26129.700000	9.384340	11.002742	9.963023	-19.177956	-8.654124	-112.771676	1.326467	9.061114	0.747740	2.227960	-0.900340	-0.673765	-0.015381	0.727110	-1.000000	-1.000000	-1.000000	-1.000000	-1.000000	-1.000000	-1.000000	53.000000	0.000000	-1.000000	-1.000000	337624.000000	1775787588.678344
-19071.765000	-15029.325000	8403.885000	279694.035000	303580.845000	279061.155000	-9308.430000	-26133.165000	6.487384	6.833680	6.551904	-5.521095	9.375891	-67.535065	3.060462	7.562235	0.747740	2.227960	-0.900340	-0.673765	-0.015381	0.727110	-1.000000	-1.000000	-1.000000	-1.000000	-1.000000	-1.000000	-1.000000	53.000000	0.000000	-1.000000	-1.000000	337625.000000	1775787588.678358
-19071.540000	-15028.425000	8405.685000	279690.705000	303570.855000	279054.675000	-9309.285000	-26134.020000	0.134652	-0.590367	-0.262063	6.549661	19.067285	-9.482667	1.520624	0.806068	0.747740	2.227960	-0.900340	-0.673765	-0.015381	0.727110	-1.000000	-1.000000	-1.000000	-1.000000	-1.000000	-1.000000	-1.000000	53.000000	0.000000	-1.000000	-1.000000	337626.000000	1775787588.678369
-19076.805000	-15031.305000	8404.605000	279697.185000	303584.355000	279057.150000	-9319.770000	-26143.335000	-5.359042	-5.986675	-5.110727	13.976743	18.706984	38.309818	-1.321358	-6.646212	0.747740	2.227960	-0.900340	-0.673765	-0.015381	0.727110	-1.000000	-1.000000	-1.000000	-1.000000	-1.000000	-1.000000	-1.000000	53.000000	0.000000	-1.000000	-1.000000	337627.000000	1775787588.687513
-19076.310000	-15029.955000	8406.045000	279700.470000	303580.800000	279057.285000	-9320.445000	-26144.370000	-7.237633	-6.753177	-5.424527	16.298882	11.784713	63.319411	-3.450005	-10.618426	0.747740	2.227960	-0.900340	-0.673765	-0.015381	0.727110	-1.000000	-1.000000	-1.000000	-1.000000	-1.000000	-1.000000	-1.000000	53.000000	0.000000	-1.000000	-1.000000	337628.000000	1775787588.687536
-19077.570000	-15030.495000	8406.360000	279703.215000	303583.185000	279060.885000	-9318.555000	-26145.945000	-5.485664	-3.769029	-2.272921	14.637420	3.497088	64.749982	-3.744264	-9.702894	0.747740	2.227960	-0.900340	-0.673765	-0.015381	0.727110	-1.000000	-1.000000	-1.000000	-1.000000	-1.000000	-1.000000	-1.000000	53.000000	0.000000	-1.000000	-1.000000	337629.000000	1775787588.689311
-19072.575000	-15022.620000	8414.505000	279699.930000	303569.595000	279060.210000	-9314.460000	-26142.345000	-1.656932	0.562777	1.774695	10.272072	-3.069589	49.429498	-1.789797	-4.861401	0.747740	2.227960	-0.900340	-0.673765	-0.015381	0.727110	-1.000000	-1.000000	-1.000000	-1.000000	-1.000000	-1.000000	-1.000000	53.000000	0.000000	-1.000000	-1.000000	337630.000000	1775787588.689332
-19067.040000	-15016.545000	8417.520000	279666.270000	303495.705000	279028.800000	-9311.715000	-26134.605000	2.441880	4.212887	4.694547	3.760532	-8.471310	26.153791	1.678603	1.651252	-1.144500	2.105880	1.037680	-0.674376	-0.011475	0.726194	-1.000000	-1.000000	-1.000000	-1.000000	-1.000000	-1.000000	-1.000000	53.000000	0.000000	-1.000000	-1.000000	337631.000000	1775787588.691742
-19066.995000	-15018.525000	8413.785000	279664.560000	303545.520000	279028.035000	-9309.780000	-26130.375000	5.323427	5.937190	5.374354	-4.349889	-13.670950	2.259018	4.882215	7.348712	-1.144500	2.105880	1.037680	-0.674376	-0.011475	0.726194	-1.000000	-1.000000	-1.000000	-1.000000	-1.000000	-1.000000	-1.000000	53.000000	0.000000	-1.000000	-1.000000	337632.000000	1775787588.691764
-19064.565000	-15020.505000	8411.760000	279657.675000	303541.470000	279018.630000	-9309.960000	-26127.270000	5.922091	4.958793	3.396785	-11.277543	-14.393151	-15.959766	6.077998	10.173365	-1.144500	2.105880	1.037680	-0.674376	-0.011475	0.726194	-1.000000	-1.000000	-1.000000	-1.000000	-1.000000	-1.000000	-1.000000	53.000000	0.000000	-1.000000	-1.000000	337633.000000	1775787588.694081
-19072.530000	-15026.715000	8408.655000	279688.680000	303619.770000	279046.980000	-9321.615000	-26137.620000	3.924538	1.411016	-0.485431	-12.453395	-5.006908	-23.324420	4.424054	8.911429	-1.144500	2.105880	1.037680	-0.674376	-0.011475	0.726194	-1.000000	-1.000000	-1.000000	-1.000000	-1.000000	-1.000000	-1.000000	53.000000	0.000000	-1.000000	-1.000000	337634.000000	1775787588.694101
-19069.515000	-15022.305000	8412.570000	279693.810000	303587.955000	279045.945000	-9322.110000	-26137.215000	0.116763	-3.100517	-4.285041	-5.676805	12.057053	-18.564765	0.372058	3.834742	-1.144500	2.105880	1.037680	-0.674376	-0.011475	0.726194	-1.000000	-1.000000	-1.000000	-1.000000	-1.000000	-1.000000	-1.000000	53.000000	0.000000	-1.000000	-1.000000	337635.000000	1775787588.697945
-19070.820000	-15021.270000	8413.830000	279697.950000	303579.495000	279046.350000	-9326.790000	-26141.265000	-3.662453	-6.106162	-5.926166	5.484464	24.957878	-6.525781	-4.121153	-2.776393	-1.144500	2.105880	1.037680	-0.674376	-0.011475	0.726194	-1.000000	-1.000000	-1.000000	-1.000000	-1.000000	-1.000000	-1.000000	53.000000	0.000000	-1.000000	-1.000000	337636.000000	1775787588.697960
-19072.260000	-15020.550000	8414.325000	279700.380000	303580.170000	279049.275000	-9334.485000	-26145.090000	-5.572382	-6.045137	-4.730814	13.724485	22.936402	4.546719	-6.743717	-7.755240	-1.144500	2.105880	1.037680	-0.674376	-0.011475	0.726194	-1.000000	-1.000000	-1.000000	-1.000000	-1.000000	-1.000000	-1.000000	53.000000	0.000000	-1.000000	-1.000000	337637.000000	1775787588.704264
-19068.120000	-15015.555000	8419.995000	279699.525000	303575.310000	279050.445000	-9330.840000	-26139.465000	-5.003489	-3.354252	-1.715277	14.103446	7.477106	9.171783	-6.445080	-9.033975	-1.144500	2.105880	1.037680	-0.674376	-0.011475	0.726194	-1.000000	-1.000000	-1.000000	-1.000000	-1.000000	-1.000000	-1.000000	53.000000	0.000000	-1.000000	-1.000000	337638.000000	1775787588.704285
-19066.140000	-15014.070000	8423.460000	279698.175000	303581.880000	279052.380000	-9316.080000	-26132.220000	-2.510350	0.302779	1.534758	7.155685	-10.576763	7.180024	-3.211655	-6.259119	-1.144500	2.105880	1.037680	-0.674376	-0.011475	0.726194	-1.000000	-1.000000	-1.000000	-1.000000	-1.000000	-1.000000	-1.000000	53.000000	0.000000	-1.000000	-1.000000	337639.000000	1775787588.711095
-19077.030000	-15030.270000	8404.245000	279680.760000	303539.220000	279036.405000	-9307.440000	-26135.415000	0.457549	2.861235	3.358970	-3.034201	-21.916925	1.410660	2.263811	-0.898913	-1.144500	2.105880	1.037680	-0.674376	-0.011475	0.726194	-1.000000	-1.000000	-1.000000	-1.000000	-1.000000	-1.000000	-1.000000	53.000000	0.000000	-1.000000	-1.000000	337640.000000	1775787588.711119
-19075.905000	-15030.315000	8401.140000	279658.755000	303528.960000	279012.600000	-9309.510000	-26136.720000	2.090263	2.684646	2.322294	-12.286128	-24.394807	-5.406264	7.648495	4.018088	-0.976640	2.884140	0.442540	-0.672423	-0.009460	0.724608	-1.000000	-1.000000	-1.000000	-1.000000	-1.000000	-1.000000	-1.000000	53.000000	0.000000	-1.000000	-1.000000	337641.000000	1775787588.711145
-19077.795000	-15025.950000	8409.105000	279685.935000	303609.555000	279037.170000	-9322.965000	-26153.280000	1.853077	0.402994	-0.784744	-17.074914	-18.353905	-10.628301	9.356412	5.630783	-0.976640	2.884140	0.442540	-0.672423	-0.009460	0.724608	-1.000000	-1.000000	-1.000000	-1.000000	-1.000000	-1.000000	-1.000000	53.000000	0.000000	-1.000000	-1.000000	337642.000000	1775787588.711157
-19070.460000	-15015.600000	8419.050000	279648.360000	303474.060000	278994.960000	-9327.915000	-26152.020000	0.960552	-1.185469	-2.666334	-14.870842	-5.373258	-11.404105	5.439942	3.271757	-0.976640	2.884140	0.442540	-0.672423	-0.009460	0.724608	-1.000000	-1.000000	-1.000000	-1.000000	-1.000000	-1.000000	-1.000000	53.000000	0.000000	-1.000000	-1.000000	337643.000000	1775787588.716238
-19072.755000	-15018.255000	8415.945000	279637.290000	303498.810000	278979.975000	-9325.080000	-26147.205000	0.773642	-0.260745	-1.222310	-7.511406	5.794271	-8.125932	-1.916360	-0.710551	-0.976640	2.884140	0.442540	-0.672423	-0.009460	0.724608	-1.000000	-1.000000	-1.000000	-1.000000	-1.000000	-1.000000	-1.000000	53.000000	0.000000	-1.000000	-1.000000	337644.000000	1775787588.716256
-19067.760000	-15016.545000	8416.080000	279669.960000	303601.365000	279013.140000	-9310.770000	-26132.445000	1.410586	2.059098	1.989264	0.817044	10.423718	-3.089208	-7.573907	-2.580114	-0.976640	2.884140	0.442540	-0.672423	-0.009460	0.724608	-1.000000	-1.000000	-1.000000	-1.000000	-1.000000	-1.000000	-1.000000	53.000000	0.000000	-1.000000	-1.000000	337645.000000	1775787588.717954
-19057.635000	-15009.795000	8421.795000	279699.255000	303619.320000	279043.020000	-9300.375000	-26113.770000	2.236110	3.526982	4.062316	9.373728	16.491415	4.454161	-7.592516	-0.339208	-0.976640	2.884140	0.442540	-0.672423	-0.009460	0.724608	-1.000000	-1.000000	-1.000000	-1.000000	-1.000000	-1.000000	-1.000000	53.000000	0.000000	-1.000000	-1.000000	337646.000000	1775787588.717971
-19057.545000	-15014.295000	8418.060000	279694.710000	303581.160000	279040.680000	-9306.045000	-26110.755000	2.765369	3.142014	3.762134	17.841805	25.710040	14.480829	-2.642897	4.533291	-0.976640	2.884140	0.442540	-0.672423	-0.009460	0.724608	-1.000000	-1.000000	-1.000000	-1.000000	-1.000000	-1.000000	-1.000000	53.000000	0.000000	-1.000000	-1.000000	337647.000000	1775787588.727109
-19060.605000	-15019.875000	8411.580000	279689.175000	303580.620000	279038.115000	-9310.140000	-26116.830000	2.339473	1.023967	1.446952	21.534899	26.254779	21.278017	2.646681	7.821779	-0.976640	2.884140	0.442540	-0.672423	-0.009460	0.724608	-1.000000	-1.000000	-1.000000	-1.000000	-1.000000	-1.000000	-1.000000	53.000000	0.000000	-1.000000	-1.000000	337648.000000	1775787588.727136
-19070.145000	-15028.875000	8402.310000	279687.960000	303583.995000	279037.890000	-9311.445000	-26127.180000	0.194115	-2.251218	-2.014793	15.938473	11.660529	18.684060	4.206204	5.785052	-0.976640	2.884140	0.442540	-0.672423	-0.009460	0.724608	-1.000000	-1.000000	-1.000000	-1.000000	-1.000000	-1.000000	-1.000000	53.000000	0.000000	-1.000000	-1.000000	337649.000000	1775787588.727156
-19067.130000	-15025.095000	8404.065000	279658.710000	303505.560000	279005.130000	-9313.335000	-26126.415000	-3.263508	-5.302349	-5.187108	2.388415	-11.321992	6.550461	1.863922	-1.283952	-0.976640	2.884140	0.442540	-0.672423	-0.009460	0.724608	-1.000000	-1.000000	-1.000000	-1.000000	-1.000000	-1.000000	-1.000000	53.000000	0.000000	-1.000000	-1.000000	337650.000000	1775787588.727166
-19069.515000	-15023.970000	8407.935000	279676.170000	303598.980000	279019.440000	-9318.105000	-26130.780000	-6.040670	-6.160753	-6.127240	-12.722998	-30.567787	-9.444379	-1.792874	-9.009123	-2.990960	3.586100	0.457800	-0.673582	-0.007507	0.722838	-1.000000	-1.000000	-1.000000	-1.000000	-1.000000	-1.000000	-1.000000	53.000000	0.000000	-1.000000	-1.000000	337651.000000	1775787588.737488
-19076.265000	-15029.145000	8403.030000	279693.720000	303600.735000	279032.760000	-9321.300000	-26137.080000	-6.355271	-4.002095	-3.902206	-21.195622	-33.837555	-20.606751	-4.260934	-12.788310	-2.990960	3.586100	0.457800	-0.673582	-0.007507	0.722838	-1.000000	-1.000000	-1.000000	-1.000000	-1.000000	-1.000000	-1.000000	53.000000	0.000000	-1.000000	-1.000000	337652.000000	1775787588.737513
-19071.315000	-15022.845000	8409.420000	279699.435000	303589.305000	279036.810000	-9317.340000	-26130.735000	-4.189291	-0.104454	0.245410	-18.146452	-18.488047	-20.560466	-4.339791	-10.984066	-2.990960	3.586100	0.457800	-0.673582	-0.007507	0.722838	-1.000000	-1.000000	-1.000000	-1.000000	-1.000000	-1.000000	-1.000000	53.000000	0.000000	-1.000000	-1.000000	337653.000000	1775787588.737542
-19070.415000	-15019.830000	8413.020000	279700.605000	303582.015000	279039.510000	-9319.005000	-26130.105000	-0.555284	3.633791	4.185787	-6.660663	2.881989	-10.734927	-2.071171	-4.779455	-2.990960	3.586100	0.457800	-0.673582	-0.007507	0.722838	-1.000000	-1.000000	-1.000000	-1.000000	-1.000000	-1.000000	-1.000000	53.000000	0.000000	-1.000000	-1.000000	337654.000000	1775787588.737554
-19074.915000	-15025.410000	8408.295000	279698.535000	303582.060000	279040.320000	-9320.400000	-26135.145000	3.163121	5.819645	6.313364	5.016868	15.831060	1.552828	1.282697	2.816534	-2.990960	3.586100	0.457800	-0.673582	-0.007507	0.722838	-1.000000	-1.000000	-1.000000	-1.000000	-1.000000	-1.000000	-1.000000	53.000000	0.000000	-1.000000	-1.000000	337655.000000	1775787588.740463
-19070.190000	-15022.305000	8411.805000	279695.655000	303580.035000	279039.825000	-9318.780000	-26131.230000	5.421748	5.575065	5.778199	10.455476	16.361408	9.527548	3.917800	8.295583	-2.990960	3.586100	0.457800	-0.673582	-0.007507	0.722838	-1.000000	-1.000000	-1.000000	-1.000000	-1.000000	-1.000000	-1.000000	53.000000	0.000000	-1.000000	-1.000000	337656.000000	1775787588.740488
-19061.415000	-15012.540000	8422.200000	279693.270000	303576.345000	279037.980000	-9320.355000	-26125.470000	5.737115	3.383139	3.217481	8.581414	9.063055	10.658291	4.767607	9.956493	-2.990960	3.586100	0.457800	-0.673582	-0.007507	0.722838	-1.000000	-1.000000	-1.000000	-1.000000	-1.000000	-1.000000	-1.000000	53.000000	0.000000	-1.000000	-1.000000	337657.000000	1775787588.745084
-19046.880000	-14998.140000	8433.540000	279662.355000	303487.380000	279005.130000	-9319.005000	-26113.815000	5.087885	1.221978	0.692772	2.102349	-1.010638	5.951031	3.874111	8.648980	-2.990960	3.586100	0.457800	-0.673582	-0.007507	0.722838	-1.000000	-1.000000	-1.000000	-1.000000	-1.000000	-1.000000	-1.000000	53.000000	0.000000	-1.000000	-1.000000	337658.000000	1775787588.745106
-19051.245000	-15002.550000	8430.120000	279675.405000	303584.220000	279017.100000	-9316.125000	-26117.640000	4.259171	0.408880	-0.480658	-5.181531	-10.113342	-1.707023	2.029972	5.962230	-2.990960	3.586100	0.457800	-0.673582	-0.007507	0.722838	-1.000000	-1.000000	-1.000000	-1.000000	-1.000000	-1.000000	-1.000000	53.000000	0.000000	-1.000000	-1.000000	337659.000000	1775787588.745708
-19061.820000	-15011.145000	8423.505000	279697.230000	303597.855000	279035.325000	-9313.380000	-26126.595000	2.377457	-0.149400	-1.212638	-8.574597	-10.827927	-7.258641	0.279459	2.326686	-2.990960	3.586100	0.457800	-0.673582	-0.007507	0.722838	-1.000000	-1.000000	-1.000000	-1.000000	-1.000000	-1.000000	-1.000000	53.000000	0.000000	-1.000000	-1.000000	337660.000000	1775787588.745724
-19061.505000	-15011.640000	8423.100000	279699.255000	303575.445000	279035.280000	-9307.170000	-26124.840000	-1.592325	-2.196209	-2.945593	-4.807334	0.160166	-6.198002	-0.671148	-2.303791	-4.410140	2.426340	0.488320	-0.676939	-0.007690	0.721312	-1.000000	-1.000000	-1.000000	-1.000000	-1.000000	-1.000000	-1.000000	53.000000	0.000000	-1.000000	-1.000000	337661.000000	1775787588.752518
-19068.480000	-15020.190000	8415.405000	279698.355000	303578.820000	279035.595000	-9301.815000	-26127.855000	-6.408218	-5.364753	-5.381818	3.524699	13.080263	0.261393	-0.694528	-6.603308	-4.410140	2.426340	0.488320	-0.676939	-0.007690	0.721312	-1.000000	-1.000000	-1.000000	-1.000000	-1.000000	-1.000000	-1.000000	53.000000	0.000000	-1.000000	-1.000000	337662.000000	1775787588.752545
-19067.805000	-15018.795000	8416.620000	279700.695000	303581.160000	279039.645000	-9302.220000	-26126.955000	-9.330876	-7.554095	-6.870564	9.919737	16.779757	6.556045	-0.269117	-8.498356	-4.410140	2.426340	0.488320	-0.676939	-0.007690	0.721312	-1.000000	-1.000000	-1.000000	-1.000000	-1.000000	-1.000000	-1.000000	53.000000	0.000000	-1.000000	-1.000000	337663.000000	1775787588.753865
-19069.920000	-15018.165000	8417.520000	279698.085000	303576.930000	279040.185000	-9315.090000	-26138.250000	-8.602237	-6.944360	-5.987254	10.266657	10.202606	8.588940	-0.506000	-7.320822	-4.410140	2.426340	0.488320	-0.676939	-0.007690	0.721312	-1.000000	-1.000000	-1.000000	-1.000000	-1.000000	-1.000000	-1.000000	53.000000	0.000000	-1.000000	-1.000000	337664.000000	1775787588.753886
-19069.380000	-15017.130000	8416.845000	279692.010000	303573.150000	279035.730000	-9318.060000	-26140.950000	-4.534702	-3.285584	-2.588423	5.079617	-0.925410	5.924251	-2.290597	-4.296471	-4.410140	2.426340	0.488320	-0.676939	-0.007690	0.721312	-1.000000	-1.000000	-1.000000	-1.000000	-1.000000	-1.000000	-1.000000	53.000000	0.000000	-1.000000	-1.000000	337665.000000	1775787588.762670
-19063.350000	-15012.180000	8421.255000	279690.255000	303572.295000	279033.480000	-9307.665000	-26129.205000	1.028383	1.901543	1.960357	-2.311580	-10.301034	0.509933	-4.572516	-0.755999	-4.410140	2.426340	0.488320	-0.676939	-0.007690	0.721312	-1.000000	-1.000000	-1.000000	-1.000000	-1.000000	-1.000000	-1.000000	53.000000	0.000000	-1.000000	-1.000000	337666.000000	1775787588.762693
-19056.330000	-15006.465000	8427.330000	279691.875000	303577.155000	279033.795000	-9296.055000	-26116.695000	6.055398	6.447226	5.845028	-7.994472	-13.968867	-4.797894	-4.618496	3.226935	-4.410140	2.426340	0.488320	-0.676939	-0.007690	0.721312	-1.000000	-1.000000	-1.000000	-1.000000	-1.000000	-1.000000	-1.000000	53.000000	0.000000	-1.000000	-1.000000	337667.000000	1775787588.762716
-19052.055000	-15004.440000	8428.545000	279695.790000	303575.310000	279034.290000	-9296.865000	-26108.055000	9.054926	8.709914	7.812797	-9.315966	-11.314210	-7.503110	-1.245275	7.465897	-4.410140	2.426340	0.488320	-0.676939	-0.007690	0.721312	-1.000000	-1.000000	-1.000000	-1.000000	-1.000000	-1.000000	-1.000000	53.000000	0.000000	-1.000000	-1.000000	337668.000000	1775787588.762727
-19053.945000	-15010.875000	8421.390000	279692.505000	303551.190000	279027.045000	-9302.670000	-26106.480000	9.033881	7.811659	7.098411	-6.248835	-5.257141	-6.839305	3.169121	10.177301	-4.410140	2.426340	0.488320	-0.676939	-0.007690	0.721312	-1.000000	-1.000000	-1.000000	-1.000000	-1.000000	-1.000000	-1.000000	53.000000	0.000000	-1.000000	-1.000000	337669.000000	1775787588.772690
-19056.645000	-15011.955000	8419.500000	279667.305000	303504.435000	279000.540000	-9304.515000	-26111.115000	5.747506	3.870549	3.606877	-1.653053	-1.013638	-4.466694	5.066856	9.066612	-4.410140	2.426340	0.488320	-0.676939	-0.007690	0.721312	-1.000000	-1.000000	-1.000000	-1.000000	-1.000000	-1.000000	-1.000000	53.000000	0.000000	-1.000000	-1.000000	337670.000000	1775787588.772714
-19054.935000	-15006.555000	8427.645000	279697.500000	303608.025000	279032.805000	-9301.230000	-26113.005000	0.352545	-1.359094	-1.128341	1.450210	0.188612	-2.228438	3.430949	3.623828	-2.289000	1.754900	0.335720	-0.680357	-0.010132	0.720579	-1.000000	-1.000000	-1.000000	-1.000000	-1.000000	-1.000000	-1.000000	53.000000	0.000000	-1.000000	-1.000000	337671.000000	1775787588.772740
-19056.735000	-15007.500000	8427.060000	279702.540000	303586.335000	279041.445000	-9305.685000	-26117.820000	-4.762629	-5.153394	-4.427461	3.464194	4.082942	0.890327	0.157457	-3.916765	-2.289000	1.754900	0.335720	-0.680357	-0.010132	0.720579	-1.000000	-1.000000	-1.000000	-1.000000	-1.000000	-1.000000	-1.000000	53.000000	0.000000	-1.000000	-1.000000	337672.000000	1775787588.772750
-19056.555000	-15007.455000	8426.070000	279697.545000	303580.080000	279040.635000	-9303.570000	-26116.875000	-7.470838	-6.002071	-4.900606	5.787918	11.995150	5.878130	-2.429503	-9.925623	-2.289000	1.754900	0.335720	-0.680357	-0.010132	0.720579	-1.000000	-1.000000	-1.000000	-1.000000	-1.000000	-1.000000	-1.000000	53.000000	0.000000	-1.000000	-1.000000	337673.000000	1775787588.779038
-19058.220000	-15010.245000	8422.875000	279695.340000	303584.130000	279038.385000	-9305.415000	-26117.370000	-7.142013	-4.497131	-3.442442	6.924020	16.139246	9.865880	-3.202042	-11.651402	-2.289000	1.754900	0.335720	-0.680357	-0.010132	0.720579	-1.000000	-1.000000	-1.000000	-1.000000	-1.000000	-1.000000	-1.000000	53.000000	0.000000	-1.000000	-1.000000	337674.000000	1775787588.779059
-19054.665000	-15005.880000	8428.545000	279693.675000	303573.375000	279034.605000	-9308.430000	-26115.930000	-4.503922	-2.088601	-1.573220	4.899858	11.348196	9.231059	-2.329321	-8.674118	-2.289000	1.754900	0.335720	-0.680357	-0.010132	0.720579	-1.000000	-1.000000	-1.000000	-1.000000	-1.000000	-1.000000	-1.000000	53.000000	0.000000	-1.000000	-1.000000	337675.000000	1775787588.779124
-19045.890000	-14996.700000	8439.480000	279695.070000	303575.940000	279032.985000	-9306.675000	-26113.590000	-0.715015	0.378145	0.242991	0.463232	0.467220	3.825636	-0.738937	-2.813489	-2.289000	1.754900	0.335720	-0.680357	-0.010132	0.720579	-1.000000	-1.000000	-1.000000	-1.000000	-1.000000	-1.000000	-1.000000	53.000000	0.000000	-1.000000	-1.000000	337676.000000	1775787588.779135
-19049.175000	-14998.680000	8438.175000	279702.180000	303576.705000	279034.650000	-9309.915000	-26124.390000	3.004024	2.596197	2.136362	-3.664782	-10.020530	-3.160275	0.730840	2.971019	-2.289000	1.754900	0.335720	-0.680357	-0.010132	0.720579	-1.000000	-1.000000	-1.000000	-1.000000	-1.000000	-1.000000	-1.000000	53.000000	0.000000	-1.000000	-1.000000	337677.000000	1775787588.786462
-19056.465000	-15008.985000	8423.820000	279675.900000	303500.565000	279008.235000	-9306.675000	-26125.740000	5.007638	3.615451	3.132316	-5.651907	-16.145764	-8.362298	1.680775	6.013088	-2.289000	1.754900	0.335720	-0.680357	-0.010132	0.720579	-1.000000	-1.000000	-1.000000	-1.000000	-1.000000	-1.000000	-1.000000	53.000000	0.000000	-1.000000	-1.000000	337678.000000	1775787588.786483
-19059.345000	-15014.475000	8418.060000	279680.535000	303577.650000	279015.480000	-9299.295000	-26120.565000	4.043659	2.236457	1.629744	-6.028871	-17.501137	-10.501756	2.215152	5.758853	-2.289000	1.754900	0.335720	-0.680357	-0.010132	0.720579	-1.000000	-1.000000	-1.000000	-1.000000	-1.000000	-1.000000	-1.000000	53.000000	0.000000	-1.000000	-1.000000	337679.000000	1775787588.787698
-19061.010000	-15013.440000	8422.605000	279702.900000	303603.120000	279039.915000	-9298.080000	-26120.835000	0.844769	-0.980504	-1.845395	-4.964190	-11.275845	-8.687256	2.670839	3.953568	-2.289000	1.754900	0.335720	-0.680357	-0.010132	0.720579	-1.000000	-1.000000	-1.000000	-1.000000	-1.000000	-1.000000	-1.000000	53.000000	0.000000	-1.000000	-1.000000	337680.000000	1775787588.787719
-19064.025000	-15017.040000	8419.455000	279694.395000	303565.410000	279033.660000	-9306.540000	-26122.545000	-2.315472	-3.659606	-4.416537	-1.322819	3.077179	-2.268909	2.657337	2.313035	-1.449700	1.312360	-0.961380	-0.681456	-0.014221	0.719053	-1.000000	-1.000000	-1.000000	-1.000000	-1.000000	-1.000000	-1.000000	53.000000	0.000000	-1.000000	-1.000000	337681.000000	1775787588.791033
-19058.040000	-15012.855000	8418.960000	279649.170000	303466.590000	278988.660000	-9309.285000	-26116.695000	-3.495336	-3.879506	-4.053826	2.840952	14.161550	5.007884	1.212593	1.239889	-1.449700	1.312360	-0.961380	-0.681456	-0.014221	0.719053	-1.000000	-1.000000	-1.000000	-1.000000	-1.000000	-1.000000	-1.000000	53.000000	0.000000	-1.000000	-1.000000	337682.000000	1775787588.791055
-19053.135000	-15004.845000	8427.690000	279655.110000	303556.545000	278994.420000	-9302.715000	-26112.015000	-2.056252	-1.425750	-1.135317	2.957863	11.317160	6.864718	-1.378849	0.699254	-1.449700	1.312360	-0.961380	-0.681456	-0.014221	0.719053	-1.000000	-1.000000	-1.000000	-1.000000	-1.000000	-1.000000	-1.000000	53.000000	0.000000	-1.000000	-1.000000	337683.000000	1775787588.796810
-19053.900000	-15002.010000	8433.540000	279691.155000	303619.410000	279027.495000	-9306.495000	-26112.600000	1.069003	2.490366	2.836318	-0.056628	2.982883	3.450120	-3.307011	0.556368	-1.449700	1.312360	-0.961380	-0.681456	-0.014221	0.719053	-1.000000	-1.000000	-1.000000	-1.000000	-1.000000	-1.000000	-1.000000	53.000000	0.000000	-1.000000	-1.000000	337684.000000	1775787588.796833
-19044.090000	-14994.765000	8440.335000	279700.020000	303587.955000	279030.555000	-9307.395000	-26102.880000	3.915184	5.817452	6.183198	0.089973	3.555605	1.392350	-3.411389	0.401534	-1.449700	1.312360	-0.961380	-0.681456	-0.014221	0.719053	-1.000000	-1.000000	-1.000000	-1.000000	-1.000000	-1.000000	-1.000000	53.000000	0.000000	-1.000000	-1.000000	337685.000000	1775787588.799085
-19033.560000	-14986.620000	8445.825000	279689.085000	303523.245000	279015.795000	-9303.255000	-26092.530000	5.195531	6.905924	7.417967	5.036527	9.303222	3.406669	-2.067111	0.203700	-1.449700	1.312360	-0.961380	-0.681456	-0.014221	0.719053	-1.000000	-1.000000	-1.000000	-1.000000	-1.000000	-1.000000	-1.000000	53.000000	0.000000	-1.000000	-1.000000	337686.000000	1775787588.799105
-19031.490000	-14985.855000	8442.450000	279647.955000	303456.195000	278973.765000	-9302.400000	-26092.755000	4.828589	5.411834	5.798444	8.438992	5.109686	4.581078	-0.088177	0.181570	-1.449700	1.312360	-0.961380	-0.681456	-0.014221	0.719053	-1.000000	-1.000000	-1.000000	-1.000000	-1.000000	-1.000000	-1.000000	53.000000	0.000000	-1.000000	-1.000000	337687.000000	1775787588.805037
-19039.770000	-14992.200000	8440.875000	279680.895000	303602.220000	279009.585000	-9302.310000	-26101.035000	2.720344	1.776378	1.612127	4.870666	-9.523852	0.744247	1.717516	-0.323542	-1.449700	1.312360	-0.961380	-0.681456	-0.014221	0.719053	-1.000000	-1.000000	-1.000000	-1.000000	-1.000000	-1.000000	-1.000000	53.000000	0.000000	-1.000000	-1.000000	337688.000000	1775787588.805061
-19054.125000	-15006.195000	8431.065000	279699.480000	303607.260000	279031.185000	-9297.135000	-26111.160000	-1.466569	-3.320171	-3.795768	-2.005072	-16.254088	-4.105719	2.648320	-2.386639	-1.449700	1.312360	-0.961380	-0.681456	-0.014221	0.719053	-1.000000	-1.000000	-1.000000	-1.000000	-1.000000	-1.000000	-1.000000	53.000000	0.000000	-1.000000	-1.000000	337689.000000	1775787588.813624
-19053.270000	-15004.665000	8431.650000	279693.630000	303580.485000	279027.945000	-9298.440000	-26111.700000	-6.785671	-8.403474	-8.344876	-4.938612	-5.345856	-3.684765	2.529305	-5.588324	-1.449700	1.312360	-0.961380	-0.681456	-0.014221	0.719053	-1.000000	-1.000000	-1.000000	-1.000000	-1.000000	-1.000000	-1.000000	53.000000	0.000000	-1.000000	-1.000000	337690.000000	1775787588.813648
-19043.640000	-14994.270000	8440.650000	279693.900000	303575.805000	279026.055000	-9300.015000	-26102.610000	-10.132929	-10.702022	-9.772123	-3.033505	9.924941	1.070884	1.512930	-7.438177	-0.335720	0.488320	-2.197440	-0.678831	-0.015564	0.719420	-1.000000	-1.000000	-1.000000	-1.000000	-1.000000	-1.000000	-1.000000	53.000000	0.000000	-1.000000	-1.000000	337691.000000	1775787588.813675
-19034.865000	-14987.520000	8444.115000	279667.800000	303494.760000	278995.680000	-9291.420000	-26091.495000	-8.413776	-7.895756	-6.813574	-0.922817	12.588800	3.856863	0.020631	-5.373260	-0.335720	0.488320	-2.197440	-0.678831	-0.015564	0.719420	-1.000000	-1.000000	-1.000000	-1.000000	-1.000000	-1.000000	-1.000000	53.000000	0.000000	-1.000000	-1.000000	337692.000000	1775787588.813686
-19037.025000	-14994.855000	8436.780000	279675.720000	303567.795000	278999.370000	-9280.530000	-26087.220000	-2.009155	-1.110732	-0.939443	-1.970506	0.664396	0.855404	-0.876190	0.456230	-0.335720	0.488320	-2.197440	-0.678831	-0.015564	0.719420	-1.000000	-1.000000	-1.000000	-1.000000	-1.000000	-1.000000	-1.000000	53.000000	0.000000	-1.000000	-1.000000	337693.000000	1775787588.815897
-19052.685000	-15012.495000	8420.580000	279698.175000	303600.195000	279018.855000	-9289.530000	-26101.935000	4.731883	5.013875	3.930750	-4.359378	-11.809081	-4.983243	-0.573313	6.439572	-0.335720	0.488320	-2.197440	-0.678831	-0.015564	0.719420	-1.000000	-1.000000	-1.000000	-1.000000	-1.000000	-1.000000	-1.000000	53.000000	0.000000	-1.000000	-1.000000	337694.000000	1775787588.815921
-19052.730000	-15011.505000	8421.840000	279700.965000	303587.055000	279020.610000	-9292.680000	-26104.680000	7.235699	6.466265	4.821975	-3.651698	-11.198245	-7.232238	-0.245909	8.208795	-0.335720	0.488320	-2.197440	-0.678831	-0.015564	0.719420	-1.000000	-1.000000	-1.000000	-1.000000	-1.000000	-1.000000	-1.000000	53.000000	0.000000	-1.000000	-1.000000	337695.000000	1775787588.819865
-19050.390000	-15008.805000	8423.910000	279701.685000	303580.260000	279020.880000	-9293.265000	-26103.870000	5.006662	3.797509	2.632044	0.819378	-0.511092	-3.666695	-1.198321	4.850919	-0.335720	0.488320	-2.197440	-0.678831	-0.015564	0.719420	-1.000000	-1.000000	-1.000000	-1.000000	-1.000000	-1.000000	-1.000000	53.000000	0.000000	-1.000000	-1.000000	337696.000000	1775787588.819888
-19043.820000	-15001.020000	8432.010000	279697.770000	303573.420000	279018.990000	-9288.900000	-26098.200000	1.400632	0.876382	0.732509	5.130431	7.939423	2.079918	-2.742998	-0.320597	-0.335720	0.488320	-2.197440	-0.678831	-0.015564	0.719420	-1.000000	-1.000000	-1.000000	-1.000000	-1.000000	-1.000000	-1.000000	53.000000	0.000000	-1.000000	-1.000000	337697.000000	1775787588.825164
-19043.550000	-14997.960000	8436.105000	279692.325000	303573.960000	279016.470000	-9292.590000	-26100.045000	-0.401350	0.485476	1.237359	5.615676	7.811896	5.458740	-3.220952	-3.437932	-0.335720	0.488320	-2.197440	-0.678831	-0.015564	0.719420	-1.000000	-1.000000	-1.000000	-1.000000	-1.000000	-1.000000	-1.000000	53.000000	0.000000	-1.000000	-1.000000	337698.000000	1775787588.825186
-19047.060000	-15000.795000	8434.755000	279690.705000	303581.745000	279016.110000	-9296.190000	-26104.905000	-0.078095	2.115093	3.323877	2.066051	1.814256	4.828511	-2.193922	-3.457689	-0.335720	0.488320	-2.197440	-0.678831	-0.015564	0.719420	-1.000000	-1.000000	-1.000000	-1.000000	-1.000000	-1.000000	-1.000000	53.000000	0.000000	-1.000000	-1.000000	337699.000000	1775787588.829537
-19055.115000	-15009.660000	8425.530000	279690.390000	303583.905000	279013.095000	-9302.895000	-26112.690000	0.527545	3.151585	4.369164	-2.759842	-3.849697	1.549251	-0.662586	-2.011743	-0.335720	0.488320	-2.197440	-0.678831	-0.015564	0.719420	-1.000000	-1.000000	-1.000000	-1.000000	-1.000000	-1.000000	-1.000000	53.000000	0.000000	-1.000000	-1.000000	337700.000000	1775787588.829556
-19054.530000	-15008.760000	8426.160000	279691.110000	303580.440000	279010.530000	-9303.570000	-26111.790000	-0.096566	1.745850	2.571156	-5.630675	-5.527435	-1.955220	0.373576	-0.903659	-0.030520	-0.289940	-1.632820	-0.674986	-0.014160	0.720518	-1.000000	-1.000000	-1.000000	-1.000000	-1.000000	-1.000000	-1.000000	53.000000	0.000000	-1.000000	-1.000000	337701.000000	1775787588.830177
-19051.290000	-15005.520000	8430.075000	279695.745000	303581.430000	279010.170000	-9302.940000	-26109.585000	-1.467557	-1.247169	-1.099024	-5.037923	-3.786946	-3.905045	0.928708	-0.312787	-0.030520	-0.289940	-1.632820	-0.674986	-0.014160	0.720518	-1.000000	-1.000000	-1.000000	-1.000000	-1.000000	-1.000000	-1.000000	53.000000	0.000000	-1.000000	-1.000000	337702.000000	1775787588.830194
-19053.585000	-15007.950000	8427.555000	279699.210000	303581.610000	279011.295000	-9305.280000	-26112.105000	-2.047492	-3.455540	-3.987724	-1.637824	-0.943876	-3.659044	1.549789	0.504645	-0.030520	-0.289940	-1.632820	-0.674986	-0.014160	0.720518	-1.000000	-1.000000	-1.000000	-1.000000	-1.000000	-1.000000	-1.000000	53.000000	0.000000	-1.000000	-1.000000	337703.000000	1775787588.833385
-19056.195000	-15009.660000	8426.160000	279696.060000	303574.545000	279009.630000	-9309.240000	-26115.345000	-1.334425	-3.656412	-4.584900	2.431869	1.191259	-1.668054	2.236002	1.563623	-0.030520	-0.289940	-1.632820	-0.674986	-0.014160	0.720518	-1.000000	-1.000000	-1.000000	-1.000000	-1.000000	-1.000000	-1.000000	53.000000	0.000000	-1.000000	-1.000000	337704.000000	1775787588.833408
-19058.490000	-15012.045000	8424.180000	279697.320000	303587.325000	279013.545000	-9310.635000	-26117.595000	-0.156835	-2.413910	-3.348450	4.811186	2.019687	0.894070	2.433664	2.107208	-0.030520	-0.289940	-1.632820	-0.674986	-0.014160	0.720518	-1.000000	-1.000000	-1.000000	-1.000000	-1.000000	-1.000000	-1.000000	53.000000	0.000000	-1.000000	-1.000000	337705.000000	1775787588.848093
-19059.435000	-15011.955000	8424.135000	279691.110000	303582.735000	279010.125000	-9312.840000	-26119.665000	0.616365	-0.811120	-1.442207	4.391034	2.170038	2.836724	1.894198	1.721881	-0.030520	-0.289940	-1.632820	-0.674986	-0.014160	0.720518	-1.000000	-1.000000	-1.000000	-1.000000	-1.000000	-1.000000	-1.000000	53.000000	0.000000	-1.000000	-1.000000	337706.000000	1775787588.848114
-19059.300000	-15012.180000	8424.450000	279687.735000	303582.375000	279007.155000	-9314.280000	-26119.935000	0.836309	0.513111	0.305692	1.723066	2.157265	3.330697	0.932142	0.761226	-0.030520	-0.289940	-1.632820	-0.674986	-0.014160	0.720518	-1.000000	-1.000000	-1.000000	-1.000000	-1.000000	-1.000000	-1.000000	53.000000	0.000000	-1.000000	-1.000000	337707.000000	1775787588.848184
-19057.095000	-15010.605000	8423.505000	279656.100000	303500.745000	278972.145000	-9314.820000	-26117.325000	0.867162	1.415563	1.528192	-2.104336	0.223757	1.603324	0.041126	-0.033937	-0.030520	-0.289940	-1.632820	-0.674986	-0.014160	0.720518	-1.000000	-1.000000	-1.000000	-1.000000	-1.000000	-1.000000	-1.000000	53.000000	0.000000	-1.000000	-1.000000	337708.000000	1775787588.848198
-19061.145000	-15015.060000	8420.625000	279671.175000	303599.340000	278985.420000	-9316.260000	-26120.610000	0.958364	1.837575	2.021624	-5.814200	-4.244829	-2.255456	-0.449153	-0.196180	-0.030520	-0.289940	-1.632820	-0.674986	-0.014160	0.720518	-1.000000	-1.000000	-1.000000	-1.000000	-1.000000	-1.000000	-1.000000	53.000000	0.000000	-1.000000	-1.000000	337709.000000	1775787588.848217
-19061.730000	-15016.320000	8417.655000	279659.475000	303525.360000	278969.580000	-9313.380000	-26118.450000	0.881250	1.577705	1.662215	-7.079226	-6.351472	-5.683088	-0.456950	0.067905	-0.030520	-0.289940	-1.632820	-0.674986	-0.014160	0.720518	-1.000000	-1.000000	-1.000000	-1.000000	-1.000000	-1.000000	-1.000000	53.000000	0.000000	-1.000000	-1.000000	337710.000000	1775787588.848226
-19058.040000	-15012.135000	8422.560000	279671.805000	303593.220000	278978.445000	-9310.095000	-26114.985000	0.473642	0.764529	0.768359	-4.151976	-2.498569	-5.594723	-0.007577	0.372250	-0.579880	-0.091560	-0.366240	-0.672117	-0.012451	0.720762	-1.000000	-1.000000	-1.000000	-1.000000	-1.000000	-1.000000	-1.000000	53.000000	0.000000	-1.000000	-1.000000	337711.000000	1775787588.850848
-19056.285000	-15009.255000	8426.970000	279689.580000	303608.700000	278996.085000	-9308.610000	-26113.230000	0.127058	0.142534	0.218402	2.216502	5.631602	-1.221741	0.720474	0.639350	-0.579880	-0.091560	-0.366240	-0.672117	-0.012451	0.720762	-1.000000	-1.000000	-1.000000	-1.000000	-1.000000	-1.000000	-1.000000	53.000000	0.000000	-1.000000	-1.000000	337712.000000	1775787588.850871
-19054.665000	-15007.815000	8428.545000	279691.200000	303591.375000	278998.380000	-9305.415000	-26111.880000	0.186022	0.239313	0.582330	9.344424	13.893499	5.756914	1.268070	0.779799	-0.579880	-0.091560	-0.366240	-0.672117	-0.012451	0.720762	-1.000000	-1.000000	-1.000000	-1.000000	-1.000000	-1.000000	-1.000000	53.000000	0.000000	-1.000000	-1.000000	337713.000000	1775787588.856698
-19052.865000	-15005.970000	8430.210000	279685.845000	303578.460000	278995.320000	-9305.730000	-26111.070000	0.438552	0.712083	1.351844	13.251076	15.589976	11.410763	1.171190	0.541568	-0.579880	-0.091560	-0.366240	-0.672117	-0.012451	0.720762	-1.000000	-1.000000	-1.000000	-1.000000	-1.000000	-1.000000	-1.000000	53.000000	0.000000	-1.000000	-1.000000	337714.000000	1775787588.856721
-19049.400000	-15002.145000	8433.720000	279683.055000	303585.705000	278994.060000	-9304.920000	-26107.830000	0.511837	0.917228	1.592509	10.820681	7.318106	11.696255	0.294482	-0.114028	-0.579880	-0.091560	-0.366240	-0.672117	-0.012451	0.720762	-1.000000	-1.000000	-1.000000	-1.000000	-1.000000	-1.000000	-1.000000	53.000000	0.000000	-1.000000	-1.000000	337715.000000	1775787588.858711
-19050.300000	-15003.495000	8432.055000	279681.255000	303583.050000	278991.540000	-9306.945000	-26107.650000	0.246975	0.561661	0.902503	2.895894	-5.697994	6.048138	-1.094949	-0.875987	-0.579880	-0.091560	-0.366240	-0.672117	-0.012451	0.720762	-1.000000	-1.000000	-1.000000	-1.000000	-1.000000	-1.000000	-1.000000	53.000000	0.000000	-1.000000	-1.000000	337716.000000	1775787588.858732
-19052.415000	-15006.240000	8429.085000	279679.635000	303584.580000	278987.130000	-9309.195000	-26108.145000	-0.425495	-0.392525	-0.585741	-6.162992	-15.181518	-2.357578	-2.480594	-1.450308	-0.579880	-0.091560	-0.366240	-0.672117	-0.012451	0.720762	-1.000000	-1.000000	-1.000000	-1.000000	-1.000000	-1.000000	-1.000000	53.000000	0.000000	-1.000000	-1.000000	337717.000000	1775787588.861940
-19053.090000	-15007.140000	8428.770000	279682.155000	303583.140000	278984.655000	-9308.070000	-26107.830000	-1.448057	-1.767789	-2.390730	-11.796480	-16.816704	-9.329379	-3.285852	-1.772134	-0.579880	-0.091560	-0.366240	-0.672117	-0.012451	0.720762	-1.000000	-1.000000	-1.000000	-1.000000	-1.000000	-1.000000	-1.000000	53.000000	0.000000	-1.000000	-1.000000	337718.000000	1775787588.861956
-19055.655000	-15008.130000	8427.870000	279687.780000	303589.170000	278986.410000	-9309.735000	-26109.405000	-2.406271	-2.945945	-3.661553	-11.804616	-11.458094	-12.008537	-3.049762	-1.825491	-0.579880	-0.091560	-0.366240	-0.672117	-0.012451	0.720762	-1.000000	-1.000000	-1.000000	-1.000000	-1.000000	-1.000000	-1.000000	53.000000	0.000000	-1.000000	-1.000000	337719.000000	1775787588.868064
-19053.675000	-15004.845000	8431.785000	279686.745000	303581.925000	278983.665000	-9310.185000	-26108.640000	-2.699985	-3.116042	-3.571084	-7.037953	-2.933774	-9.845052	-1.792429	-1.561687	-0.579880	-0.091560	-0.366240	-0.672117	-0.012451	0.720762	-1.000000	-1.000000	-1.000000	-1.000000	-1.000000	-1.000000	-1.000000	53.000000	0.000000	-1.000000	-1.000000	337720.000000	1775787588.868082
-19059.795000	-15010.155000	8428.500000	279687.150000	303591.510000	278984.790000	-9315.945000	-26114.805000	-2.056429	-2.010379	-2.001050	-0.616693	4.555035	-4.529186	-0.170562	-1.054774	-2.319520	-0.198380	-0.427280	-0.673948	-0.010437	0.721739	-1.000000	-1.000000	-1.000000	-1.000000	-1.000000	-1.000000	-1.000000	53.000000	0.000000	-1.000000	-1.000000	337721.000000	1775787588.879636
-19057.545000	-15007.995000	8430.660000	279684.270000	303587.010000	278984.205000	-9311.940000	-26110.800000	-0.800860	-0.265336	0.219700	4.119829	8.567375	1.239123	1.074709	-0.483395	-2.319520	-0.198380	-0.427280	-0.673948	-0.010437	0.721739	-1.000000	-1.000000	-1.000000	-1.000000	-1.000000	-1.000000	-1.000000	53.000000	0.000000	-1.000000	-1.000000	337722.000000	1775787588.879658
-19057.635000	-15006.330000	8431.515000	279675.495000	303576.750000	278979.030000	-9313.470000	-26113.545000	0.591630	1.300428	2.020117	5.402346	8.545059	5.178902	1.795108	0.168667	-2.319520	-0.198380	-0.427280	-0.673948	-0.010437	0.721739	-1.000000	-1.000000	-1.000000	-1.000000	-1.000000	-1.000000	-1.000000	53.000000	0.000000	-1.000000	-1.000000	337723.000000	1775787588.879682
-19058.625000	-15006.465000	8428.680000	279642.240000	303508.620000	278945.145000	-9321.120000	-26121.150000	1.816652	2.333559	2.793389	2.929824	3.919604	5.596298	2.036036	0.799499	-2.319520	-0.198380	-0.427280	-0.673948	-0.010437	0.721739	-1.000000	-1.000000	-1.000000	-1.000000	-1.000000	-1.000000	-1.000000	53.000000	0.000000	-1.000000	-1.000000	337724.000000	1775787588.879692
-19058.130000	-15005.835000	8431.380000	279657.765000	303608.430000	278959.455000	-9326.880000	-26122.500000	2.531040	2.668455	2.437218	-1.932006	-3.293528	2.273538	1.449999	0.926392	-2.319520	-0.198380	-0.427280	-0.673948	-0.010437	0.721739	-1.000000	-1.000000	-1.000000	-1.000000	-1.000000	-1.000000	-1.000000	53.000000	0.000000	-1.000000	-1.000000	337725.000000	1775787588.879705
-19056.915000	-15001.515000	8437.545000	279671.535000	303605.010000	278968.590000	-9326.655000	-26122.095000	2.522426	2.295185	1.492381	-4.980537	-5.160920	-1.476536	0.088806	0.556038	-2.319520	-0.198380	-0.427280	-0.673948	-0.010437	0.721739	-1.000000	-1.000000	-1.000000	-1.000000	-1.000000	-1.000000	-1.000000	53.000000	0.000000	-1.000000	-1.000000	337726.000000	1775787588.879714
-19053.810000	-14997.240000	8442.360000	279676.305000	303593.535000	278967.960000	-9321.885000	-26112.915000	1.979251	1.598576	0.881593	-2.353253	1.946965	-1.477460	-0.921782	0.565687	-2.319520	-0.198380	-0.427280	-0.673948	-0.010437	0.721739	-1.000000	-1.000000	-1.000000	-1.000000	-1.000000	-1.000000	-1.000000	53.000000	0.000000	-1.000000	-1.000000	337727.000000	1775787588.883713
-19060.380000	-15008.490000	8431.695000	279675.495000	303591.690000	278965.575000	-9319.005000	-26105.130000	1.130947	0.749735	0.681028	4.372979	9.900857	2.048490	-0.415351	1.755789	-2.319520	-0.198380	-0.427280	-0.673948	-0.010437	0.721739	-1.000000	-1.000000	-1.000000	-1.000000	-1.000000	-1.000000	-1.000000	53.000000	0.000000	-1.000000	-1.000000	337728.000000	1775787588.883729
-19062.360000	-15013.485000	8426.070000	279676.170000	303595.785000	278966.115000	-9313.830000	-26099.325000	-0.119734	-0.774004	-0.207933	9.683672	10.288319	5.337891	1.471105	3.756854	-2.319520	-0.198380	-0.427280	-0.673948	-0.010437	0.721739	-1.000000	-1.000000	-1.000000	-1.000000	-1.000000	-1.000000	-1.000000	53.000000	0.000000	-1.000000	-1.000000	337729.000000	1775787588.887600
-19055.205000	-15010.425000	8426.430000	279672.840000	303588.540000	278964.225000	-9303.345000	-26085.870000	-1.508722	-2.893127	-2.225799	9.674305	3.368371	5.624035	3.545043	5.204919	-2.319520	-0.198380	-0.427280	-0.673948	-0.010437	0.721739	-1.000000	-1.000000	-1.000000	-1.000000	-1.000000	-1.000000	-1.000000	53.000000	0.000000	-1.000000	-1.000000	337730.000000	1775787588.887619
-19058.805000	-15021.180000	8414.010000	279668.745000	303594.885000	278963.325000	-9311.760000	-26089.065000	-2.097454	-4.286097	-4.188260	4.526337	-5.475597	2.902474	4.436499	4.867916	-3.876040	-1.510740	0.076300	-0.675474	-0.010498	0.722471	-1.000000	-1.000000	-1.000000	-1.000000	-1.000000	-1.000000	-1.000000	53.000000	0.000000	-1.000000	-1.000000	337731.000000	1775787588.892430
-19052.415000	-15013.170000	8422.785000	279663.030000	303588.135000	278956.755000	-9317.970000	-26093.295000	-1.449549	-3.890695	-4.638808	-2.721591	-11.106089	-1.135363	2.880885	2.068161	-3.876040	-1.510740	0.076300	-0.675474	-0.010498	0.722471	-1.000000	-1.000000	-1.000000	-1.000000	-1.000000	-1.000000	-1.000000	53.000000	0.000000	-1.000000	-1.000000	337732.000000	1775787588.892451
-19054.215000	-15012.495000	8423.910000	279661.770000	303595.200000	278953.605000	-9320.265000	-26097.570000	-0.107622	-1.599979	-2.765739	-8.462870	-11.357655	-4.648961	-1.177333	-2.859944	-3.876040	-1.510740	0.076300	-0.675474	-0.010498	0.722471	-1.000000	-1.000000	-1.000000	-1.000000	-1.000000	-1.000000	-1.000000	53.000000	0.000000	-1.000000	-1.000000	337733.000000	1775787588.894602
-19057.230000	-15013.440000	8423.145000	279663.075000	303600.555000	278952.165000	-9322.830000	-26099.505000	0.945082	1.755010	0.986245	-10.225913	-7.004649	-6.336001	-5.645157	-7.930210	-3.876040	-1.510740	0.076300	-0.675474	-0.010498	0.722471	-1.000000	-1.000000	-1.000000	-1.000000	-1.000000	-1.000000	-1.000000	53.000000	0.000000	-1.000000	-1.000000	337734.000000	1775787588.894632
-19054.800000	-15006.555000	8432.775000	279663.480000	303588.405000	278948.070000	-9315.900000	-26096.355000	0.963300	4.556205	4.773698	-7.600688	-0.730420	-5.672438	-7.684711	-10.405290	-3.876040	-1.510740	0.076300	-0.675474	-0.010498	0.722471	-1.000000	-1.000000	-1.000000	-1.000000	-1.000000	-1.000000	-1.000000	53.000000	0.000000	-1.000000	-1.000000	337735.000000	1775787588.910954
-19059.615000	-15011.820000	8429.490000	279666.360000	303592.500000	278947.035000	-9302.265000	-26093.475000	0.084141	5.513124	6.800549	-2.251135	4.042213	-3.166802	-5.668050	-8.679239	-3.876040	-1.510740	0.076300	-0.675474	-0.010498	0.722471	-1.000000	-1.000000	-1.000000	-1.000000	-1.000000	-1.000000	-1.000000	53.000000	0.000000	-1.000000	-1.000000	337736.000000	1775787588.910976
-19057.455000	-15016.005000	8423.820000	279669.870000	303600.870000	278951.085000	-9294.840000	-26085.015000	-0.963580	4.152515	6.066368	3.228647	5.720121	0.091360	-0.203777	-3.344177	-3.876040	-1.510740	0.076300	-0.675474	-0.010498	0.722471	-1.000000	-1.000000	-1.000000	-1.000000	-1.000000	-1.000000	-1.000000	53.000000	0.000000	-1.000000	-1.000000	337737.000000	1775787588.910999
-19048.905000	-15010.830000	8426.340000	279667.260000	303588.720000	278949.870000	-9305.865000	-26079.255000	-1.315073	1.027390	2.642675	6.640937	5.134240	3.096958	5.498512	3.253729	-3.876040	-1.510740	0.076300	-0.675474	-0.010498	0.722471	-1.000000	-1.000000	-1.000000	-1.000000	-1.000000	-1.000000	-1.000000	53.000000	0.000000	-1.000000	-1.000000	337738.000000	1775787588.911009
-19038.690000	-14996.430000	8442.270000	279664.515000	303590.655000	278950.455000	-9306.405000	-26073.360000	-0.207516	-1.814412	-1.438968	6.821442	3.206886	4.926886	7.418755	8.310365	-3.876040	-1.510740	0.076300	-0.675474	-0.010498	0.722471	-1.000000	-1.000000	-1.000000	-1.000000	-1.000000	-1.000000	-1.000000	53.000000	0.000000	-1.000000	-1.000000	337739.000000	1775787588.911021
-19042.515000	-15003.090000	8433.360000	279616.635000	303462.360000	278904.870000	-9298.710000	-26074.035000	1.972682	-2.463763	-3.567614	3.236468	-1.608624	4.140435	4.545672	9.779588	-3.876040	-1.510740	0.076300	-0.675474	-0.010498	0.722471	-1.000000	-1.000000	-1.000000	-1.000000	-1.000000	-1.000000	-1.000000	53.000000	0.000000	-1.000000	-1.000000	337740.000000	1775787588.911030
-19038.735000	-15004.620000	8424.270000	279542.430000	303364.665000	278764.065000	-9282.240000	-26064.540000	3.392915	-1.520547	-3.656844	-4.987598	-13.367613	-2.853956	0.063866	7.356576	-3.021480	-1.510740	0.396760	-0.673948	-0.014587	0.724302	-1.000000	-1.000000	-1.000000	-1.000000	-1.000000	-1.000000	-1.000000	53.000000	0.000000	-1.000000	-1.000000	337741.000000	1775787588.913179
-19054.080000	-15020.280000	8412.345000	279628.695000	303597.360000	278772.210000	-9290.745000	-26079.615000	2.376685	-1.242003	-3.762931	-14.588928	-25.232469	-17.321485	-2.435706	2.401046	-3.021480	-1.510740	0.396760	-0.673948	-0.014587	0.724302	-1.000000	-1.000000	-1.000000	-1.000000	-1.000000	-1.000000	-1.000000	53.000000	0.000000	-1.000000	-1.000000	337742.000000	1775787588.913196
-19050.705000	-15017.715000	8408.880000	279574.965000	303385.680000	278913.915000	-9300.735000	-26079.030000	-1.031567	-2.648620	-4.762100	-15.932527	-19.312488	-26.220827	-2.897825	-3.294117	-3.021480	-1.510740	0.396760	-0.673948	-0.014587	0.724302	-1.000000	-1.000000	-1.000000	-1.000000	-1.000000	-1.000000	-1.000000	53.000000	0.000000	-1.000000	-1.000000	337743.000000	1775787588.926720
-19062.630000	-15023.700000	8410.860000	279699.840000	303693.525000	279070.380000	-9313.110000	-26093.880000	-4.913553	-4.377026	-5.202134	-3.378942	7.523269	-8.125169	-3.623685	-8.006998	-3.021480	-1.510740	0.396760	-0.673948	-0.014587	0.724302	-1.000000	-1.000000	-1.000000	-1.000000	-1.000000	-1.000000	-1.000000	53.000000	0.000000	-1.000000	-1.000000	337744.000000	1775787588.926743
-19057.995000	-15016.905000	8420.580000	279716.175000	303599.790000	279086.445000	-9307.035000	-26088.795000	-6.855183	-4.255375	-3.078297	18.790091	41.747960	36.895097	-5.209087	-10.046996	-3.021480	-1.510740	0.396760	-0.673948	-0.014587	0.724302	-1.000000	-1.000000	-1.000000	-1.000000	-1.000000	-1.000000	-1.000000	53.000000	0.000000	-1.000000	-1.000000	337745.000000	1775787588.926767
-19053.900000	-15012.630000	8423.595000	279687.960000	303500.205000	279057.645000	-9303.930000	-26081.190000	-5.456363	-1.396838	1.842629	37.791460	61.245139	75.525927	-5.523680	-8.119830	-3.021480	-1.510740	0.396760	-0.673948	-0.014587	0.724302	-1.000000	-1.000000	-1.000000	-1.000000	-1.000000	-1.000000	-1.000000	53.000000	0.000000	-1.000000	-1.000000	337746.000000	1775787588.926778
-19060.695000	-15017.760000	8422.020000	279707.040000	303593.265000	279079.650000	-9311.040000	-26089.290000	-1.195844	2.964051	7.169854	38.259409	45.760261	72.335005	-2.880554	-2.522554	-3.021480	-1.510740	0.396760	-0.673948	-0.014587	0.724302	-1.000000	-1.000000	-1.000000	-1.000000	-1.000000	-1.000000	-1.000000	53.000000	0.000000	-1.000000	-1.000000	337747.000000	1775787588.926790
-19053.540000	-15012.585000	8424.495000	279682.290000	303505.650000	279056.745000	-9306.270000	-26082.990000	3.590311	6.244870	9.632383	16.906855	3.213256	25.234080	1.549794	3.997077	-3.021480	-1.510740	0.396760	-0.673948	-0.014587	0.724302	-1.000000	-1.000000	-1.000000	-1.000000	-1.000000	-1.000000	-1.000000	53.000000	0.000000	-1.000000	-1.000000	337748.000000	1775787588.926800
-19048.365000	-15006.915000	8431.380000	279693.720000	303577.020000	279067.770000	-9303.975000	-26078.805000	6.706119	6.839331	7.988500	-13.938276	-37.838339	-36.963170	5.411665	8.360654	-3.021480	-1.510740	0.396760	-0.673948	-0.014587	0.724302	-1.000000	-1.000000	-1.000000	-1.000000	-1.000000	-1.000000	-1.000000	53.000000	0.000000	-1.000000	-1.000000	337749.000000	1775787588.926811
-19058.265000	-15017.130000	8423.010000	279706.680000	303582.555000	279078.300000	-9304.605000	-26087.040000	7.263541	4.949677	3.544650	-37.338413	-55.388133	-80.579802	7.250129	9.220517	-3.021480	-1.510740	0.396760	-0.673948	-0.014587	0.724302	-1.000000	-1.000000	-1.000000	-1.000000	-1.000000	-1.000000	-1.000000	53.000000	0.000000	-1.000000	-1.000000	337750.000000	1775787588.926821
-19063.530000	-15021.090000	8419.860000	279708.930000	303577.290000	279076.185000	-9311.895000	-26092.215000	4.921966	1.267151	-1.780854	-42.453249	-44.715635	-87.392382	6.459285	6.493168	-1.464960	-2.121140	1.144500	-0.673704	-0.019104	0.725218	-1.000000	-1.000000	-1.000000	-1.000000	-1.000000	-1.000000	-1.000000	53.000000	0.000000	-1.000000	-1.000000	337751.000000	1775787588.929939
-19057.590000	-15014.070000	8425.620000	279711.045000	303561.855000	279073.080000	-9311.805000	-26086.905000	0.531638	-2.917560	-6.180032	-30.132234	-18.822510	-61.132579	3.264017	1.488294	-1.464960	-2.121140	1.144500	-0.673704	-0.019104	0.725218	-1.000000	-1.000000	-1.000000	-1.000000	-1.000000	-1.000000	-1.000000	53.000000	0.000000	-1.000000	-1.000000	337752.000000	1775787588.929960
-19061.730000	-15018.795000	8420.670000	279713.700000	303568.920000	279074.205000	-9311.715000	-26091.270000	-3.420404	-5.462844	-7.914381	-9.878160	4.483310	-19.856122	-0.810174	-3.082345	-1.464960	-2.121140	1.144500	-0.673704	-0.019104	0.725218	-1.000000	-1.000000	-1.000000	-1.000000	-1.000000	-1.000000	-1.000000	53.000000	0.000000	-1.000000	-1.000000	337753.000000	1775787588.937610
-19066.995000	-15024.915000	8414.505000	279712.845000	303570.045000	279073.575000	-9310.095000	-26095.905000	-5.061380	-5.386487	-6.689999	8.044344	16.429068	17.516472	-3.647374	-5.253008	-1.464960	-2.121140	1.144500	-0.673704	-0.019104	0.725218	-1.000000	-1.000000	-1.000000	-1.000000	-1.000000	-1.000000	-1.000000	53.000000	0.000000	-1.000000	-1.000000	337754.000000	1775787588.937633
-19062.405000	-15018.750000	8420.535000	279713.295000	303574.455000	279074.880000	-9305.730000	-26090.865000	-4.436183	-3.537263	-3.789806	17.698622	18.008162	39.623752	-4.036231	-4.936888	-1.464960	-2.121140	1.144500	-0.673704	-0.019104	0.725218	-1.000000	-1.000000	-1.000000	-1.000000	-1.000000	-1.000000	-1.000000	53.000000	0.000000	-1.000000	-1.000000	337755.000000	1775787588.939348
-19072.845000	-15029.595000	8409.780000	279703.305000	303560.370000	279068.580000	-9312.750000	-26100.540000	-2.494304	-1.097734	-0.560468	18.248144	13.672032	44.061118	-2.431312	-3.002399	-1.464960	-2.121140	1.144500	-0.673704	-0.019104	0.725218	-1.000000	-1.000000	-1.000000	-1.000000	-1.000000	-1.000000	-1.000000	53.000000	0.000000	-1.000000	-1.000000	337756.000000	1775787588.939370
-19066.365000	-15021.090000	8417.385000	279668.205000	303489.765000	279033.210000	-9314.370000	-26096.355000	-0.327142	1.038276	2.043527	11.776084	5.763914	34.261226	-0.539202	-0.661817	-1.464960	-2.121140	1.144500	-0.673704	-0.019104	0.725218	-1.000000	-1.000000	-1.000000	-1.000000	-1.000000	-1.000000	-1.000000	53.000000	0.000000	-1.000000	-1.000000	337757.000000	1775787588.944116
-19065.600000	-15020.280000	8420.310000	279690.975000	303600.645000	279053.505000	-9312.390000	-26095.185000	1.457774	2.543591	3.708162	2.105596	-3.029699	16.761578	0.329993	1.220261	-1.464960	-2.121140	1.144500	-0.673704	-0.019104	0.725218	-1.000000	-1.000000	-1.000000	-1.000000	-1.000000	-1.000000	-1.000000	53.000000	0.000000	-1.000000	-1.000000	337758.000000	1775787588.944136
-19070.415000	-15025.005000	8414.730000	279701.010000	303592.860000	279060.210000	-9319.725000	-26101.890000	2.699165	3.411359	4.534168	-4.645246	-4.979903	0.559929	0.234507	2.375234	-1.464960	-2.121140	1.144500	-0.673704	-0.019104	0.725218	-1.000000	-1.000000	-1.000000	-1.000000	-1.000000	-1.000000	-1.000000	53.000000	0.000000	-1.000000	-1.000000	337759.000000	1775787588.947401
-19065.240000	-15016.590000	8424.045000	279703.305000	303573.510000	279056.520000	-9324.225000	-26106.975000	3.043796	3.358945	4.309477	-4.021798	2.547023	-7.345915	-0.345358	2.396556	-1.464960	-2.121140	1.144500	-0.673704	-0.019104	0.725218	-1.000000	-1.000000	-1.000000	-1.000000	-1.000000	-1.000000	-1.000000	53.000000	0.000000	-1.000000	-1.000000	337760.000000	1775787588.947420
-19060.965000	-15010.065000	8431.065000	279708.705000	303574.770000	279057.195000	-9318.960000	-26101.980000	2.537354	2.603280	3.255002	1.951278	10.068704	-7.118616	-0.910238	1.262294	0.686700	-0.579880	-0.549360	-0.672362	-0.021240	0.727110	-1.000000	-1.000000	-1.000000	-1.000000	-1.000000	-1.000000	-1.000000	53.000000	0.000000	-1.000000	-1.000000	337761.000000	1775787588.949558
-19062.855000	-15014.970000	8426.070000	279708.390000	303569.910000	279057.690000	-9308.880000	-26094.420000	1.724135	1.717360	1.991477	7.478986	9.102169	-3.553361	-0.467825	0.198567	0.686700	-0.579880	-0.549360	-0.672362	-0.021240	0.727110	-1.000000	-1.000000	-1.000000	-1.000000	-1.000000	-1.000000	-1.000000	53.000000	0.000000	-1.000000	-1.000000	337762.000000	1775787588.949578
-19056.015000	-15010.965000	8428.410000	279706.545000	303563.610000	279056.610000	-9295.965000	-26080.740000	0.830903	0.546890	0.400011	8.414036	0.902960	-0.714019	1.721711	0.652363	0.686700	-0.579880	-0.549360	-0.672362	-0.021240	0.727110	-1.000000	-1.000000	-1.000000	-1.000000	-1.000000	-1.000000	-1.000000	53.000000	0.000000	-1.000000	-1.000000	337763.000000	1775787588.956264
-19055.655000	-15015.420000	8422.335000	279701.730000	303569.145000	279054.495000	-9294.930000	-26073.000000	-0.072412	-1.156843	-1.781481	4.295599	-8.197492	-0.125860	4.763096	2.665579	0.686700	-0.579880	-0.549360	-0.672362	-0.021240	0.727110	-1.000000	-1.000000	-1.000000	-1.000000	-1.000000	-1.000000	-1.000000	53.000000	0.000000	-1.000000	-1.000000	337764.000000	1775787588.956288
-19060.380000	-15022.170000	8415.495000	279698.130000	303577.920000	279053.280000	-9303.255000	-26077.680000	-0.981452	-3.094420	-4.154594	-2.371082	-12.385644	-1.323021	6.079021	4.397068	0.686700	-0.579880	-0.549360	-0.672362	-0.021240	0.727110	-1.000000	-1.000000	-1.000000	-1.000000	-1.000000	-1.000000	-1.000000	53.000000	0.000000	-1.000000	-1.000000	337765.000000	1775787588.963809
-19061.280000	-15020.820000	8418.510000	279696.060000	303573.285000	279049.860000	-9308.790000	-26084.205000	-2.115473	-4.647822	-5.798728	-8.043881	-9.768340	-2.952674	3.505209	3.369151	0.686700	-0.579880	-0.549360	-0.672362	-0.021240	0.727110	-1.000000	-1.000000	-1.000000	-1.000000	-1.000000	-1.000000	-1.000000	53.000000	0.000000	-1.000000	-1.000000	337766.000000	1775787588.963832
-19061.640000	-15020.055000	8419.905000	279695.925000	303574.185000	279045.810000	-9311.715000	-26086.320000	-3.257347	-4.860414	-5.506973	-10.089657	-3.163739	-3.871397	-2.210232	-1.017396	0.686700	-0.579880	-0.549360	-0.672362	-0.021240	0.727110	-1.000000	-1.000000	-1.000000	-1.000000	-1.000000	-1.000000	-1.000000	53.000000	0.000000	-1.000000	-1.000000	337767.000000	1775787588.966860
-19058.805000	-15016.815000	8420.265000	279661.995000	303472.170000	279006.570000	-9314.190000	-26084.745000	-3.558915	-3.059198	-2.835999	-8.531465	1.141930	-4.294235	-7.671838	-6.342490	0.686700	-0.579880	-0.549360	-0.672362	-0.021240	0.727110	-1.000000	-1.000000	-1.000000	-1.000000	-1.000000	-1.000000	-1.000000	53.000000	0.000000	-1.000000	-1.000000	337768.000000	1775787588.966876
-19054.170000	-15012.180000	8424.945000	279650.880000	303510.420000	278991.585000	-9307.800000	-26080.155000	-2.362760	0.278620	1.108475	-5.966290	-1.644998	-5.568439	-9.533178	-9.061557	0.686700	-0.579880	-0.549360	-0.672362	-0.021240	0.727110	-1.000000	-1.000000	-1.000000	-1.000000	-1.000000	-1.000000	-1.000000	53.000000	0.000000	-1.000000	-1.000000	337769.000000	1775787588.972343
-19064.295000	-15020.955000	8419.770000	279693.945000	303627.060000	279035.685000	-9313.830000	-26089.605000	-0.141802	3.523155	4.420572	-3.154106	-4.829612	-6.311953	-6.825601	-7.606205	0.686700	-0.579880	-0.549360	-0.672362	-0.021240	0.727110	-1.000000	-1.000000	-1.000000	-1.000000	-1.000000	-1.000000	-1.000000	53.000000	0.000000	-1.000000	-1.000000	337770.000000	1775787588.972368
-19058.535000	-15014.430000	8425.170000	279676.395000	303514.875000	279018.225000	-9316.125000	-26085.780000	1.646608	4.867694	5.609571	2.252455	2.185278	-2.279849	-1.530887	-3.423113	2.105880	1.587040	1.129240	-0.670897	-0.018799	0.728819	-1.000000	-1.000000	-1.000000	-1.000000	-1.000000	-1.000000	-1.000000	53.000000	0.000000	-1.000000	-1.000000	337771.000000	1775787588.972391
-19050.030000	-15004.440000	8434.080000	279659.565000	303507.630000	279003.195000	-9316.665000	-26080.380000	2.365384	4.132700	4.698544	9.062167	12.969862	5.837951	3.219003	1.162301	2.105880	1.587040	1.129240	-0.670897	-0.018799	0.728819	-1.000000	-1.000000	-1.000000	-1.000000	-1.000000	-1.000000	-1.000000	53.000000	0.000000	-1.000000	-1.000000	337772.000000	1775787588.972402
-19051.290000	-15004.980000	8433.990000	279655.470000	303534.090000	279002.070000	-9314.190000	-26083.575000	2.646701	2.714824	2.945386	11.773917	14.070131	11.504327	5.664891	4.720543	2.105880	1.587040	1.129240	-0.670897	-0.018799	0.728819	-1.000000	-1.000000	-1.000000	-1.000000	-1.000000	-1.000000	-1.000000	53.000000	0.000000	-1.000000	-1.000000	337773.000000	1775787588.976594
-19061.460000	-15012.945000	8427.780000	279653.940000	303548.535000	279001.395000	-9323.280000	-26101.890000	2.451706	1.214135	0.998252	8.310363	6.917775	10.955933	5.716380	5.970438	2.105880	1.587040	1.129240	-0.670897	-0.018799	0.728819	-1.000000	-1.000000	-1.000000	-1.000000	-1.000000	-1.000000	-1.000000	53.000000	0.000000	-1.000000	-1.000000	337774.000000	1775787588.976615
-19064.745000	-15012.360000	8432.280000	279686.880000	303617.520000	279031.500000	-9328.320000	-26106.075000	0.872648	-0.904661	-1.309893	2.644783	2.026024	6.691509	3.796159	3.924166	2.105880	1.587040	1.129240	-0.670897	-0.018799	0.728819	-1.000000	-1.000000	-1.000000	-1.000000	-1.000000	-1.000000	-1.000000	53.000000	0.000000	-1.000000	-1.000000	337775.000000	1775787588.988932
-19057.365000	-15004.080000	8441.730000	279690.975000	303575.400000	279030.060000	-9315.495000	-26095.455000	-1.671064	-3.188906	-3.289065	0.059988	3.702127	3.252067	1.020971	0.054804	2.105880	1.587040	1.129240	-0.670897	-0.018799	0.728819	-1.000000	-1.000000	-1.000000	-1.000000	-1.000000	-1.000000	-1.000000	53.000000	0.000000	-1.000000	-1.000000	337776.000000	1775787588.988955
-19059.210000	-15007.050000	8437.410000	279694.755000	303567.930000	279028.710000	-9313.470000	-26091.315000	-3.170184	-4.072671	-3.686116	1.400125	5.645045	1.845231	-0.585918	-2.076204	2.105880	1.587040	1.129240	-0.670897	-0.018799	0.728819	-1.000000	-1.000000	-1.000000	-1.000000	-1.000000	-1.000000	-1.000000	53.000000	0.000000	-1.000000	-1.000000	337777.000000	1775787588.988980
-19055.745000	-15008.265000	8434.530000	279695.565000	303564.825000	279027.855000	-9311.490000	-26080.740000	-2.442907	-3.096270	-2.694197	2.866616	0.276408	0.130901	-0.112340	-0.545317	2.105880	1.587040	1.129240	-0.670897	-0.018799	0.728819	-1.000000	-1.000000	-1.000000	-1.000000	-1.000000	-1.000000	-1.000000	53.000000	0.000000	-1.000000	-1.000000	337778.000000	1775787588.988991
-19061.550000	-15019.425000	8421.435000	279698.265000	303580.935000	279031.545000	-9310.905000	-26079.390000	-0.350739	-1.547343	-1.880120	1.214969	-10.219917	-3.283877	1.145705	3.134015	2.105880	1.587040	1.129240	-0.670897	-0.018799	0.728819	-1.000000	-1.000000	-1.000000	-1.000000	-1.000000	-1.000000	-1.000000	53.000000	0.000000	-1.000000	-1.000000	337779.000000	1775787588.989004
-19069.380000	-15030.360000	8408.115000	279697.725000	303582.375000	279033.930000	-9307.305000	-26083.125000	1.227032	-0.989017	-2.409663	-3.220087	-17.300076	-6.959345	1.507603	5.658040	2.105880	1.587040	1.129240	-0.670897	-0.018799	0.728819	-1.000000	-1.000000	-1.000000	-1.000000	-1.000000	-1.000000	-1.000000	53.000000	0.000000	-1.000000	-1.000000	337780.000000	1775787588.989014
-19065.510000	-15023.925000	8412.885000	279666.720000	303497.595000	279005.805000	-9310.770000	-26082.000000	1.177340	-1.518927	-3.685841	-8.380516	-17.591271	-9.213918	0.474612	4.650363	0.442540	1.861720	1.693860	-0.672789	-0.015442	0.729124	-1.000000	-1.000000	-1.000000	-1.000000	-1.000000	-1.000000	-1.000000	53.000000	0.000000	-1.000000	-1.000000	337781.000000	1775787588.991302
-19067.445000	-15028.380000	8406.765000	279641.205000	303498.315000	278981.325000	-9310.590000	-26084.070000	0.212301	-1.516650	-3.600236	-13.072473	-15.416073	-10.472966	-1.456362	0.521959	0.442540	1.861720	1.693860	-0.672789	-0.015442	0.729124	-1.000000	-1.000000	-1.000000	-1.000000	-1.000000	-1.000000	-1.000000	53.000000	0.000000	-1.000000	-1.000000	337782.000000	1775787588.991320
-19069.605000	-15029.820000	8410.005000	279673.335000	303616.845000	279012.105000	-9307.890000	-26087.220000	-0.343405	0.141478	-0.901425	-15.294944	-10.651642	-10.623374	-3.261926	-4.246723	0.442540	1.861720	1.693860	-0.672789	-0.015442	0.729124	-1.000000	-1.000000	-1.000000	-1.000000	-1.000000	-1.000000	-1.000000	53.000000	0.000000	-1.000000	-1.000000	337783.000000	1775787588.993456
-19063.665000	-15022.620000	8417.610000	279663.345000	303529.095000	278997.030000	-9311.940000	-26086.095000	-0.018933	2.795047	3.542193	-11.197793	2.338829	-6.941099	-3.932934	-7.216744	0.442540	1.861720	1.693860	-0.672789	-0.015442	0.729124	-1.000000	-1.000000	-1.000000	-1.000000	-1.000000	-1.000000	-1.000000	53.000000	0.000000	-1.000000	-1.000000	337784.000000	1775787588.993471
-19058.265000	-15018.435000	8422.470000	279681.390000	303595.380000	279010.035000	-9307.665000	-26081.955000	1.084979	5.263690	7.843390	-0.323561	19.081881	1.212850	-3.206964	-7.095359	0.442540	1.861720	1.693860	-0.672789	-0.015442	0.729124	-1.000000	-1.000000	-1.000000	-1.000000	-1.000000	-1.000000	-1.000000	53.000000	0.000000	-1.000000	-1.000000	337785.000000	1775787589.003310
-19064.520000	-15024.510000	8416.350000	279699.075000	303595.065000	279025.200000	-9308.070000	-26085.780000	2.367895	6.418097	9.887117	12.408495	28.565313	10.345360	-1.491009	-4.148383	0.442540	1.861720	1.693860	-0.672789	-0.015442	0.729124	-1.000000	-1.000000	-1.000000	-1.000000	-1.000000	-1.000000	-1.000000	53.000000	0.000000	-1.000000	-1.000000	337786.000000	1775787589.003332
-19067.040000	-15026.580000	8412.345000	279700.065000	303580.800000	279026.820000	-9307.485000	-26086.500000	2.543217	5.145740	8.027984	21.017014	26.319534	16.460067	0.518316	-0.181222	0.442540	1.861720	1.693860	-0.672789	-0.015442	0.729124	-1.000000	-1.000000	-1.000000	-1.000000	-1.000000	-1.000000	-1.000000	53.000000	0.000000	-1.000000	-1.000000	337787.000000	1775787589.005213
-19061.505000	-15021.225000	8414.730000	279670.770000	303497.865000	278997.885000	-9303.120000	-26078.895000	1.047866	1.641878	2.695062	20.863508	12.041197	16.289804	2.083212	2.910337	0.442540	1.861720	1.693860	-0.672789	-0.015442	0.729124	-1.000000	-1.000000	-1.000000	-1.000000	-1.000000	-1.000000	-1.000000	53.000000	0.000000	-1.000000	-1.000000	337788.000000	1775787589.005231
-19064.610000	-15023.565000	8415.225000	279684.360000	303595.650000	279016.515000	-9304.335000	-26078.445000	-1.019082	-2.159158	-3.292673	10.916120	-9.338326	8.743239	2.802981	4.513752	0.442540	1.861720	1.693860	-0.672789	-0.015442	0.729124	-1.000000	-1.000000	-1.000000	-1.000000	-1.000000	-1.000000	-1.000000	53.000000	0.000000	-1.000000	-1.000000	337789.000000	1775787589.006910
-19064.340000	-15025.320000	8413.920000	279675.045000	303544.980000	279010.260000	-9311.985000	-26079.480000	-2.343383	-4.471246	-6.968005	-3.510401	-24.474814	-2.136768	2.412388	4.674213	0.442540	1.861720	1.693860	-0.672789	-0.015442	0.729124	-1.000000	-1.000000	-1.000000	-1.000000	-1.000000	-1.000000	-1.000000	53.000000	0.000000	-1.000000	-1.000000	337790.000000	1775787589.006930
-19059.570000	-15018.705000	8420.130000	279661.185000	303543.045000	278995.050000	-9316.620000	-26078.265000	-2.476392	-4.800756	-7.211927	-14.665430	-24.880168	-10.395172	0.705032	3.398452	-1.602300	1.709120	1.602300	-0.673094	-0.013123	0.729002	-1.000000	-1.000000	-1.000000	-1.000000	-1.000000	-1.000000	-1.000000	53.000000	0.000000	-1.000000	-1.000000	337791.000000	1775787589.016940
-19056.195000	-15010.695000	8432.595000	279688.635000	303602.175000	279019.440000	-9313.650000	-26078.085000	-1.452395	-3.241293	-4.456356	-18.038144	-14.033159	-13.092112	-1.608650	1.146784	-1.602300	1.709120	1.602300	-0.673094	-0.013123	0.729002	-1.000000	-1.000000	-1.000000	-1.000000	-1.000000	-1.000000	-1.000000	53.000000	0.000000	-1.000000	-1.000000	337792.000000	1775787589.016964
-19061.505000	-15015.420000	8428.005000	279692.730000	303586.200000	279019.620000	-9317.790000	-26084.250000	0.118043	-0.502189	-0.165981	-12.775441	1.705786	-9.805645	-2.955794	-1.227696	-1.602300	1.709120	1.602300	-0.673094	-0.013123	0.729002	-1.000000	-1.000000	-1.000000	-1.000000	-1.000000	-1.000000	-1.000000	53.000000	0.000000	-1.000000	-1.000000	337793.000000	1775787589.016987
-19070.325000	-15025.590000	8417.025000	279696.870000	303581.205000	279020.475000	-9319.455000	-26089.605000	0.884193	1.508224	2.965975	-1.954927	14.988462	-2.528156	-2.505654	-3.169689	-1.602300	1.709120	1.602300	-0.673094	-0.013123	0.729002	-1.000000	-1.000000	-1.000000	-1.000000	-1.000000	-1.000000	-1.000000	53.000000	0.000000	-1.000000	-1.000000	337794.000000	1775787589.016997
-19068.075000	-15025.050000	8417.880000	279697.635000	303577.470000	279020.295000	-9310.230000	-26085.645000	0.044483	1.138078	2.702910	8.014221	18.306850	4.263675	-0.639526	-4.216215	-1.602300	1.709120	1.602300	-0.673094	-0.013123	0.729002	-1.000000	-1.000000	-1.000000	-1.000000	-1.000000	-1.000000	-1.000000	53.000000	0.000000	-1.000000	-1.000000	337795.000000	1775787589.019653
-19074.105000	-15034.005000	8407.485000	279697.680000	303581.295000	279021.645000	-9311.265000	-26089.290000	-1.514176	-1.066447	-0.370746	11.963178	11.096338	7.053618	1.890004	-3.716650	-1.602300	1.709120	1.602300	-0.673094	-0.013123	0.729002	-1.000000	-1.000000	-1.000000	-1.000000	-1.000000	-1.000000	-1.000000	53.000000	0.000000	-1.000000	-1.000000	337796.000000	1775787589.019675
-19068.885000	-15025.995000	8416.485000	279698.310000	303581.700000	279024.795000	-9312.660000	-26088.030000	-2.202334	-2.963791	-3.493439	9.168987	-0.245673	5.631778	3.919727	-1.664317	-1.602300	1.709120	1.602300	-0.673094	-0.013123	0.729002	-1.000000	-1.000000	-1.000000	-1.000000	-1.000000	-1.000000	-1.000000	53.000000	0.000000	-1.000000	-1.000000	337797.000000	1775787589.030011
-19062.180000	-15018.570000	8421.795000	279670.365000	303501.825000	279000.045000	-9317.970000	-26084.430000	-1.077666	-2.559529	-3.971010	2.093050	-10.160546	1.649273	4.054790	1.043355	-1.602300	1.709120	1.602300	-0.673094	-0.013123	0.729002	-1.000000	-1.000000	-1.000000	-1.000000	-1.000000	-1.000000	-1.000000	53.000000	0.000000	-1.000000	-1.000000	337798.000000	1775787589.030033
-19064.880000	-15021.495000	8419.905000	279670.860000	303568.965000	279000.360000	-9319.365000	-26086.905000	1.526321	0.414564	-1.176798	-6.035427	-16.515733	-3.305995	1.948100	3.316941	-1.602300	1.709120	1.602300	-0.673094	-0.013123	0.729002	-1.000000	-1.000000	-1.000000	-1.000000	-1.000000	-1.000000	-1.000000	53.000000	0.000000	-1.000000	-1.000000	337799.000000	1775787589.034104
-19065.915000	-15021.360000	8421.345000	279693.090000	303608.295000	279019.980000	-9314.730000	-26087.535000	3.850234	3.842927	2.772167	-11.067167	-14.648346	-6.739730	-1.054473	4.210131	-1.602300	1.709120	1.602300	-0.673094	-0.013123	0.729002	-1.000000	-1.000000	-1.000000	-1.000000	-1.000000	-1.000000	-1.000000	53.000000	0.000000	-1.000000	-1.000000	337800.000000	1775787589.034126
-19063.530000	-15018.390000	8423.955000	279695.970000	303582.285000	279019.710000	-9311.490000	-26084.025000	4.186576	5.249781	5.157508	-9.136816	-1.742251	-5.591683	-2.867329	3.417443	-1.999060	2.075360	1.495480	-0.672178	-0.013000	0.727293	-1.000000	-1.000000	-1.000000	-1.000000	-1.000000	-1.000000	-1.000000	53.000000	0.000000	-1.000000	-1.000000	337801.000000	1775787589.034148
-19063.755000	-15016.545000	8426.925000	279700.920000	303575.400000	279019.170000	-9314.730000	-26085.240000	2.517360	4.116185	4.996891	-1.132005	13.322287	-0.254266	-2.562713	1.632911	-1.999060	2.075360	1.495480	-0.672178	-0.013000	0.727293	-1.000000	-1.000000	-1.000000	-1.000000	-1.000000	-1.000000	-1.000000	53.000000	0.000000	-1.000000	-1.000000	337802.000000	1775787589.034158
-19063.935000	-15018.435000	8426.025000	279701.010000	303571.485000	279017.730000	-9314.235000	-26086.185000	0.052877	1.528284	2.952210	7.294220	18.496925	5.082972	-1.082061	-0.223968	-1.999060	2.075360	1.495480	-0.672178	-0.013000	0.727293	-1.000000	-1.000000	-1.000000	-1.000000	-1.000000	-1.000000	-1.000000	53.000000	0.000000	-1.000000	-1.000000	337803.000000	1775787589.037157
-19064.025000	-15026.310000	8411.220000	279670.095000	303497.010000	278988.255000	-9309.105000	-26082.495000	-2.014883	-1.382669	-0.100722	10.378214	10.483178	6.343337	0.247370	-1.587299	-1.999060	2.075360	1.495480	-0.672178	-0.013000	0.727293	-1.000000	-1.000000	-1.000000	-1.000000	-1.000000	-1.000000	-1.000000	53.000000	0.000000	-1.000000	-1.000000	337804.000000	1775787589.037178
-19064.070000	-15024.915000	8412.705000	279686.025000	303591.375000	279006.705000	-9309.645000	-26083.215000	-3.021539	-3.865609	-3.519283	6.260748	-4.247840	2.717956	0.995126	-2.101392	-1.999060	2.075360	1.495480	-0.672178	-0.013000	0.727293	-1.000000	-1.000000	-1.000000	-1.000000	-1.000000	-1.000000	-1.000000	53.000000	0.000000	-1.000000	-1.000000	337805.000000	1775787589.042601
-19062.315000	-15020.820000	8419.905000	279696.645000	303594.795000	279020.970000	-9313.830000	-26083.980000	-2.833048	-4.947057	-5.810026	-0.932876	-12.544111	-1.924877	1.085551	-1.813882	-1.999060	2.075360	1.495480	-0.672178	-0.013000	0.727293	-1.000000	-1.000000	-1.000000	-1.000000	-1.000000	-1.000000	-1.000000	53.000000	0.000000	-1.000000	-1.000000	337806.000000	1775787589.042623
-19061.640000	-15018.165000	8422.290000	279694.845000	303584.445000	279019.935000	-9316.980000	-26083.305000	-1.722483	-3.762814	-5.087727	-4.963149	-7.358416	-2.788184	0.304103	-1.203552	-1.999060	2.075360	1.495480	-0.672178	-0.013000	0.727293	-1.000000	-1.000000	-1.000000	-1.000000	-1.000000	-1.000000	-1.000000	53.000000	0.000000	-1.000000	-1.000000	337807.000000	1775787589.042648
-19062.090000	-15018.435000	8422.560000	279693.090000	303576.930000	279015.390000	-9314.325000	-26082.225000	-0.273437	-0.792921	-1.478941	-4.137259	3.420738	0.009565	-1.030666	-0.621482	-1.999060	2.075360	1.495480	-0.672178	-0.013000	0.727293	-1.000000	-1.000000	-1.000000	-1.000000	-1.000000	-1.000000	-1.000000	53.000000	0.000000	-1.000000	-1.000000	337808.000000	1775787589.042659
-19070.145000	-15028.020000	8412.795000	279673.830000	303522.075000	278992.620000	-9314.505000	-26088.210000	0.689280	2.015473	2.434679	-1.593410	7.632180	2.167256	-1.875653	-0.221011	-1.999060	2.075360	1.495480	-0.672178	-0.013000	0.727293	-1.000000	-1.000000	-1.000000	-1.000000	-1.000000	-1.000000	-1.000000	53.000000	0.000000	-1.000000	-1.000000	337809.000000	1775787589.046074
-19069.380000	-15025.860000	8413.920000	279672.435000	303559.020000	278987.085000	-9316.215000	-26088.615000	0.575924	2.832652	3.984738	-0.752730	1.746720	0.480823	-1.549296	-0.207688	-1.999060	2.075360	1.495480	-0.672178	-0.013000	0.727293	-1.000000	-1.000000	-1.000000	-1.000000	-1.000000	-1.000000	-1.000000	53.000000	0.000000	-1.000000	-1.000000	337810.000000	1775787589.046110
-19064.385000	-15018.795000	8423.055000	279702.585000	303609.150000	279013.095000	-9315.630000	-26086.455000	-0.116236	1.846735	2.990483	-1.300090	-5.898529	-3.306788	-0.408174	-0.433753	-2.762060	1.999060	0.564620	-0.672056	-0.013794	0.724669	-1.000000	-1.000000	-1.000000	-1.000000	-1.000000	-1.000000	-1.000000	53.000000	0.000000	-1.000000	-1.000000	337811.000000	1775787589.055252
-19068.165000	-15022.305000	8421.210000	279703.845000	303581.970000	279014.490000	-9318.420000	-26089.560000	-0.243897	0.760505	1.422616	0.021870	-5.258720	-4.198697	0.733890	-0.351252	-2.762060	1.999060	0.564620	-0.672056	-0.013794	0.724669	-1.000000	-1.000000	-1.000000	-1.000000	-1.000000	-1.000000	-1.000000	53.000000	0.000000	-1.000000	-1.000000	337812.000000	1775787589.055275
-19065.915000	-15019.695000	8424.090000	279704.610000	303586.695000	279017.010000	-9315.720000	-26087.490000	0.444268	0.442739	0.630943	3.793876	1.998574	-0.434734	1.342536	0.213201	-2.762060	1.999060	0.564620	-0.672056	-0.013794	0.724669	-1.000000	-1.000000	-1.000000	-1.000000	-1.000000	-1.000000	-1.000000	53.000000	0.000000	-1.000000	-1.000000	337813.000000	1775787589.055300
-19064.340000	-15018.390000	8424.000000	279702.630000	303582.735000	279018.810000	-9317.655000	-26086.590000	1.306793	0.527118	0.383200	6.509031	6.954502	4.539308	1.389533	0.973217	-2.762060	1.999060	0.564620	-0.672056	-0.013794	0.724669	-1.000000	-1.000000	-1.000000	-1.000000	-1.000000	-1.000000	-1.000000	53.000000	0.000000	-1.000000	-1.000000	337814.000000	1775787589.055310
-19059.165000	-15014.250000	8428.005000	279698.895000	303573.555000	279017.280000	-9317.070000	-26082.180000	1.881153	0.606125	0.108516	5.206015	5.336830	6.631260	1.082712	1.666761	-2.762060	1.999060	0.564620	-0.672056	-0.013794	0.724669	-1.000000	-1.000000	-1.000000	-1.000000	-1.000000	-1.000000	-1.000000	53.000000	0.000000	-1.000000	-1.000000	337815.000000	1775787589.059053
-19060.020000	-15014.070000	8428.410000	279695.385000	303568.110000	279011.430000	-9322.515000	-26088.345000	2.021586	0.555914	-0.329326	0.352367	-0.901365	4.503153	0.505559	1.978354	-2.762060	1.999060	0.564620	-0.672056	-0.013794	0.724669	-1.000000	-1.000000	-1.000000	-1.000000	-1.000000	-1.000000	-1.000000	53.000000	0.000000	-1.000000	-1.000000	337816.000000	1775787589.059075
-19065.690000	-15019.065000	8423.190000	279698.670000	303580.890000	279012.195000	-9326.430000	-26098.695000	1.416815	0.150590	-0.925008	-5.063512	-6.972036	-0.388559	-0.386726	1.238159	-2.762060	1.999060	0.564620	-0.672056	-0.013794	0.724669	-1.000000	-1.000000	-1.000000	-1.000000	-1.000000	-1.000000	-1.000000	53.000000	0.000000	-1.000000	-1.000000	337817.000000	1775787589.064104
-19069.335000	-15023.340000	8417.385000	279699.885000	303576.615000	279009.225000	-9322.965000	-26096.850000	-0.251428	-0.933487	-1.861148	-7.812269	-8.560029	-5.103282	-1.318333	-0.795693	-2.762060	1.999060	0.564620	-0.672056	-0.013794	0.724669	-1.000000	-1.000000	-1.000000	-1.000000	-1.000000	-1.000000	-1.000000	53.000000	0.000000	-1.000000	-1.000000	337818.000000	1775787589.064128
-19070.865000	-15023.250000	8418.375000	279705.465000	303576.840000	279011.430000	-9321.885000	-26099.325000	-2.482543	-2.431419	-2.967528	-6.530899	-5.123436	-7.143001	-1.500401	-2.888992	-2.762060	1.999060	0.564620	-0.672056	-0.013794	0.724669	-1.000000	-1.000000	-1.000000	-1.000000	-1.000000	-1.000000	-1.000000	53.000000	0.000000	-1.000000	-1.000000	337819.000000	1775787589.066119
-19062.720000	-15015.465000	8423.955000	279677.070000	303492.645000	278982.540000	-9319.275000	-26094.600000	-3.792845	-3.142483	-3.213257	-2.836775	-1.175363	-6.316369	-0.479930	-3.291447	-2.762060	1.999060	0.564620	-0.672056	-0.013794	0.724669	-1.000000	-1.000000	-1.000000	-1.000000	-1.000000	-1.000000	-1.000000	53.000000	0.000000	-1.000000	-1.000000	337820.000000	1775787589.066138
-19059.660000	-15015.285000	8423.730000	279691.245000	303588.315000	278999.280000	-9319.590000	-26085.060000	-2.851951	-1.976610	-1.681785	0.137313	-0.637762	-4.245337	1.156404	-1.331837	-1.892240	1.526000	-0.045780	-0.672178	-0.012268	0.723265	-1.000000	-1.000000	-1.000000	-1.000000	-1.000000	-1.000000	-1.000000	53.000000	0.000000	-1.000000	-1.000000	337821.000000	1775787589.071657
-19056.240000	-15008.670000	8432.280000	279704.070000	303591.870000	279015.660000	-9315.810000	-26078.580000	0.058195	0.689424	1.192266	1.717794	0.784137	-1.143411	2.341003	2.236813	-1.892240	1.526000	-0.045780	-0.672178	-0.012268	0.723265	-1.000000	-1.000000	-1.000000	-1.000000	-1.000000	-1.000000	-1.000000	53.000000	0.000000	-1.000000	-1.000000	337822.000000	1775787589.071681
-19056.780000	-15006.960000	8433.990000	279701.550000	303581.205000	279016.830000	-9308.655000	-26074.800000	3.031477	3.296107	3.987379	3.612341	7.547468	3.851976	2.571163	5.508258	-1.892240	1.526000	-0.045780	-0.672178	-0.012268	0.723265	-1.000000	-1.000000	-1.000000	-1.000000	-1.000000	-1.000000	-1.000000	53.000000	0.000000	-1.000000	-1.000000	337823.000000	1775787589.076239
-19061.055000	-15015.735000	8424.720000	279698.220000	303576.435000	279013.635000	-9308.070000	-26071.290000	4.058474	4.200666	5.086011	5.622683	13.978085	8.837128	2.072487	6.437141	-1.892240	1.526000	-0.045780	-0.672178	-0.012268	0.723265	-1.000000	-1.000000	-1.000000	-1.000000	-1.000000	-1.000000	-1.000000	53.000000	0.000000	-1.000000	-1.000000	337824.000000	1775787589.076260
-19065.960000	-15028.650000	8412.030000	279697.230000	303580.485000	279009.675000	-9313.065000	-26073.900000	2.410118	2.311757	3.189791	5.645493	12.776302	10.035891	0.931053	4.229693	-1.892240	1.526000	-0.045780	-0.672178	-0.012268	0.723265	-1.000000	-1.000000	-1.000000	-1.000000	-1.000000	-1.000000	-1.000000	53.000000	0.000000	-1.000000	-1.000000	337825.000000	1775787589.081810
-19064.205000	-15025.815000	8412.660000	279669.510000	303499.260000	278977.410000	-9316.845000	-26076.915000	-0.852680	-1.773286	-1.254374	2.542286	3.030804	5.583963	-1.076821	-0.283485	-1.892240	1.526000	-0.045780	-0.672178	-0.012268	0.723265	-1.000000	-1.000000	-1.000000	-1.000000	-1.000000	-1.000000	-1.000000	53.000000	0.000000	-1.000000	-1.000000	337826.000000	1775787589.081830
-19070.820000	-15029.505000	8408.925000	279687.150000	303595.650000	278991.045000	-9322.515000	-26086.230000	-3.638827	-5.337812	-5.458328	-2.621404	-10.171271	-2.759585	-3.594580	-5.297685	-1.892240	1.526000	-0.045780	-0.672178	-0.012268	0.723265	-1.000000	-1.000000	-1.000000	-1.000000	-1.000000	-1.000000	-1.000000	53.000000	0.000000	-1.000000	-1.000000	337827.000000	1775787589.087435
-19074.870000	-15032.655000	8407.665000	279706.770000	303609.645000	279008.370000	-9323.775000	-26091.135000	-4.574269	-5.876233	-6.582312	-5.979112	-15.912139	-9.380808	-5.436314	-8.902668	-1.892240	1.526000	-0.045780	-0.672178	-0.012268	0.723265	-1.000000	-1.000000	-1.000000	-1.000000	-1.000000	-1.000000	-1.000000	53.000000	0.000000	-1.000000	-1.000000	337828.000000	1775787589.087458
-19066.320000	-15022.305000	8418.420000	279705.060000	303575.580000	279007.695000	-9317.745000	-26083.485000	-3.473247	-3.113293	-3.926911	-4.027108	-8.549461	-8.979473	-5.250422	-9.465086	-1.892240	1.526000	-0.045780	-0.672178	-0.012268	0.723265	-1.000000	-1.000000	-1.000000	-1.000000	-1.000000	-1.000000	-1.000000	53.000000	0.000000	-1.000000	-1.000000	337829.000000	1775787589.087484
-19063.845000	-15020.955000	8416.035000	279678.420000	303500.340000	278983.530000	-9318.780000	-26079.795000	-0.600356	1.586219	1.132607	1.024096	1.578493	-2.905891	-2.535594	-6.084653	-1.892240	1.526000	-0.045780	-0.672178	-0.012268	0.723265	-1.000000	-1.000000	-1.000000	-1.000000	-1.000000	-1.000000	-1.000000	53.000000	0.000000	-1.000000	-1.000000	337830.000000	1775787589.087494
-19055.250000	-15010.695000	8427.240000	279689.895000	303589.620000	278999.730000	-9322.605000	-26073.270000	3.155105	6.137202	6.027500	3.563076	3.001550	2.736729	1.440995	0.251025	-1.403920	0.747740	-0.030520	-0.675352	-0.011780	0.721312	-1.000000	-1.000000	-1.000000	-1.000000	-1.000000	-1.000000	-1.000000	53.000000	0.000000	-1.000000	-1.000000	337831.000000	1775787589.093650
-19047.510000	-15002.055000	8438.355000	279697.905000	303582.915000	279009.540000	-9318.645000	-26067.555000	6.234752	8.626971	8.636582	2.173010	-0.050189	4.987949	4.445994	6.686143	-1.403920	0.747740	-0.030520	-0.675352	-0.011780	0.721312	-1.000000	-1.000000	-1.000000	-1.000000	-1.000000	-1.000000	-1.000000	53.000000	0.000000	-1.000000	-1.000000	337832.000000	1775787589.093672
-19051.065000	-15007.545000	8433.090000	279700.245000	303583.230000	279010.755000	-9311.400000	-26068.005000	7.132129	8.026996	8.204653	0.099456	1.212692	5.238880	5.426465	10.232743	-1.403920	0.747740	-0.030520	-0.675352	-0.011780	0.721312	-1.000000	-1.000000	-1.000000	-1.000000	-1.000000	-1.000000	-1.000000	53.000000	0.000000	-1.000000	-1.000000	337833.000000	1775787589.094879
-19064.655000	-15023.160000	8416.710000	279700.245000	303584.220000	279007.785000	-9316.080000	-26078.445000	4.726646	3.877472	4.356259	-0.376649	5.627861	4.525931	4.778626	9.167242	-1.403920	0.747740	-0.030520	-0.675352	-0.011780	0.721312	-1.000000	-1.000000	-1.000000	-1.000000	-1.000000	-1.000000	-1.000000	53.000000	0.000000	-1.000000	-1.000000	337834.000000	1775787589.094897
-19060.875000	-15017.805000	8423.010000	279703.575000	303584.445000	279006.480000	-9313.650000	-26076.690000	-0.685301	-2.925119	-2.299464	0.202244	7.513720	2.392990	2.961749	3.886287	-1.403920	0.747740	-0.030520	-0.675352	-0.011780	0.721312	-1.000000	-1.000000	-1.000000	-1.000000	-1.000000	-1.000000	-1.000000	53.000000	0.000000	-1.000000	-1.000000	337835.000000	1775787589.103531
-19058.670000	-15015.105000	8426.835000	279706.320000	303575.760000	279005.895000	-9309.375000	-26073.540000	-6.256030	-8.948460	-8.481241	0.627476	4.673590	-0.987361	0.488076	-2.667773	-1.403920	0.747740	-0.030520	-0.675352	-0.011780	0.721312	-1.000000	-1.000000	-1.000000	-1.000000	-1.000000	-1.000000	-1.000000	53.000000	0.000000	-1.000000	-1.000000	337836.000000	1775787589.103566
-19066.230000	-15024.105000	8418.510000	279708.255000	303579.855000	279007.515000	-9310.770000	-26079.615000	-8.650381	-10.686531	-10.524036	0.425807	-1.236992	-4.154904	-1.672395	-6.895196	-1.403920	0.747740	-0.030520	-0.675352	-0.011780	0.721312	-1.000000	-1.000000	-1.000000	-1.000000	-1.000000	-1.000000	-1.000000	53.000000	0.000000	-1.000000	-1.000000	337837.000000	1775787589.103593
-19071.180000	-15027.390000	8416.575000	279705.330000	303576.570000	279006.255000	-9314.370000	-26085.420000	-7.251237	-8.000623	-8.089317	-0.340724	-6.629969	-5.546599	-2.963677	-7.494234	-1.403920	0.747740	-0.030520	-0.675352	-0.011780	0.721312	-1.000000	-1.000000	-1.000000	-1.000000	-1.000000	-1.000000	-1.000000	53.000000	0.000000	-1.000000	-1.000000	337838.000000	1775787589.103606
-19069.740000	-15024.645000	8419.410000	279703.080000	303583.545000	279008.280000	-9320.895000	-26089.380000	-3.726296	-3.185568	-3.406545	-1.503595	-8.512620	-4.699578	-3.648071	-5.585483	-1.403920	0.747740	-0.030520	-0.675352	-0.011780	0.721312	-1.000000	-1.000000	-1.000000	-1.000000	-1.000000	-1.000000	-1.000000	53.000000	0.000000	-1.000000	-1.000000	337839.000000	1775787589.112370
-19063.575000	-15016.185000	8427.285000	279698.985000	303574.365000	279005.895000	-9325.845000	-26088.435000	0.400038	1.879157	1.567915	-2.731402	-6.409445	-2.349975	-4.051350	-2.639961	-1.403920	0.747740	-0.030520	-0.675352	-0.011780	0.721312	-1.000000	-1.000000	-1.000000	-1.000000	-1.000000	-1.000000	-1.000000	53.000000	0.000000	-1.000000	-1.000000	337840.000000	1775787589.112392
-19061.460000	-15011.280000	8433.720000	279700.290000	303578.775000	279004.500000	-9324.990000	-26084.295000	4.281287	6.216366	5.777059	-3.397083	-2.245177	0.184283	-3.892638	0.619158	0.640920	-0.518840	0.183120	-0.679320	-0.013306	0.719969	-1.000000	-1.000000	-1.000000	-1.000000	-1.000000	-1.000000	-1.000000	53.000000	0.000000	-1.000000	-1.000000	337841.000000	1775787589.112493
-19057.995000	-15006.510000	8438.535000	279700.335000	303577.920000	279001.620000	-9320.670000	-26078.895000	6.952927	8.831077	8.307270	-2.836672	1.653011	1.780739	-2.431860	3.829260	0.640920	-0.518840	0.183120	-0.679320	-0.013306	0.719969	-1.000000	-1.000000	-1.000000	-1.000000	-1.000000	-1.000000	-1.000000	53.000000	0.000000	-1.000000	-1.000000	337842.000000	1775787589.112511
-19057.320000	-15007.140000	8436.285000	279699.840000	303572.295000	278996.580000	-9306.405000	-26069.445000	7.406279	8.671042	8.185110	-0.984601	3.950233	2.030020	0.758157	6.421414	0.640920	-0.518840	0.183120	-0.679320	-0.013306	0.719969	-1.000000	-1.000000	-1.000000	-1.000000	-1.000000	-1.000000	-1.000000	53.000000	0.000000	-1.000000	-1.000000	337843.000000	1775787589.121340
-19067.580000	-15024.240000	8412.930000	279672.345000	303497.730000	278964.540000	-9300.555000	-26069.940000	5.187928	5.175033	4.649502	0.868385	2.876092	0.713197	5.012349	7.526549	0.640920	-0.518840	0.183120	-0.679320	-0.013306	0.719969	-1.000000	-1.000000	-1.000000	-1.000000	-1.000000	-1.000000	-1.000000	53.000000	0.000000	-1.000000	-1.000000	337844.000000	1775787589.121366
-19072.170000	-15033.105000	8403.255000	279690.660000	303605.730000	278982.990000	-9304.515000	-26074.170000	0.717204	-1.159172	-2.034130	1.201540	-1.228025	-1.845257	8.168662	6.158788	0.640920	-0.518840	0.183120	-0.679320	-0.013306	0.719969	-1.000000	-1.000000	-1.000000	-1.000000	-1.000000	-1.000000	-1.000000	53.000000	0.000000	-1.000000	-1.000000	337845.000000	1775787589.122607
-19070.055000	-15030.810000	8407.260000	279706.230000	303610.185000	279000.135000	-9309.375000	-26077.095000	-4.215052	-7.794202	-8.991135	1.168970	-1.349819	-2.866659	7.642497	2.065479	0.640920	-0.518840	0.183120	-0.679320	-0.013306	0.719969	-1.000000	-1.000000	-1.000000	-1.000000	-1.000000	-1.000000	-1.000000	53.000000	0.000000	-1.000000	-1.000000	337846.000000	1775787589.122625
-19067.940000	-15026.310000	8411.895000	279704.970000	303592.455000	279001.035000	-9316.125000	-26079.570000	-6.920760	-10.780181	-11.565395	3.076775	6.190054	0.473608	2.844296	-3.316611	0.640920	-0.518840	0.183120	-0.679320	-0.013306	0.719969	-1.000000	-1.000000	-1.000000	-1.000000	-1.000000	-1.000000	-1.000000	53.000000	0.000000	-1.000000	-1.000000	337847.000000	1775787589.126548
-19070.865000	-15025.365000	8412.570000	279697.815000	303577.470000	278996.355000	-9324.990000	-26085.870000	-5.998434	-8.026287	-7.568524	5.796006	12.825160	6.145931	-3.984754	-7.554775	0.640920	-0.518840	0.183120	-0.679320	-0.013306	0.719969	-1.000000	-1.000000	-1.000000	-1.000000	-1.000000	-1.000000	-1.000000	53.000000	0.000000	-1.000000	-1.000000	337848.000000	1775787589.126570
-19060.425000	-15012.810000	8424.360000	279663.975000	303496.560000	278961.120000	-9317.430000	-26075.025000	-2.370449	-1.150486	0.640911	5.334924	8.326768	8.435543	-9.195058	-8.696640	0.640920	-0.518840	0.183120	-0.679320	-0.013306	0.719969	-1.000000	-1.000000	-1.000000	-1.000000	-1.000000	-1.000000	-1.000000	53.000000	0.000000	-1.000000	-1.000000	337849.000000	1775787589.135081
-19060.335000	-15012.090000	8429.310000	279684.135000	303602.760000	278979.705000	-9311.625000	-26070.615000	1.983058	6.139241	8.606861	0.139270	-5.724561	4.255456	-9.691068	-5.976391	0.640920	-0.518840	0.183120	-0.679320	-0.013306	0.719969	-1.000000	-1.000000	-1.000000	-1.000000	-1.000000	-1.000000	-1.000000	53.000000	0.000000	-1.000000	-1.000000	337850.000000	1775787589.135105
-19067.535000	-15018.615000	8423.280000	279695.880000	303596.370000	278987.490000	-9318.915000	-26077.995000	4.936006	10.128028	12.494134	-5.566475	-15.276025	-2.669747	-5.216681	-0.709465	1.800680	-0.091560	-0.091560	-0.677489	-0.013306	0.721129	-1.000000	-1.000000	-1.000000	-1.000000	-1.000000	-1.000000	-1.000000	53.000000	0.000000	-1.000000	-1.000000	337851.000000	1775787589.135132
-19070.010000	-15021.360000	8419.905000	279700.155000	303593.850000	278985.870000	-9319.770000	-26081.010000	4.817698	8.721962	10.398791	-6.206054	-10.778490	-6.073523	1.000332	3.812564	1.800680	-0.091560	-0.091560	-0.677489	-0.013306	0.721129	-1.000000	-1.000000	-1.000000	-1.000000	-1.000000	-1.000000	-1.000000	53.000000	0.000000	-1.000000	-1.000000	337852.000000	1775787589.135143
