Channel1	Channel2	Channel3	Channel4	Channel5	Channel6	Channel7	Channel8	FilteredChannel1	FilteredChannel2	FilteredChannel3	FilteredChannel4	FilteredChannel5	FilteredChannel6	FilteredChannel7	FilteredChannel8	GyroX	GyroY	GyroZ	AccX	AccY	AccZ	PPG1	PPG2	rawPPG1	rawPPG2	rawPPG3	Hr	Hrv	Battery	Trigger	PhysicalTrigger	AutoTrigger	NumMeasurements	Timestamp
-26473.590000	-34674.390000	-24980.580000	-2480.310000	2086.560000	-5880.150000	-32903.820000	-26559.045000	-3.505951	-0.827179	0.527332	2.623662	1.962641	-13.897265	-3.733154	-5.258169	-3.128300	1.297100	-0.183120	-0.582762	-0.078308	0.791746	-1.000000	-1.000000	-1.000000	-1.000000	-1.000000	-1.000000	-1.000000	66.000000	0.000000	-1.000000	-1.000000	107957.000000	1775713139.379885
-26476.830000	-34676.595000	-24982.830000	-2483.685000	2084.850000	-5881.815000	-32905.125000	-26563.995000	-4.382974	-1.770305	-0.618200	1.830752	-1.442440	-32.228062	-0.214490	-6.430443	-3.128300	1.297100	-0.183120	-0.582762	-0.078308	0.791746	-1.000000	-1.000000	-1.000000	-1.000000	-1.000000	-1.000000	-1.000000	66.000000	0.000000	-1.000000	-1.000000	107958.000000	1775713139.379903
-26475.840000	-34675.020000	-24980.850000	-2482.110000	2088.630000	-5874.615000	-32903.550000	-26565.255000	-3.144529	-1.233784	-0.700738	1.092348	-3.005552	-31.023049	3.280041	-5.063428	-3.128300	1.297100	-0.183120	-0.582762	-0.078308	0.791746	-1.000000	-1.000000	-1.000000	-1.000000	-1.000000	-1.000000	-1.000000	66.000000	0.000000	-1.000000	-1.000000	107959.000000	1775713139.379926
-26474.805000	-34671.465000	-24975.360000	-2475.270000	2097.720000	-5851.215000	-32907.015000	-26566.245000	-1.433244	-0.570543	-0.794944	-0.182243	-2.800870	-13.119883	4.444601	-2.688698	-3.128300	1.297100	-0.183120	-0.582762	-0.078308	0.791746	-1.000000	-1.000000	-1.000000	-1.000000	-1.000000	-1.000000	-1.000000	66.000000	0.000000	-1.000000	-1.000000	107960.000000	1775713139.379937
-26472.105000	-34668.045000	-24970.680000	-2471.580000	2100.285000	-5833.800000	-32902.515000	-26563.590000	-0.227109	-0.411345	-1.151283	-1.569955	-1.453745	9.723202	2.940565	-0.378406	-4.043900	0.808780	-1.007160	-0.582274	-0.081970	0.790708	-1.000000	-1.000000	-1.000000	-1.000000	-1.000000	-1.000000	-1.000000	66.000000	0.000000	-1.000000	-1.000000	107961.000000	1775713139.381341
-26469.990000	-34666.020000	-24968.295000	-2469.690000	2100.195000	-5852.655000	-32896.305000	-26557.830000	0.433179	-0.547073	-1.373340	-2.323100	0.018494	25.610231	0.319991	1.620351	-4.043900	0.808780	-1.007160	-0.582274	-0.081970	0.790708	-1.000000	-1.000000	-1.000000	-1.000000	-1.000000	-1.000000	-1.000000	66.000000	0.000000	-1.000000	-1.000000	107962.000000	1775713139.381360
-26467.830000	-34666.245000	-24971.490000	-2474.280000	2089.710000	-5902.290000	-32889.060000	-26549.415000	0.784013	-0.751945	-1.448782	-2.510962	0.258333	26.222091	-1.379422	3.395010	-4.043900	0.808780	-1.007160	-0.582274	-0.081970	0.790708	-1.000000	-1.000000	-1.000000	-1.000000	-1.000000	-1.000000	-1.000000	66.000000	0.000000	-1.000000	-1.000000	107963.000000	1775713139.384616
-26473.050000	-34672.905000	-24978.240000	-2480.400000	2088.945000	-5870.700000	-32892.570000	-26555.355000	0.799827	-1.159009	-1.875801	-2.819460	-1.345539	11.740441	-1.465346	4.570439	-4.043900	0.808780	-1.007160	-0.582274	-0.081970	0.790708	-1.000000	-1.000000	-1.000000	-1.000000	-1.000000	-1.000000	-1.000000	66.000000	0.000000	-1.000000	-1.000000	107964.000000	1775713139.384659
-26473.050000	-34672.905000	-24978.240000	-2480.400000	2088.945000	-5870.700000	-32892.570000	-26555.355000	0.222671	-1.927205	-2.825470	-3.476028	-3.628241	-6.600342	-0.996406	4.099122	-4.043900	0.808780	-1.007160	-0.582274	-0.081970	0.790708	-1.000000	-1.000000	-1.000000	-1.000000	-1.000000	-1.000000	-1.000000	66.000000	0.000000	-1.000000	-1.000000	107965.000000	1775713140.316290
-26473.050000	-34672.905000	-24978.240000	-2480.400000	2088.945000	-5870.700000	-32892.570000	-26555.355000	-0.768420	-2.579303	-3.464595	-3.667462	-4.480937	-16.177820	-1.165810	1.609519	-4.043900	0.808780	-1.007160	-0.582274	-0.081970	0.790708	-1.000000	-1.000000	-1.000000	-1.000000	-1.000000	-1.000000	-1.000000	66.000000	0.000000	-1.000000	-1.000000	107966.000000	1775713140.316315
-26473.050000	-34672.905000	-24978.240000	-2480.400000	2088.945000	-5870.700000	-32892.570000	-26555.355000	-1.424689	-2.257614	-2.709609	-2.446459	-2.918759	-14.073456	-1.929594	-1.654081	-4.043900	0.808780	-1.007160	-0.582274	-0.081970	0.790708	-1.000000	-1.000000	-1.000000	-1.000000	-1.000000	-1.000000	-1.000000	66.000000	0.000000	-1.000000	-1.000000	107967.000000	1775713140.316325
-26473.050000	-34672.905000	-24978.240000	-2480.400000	2088.945000	-5870.700000	-32892.570000	-26555.355000	-1.216416	-0.749659	-0.494970	0.068005	0.219996	-5.554898	-2.460113	-3.934004	-4.043900	0.808780	-1.007160	-0.582274	-0.081970	0.790708	-1.000000	-1.000000	-1.000000	-1.000000	-1.000000	-1.000000	-1.000000	66.000000	0.000000	-1.000000	-1.000000	107968.000000	1775713140.316335
-26473.050000	-34672.905000	-24978.240000	-2480.400000	2088.945000	-5870.700000	-32892.570000	-26555.355000	-0.290779	1.262428	2.157699	2.762065	3.247205	2.859183	-2.158848	-4.318209	-4.043900	0.808780	-1.007160	-0.582274	-0.081970	0.790708	-1.000000	-1.000000	-1.000000	-1.000000	-1.000000	-1.000000	-1.000000	66.000000	0.000000	-1.000000	-1.000000	107969.000000	1775713140.316344
-26473.050000	-34672.905000	-24978.240000	-2480.400000	2088.945000	-5870.700000	-32892.570000	-26555.355000	0.794480	2.820121	4.015031	4.438092	4.821174	7.291952	-1.047609	-3.017722	-4.043900	0.808780	-1.007160	-0.582274	-0.081970	0.790708	-1.000000	-1.000000	-1.000000	-1.000000	-1.000000	-1.000000	-1.000000	66.000000	0.000000	-1.000000	-1.000000	107970.000000	1775713140.316353
-26477.190000	-34679.790000	-24982.695000	-2484.855000	2083.905000	-5889.915000	-32897.970000	-26562.060000	1.433388	3.189712	4.312789	4.449415	4.459852	6.871561	0.292271	-1.049035	-1.907500	0.549360	-0.976640	-0.585265	-0.084472	0.790769	-1.000000	-1.000000	-1.000000	-1.000000	-1.000000	-1.000000	-1.000000	66.000000	0.000000	-1.000000	-1.000000	107973.000000	1775713140.316385
-26479.890000	-34680.780000	-24982.920000	-2485.890000	2081.070000	-5897.070000	-32902.830000	-26567.415000	1.224750	2.133999	3.009867	2.867925	2.450099	2.577237	1.046204	0.336796	-1.907500	0.549360	-0.976640	-0.585265	-0.084472	0.790769	-1.000000	-1.000000	-1.000000	-1.000000	-1.000000	-1.000000	-1.000000	66.000000	0.000000	-1.000000	-1.000000	107974.000000	1775713140.316396
-26469.540000	-34668.315000	-24969.825000	-2473.560000	2092.050000	-5888.205000	-32897.250000	-26560.665000	0.509389	0.518014	1.119513	0.754219	-0.020980	-2.731083	1.002957	0.738373	-1.907500	0.549360	-0.976640	-0.585265	-0.084472	0.790769	-1.000000	-1.000000	-1.000000	-1.000000	-1.000000	-1.000000	-1.000000	66.000000	0.000000	-1.000000	-1.000000	107975.000000	1775713140.316411
-26474.985000	-34670.925000	-24970.545000	-2473.650000	2094.255000	-5879.700000	-32905.215000	-26566.785000	0.231475	-0.112679	0.171895	-0.320853	-1.221936	-4.996008	0.797805	0.913330	-1.907500	0.549360	-0.976640	-0.585265	-0.084472	0.790769	-1.000000	-1.000000	-1.000000	-1.000000	-1.000000	-1.000000	-1.000000	66.000000	0.000000	-1.000000	-1.000000	107976.000000	1775713140.316422
-26483.985000	-34677.855000	-24977.070000	-2479.365000	2089.845000	-5862.915000	-32916.195000	-26576.280000	0.369056	0.344297	0.267082	-0.151191	-0.697552	-2.146276	0.618947	1.203180	-1.907500	0.549360	-0.976640	-0.585265	-0.084472	0.790769	-1.000000	-1.000000	-1.000000	-1.000000	-1.000000	-1.000000	-1.000000	66.000000	0.000000	-1.000000	-1.000000	107977.000000	1775713140.316467
-26488.530000	-34684.155000	-24985.035000	-2488.140000	2084.715000	-5859.405000	-32913.045000	-26576.865000	-0.176074	0.291179	-0.184267	-0.297874	0.035368	3.911002	0.067598	1.019884	-1.907500	0.549360	-0.976640	-0.585265	-0.084472	0.790769	-1.000000	-1.000000	-1.000000	-1.000000	-1.000000	-1.000000	-1.000000	66.000000	0.000000	-1.000000	-1.000000	107978.000000	1775713140.316479
-26479.755000	-34677.450000	-24979.005000	-2487.240000	2084.670000	-5874.750000	-32898.645000	-26565.390000	-1.374595	-0.967924	-1.916281	-1.777812	-0.446030	8.395449	-0.124248	0.608160	-1.907500	0.549360	-0.976640	-0.585265	-0.084472	0.790769	-1.000000	-1.000000	-1.000000	-1.000000	-1.000000	-1.000000	-1.000000	66.000000	0.000000	-1.000000	-1.000000	107979.000000	1775713140.316492
-26479.665000	-34682.535000	-24986.430000	-2496.645000	2071.665000	-5894.955000	-32890.815000	-26561.295000	-1.655600	-2.197860	-3.619206	-3.683936	-1.984945	6.820367	1.493097	1.235110	-1.907500	0.549360	-0.976640	-0.585265	-0.084472	0.790769	-1.000000	-1.000000	-1.000000	-1.000000	-1.000000	-1.000000	-1.000000	66.000000	0.000000	-1.000000	-1.000000	107980.000000	1775713140.316499
-26485.245000	-34694.865000	-24999.615000	-2506.095000	2062.800000	-5903.820000	-32888.295000	-26562.780000	-0.359850	-2.431907	-4.099223	-4.658965	-3.716194	-1.041069	4.482376	2.944330	0.320460	0.488320	-1.175020	-0.586302	-0.083435	0.794187	-1.000000	-1.000000	-1.000000	-1.000000	-1.000000	-1.000000	-1.000000	66.000000	0.000000	-1.000000	-1.000000	107981.000000	1775713140.316507
-26491.590000	-34699.590000	-25003.620000	-2507.670000	2062.305000	-5907.690000	-32900.490000	-26572.365000	1.115327	-2.211024	-3.642043	-4.186782	-4.665995	-10.135884	6.032670	3.788811	0.320460	0.488320	-1.175020	-0.586302	-0.083435	0.794187	-1.000000	-1.000000	-1.000000	-1.000000	-1.000000	-1.000000	-1.000000	66.000000	0.000000	-1.000000	-1.000000	107982.000000	1775713140.316514
-26482.995000	-34687.395000	-24989.085000	-2492.595000	2080.710000	-5882.580000	-32899.140000	-26566.830000	1.440928	-1.699417	-2.256291	-1.883806	-3.346273	-13.687318	3.746870	2.162186	0.320460	0.488320	-1.175020	-0.586302	-0.083435	0.794187	-1.000000	-1.000000	-1.000000	-1.000000	-1.000000	-1.000000	-1.000000	66.000000	0.000000	-1.000000	-1.000000	107983.000000	1775713140.316521
-26488.215000	-34691.760000	-24991.965000	-2495.880000	2084.040000	-5875.740000	-32902.605000	-26570.790000	0.996672	0.014980	0.819461	2.356485	1.139079	-8.271208	-1.539103	-1.090411	0.320460	0.488320	-1.175020	-0.586302	-0.083435	0.794187	-1.000000	-1.000000	-1.000000	-1.000000	-1.000000	-1.000000	-1.000000	66.000000	0.000000	-1.000000	-1.000000	107984.000000	1775713140.316527
-26484.300000	-34688.700000	-24988.050000	-2491.470000	2085.210000	-5877.315000	-32898.060000	-26565.930000	0.634743	2.772448	4.866245	6.839929	6.895896	2.911582	-6.401169	-3.720202	0.320460	0.488320	-1.175020	-0.586302	-0.083435	0.794187	-1.000000	-1.000000	-1.000000	-1.000000	-1.000000	-1.000000	-1.000000	66.000000	0.000000	-1.000000	-1.000000	107985.000000	1775713140.316535
-26482.005000	-34687.035000	-24985.620000	-2487.285000	2081.835000	-5880.330000	-32901.120000	-26567.145000	0.590103	4.924482	7.563198	8.944127	9.981897	12.135407	-7.963624	-4.268916	0.320460	0.488320	-1.175020	-0.586302	-0.083435	0.794187	-1.000000	-1.000000	-1.000000	-1.000000	-1.000000	-1.000000	-1.000000	66.000000	0.000000	-1.000000	-1.000000	107986.000000	1775713140.316541
-26481.600000	-34685.055000	-24982.020000	-2483.640000	2087.685000	-5863.095000	-32905.530000	-26568.945000	0.750130	5.220021	7.382823	7.616081	8.135763	14.060649	-5.999723	-2.914278	0.320460	0.488320	-1.175020	-0.586302	-0.083435	0.794187	-1.000000	-1.000000	-1.000000	-1.000000	-1.000000	-1.000000	-1.000000	66.000000	0.000000	-1.000000	-1.000000	107987.000000	1775713140.316550
-26496.045000	-34700.445000	-24997.320000	-2498.265000	2080.035000	-5842.845000	-32911.695000	-26579.565000	0.499895	3.330861	4.286907	3.458053	2.578038	9.853134	-2.492030	-1.117762	0.320460	0.488320	-1.175020	-0.586302	-0.083435	0.794187	-1.000000	-1.000000	-1.000000	-1.000000	-1.000000	-1.000000	-1.000000	66.000000	0.000000	-1.000000	-1.000000	107988.000000	1775713140.316556
-26500.680000	-34706.475000	-25002.540000	-2504.115000	2071.935000	-5901.435000	-32911.560000	-26583.750000	-0.995563	-0.533291	-0.956578	-2.409681	-3.868844	2.893565	0.494899	-0.355480	0.320460	0.488320	-1.175020	-0.586302	-0.083435	0.794187	-1.000000	-1.000000	-1.000000	-1.000000	-1.000000	-1.000000	-1.000000	66.000000	0.000000	-1.000000	-1.000000	107989.000000	1775713140.316563
-26490.420000	-34694.145000	-24989.985000	-2493.675000	2074.185000	-5927.040000	-32909.895000	-26577.090000	-3.068762	-4.676820	-6.156053	-7.787585	-8.678046	-6.547105	2.346217	-0.554536	0.320460	0.488320	-1.175020	-0.586302	-0.083435	0.794187	-1.000000	-1.000000	-1.000000	-1.000000	-1.000000	-1.000000	-1.000000	66.000000	0.000000	-1.000000	-1.000000	107990.000000	1775713140.316569
-26478.270000	-34681.365000	-24976.620000	-2481.885000	2087.415000	-5895.720000	-32902.065000	-26566.830000	-3.263252	-5.891135	-7.819414	-9.370540	-9.691662	-16.513124	3.608731	-0.052104	1.281840	0.473060	0.701960	-0.588072	-0.079895	0.795469	-1.000000	-1.000000	-1.000000	-1.000000	-1.000000	-1.000000	-1.000000	66.000000	0.000000	-1.000000	-1.000000	107991.000000	1775713140.316577
-26481.915000	-34687.305000	-24981.525000	-2486.835000	2085.120000	-5880.555000	-32898.735000	-26567.955000	-0.382911	-2.828051	-4.562860	-5.866428	-6.093038	-19.187141	4.771340	2.141643	1.281840	0.473060	0.701960	-0.588072	-0.079895	0.795469	-1.000000	-1.000000	-1.000000	-1.000000	-1.000000	-1.000000	-1.000000	66.000000	0.000000	-1.000000	-1.000000	107992.000000	1775713140.316583
-26486.730000	-34691.220000	-24984.495000	-2489.445000	2080.710000	-5883.930000	-32904.675000	-26573.850000	3.299625	1.710847	0.649691	-0.125733	-0.126861	-10.039152	5.285417	4.516505	1.281840	0.473060	0.701960	-0.588072	-0.079895	0.795469	-1.000000	-1.000000	-1.000000	-1.000000	-1.000000	-1.000000	-1.000000	66.000000	0.000000	-1.000000	-1.000000	107993.000000	1775713140.316591
-26488.440000	-34691.985000	-24984.990000	-2490.030000	2077.740000	-5886.180000	-32911.740000	-26577.090000	4.471132	3.834657	3.625228	3.708738	4.281702	4.898409	3.865361	4.587078	1.281840	0.473060	0.701960	-0.588072	-0.079895	0.795469	-1.000000	-1.000000	-1.000000	-1.000000	-1.000000	-1.000000	-1.000000	66.000000	0.000000	-1.000000	-1.000000	107994.000000	1775713140.316597
-26476.965000	-34678.395000	-24972.030000	-2478.330000	2090.880000	-5871.285000	-32903.190000	-26566.605000	2.580782	2.796699	3.250690	4.253042	5.292335	15.831514	0.424077	2.019031	1.281840	0.473060	0.701960	-0.588072	-0.079895	0.795469	-1.000000	-1.000000	-1.000000	-1.000000	-1.000000	-1.000000	-1.000000	66.000000	0.000000	-1.000000	-1.000000	107995.000000	1775713140.316605
-26478.495000	-34680.195000	-24973.830000	-2478.465000	2095.335000	-5878.845000	-32898.240000	-26566.920000	-0.111665	0.788640	1.464780	3.039441	4.263966	17.990679	-2.894109	-0.977824	1.281840	0.473060	0.701960	-0.588072	-0.079895	0.795469	-1.000000	-1.000000	-1.000000	-1.000000	-1.000000	-1.000000	-1.000000	66.000000	0.000000	-1.000000	-1.000000	107996.000000	1775713140.316611
-26485.740000	-34689.015000	-24983.550000	-2485.575000	2091.060000	-5886.810000	-32903.730000	-26574.480000	-1.832091	-0.645587	-0.170392	1.521478	2.940313	12.129169	-4.000574	-2.608585	1.281840	0.473060	0.701960	-0.588072	-0.079895	0.795469	-1.000000	-1.000000	-1.000000	-1.000000	-1.000000	-1.000000	-1.000000	66.000000	0.000000	-1.000000	-1.000000	107997.000000	1775713140.316617
-26477.505000	-34681.230000	-24975.270000	-2476.890000	2101.815000	-5848.245000	-32900.175000	-26567.910000	-2.603861	-1.752065	-1.654439	-0.125797	1.549246	2.552967	-3.115019	-3.004283	1.281840	0.473060	0.701960	-0.588072	-0.079895	0.795469	-1.000000	-1.000000	-1.000000	-1.000000	-1.000000	-1.000000	-1.000000	66.000000	0.000000	-1.000000	-1.000000	107998.000000	1775713140.316626
-26478.945000	-34683.705000	-24976.980000	-2478.195000	2103.435000	-5834.115000	-32899.410000	-26568.270000	-2.578973	-2.531835	-2.676692	-1.534989	0.080472	-4.307376	-1.595797	-2.610228	1.281840	0.473060	0.701960	-0.588072	-0.079895	0.795469	-1.000000	-1.000000	-1.000000	-1.000000	-1.000000	-1.000000	-1.000000	66.000000	0.000000	-1.000000	-1.000000	107999.000000	1775713140.316637
-26478.045000	-34682.715000	-24976.305000	-2480.355000	2092.905000	-5893.110000	-32896.170000	-26566.965000	-1.701223	-2.438189	-2.518657	-2.114914	-1.338233	-6.264466	-0.233570	-1.514981	1.281840	0.473060	0.701960	-0.588072	-0.079895	0.795469	-1.000000	-1.000000	-1.000000	-1.000000	-1.000000	-1.000000	-1.000000	66.000000	0.000000	-1.000000	-1.000000	108000.000000	1775713140.316647
-26477.955000	-34684.875000	-24979.545000	-2484.630000	2078.820000	-5949.495000	-32893.245000	-26567.505000	-0.463886	-1.549882	-1.388667	-2.086079	-3.291993	-9.027592	0.758630	-0.166802	-0.259420	1.144500	1.312360	-0.585692	-0.078857	0.796324	-1.000000	-1.000000	-1.000000	-1.000000	-1.000000	-1.000000	-1.000000	66.000000	0.000000	-1.000000	-1.000000	108001.000000	1775713140.316656
-26484.975000	-34692.075000	-24988.995000	-2494.485000	2070.945000	-5939.415000	-32900.985000	-26575.470000	0.368918	-0.567993	-0.306412	-2.103397	-5.978596	-16.322521	1.154879	0.646015	-0.259420	1.144500	1.312360	-0.585692	-0.078857	0.796324	-1.000000	-1.000000	-1.000000	-1.000000	-1.000000	-1.000000	-1.000000	66.000000	0.000000	-1.000000	-1.000000	108002.000000	1775713140.316662
-26484.750000	-34691.040000	-24988.230000	-2491.875000	2077.560000	-5883.975000	-32899.005000	-26575.830000	0.324645	-0.106975	-0.052250	-2.310250	-7.679852	-20.340465	0.608738	0.388679	-0.259420	1.144500	1.312360	-0.585692	-0.078857	0.796324	-1.000000	-1.000000	-1.000000	-1.000000	-1.000000	-1.000000	-1.000000	66.000000	0.000000	-1.000000	-1.000000	108003.000000	1775713140.316682
-26481.420000	-34688.385000	-24984.990000	-2490.570000	2078.100000	-5873.175000	-32895.405000	-26569.845000	-0.205757	0.060071	-0.189620	-1.919137	-5.949061	-10.631385	-0.513642	-0.407679	-0.259420	1.144500	1.312360	-0.585692	-0.078857	0.796324	-1.000000	-1.000000	-1.000000	-1.000000	-1.000000	-1.000000	-1.000000	66.000000	0.000000	-1.000000	-1.000000	108004.000000	1775713140.316688
-26480.295000	-34688.790000	-24983.145000	-2488.320000	2081.610000	-5881.455000	-32892.435000	-26568.090000	-0.208715	0.662029	0.420026	-0.128572	-0.537544	10.074665	-1.056156	-0.424768	-0.259420	1.144500	1.312360	-0.585692	-0.078857	0.796324	-1.000000	-1.000000	-1.000000	-1.000000	-1.000000	-1.000000	-1.000000	66.000000	0.000000	-1.000000	-1.000000	108005.000000	1775713140.316695
-26475.705000	-34683.570000	-24976.305000	-2482.380000	2086.830000	-5892.930000	-32893.065000	-26566.110000	0.742778	1.816803	2.080924	2.677274	5.963972	26.880806	-0.477080	0.780393	-0.259420	1.144500	1.312360	-0.585692	-0.078857	0.796324	-1.000000	-1.000000	-1.000000	-1.000000	-1.000000	-1.000000	-1.000000	66.000000	0.000000	-1.000000	-1.000000	108006.000000	1775713140.316701
-26460.990000	-34668.180000	-24962.040000	-2474.370000	2094.345000	-5876.955000	-32888.160000	-26553.915000	2.326723	3.205930	4.164828	5.290306	10.424024	28.553436	0.632260	2.446648	-0.259420	1.144500	1.312360	-0.585692	-0.078857	0.796324	-1.000000	-1.000000	-1.000000	-1.000000	-1.000000	-1.000000	-1.000000	66.000000	0.000000	-1.000000	-1.000000	108007.000000	1775713140.316709
-26467.065000	-34674.705000	-24967.665000	-2478.915000	2096.910000	-5836.095000	-32887.800000	-26558.505000	3.820832	4.361414	5.609914	6.417886	11.123335	17.430447	1.458110	3.590387	-0.259420	1.144500	1.312360	-0.585692	-0.078857	0.796324	-1.000000	-1.000000	-1.000000	-1.000000	-1.000000	-1.000000	-1.000000	66.000000	0.000000	-1.000000	-1.000000	108008.000000	1775713140.316715
-26476.245000	-34687.890000	-24979.950000	-2485.845000	2089.845000	-5874.255000	-32892.930000	-26566.065000	3.699130	3.844422	4.708995	4.901014	7.864721	3.114139	1.443003	3.092967	-0.259420	1.144500	1.312360	-0.585692	-0.078857	0.796324	-1.000000	-1.000000	-1.000000	-1.000000	-1.000000	-1.000000	-1.000000	66.000000	0.000000	-1.000000	-1.000000	108009.000000	1775713140.316722
-26473.275000	-34682.760000	-24977.295000	-2486.880000	2085.435000	-5878.575000	-32893.920000	-26564.670000	0.870616	0.507032	0.546008	0.703586	1.611627	-9.085847	0.325113	0.374348	-0.259420	1.144500	1.312360	-0.585692	-0.078857	0.796324	-1.000000	-1.000000	-1.000000	-1.000000	-1.000000	-1.000000	-1.000000	66.000000	0.000000	-1.000000	-1.000000	108010.000000	1775713140.316728
-26463.915000	-34669.710000	-24966.855000	-2486.025000	2078.820000	-5877.765000	-32886.495000	-26557.380000	-3.041843	-3.735145	-4.651965	-4.154466	-5.442129	-18.083414	-1.243788	-3.076540	-1.754900	2.472120	1.281840	-0.580931	-0.080688	0.795164	-1.000000	-1.000000	-1.000000	-1.000000	-1.000000	-1.000000	-1.000000	66.000000	0.000000	-1.000000	-1.000000	108011.000000	1775713140.316735
-26456.355000	-34661.205000	-24957.990000	-2477.925000	2085.570000	-5874.705000	-32877.855000	-26549.280000	-4.843560	-5.229403	-6.943118	-6.756778	-10.276317	-21.494146	-1.733658	-4.564117	-1.754900	2.472120	1.281840	-0.580931	-0.080688	0.795164	-1.000000	-1.000000	-1.000000	-1.000000	-1.000000	-1.000000	-1.000000	66.000000	0.000000	-1.000000	-1.000000	108012.000000	1775713140.316742
-26462.295000	-34669.665000	-24964.290000	-2478.465000	2088.900000	-5871.780000	-32875.155000	-26553.555000	-3.417556	-3.068209	-4.957841	-5.637809	-10.484420	-17.378093	-0.368517	-3.087029	-1.754900	2.472120	1.281840	-0.580931	-0.080688	0.795164	-1.000000	-1.000000	-1.000000	-1.000000	-1.000000	-1.000000	-1.000000	66.000000	0.000000	-1.000000	-1.000000	108013.000000	1775713140.316749
-26469.135000	-34675.605000	-24968.745000	-2483.775000	2084.670000	-5880.195000	-32885.145000	-26560.530000	-0.871404	-0.142636	-1.244258	-2.075396	-6.168586	-7.737514	1.534442	-0.496388	-1.754900	2.472120	1.281840	-0.580931	-0.080688	0.795164	-1.000000	-1.000000	-1.000000	-1.000000	-1.000000	-1.000000	-1.000000	66.000000	0.000000	-1.000000	-1.000000	108014.000000	1775713140.316758
-26480.385000	-34689.690000	-24979.770000	-2488.770000	2082.555000	-5883.570000	-32900.760000	-26571.105000	0.022657	0.364395	0.765540	1.055520	-0.247652	2.448948	1.481332	0.532522	-1.754900	2.472120	1.281840	-0.580931	-0.080688	0.795164	-1.000000	-1.000000	-1.000000	-1.000000	-1.000000	-1.000000	-1.000000	66.000000	0.000000	-1.000000	-1.000000	108015.000000	1775713140.316765
-26476.830000	-34684.560000	-24973.785000	-2482.740000	2086.695000	-5882.220000	-32903.550000	-26568.495000	-1.208736	-1.713390	0.151261	2.082885	4.086098	8.966702	-1.446687	-0.652326	-1.754900	2.472120	1.281840	-0.580931	-0.080688	0.795164	-1.000000	-1.000000	-1.000000	-1.000000	-1.000000	-1.000000	-1.000000	66.000000	0.000000	-1.000000	-1.000000	108016.000000	1775713140.316771
-26481.330000	-34685.325000	-24971.490000	-2480.580000	2088.180000	-5897.115000	-32910.075000	-26576.460000	-2.578337	-3.661322	-1.112094	1.747793	5.731756	10.571193	-5.110482	-2.302031	-1.754900	2.472120	1.281840	-0.580931	-0.080688	0.795164	-1.000000	-1.000000	-1.000000	-1.000000	-1.000000	-1.000000	-1.000000	66.000000	0.000000	-1.000000	-1.000000	108017.000000	1775713140.316779
-26478.630000	-34683.750000	-24968.700000	-2478.150000	2092.455000	-5899.995000	-32909.265000	-26575.695000	-2.091807	-2.936961	-0.749309	1.504830	5.318675	8.120310	-6.330260	-2.507800	-1.754900	2.472120	1.281840	-0.580931	-0.080688	0.795164	-1.000000	-1.000000	-1.000000	-1.000000	-1.000000	-1.000000	-1.000000	66.000000	0.000000	-1.000000	-1.000000	108018.000000	1775713140.316785
-26476.965000	-34684.245000	-24969.465000	-2480.265000	2090.925000	-5898.780000	-32898.510000	-26571.960000	0.425030	0.341095	1.345893	1.656830	3.774796	3.806742	-3.572412	-0.743387	-1.754900	2.472120	1.281840	-0.580931	-0.080688	0.795164	-1.000000	-1.000000	-1.000000	-1.000000	-1.000000	-1.000000	-1.000000	66.000000	0.000000	-1.000000	-1.000000	108019.000000	1775713140.316792
-26490.690000	-34700.445000	-24984.720000	-2492.910000	2083.635000	-5888.610000	-32898.960000	-26583.795000	3.379514	3.735972	3.198960	1.302850	1.524933	0.619342	2.207952	2.099375	-1.754900	2.472120	1.281840	-0.580931	-0.080688	0.795164	-1.000000	-1.000000	-1.000000	-1.000000	-1.000000	-1.000000	-1.000000	66.000000	0.000000	-1.000000	-1.000000	108020.000000	1775713140.316798
-26492.265000	-34700.265000	-24985.755000	-2495.070000	2085.255000	-5829.705000	-32899.680000	-26585.325000	4.561316	4.688582	2.796598	-0.387820	-1.200287	1.355077	7.867872	4.112166	-0.824040	1.968540	0.412020	-0.578856	-0.083435	0.793028	-1.000000	-1.000000	-1.000000	-1.000000	-1.000000	-1.000000	-1.000000	66.000000	0.000000	-1.000000	-1.000000	108021.000000	1775713140.316806
-26491.905000	-34699.590000	-24985.935000	-2496.690000	2077.695000	-5829.615000	-32901.705000	-26583.795000	3.323208	3.034866	0.402268	-2.703615	-3.621221	6.653167	10.001158	4.122212	-0.824040	1.968540	0.412020	-0.578856	-0.083435	0.793028	-1.000000	-1.000000	-1.000000	-1.000000	-1.000000	-1.000000	-1.000000	66.000000	0.000000	-1.000000	-1.000000	108022.000000	1775713140.316814
-26488.125000	-34699.185000	-24985.800000	-2495.880000	2076.885000	-5874.300000	-32900.670000	-26576.730000	1.277835	0.914254	-1.687528	-3.758861	-4.774837	11.106135	7.567115	2.973786	-0.824040	1.968540	0.412020	-0.578856	-0.083435	0.793028	-1.000000	-1.000000	-1.000000	-1.000000	-1.000000	-1.000000	-1.000000	66.000000	0.000000	-1.000000	-1.000000	108023.000000	1775713140.316833
-26492.985000	-34708.050000	-24996.780000	-2507.490000	2061.630000	-5949.450000	-32906.340000	-26578.215000	0.141918	-0.095193	-1.986528	-2.695133	-4.458536	5.285285	2.260380	2.078499	-0.824040	1.968540	0.412020	-0.578856	-0.083435	0.793028	-1.000000	-1.000000	-1.000000	-1.000000	-1.000000	-1.000000	-1.000000	66.000000	0.000000	-1.000000	-1.000000	108024.000000	1775713140.316844
-26485.605000	-34699.095000	-24986.340000	-2499.075000	2074.635000	-5922.540000	-32900.535000	-26573.445000	0.143176	-0.100703	-0.873127	-0.391169	-2.995898	-12.033556	-3.111584	1.685867	-0.824040	1.968540	0.412020	-0.578856	-0.083435	0.793028	-1.000000	-1.000000	-1.000000	-1.000000	-1.000000	-1.000000	-1.000000	66.000000	0.000000	-1.000000	-1.000000	108025.000000	1775713140.316853
-26489.250000	-34701.120000	-24987.420000	-2502.360000	2073.060000	-5930.505000	-32906.880000	-26578.170000	0.628047	0.450590	0.934335	2.046817	-0.347131	-27.862492	-6.258411	1.100952	-0.824040	1.968540	0.412020	-0.578856	-0.083435	0.793028	-1.000000	-1.000000	-1.000000	-1.000000	-1.000000	-1.000000	-1.000000	66.000000	0.000000	-1.000000	-1.000000	108026.000000	1775713140.316859
-26485.740000	-34696.125000	-24983.730000	-2503.980000	2069.280000	-5907.960000	-32903.010000	-26573.445000	0.873369	1.242965	2.841175	3.849610	3.045617	-27.841470	-6.455890	-0.186596	-0.824040	1.968540	0.412020	-0.578856	-0.083435	0.793028	-1.000000	-1.000000	-1.000000	-1.000000	-1.000000	-1.000000	-1.000000	66.000000	0.000000	-1.000000	-1.000000	108027.000000	1775713140.316867
-26489.385000	-34702.875000	-24989.040000	-2502.495000	2071.350000	-5895.315000	-32897.520000	-26574.885000	0.416847	1.612776	3.810591	4.295647	5.474045	-10.528184	-4.302132	-1.849330	-0.824040	1.968540	0.412020	-0.578856	-0.083435	0.793028	-1.000000	-1.000000	-1.000000	-1.000000	-1.000000	-1.000000	-1.000000	66.000000	0.000000	-1.000000	-1.000000	108028.000000	1775713140.316873
-26491.680000	-34703.955000	-24990.615000	-2502.270000	2072.700000	-5896.755000	-32901.480000	-26577.765000	-0.744836	0.844379	2.932778	3.314507	5.696046	13.245713	-0.991744	-3.159195	-0.824040	1.968540	0.412020	-0.578856	-0.083435	0.793028	-1.000000	-1.000000	-1.000000	-1.000000	-1.000000	-1.000000	-1.000000	66.000000	0.000000	-1.000000	-1.000000	108029.000000	1775713140.316880
-26494.065000	-34706.430000	-24991.830000	-2503.395000	2072.790000	-5902.065000	-32906.610000	-26581.365000	-2.195414	-0.993625	0.433956	1.540670	4.023291	29.445367	1.710080	-3.792906	-0.824040	1.968540	0.412020	-0.578856	-0.083435	0.793028	-1.000000	-1.000000	-1.000000	-1.000000	-1.000000	-1.000000	-1.000000	66.000000	0.000000	-1.000000	-1.000000	108030.000000	1775713140.316886
-26490.420000	-34700.670000	-24984.720000	-2496.870000	2079.045000	-5898.870000	-32906.880000	-26578.980000	-3.128949	-2.740021	-2.162502	-0.231851	1.568584	30.188248	2.383659	-3.666036	0.122080	1.083460	0.625660	-0.581541	-0.082886	0.792478	-1.000000	-1.000000	-1.000000	-1.000000	-1.000000	-1.000000	-1.000000	66.000000	0.000000	-1.000000	-1.000000	108031.000000	1775713140.316893
-26476.020000	-34683.255000	-24968.790000	-2489.355000	2084.310000	-5884.740000	-32895.000000	-26564.850000	-2.499733	-2.744201	-2.893759	-1.160368	-0.448483	18.035618	1.523121	-2.313051	0.122080	1.083460	0.625660	-0.581541	-0.082886	0.792478	-1.000000	-1.000000	-1.000000	-1.000000	-1.000000	-1.000000	-1.000000	66.000000	0.000000	-1.000000	-1.000000	108032.000000	1775713140.316899
-26477.865000	-34684.290000	-24968.250000	-2487.420000	2090.385000	-5876.010000	-32888.385000	-26565.750000	0.009010	-0.364619	-1.030512	-0.882682	-1.305795	2.089247	1.042433	0.535076	0.122080	1.083460	0.625660	-0.581541	-0.082886	0.792478	-1.000000	-1.000000	-1.000000	-1.000000	-1.000000	-1.000000	-1.000000	66.000000	0.000000	-1.000000	-1.000000	108033.000000	1775713140.316905
-26491.995000	-34699.365000	-24980.220000	-2493.405000	2083.635000	-5894.505000	-32898.015000	-26578.485000	2.602704	2.379836	1.482437	-0.269930	-1.387915	-10.050078	1.619460	3.363164	0.122080	1.083460	0.625660	-0.581541	-0.082886	0.792478	-1.000000	-1.000000	-1.000000	-1.000000	-1.000000	-1.000000	-1.000000	66.000000	0.000000	-1.000000	-1.000000	108034.000000	1775713140.316912
-26490.600000	-34696.665000	-24980.940000	-2499.885000	2075.760000	-5913.405000	-32899.275000	-26575.470000	2.639654	2.377438	1.599772	-0.799567	-1.970000	-16.725226	1.717991	3.724087	0.122080	1.083460	0.625660	-0.581541	-0.082886	0.792478	-1.000000	-1.000000	-1.000000	-1.000000	-1.000000	-1.000000	-1.000000	66.000000	0.000000	-1.000000	-1.000000	108035.000000	1775713140.316919
-26502.030000	-34710.435000	-24994.935000	-2512.440000	2063.385000	-5918.085000	-32905.980000	-26585.865000	-0.151455	-0.801646	-1.382901	-2.980437	-3.882916	-19.303266	0.029499	1.249203	0.122080	1.083460	0.625660	-0.581541	-0.082886	0.792478	-1.000000	-1.000000	-1.000000	-1.000000	-1.000000	-1.000000	-1.000000	66.000000	0.000000	-1.000000	-1.000000	108036.000000	1775713140.316925
-26497.305000	-34706.655000	-24989.670000	-2504.970000	2070.810000	-5888.295000	-32908.410000	-26583.840000	-3.450308	-4.649957	-5.223362	-5.488924	-6.115116	-17.219661	-2.712165	-2.076394	0.122080	1.083460	0.625660	-0.581541	-0.082886	0.792478	-1.000000	-1.000000	-1.000000	-1.000000	-1.000000	-1.000000	-1.000000	66.000000	0.000000	-1.000000	-1.000000	108037.000000	1775713140.316932
-26483.625000	-34691.535000	-24977.115000	-2500.290000	2074.635000	-5887.800000	-32902.830000	-26570.295000	-4.389681	-5.945176	-6.552894	-5.782946	-6.157904	-8.820101	-4.526615	-3.675895	0.122080	1.083460	0.625660	-0.581541	-0.082886	0.792478	-1.000000	-1.000000	-1.000000	-1.000000	-1.000000	-1.000000	-1.000000	66.000000	0.000000	-1.000000	-1.000000	108038.000000	1775713140.316938
-26483.625000	-34691.535000	-24977.115000	-2500.290000	2074.635000	-5887.800000	-32902.830000	-26570.295000	-1.620756	-2.952411	-3.468673	-2.548414	-2.673727	3.448034	-3.823751	-2.015100	0.122080	1.083460	0.625660	-0.581541	-0.082886	0.792478	-1.000000	-1.000000	-1.000000	-1.000000	-1.000000	-1.000000	-1.000000	66.000000	0.000000	-1.000000	-1.000000	108039.000000	1775713140.316945
-26483.625000	-34691.535000	-24977.115000	-2500.290000	2074.635000	-5887.800000	-32902.830000	-26570.295000	3.036394	2.548489	2.252883	2.504167	2.624821	13.064375	-0.853037	1.718758	0.122080	1.083460	0.625660	-0.581541	-0.082886	0.792478	-1.000000	-1.000000	-1.000000	-1.000000	-1.000000	-1.000000	-1.000000	66.000000	0.000000	-1.000000	-1.000000	108040.000000	1775713140.316950
-26483.625000	-34691.535000	-24977.115000	-2500.290000	2074.635000	-5887.800000	-32902.830000	-26570.295000	6.034286	6.579993	6.641553	6.255033	6.611881	15.350905	2.458025	4.478503	0.122080	1.083460	0.625660	-0.581541	-0.082886	0.792478	-1.000000	-1.000000	-1.000000	-1.000000	-1.000000	-1.000000	-1.000000	66.000000	0.000000	-1.000000	-1.000000	108041.000000	1775713140.316956
-26483.625000	-34691.535000	-24977.115000	-2500.290000	2074.635000	-5887.800000	-32902.830000	-26570.295000	5.466122	6.724820	7.220777	6.873464	7.413904	10.678516	4.263290	4.369802	0.122080	1.083460	0.625660	-0.581541	-0.082886	0.792478	-1.000000	-1.000000	-1.000000	-1.000000	-1.000000	-1.000000	-1.000000	66.000000	0.000000	-1.000000	-1.000000	108042.000000	1775713140.316961
-26483.625000	-34691.535000	-24977.115000	-2500.290000	2074.635000	-5887.800000	-32902.830000	-26570.295000	2.133070	3.542415	4.381171	4.640791	5.245741	2.814223	3.987589	1.844566	0.122080	1.083460	0.625660	-0.581541	-0.082886	0.792478	-1.000000	-1.000000	-1.000000	-1.000000	-1.000000	-1.000000	-1.000000	66.000000	0.000000	-1.000000	-1.000000	108043.000000	1775713140.316966
-26483.625000	-34691.535000	-24977.115000	-2500.290000	2074.635000	-5887.800000	-32902.830000	-26570.295000	-1.777384	-0.708110	0.230307	1.145429	1.664320	-4.083803	2.230094	-1.329412	0.122080	1.083460	0.625660	-0.581541	-0.082886	0.792478	-1.000000	-1.000000	-1.000000	-1.000000	-1.000000	-1.000000	-1.000000	66.000000	0.000000	-1.000000	-1.000000	108044.000000	1775713140.316971
-26483.625000	-34691.535000	-24977.115000	-2500.290000	2074.635000	-5887.800000	-32902.830000	-26570.295000	-4.335768	-3.845121	-3.084970	-1.910303	-1.597636	-7.543842	0.080627	-3.492294	0.122080	1.083460	0.625660	-0.581541	-0.082886	0.792478	-1.000000	-1.000000	-1.000000	-1.000000	-1.000000	-1.000000	-1.000000	66.000000	0.000000	-1.000000	-1.000000	108045.000000	1775713140.316975
-26483.625000	-34691.535000	-24977.115000	-2500.290000	2074.635000	-5887.800000	-32902.830000	-26570.295000	-4.758395	-4.818436	-4.426224	-3.509947	-3.448510	-7.284611	-1.537480	-3.911201	0.122080	1.083460	0.625660	-0.581541	-0.082886	0.792478	-1.000000	-1.000000	-1.000000	-1.000000	-1.000000	-1.000000	-1.000000	66.000000	0.000000	-1.000000	-1.000000	108046.000000	1775713140.316980
-26483.625000	-34691.535000	-24977.115000	-2500.290000	2074.635000	-5887.800000	-32902.830000	-26570.295000	-3.402676	-3.814745	-3.830723	-3.516735	-3.670268	-4.565434	-2.199418	-2.828351	0.122080	1.083460	0.625660	-0.581541	-0.082886	0.792478	-1.000000	-1.000000	-1.000000	-1.000000	-1.000000	-1.000000	-1.000000	66.000000	0.000000	-1.000000	-1.000000	108047.000000	1775713140.316984
-26483.625000	-34691.535000	-24977.115000	-2500.290000	2074.635000	-5887.800000	-32902.830000	-26570.295000	-1.239988	-1.760696	-2.090321	-2.424294	-2.702618	-1.140191	-1.974172	-1.036189	0.122080	1.083460	0.625660	-0.581541	-0.082886	0.792478	-1.000000	-1.000000	-1.000000	-1.000000	-1.000000	-1.000000	-1.000000	66.000000	0.000000	-1.000000	-1.000000	108048.000000	1775713140.316990
-26483.625000	-34691.535000	-24977.115000	-2500.290000	2074.635000	-5887.800000	-32902.830000	-26570.295000	0.744921	0.307088	-0.170352	-0.948533	-1.248643	1.587240	-1.223112	0.633820	0.122080	1.083460	0.625660	-0.581541	-0.082886	0.792478	-1.000000	-1.000000	-1.000000	-1.000000	-1.000000	-1.000000	-1.000000	66.000000	0.000000	-1.000000	-1.000000	108049.000000	1775713140.316995
-26483.625000	-34691.535000	-24977.115000	-2500.290000	2074.635000	-5887.800000	-32902.830000	-26570.295000	1.940848	1.682431	1.221765	0.311464	0.070373	2.949429	-0.362838	1.652042	0.122080	1.083460	0.625660	-0.581541	-0.082886	0.792478	-1.000000	-1.000000	-1.000000	-1.000000	-1.000000	-1.000000	-1.000000	66.000000	0.000000	-1.000000	-1.000000	108050.000000	1775713140.317000
-26483.625000	-34691.535000	-24977.115000	-2500.290000	2074.635000	-5887.800000	-32902.830000	-26570.295000	2.208768	2.136250	1.804509	1.040319	0.899037	2.979603	0.301535	1.887012	0.122080	1.083460	0.625660	-0.581541	-0.082886	0.792478	-1.000000	-1.000000	-1.000000	-1.000000	-1.000000	-1.000000	-1.000000	66.000000	0.000000	-1.000000	-1.000000	108051.000000	1775713140.317004
-26483.625000	-34691.535000	-24977.115000	-2500.290000	2074.635000	-5887.800000	-32902.830000	-26570.295000	1.766390	1.828577	1.667384	1.207928	1.167572	2.137632	0.638804	1.514828	0.122080	1.083460	0.625660	-0.581541	-0.082886	0.792478	-1.000000	-1.000000	-1.000000	-1.000000	-1.000000	-1.000000	-1.000000	66.000000	0.000000	-1.000000	-1.000000	108052.000000	1775713140.317009
-26483.625000	-34691.535000	-24977.115000	-2500.290000	2074.635000	-5887.800000	-32902.830000	-26570.295000	0.986275	1.112419	1.103219	0.971626	1.006179	0.993761	0.669376	0.849475	0.122080	1.083460	0.625660	-0.581541	-0.082886	0.792478	-1.000000	-1.000000	-1.000000	-1.000000	-1.000000	-1.000000	-1.000000	66.000000	0.000000	-1.000000	-1.000000	108053.000000	1775713140.317014
-26483.625000	-34691.535000	-24977.115000	-2500.290000	2074.635000	-5887.800000	-32902.830000	-26570.295000	0.215477	0.344376	0.434064	0.553487	0.626337	-0.000827	0.500440	0.187803	0.122080	1.083460	0.625660	-0.581541	-0.082886	0.792478	-1.000000	-1.000000	-1.000000	-1.000000	-1.000000	-1.000000	-1.000000	66.000000	0.000000	-1.000000	-1.000000	108054.000000	1775713140.317018
-26483.625000	-34691.535000	-24977.115000	-2500.290000	2074.635000	-5887.800000	-32902.830000	-26570.295000	-0.327580	-0.233177	-0.105034	0.144891	0.222758	-0.612701	0.258197	-0.281012	0.122080	1.083460	0.625660	-0.581541	-0.082886	0.792478	-1.000000	-1.000000	-1.000000	-1.000000	-1.000000	-1.000000	-1.000000	66.000000	0.000000	-1.000000	-1.000000	108055.000000	1775713140.317022
-26483.625000	-34691.535000	-24977.115000	-2500.290000	2074.635000	-5887.800000	-32902.830000	-26570.295000	-0.573905	-0.526080	-0.407606	-0.140795	-0.079914	-0.814217	0.041099	-0.495443	0.122080	1.083460	0.625660	-0.581541	-0.082886	0.792478	-1.000000	-1.000000	-1.000000	-1.000000	-1.000000	-1.000000	-1.000000	66.000000	0.000000	-1.000000	-1.000000	108056.000000	1775713140.317028
-26483.625000	-34691.535000	-24977.115000	-2500.290000	2074.635000	-5887.800000	-32902.830000	-26570.295000	-0.568188	-0.560725	-0.478960	-0.271655	-0.236722	-0.710377	-0.099157	-0.492266	0.122080	1.083460	0.625660	-0.581541	-0.082886	0.792478	-1.000000	-1.000000	-1.000000	-1.000000	-1.000000	-1.000000	-1.000000	66.000000	0.000000	-1.000000	-1.000000	108057.000000	1775713140.317033
-26483.625000	-34691.535000	-24977.115000	-2500.290000	2074.635000	-5887.800000	-32902.830000	-26570.295000	-0.411027	-0.428877	-0.390406	-0.273833	-0.263379	-0.453585	-0.154265	-0.357369	0.122080	1.083460	0.625660	-0.581541	-0.082886	0.792478	-1.000000	-1.000000	-1.000000	-1.000000	-1.000000	-1.000000	-1.000000	66.000000	0.000000	-1.000000	-1.000000	108058.000000	1775713140.317037
-26483.625000	-34691.535000	-24977.115000	-2500.290000	2074.635000	-5887.800000	-32902.830000	-26570.295000	-0.206729	-0.234090	-0.231279	-0.199917	-0.206573	-0.178648	-0.143958	-0.180697	0.122080	1.083460	0.625660	-0.581541	-0.082886	0.792478	-1.000000	-1.000000	-1.000000	-1.000000	-1.000000	-1.000000	-1.000000	66.000000	0.000000	-1.000000	-1.000000	108059.000000	1775713140.317042
-26483.625000	-34691.535000	-24977.115000	-2500.290000	2074.635000	-5887.800000	-32902.830000	-26570.295000	-0.031012	-0.056188	-0.074982	-0.102453	-0.117333	0.029955	-0.098537	-0.028033	0.122080	1.083460	0.625660	-0.581541	-0.082886	0.792478	-1.000000	-1.000000	-1.000000	-1.000000	-1.000000	-1.000000	-1.000000	66.000000	0.000000	-1.000000	-1.000000	108060.000000	1775713140.317047
-26483.625000	-34691.535000	-24977.115000	-2500.290000	2074.635000	-5887.800000	-32902.830000	-26570.295000	0.079481	0.062505	0.036121	-0.018591	-0.034327	0.141930	-0.045564	0.068447	0.122080	1.083460	0.625660	-0.581541	-0.082886	0.792478	-1.000000	-1.000000	-1.000000	-1.000000	-1.000000	-1.000000	-1.000000	66.000000	0.000000	-1.000000	-1.000000	108061.000000	1775713140.317052
-26483.625000	-34691.535000	-24977.115000	-2500.290000	2074.635000	-5887.800000	-32902.830000	-26570.295000	0.121676	0.113994	0.090182	0.034170	0.022064	0.167201	-0.003014	0.105688	0.122080	1.083460	0.625660	-0.581541	-0.082886	0.792478	-1.000000	-1.000000	-1.000000	-1.000000	-1.000000	-1.000000	-1.000000	66.000000	0.000000	-1.000000	-1.000000	108062.000000	1775713140.317057
-26483.625000	-34691.535000	-24977.115000	-2500.290000	2074.635000	-5887.800000	-32902.830000	-26570.295000	0.112939	0.112567	0.096481	0.054631	0.047756	0.135966	0.021805	0.098515	0.122080	1.083460	0.625660	-0.581541	-0.082886	0.792478	-1.000000	-1.000000	-1.000000	-1.000000	-1.000000	-1.000000	-1.000000	66.000000	0.000000	-1.000000	-1.000000	108063.000000	1775713140.317062
-26483.625000	-34691.535000	-24977.115000	-2500.290000	2074.635000	-5887.800000	-32902.830000	-26570.295000	0.077487	0.081281	0.073789	0.051202	0.049073	0.081333	0.029749	0.067877	0.122080	1.083460	0.625660	-0.581541	-0.082886	0.792478	-1.000000	-1.000000	-1.000000	-1.000000	-1.000000	-1.000000	-1.000000	66.000000	0.000000	-1.000000	-1.000000	108064.000000	1775713140.317068
-26483.625000	-34691.535000	-24977.115000	-2500.290000	2074.635000	-5887.800000	-32902.830000	-26570.295000	0.036586	0.041644	0.040930	0.035326	0.036397	0.028604	0.026037	0.032285	0.122080	1.083460	0.625660	-0.581541	-0.082886	0.792478	-1.000000	-1.000000	-1.000000	-1.000000	-1.000000	-1.000000	-1.000000	66.000000	0.000000	-1.000000	-1.000000	108065.000000	1775713140.317072
-26483.625000	-34691.535000	-24977.115000	-2500.290000	2074.635000	-5887.800000	-32902.830000	-26570.295000	0.003805	0.008176	0.011396	0.016895	0.019443	-0.008523	0.016856	0.003629	0.122080	1.083460	0.625660	-0.581541	-0.082886	0.792478	-1.000000	-1.000000	-1.000000	-1.000000	-1.000000	-1.000000	-1.000000	66.000000	0.000000	-1.000000	-1.000000	108066.000000	1775713140.317077
-26483.625000	-34691.535000	-24977.115000	-2500.290000	2074.635000	-5887.800000	-32902.830000	-26570.295000	-0.015464	-0.012661	-0.008154	0.002131	0.004799	-0.026740	0.007179	-0.013306	0.122080	1.083460	0.625660	-0.581541	-0.082886	0.792478	-1.000000	-1.000000	-1.000000	-1.000000	-1.000000	-1.000000	-1.000000	66.000000	0.000000	-1.000000	-1.000000	108067.000000	1775713140.317083
-26483.625000	-34691.535000	-24977.115000	-2500.290000	2074.635000	-5887.800000	-32902.830000	-26570.295000	-0.021942	-0.020752	-0.016777	-0.006540	-0.004536	-0.029474	-0.000103	-0.019082	0.122080	1.083460	0.625660	-0.581541	-0.082886	0.792478	-1.000000	-1.000000	-1.000000	-1.000000	-1.000000	-1.000000	-1.000000	66.000000	0.000000	-1.000000	-1.000000	108068.000000	1775713140.317088
-26483.625000	-34691.535000	-24977.115000	-2500.290000	2074.635000	-5887.800000	-32902.830000	-26570.295000	-0.019566	-0.019568	-0.016985	-0.009476	-0.008391	-0.022926	-0.004063	-0.017093	0.122080	1.083460	0.625660	-0.581541	-0.082886	0.792478	-1.000000	-1.000000	-1.000000	-1.000000	-1.000000	-1.000000	-1.000000	66.000000	0.000000	-1.000000	-1.000000	108069.000000	1775713140.317093
-26483.625000	-34691.535000	-24977.115000	-2500.290000	2074.635000	-5887.800000	-32902.830000	-26570.295000	-0.012962	-0.013596	-0.012503	-0.008469	-0.008194	-0.013088	-0.005116	-0.011364	0.122080	1.083460	0.625660	-0.581541	-0.082886	0.792478	-1.000000	-1.000000	-1.000000	-1.000000	-1.000000	-1.000000	-1.000000	66.000000	0.000000	-1.000000	-1.000000	108070.000000	1775713140.317098
-26483.625000	-34691.535000	-24977.115000	-2500.290000	2074.635000	-5887.800000	-32902.830000	-26570.295000	-0.005843	-0.006632	-0.006681	-0.005592	-0.005850	-0.004158	-0.004297	-0.005148	0.122080	1.083460	0.625660	-0.581541	-0.082886	0.792478	-1.000000	-1.000000	-1.000000	-1.000000	-1.000000	-1.000000	-1.000000	66.000000	0.000000	-1.000000	-1.000000	108071.000000	1775713140.317103
-26483.625000	-34691.535000	-24977.115000	-2500.290000	2074.635000	-5887.800000	-32902.830000	-26570.295000	-0.000390	-0.001035	-0.001725	-0.002493	-0.002988	0.001826	-0.002688	-0.000363	0.122080	1.083460	0.625660	-0.581541	-0.082886	0.792478	-1.000000	-1.000000	-1.000000	-1.000000	-1.000000	-1.000000	-1.000000	66.000000	0.000000	-1.000000	-1.000000	108072.000000	1775713140.317108
-26483.625000	-34691.535000	-24977.115000	-2500.290000	2074.635000	-5887.800000	-32902.830000	-26570.295000	0.002667	0.002287	0.001401	-0.000127	-0.000635	0.004569	-0.001096	0.002335	0.122080	1.083460	0.625660	-0.581541	-0.082886	0.792478	-1.000000	-1.000000	-1.000000	-1.000000	-1.000000	-1.000000	-1.000000	66.000000	0.000000	-1.000000	-1.000000	108073.000000	1775713140.317115
-26483.625000	-34691.535000	-24977.115000	-2500.290000	2074.635000	-5887.800000	-32902.830000	-26570.295000	0.003590	0.003467	0.002679	0.001193	0.000797	0.004811	0.000049	0.003165	0.122080	1.083460	0.625660	-0.581541	-0.082886	0.792478	-1.000000	-1.000000	-1.000000	-1.000000	-1.000000	-1.000000	-1.000000	66.000000	0.000000	-1.000000	-1.000000	108074.000000	1775713140.317123
-26483.625000	-34691.535000	-24977.115000	-2500.290000	2074.635000	-5887.800000	-32902.830000	-26570.295000	0.003110	0.003167	0.002609	0.001589	0.001341	0.003640	0.000640	0.002759	0.122080	1.083460	0.625660	-0.581541	-0.082886	0.792478	-1.000000	-1.000000	-1.000000	-1.000000	-1.000000	-1.000000	-1.000000	66.000000	0.000000	-1.000000	-1.000000	108075.000000	1775713140.317130
-26483.625000	-34691.535000	-24977.115000	-2500.290000	2074.635000	-5887.800000	-32902.830000	-26570.295000	0.002006	0.002154	0.001834	0.001381	0.001262	0.002033	0.000771	0.001799	0.122080	1.083460	0.625660	-0.581541	-0.082886	0.792478	-1.000000	-1.000000	-1.000000	-1.000000	-1.000000	-1.000000	-1.000000	66.000000	0.000000	-1.000000	-1.000000	108076.000000	1775713140.317136
-26483.625000	-34691.535000	-24977.115000	-2500.290000	2074.635000	-5887.800000	-32902.830000	-26570.295000	0.000870	0.001035	0.000895	0.000908	0.000872	0.000635	0.000621	0.000804	0.122080	1.083460	0.625660	-0.581541	-0.082886	0.792478	-1.000000	-1.000000	-1.000000	-1.000000	-1.000000	-1.000000	-1.000000	66.000000	0.000000	-1.000000	-1.000000	108077.000000	1775713140.317144
-26483.625000	-34691.535000	-24977.115000	-2500.290000	2074.635000	-5887.800000	-32902.830000	-26570.295000	0.000028	0.000167	0.000126	0.000425	0.000425	-0.000268	0.000363	0.000063	0.122080	1.083460	0.625660	-0.581541	-0.082886	0.792478	-1.000000	-1.000000	-1.000000	-1.000000	-1.000000	-1.000000	-1.000000	66.000000	0.000000	-1.000000	-1.000000	108078.000000	1775713140.317151
-26483.625000	-34691.535000	-24977.115000	-2500.290000	2074.635000	-5887.800000	-32902.830000	-26570.295000	-0.000427	-0.000330	-0.000342	0.000068	0.000070	-0.000660	0.000119	-0.000340	0.122080	1.083460	0.625660	-0.581541	-0.082886	0.792478	-1.000000	-1.000000	-1.000000	-1.000000	-1.000000	-1.000000	-1.000000	66.000000	0.000000	-1.000000	-1.000000	108079.000000	1775713140.317159
-26483.625000	-34691.535000	-24977.115000	-2500.290000	2074.635000	-5887.800000	-32902.830000	-26570.295000	-0.000551	-0.000493	-0.000520	-0.000123	-0.000138	-0.000673	-0.000051	-0.000453	0.122080	1.083460	0.625660	-0.581541	-0.082886	0.792478	-1.000000	-1.000000	-1.000000	-1.000000	-1.000000	-1.000000	-1.000000	66.000000	0.000000	-1.000000	-1.000000	108080.000000	1775713140.317167
-26483.625000	-34691.535000	-24977.115000	-2500.290000	2074.635000	-5887.800000	-32902.830000	-26570.295000	-0.000467	-0.000435	-0.000496	-0.000175	-0.000212	-0.000483	-0.000134	-0.000382	0.122080	1.083460	0.625660	-0.581541	-0.082886	0.792478	-1.000000	-1.000000	-1.000000	-1.000000	-1.000000	-1.000000	-1.000000	66.000000	0.000000	-1.000000	-1.000000	108081.000000	1775713140.317173
-26483.625000	-34691.535000	-24977.115000	-2500.290000	2074.635000	-5887.800000	-32902.830000	-26570.295000	-0.000295	-0.000276	-0.000372	-0.000138	-0.000194	-0.000238	-0.000149	-0.000232	0.122080	1.083460	0.625660	-0.581541	-0.082886	0.792478	-1.000000	-1.000000	-1.000000	-1.000000	-1.000000	-1.000000	-1.000000	66.000000	0.000000	-1.000000	-1.000000	108082.000000	1775713140.317181
-26483.625000	-34691.535000	-24977.115000	-2500.290000	2074.635000	-5887.800000	-32902.830000	-26570.295000	-0.000124	-0.000107	-0.000229	-0.000066	-0.000133	-0.000031	-0.000124	-0.000083	0.122080	1.083460	0.625660	-0.581541	-0.082886	0.792478	-1.000000	-1.000000	-1.000000	-1.000000	-1.000000	-1.000000	-1.000000	66.000000	0.000000	-1.000000	-1.000000	108083.000000	1775713140.317188
-26483.625000	-34691.535000	-24977.115000	-2500.290000	2074.635000	-5887.800000	-32902.830000	-26570.295000	-0.000001	0.000020	-0.000114	0.000005	-0.000067	0.000098	-0.000084	0.000026	0.122080	1.083460	0.625660	-0.581541	-0.082886	0.792478	-1.000000	-1.000000	-1.000000	-1.000000	-1.000000	-1.000000	-1.000000	66.000000	0.000000	-1.000000	-1.000000	108084.000000	1775713140.317195
-26483.625000	-34691.535000	-24977.115000	-2500.290000	2074.635000	-5887.800000	-32902.830000	-26570.295000	0.000064	0.000090	-0.000047	0.000056	-0.000016	0.000152	-0.000048	0.000083	0.122080	1.083460	0.625660	-0.581541	-0.082886	0.792478	-1.000000	-1.000000	-1.000000	-1.000000	-1.000000	-1.000000	-1.000000	66.000000	0.000000	-1.000000	-1.000000	108085.000000	1775713140.317202
-26483.625000	-34691.535000	-24977.115000	-2500.290000	2074.635000	-5887.800000	-32902.830000	-26570.295000	0.000080	0.000112	-0.000022	0.000082	0.000014	0.000150	-0.000024	0.000098	0.122080	1.083460	0.625660	-0.581541	-0.082886	0.792478	-1.000000	-1.000000	-1.000000	-1.000000	-1.000000	-1.000000	-1.000000	66.000000	0.000000	-1.000000	-1.000000	108086.000000	1775713140.317207
-26483.625000	-34691.535000	-24977.115000	-2500.290000	2074.635000	-5887.800000	-32902.830000	-26570.295000	0.000067	0.000101	-0.000026	0.000087	0.000023	0.000121	-0.000012	0.000086	0.122080	1.083460	0.625660	-0.581541	-0.082886	0.792478	-1.000000	-1.000000	-1.000000	-1.000000	-1.000000	-1.000000	-1.000000	66.000000	0.000000	-1.000000	-1.000000	108087.000000	1775713140.317212
-26483.625000	-34691.535000	-24977.115000	-2500.290000	2074.635000	-5887.800000	-32902.830000	-26570.295000	0.000041	0.000077	-0.000044	0.000081	0.000020	0.000084	-0.000010	0.000063	0.122080	1.083460	0.625660	-0.581541	-0.082886	0.792478	-1.000000	-1.000000	-1.000000	-1.000000	-1.000000	-1.000000	-1.000000	66.000000	0.000000	-1.000000	-1.000000	108088.000000	1775713140.317218
-26483.625000	-34691.535000	-24977.115000	-2500.290000	2074.635000	-5887.800000	-32902.830000	-26570.295000	0.000016	0.000053	-0.000064	0.000070	0.000011	0.000055	-0.000014	0.000041	0.122080	1.083460	0.625660	-0.581541	-0.082886	0.792478	-1.000000	-1.000000	-1.000000	-1.000000	-1.000000	-1.000000	-1.000000	66.000000	0.000000	-1.000000	-1.000000	108089.000000	1775713140.317223
-26483.625000	-34691.535000	-24977.115000	-2500.290000	2074.635000	-5887.800000	-32902.830000	-26570.295000	-0.000001	0.000034	-0.000079	0.000059	0.000002	0.000036	-0.000019	0.000026	0.122080	1.083460	0.625660	-0.581541	-0.082886	0.792478	-1.000000	-1.000000	-1.000000	-1.000000	-1.000000	-1.000000	-1.000000	66.000000	0.000000	-1.000000	-1.000000	108090.000000	1775713140.317228
-26483.625000	-34691.535000	-24977.115000	-2500.290000	2074.635000	-5887.800000	-32902.830000	-26570.295000	-0.000010	0.000024	-0.000088	0.000052	-0.000005	0.000029	-0.000024	0.000018	0.122080	1.083460	0.625660	-0.581541	-0.082886	0.792478	-1.000000	-1.000000	-1.000000	-1.000000	-1.000000	-1.000000	-1.000000	66.000000	0.000000	-1.000000	-1.000000	108091.000000	1775713140.317233
-26483.625000	-34691.535000	-24977.115000	-2500.290000	2074.635000	-5887.800000	-32902.830000	-26570.295000	-0.000012	0.000021	-0.000090	0.000048	-0.000009	0.000029	-0.000027	0.000016	0.122080	1.083460	0.625660	-0.581541	-0.082886	0.792478	-1.000000	-1.000000	-1.000000	-1.000000	-1.000000	-1.000000	-1.000000	66.000000	0.000000	-1.000000	-1.000000	108092.000000	1775713140.317239
-26483.625000	-34691.535000	-24977.115000	-2500.290000	2074.635000	-5887.800000	-32902.830000	-26570.295000	-0.000010	0.000023	-0.000088	0.000047	-0.000010	0.000033	-0.000028	0.000017	0.122080	1.083460	0.625660	-0.581541	-0.082886	0.792478	-1.000000	-1.000000	-1.000000	-1.000000	-1.000000	-1.000000	-1.000000	66.000000	0.000000	-1.000000	-1.000000	108093.000000	1775713140.317244
-26483.625000	-34691.535000	-24977.115000	-2500.290000	2074.635000	-5887.800000	-32902.830000	-26570.295000	-0.000006	0.000026	-0.000085	0.000047	-0.000009	0.000037	-0.000028	0.000020	0.122080	1.083460	0.625660	-0.581541	-0.082886	0.792478	-1.000000	-1.000000	-1.000000	-1.000000	-1.000000	-1.000000	-1.000000	66.000000	0.000000	-1.000000	-1.000000	108094.000000	1775713140.317249
-26483.625000	-34691.535000	-24977.115000	-2500.290000	2074.635000	-5887.800000	-32902.830000	-26570.295000	-0.000002	0.000029	-0.000081	0.000048	-0.000008	0.000041	-0.000028	0.000023	0.122080	1.083460	0.625660	-0.581541	-0.082886	0.792478	-1.000000	-1.000000	-1.000000	-1.000000	-1.000000	-1.000000	-1.000000	66.000000	0.000000	-1.000000	-1.000000	108095.000000	1775713140.317254
-26483.625000	-34691.535000	-24977.115000	-2500.290000	2074.635000	-5887.800000	-32902.830000	-26570.295000	-0.000000	0.000031	-0.000079	0.000049	-0.000007	0.000043	-0.000027	0.000025	0.122080	1.083460	0.625660	-0.581541	-0.082886	0.792478	-1.000000	-1.000000	-1.000000	-1.000000	-1.000000	-1.000000	-1.000000	66.000000	0.000000	-1.000000	-1.000000	108096.000000	1775713140.317260
-26483.625000	-34691.535000	-24977.115000	-2500.290000	2074.635000	-5887.800000	-32902.830000	-26570.295000	0.000001	0.000032	-0.000077	0.000050	-0.000006	0.000044	-0.000026	0.000026	0.122080	1.083460	0.625660	-0.581541	-0.082886	0.792478	-1.000000	-1.000000	-1.000000	-1.000000	-1.000000	-1.000000	-1.000000	66.000000	0.000000	-1.000000	-1.000000	108097.000000	1775713140.317264
-26483.625000	-34691.535000	-24977.115000	-2500.290000	2074.635000	-5887.800000	-32902.830000	-26570.295000	0.000001	0.000032	-0.000076	0.000050	-0.000005	0.000043	-0.000025	0.000026	0.122080	1.083460	0.625660	-0.581541	-0.082886	0.792478	-1.000000	-1.000000	-1.000000	-1.000000	-1.000000	-1.000000	-1.000000	66.000000	0.000000	-1.000000	-1.000000	108098.000000	1775713140.317269
-26483.625000	-34691.535000	-24977.115000	-2500.290000	2074.635000	-5887.800000	-32902.830000	-26570.295000	0.000001	0.000032	-0.000075	0.000050	-0.000005	0.000042	-0.000024	0.000025	0.122080	1.083460	0.625660	-0.581541	-0.082886	0.792478	-1.000000	-1.000000	-1.000000	-1.000000	-1.000000	-1.000000	-1.000000	66.000000	0.000000	-1.000000	-1.000000	108099.000000	1775713140.317274
-26483.625000	-34691.535000	-24977.115000	-2500.290000	2074.635000	-5887.800000	-32902.830000	-26570.295000	0.000001	0.000031	-0.000075	0.000049	-0.000005	0.000041	-0.000024	0.000025	0.122080	1.083460	0.625660	-0.581541	-0.082886	0.792478	-1.000000	-1.000000	-1.000000	-1.000000	-1.000000	-1.000000	-1.000000	66.000000	0.000000	-1.000000	-1.000000	108100.000000	1775713140.317279
-26483.625000	-34691.535000	-24977.115000	-2500.290000	2074.635000	-5887.800000	-32902.830000	-26570.295000	0.000000	0.000030	-0.000074	0.000048	-0.000005	0.000040	-0.000024	0.000024	0.122080	1.083460	0.625660	-0.581541	-0.082886	0.792478	-1.000000	-1.000000	-1.000000	-1.000000	-1.000000	-1.000000	-1.000000	66.000000	0.000000	-1.000000	-1.000000	108101.000000	1775713140.317284
-26483.625000	-34691.535000	-24977.115000	-2500.290000	2074.635000	-5887.800000	-32902.830000	-26570.295000	-0.000000	0.000030	-0.000074	0.000048	-0.000005	0.000040	-0.000024	0.000024	0.122080	1.083460	0.625660	-0.581541	-0.082886	0.792478	-1.000000	-1.000000	-1.000000	-1.000000	-1.000000	-1.000000	-1.000000	66.000000	0.000000	-1.000000	-1.000000	108102.000000	1775713140.317289
-26483.625000	-34691.535000	-24977.115000	-2500.290000	2074.635000	-5887.800000	-32902.830000	-26570.295000	-0.000000	0.000029	-0.000074	0.000047	-0.000005	0.000039	-0.000024	0.000023	0.122080	1.083460	0.625660	-0.581541	-0.082886	0.792478	-1.000000	-1.000000	-1.000000	-1.000000	-1.000000	-1.000000	-1.000000	66.000000	0.000000	-1.000000	-1.000000	108103.000000	1775713140.317294
-26483.625000	-34691.535000	-24977.115000	-2500.290000	2074.635000	-5887.800000	-32902.830000	-26570.295000	-0.000000	0.000029	-0.000073	0.000047	-0.000005	0.000039	-0.000024	0.000023	0.122080	1.083460	0.625660	-0.581541	-0.082886	0.792478	-1.000000	-1.000000	-1.000000	-1.000000	-1.000000	-1.000000	-1.000000	66.000000	0.000000	-1.000000	-1.000000	108104.000000	1775713140.317299
-26483.625000	-34691.535000	-24977.115000	-2500.290000	2074.635000	-5887.800000	-32902.830000	-26570.295000	-0.000000	0.000029	-0.000072	0.000047	-0.000005	0.000039	-0.000023	0.000023	0.122080	1.083460	0.625660	-0.581541	-0.082886	0.792478	-1.000000	-1.000000	-1.000000	-1.000000	-1.000000	-1.000000	-1.000000	66.000000	0.000000	-1.000000	-1.000000	108105.000000	1775713140.317303
-26483.625000	-34691.535000	-24977.115000	-2500.290000	2074.635000	-5887.800000	-32902.830000	-26570.295000	-0.000000	0.000029	-0.000072	0.000046	-0.000005	0.000038	-0.000023	0.000023	0.122080	1.083460	0.625660	-0.581541	-0.082886	0.792478	-1.000000	-1.000000	-1.000000	-1.000000	-1.000000	-1.000000	-1.000000	66.000000	0.000000	-1.000000	-1.000000	108106.000000	1775713140.317308
-26483.625000	-34691.535000	-24977.115000	-2500.290000	2074.635000	-5887.800000	-32902.830000	-26570.295000	-0.000000	0.000028	-0.000071	0.000046	-0.000005	0.000038	-0.000023	0.000023	0.122080	1.083460	0.625660	-0.581541	-0.082886	0.792478	-1.000000	-1.000000	-1.000000	-1.000000	-1.000000	-1.000000	-1.000000	66.000000	0.000000	-1.000000	-1.000000	108107.000000	1775713140.317313
-26483.625000	-34691.535000	-24977.115000	-2500.290000	2074.635000	-5887.800000	-32902.830000	-26570.295000	-0.000000	0.000028	-0.000070	0.000046	-0.000005	0.000038	-0.000023	0.000022	0.122080	1.083460	0.625660	-0.581541	-0.082886	0.792478	-1.000000	-1.000000	-1.000000	-1.000000	-1.000000	-1.000000	-1.000000	66.000000	0.000000	-1.000000	-1.000000	108108.000000	1775713140.317318
-26483.625000	-34691.535000	-24977.115000	-2500.290000	2074.635000	-5887.800000	-32902.830000	-26570.295000	0.000000	0.000028	-0.000070	0.000045	-0.000004	0.000038	-0.000022	0.000022	0.122080	1.083460	0.625660	-0.581541	-0.082886	0.792478	-1.000000	-1.000000	-1.000000	-1.000000	-1.000000	-1.000000	-1.000000	66.000000	0.000000	-1.000000	-1.000000	108109.000000	1775713140.317323
-26483.625000	-34691.535000	-24977.115000	-2500.290000	2074.635000	-5887.800000	-32902.830000	-26570.295000	0.000000	0.000028	-0.000069	0.000045	-0.000004	0.000037	-0.000022	0.000022	0.122080	1.083460	0.625660	-0.581541	-0.082886	0.792478	-1.000000	-1.000000	-1.000000	-1.000000	-1.000000	-1.000000	-1.000000	66.000000	0.000000	-1.000000	-1.000000	108110.000000	1775713140.317328
-26483.625000	-34691.535000	-24977.115000	-2500.290000	2074.635000	-5887.800000	-32902.830000	-26570.295000	0.000000	0.000028	-0.000068	0.000044	-0.000004	0.000037	-0.000022	0.000022	0.122080	1.083460	0.625660	-0.581541	-0.082886	0.792478	-1.000000	-1.000000	-1.000000	-1.000000	-1.000000	-1.000000	-1.000000	66.000000	0.000000	-1.000000	-1.000000	108111.000000	1775713140.317333
-26483.625000	-34691.535000	-24977.115000	-2500.290000	2074.635000	-5887.800000	-32902.830000	-26570.295000	0.000000	0.000027	-0.000068	0.000044	-0.000004	0.000037	-0.000022	0.000022	0.122080	1.083460	0.625660	-0.581541	-0.082886	0.792478	-1.000000	-1.000000	-1.000000	-1.000000	-1.000000	-1.000000	-1.000000	66.000000	0.000000	-1.000000	-1.000000	108112.000000	1775713140.317338
-26483.625000	-34691.535000	-24977.115000	-2500.290000	2074.635000	-5887.800000	-32902.830000	-26570.295000	0.000000	0.000027	-0.000067	0.000044	-0.000004	0.000036	-0.000022	0.000022	0.122080	1.083460	0.625660	-0.581541	-0.082886	0.792478	-1.000000	-1.000000	-1.000000	-1.000000	-1.000000	-1.000000	-1.000000	66.000000	0.000000	-1.000000	-1.000000	108113.000000	1775713140.317343
-26483.625000	-34691.535000	-24977.115000	-2500.290000	2074.635000	-5887.800000	-32902.830000	-26570.295000	0.000000	0.000027	-0.000067	0.000043	-0.000004	0.000036	-0.000021	0.000021	0.122080	1.083460	0.625660	-0.581541	-0.082886	0.792478	-1.000000	-1.000000	-1.000000	-1.000000	-1.000000	-1.000000	-1.000000	66.000000	0.000000	-1.000000	-1.000000	108114.000000	1775713140.317348
-26483.625000	-34691.535000	-24977.115000	-2500.290000	2074.635000	-5887.800000	-32902.830000	-26570.295000	0.000000	0.000027	-0.000066	0.000043	-0.000004	0.000036	-0.000021	0.000021	0.122080	1.083460	0.625660	-0.581541	-0.082886	0.792478	-1.000000	-1.000000	-1.000000	-1.000000	-1.000000	-1.000000	-1.000000	66.000000	0.000000	-1.000000	-1.000000	108115.000000	1775713140.317353
-26483.625000	-34691.535000	-24977.115000	-2500.290000	2074.635000	-5887.800000	-32902.830000	-26570.295000	0.000000	0.000026	-0.000066	0.000043	-0.000004	0.000035	-0.000021	0.000021	0.122080	1.083460	0.625660	-0.581541	-0.082886	0.792478	-1.000000	-1.000000	-1.000000	-1.000000	-1.000000	-1.000000	-1.000000	66.000000	0.000000	-1.000000	-1.000000	108116.000000	1775713140.317358
-26483.625000	-34691.535000	-24977.115000	-2500.290000	2074.635000	-5887.800000	-32902.830000	-26570.295000	0.000000	0.000026	-0.000065	0.000042	-0.000004	0.000035	-0.000021	0.000021	0.122080	1.083460	0.625660	-0.581541	-0.082886	0.792478	-1.000000	-1.000000	-1.000000	-1.000000	-1.000000	-1.000000	-1.000000	66.000000	0.000000	-1.000000	-1.000000	108117.000000	1775713140.317364
-26483.625000	-34691.535000	-24977.115000	-2500.290000	2074.635000	-5887.800000	-32902.830000	-26570.295000	0.000000	0.000026	-0.000064	0.000042	-0.000004	0.000035	-0.000021	0.000021	0.122080	1.083460	0.625660	-0.581541	-0.082886	0.792478	-1.000000	-1.000000	-1.000000	-1.000000	-1.000000	-1.000000	-1.000000	66.000000	0.000000	-1.000000	-1.000000	108118.000000	1775713140.317369
-26483.625000	-34691.535000	-24977.115000	-2500.290000	2074.635000	-5887.800000	-32902.830000	-26570.295000	0.000000	0.000026	-0.000064	0.000042	-0.000004	0.000034	-0.000020	0.000020	0.122080	1.083460	0.625660	-0.581541	-0.082886	0.792478	-1.000000	-1.000000	-1.000000	-1.000000	-1.000000	-1.000000	-1.000000	66.000000	0.000000	-1.000000	-1.000000	108119.000000	1775713140.317374
-26483.625000	-34691.535000	-24977.115000	-2500.290000	2074.635000	-5887.800000	-32902.830000	-26570.295000	0.000000	0.000025	-0.000063	0.000041	-0.000004	0.000034	-0.000020	0.000020	0.122080	1.083460	0.625660	-0.581541	-0.082886	0.792478	-1.000000	-1.000000	-1.000000	-1.000000	-1.000000	-1.000000	-1.000000	66.000000	0.000000	-1.000000	-1.000000	108120.000000	1775713140.317378
-26483.625000	-34691.535000	-24977.115000	-2500.290000	2074.635000	-5887.800000	-32902.830000	-26570.295000	0.000000	0.000025	-0.000063	0.000041	-0.000004	0.000034	-0.000020	0.000020	0.122080	1.083460	0.625660	-0.581541	-0.082886	0.792478	-1.000000	-1.000000	-1.000000	-1.000000	-1.000000	-1.000000	-1.000000	66.000000	0.000000	-1.000000	-1.000000	108121.000000	1775713140.317383
-26483.625000	-34691.535000	-24977.115000	-2500.290000	2074.635000	-5887.800000	-32902.830000	-26570.295000	0.000000	0.000025	-0.000062	0.000041	-0.000004	0.000034	-0.000020	0.000020	0.122080	1.083460	0.625660	-0.581541	-0.082886	0.792478	-1.000000	-1.000000	-1.000000	-1.000000	-1.000000	-1.000000	-1.000000	66.000000	0.000000	-1.000000	-1.000000	108122.000000	1775713140.317387
-26483.625000	-34691.535000	-24977.115000	-2500.290000	2074.635000	-5887.800000	-32902.830000	-26570.295000	0.000000	0.000025	-0.000062	0.000040	-0.000003	0.000033	-0.000019	0.000020	0.122080	1.083460	0.625660	-0.581541	-0.082886	0.792478	-1.000000	-1.000000	-1.000000	-1.000000	-1.000000	-1.000000	-1.000000	66.000000	0.000000	-1.000000	-1.000000	108123.000000	1775713140.317393
-26483.625000	-34691.535000	-24977.115000	-2500.290000	2074.635000	-5887.800000	-32902.830000	-26570.295000	0.000000	0.000025	-0.000061	0.000040	-0.000003	0.000033	-0.000019	0.000020	0.122080	1.083460	0.625660	-0.581541	-0.082886	0.792478	-1.000000	-1.000000	-1.000000	-1.000000	-1.000000	-1.000000	-1.000000	66.000000	0.000000	-1.000000	-1.000000	108124.000000	1775713140.317398
-26483.625000	-34691.535000	-24977.115000	-2500.290000	2074.635000	-5887.800000	-32902.830000	-26570.295000	0.000000	0.000024	-0.000060	0.000040	-0.000003	0.000033	-0.000019	0.000019	0.122080	1.083460	0.625660	-0.581541	-0.082886	0.792478	-1.000000	-1.000000	-1.000000	-1.000000	-1.000000	-1.000000	-1.000000	66.000000	0.000000	-1.000000	-1.000000	108125.000000	1775713140.317402
-26483.625000	-34691.535000	-24977.115000	-2500.290000	2074.635000	-5887.800000	-32902.830000	-26570.295000	0.000000	0.000024	-0.000060	0.000039	-0.000003	0.000032	-0.000019	0.000019	0.122080	1.083460	0.625660	-0.581541	-0.082886	0.792478	-1.000000	-1.000000	-1.000000	-1.000000	-1.000000	-1.000000	-1.000000	66.000000	0.000000	-1.000000	-1.000000	108126.000000	1775713140.317407
-26483.625000	-34691.535000	-24977.115000	-2500.290000	2074.635000	-5887.800000	-32902.830000	-26570.295000	0.000000	0.000024	-0.000059	0.000039	-0.000003	0.000032	-0.000019	0.000019	0.122080	1.083460	0.625660	-0.581541	-0.082886	0.792478	-1.000000	-1.000000	-1.000000	-1.000000	-1.000000	-1.000000	-1.000000	66.000000	0.000000	-1.000000	-1.000000	108127.000000	1775713140.317413
-26483.625000	-34691.535000	-24977.115000	-2500.290000	2074.635000	-5887.800000	-32902.830000	-26570.295000	0.000000	0.000024	-0.000059	0.000039	-0.000003	0.000032	-0.000019	0.000019	0.122080	1.083460	0.625660	-0.581541	-0.082886	0.792478	-1.000000	-1.000000	-1.000000	-1.000000	-1.000000	-1.000000	-1.000000	66.000000	0.000000	-1.000000	-1.000000	108128.000000	1775713140.317418
-26483.625000	-34691.535000	-24977.115000	-2500.290000	2074.635000	-5887.800000	-32902.830000	-26570.295000	0.000000	0.000024	-0.000058	0.000038	-0.000003	0.000032	-0.000018	0.000019	0.122080	1.083460	0.625660	-0.581541	-0.082886	0.792478	-1.000000	-1.000000	-1.000000	-1.000000	-1.000000	-1.000000	-1.000000	66.000000	0.000000	-1.000000	-1.000000	108129.000000	1775713140.317423
-26483.625000	-34691.535000	-24977.115000	-2500.290000	2074.635000	-5887.800000	-32902.830000	-26570.295000	0.000000	0.000023	-0.000058	0.000038	-0.000003	0.000031	-0.000018	0.000019	0.122080	1.083460	0.625660	-0.581541	-0.082886	0.792478	-1.000000	-1.000000	-1.000000	-1.000000	-1.000000	-1.000000	-1.000000	66.000000	0.000000	-1.000000	-1.000000	108130.000000	1775713140.317428
-26483.625000	-34691.535000	-24977.115000	-2500.290000	2074.635000	-5887.800000	-32902.830000	-26570.295000	0.000000	0.000023	-0.000057	0.000038	-0.000003	0.000031	-0.000018	0.000018	0.122080	1.083460	0.625660	-0.581541	-0.082886	0.792478	-1.000000	-1.000000	-1.000000	-1.000000	-1.000000	-1.000000	-1.000000	66.000000	0.000000	-1.000000	-1.000000	108131.000000	1775713140.317432
-26483.625000	-34691.535000	-24977.115000	-2500.290000	2074.635000	-5887.800000	-32902.830000	-26570.295000	0.000000	0.000023	-0.000057	0.000037	-0.000003	0.000031	-0.000018	0.000018	0.122080	1.083460	0.625660	-0.581541	-0.082886	0.792478	-1.000000	-1.000000	-1.000000	-1.000000	-1.000000	-1.000000	-1.000000	66.000000	0.000000	-1.000000	-1.000000	108132.000000	1775713140.317437
-26483.625000	-34691.535000	-24977.115000	-2500.290000	2074.635000	-5887.800000	-32902.830000	-26570.295000	0.000000	0.000023	-0.000056	0.000037	-0.000003	0.000031	-0.000018	0.000018	0.122080	1.083460	0.625660	-0.581541	-0.082886	0.792478	-1.000000	-1.000000	-1.000000	-1.000000	-1.000000	-1.000000	-1.000000	66.000000	0.000000	-1.000000	-1.000000	108133.000000	1775713140.317442
-26483.625000	-34691.535000	-24977.115000	-2500.290000	2074.635000	-5887.800000	-32902.830000	-26570.295000	0.000000	0.000023	-0.000056	0.000037	-0.000003	0.000030	-0.000017	0.000018	0.122080	1.083460	0.625660	-0.581541	-0.082886	0.792478	-1.000000	-1.000000	-1.000000	-1.000000	-1.000000	-1.000000	-1.000000	66.000000	0.000000	-1.000000	-1.000000	108134.000000	1775713140.317446
-26483.625000	-34691.535000	-24977.115000	-2500.290000	2074.635000	-5887.800000	-32902.830000	-26570.295000	0.000000	0.000022	-0.000055	0.000036	-0.000003	0.000030	-0.000017	0.000018	0.122080	1.083460	0.625660	-0.581541	-0.082886	0.792478	-1.000000	-1.000000	-1.000000	-1.000000	-1.000000	-1.000000	-1.000000	66.000000	0.000000	-1.000000	-1.000000	108135.000000	1775713140.317452
-26483.625000	-34691.535000	-24977.115000	-2500.290000	2074.635000	-5887.800000	-32902.830000	-26570.295000	0.000000	0.000022	-0.000055	0.000036	-0.000003	0.000030	-0.000017	0.000018	0.122080	1.083460	0.625660	-0.581541	-0.082886	0.792478	-1.000000	-1.000000	-1.000000	-1.000000	-1.000000	-1.000000	-1.000000	66.000000	0.000000	-1.000000	-1.000000	108136.000000	1775713140.317456
-26483.625000	-34691.535000	-24977.115000	-2500.290000	2074.635000	-5887.800000	-32902.830000	-26570.295000	0.000000	0.000022	-0.000054	0.000036	-0.000003	0.000029	-0.000017	0.000018	0.122080	1.083460	0.625660	-0.581541	-0.082886	0.792478	-1.000000	-1.000000	-1.000000	-1.000000	-1.000000	-1.000000	-1.000000	66.000000	0.000000	-1.000000	-1.000000	108137.000000	1775713140.317461
-26483.625000	-34691.535000	-24977.115000	-2500.290000	2074.635000	-5887.800000	-32902.830000	-26570.295000	0.000000	0.000022	-0.000054	0.000036	-0.000003	0.000029	-0.000017	0.000017	0.122080	1.083460	0.625660	-0.581541	-0.082886	0.792478	-1.000000	-1.000000	-1.000000	-1.000000	-1.000000	-1.000000	-1.000000	66.000000	0.000000	-1.000000	-1.000000	108138.000000	1775713140.317466
-26483.625000	-34691.535000	-24977.115000	-2500.290000	2074.635000	-5887.800000	-32902.830000	-26570.295000	0.000000	0.000022	-0.000053	0.000035	-0.000002	0.000029	-0.000017	0.000017	0.122080	1.083460	0.625660	-0.581541	-0.082886	0.792478	-1.000000	-1.000000	-1.000000	-1.000000	-1.000000	-1.000000	-1.000000	66.000000	0.000000	-1.000000	-1.000000	108139.000000	1775713140.317472
-26483.625000	-34691.535000	-24977.115000	-2500.290000	2074.635000	-5887.800000	-32902.830000	-26570.295000	0.000000	0.000021	-0.000053	0.000035	-0.000002	0.000029	-0.000016	0.000017	0.122080	1.083460	0.625660	-0.581541	-0.082886	0.792478	-1.000000	-1.000000	-1.000000	-1.000000	-1.000000	-1.000000	-1.000000	66.000000	0.000000	-1.000000	-1.000000	108140.000000	1775713140.317477
-26483.625000	-34691.535000	-24977.115000	-2500.290000	2074.635000	-5887.800000	-32902.830000	-26570.295000	0.000000	0.000021	-0.000052	0.000035	-0.000002	0.000028	-0.000016	0.000017	0.122080	1.083460	0.625660	-0.581541	-0.082886	0.792478	-1.000000	-1.000000	-1.000000	-1.000000	-1.000000	-1.000000	-1.000000	66.000000	0.000000	-1.000000	-1.000000	108141.000000	1775713140.317482
-26483.625000	-34691.535000	-24977.115000	-2500.290000	2074.635000	-5887.800000	-32902.830000	-26570.295000	0.000000	0.000021	-0.000052	0.000034	-0.000002	0.000028	-0.000016	0.000017	0.122080	1.083460	0.625660	-0.581541	-0.082886	0.792478	-1.000000	-1.000000	-1.000000	-1.000000	-1.000000	-1.000000	-1.000000	66.000000	0.000000	-1.000000	-1.000000	108142.000000	1775713140.317487
-26483.625000	-34691.535000	-24977.115000	-2500.290000	2074.635000	-5887.800000	-32902.830000	-26570.295000	0.000000	0.000021	-0.000051	0.000034	-0.000002	0.000028	-0.000016	0.000017	0.122080	1.083460	0.625660	-0.581541	-0.082886	0.792478	-1.000000	-1.000000	-1.000000	-1.000000	-1.000000	-1.000000	-1.000000	66.000000	0.000000	-1.000000	-1.000000	108143.000000	1775713140.317492
-26483.625000	-34691.535000	-24977.115000	-2500.290000	2074.635000	-5887.800000	-32902.830000	-26570.295000	0.000000	0.000021	-0.000051	0.000034	-0.000002	0.000028	-0.000016	0.000017	0.122080	1.083460	0.625660	-0.581541	-0.082886	0.792478	-1.000000	-1.000000	-1.000000	-1.000000	-1.000000	-1.000000	-1.000000	66.000000	0.000000	-1.000000	-1.000000	108144.000000	1775713140.317496
-26483.625000	-34691.535000	-24977.115000	-2500.290000	2074.635000	-5887.800000	-32902.830000	-26570.295000	0.000000	0.000021	-0.000050	0.000034	-0.000002	0.000027	-0.000016	0.000016	0.122080	1.083460	0.625660	-0.581541	-0.082886	0.792478	-1.000000	-1.000000	-1.000000	-1.000000	-1.000000	-1.000000	-1.000000	66.000000	0.000000	-1.000000	-1.000000	108145.000000	1775713140.317501
-26483.625000	-34691.535000	-24977.115000	-2500.290000	2074.635000	-5887.800000	-32902.830000	-26570.295000	0.000000	0.000020	-0.000050	0.000033	-0.000002	0.000027	-0.000015	0.000016	0.122080	1.083460	0.625660	-0.581541	-0.082886	0.792478	-1.000000	-1.000000	-1.000000	-1.000000	-1.000000	-1.000000	-1.000000	66.000000	0.000000	-1.000000	-1.000000	108146.000000	1775713140.317506
-26483.625000	-34691.535000	-24977.115000	-2500.290000	2074.635000	-5887.800000	-32902.830000	-26570.295000	0.000000	0.000020	-0.000050	0.000033	-0.000002	0.000027	-0.000015	0.000016	0.122080	1.083460	0.625660	-0.581541	-0.082886	0.792478	-1.000000	-1.000000	-1.000000	-1.000000	-1.000000	-1.000000	-1.000000	66.000000	0.000000	-1.000000	-1.000000	108147.000000	1775713140.317511
-26483.625000	-34691.535000	-24977.115000	-2500.290000	2074.635000	-5887.800000	-32902.830000	-26570.295000	0.000000	0.000020	-0.000049	0.000033	-0.000002	0.000027	-0.000015	0.000016	0.122080	1.083460	0.625660	-0.581541	-0.082886	0.792478	-1.000000	-1.000000	-1.000000	-1.000000	-1.000000	-1.000000	-1.000000	66.000000	0.000000	-1.000000	-1.000000	108148.000000	1775713140.317515
-26483.625000	-34691.535000	-24977.115000	-2500.290000	2074.635000	-5887.800000	-32902.830000	-26570.295000	0.000001	0.000020	-0.000049	0.000033	-0.000002	0.000027	-0.000015	0.000016	0.122080	1.083460	0.625660	-0.581541	-0.082886	0.792478	-1.000000	-1.000000	-1.000000	-1.000000	-1.000000	-1.000000	-1.000000	66.000000	0.000000	-1.000000	-1.000000	108149.000000	1775713140.317520
-26483.625000	-34691.535000	-24977.115000	-2500.290000	2074.635000	-5887.800000	-32902.830000	-26570.295000	0.000001	0.000020	-0.000048	0.000032	-0.000002	0.000026	-0.000015	0.000016	0.122080	1.083460	0.625660	-0.581541	-0.082886	0.792478	-1.000000	-1.000000	-1.000000	-1.000000	-1.000000	-1.000000	-1.000000	66.000000	0.000000	-1.000000	-1.000000	108150.000000	1775713140.317525
-26483.625000	-34691.535000	-24977.115000	-2500.290000	2074.635000	-5887.800000	-32902.830000	-26570.295000	0.000001	0.000019	-0.000048	0.000032	-0.000002	0.000026	-0.000015	0.000016	0.122080	1.083460	0.625660	-0.581541	-0.082886	0.792478	-1.000000	-1.000000	-1.000000	-1.000000	-1.000000	-1.000000	-1.000000	66.000000	0.000000	-1.000000	-1.000000	108151.000000	1775713140.317531
-26483.625000	-34691.535000	-24977.115000	-2500.290000	2074.635000	-5887.800000	-32902.830000	-26570.295000	0.000001	0.000019	-0.000047	0.000032	-0.000002	0.000026	-0.000014	0.000015	0.122080	1.083460	0.625660	-0.581541	-0.082886	0.792478	-1.000000	-1.000000	-1.000000	-1.000000	-1.000000	-1.000000	-1.000000	66.000000	0.000000	-1.000000	-1.000000	108152.000000	1775713140.317536
-26483.625000	-34691.535000	-24977.115000	-2500.290000	2074.635000	-5887.800000	-32902.830000	-26570.295000	0.000001	0.000019	-0.000047	0.000031	-0.000002	0.000026	-0.000014	0.000015	0.122080	1.083460	0.625660	-0.581541	-0.082886	0.792478	-1.000000	-1.000000	-1.000000	-1.000000	-1.000000	-1.000000	-1.000000	66.000000	0.000000	-1.000000	-1.000000	108153.000000	1775713140.317542
-26483.625000	-34691.535000	-24977.115000	-2500.290000	2074.635000	-5887.800000	-32902.830000	-26570.295000	0.000001	0.000019	-0.000046	0.000031	-0.000002	0.000025	-0.000014	0.000015	0.122080	1.083460	0.625660	-0.581541	-0.082886	0.792478	-1.000000	-1.000000	-1.000000	-1.000000	-1.000000	-1.000000	-1.000000	66.000000	0.000000	-1.000000	-1.000000	108154.000000	1775713140.317547
-26483.625000	-34691.535000	-24977.115000	-2500.290000	2074.635000	-5887.800000	-32902.830000	-26570.295000	0.000001	0.000019	-0.000046	0.000031	-0.000002	0.000025	-0.000014	0.000015	0.122080	1.083460	0.625660	-0.581541	-0.082886	0.792478	-1.000000	-1.000000	-1.000000	-1.000000	-1.000000	-1.000000	-1.000000	66.000000	0.000000	-1.000000	-1.000000	108155.000000	1775713140.317552
-26483.625000	-34691.535000	-24977.115000	-2500.290000	2074.635000	-5887.800000	-32902.830000	-26570.295000	0.000001	0.000019	-0.000046	0.000031	-0.000002	0.000025	-0.000014	0.000015	0.122080	1.083460	0.625660	-0.581541	-0.082886	0.792478	-1.000000	-1.000000	-1.000000	-1.000000	-1.000000	-1.000000	-1.000000	66.000000	0.000000	-1.000000	-1.000000	108156.000000	1775713140.317557
-26483.625000	-34691.535000	-24977.115000	-2500.290000	2074.635000	-5887.800000	-32902.830000	-26570.295000	0.000001	0.000018	-0.000045	0.000030	-0.000002	0.000025	-0.000014	0.000015	0.122080	1.083460	0.625660	-0.581541	-0.082886	0.792478	-1.000000	-1.000000	-1.000000	-1.000000	-1.000000	-1.000000	-1.000000	66.000000	0.000000	-1.000000	-1.000000	108157.000000	1775713140.317562
-26483.625000	-34691.535000	-24977.115000	-2500.290000	2074.635000	-5887.800000	-32902.830000	-26570.295000	0.000001	0.000018	-0.000045	0.000030	-0.000001	0.000025	-0.000014	0.000015	0.122080	1.083460	0.625660	-0.581541	-0.082886	0.792478	-1.000000	-1.000000	-1.000000	-1.000000	-1.000000	-1.000000	-1.000000	66.000000	0.000000	-1.000000	-1.000000	108158.000000	1775713140.317566
-26483.625000	-34691.535000	-24977.115000	-2500.290000	2074.635000	-5887.800000	-32902.830000	-26570.295000	0.000001	0.000018	-0.000044	0.000030	-0.000001	0.000024	-0.000013	0.000015	0.122080	1.083460	0.625660	-0.581541	-0.082886	0.792478	-1.000000	-1.000000	-1.000000	-1.000000	-1.000000	-1.000000	-1.000000	66.000000	0.000000	-1.000000	-1.000000	108159.000000	1775713140.317571
-26483.625000	-34691.535000	-24977.115000	-2500.290000	2074.635000	-5887.800000	-32902.830000	-26570.295000	0.000001	0.000018	-0.000044	0.000030	-0.000001	0.000024	-0.000013	0.000014	0.122080	1.083460	0.625660	-0.581541	-0.082886	0.792478	-1.000000	-1.000000	-1.000000	-1.000000	-1.000000	-1.000000	-1.000000	66.000000	0.000000	-1.000000	-1.000000	108160.000000	1775713140.317577
-26483.625000	-34691.535000	-24977.115000	-2500.290000	2074.635000	-5887.800000	-32902.830000	-26570.295000	0.000001	0.000018	-0.000044	0.000029	-0.000001	0.000024	-0.000013	0.000014	0.122080	1.083460	0.625660	-0.581541	-0.082886	0.792478	-1.000000	-1.000000	-1.000000	-1.000000	-1.000000	-1.000000	-1.000000	66.000000	0.000000	-1.000000	-1.000000	108161.000000	1775713140.317582
-26483.625000	-34691.535000	-24977.115000	-2500.290000	2074.635000	-5887.800000	-32902.830000	-26570.295000	0.000001	0.000018	-0.000043	0.000029	-0.000001	0.000024	-0.000013	0.000014	0.122080	1.083460	0.625660	-0.581541	-0.082886	0.792478	-1.000000	-1.000000	-1.000000	-1.000000	-1.000000	-1.000000	-1.000000	66.000000	0.000000	-1.000000	-1.000000	108162.000000	1775713140.317586
-26483.625000	-34691.535000	-24977.115000	-2500.290000	2074.635000	-5887.800000	-32902.830000	-26570.295000	0.000001	0.000018	-0.000043	0.000029	-0.000001	0.000023	-0.000013	0.000014	0.122080	1.083460	0.625660	-0.581541	-0.082886	0.792478	-1.000000	-1.000000	-1.000000	-1.000000	-1.000000	-1.000000	-1.000000	66.000000	0.000000	-1.000000	-1.000000	108163.000000	1775713140.317591
-26483.625000	-34691.535000	-24977.115000	-2500.290000	2074.635000	-5887.800000	-32902.830000	-26570.295000	0.000001	0.000017	-0.000042	0.000029	-0.000001	0.000023	-0.000013	0.000014	0.122080	1.083460	0.625660	-0.581541	-0.082886	0.792478	-1.000000	-1.000000	-1.000000	-1.000000	-1.000000	-1.000000	-1.000000	66.000000	0.000000	-1.000000	-1.000000	108164.000000	1775713140.317595
-26483.625000	-34691.535000	-24977.115000	-2500.290000	2074.635000	-5887.800000	-32902.830000	-26570.295000	0.000001	0.000017	-0.000042	0.000028	-0.000001	0.000023	-0.000013	0.000014	0.122080	1.083460	0.625660	-0.581541	-0.082886	0.792478	-1.000000	-1.000000	-1.000000	-1.000000	-1.000000	-1.000000	-1.000000	66.000000	0.000000	-1.000000	-1.000000	108165.000000	1775713140.317600
-26483.625000	-34691.535000	-24977.115000	-2500.290000	2074.635000	-5887.800000	-32902.830000	-26570.295000	0.000001	0.000017	-0.000042	0.000028	-0.000001	0.000023	-0.000012	0.000014	0.122080	1.083460	0.625660	-0.581541	-0.082886	0.792478	-1.000000	-1.000000	-1.000000	-1.000000	-1.000000	-1.000000	-1.000000	66.000000	0.000000	-1.000000	-1.000000	108166.000000	1775713140.317605
-26483.625000	-34691.535000	-24977.115000	-2500.290000	2074.635000	-5887.800000	-32902.830000	-26570.295000	0.000001	0.000017	-0.000041	0.000028	-0.000001	0.000023	-0.000012	0.000014	0.122080	1.083460	0.625660	-0.581541	-0.082886	0.792478	-1.000000	-1.000000	-1.000000	-1.000000	-1.000000	-1.000000	-1.000000	66.000000	0.000000	-1.000000	-1.000000	108167.000000	1775713140.317610
-26483.625000	-34691.535000	-24977.115000	-2500.290000	2074.635000	-5887.800000	-32902.830000	-26570.295000	0.000001	0.000017	-0.000041	0.000028	-0.000001	0.000022	-0.000012	0.000013	0.122080	1.083460	0.625660	-0.581541	-0.082886	0.792478	-1.000000	-1.000000	-1.000000	-1.000000	-1.000000	-1.000000	-1.000000	66.000000	0.000000	-1.000000	-1.000000	108168.000000	1775713140.317616
-26483.625000	-34691.535000	-24977.115000	-2500.290000	2074.635000	-5887.800000	-32902.830000	-26570.295000	0.000001	0.000017	-0.000040	0.000028	-0.000001	0.000022	-0.000012	0.000013	0.122080	1.083460	0.625660	-0.581541	-0.082886	0.792478	-1.000000	-1.000000	-1.000000	-1.000000	-1.000000	-1.000000	-1.000000	66.000000	0.000000	-1.000000	-1.000000	108169.000000	1775713140.317620
-26483.625000	-34691.535000	-24977.115000	-2500.290000	2074.635000	-5887.800000	-32902.830000	-26570.295000	0.000001	0.000016	-0.000040	0.000027	-0.000001	0.000022	-0.000012	0.000013	0.122080	1.083460	0.625660	-0.581541	-0.082886	0.792478	-1.000000	-1.000000	-1.000000	-1.000000	-1.000000	-1.000000	-1.000000	66.000000	0.000000	-1.000000	-1.000000	108170.000000	1775713140.317625
-26483.625000	-34691.535000	-24977.115000	-2500.290000	2074.635000	-5887.800000	-32902.830000	-26570.295000	0.000001	0.000016	-0.000040	0.000027	-0.000001	0.000022	-0.000012	0.000013	0.122080	1.083460	0.625660	-0.581541	-0.082886	0.792478	-1.000000	-1.000000	-1.000000	-1.000000	-1.000000	-1.000000	-1.000000	66.000000	0.000000	-1.000000	-1.000000	108171.000000	1775713140.317630
-26483.625000	-34691.535000	-24977.115000	-2500.290000	2074.635000	-5887.800000	-32902.830000	-26570.295000	0.000001	0.000016	-0.000039	0.000027	-0.000001	0.000022	-0.000012	0.000013	0.122080	1.083460	0.625660	-0.581541	-0.082886	0.792478	-1.000000	-1.000000	-1.000000	-1.000000	-1.000000	-1.000000	-1.000000	66.000000	0.000000	-1.000000	-1.000000	108172.000000	1775713140.317635
-26483.625000	-34691.535000	-24977.115000	-2500.290000	2074.635000	-5887.800000	-32902.830000	-26570.295000	0.000001	0.000016	-0.000039	0.000027	-0.000001	0.000021	-0.000011	0.000013	0.122080	1.083460	0.625660	-0.581541	-0.082886	0.792478	-1.000000	-1.000000	-1.000000	-1.000000	-1.000000	-1.000000	-1.000000	66.000000	0.000000	-1.000000	-1.000000	108173.000000	1775713140.317641
-26483.625000	-34691.535000	-24977.115000	-2500.290000	2074.635000	-5887.800000	-32902.830000	-26570.295000	0.000001	0.000016	-0.000039	0.000026	-0.000001	0.000021	-0.000011	0.000013	0.122080	1.083460	0.625660	-0.581541	-0.082886	0.792478	-1.000000	-1.000000	-1.000000	-1.000000	-1.000000	-1.000000	-1.000000	66.000000	0.000000	-1.000000	-1.000000	108174.000000	1775713140.317646
-26483.625000	-34691.535000	-24977.115000	-2500.290000	2074.635000	-5887.800000	-32902.830000	-26570.295000	0.000001	0.000016	-0.000038	0.000026	-0.000001	0.000021	-0.000011	0.000013	0.122080	1.083460	0.625660	-0.581541	-0.082886	0.792478	-1.000000	-1.000000	-1.000000	-1.000000	-1.000000	-1.000000	-1.000000	66.000000	0.000000	-1.000000	-1.000000	108175.000000	1775713140.317651
-26483.625000	-34691.535000	-24977.115000	-2500.290000	2074.635000	-5887.800000	-32902.830000	-26570.295000	0.000001	0.000016	-0.000038	0.000026	-0.000001	0.000021	-0.000011	0.000013	0.122080	1.083460	0.625660	-0.581541	-0.082886	0.792478	-1.000000	-1.000000	-1.000000	-1.000000	-1.000000	-1.000000	-1.000000	66.000000	0.000000	-1.000000	-1.000000	108176.000000	1775713140.317656
-26483.625000	-34691.535000	-24977.115000	-2500.290000	2074.635000	-5887.800000	-32902.830000	-26570.295000	0.000001	0.000015	-0.000038	0.000026	-0.000001	0.000021	-0.000011	0.000012	0.122080	1.083460	0.625660	-0.581541	-0.082886	0.792478	-1.000000	-1.000000	-1.000000	-1.000000	-1.000000	-1.000000	-1.000000	66.000000	0.000000	-1.000000	-1.000000	108177.000000	1775713140.317661
-26483.625000	-34691.535000	-24977.115000	-2500.290000	2074.635000	-5887.800000	-32902.830000	-26570.295000	0.000001	0.000015	-0.000037	0.000026	-0.000001	0.000020	-0.000011	0.000012	0.122080	1.083460	0.625660	-0.581541	-0.082886	0.792478	-1.000000	-1.000000	-1.000000	-1.000000	-1.000000	-1.000000	-1.000000	66.000000	0.000000	-1.000000	-1.000000	108178.000000	1775713140.317666
-26483.625000	-34691.535000	-24977.115000	-2500.290000	2074.635000	-5887.800000	-32902.830000	-26570.295000	0.000001	0.000015	-0.000037	0.000025	-0.000001	0.000020	-0.000011	0.000012	0.122080	1.083460	0.625660	-0.581541	-0.082886	0.792478	-1.000000	-1.000000	-1.000000	-1.000000	-1.000000	-1.000000	-1.000000	66.000000	0.000000	-1.000000	-1.000000	108179.000000	1775713140.317670
-26483.625000	-34691.535000	-24977.115000	-2500.290000	2074.635000	-5887.800000	-32902.830000	-26570.295000	0.000001	0.000015	-0.000036	0.000025	-0.000001	0.000020	-0.000011	0.000012	0.122080	1.083460	0.625660	-0.581541	-0.082886	0.792478	-1.000000	-1.000000	-1.000000	-1.000000	-1.000000	-1.000000	-1.000000	66.000000	0.000000	-1.000000	-1.000000	108180.000000	1775713140.317674
-26483.625000	-34691.535000	-24977.115000	-2500.290000	2074.635000	-5887.800000	-32902.830000	-26570.295000	0.000001	0.000015	-0.000036	0.000025	-0.000001	0.000020	-0.000011	0.000012	0.122080	1.083460	0.625660	-0.581541	-0.082886	0.792478	-1.000000	-1.000000	-1.000000	-1.000000	-1.000000	-1.000000	-1.000000	66.000000	0.000000	-1.000000	-1.000000	108181.000000	1775713140.317679
-26483.625000	-34691.535000	-24977.115000	-2500.290000	2074.635000	-5887.800000	-32902.830000	-26570.295000	0.000001	0.000015	-0.000036	0.000025	-0.000000	0.000020	-0.000010	0.000012	0.122080	1.083460	0.625660	-0.581541	-0.082886	0.792478	-1.000000	-1.000000	-1.000000	-1.000000	-1.000000	-1.000000	-1.000000	66.000000	0.000000	-1.000000	-1.000000	108182.000000	1775713140.317684
-26483.625000	-34691.535000	-24977.115000	-2500.290000	2074.635000	-5887.800000	-32902.830000	-26570.295000	0.000001	0.000015	-0.000035	0.000024	-0.000000	0.000020	-0.000010	0.000012	0.122080	1.083460	0.625660	-0.581541	-0.082886	0.792478	-1.000000	-1.000000	-1.000000	-1.000000	-1.000000	-1.000000	-1.000000	66.000000	0.000000	-1.000000	-1.000000	108183.000000	1775713140.317690
-26483.625000	-34691.535000	-24977.115000	-2500.290000	2074.635000	-5887.800000	-32902.830000	-26570.295000	0.000001	0.000015	-0.000035	0.000024	-0.000000	0.000019	-0.000010	0.000012	0.122080	1.083460	0.625660	-0.581541	-0.082886	0.792478	-1.000000	-1.000000	-1.000000	-1.000000	-1.000000	-1.000000	-1.000000	66.000000	0.000000	-1.000000	-1.000000	108184.000000	1775713140.317695
-26483.625000	-34691.535000	-24977.115000	-2500.290000	2074.635000	-5887.800000	-32902.830000	-26570.295000	0.000001	0.000014	-0.000035	0.000024	-0.000000	0.000019	-0.000010	0.000012	0.122080	1.083460	0.625660	-0.581541	-0.082886	0.792478	-1.000000	-1.000000	-1.000000	-1.000000	-1.000000	-1.000000	-1.000000	66.000000	0.000000	-1.000000	-1.000000	108185.000000	1775713140.317700
-26483.625000	-34691.535000	-24977.115000	-2500.290000	2074.635000	-5887.800000	-32902.830000	-26570.295000	0.000001	0.000014	-0.000034	0.000024	-0.000000	0.000019	-0.000010	0.000011	0.122080	1.083460	0.625660	-0.581541	-0.082886	0.792478	-1.000000	-1.000000	-1.000000	-1.000000	-1.000000	-1.000000	-1.000000	66.000000	0.000000	-1.000000	-1.000000	108186.000000	1775713140.317704
-26483.625000	-34691.535000	-24977.115000	-2500.290000	2074.635000	-5887.800000	-32902.830000	-26570.295000	0.000001	0.000014	-0.000034	0.000024	-0.000000	0.000019	-0.000010	0.000011	0.122080	1.083460	0.625660	-0.581541	-0.082886	0.792478	-1.000000	-1.000000	-1.000000	-1.000000	-1.000000	-1.000000	-1.000000	66.000000	0.000000	-1.000000	-1.000000	108187.000000	1775713140.317709
-26483.625000	-34691.535000	-24977.115000	-2500.290000	2074.635000	-5887.800000	-32902.830000	-26570.295000	0.000001	0.000014	-0.000034	0.000023	-0.000000	0.000019	-0.000010	0.000011	0.122080	1.083460	0.625660	-0.581541	-0.082886	0.792478	-1.000000	-1.000000	-1.000000	-1.000000	-1.000000	-1.000000	-1.000000	66.000000	0.000000	-1.000000	-1.000000	108188.000000	1775713140.317713
-26483.625000	-34691.535000	-24977.115000	-2500.290000	2074.635000	-5887.800000	-32902.830000	-26570.295000	0.000001	0.000014	-0.000034	0.000023	-0.000000	0.000019	-0.000010	0.000011	0.122080	1.083460	0.625660	-0.581541	-0.082886	0.792478	-1.000000	-1.000000	-1.000000	-1.000000	-1.000000	-1.000000	-1.000000	66.000000	0.000000	-1.000000	-1.000000	108189.000000	1775713140.317719
-26483.625000	-34691.535000	-24977.115000	-2500.290000	2074.635000	-5887.800000	-32902.830000	-26570.295000	0.000001	0.000014	-0.000033	0.000023	-0.000000	0.000018	-0.000009	0.000011	0.122080	1.083460	0.625660	-0.581541	-0.082886	0.792478	-1.000000	-1.000000	-1.000000	-1.000000	-1.000000	-1.000000	-1.000000	66.000000	0.000000	-1.000000	-1.000000	108190.000000	1775713140.317723
-26483.625000	-34691.535000	-24977.115000	-2500.290000	2074.635000	-5887.800000	-32902.830000	-26570.295000	0.000001	0.000014	-0.000033	0.000023	-0.000000	0.000018	-0.000009	0.000011	0.122080	1.083460	0.625660	-0.581541	-0.082886	0.792478	-1.000000	-1.000000	-1.000000	-1.000000	-1.000000	-1.000000	-1.000000	66.000000	0.000000	-1.000000	-1.000000	108191.000000	1775713140.317728
-26483.625000	-34691.535000	-24977.115000	-2500.290000	2074.635000	-5887.800000	-32902.830000	-26570.295000	0.000001	0.000014	-0.000033	0.000023	-0.000000	0.000018	-0.000009	0.000011	0.122080	1.083460	0.625660	-0.581541	-0.082886	0.792478	-1.000000	-1.000000	-1.000000	-1.000000	-1.000000	-1.000000	-1.000000	66.000000	0.000000	-1.000000	-1.000000	108192.000000	1775713140.317733
-26483.625000	-34691.535000	-24977.115000	-2500.290000	2074.635000	-5887.800000	-32902.830000	-26570.295000	0.000001	0.000013	-0.000032	0.000022	-0.000000	0.000018	-0.000009	0.000011	0.122080	1.083460	0.625660	-0.581541	-0.082886	0.792478	-1.000000	-1.000000	-1.000000	-1.000000	-1.000000	-1.000000	-1.000000	66.000000	0.000000	-1.000000	-1.000000	108193.000000	1775713140.317738
-26483.625000	-34691.535000	-24977.115000	-2500.290000	2074.635000	-5887.800000	-32902.830000	-26570.295000	0.000001	0.000013	-0.000032	0.000022	-0.000000	0.000018	-0.000009	0.000011	0.122080	1.083460	0.625660	-0.581541	-0.082886	0.792478	-1.000000	-1.000000	-1.000000	-1.000000	-1.000000	-1.000000	-1.000000	66.000000	0.000000	-1.000000	-1.000000	108194.000000	1775713140.317743
-26483.625000	-34691.535000	-24977.115000	-2500.290000	2074.635000	-5887.800000	-32902.830000	-26570.295000	0.000001	0.000013	-0.000032	0.000022	-0.000000	0.000018	-0.000009	0.000011	0.122080	1.083460	0.625660	-0.581541	-0.082886	0.792478	-1.000000	-1.000000	-1.000000	-1.000000	-1.000000	-1.000000	-1.000000	66.000000	0.000000	-1.000000	-1.000000	108195.000000	1775713140.317748
-26483.625000	-34691.535000	-24977.115000	-2500.290000	2074.635000	-5887.800000	-32902.830000	-26570.295000	0.000001	0.000013	-0.000031	0.000022	-0.000000	0.000017	-0.000009	0.000011	0.122080	1.083460	0.625660	-0.581541	-0.082886	0.792478	-1.000000	-1.000000	-1.000000	-1.000000	-1.000000	-1.000000	-1.000000	66.000000	0.000000	-1.000000	-1.000000	108196.000000	1775713140.317754
-26483.625000	-34691.535000	-24977.115000	-2500.290000	2074.635000	-5887.800000	-32902.830000	-26570.295000	0.000001	0.000013	-0.000031	0.000022	0.000000	0.000017	-0.000009	0.000010	0.122080	1.083460	0.625660	-0.581541	-0.082886	0.792478	-1.000000	-1.000000	-1.000000	-1.000000	-1.000000	-1.000000	-1.000000	66.000000	0.000000	-1.000000	-1.000000	108197.000000	1775713140.317759
-26483.625000	-34691.535000	-24977.115000	-2500.290000	2074.635000	-5887.800000	-32902.830000	-26570.295000	0.000001	0.000013	-0.000031	0.000022	0.000000	0.000017	-0.000009	0.000010	0.122080	1.083460	0.625660	-0.581541	-0.082886	0.792478	-1.000000	-1.000000	-1.000000	-1.000000	-1.000000	-1.000000	-1.000000	66.000000	0.000000	-1.000000	-1.000000	108198.000000	1775713140.317764
-26483.625000	-34691.535000	-24977.115000	-2500.290000	2074.635000	-5887.800000	-32902.830000	-26570.295000	0.000001	0.000013	-0.000030	0.000021	0.000000	0.000017	-0.000009	0.000010	0.122080	1.083460	0.625660	-0.581541	-0.082886	0.792478	-1.000000	-1.000000	-1.000000	-1.000000	-1.000000	-1.000000	-1.000000	66.000000	0.000000	-1.000000	-1.000000	108199.000000	1775713140.317768
-26483.625000	-34691.535000	-24977.115000	-2500.290000	2074.635000	-5887.800000	-32902.830000	-26570.295000	0.000001	0.000013	-0.000030	0.000021	0.000000	0.000017	-0.000008	0.000010	0.122080	1.083460	0.625660	-0.581541	-0.082886	0.792478	-1.000000	-1.000000	-1.000000	-1.000000	-1.000000	-1.000000	-1.000000	66.000000	0.000000	-1.000000	-1.000000	108200.000000	1775713140.317773
-26483.625000	-34691.535000	-24977.115000	-2500.290000	2074.635000	-5887.800000	-32902.830000	-26570.295000	0.000001	0.000012	-0.000030	0.000021	0.000000	0.000017	-0.000008	0.000010	0.122080	1.083460	0.625660	-0.581541	-0.082886	0.792478	-1.000000	-1.000000	-1.000000	-1.000000	-1.000000	-1.000000	-1.000000	66.000000	0.000000	-1.000000	-1.000000	108201.000000	1775713140.317778
-26483.625000	-34691.535000	-24977.115000	-2500.290000	2074.635000	-5887.800000	-32902.830000	-26570.295000	0.000001	0.000012	-0.000030	0.000021	0.000000	0.000016	-0.000008	0.000010	0.122080	1.083460	0.625660	-0.581541	-0.082886	0.792478	-1.000000	-1.000000	-1.000000	-1.000000	-1.000000	-1.000000	-1.000000	66.000000	0.000000	-1.000000	-1.000000	108202.000000	1775713140.317782
-26483.625000	-34691.535000	-24977.115000	-2500.290000	2074.635000	-5887.800000	-32902.830000	-26570.295000	0.000001	0.000012	-0.000029	0.000021	0.000000	0.000016	-0.000008	0.000010	0.122080	1.083460	0.625660	-0.581541	-0.082886	0.792478	-1.000000	-1.000000	-1.000000	-1.000000	-1.000000	-1.000000	-1.000000	66.000000	0.000000	-1.000000	-1.000000	108203.000000	1775713140.317788
-26483.625000	-34691.535000	-24977.115000	-2500.290000	2074.635000	-5887.800000	-32902.830000	-26570.295000	0.000001	0.000012	-0.000029	0.000020	0.000000	0.000016	-0.000008	0.000010	0.122080	1.083460	0.625660	-0.581541	-0.082886	0.792478	-1.000000	-1.000000	-1.000000	-1.000000	-1.000000	-1.000000	-1.000000	66.000000	0.000000	-1.000000	-1.000000	108204.000000	1775713140.317793
-26483.625000	-34691.535000	-24977.115000	-2500.290000	2074.635000	-5887.800000	-32902.830000	-26570.295000	0.000001	0.000012	-0.000029	0.000020	0.000000	0.000016	-0.000008	0.000010	0.122080	1.083460	0.625660	-0.581541	-0.082886	0.792478	-1.000000	-1.000000	-1.000000	-1.000000	-1.000000	-1.000000	-1.000000	66.000000	0.000000	-1.000000	-1.000000	108205.000000	1775713140.317798
-26483.625000	-34691.535000	-24977.115000	-2500.290000	2074.635000	-5887.800000	-32902.830000	-26570.295000	0.000001	0.000012	-0.000028	0.000020	0.000000	0.000016	-0.000008	0.000010	0.122080	1.083460	0.625660	-0.581541	-0.082886	0.792478	-1.000000	-1.000000	-1.000000	-1.000000	-1.000000	-1.000000	-1.000000	66.000000	0.000000	-1.000000	-1.000000	108206.000000	1775713140.317803
-26483.625000	-34691.535000	-24977.115000	-2500.290000	2074.635000	-5887.800000	-32902.830000	-26570.295000	0.000001	0.000012	-0.000028	0.000020	0.000000	0.000016	-0.000008	0.000010	0.122080	1.083460	0.625660	-0.581541	-0.082886	0.792478	-1.000000	-1.000000	-1.000000	-1.000000	-1.000000	-1.000000	-1.000000	66.000000	0.000000	-1.000000	-1.000000	108207.000000	1775713140.317809
-26483.625000	-34691.535000	-24977.115000	-2500.290000	2074.635000	-5887.800000	-32902.830000	-26570.295000	0.000001	0.000012	-0.000028	0.000020	0.000000	0.000016	-0.000008	0.000009	0.122080	1.083460	0.625660	-0.581541	-0.082886	0.792478	-1.000000	-1.000000	-1.000000	-1.000000	-1.000000	-1.000000	-1.000000	66.000000	0.000000	-1.000000	-1.000000	108208.000000	1775713140.317814
-26483.625000	-34691.535000	-24977.115000	-2500.290000	2074.635000	-5887.800000	-32902.830000	-26570.295000	0.000001	0.000012	-0.000028	0.000020	0.000000	0.000015	-0.000008	0.000009	0.122080	1.083460	0.625660	-0.581541	-0.082886	0.792478	-1.000000	-1.000000	-1.000000	-1.000000	-1.000000	-1.000000	-1.000000	66.000000	0.000000	-1.000000	-1.000000	108209.000000	1775713140.317819
-26483.625000	-34691.535000	-24977.115000	-2500.290000	2074.635000	-5887.800000	-32902.830000	-26570.295000	0.000001	0.000011	-0.000027	0.000019	0.000000	0.000015	-0.000007	0.000009	0.122080	1.083460	0.625660	-0.581541	-0.082886	0.792478	-1.000000	-1.000000	-1.000000	-1.000000	-1.000000	-1.000000	-1.000000	66.000000	0.000000	-1.000000	-1.000000	108210.000000	1775713140.317824
-26483.625000	-34691.535000	-24977.115000	-2500.290000	2074.635000	-5887.800000	-32902.830000	-26570.295000	0.000001	0.000011	-0.000027	0.000019	0.000000	0.000015	-0.000007	0.000009	0.122080	1.083460	0.625660	-0.581541	-0.082886	0.792478	-1.000000	-1.000000	-1.000000	-1.000000	-1.000000	-1.000000	-1.000000	66.000000	0.000000	-1.000000	-1.000000	108211.000000	1775713140.317828
-26483.625000	-34691.535000	-24977.115000	-2500.290000	2074.635000	-5887.800000	-32902.830000	-26570.295000	0.000001	0.000011	-0.000027	0.000019	0.000000	0.000015	-0.000007	0.000009	0.122080	1.083460	0.625660	-0.581541	-0.082886	0.792478	-1.000000	-1.000000	-1.000000	-1.000000	-1.000000	-1.000000	-1.000000	66.000000	0.000000	-1.000000	-1.000000	108212.000000	1775713140.317833
-26483.625000	-34691.535000	-24977.115000	-2500.290000	2074.635000	-5887.800000	-32902.830000	-26570.295000	0.000001	0.000011	-0.000027	0.000019	0.000000	0.000015	-0.000007	0.000009	0.122080	1.083460	0.625660	-0.581541	-0.082886	0.792478	-1.000000	-1.000000	-1.000000	-1.000000	-1.000000	-1.000000	-1.000000	66.000000	0.000000	-1.000000	-1.000000	108213.000000	1775713140.317838
-26483.625000	-34691.535000	-24977.115000	-2500.290000	2074.635000	-5887.800000	-32902.830000	-26570.295000	0.000001	0.000011	-0.000026	0.000019	0.000000	0.000015	-0.000007	0.000009	0.122080	1.083460	0.625660	-0.581541	-0.082886	0.792478	-1.000000	-1.000000	-1.000000	-1.000000	-1.000000	-1.000000	-1.000000	66.000000	0.000000	-1.000000	-1.000000	108214.000000	1775713140.317844
-26483.625000	-34691.535000	-24977.115000	-2500.290000	2074.635000	-5887.800000	-32902.830000	-26570.295000	0.000001	0.000011	-0.000026	0.000019	0.000000	0.000015	-0.000007	0.000009	0.122080	1.083460	0.625660	-0.581541	-0.082886	0.792478	-1.000000	-1.000000	-1.000000	-1.000000	-1.000000	-1.000000	-1.000000	66.000000	0.000000	-1.000000	-1.000000	108215.000000	1775713140.317849
-26483.625000	-34691.535000	-24977.115000	-2500.290000	2074.635000	-5887.800000	-32902.830000	-26570.295000	0.000001	0.000011	-0.000026	0.000018	0.000001	0.000014	-0.000007	0.000009	0.122080	1.083460	0.625660	-0.581541	-0.082886	0.792478	-1.000000	-1.000000	-1.000000	-1.000000	-1.000000	-1.000000	-1.000000	66.000000	0.000000	-1.000000	-1.000000	108216.000000	1775713140.317854
-26483.625000	-34691.535000	-24977.115000	-2500.290000	2074.635000	-5887.800000	-32902.830000	-26570.295000	0.000001	0.000011	-0.000026	0.000018	0.000001	0.000014	-0.000007	0.000009	0.122080	1.083460	0.625660	-0.581541	-0.082886	0.792478	-1.000000	-1.000000	-1.000000	-1.000000	-1.000000	-1.000000	-1.000000	66.000000	0.000000	-1.000000	-1.000000	108217.000000	1775713140.317859
-26483.625000	-34691.535000	-24977.115000	-2500.290000	2074.635000	-5887.800000	-32902.830000	-26570.295000	0.000001	0.000011	-0.000025	0.000018	0.000001	0.000014	-0.000007	0.000009	0.122080	1.083460	0.625660	-0.581541	-0.082886	0.792478	-1.000000	-1.000000	-1.000000	-1.000000	-1.000000	-1.000000	-1.000000	66.000000	0.000000	-1.000000	-1.000000	108218.000000	1775713140.317865
-26483.625000	-34691.535000	-24977.115000	-2500.290000	2074.635000	-5887.800000	-32902.830000	-26570.295000	0.000001	0.000011	-0.000025	0.000018	0.000001	0.000014	-0.000007	0.000009	0.122080	1.083460	0.625660	-0.581541	-0.082886	0.792478	-1.000000	-1.000000	-1.000000	-1.000000	-1.000000	-1.000000	-1.000000	66.000000	0.000000	-1.000000	-1.000000	108219.000000	1775713140.317870
-26483.625000	-34691.535000	-24977.115000	-2500.290000	2074.635000	-5887.800000	-32902.830000	-26570.295000	0.000001	0.000010	-0.000025	0.000018	0.000001	0.000014	-0.000007	0.000008	0.122080	1.083460	0.625660	-0.581541	-0.082886	0.792478	-1.000000	-1.000000	-1.000000	-1.000000	-1.000000	-1.000000	-1.000000	66.000000	0.000000	-1.000000	-1.000000	108220.000000	1775713140.317875
-26483.625000	-34691.535000	-24977.115000	-2500.290000	2074.635000	-5887.800000	-32902.830000	-26570.295000	0.000001	0.000010	-0.000025	0.000018	0.000001	0.000014	-0.000007	0.000008	0.122080	1.083460	0.625660	-0.581541	-0.082886	0.792478	-1.000000	-1.000000	-1.000000	-1.000000	-1.000000	-1.000000	-1.000000	66.000000	0.000000	-1.000000	-1.000000	108221.000000	1775713140.317880
-26483.625000	-34691.535000	-24977.115000	-2500.290000	2074.635000	-5887.800000	-32902.830000	-26570.295000	0.000001	0.000010	-0.000024	0.000018	0.000001	0.000014	-0.000006	0.000008	0.122080	1.083460	0.625660	-0.581541	-0.082886	0.792478	-1.000000	-1.000000	-1.000000	-1.000000	-1.000000	-1.000000	-1.000000	66.000000	0.000000	-1.000000	-1.000000	108222.000000	1775713140.317885
-26483.625000	-34691.535000	-24977.115000	-2500.290000	2074.635000	-5887.800000	-32902.830000	-26570.295000	0.000001	0.000010	-0.000024	0.000017	0.000001	0.000014	-0.000006	0.000008	0.122080	1.083460	0.625660	-0.581541	-0.082886	0.792478	-1.000000	-1.000000	-1.000000	-1.000000	-1.000000	-1.000000	-1.000000	66.000000	0.000000	-1.000000	-1.000000	108223.000000	1775713140.317890
-26483.625000	-34691.535000	-24977.115000	-2500.290000	2074.635000	-5887.800000	-32902.830000	-26570.295000	0.000001	0.000010	-0.000024	0.000017	0.000001	0.000013	-0.000006	0.000008	0.122080	1.083460	0.625660	-0.581541	-0.082886	0.792478	-1.000000	-1.000000	-1.000000	-1.000000	-1.000000	-1.000000	-1.000000	66.000000	0.000000	-1.000000	-1.000000	108224.000000	1775713140.317895
-26483.625000	-34691.535000	-24977.115000	-2500.290000	2074.635000	-5887.800000	-32902.830000	-26570.295000	0.000001	0.000010	-0.000024	0.000017	0.000001	0.000013	-0.000006	0.000008	0.122080	1.083460	0.625660	-0.581541	-0.082886	0.792478	-1.000000	-1.000000	-1.000000	-1.000000	-1.000000	-1.000000	-1.000000	66.000000	0.000000	-1.000000	-1.000000	108225.000000	1775713140.317900
-26483.625000	-34691.535000	-24977.115000	-2500.290000	2074.635000	-5887.800000	-32902.830000	-26570.295000	0.000001	0.000010	-0.000023	0.000017	0.000001	0.000013	-0.000006	0.000008	0.122080	1.083460	0.625660	-0.581541	-0.082886	0.792478	-1.000000	-1.000000	-1.000000	-1.000000	-1.000000	-1.000000	-1.000000	66.000000	0.000000	-1.000000	-1.000000	108226.000000	1775713140.317905
-26483.625000	-34691.535000	-24977.115000	-2500.290000	2074.635000	-5887.800000	-32902.830000	-26570.295000	0.000001	0.000010	-0.000023	0.000017	0.000001	0.000013	-0.000006	0.000008	0.122080	1.083460	0.625660	-0.581541	-0.082886	0.792478	-1.000000	-1.000000	-1.000000	-1.000000	-1.000000	-1.000000	-1.000000	66.000000	0.000000	-1.000000	-1.000000	108227.000000	1775713140.317909
-26483.625000	-34691.535000	-24977.115000	-2500.290000	2074.635000	-5887.800000	-32902.830000	-26570.295000	0.000001	0.000010	-0.000023	0.000017	0.000001	0.000013	-0.000006	0.000008	0.122080	1.083460	0.625660	-0.581541	-0.082886	0.792478	-1.000000	-1.000000	-1.000000	-1.000000	-1.000000	-1.000000	-1.000000	66.000000	0.000000	-1.000000	-1.000000	108228.000000	1775713140.317914
-26483.625000	-34691.535000	-24977.115000	-2500.290000	2074.635000	-5887.800000	-32902.830000	-26570.295000	0.000001	0.000010	-0.000023	0.000017	0.000001	0.000013	-0.000006	0.000008	0.122080	1.083460	0.625660	-0.581541	-0.082886	0.792478	-1.000000	-1.000000	-1.000000	-1.000000	-1.000000	-1.000000	-1.000000	66.000000	0.000000	-1.000000	-1.000000	108229.000000	1775713140.317919
-26483.625000	-34691.535000	-24977.115000	-2500.290000	2074.635000	-5887.800000	-32902.830000	-26570.295000	0.000001	0.000010	-0.000022	0.000016	0.000001	0.000013	-0.000006	0.000008	0.122080	1.083460	0.625660	-0.581541	-0.082886	0.792478	-1.000000	-1.000000	-1.000000	-1.000000	-1.000000	-1.000000	-1.000000	66.000000	0.000000	-1.000000	-1.000000	108230.000000	1775713140.317933
-26483.625000	-34691.535000	-24977.115000	-2500.290000	2074.635000	-5887.800000	-32902.830000	-26570.295000	0.000001	0.000009	-0.000022	0.000016	0.000001	0.000013	-0.000006	0.000008	0.122080	1.083460	0.625660	-0.581541	-0.082886	0.792478	-1.000000	-1.000000	-1.000000	-1.000000	-1.000000	-1.000000	-1.000000	66.000000	0.000000	-1.000000	-1.000000	108231.000000	1775713140.317938
-26483.625000	-34691.535000	-24977.115000	-2500.290000	2074.635000	-5887.800000	-32902.830000	-26570.295000	0.000001	0.000009	-0.000022	0.000016	0.000001	0.000012	-0.000006	0.000008	0.122080	1.083460	0.625660	-0.581541	-0.082886	0.792478	-1.000000	-1.000000	-1.000000	-1.000000	-1.000000	-1.000000	-1.000000	66.000000	0.000000	-1.000000	-1.000000	108232.000000	1775713140.317943
-26483.625000	-34691.535000	-24977.115000	-2500.290000	2074.635000	-5887.800000	-32902.830000	-26570.295000	0.000001	0.000009	-0.000022	0.000016	0.000001	0.000012	-0.000006	0.000008	0.122080	1.083460	0.625660	-0.581541	-0.082886	0.792478	-1.000000	-1.000000	-1.000000	-1.000000	-1.000000	-1.000000	-1.000000	66.000000	0.000000	-1.000000	-1.000000	108233.000000	1775713140.317948
-26483.625000	-34691.535000	-24977.115000	-2500.290000	2074.635000	-5887.800000	-32902.830000	-26570.295000	0.000001	0.000009	-0.000022	0.000016	0.000001	0.000012	-0.000006	0.000007	0.122080	1.083460	0.625660	-0.581541	-0.082886	0.792478	-1.000000	-1.000000	-1.000000	-1.000000	-1.000000	-1.000000	-1.000000	66.000000	0.000000	-1.000000	-1.000000	108234.000000	1775713140.317952
-26483.625000	-34691.535000	-24977.115000	-2500.290000	2074.635000	-5887.800000	-32902.830000	-26570.295000	0.000001	0.000009	-0.000021	0.000016	0.000001	0.000012	-0.000005	0.000007	0.122080	1.083460	0.625660	-0.581541	-0.082886	0.792478	-1.000000	-1.000000	-1.000000	-1.000000	-1.000000	-1.000000	-1.000000	66.000000	0.000000	-1.000000	-1.000000	108235.000000	1775713140.317956
-26483.625000	-34691.535000	-24977.115000	-2500.290000	2074.635000	-5887.800000	-32902.830000	-26570.295000	0.000001	0.000009	-0.000021	0.000016	0.000001	0.000012	-0.000005	0.000007	0.122080	1.083460	0.625660	-0.581541	-0.082886	0.792478	-1.000000	-1.000000	-1.000000	-1.000000	-1.000000	-1.000000	-1.000000	66.000000	0.000000	-1.000000	-1.000000	108236.000000	1775713140.317961
-26483.625000	-34691.535000	-24977.115000	-2500.290000	2074.635000	-5887.800000	-32902.830000	-26570.295000	0.000001	0.000009	-0.000021	0.000015	0.000001	0.000012	-0.000005	0.000007	0.122080	1.083460	0.625660	-0.581541	-0.082886	0.792478	-1.000000	-1.000000	-1.000000	-1.000000	-1.000000	-1.000000	-1.000000	66.000000	0.000000	-1.000000	-1.000000	108237.000000	1775713140.317965
-26483.625000	-34691.535000	-24977.115000	-2500.290000	2074.635000	-5887.800000	-32902.830000	-26570.295000	0.000001	0.000009	-0.000021	0.000015	0.000001	0.000012	-0.000005	0.000007	0.122080	1.083460	0.625660	-0.581541	-0.082886	0.792478	-1.000000	-1.000000	-1.000000	-1.000000	-1.000000	-1.000000	-1.000000	66.000000	0.000000	-1.000000	-1.000000	108238.000000	1775713140.317970
-26483.625000	-34691.535000	-24977.115000	-2500.290000	2074.635000	-5887.800000	-32902.830000	-26570.295000	0.000001	0.000009	-0.000021	0.000015	0.000001	0.000012	-0.000005	0.000007	0.122080	1.083460	0.625660	-0.581541	-0.082886	0.792478	-1.000000	-1.000000	-1.000000	-1.000000	-1.000000	-1.000000	-1.000000	66.000000	0.000000	-1.000000	-1.000000	108239.000000	1775713140.317974
-26483.625000	-34691.535000	-24977.115000	-2500.290000	2074.635000	-5887.800000	-32902.830000	-26570.295000	0.000001	0.000009	-0.000020	0.000015	0.000001	0.000012	-0.000005	0.000007	0.122080	1.083460	0.625660	-0.581541	-0.082886	0.792478	-1.000000	-1.000000	-1.000000	-1.000000	-1.000000	-1.000000	-1.000000	66.000000	0.000000	-1.000000	-1.000000	108240.000000	1775713140.317979
-26483.625000	-34691.535000	-24977.115000	-2500.290000	2074.635000	-5887.800000	-32902.830000	-26570.295000	0.000001	0.000009	-0.000020	0.000015	0.000001	0.000011	-0.000005	0.000007	0.122080	1.083460	0.625660	-0.581541	-0.082886	0.792478	-1.000000	-1.000000	-1.000000	-1.000000	-1.000000	-1.000000	-1.000000	66.000000	0.000000	-1.000000	-1.000000	108241.000000	1775713140.317984
-26483.625000	-34691.535000	-24977.115000	-2500.290000	2074.635000	-5887.800000	-32902.830000	-26570.295000	0.000001	0.000009	-0.000020	0.000015	0.000001	0.000011	-0.000005	0.000007	0.122080	1.083460	0.625660	-0.581541	-0.082886	0.792478	-1.000000	-1.000000	-1.000000	-1.000000	-1.000000	-1.000000	-1.000000	66.000000	0.000000	-1.000000	-1.000000	108242.000000	1775713140.317989
-26483.625000	-34691.535000	-24977.115000	-2500.290000	2074.635000	-5887.800000	-32902.830000	-26570.295000	0.000001	0.000008	-0.000020	0.000015	0.000001	0.000011	-0.000005	0.000007	0.122080	1.083460	0.625660	-0.581541	-0.082886	0.792478	-1.000000	-1.000000	-1.000000	-1.000000	-1.000000	-1.000000	-1.000000	66.000000	0.000000	-1.000000	-1.000000	108243.000000	1775713140.317994
-26483.625000	-34691.535000	-24977.115000	-2500.290000	2074.635000	-5887.800000	-32902.830000	-26570.295000	0.000001	0.000008	-0.000020	0.000014	0.000001	0.000011	-0.000005	0.000007	0.122080	1.083460	0.625660	-0.581541	-0.082886	0.792478	-1.000000	-1.000000	-1.000000	-1.000000	-1.000000	-1.000000	-1.000000	66.000000	0.000000	-1.000000	-1.000000	108244.000000	1775713140.317999
-26483.625000	-34691.535000	-24977.115000	-2500.290000	2074.635000	-5887.800000	-32902.830000	-26570.295000	0.000001	0.000008	-0.000019	0.000014	0.000001	0.000011	-0.000005	0.000007	0.122080	1.083460	0.625660	-0.581541	-0.082886	0.792478	-1.000000	-1.000000	-1.000000	-1.000000	-1.000000	-1.000000	-1.000000	66.000000	0.000000	-1.000000	-1.000000	108245.000000	1775713140.318004
-26483.625000	-34691.535000	-24977.115000	-2500.290000	2074.635000	-5887.800000	-32902.830000	-26570.295000	0.000001	0.000008	-0.000019	0.000014	0.000001	0.000011	-0.000005	0.000007	0.122080	1.083460	0.625660	-0.581541	-0.082886	0.792478	-1.000000	-1.000000	-1.000000	-1.000000	-1.000000	-1.000000	-1.000000	66.000000	0.000000	-1.000000	-1.000000	108246.000000	1775713140.318009
-26483.625000	-34691.535000	-24977.115000	-2500.290000	2074.635000	-5887.800000	-32902.830000	-26570.295000	0.000001	0.000008	-0.000019	0.000014	0.000001	0.000011	-0.000005	0.000007	0.122080	1.083460	0.625660	-0.581541	-0.082886	0.792478	-1.000000	-1.000000	-1.000000	-1.000000	-1.000000	-1.000000	-1.000000	66.000000	0.000000	-1.000000	-1.000000	108247.000000	1775713140.318014
-26483.625000	-34691.535000	-24977.115000	-2500.290000	2074.635000	-5887.800000	-32902.830000	-26570.295000	0.000001	0.000008	-0.000019	0.000014	0.000001	0.000011	-0.000005	0.000007	0.122080	1.083460	0.625660	-0.581541	-0.082886	0.792478	-1.000000	-1.000000	-1.000000	-1.000000	-1.000000	-1.000000	-1.000000	66.000000	0.000000	-1.000000	-1.000000	108248.000000	1775713140.318019
-26483.625000	-34691.535000	-24977.115000	-2500.290000	2074.635000	-5887.800000	-32902.830000	-26570.295000	0.000001	0.000008	-0.000019	0.000014	0.000001	0.000011	-0.000005	0.000006	0.122080	1.083460	0.625660	-0.581541	-0.082886	0.792478	-1.000000	-1.000000	-1.000000	-1.000000	-1.000000	-1.000000	-1.000000	66.000000	0.000000	-1.000000	-1.000000	108249.000000	1775713140.318023
-26483.625000	-34691.535000	-24977.115000	-2500.290000	2074.635000	-5887.800000	-32902.830000	-26570.295000	0.000001	0.000008	-0.000018	0.000014	0.000001	0.000010	-0.000004	0.000006	0.122080	1.083460	0.625660	-0.581541	-0.082886	0.792478	-1.000000	-1.000000	-1.000000	-1.000000	-1.000000	-1.000000	-1.000000	66.000000	0.000000	-1.000000	-1.000000	108250.000000	1775713140.318028
-26483.625000	-34691.535000	-24977.115000	-2500.290000	2074.635000	-5887.800000	-32902.830000	-26570.295000	0.000001	0.000008	-0.000018	0.000014	0.000001	0.000010	-0.000004	0.000006	0.122080	1.083460	0.625660	-0.581541	-0.082886	0.792478	-1.000000	-1.000000	-1.000000	-1.000000	-1.000000	-1.000000	-1.000000	66.000000	0.000000	-1.000000	-1.000000	108251.000000	1775713140.318033
-26483.625000	-34691.535000	-24977.115000	-2500.290000	2074.635000	-5887.800000	-32902.830000	-26570.295000	0.000001	0.000008	-0.000018	0.000014	0.000001	0.000010	-0.000004	0.000006	0.122080	1.083460	0.625660	-0.581541	-0.082886	0.792478	-1.000000	-1.000000	-1.000000	-1.000000	-1.000000	-1.000000	-1.000000	66.000000	0.000000	-1.000000	-1.000000	108252.000000	1775713140.318039
-26483.625000	-34691.535000	-24977.115000	-2500.290000	2074.635000	-5887.800000	-32902.830000	-26570.295000	0.000001	0.000008	-0.000018	0.000013	0.000001	0.000010	-0.000004	0.000006	0.122080	1.083460	0.625660	-0.581541	-0.082886	0.792478	-1.000000	-1.000000	-1.000000	-1.000000	-1.000000	-1.000000	-1.000000	66.000000	0.000000	-1.000000	-1.000000	108253.000000	1775713140.318044
-26483.625000	-34691.535000	-24977.115000	-2500.290000	2074.635000	-5887.800000	-32902.830000	-26570.295000	0.000001	0.000008	-0.000018	0.000013	0.000001	0.000010	-0.000004	0.000006	0.122080	1.083460	0.625660	-0.581541	-0.082886	0.792478	-1.000000	-1.000000	-1.000000	-1.000000	-1.000000	-1.000000	-1.000000	66.000000	0.000000	-1.000000	-1.000000	108254.000000	1775713140.318049
-26483.625000	-34691.535000	-24977.115000	-2500.290000	2074.635000	-5887.800000	-32902.830000	-26570.295000	0.000001	0.000008	-0.000017	0.000013	0.000001	0.000010	-0.000004	0.000006	0.122080	1.083460	0.625660	-0.581541	-0.082886	0.792478	-1.000000	-1.000000	-1.000000	-1.000000	-1.000000	-1.000000	-1.000000	66.000000	0.000000	-1.000000	-1.000000	108255.000000	1775713140.318056
-26483.625000	-34691.535000	-24977.115000	-2500.290000	2074.635000	-5887.800000	-32902.830000	-26570.295000	0.000001	0.000007	-0.000017	0.000013	0.000001	0.000010	-0.000004	0.000006	0.122080	1.083460	0.625660	-0.581541	-0.082886	0.792478	-1.000000	-1.000000	-1.000000	-1.000000	-1.000000	-1.000000	-1.000000	66.000000	0.000000	-1.000000	-1.000000	108256.000000	1775713140.318062
-26483.625000	-34691.535000	-24977.115000	-2500.290000	2074.635000	-5887.800000	-32902.830000	-26570.295000	0.000001	0.000007	-0.000017	0.000013	0.000001	0.000010	-0.000004	0.000006	0.122080	1.083460	0.625660	-0.581541	-0.082886	0.792478	-1.000000	-1.000000	-1.000000	-1.000000	-1.000000	-1.000000	-1.000000	66.000000	0.000000	-1.000000	-1.000000	108257.000000	1775713140.318069
-26483.625000	-34691.535000	-24977.115000	-2500.290000	2074.635000	-5887.800000	-32902.830000	-26570.295000	0.000001	0.000007	-0.000017	0.000013	0.000001	0.000010	-0.000004	0.000006	0.122080	1.083460	0.625660	-0.581541	-0.082886	0.792478	-1.000000	-1.000000	-1.000000	-1.000000	-1.000000	-1.000000	-1.000000	66.000000	0.000000	-1.000000	-1.000000	108258.000000	1775713140.318075
-26483.625000	-34691.535000	-24977.115000	-2500.290000	2074.635000	-5887.800000	-32902.830000	-26570.295000	0.000001	0.000007	-0.000017	0.000013	0.000001	0.000010	-0.000004	0.000006	0.122080	1.083460	0.625660	-0.581541	-0.082886	0.792478	-1.000000	-1.000000	-1.000000	-1.000000	-1.000000	-1.000000	-1.000000	66.000000	0.000000	-1.000000	-1.000000	108259.000000	1775713140.318082
-26483.625000	-34691.535000	-24977.115000	-2500.290000	2074.635000	-5887.800000	-32902.830000	-26570.295000	0.000001	0.000007	-0.000017	0.000013	0.000001	0.000009	-0.000004	0.000006	0.122080	1.083460	0.625660	-0.581541	-0.082886	0.792478	-1.000000	-1.000000	-1.000000	-1.000000	-1.000000	-1.000000	-1.000000	66.000000	0.000000	-1.000000	-1.000000	108260.000000	1775713140.318089
-26483.625000	-34691.535000	-24977.115000	-2500.290000	2074.635000	-5887.800000	-32902.830000	-26570.295000	0.000001	0.000007	-0.000016	0.000012	0.000001	0.000009	-0.000004	0.000006	0.122080	1.083460	0.625660	-0.581541	-0.082886	0.792478	-1.000000	-1.000000	-1.000000	-1.000000	-1.000000	-1.000000	-1.000000	66.000000	0.000000	-1.000000	-1.000000	108261.000000	1775713140.318097
-26483.625000	-34691.535000	-24977.115000	-2500.290000	2074.635000	-5887.800000	-32902.830000	-26570.295000	0.000001	0.000007	-0.000016	0.000012	0.000001	0.000009	-0.000004	0.000006	0.122080	1.083460	0.625660	-0.581541	-0.082886	0.792478	-1.000000	-1.000000	-1.000000	-1.000000	-1.000000	-1.000000	-1.000000	66.000000	0.000000	-1.000000	-1.000000	108262.000000	1775713140.318103
-26483.625000	-34691.535000	-24977.115000	-2500.290000	2074.635000	-5887.800000	-32902.830000	-26570.295000	0.000001	0.000007	-0.000016	0.000012	0.000001	0.000009	-0.000004	0.000006	0.122080	1.083460	0.625660	-0.581541	-0.082886	0.792478	-1.000000	-1.000000	-1.000000	-1.000000	-1.000000	-1.000000	-1.000000	66.000000	0.000000	-1.000000	-1.000000	108263.000000	1775713140.318108
-26483.625000	-34691.535000	-24977.115000	-2500.290000	2074.635000	-5887.800000	-32902.830000	-26570.295000	0.000001	0.000007	-0.000016	0.000012	0.000001	0.000009	-0.000004	0.000006	0.122080	1.083460	0.625660	-0.581541	-0.082886	0.792478	-1.000000	-1.000000	-1.000000	-1.000000	-1.000000	-1.000000	-1.000000	66.000000	0.000000	-1.000000	-1.000000	108264.000000	1775713140.318113
-26483.625000	-34691.535000	-24977.115000	-2500.290000	2074.635000	-5887.800000	-32902.830000	-26570.295000	0.000001	0.000007	-0.000016	0.000012	0.000001	0.000009	-0.000004	0.000006	0.122080	1.083460	0.625660	-0.581541	-0.082886	0.792478	-1.000000	-1.000000	-1.000000	-1.000000	-1.000000	-1.000000	-1.000000	66.000000	0.000000	-1.000000	-1.000000	108265.000000	1775713140.318119
-26483.625000	-34691.535000	-24977.115000	-2500.290000	2074.635000	-5887.800000	-32902.830000	-26570.295000	0.000001	0.000007	-0.000016	0.000012	0.000001	0.000009	-0.000004	0.000006	0.122080	1.083460	0.625660	-0.581541	-0.082886	0.792478	-1.000000	-1.000000	-1.000000	-1.000000	-1.000000	-1.000000	-1.000000	66.000000	0.000000	-1.000000	-1.000000	108266.000000	1775713140.318125
-26483.625000	-34691.535000	-24977.115000	-2500.290000	2074.635000	-5887.800000	-32902.830000	-26570.295000	0.000001	0.000007	-0.000015	0.000012	0.000001	0.000009	-0.000003	0.000005	0.122080	1.083460	0.625660	-0.581541	-0.082886	0.792478	-1.000000	-1.000000	-1.000000	-1.000000	-1.000000	-1.000000	-1.000000	66.000000	0.000000	-1.000000	-1.000000	108267.000000	1775713140.318131
-26483.625000	-34691.535000	-24977.115000	-2500.290000	2074.635000	-5887.800000	-32902.830000	-26570.295000	0.000001	0.000007	-0.000015	0.000012	0.000001	0.000009	-0.000003	0.000005	0.122080	1.083460	0.625660	-0.581541	-0.082886	0.792478	-1.000000	-1.000000	-1.000000	-1.000000	-1.000000	-1.000000	-1.000000	66.000000	0.000000	-1.000000	-1.000000	108268.000000	1775713140.318137
-26483.625000	-34691.535000	-24977.115000	-2500.290000	2074.635000	-5887.800000	-32902.830000	-26570.295000	0.000001	0.000007	-0.000015	0.000012	0.000001	0.000009	-0.000003	0.000005	0.122080	1.083460	0.625660	-0.581541	-0.082886	0.792478	-1.000000	-1.000000	-1.000000	-1.000000	-1.000000	-1.000000	-1.000000	66.000000	0.000000	-1.000000	-1.000000	108269.000000	1775713140.318143
-26483.625000	-34691.535000	-24977.115000	-2500.290000	2074.635000	-5887.800000	-32902.830000	-26570.295000	0.000001	0.000007	-0.000015	0.000012	0.000001	0.000009	-0.000003	0.000005	0.122080	1.083460	0.625660	-0.581541	-0.082886	0.792478	-1.000000	-1.000000	-1.000000	-1.000000	-1.000000	-1.000000	-1.000000	66.000000	0.000000	-1.000000	-1.000000	108270.000000	1775713140.318150
-26483.625000	-34691.535000	-24977.115000	-2500.290000	2074.635000	-5887.800000	-32902.830000	-26570.295000	0.000001	0.000006	-0.000015	0.000011	0.000001	0.000009	-0.000003	0.000005	0.122080	1.083460	0.625660	-0.581541	-0.082886	0.792478	-1.000000	-1.000000	-1.000000	-1.000000	-1.000000	-1.000000	-1.000000	66.000000	0.000000	-1.000000	-1.000000	108271.000000	1775713140.318159
