Channel1	Channel2	Channel3	Channel4	Channel5	Channel6	Channel7	Channel8	FilteredChannel1	FilteredChannel2	FilteredChannel3	FilteredChannel4	FilteredChannel5	FilteredChannel6	FilteredChannel7	FilteredChannel8	GyroX	GyroY	GyroZ	AccX	AccY	AccZ	PPG1	PPG2	rawPPG1	rawPPG2	rawPPG3	Hr	Hrv	Battery	Trigger	PhysicalTrigger	AutoTrigger	NumMeasurements	Timestamp
-42453.315000	-75055.725000	-59962.635000	-23312.475000	-9502.605000	-78212.430000	-211.815000	-5317.560000	-7.976285	-2.347167	-1.073991	1.320693	8.106033	9.476712	0.022531	-3.074778	-1.785420	1.587040	-0.137340	-0.809812	0.074707	0.565306	-1.000000	-1.000000	-1.000000	-1.000000	-1.000000	-1.000000	-1.000000	65.000000	0.000000	-1.000000	-1.000000	269165.000000	1775713461.659569
-42452.775000	-75053.340000	-59961.195000	-23311.440000	-9500.490000	-78210.045000	-212.580000	-5317.245000	-3.459703	-1.447669	-1.420412	-0.360323	4.325870	4.145204	0.985818	0.116623	-1.785420	1.587040	-0.137340	-0.809812	0.074707	0.565306	-1.000000	-1.000000	-1.000000	-1.000000	-1.000000	-1.000000	-1.000000	65.000000	0.000000	-1.000000	-1.000000	269166.000000	1775713461.659596
-42449.310000	-75046.680000	-59956.695000	-23310.315000	-9501.525000	-78209.055000	-213.660000	-5315.670000	1.391273	0.008943	-1.317982	-1.891052	-0.660164	-1.826608	1.277150	2.493322	-1.785420	1.587040	-0.137340	-0.809812	0.074707	0.565306	-1.000000	-1.000000	-1.000000	-1.000000	-1.000000	-1.000000	-1.000000	65.000000	0.000000	-1.000000	-1.000000	269167.000000	1775713461.661072
-42452.640000	-75052.395000	-59962.365000	-23315.355000	-9509.130000	-78226.380000	-214.920000	-5317.020000	4.966720	1.548451	-0.770383	-2.619260	-4.666012	-6.251644	1.032095	3.628194	-1.785420	1.587040	-0.137340	-0.809812	0.074707	0.565306	-1.000000	-1.000000	-1.000000	-1.000000	-1.000000	-1.000000	-1.000000	65.000000	0.000000	-1.000000	-1.000000	269168.000000	1775713461.661095
-42443.505000	-75041.595000	-59951.205000	-23308.695000	-9513.405000	-78234.345000	-211.455000	-5308.470000	6.403608	2.359145	-0.179698	-2.539876	-6.888465	-8.853969	0.588919	3.653384	-1.785420	1.587040	-0.137340	-0.809812	0.074707	0.565306	-1.000000	-1.000000	-1.000000	-1.000000	-1.000000	-1.000000	-1.000000	65.000000	0.000000	-1.000000	-1.000000	269169.000000	1775713461.663859
-42434.505000	-75025.890000	-59930.730000	-23287.815000	-9486.270000	-78222.870000	-218.655000	-5303.115000	6.022535	2.458573	0.711341	-1.358762	-6.713628	-9.492455	0.242574	3.177090	-1.785420	1.587040	-0.137340	-0.809812	0.074707	0.565306	-1.000000	-1.000000	-1.000000	-1.000000	-1.000000	-1.000000	-1.000000	65.000000	0.000000	-1.000000	-1.000000	269170.000000	1775713461.663877
-42437.565000	-75025.845000	-59926.230000	-23274.990000	-9458.145000	-78199.245000	-225.765000	-5306.220000	4.673930	2.573461	2.524776	1.504554	-2.762715	-6.573252	-0.247700	2.558228	-3.341940	1.983800	-0.595140	-0.809019	0.075317	0.563414	-1.000000	-1.000000	-1.000000	-1.000000	-1.000000	-1.000000	-1.000000	65.000000	0.000000	-1.000000	-1.000000	269171.000000	1775713461.669636
-42457.545000	-75051.045000	-59957.640000	-23306.130000	-9503.145000	-78244.380000	-221.580000	-5317.785000	2.089731	1.845723	3.624826	4.401662	3.591390	-0.403817	-1.092607	1.126653	-3.341940	1.983800	-0.595140	-0.809019	0.075317	0.563414	-1.000000	-1.000000	-1.000000	-1.000000	-1.000000	-1.000000	-1.000000	65.000000	0.000000	-1.000000	-1.000000	269172.000000	1775713461.669661
-42471.945000	-75069.180000	-59983.515000	-23330.025000	-9516.330000	-78184.485000	-209.205000	-5329.035000	-2.609079	-1.880288	0.426896	3.077114	6.098160	5.257813	-1.321827	-1.914311	-3.341940	1.983800	-0.595140	-0.809019	0.075317	0.563414	-1.000000	-1.000000	-1.000000	-1.000000	-1.000000	-1.000000	-1.000000	65.000000	0.000000	-1.000000	-1.000000	269173.000000	1775713461.673986
-42468.615000	-75064.635000	-59983.020000	-23326.470000	-9503.910000	-78214.005000	-211.455000	-5329.755000	-8.117313	-7.909116	-7.162832	-3.702308	1.365507	8.148479	0.154964	-5.699928	-3.341940	1.983800	-0.595140	-0.809019	0.075317	0.563414	-1.000000	-1.000000	-1.000000	-1.000000	-1.000000	-1.000000	-1.000000	65.000000	0.000000	-1.000000	-1.000000	269174.000000	1775713461.674010
-42458.985000	-75054.870000	-59970.015000	-23313.330000	-9495.585000	-78255.540000	-211.995000	-5319.180000	-10.444630	-11.339447	-13.099135	-10.377025	-5.329035	7.073309	2.424687	-7.471372	-3.341940	1.983800	-0.595140	-0.809019	0.075317	0.563414	-1.000000	-1.000000	-1.000000	-1.000000	-1.000000	-1.000000	-1.000000	65.000000	0.000000	-1.000000	-1.000000	269175.000000	1775713461.678276
-42454.080000	-75052.440000	-59967.540000	-23311.395000	-9495.315000	-78254.055000	-210.645000	-5314.005000	-6.730663	-8.042530	-11.042963	-10.232405	-7.082898	0.363005	3.383611	-4.913875	-3.341940	1.983800	-0.595140	-0.809019	0.075317	0.563414	-1.000000	-1.000000	-1.000000	-1.000000	-1.000000	-1.000000	-1.000000	65.000000	0.000000	-1.000000	-1.000000	269176.000000	1775713461.678299
-42455.115000	-75052.575000	-59968.575000	-23313.330000	-9493.605000	-78194.565000	-207.315000	-5316.480000	1.249866	0.535807	-1.406664	-2.894222	-3.066856	-7.434477	2.282038	1.009421	-3.341940	1.983800	-0.595140	-0.809019	0.075317	0.563414	-1.000000	-1.000000	-1.000000	-1.000000	-1.000000	-1.000000	-1.000000	65.000000	0.000000	-1.000000	-1.000000	269177.000000	1775713461.683108
-42457.905000	-75054.195000	-59970.330000	-23317.875000	-9505.665000	-78194.070000	-212.445000	-5318.595000	8.390420	8.867797	9.339033	6.013277	2.521084	-7.341361	0.012189	6.398369	-3.341940	1.983800	-0.595140	-0.809019	0.075317	0.563414	-1.000000	-1.000000	-1.000000	-1.000000	-1.000000	-1.000000	-1.000000	65.000000	0.000000	-1.000000	-1.000000	269178.000000	1775713461.683134
-42454.890000	-75050.910000	-59968.035000	-23319.315000	-9515.295000	-78192.270000	-214.605000	-5314.995000	10.661093	12.361791	14.920189	10.763211	5.148922	1.429952	-2.333496	8.008149	-3.341940	1.983800	-0.595140	-0.809019	0.075317	0.563414	-1.000000	-1.000000	-1.000000	-1.000000	-1.000000	-1.000000	-1.000000	65.000000	0.000000	-1.000000	-1.000000	269179.000000	1775713461.689874
-42456.555000	-75053.340000	-59970.465000	-23323.905000	-9516.240000	-78195.960000	-218.295000	-5315.580000	7.803593	10.210896	13.471085	9.605734	3.479227	9.989624	-4.021677	5.732735	-3.341940	1.983800	-0.595140	-0.809019	0.075317	0.563414	-1.000000	-1.000000	-1.000000	-1.000000	-1.000000	-1.000000	-1.000000	65.000000	0.000000	-1.000000	-1.000000	269180.000000	1775713461.689900
-42455.655000	-75053.970000	-59972.805000	-23324.580000	-9512.415000	-78214.680000	-216.765000	-5313.510000	2.346628	4.558441	7.074128	4.543181	-0.009812	10.405492	-4.438435	1.660346	0.152600	1.907500	-1.785420	-0.809202	0.074890	0.564024	-1.000000	-1.000000	-1.000000	-1.000000	-1.000000	-1.000000	-1.000000	65.000000	0.000000	-1.000000	-1.000000	269181.000000	1775713461.690181
-42453.720000	-75049.290000	-59966.865000	-23318.865000	-9508.005000	-78186.690000	-211.815000	-5312.070000	-2.717136	-1.492374	-0.524274	-0.885166	-1.793047	2.757202	-3.139693	-1.967089	0.152600	1.907500	-1.785420	-0.809202	0.074890	0.564024	-1.000000	-1.000000	-1.000000	-1.000000	-1.000000	-1.000000	-1.000000	65.000000	0.000000	-1.000000	-1.000000	269182.000000	1775713461.690197
-42453.630000	-75048.975000	-59962.860000	-23312.970000	-9501.525000	-78194.970000	-211.455000	-5311.845000	-5.433697	-5.352422	-5.796688	-3.731716	-0.481327	-6.260617	-0.344965	-3.869717	0.152600	1.907500	-1.785420	-0.809202	0.074890	0.564024	-1.000000	-1.000000	-1.000000	-1.000000	-1.000000	-1.000000	-1.000000	65.000000	0.000000	-1.000000	-1.000000	269183.000000	1775713461.692059
-42454.710000	-75048.750000	-59965.065000	-23315.940000	-9502.200000	-78208.200000	-217.755000	-5315.490000	-5.502661	-6.124109	-7.184772	-3.324718	2.530954	-10.866662	2.571032	-4.040038	0.152600	1.907500	-1.785420	-0.809202	0.074890	0.564024	-1.000000	-1.000000	-1.000000	-1.000000	-1.000000	-1.000000	-1.000000	65.000000	0.000000	-1.000000	-1.000000	269184.000000	1775713461.692074
-42454.845000	-75047.490000	-59964.840000	-23319.675000	-9506.790000	-78215.040000	-221.310000	-5317.740000	-3.897925	-4.660597	-5.704537	-1.472435	4.507399	-10.860329	3.764859	-3.306881	0.152600	1.907500	-1.785420	-0.809202	0.074890	0.564024	-1.000000	-1.000000	-1.000000	-1.000000	-1.000000	-1.000000	-1.000000	65.000000	0.000000	-1.000000	-1.000000	269185.000000	1775713461.699081
-42452.325000	-75046.995000	-59963.175000	-23316.570000	-9503.145000	-78211.395000	-215.640000	-5312.565000	-1.780216	-2.386135	-3.335005	-0.356635	3.654105	-8.165710	2.774269	-2.273415	0.152600	1.907500	-1.785420	-0.809202	0.074890	0.564024	-1.000000	-1.000000	-1.000000	-1.000000	-1.000000	-1.000000	-1.000000	65.000000	0.000000	-1.000000	-1.000000	269186.000000	1775713461.699105
-42455.700000	-75052.890000	-59969.700000	-23320.080000	-9503.280000	-78211.395000	-214.155000	-5312.160000	0.090423	-0.494230	-1.419136	-0.512357	0.609452	-3.604103	1.040671	-0.861687	0.152600	1.907500	-1.785420	-0.809202	0.074890	0.564024	-1.000000	-1.000000	-1.000000	-1.000000	-1.000000	-1.000000	-1.000000	65.000000	0.000000	-1.000000	-1.000000	269187.000000	1775713461.701105
-42461.865000	-75059.955000	-59975.730000	-23326.245000	-9509.670000	-78219.720000	-216.585000	-5314.905000	1.108676	0.183716	-0.612052	-1.326349	-2.665444	1.870911	0.028934	0.814295	0.152600	1.907500	-1.785420	-0.809202	0.074890	0.564024	-1.000000	-1.000000	-1.000000	-1.000000	-1.000000	-1.000000	-1.000000	65.000000	0.000000	-1.000000	-1.000000	269188.000000	1775713461.701125
-42460.695000	-75058.380000	-59971.905000	-23322.780000	-9508.320000	-78234.345000	-213.840000	-5309.820000	0.981064	-0.335158	-0.760224	-2.097894	-4.780472	5.973069	-0.173292	2.067035	0.152600	1.907500	-1.785420	-0.809202	0.074890	0.564024	-1.000000	-1.000000	-1.000000	-1.000000	-1.000000	-1.000000	-1.000000	65.000000	0.000000	-1.000000	-1.000000	269189.000000	1775713461.729315
-42460.335000	-75057.705000	-59972.580000	-23324.265000	-9511.695000	-78254.775000	-217.890000	-5309.865000	0.323400	-0.886238	-0.750302	-2.068478	-5.159628	6.446815	-0.175057	2.500510	0.152600	1.907500	-1.785420	-0.809202	0.074890	0.564024	-1.000000	-1.000000	-1.000000	-1.000000	-1.000000	-1.000000	-1.000000	65.000000	0.000000	-1.000000	-1.000000	269190.000000	1775713461.729344
-42453.765000	-75048.615000	-59966.370000	-23318.505000	-9507.645000	-78259.770000	-216.315000	-5307.345000	0.243894	-0.143561	0.372562	-0.797334	-3.758366	3.343460	-0.399101	2.237988	-1.526000	1.220800	-0.595140	-0.811827	0.073181	0.562682	-1.000000	-1.000000	-1.000000	-1.000000	-1.000000	-1.000000	-1.000000	65.000000	0.000000	-1.000000	-1.000000	269191.000000	1775713461.729373
-42453.765000	-75049.020000	-59966.865000	-23321.475000	-9506.835000	-78211.530000	-217.665000	-5308.830000	1.190390	2.027001	2.362975	1.250020	-1.086011	0.468324	-0.815347	1.451658	-1.526000	1.220800	-0.595140	-0.811827	0.073181	0.562682	-1.000000	-1.000000	-1.000000	-1.000000	-1.000000	-1.000000	-1.000000	65.000000	0.000000	-1.000000	-1.000000	269192.000000	1775713461.729385
-42452.640000	-75045.465000	-59961.465000	-23315.760000	-9493.695000	-78157.350000	-211.815000	-5304.915000	2.434844	4.269543	4.071175	2.973790	2.056673	3.542071	-0.983630	0.352823	-1.526000	1.220800	-0.595140	-0.811827	0.073181	0.562682	-1.000000	-1.000000	-1.000000	-1.000000	-1.000000	-1.000000	-1.000000	65.000000	0.000000	-1.000000	-1.000000	269193.000000	1775713461.729402
-42454.665000	-75049.515000	-59965.380000	-23318.910000	-9500.580000	-78208.110000	-208.935000	-5301.585000	2.751991	4.830484	4.370262	3.481432	4.666280	12.139623	-0.457918	-0.596408	-1.526000	1.220800	-0.595140	-0.811827	0.073181	0.562682	-1.000000	-1.000000	-1.000000	-1.000000	-1.000000	-1.000000	-1.000000	65.000000	0.000000	-1.000000	-1.000000	269194.000000	1775713461.729413
-42454.575000	-75051.945000	-59972.355000	-23328.495000	-9517.680000	-78273.405000	-212.310000	-5300.505000	1.595311	2.961266	2.702081	2.362033	5.056443	15.043659	0.550194	-0.962926	-1.526000	1.220800	-0.595140	-0.811827	0.073181	0.562682	-1.000000	-1.000000	-1.000000	-1.000000	-1.000000	-1.000000	-1.000000	65.000000	0.000000	-1.000000	-1.000000	269195.000000	1775713461.729426
-42457.545000	-75052.575000	-59972.355000	-23327.505000	-9511.920000	-78226.425000	-216.180000	-5305.230000	-0.508125	-0.528250	-0.545395	-0.206744	2.127331	3.808220	1.029903	-0.940586	-1.526000	1.220800	-0.595140	-0.811827	0.073181	0.562682	-1.000000	-1.000000	-1.000000	-1.000000	-1.000000	-1.000000	-1.000000	65.000000	0.000000	-1.000000	-1.000000	269196.000000	1775713461.729438
-42460.605000	-75055.545000	-59974.200000	-23327.730000	-9503.865000	-78200.550000	-210.870000	-5307.930000	-2.539548	-3.799192	-3.761276	-2.877016	-2.089190	-12.497907	0.384474	-1.189456	-1.526000	1.220800	-0.595140	-0.811827	0.073181	0.562682	-1.000000	-1.000000	-1.000000	-1.000000	-1.000000	-1.000000	-1.000000	65.000000	0.000000	-1.000000	-1.000000	269197.000000	1775713461.729453
-42455.340000	-75048.120000	-59967.090000	-23321.835000	-9497.790000	-78215.400000	-205.200000	-5302.890000	-3.540476	-5.145927	-4.996768	-3.773918	-3.889907	-18.802238	-0.546703	-1.767908	-1.526000	1.220800	-0.595140	-0.811827	0.073181	0.562682	-1.000000	-1.000000	-1.000000	-1.000000	-1.000000	-1.000000	-1.000000	65.000000	0.000000	-1.000000	-1.000000	269198.000000	1775713461.729463
-42452.505000	-75042.315000	-59961.915000	-23317.740000	-9493.425000	-78208.875000	-209.250000	-5303.655000	-2.830600	-3.794626	-3.369320	-2.147858	-2.034911	-12.739524	-0.676287	-1.844599	-1.526000	1.220800	-0.595140	-0.811827	0.073181	0.562682	-1.000000	-1.000000	-1.000000	-1.000000	-1.000000	-1.000000	-1.000000	65.000000	0.000000	-1.000000	-1.000000	269199.000000	1775713461.729477
-42453.945000	-75044.790000	-59964.525000	-23319.360000	-9499.320000	-78232.455000	-215.550000	-5304.420000	-0.651834	-0.496789	0.143178	0.918155	1.311837	-2.735713	-0.338255	-0.938740	-1.526000	1.220800	-0.595140	-0.811827	0.073181	0.562682	-1.000000	-1.000000	-1.000000	-1.000000	-1.000000	-1.000000	-1.000000	65.000000	0.000000	-1.000000	-1.000000	269200.000000	1775713461.729488
-42456.555000	-75048.030000	-59968.080000	-23324.760000	-9504.180000	-78211.170000	-219.330000	-5306.670000	1.558566	2.494196	3.089704	3.171498	2.957436	3.698985	-0.625712	0.356526	-0.915600	2.319520	-2.197440	-0.810911	0.074341	0.563414	-1.000000	-1.000000	-1.000000	-1.000000	-1.000000	-1.000000	-1.000000	65.000000	0.000000	-1.000000	-1.000000	269201.000000	1775713461.729502
-42453.765000	-75045.465000	-59967.225000	-23325.030000	-9506.970000	-78192.495000	-213.120000	-5302.170000	2.429804	3.264127	3.553916	2.989300	1.515775	5.741694	-1.478286	1.273130	-0.915600	2.319520	-2.197440	-0.810911	0.074341	0.563414	-1.000000	-1.000000	-1.000000	-1.000000	-1.000000	-1.000000	-1.000000	65.000000	0.000000	-1.000000	-1.000000	269202.000000	1775713461.729514
-42455.340000	-75047.490000	-59969.745000	-23327.370000	-9512.325000	-78230.295000	-209.295000	-5302.755000	1.874966	1.907915	1.743117	0.769690	-1.714793	5.760542	-1.538923	1.680686	-0.915600	2.319520	-2.197440	-0.810911	0.074341	0.563414	-1.000000	-1.000000	-1.000000	-1.000000	-1.000000	-1.000000	-1.000000	65.000000	0.000000	-1.000000	-1.000000	269203.000000	1775713461.732166
-42464.430000	-75056.220000	-59976.990000	-23331.960000	-9512.730000	-78218.595000	-212.625000	-5310.855000	0.508730	-0.315619	-0.847561	-1.786572	-4.317103	3.731788	-0.109699	1.562810	-0.915600	2.319520	-2.197440	-0.810911	0.074341	0.563414	-1.000000	-1.000000	-1.000000	-1.000000	-1.000000	-1.000000	-1.000000	65.000000	0.000000	-1.000000	-1.000000	269204.000000	1775713461.732191
-42465.870000	-75056.265000	-59975.370000	-23330.385000	-9510.165000	-78213.690000	-217.665000	-5313.015000	-1.206645	-2.366786	-2.868558	-3.226124	-4.540481	-0.105975	1.643036	0.615182	-0.915600	2.319520	-2.197440	-0.810911	0.074341	0.563414	-1.000000	-1.000000	-1.000000	-1.000000	-1.000000	-1.000000	-1.000000	65.000000	0.000000	-1.000000	-1.000000	269205.000000	1775713461.743356
-42462.945000	-75055.860000	-59977.890000	-23335.785000	-9520.245000	-78235.290000	-218.745000	-5309.235000	-2.493745	-3.332934	-3.404270	-2.993701	-2.324424	-3.175945	2.102234	-0.809848	-0.915600	2.319520	-2.197440	-0.810911	0.074341	0.563414	-1.000000	-1.000000	-1.000000	-1.000000	-1.000000	-1.000000	-1.000000	65.000000	0.000000	-1.000000	-1.000000	269206.000000	1775713461.743385
-42467.040000	-75062.610000	-59986.350000	-23342.175000	-9520.875000	-78220.710000	-218.835000	-5311.890000	-2.361127	-2.641661	-2.368319	-1.605980	0.663137	-4.118796	1.096527	-1.536576	-0.915600	2.319520	-2.197440	-0.810911	0.074341	0.563414	-1.000000	-1.000000	-1.000000	-1.000000	-1.000000	-1.000000	-1.000000	65.000000	0.000000	-1.000000	-1.000000	269207.000000	1775713461.743414
-42462.495000	-75058.155000	-59981.805000	-23338.305000	-9516.510000	-78217.695000	-217.215000	-5307.480000	-0.754904	-0.738005	-0.604173	-0.044878	2.819525	-2.816865	-0.202672	-0.935577	-0.915600	2.319520	-2.197440	-0.810911	0.074341	0.563414	-1.000000	-1.000000	-1.000000	-1.000000	-1.000000	-1.000000	-1.000000	65.000000	0.000000	-1.000000	-1.000000	269208.000000	1775713461.743428
-42455.655000	-75050.595000	-59974.065000	-23330.295000	-9507.015000	-78202.800000	-212.940000	-5299.830000	1.557504	1.631816	1.360889	1.496291	4.103860	0.719710	-0.621146	0.680152	-0.915600	2.319520	-2.197440	-0.810911	0.074341	0.563414	-1.000000	-1.000000	-1.000000	-1.000000	-1.000000	-1.000000	-1.000000	65.000000	0.000000	-1.000000	-1.000000	269209.000000	1775713461.745078
-42455.295000	-75046.500000	-59970.015000	-23327.910000	-9507.150000	-78206.715000	-214.020000	-5300.640000	3.685797	4.003713	3.549236	3.311819	4.995148	4.998730	0.065740	2.531480	-0.915600	2.319520	-2.197440	-0.810911	0.074341	0.563414	-1.000000	-1.000000	-1.000000	-1.000000	-1.000000	-1.000000	-1.000000	65.000000	0.000000	-1.000000	-1.000000	269210.000000	1775713461.745108
-42457.905000	-75048.030000	-59972.130000	-23330.340000	-9513.495000	-78244.020000	-215.505000	-5302.305000	4.509841	5.487060	5.240141	4.743277	4.899223	6.527219	1.017379	3.400718	-3.219860	2.441600	-0.991900	-0.810118	0.074646	0.564085	-1.000000	-1.000000	-1.000000	-1.000000	-1.000000	-1.000000	-1.000000	65.000000	0.000000	-1.000000	-1.000000	269211.000000	1775713461.748295
-42460.920000	-75051.315000	-59974.695000	-23330.880000	-9509.175000	-78231.870000	-212.760000	-5302.890000	3.145025	4.834724	4.992244	4.419135	2.861466	2.672837	1.242276	2.346080	-3.219860	2.441600	-0.991900	-0.810118	0.074646	0.564085	-1.000000	-1.000000	-1.000000	-1.000000	-1.000000	-1.000000	-1.000000	65.000000	0.000000	-1.000000	-1.000000	269212.000000	1775713461.748320
-42464.250000	-75052.215000	-59972.445000	-23328.585000	-9505.305000	-78219.090000	-208.035000	-5301.900000	-0.036719	1.785550	2.344413	2.015784	-0.470948	-3.682329	0.712553	-0.186540	-3.219860	2.441600	-0.991900	-0.810118	0.074646	0.564085	-1.000000	-1.000000	-1.000000	-1.000000	-1.000000	-1.000000	-1.000000	65.000000	0.000000	-1.000000	-1.000000	269213.000000	1775713461.767919
-42469.875000	-75055.230000	-59973.570000	-23333.355000	-9517.860000	-78233.130000	-206.730000	-5299.380000	-3.508700	-2.291577	-1.365150	-1.267503	-3.415653	-6.686697	0.124456	-2.622563	-3.219860	2.441600	-0.991900	-0.810118	0.074646	0.564085	-1.000000	-1.000000	-1.000000	-1.000000	-1.000000	-1.000000	-1.000000	65.000000	0.000000	-1.000000	-1.000000	269214.000000	1775713461.767946
-42471.765000	-75048.165000	-59965.875000	-23329.575000	-9520.605000	-78242.040000	-208.395000	-5298.165000	-5.647050	-5.235804	-4.073981	-3.878996	-5.282407	-5.039355	-0.226747	-3.579641	-3.219860	2.441600	-0.991900	-0.810118	0.074646	0.564085	-1.000000	-1.000000	-1.000000	-1.000000	-1.000000	-1.000000	-1.000000	65.000000	0.000000	-1.000000	-1.000000	269215.000000	1775713461.767974
-42456.195000	-75031.155000	-59947.605000	-23314.860000	-9498.870000	-78226.695000	-214.380000	-5295.195000	-5.215807	-5.181062	-4.170102	-4.503531	-5.567918	-1.521580	-0.760393	-2.788485	-3.219860	2.441600	-0.991900	-0.810118	0.074646	0.564085	-1.000000	-1.000000	-1.000000	-1.000000	-1.000000	-1.000000	-1.000000	65.000000	0.000000	-1.000000	-1.000000	269216.000000	1775713461.767986
-42439.905000	-75027.465000	-59945.895000	-23309.820000	-9489.420000	-78246.315000	-217.710000	-5290.380000	-1.525720	-1.776066	-1.443527	-2.468387	-2.962424	1.751802	-1.848250	-0.919310	-3.219860	2.441600	-0.991900	-0.810118	0.074646	0.564085	-1.000000	-1.000000	-1.000000	-1.000000	-1.000000	-1.000000	-1.000000	65.000000	0.000000	-1.000000	-1.000000	269217.000000	1775713461.768043
-42440.355000	-75044.520000	-59979.870000	-23338.035000	-9527.490000	-78319.035000	-213.075000	-5291.055000	4.210466	2.417531	1.392036	0.511715	1.399419	2.198677	-2.931786	1.017574	-3.219860	2.441600	-0.991900	-0.810118	0.074646	0.564085	-1.000000	-1.000000	-1.000000	-1.000000	-1.000000	-1.000000	-1.000000	65.000000	0.000000	-1.000000	-1.000000	269218.000000	1775713461.768054
-42471.000000	-75066.075000	-60003.495000	-23354.640000	-9514.665000	-78196.050000	-212.355000	-5309.640000	7.796801	3.127072	0.000643	0.672599	3.250550	-0.603208	-2.785000	1.696947	-3.219860	2.441600	-0.991900	-0.810118	0.074646	0.564085	-1.000000	-1.000000	-1.000000	-1.000000	-1.000000	-1.000000	-1.000000	65.000000	0.000000	-1.000000	-1.000000	269219.000000	1775713461.768071
-42471.045000	-75060.045000	-59990.580000	-23341.905000	-9493.785000	-78170.805000	-214.020000	-5308.425000	5.206708	-0.972756	-5.732130	-2.826486	1.658899	1.004502	-1.029795	0.147280	-3.219860	2.441600	-0.991900	-0.810118	0.074646	0.564085	-1.000000	-1.000000	-1.000000	-1.000000	-1.000000	-1.000000	-1.000000	65.000000	0.000000	-1.000000	-1.000000	269220.000000	1775713461.768081
-42462.045000	-75050.505000	-59981.715000	-23342.220000	-9515.745000	-78212.160000	-210.240000	-5297.670000	-1.956218	-5.765424	-9.656970	-5.716609	0.076750	10.679459	1.318393	-2.297545	-1.403920	2.121140	0.381500	-0.810484	0.073486	0.563963	-1.000000	-1.000000	-1.000000	-1.000000	-1.000000	-1.000000	-1.000000	65.000000	0.000000	-1.000000	-1.000000	269221.000000	1775713461.768094
-42464.565000	-75051.000000	-59978.070000	-23344.470000	-9524.430000	-78210.180000	-212.715000	-5298.390000	-7.470154	-6.084652	-6.354824	-4.134188	-0.409925	17.465578	2.979547	-2.735793	-1.403920	2.121140	0.381500	-0.810484	0.073486	0.563963	-1.000000	-1.000000	-1.000000	-1.000000	-1.000000	-1.000000	-1.000000	65.000000	0.000000	-1.000000	-1.000000	269222.000000	1775713461.768105
-42461.100000	-75044.970000	-59974.065000	-23342.445000	-9519.300000	-78181.605000	-208.575000	-5294.340000	-7.415907	-1.354599	2.644782	0.968082	-1.269766	11.987259	3.317608	-0.328749	-1.403920	2.121140	0.381500	-0.810484	0.073486	0.563963	-1.000000	-1.000000	-1.000000	-1.000000	-1.000000	-1.000000	-1.000000	65.000000	0.000000	-1.000000	-1.000000	269223.000000	1775713461.779605
-42455.700000	-75040.785000	-59976.135000	-23343.660000	-9516.555000	-78201.315000	-209.295000	-5291.730000	-2.834604	4.879457	11.160266	6.020604	-2.016439	-1.376536	2.475293	3.001011	-1.403920	2.121140	0.381500	-0.810484	0.073486	0.563963	-1.000000	-1.000000	-1.000000	-1.000000	-1.000000	-1.000000	-1.000000	65.000000	0.000000	-1.000000	-1.000000	269224.000000	1775713461.779630
-42452.370000	-75040.830000	-59975.190000	-23341.230000	-9511.740000	-78210.990000	-210.150000	-5290.515000	2.931499	8.773432	14.057413	8.308794	-1.044187	-14.006385	1.007390	4.970349	-1.403920	2.121140	0.381500	-0.810484	0.073486	0.563963	-1.000000	-1.000000	-1.000000	-1.000000	-1.000000	-1.000000	-1.000000	65.000000	0.000000	-1.000000	-1.000000	269225.000000	1775713461.779658
-42453.630000	-75042.630000	-59975.190000	-23341.680000	-9508.455000	-78207.120000	-211.545000	-5293.080000	6.728864	8.377422	10.413057	7.215809	1.588539	-21.005262	-0.599128	4.468335	-1.403920	2.121140	0.381500	-0.810484	0.073486	0.563963	-1.000000	-1.000000	-1.000000	-1.000000	-1.000000	-1.000000	-1.000000	65.000000	0.000000	-1.000000	-1.000000	269226.000000	1775713461.779670
-42457.410000	-75042.720000	-59973.840000	-23341.410000	-9509.220000	-78219.900000	-216.585000	-5295.915000	6.791557	4.183298	3.062721	3.807516	4.153373	-20.474818	-1.999021	1.742509	-1.403920	2.121140	0.381500	-0.810484	0.073486	0.563963	-1.000000	-1.000000	-1.000000	-1.000000	-1.000000	-1.000000	-1.000000	65.000000	0.000000	-1.000000	-1.000000	269227.000000	1775713461.789583
-42453.225000	-75035.745000	-59966.370000	-23335.065000	-9505.980000	-78225.705000	-216.135000	-5291.865000	3.502919	-1.278088	-3.882840	-0.105934	4.858583	-13.488957	-2.881927	-1.770993	-1.403920	2.121140	0.381500	-0.810484	0.073486	0.563963	-1.000000	-1.000000	-1.000000	-1.000000	-1.000000	-1.000000	-1.000000	65.000000	0.000000	-1.000000	-1.000000	269228.000000	1775713461.789610
-42459.120000	-75040.380000	-59970.105000	-23340.105000	-9512.145000	-78226.110000	-218.115000	-5296.410000	-0.953349	-5.149176	-7.547104	-2.941278	3.158422	-3.583260	-2.891625	-4.214241	-1.403920	2.121140	0.381500	-0.810484	0.073486	0.563963	-1.000000	-1.000000	-1.000000	-1.000000	-1.000000	-1.000000	-1.000000	65.000000	0.000000	-1.000000	-1.000000	269229.000000	1775713461.789639
-42466.995000	-75050.730000	-59980.365000	-23347.665000	-9517.365000	-78199.425000	-211.545000	-5298.615000	-4.482428	-6.459878	-7.838060	-4.387140	-0.257138	6.280077	-1.754495	-4.691221	-1.403920	2.121140	0.381500	-0.810484	0.073486	0.563963	-1.000000	-1.000000	-1.000000	-1.000000	-1.000000	-1.000000	-1.000000	65.000000	0.000000	-1.000000	-1.000000	269230.000000	1775713461.789651
-42464.520000	-75049.470000	-59979.600000	-23344.920000	-9511.425000	-78194.070000	-210.690000	-5294.925000	-6.127738	-6.079380	-6.526673	-4.988167	-3.812863	14.660014	0.382077	-3.508496	-1.144500	1.922760	-0.076300	-0.809995	0.072265	0.564574	-1.000000	-1.000000	-1.000000	-1.000000	-1.000000	-1.000000	-1.000000	65.000000	0.000000	-1.000000	-1.000000	269231.000000	1775713461.789665
-42463.395000	-75045.105000	-59975.685000	-23342.130000	-9510.390000	-78216.660000	-212.805000	-5295.960000	-5.418363	-4.532271	-4.603580	-4.614040	-5.465558	19.071527	2.594587	-1.301022	-1.144500	1.922760	-0.076300	-0.809995	0.072265	0.564574	-1.000000	-1.000000	-1.000000	-1.000000	-1.000000	-1.000000	-1.000000	65.000000	0.000000	-1.000000	-1.000000	269232.000000	1775713461.789675
-42458.490000	-75039.030000	-59969.925000	-23338.080000	-9508.770000	-78229.890000	-206.730000	-5290.245000	-2.399391	-1.534425	-1.738808	-2.692609	-4.251145	15.895277	3.651164	1.211518	-1.144500	1.922760	-0.076300	-0.809995	0.072265	0.564574	-1.000000	-1.000000	-1.000000	-1.000000	-1.000000	-1.000000	-1.000000	65.000000	0.000000	-1.000000	-1.000000	269233.000000	1775713461.792755
-42458.805000	-75039.300000	-59968.665000	-23337.000000	-9508.680000	-78221.655000	-208.395000	-5290.830000	1.717977	2.417674	1.956231	0.385184	-1.221721	5.563155	3.160198	3.210490	-1.144500	1.922760	-0.076300	-0.809995	0.072265	0.564574	-1.000000	-1.000000	-1.000000	-1.000000	-1.000000	-1.000000	-1.000000	65.000000	0.000000	-1.000000	-1.000000	269234.000000	1775713461.792780
-42460.515000	-75042.720000	-59972.805000	-23339.970000	-9511.785000	-78222.780000	-209.160000	-5291.055000	4.897902	5.464977	5.002855	3.090667	1.601913	-5.611940	1.553756	3.955852	-1.144500	1.922760	-0.076300	-0.809995	0.072265	0.564574	-1.000000	-1.000000	-1.000000	-1.000000	-1.000000	-1.000000	-1.000000	65.000000	0.000000	-1.000000	-1.000000	269235.000000	1775713461.797220
-42456.150000	-75040.875000	-59972.220000	-23339.115000	-9512.865000	-78225.705000	-205.560000	-5285.835000	5.646240	5.871840	5.688727	3.939215	2.738184	-11.337212	-0.470575	3.192004	-1.144500	1.922760	-0.076300	-0.809995	0.072265	0.564574	-1.000000	-1.000000	-1.000000	-1.000000	-1.000000	-1.000000	-1.000000	65.000000	0.000000	-1.000000	-1.000000	269236.000000	1775713461.797248
-42457.635000	-75042.135000	-59974.515000	-23343.345000	-9521.100000	-78240.105000	-211.095000	-5289.840000	4.073048	3.685330	3.769314	2.681332	1.933896	-10.611166	-2.121288	1.444295	-1.144500	1.922760	-0.076300	-0.809995	0.072265	0.564574	-1.000000	-1.000000	-1.000000	-1.000000	-1.000000	-1.000000	-1.000000	65.000000	0.000000	-1.000000	-1.000000	269237.000000	1775713461.805429
-42456.330000	-75040.380000	-59972.400000	-23342.670000	-9525.240000	-78243.840000	-209.565000	-5288.130000	1.374975	0.488921	0.646483	0.303661	-0.084677	-6.553306	-2.960005	-0.532983	-1.144500	1.922760	-0.076300	-0.809995	0.072265	0.564574	-1.000000	-1.000000	-1.000000	-1.000000	-1.000000	-1.000000	-1.000000	65.000000	0.000000	-1.000000	-1.000000	269238.000000	1775713461.805454
-42454.620000	-75037.050000	-59967.720000	-23337.540000	-9518.220000	-78227.505000	-207.315000	-5285.610000	-1.176571	-1.961573	-1.783985	-1.669818	-1.890940	-1.897622	-2.861510	-2.078938	-1.144500	1.922760	-0.076300	-0.809995	0.072265	0.564574	-1.000000	-1.000000	-1.000000	-1.000000	-1.000000	-1.000000	-1.000000	65.000000	0.000000	-1.000000	-1.000000	269239.000000	1775713461.805483
-42451.290000	-75027.375000	-59960.340000	-23329.665000	-9499.320000	-78195.555000	-210.240000	-5284.305000	-2.636065	-2.561980	-2.251222	-1.918368	-1.586431	3.392789	-1.829754	-2.588528	-1.144500	1.922760	-0.076300	-0.809995	0.072265	0.564574	-1.000000	-1.000000	-1.000000	-1.000000	-1.000000	-1.000000	-1.000000	65.000000	0.000000	-1.000000	-1.000000	269240.000000	1775713461.805495
-42445.530000	-75022.470000	-59955.660000	-23323.275000	-9483.480000	-78200.730000	-213.570000	-5278.815000	-2.602506	-1.232915	-0.800086	-0.226352	1.811526	9.407685	-0.428955	-1.902676	-0.717220	2.456860	0.610400	-0.810728	0.070556	0.562743	-1.000000	-1.000000	-1.000000	-1.000000	-1.000000	-1.000000	-1.000000	65.000000	0.000000	-1.000000	-1.000000	269241.000000	1775713461.809916
-42438.780000	-75016.440000	-59944.905000	-23308.830000	-9464.085000	-78199.245000	-216.405000	-5274.180000	-1.297583	0.939905	1.385765	2.363590	6.852542	12.943181	0.484577	-0.399350	-0.717220	2.456860	0.610400	-0.810728	0.070556	0.562743	-1.000000	-1.000000	-1.000000	-1.000000	-1.000000	-1.000000	-1.000000	65.000000	0.000000	-1.000000	-1.000000	269242.000000	1775713461.809942
-42438.555000	-75019.095000	-59951.115000	-23317.830000	-9484.830000	-78195.780000	-206.055000	-5271.705000	0.447307	2.259853	2.752411	4.131433	9.746150	10.371595	0.846515	1.205862	-0.717220	2.456860	0.610400	-0.810728	0.070556	0.562743	-1.000000	-1.000000	-1.000000	-1.000000	-1.000000	-1.000000	-1.000000	65.000000	0.000000	-1.000000	-1.000000	269243.000000	1775713461.812776
-42460.830000	-75043.845000	-59982.840000	-23351.040000	-9523.305000	-78247.170000	-201.915000	-5287.680000	1.012213	1.102453	1.457646	2.727110	6.026789	1.502318	1.501683	1.740599	-0.717220	2.456860	0.610400	-0.810728	0.070556	0.562743	-1.000000	-1.000000	-1.000000	-1.000000	-1.000000	-1.000000	-1.000000	65.000000	0.000000	-1.000000	-1.000000	269244.000000	1775713461.812804
-42472.170000	-75052.215000	-59992.110000	-23358.780000	-9523.845000	-78262.245000	-209.070000	-5298.120000	-1.180225	-3.096953	-3.521664	-3.134735	-4.997261	-11.062961	2.583709	0.009130	-0.717220	2.456860	0.610400	-0.810728	0.070556	0.562743	-1.000000	-1.000000	-1.000000	-1.000000	-1.000000	-1.000000	-1.000000	65.000000	0.000000	-1.000000	-1.000000	269245.000000	1775713461.815974
-42462.990000	-75040.830000	-59978.295000	-23344.425000	-9507.510000	-78247.845000	-208.845000	-5289.975000	-5.048845	-7.880491	-9.322552	-10.070062	-16.408262	-21.415663	2.802551	-3.291356	-0.717220	2.456860	0.610400	-0.810728	0.070556	0.562743	-1.000000	-1.000000	-1.000000	-1.000000	-1.000000	-1.000000	-1.000000	65.000000	0.000000	-1.000000	-1.000000	269246.000000	1775713461.815995
-42462.315000	-75042.810000	-59980.680000	-23346.900000	-9509.760000	-78199.020000	-207.225000	-5288.715000	-6.670838	-8.760470	-10.372948	-11.757500	-18.935114	-21.027195	1.387886	-5.105148	-0.717220	2.456860	0.610400	-0.810728	0.070556	0.562743	-1.000000	-1.000000	-1.000000	-1.000000	-1.000000	-1.000000	-1.000000	65.000000	0.000000	-1.000000	-1.000000	269247.000000	1775713461.821739
-42464.115000	-75044.385000	-59982.615000	-23350.860000	-9515.340000	-78202.755000	-204.705000	-5290.515000	-3.702570	-4.169375	-4.756495	-6.092646	-10.704462	-6.794286	-0.674918	-3.333100	-0.717220	2.456860	0.610400	-0.810728	0.070556	0.562743	-1.000000	-1.000000	-1.000000	-1.000000	-1.000000	-1.000000	-1.000000	65.000000	0.000000	-1.000000	-1.000000	269248.000000	1775713461.821764
-42465.285000	-75043.170000	-59983.785000	-23358.195000	-9535.905000	-78195.375000	-206.730000	-5292.180000	1.959637	2.884381	3.735101	2.697469	1.544393	12.909940	-2.003823	0.751875	-0.717220	2.456860	0.610400	-0.810728	0.070556	0.562743	-1.000000	-1.000000	-1.000000	-1.000000	-1.000000	-1.000000	-1.000000	65.000000	0.000000	-1.000000	-1.000000	269249.000000	1775713461.824413
-42454.215000	-75023.190000	-59968.080000	-23351.895000	-9536.715000	-78210.720000	-209.970000	-5290.740000	6.849898	8.642552	10.263705	9.136273	9.819621	24.749593	-2.268909	4.335135	-0.717220	2.456860	0.610400	-0.810728	0.070556	0.562743	-1.000000	-1.000000	-1.000000	-1.000000	-1.000000	-1.000000	-1.000000	65.000000	0.000000	-1.000000	-1.000000	269250.000000	1775713461.824440
-42458.715000	-75030.975000	-59974.065000	-23353.155000	-9529.605000	-78210.180000	-206.280000	-5290.650000	8.962723	11.303007	12.598823	10.978213	11.565206	21.902590	-1.896135	5.703217	-1.022420	2.716280	-1.037680	-0.809568	0.070617	0.563719	-1.000000	-1.000000	-1.000000	-1.000000	-1.000000	-1.000000	-1.000000	65.000000	0.000000	-1.000000	-1.000000	269251.000000	1775713461.828825
-42464.520000	-75042.990000	-59983.290000	-23357.430000	-9527.265000	-78213.555000	-207.360000	-5290.200000	7.676315	9.825829	10.313069	8.906287	9.558824	7.996320	-1.129605	4.811759	-1.022420	2.716280	-1.037680	-0.809568	0.070617	0.563719	-1.000000	-1.000000	-1.000000	-1.000000	-1.000000	-1.000000	-1.000000	65.000000	0.000000	-1.000000	-1.000000	269252.000000	1775713461.828857
-42460.695000	-75040.695000	-59979.645000	-23354.415000	-9524.340000	-78215.130000	-206.595000	-5287.995000	3.457399	4.016623	4.156479	4.577730	7.028521	-7.568944	-0.096591	2.597115	-1.022420	2.716280	-1.037680	-0.809568	0.070617	0.563719	-1.000000	-1.000000	-1.000000	-1.000000	-1.000000	-1.000000	-1.000000	65.000000	0.000000	-1.000000	-1.000000	269253.000000	1775713461.832319
-42464.745000	-75044.115000	-59981.715000	-23355.180000	-9521.910000	-78214.320000	-209.430000	-5291.820000	-1.662050	-3.502488	-3.039001	-0.035387	4.886498	-16.799378	0.790287	0.154424	-1.022420	2.716280	-1.037680	-0.809568	0.070617	0.563719	-1.000000	-1.000000	-1.000000	-1.000000	-1.000000	-1.000000	-1.000000	65.000000	0.000000	-1.000000	-1.000000	269254.000000	1775713461.832343
-42470.640000	-75048.525000	-59986.665000	-23359.905000	-9526.455000	-78221.970000	-213.885000	-5296.140000	-5.409885	-8.789400	-7.909129	-3.361024	2.552986	-17.103501	1.020724	-1.923939	-1.022420	2.716280	-1.037680	-0.809568	0.070617	0.563719	-1.000000	-1.000000	-1.000000	-1.000000	-1.000000	-1.000000	-1.000000	65.000000	0.000000	-1.000000	-1.000000	269255.000000	1775713461.839016
-42467.220000	-75044.880000	-59982.570000	-23355.765000	-9523.035000	-78222.825000	-212.580000	-5292.270000	-6.745967	-9.728291	-8.967669	-4.882021	-0.473558	-10.902576	0.491791	-3.340305	-1.022420	2.716280	-1.037680	-0.809568	0.070617	0.563719	-1.000000	-1.000000	-1.000000	-1.000000	-1.000000	-1.000000	-1.000000	65.000000	0.000000	-1.000000	-1.000000	269256.000000	1775713461.839040
-42465.060000	-75042.270000	-59979.600000	-23353.425000	-9520.785000	-78223.635000	-213.840000	-5289.930000	-5.507803	-6.547299	-6.539903	-4.594399	-3.585231	-2.558414	-0.217113	-3.516248	-1.022420	2.716280	-1.037680	-0.809568	0.070617	0.563719	-1.000000	-1.000000	-1.000000	-1.000000	-1.000000	-1.000000	-1.000000	65.000000	0.000000	-1.000000	-1.000000	269257.000000	1775713461.840502
-42460.695000	-75034.800000	-59972.670000	-23349.150000	-9517.635000	-78220.710000	-213.705000	-5288.175000	-2.211555	-0.994639	-1.955888	-2.760662	-5.452751	4.532176	-0.412070	-2.145488	-1.022420	2.716280	-1.037680	-0.809568	0.070617	0.563719	-1.000000	-1.000000	-1.000000	-1.000000	-1.000000	-1.000000	-1.000000	65.000000	0.000000	-1.000000	-1.000000	269258.000000	1775713461.840528
-42457.815000	-75031.335000	-59969.250000	-23346.990000	-9514.575000	-78218.235000	-212.490000	-5287.050000	1.733163	4.475679	2.826124	-0.246006	-5.351075	8.750640	0.049481	0.053461	-1.022420	2.716280	-1.037680	-0.809568	0.070617	0.563719	-1.000000	-1.000000	-1.000000	-1.000000	-1.000000	-1.000000	-1.000000	65.000000	0.000000	-1.000000	-1.000000	269259.000000	1775713461.846090
-42464.250000	-75040.515000	-59978.070000	-23353.515000	-9520.155000	-78228.720000	-215.640000	-5290.380000	4.433879	7.420785	5.643786	1.590111	-3.813513	9.577258	0.774134	1.753736	-1.022420	2.716280	-1.037680	-0.809568	0.070617	0.563719	-1.000000	-1.000000	-1.000000	-1.000000	-1.000000	-1.000000	-1.000000	65.000000	0.000000	-1.000000	-1.000000	269260.000000	1775713461.846119
-42463.980000	-75040.830000	-59979.330000	-23353.695000	-9519.570000	-78227.415000	-211.410000	-5286.420000	4.485800	6.350029	5.008559	1.630975	-2.139814	7.113486	1.233599	2.071886	-2.350040	1.739640	0.747740	-0.810545	0.069458	0.562132	-1.000000	-1.000000	-1.000000	-1.000000	-1.000000	-1.000000	-1.000000	65.000000	0.000000	-1.000000	-1.000000	269261.000000	1775713461.856850
-42469.245000	-75046.815000	-59984.820000	-23359.050000	-9522.630000	-78221.745000	-208.215000	-5285.295000	2.051174	2.000123	1.411764	-0.016570	-1.174400	2.815018	1.323681	1.263330	-2.350040	1.739640	0.747740	-0.810545	0.069458	0.562132	-1.000000	-1.000000	-1.000000	-1.000000	-1.000000	-1.000000	-1.000000	65.000000	0.000000	-1.000000	-1.000000	269262.000000	1775713461.856875
-42475.140000	-75050.595000	-59982.525000	-23357.430000	-9523.620000	-78229.890000	-203.490000	-5284.530000	-1.330787	-3.017252	-2.731884	-2.023043	-0.785264	-0.967402	1.340320	0.226655	-2.350040	1.739640	0.747740	-0.810545	0.069458	0.562132	-1.000000	-1.000000	-1.000000	-1.000000	-1.000000	-1.000000	-1.000000	65.000000	0.000000	-1.000000	-1.000000	269263.000000	1775713461.856902
-42472.305000	-75045.555000	-59973.255000	-23350.230000	-9522.180000	-78264.405000	-204.120000	-5281.245000	-3.867261	-6.017747	-4.704497	-2.757101	-0.398363	-3.691150	1.312464	-0.437835	-2.350040	1.739640	0.747740	-0.810545	0.069458	0.562132	-1.000000	-1.000000	-1.000000	-1.000000	-1.000000	-1.000000	-1.000000	65.000000	0.000000	-1.000000	-1.000000	269264.000000	1775713461.856914
-42458.850000	-75028.320000	-59961.195000	-23338.395000	-9508.230000	-78236.775000	-204.615000	-5276.835000	-3.969854	-5.250119	-3.064511	-1.183147	0.667984	-5.992142	0.812778	-0.532344	-2.350040	1.739640	0.747740	-0.810545	0.069458	0.562132	-1.000000	-1.000000	-1.000000	-1.000000	-1.000000	-1.000000	-1.000000	65.000000	0.000000	-1.000000	-1.000000	269265.000000	1775713461.856929
-42466.995000	-75032.910000	-59972.220000	-23349.555000	-9516.780000	-78172.380000	-219.285000	-5287.455000	-1.257380	-0.915635	1.002590	1.943598	2.547315	-4.999961	-0.681214	-0.352004	-2.350040	1.739640	0.747740	-0.810545	0.069458	0.562132	-1.000000	-1.000000	-1.000000	-1.000000	-1.000000	-1.000000	-1.000000	65.000000	0.000000	-1.000000	-1.000000	269266.000000	1775713461.856941
-42474.780000	-75046.140000	-59983.290000	-23365.980000	-9551.745000	-78275.295000	-223.920000	-5295.735000	2.109669	3.758464	3.842181	3.691523	3.301550	1.063661	-3.222272	-0.846747	-2.350040	1.739640	0.747740	-0.810545	0.069458	0.562132	-1.000000	-1.000000	-1.000000	-1.000000	-1.000000	-1.000000	-1.000000	65.000000	0.000000	-1.000000	-1.000000	269267.000000	1775713461.861808
-42474.420000	-75058.920000	-59993.280000	-23371.380000	-9538.200000	-78230.700000	-216.495000	-5299.830000	3.259918	4.636791	2.578999	1.681702	0.721600	5.593379	-5.456108	-2.433448	-2.350040	1.739640	0.747740	-0.810545	0.069458	0.562132	-1.000000	-1.000000	-1.000000	-1.000000	-1.000000	-1.000000	-1.000000	65.000000	0.000000	-1.000000	-1.000000	269268.000000	1775713461.861837
-42466.230000	-75053.520000	-59999.310000	-23368.815000	-9524.340000	-78212.070000	-209.295000	-5290.875000	2.001612	1.082586	-1.874439	-2.637446	-2.980591	4.136616	-5.005880	-3.725000	-2.350040	1.739640	0.747740	-0.810545	0.069458	0.562132	-1.000000	-1.000000	-1.000000	-1.000000	-1.000000	-1.000000	-1.000000	65.000000	0.000000	-1.000000	-1.000000	269269.000000	1775713461.864160
-42459.930000	-75041.640000	-59992.695000	-23361.435000	-9515.025000	-78236.460000	-201.825000	-5281.470000	0.581826	-3.029691	-5.704492	-5.143402	-2.981482	1.048627	-1.019524	-2.564228	-2.350040	1.739640	0.747740	-0.810545	0.069458	0.562132	-1.000000	-1.000000	-1.000000	-1.000000	-1.000000	-1.000000	-1.000000	65.000000	0.000000	-1.000000	-1.000000	269270.000000	1775713461.864185
-42458.580000	-75035.385000	-59982.075000	-23354.280000	-9508.410000	-78242.715000	-208.215000	-5282.190000	0.559677	-3.438246	-5.361834	-3.230192	1.580820	-0.995405	4.275919	1.339769	-0.625660	1.892240	-0.885080	-0.810911	0.070617	0.562499	-1.000000	-1.000000	-1.000000	-1.000000	-1.000000	-1.000000	-1.000000	65.000000	0.000000	-1.000000	-1.000000	269271.000000	1775713461.885564
-42458.805000	-75037.815000	-59981.895000	-23354.820000	-9514.755000	-78260.805000	-202.455000	-5278.815000	1.285619	0.051461	-0.446362	1.879760	6.672752	-3.445591	7.328089	5.514627	-0.625660	1.892240	-0.885080	-0.810911	0.070617	0.562499	-1.000000	-1.000000	-1.000000	-1.000000	-1.000000	-1.000000	-1.000000	65.000000	0.000000	-1.000000	-1.000000	269272.000000	1775713461.885590
-42465.870000	-75044.520000	-59989.365000	-23362.695000	-9521.190000	-78206.715000	-202.725000	-5284.665000	1.118646	3.787175	5.565078	6.274209	7.652950	-5.273785	6.471418	6.961942	-0.625660	1.892240	-0.885080	-0.810911	0.070617	0.562499	-1.000000	-1.000000	-1.000000	-1.000000	-1.000000	-1.000000	-1.000000	65.000000	0.000000	-1.000000	-1.000000	269273.000000	1775713461.885617
-42471.765000	-75047.490000	-59993.010000	-23368.590000	-9534.285000	-78220.260000	-210.375000	-5289.570000	-0.783372	4.296844	8.186180	6.577563	3.085818	-2.939275	2.673084	4.570018	-0.625660	1.892240	-0.885080	-0.810911	0.070617	0.562499	-1.000000	-1.000000	-1.000000	-1.000000	-1.000000	-1.000000	-1.000000	65.000000	0.000000	-1.000000	-1.000000	269274.000000	1775713461.885630
-42466.590000	-75038.130000	-59984.640000	-23364.855000	-9535.230000	-78232.770000	-211.005000	-5286.690000	-3.493147	1.569855	6.070839	2.778313	-4.387777	2.771298	-2.095687	-0.262326	-0.625660	1.892240	-0.885080	-0.810911	0.070617	0.562499	-1.000000	-1.000000	-1.000000	-1.000000	-1.000000	-1.000000	-1.000000	65.000000	0.000000	-1.000000	-1.000000	269275.000000	1775713461.885644
-42466.095000	-75040.380000	-59987.475000	-23366.205000	-9535.590000	-78223.905000	-206.190000	-5283.900000	-4.841464	-1.592024	1.655869	-2.016596	-10.030037	6.232564	-5.645514	-4.498626	-0.625660	1.892240	-0.885080	-0.810911	0.070617	0.562499	-1.000000	-1.000000	-1.000000	-1.000000	-1.000000	-1.000000	-1.000000	65.000000	0.000000	-1.000000	-1.000000	269276.000000	1775713461.885655
-42469.695000	-75043.980000	-59989.365000	-23365.890000	-9526.995000	-78190.200000	-203.940000	-5285.835000	-3.630326	-3.051868	-2.124260	-4.697822	-10.236439	5.424629	-6.171392	-5.782955	-0.625660	1.892240	-0.885080	-0.810911	0.070617	0.562499	-1.000000	-1.000000	-1.000000	-1.000000	-1.000000	-1.000000	-1.000000	65.000000	0.000000	-1.000000	-1.000000	269277.000000	1775713461.885669
-42469.110000	-75042.450000	-59986.845000	-23362.065000	-9519.885000	-78199.965000	-204.750000	-5286.240000	-0.829844	-2.883843	-4.065731	-4.347116	-4.791416	3.386174	-3.672402	-4.178398	-0.625660	1.892240	-0.885080	-0.810911	0.070617	0.562499	-1.000000	-1.000000	-1.000000	-1.000000	-1.000000	-1.000000	-1.000000	65.000000	0.000000	-1.000000	-1.000000	269278.000000	1775713461.885680
-42470.820000	-75044.880000	-59990.535000	-23366.385000	-9526.005000	-78212.880000	-207.405000	-5287.275000	1.790856	-1.939560	-4.192231	-1.976480	3.022604	1.338453	-0.106462	-1.397245	-0.625660	1.892240	-0.885080	-0.810911	0.070617	0.562499	-1.000000	-1.000000	-1.000000	-1.000000	-1.000000	-1.000000	-1.000000	65.000000	0.000000	-1.000000	-1.000000	269279.000000	1775713461.890302
-42467.040000	-75044.430000	-59992.110000	-23370.525000	-9530.505000	-78218.010000	-201.690000	-5280.480000	3.228568	-0.798828	-3.150756	0.469793	8.399855	-2.379659	2.435565	1.062011	-0.625660	1.892240	-0.885080	-0.810911	0.070617	0.562499	-1.000000	-1.000000	-1.000000	-1.000000	-1.000000	-1.000000	-1.000000	65.000000	0.000000	-1.000000	-1.000000	269280.000000	1775713461.890328
-42468.840000	-75046.995000	-59994.810000	-23373.990000	-9533.835000	-78223.905000	-205.200000	-5281.020000	3.430818	0.178635	-1.813764	1.420647	8.450068	-7.454249	3.245850	2.670882	-0.564620	0.656180	0.808780	-0.811827	0.069885	0.563658	-1.000000	-1.000000	-1.000000	-1.000000	-1.000000	-1.000000	-1.000000	65.000000	0.000000	-1.000000	-1.000000	269281.000000	1775713461.890356
-42466.140000	-75043.035000	-59989.905000	-23368.455000	-9527.940000	-78219.540000	-203.670000	-5277.960000	2.743738	0.865395	-0.579214	0.924162	4.286988	-10.701186	2.643580	3.301986	-0.564620	0.656180	0.808780	-0.811827	0.069885	0.563658	-1.000000	-1.000000	-1.000000	-1.000000	-1.000000	-1.000000	-1.000000	65.000000	0.000000	-1.000000	-1.000000	269282.000000	1775713461.890368
-42464.115000	-75040.740000	-59986.665000	-23365.710000	-9525.105000	-78221.115000	-205.290000	-5276.520000	1.608293	1.420941	0.752637	0.360793	-0.448161	-9.397347	1.237254	2.877930	-0.564620	0.656180	0.808780	-0.811827	0.069885	0.563658	-1.000000	-1.000000	-1.000000	-1.000000	-1.000000	-1.000000	-1.000000	65.000000	0.000000	-1.000000	-1.000000	269283.000000	1775713461.893381
-42465.780000	-75039.705000	-59985.630000	-23365.170000	-9525.600000	-78224.895000	-209.295000	-5279.355000	0.433472	1.945136	2.222593	0.706185	-2.939234	-3.897944	-0.334642	1.545598	-0.564620	0.656180	0.808780	-0.811827	0.069885	0.563658	-1.000000	-1.000000	-1.000000	-1.000000	-1.000000	-1.000000	-1.000000	65.000000	0.000000	-1.000000	-1.000000	269284.000000	1775713461.893401
-42465.150000	-75037.095000	-59982.795000	-23362.920000	-9523.170000	-78224.040000	-211.365000	-5280.570000	-0.635297	2.164976	3.228730	1.551501	-2.925582	2.757277	-1.631903	-0.360378	-0.564620	0.656180	0.808780	-0.811827	0.069885	0.563658	-1.000000	-1.000000	-1.000000	-1.000000	-1.000000	-1.000000	-1.000000	65.000000	0.000000	-1.000000	-1.000000	269285.000000	1775713461.895479
-42467.715000	-75040.245000	-59985.450000	-23365.080000	-9523.890000	-78225.255000	-215.955000	-5284.980000	-1.571331	1.699412	3.062605	1.885159	-1.701719	7.489270	-2.370184	-2.312157	-0.564620	0.656180	0.808780	-0.811827	0.069885	0.563658	-1.000000	-1.000000	-1.000000	-1.000000	-1.000000	-1.000000	-1.000000	65.000000	0.000000	-1.000000	-1.000000	269286.000000	1775713461.895494
-42465.645000	-75037.365000	-59982.435000	-23361.840000	-9518.355000	-78220.305000	-212.040000	-5281.695000	-2.186073	0.481938	1.608276	1.195125	-0.476497	9.022866	-2.252522	-3.542327	-0.564620	0.656180	0.808780	-0.811827	0.069885	0.563658	-1.000000	-1.000000	-1.000000	-1.000000	-1.000000	-1.000000	-1.000000	65.000000	0.000000	-1.000000	-1.000000	269287.000000	1775713461.899492
-42468.255000	-75040.515000	-59985.945000	-23363.955000	-9519.705000	-78221.430000	-209.880000	-5281.470000	-2.215104	-1.048317	-0.504988	-0.190526	0.255572	7.786504	-1.018500	-3.319804	-0.564620	0.656180	0.808780	-0.811827	0.069885	0.563658	-1.000000	-1.000000	-1.000000	-1.000000	-1.000000	-1.000000	-1.000000	65.000000	0.000000	-1.000000	-1.000000	269288.000000	1775713461.899519
-42468.795000	-75043.170000	-59989.455000	-23368.770000	-9526.140000	-78226.020000	-210.105000	-5280.255000	-1.648277	-2.296734	-2.437900	-1.651296	0.268818	4.780406	1.060261	-1.587196	-0.564620	0.656180	0.808780	-0.811827	0.069885	0.563658	-1.000000	-1.000000	-1.000000	-1.000000	-1.000000	-1.000000	-1.000000	65.000000	0.000000	-1.000000	-1.000000	269289.000000	1775713461.903517
-42466.455000	-75038.310000	-59983.965000	-23364.540000	-9523.845000	-78223.005000	-206.955000	-5278.455000	-0.721528	-2.809289	-3.507613	-2.700876	-0.556721	0.980805	2.956753	0.791824	-0.564620	0.656180	0.808780	-0.811827	0.069885	0.563658	-1.000000	-1.000000	-1.000000	-1.000000	-1.000000	-1.000000	-1.000000	65.000000	0.000000	-1.000000	-1.000000	269290.000000	1775713461.903540
-42471.855000	-75041.730000	-59985.450000	-23366.565000	-9527.445000	-78232.770000	-210.555000	-5281.965000	0.272384	-2.255925	-3.141579	-2.806523	-1.653455	-2.522570	3.613540	2.597612	-0.396760	1.037680	1.648080	-0.812132	0.071106	0.562315	-1.000000	-1.000000	-1.000000	-1.000000	-1.000000	-1.000000	-1.000000	65.000000	0.000000	-1.000000	-1.000000	269291.000000	1775713461.910049
-42469.110000	-75040.740000	-59980.770000	-23362.020000	-9525.555000	-78255.495000	-207.900000	-5275.125000	0.955788	-0.866557	-1.382034	-1.717003	-2.076982	-5.268120	2.675859	3.075669	-0.396760	1.037680	1.648080	-0.812132	0.071106	0.562315	-1.000000	-1.000000	-1.000000	-1.000000	-1.000000	-1.000000	-1.000000	65.000000	0.000000	-1.000000	-1.000000	269292.000000	1775713461.910083
-42458.085000	-75029.760000	-59970.240000	-23349.780000	-9514.485000	-78279.750000	-204.300000	-5259.510000	1.389794	0.794499	1.077440	0.347878	-1.186518	-7.784979	0.784184	2.724913	-0.396760	1.037680	1.648080	-0.812132	0.071106	0.562315	-1.000000	-1.000000	-1.000000	-1.000000	-1.000000	-1.000000	-1.000000	65.000000	0.000000	-1.000000	-1.000000	269293.000000	1775713461.911361
-42453.765000	-75022.470000	-59963.940000	-23347.215000	-9508.455000	-78256.440000	-205.605000	-5258.520000	2.172912	2.578780	3.499008	2.866249	1.134349	-9.239107	-0.915531	2.639859	-0.396760	1.037680	1.648080	-0.812132	0.071106	0.562315	-1.000000	-1.000000	-1.000000	-1.000000	-1.000000	-1.000000	-1.000000	65.000000	0.000000	-1.000000	-1.000000	269294.000000	1775713461.911375
-42451.560000	-75023.415000	-59974.155000	-23359.275000	-9520.020000	-78232.545000	-202.365000	-5262.525000	3.164528	4.079186	4.729156	4.386163	3.640065	-6.105473	-1.795206	2.513898	-0.396760	1.037680	1.648080	-0.812132	0.071106	0.562315	-1.000000	-1.000000	-1.000000	-1.000000	-1.000000	-1.000000	-1.000000	65.000000	0.000000	-1.000000	-1.000000	269295.000000	1775713461.915556
-42470.550000	-75048.615000	-60003.585000	-23382.720000	-9535.230000	-78232.815000	-211.005000	-5280.390000	2.858957	3.634483	2.830067	2.708756	3.750420	3.060687	-2.044158	0.630655	-0.396760	1.037680	1.648080	-0.812132	0.071106	0.562315	-1.000000	-1.000000	-1.000000	-1.000000	-1.000000	-1.000000	-1.000000	65.000000	0.000000	-1.000000	-1.000000	269296.000000	1775713461.915565
-42475.455000	-75052.260000	-60000.705000	-23372.595000	-9506.160000	-78201.630000	-208.620000	-5284.845000	-0.138887	-0.205451	-2.717306	-2.298778	0.853082	13.726425	-2.175780	-3.655712	-0.396760	1.037680	1.648080	-0.812132	0.071106	0.562315	-1.000000	-1.000000	-1.000000	-1.000000	-1.000000	-1.000000	-1.000000	65.000000	0.000000	-1.000000	-1.000000	269297.000000	1775713461.918988
-42472.755000	-75045.870000	-59989.815000	-23363.100000	-9496.890000	-78161.985000	-198.855000	-5278.320000	-4.672470	-5.576671	-8.227251	-6.707850	-1.621560	20.209039	-2.027933	-8.016449	-0.396760	1.037680	1.648080	-0.812132	0.071106	0.562315	-1.000000	-1.000000	-1.000000	-1.000000	-1.000000	-1.000000	-1.000000	65.000000	0.000000	-1.000000	-1.000000	269298.000000	1775713461.918999
-42475.320000	-75049.155000	-59995.125000	-23373.990000	-9523.755000	-78186.195000	-202.140000	-5278.320000	-7.338047	-8.097705	-8.643342	-6.404071	-1.235739	19.648656	-0.884396	-8.754742	-0.396760	1.037680	1.648080	-0.812132	0.071106	0.562315	-1.000000	-1.000000	-1.000000	-1.000000	-1.000000	-1.000000	-1.000000	65.000000	0.000000	-1.000000	-1.000000	269299.000000	1775713461.925512
-42468.390000	-75043.530000	-59990.580000	-23373.720000	-9530.730000	-78211.755000	-203.265000	-5272.335000	-5.907069	-5.594758	-3.344006	-2.040453	-0.594844	10.029828	0.866889	-4.626416	-0.396760	1.037680	1.648080	-0.812132	0.071106	0.562315	-1.000000	-1.000000	-1.000000	-1.000000	-1.000000	-1.000000	-1.000000	65.000000	0.000000	-1.000000	-1.000000	269300.000000	1775713461.925524
-42465.915000	-75042.720000	-59990.445000	-23375.880000	-9539.190000	-78242.805000	-202.860000	-5270.085000	-1.092576	0.201743	3.842613	2.674128	-2.441085	-7.968770	1.871737	2.071667	-1.754900	2.075360	0.518840	-0.811521	0.075378	0.563048	-1.000000	-1.000000	-1.000000	-1.000000	-1.000000	-1.000000	-1.000000	65.000000	0.000000	-1.000000	-1.000000	269301.000000	1775713461.930230
-42469.470000	-75046.500000	-59995.215000	-23379.705000	-9538.695000	-78197.895000	-203.220000	-5273.640000	4.319143	5.732576	8.665355	5.150778	-5.234347	-26.099278	1.570242	7.585004	-1.754900	2.075360	0.518840	-0.811521	0.075378	0.563048	-1.000000	-1.000000	-1.000000	-1.000000	-1.000000	-1.000000	-1.000000	65.000000	0.000000	-1.000000	-1.000000	269302.000000	1775713461.930248
-42460.245000	-75034.530000	-59982.840000	-23364.675000	-9515.700000	-78175.620000	-195.930000	-5265.180000	7.419987	8.234433	9.174365	5.198148	-5.259341	-31.703639	0.632691	9.267848	-1.754900	2.075360	0.518840	-0.811521	0.075378	0.563048	-1.000000	-1.000000	-1.000000	-1.000000	-1.000000	-1.000000	-1.000000	65.000000	0.000000	-1.000000	-1.000000	269303.000000	1775713461.930892
-42459.930000	-75031.200000	-59980.770000	-23363.550000	-9518.130000	-78181.875000	-196.740000	-5263.965000	7.222696	7.459478	6.429962	4.280459	-0.627128	-19.962164	0.059311	7.160805	-1.754900	2.075360	0.518840	-0.811521	0.075378	0.563048	-1.000000	-1.000000	-1.000000	-1.000000	-1.000000	-1.000000	-1.000000	65.000000	0.000000	-1.000000	-1.000000	269304.000000	1775713461.930908
-42460.245000	-75027.915000	-59979.420000	-23366.430000	-9528.345000	-78214.725000	-199.620000	-5266.170000	4.551897	4.774441	2.650395	3.319177	5.940581	-0.487761	0.022974	3.074021	-1.754900	2.075360	0.518840	-0.811521	0.075378	0.563048	-1.000000	-1.000000	-1.000000	-1.000000	-1.000000	-1.000000	-1.000000	65.000000	0.000000	-1.000000	-1.000000	269305.000000	1775713461.937190
-42469.065000	-75037.230000	-59988.555000	-23373.540000	-9534.555000	-78234.480000	-206.280000	-5272.290000	0.538750	1.143124	-1.068495	1.591580	9.100432	12.117830	-0.257079	-1.387680	-1.754900	2.075360	0.518840	-0.811521	0.075378	0.563048	-1.000000	-1.000000	-1.000000	-1.000000	-1.000000	-1.000000	-1.000000	65.000000	0.000000	-1.000000	-1.000000	269306.000000	1775713461.937209
-42465.645000	-75032.145000	-59984.415000	-23369.310000	-9526.725000	-78227.730000	-205.245000	-5268.645000	-3.632194	-2.900783	-4.444222	-1.365808	6.688020	12.253029	-1.239075	-5.053663	-1.754900	2.075360	0.518840	-0.811521	0.075378	0.563048	-1.000000	-1.000000	-1.000000	-1.000000	-1.000000	-1.000000	-1.000000	65.000000	0.000000	-1.000000	-1.000000	269307.000000	1775713461.942998
-42462.765000	-75027.150000	-59980.320000	-23368.455000	-9526.140000	-78222.915000	-203.985000	-5266.980000	-6.264099	-6.030303	-6.543979	-4.231437	1.506821	5.921843	-2.175826	-6.649782	-1.754900	2.075360	0.518840	-0.811521	0.075378	0.563048	-1.000000	-1.000000	-1.000000	-1.000000	-1.000000	-1.000000	-1.000000	65.000000	0.000000	-1.000000	-1.000000	269308.000000	1775713461.943026
-42465.150000	-75030.885000	-59985.720000	-23373.360000	-9528.930000	-78227.415000	-205.515000	-5266.080000	-6.059168	-6.714510	-6.299664	-5.325034	-2.621607	1.584276	-1.990766	-5.501106	-1.754900	2.075360	0.518840	-0.811521	0.075378	0.563048	-1.000000	-1.000000	-1.000000	-1.000000	-1.000000	-1.000000	-1.000000	65.000000	0.000000	-1.000000	-1.000000	269309.000000	1775713461.943594
-42463.350000	-75031.605000	-59985.495000	-23371.740000	-9525.015000	-78226.875000	-200.070000	-5260.500000	-3.478832	-5.052275	-4.112297	-4.419513	-4.187689	1.967909	-0.523509	-2.334837	-1.754900	2.075360	0.518840	-0.811521	0.075378	0.563048	-1.000000	-1.000000	-1.000000	-1.000000	-1.000000	-1.000000	-1.000000	65.000000	0.000000	-1.000000	-1.000000	269310.000000	1775713461.943612
-42464.835000	-75036.105000	-59991.795000	-23376.060000	-9527.805000	-78227.370000	-196.830000	-5258.835000	-0.218019	-2.542012	-1.480506	-2.397664	-3.633394	4.646358	1.572389	1.280218	-2.548420	1.159760	2.472120	-0.811766	0.072571	0.563658	-1.000000	-1.000000	-1.000000	-1.000000	-1.000000	-1.000000	-1.000000	65.000000	0.000000	-1.000000	-1.000000	269311.000000	1775713461.949234
-42464.655000	-75032.865000	-59987.880000	-23374.080000	-9526.410000	-78226.110000	-198.495000	-5260.320000	2.201136	-0.397381	0.516835	-0.223630	-2.088547	6.422676	3.298815	3.753675	-2.548420	1.159760	2.472120	-0.811766	0.072571	0.563658	-1.000000	-1.000000	-1.000000	-1.000000	-1.000000	-1.000000	-1.000000	65.000000	0.000000	-1.000000	-1.000000	269312.000000	1775713461.949261
-42465.510000	-75028.905000	-59983.110000	-23369.715000	-9522.135000	-78223.545000	-200.205000	-5262.030000	3.090784	1.237065	1.895139	1.592684	-0.519498	5.811235	3.570204	4.024325	-2.548420	1.159760	2.472120	-0.811766	0.072571	0.563658	-1.000000	-1.000000	-1.000000	-1.000000	-1.000000	-1.000000	-1.000000	65.000000	0.000000	-1.000000	-1.000000	269313.000000	1775713461.951409
-42469.875000	-75032.595000	-59985.630000	-23371.335000	-9522.675000	-78225.660000	-206.640000	-5267.205000	2.548298	2.593411	3.062713	2.930818	0.695483	3.142227	1.918040	2.126348	-2.548420	1.159760	2.472120	-0.811766	0.072571	0.563658	-1.000000	-1.000000	-1.000000	-1.000000	-1.000000	-1.000000	-1.000000	65.000000	0.000000	-1.000000	-1.000000	269314.000000	1775713461.951428
-42472.845000	-75034.800000	-59986.845000	-23372.865000	-9524.070000	-78228.045000	-210.240000	-5269.590000	1.071384	3.275046	3.680933	3.437797	1.313252	-0.466869	-1.014053	-0.819079	-2.548420	1.159760	2.472120	-0.811766	0.072571	0.563658	-1.000000	-1.000000	-1.000000	-1.000000	-1.000000	-1.000000	-1.000000	65.000000	0.000000	-1.000000	-1.000000	269315.000000	1775713461.962396
-42471.945000	-75036.060000	-59989.140000	-23377.860000	-9529.245000	-78232.590000	-209.520000	-5267.115000	-0.551788	2.726987	3.053923	2.619691	0.982275	-3.894941	-3.678790	-3.141589	-2.548420	1.159760	2.472120	-0.811766	0.072571	0.563658	-1.000000	-1.000000	-1.000000	-1.000000	-1.000000	-1.000000	-1.000000	65.000000	0.000000	-1.000000	-1.000000	269316.000000	1775713461.962422
-42472.755000	-75032.280000	-59989.230000	-23379.840000	-9530.055000	-78231.330000	-200.430000	-5259.465000	-1.394219	1.315375	1.273745	0.608030	-0.246113	-6.121872	-4.303279	-3.338744	-2.548420	1.159760	2.472120	-0.811766	0.072571	0.563658	-1.000000	-1.000000	-1.000000	-1.000000	-1.000000	-1.000000	-1.000000	65.000000	0.000000	-1.000000	-1.000000	269317.000000	1775713461.962449
-42481.800000	-75034.755000	-59991.480000	-23382.135000	-9531.990000	-78233.355000	-200.970000	-5262.795000	-1.210574	0.053221	-0.751722	-1.627618	-1.604155	-6.361991	-2.170447	-1.187473	-2.548420	1.159760	2.472120	-0.811766	0.072571	0.563658	-1.000000	-1.000000	-1.000000	-1.000000	-1.000000	-1.000000	-1.000000	65.000000	0.000000	-1.000000	-1.000000	269318.000000	1775713461.962461
-42472.485000	-75033.495000	-59989.950000	-23380.965000	-9531.495000	-78231.195000	-204.615000	-5263.740000	-0.506383	-0.509103	-2.053926	-2.861408	-2.111903	-4.544520	1.291516	1.678368	-2.548420	1.159760	2.472120	-0.811766	0.072571	0.563658	-1.000000	-1.000000	-1.000000	-1.000000	-1.000000	-1.000000	-1.000000	65.000000	0.000000	-1.000000	-1.000000	269319.000000	1775713461.968987
-42457.500000	-75029.040000	-59987.565000	-23378.805000	-9529.155000	-78219.135000	-205.650000	-5261.085000	0.796454	-0.437292	-2.102913	-2.400620	-1.316868	-1.267466	3.529219	3.230767	-2.548420	1.159760	2.472120	-0.811766	0.072571	0.563658	-1.000000	-1.000000	-1.000000	-1.000000	-1.000000	-1.000000	-1.000000	65.000000	0.000000	-1.000000	-1.000000	269320.000000	1775713461.969013
-42452.730000	-75025.530000	-59981.265000	-23373.360000	-9525.555000	-78229.710000	-200.115000	-5255.190000	3.112349	0.124605	-0.900299	-0.442878	0.502178	2.334963	3.386882	3.012311	-1.175020	1.541260	0.869820	-0.811094	0.070801	0.564024	-1.000000	-1.000000	-1.000000	-1.000000	-1.000000	-1.000000	-1.000000	65.000000	0.000000	-1.000000	-1.000000	269321.000000	1775713461.972434
-42461.505000	-75025.890000	-59974.470000	-23371.245000	-9532.890000	-78279.120000	-203.040000	-5256.720000	5.121907	0.842535	1.066120	2.047910	2.347786	3.513735	1.763024	1.886552	-1.175020	1.541260	0.869820	-0.811094	0.070801	0.564024	-1.000000	-1.000000	-1.000000	-1.000000	-1.000000	-1.000000	-1.000000	65.000000	0.000000	-1.000000	-1.000000	269322.000000	1775713461.972457
-42457.725000	-75018.645000	-59967.945000	-23365.395000	-9530.370000	-78287.445000	-201.960000	-5252.805000	4.419758	1.172363	2.945830	3.821253	2.950072	-0.439003	-0.032832	0.592248	-1.175020	1.541260	0.869820	-0.811094	0.070801	0.564024	-1.000000	-1.000000	-1.000000	-1.000000	-1.000000	-1.000000	-1.000000	65.000000	0.000000	-1.000000	-1.000000	269323.000000	1775713461.972479
-42462.540000	-75025.215000	-59986.755000	-23375.970000	-9526.095000	-78241.095000	-205.605000	-5256.900000	0.633732	0.799042	3.378578	3.818448	2.077232	-6.187317	-1.382244	-0.652257	-1.175020	1.541260	0.869820	-0.811094	0.070801	0.564024	-1.000000	-1.000000	-1.000000	-1.000000	-1.000000	-1.000000	-1.000000	65.000000	0.000000	-1.000000	-1.000000	269324.000000	1775713461.972488
-42465.690000	-75026.205000	-59990.715000	-23377.680000	-9519.570000	-78217.605000	-210.870000	-5260.230000	-4.118153	-0.392018	0.988544	1.547111	0.874827	-5.269835	-2.234915	-1.872764	-1.175020	1.541260	0.869820	-0.811094	0.070801	0.564024	-1.000000	-1.000000	-1.000000	-1.000000	-1.000000	-1.000000	-1.000000	65.000000	0.000000	-1.000000	-1.000000	269325.000000	1775713461.983519
-42457.005000	-75016.530000	-59977.755000	-23368.680000	-9511.875000	-78184.665000	-208.305000	-5254.335000	-7.170018	-1.921506	-3.242425	-1.935657	0.482802	5.245707	-2.616067	-2.854843	-1.175020	1.541260	0.869820	-0.811094	0.070801	0.564024	-1.000000	-1.000000	-1.000000	-1.000000	-1.000000	-1.000000	-1.000000	65.000000	0.000000	-1.000000	-1.000000	269326.000000	1775713461.983544
-42460.875000	-75023.955000	-59983.470000	-23373.855000	-9517.815000	-78189.750000	-203.265000	-5254.875000	-6.849893	-2.644216	-5.844392	-4.259246	0.759343	17.986936	-2.114514	-2.877597	-1.175020	1.541260	0.869820	-0.811094	0.070801	0.564024	-1.000000	-1.000000	-1.000000	-1.000000	-1.000000	-1.000000	-1.000000	65.000000	0.000000	-1.000000	-1.000000	269327.000000	1775713461.983572
-42474.510000	-75037.590000	-59996.115000	-23385.915000	-9525.915000	-78215.265000	-206.775000	-5263.740000	-3.894602	-2.487621	-5.137938	-4.436106	0.306231	21.742789	-0.461824	-1.805465	-1.175020	1.541260	0.869820	-0.811094	0.070801	0.564024	-1.000000	-1.000000	-1.000000	-1.000000	-1.000000	-1.000000	-1.000000	65.000000	0.000000	-1.000000	-1.000000	269328.000000	1775713461.983584
-42478.695000	-75041.370000	-59999.715000	-23388.120000	-9523.440000	-78207.705000	-204.570000	-5266.170000	-0.932618	-2.580602	-2.844926	-3.604722	-1.742827	11.358120	1.534086	-0.672769	-1.175020	1.541260	0.869820	-0.811094	0.070801	0.564024	-1.000000	-1.000000	-1.000000	-1.000000	-1.000000	-1.000000	-1.000000	65.000000	0.000000	-1.000000	-1.000000	269329.000000	1775713461.984850
-42475.185000	-75037.095000	-59995.665000	-23383.440000	-9521.145000	-78210.630000	-200.745000	-5263.605000	0.624862	-2.846609	-0.699400	-2.496009	-4.095949	-7.073897	2.760794	-0.137391	-1.175020	1.541260	0.869820	-0.811094	0.070801	0.564024	-1.000000	-1.000000	-1.000000	-1.000000	-1.000000	-1.000000	-1.000000	65.000000	0.000000	-1.000000	-1.000000	269330.000000	1775713461.984870
-42472.350000	-75035.790000	-59994.540000	-23384.520000	-9534.780000	-78270.165000	-205.425000	-5260.635000	1.703835	-1.771596	1.385596	-0.589265	-4.893200	-22.947362	2.800288	0.407944	-0.228900	1.556520	-0.534100	-0.809446	0.071167	0.565245	-1.000000	-1.000000	-1.000000	-1.000000	-1.000000	-1.000000	-1.000000	65.000000	0.000000	-1.000000	-1.000000	269331.000000	1775713461.989288
-42470.145000	-75035.070000	-59994.540000	-23388.615000	-9551.070000	-78325.020000	-216.315000	-5261.985000	3.363093	1.162357	3.646399	2.014559	-4.279494	-31.486187	1.483403	1.538221	-0.228900	1.556520	-0.534100	-0.809446	0.071167	0.565245	-1.000000	-1.000000	-1.000000	-1.000000	-1.000000	-1.000000	-1.000000	65.000000	0.000000	-1.000000	-1.000000	269332.000000	1775713461.989310
-42470.460000	-75034.710000	-59997.015000	-23388.345000	-9540.675000	-78255.045000	-213.795000	-5263.470000	5.120219	4.499890	5.248853	4.014739	-3.254916	-30.997692	-0.998555	2.704081	-0.228900	1.556520	-0.534100	-0.809446	0.071167	0.565245	-1.000000	-1.000000	-1.000000	-1.000000	-1.000000	-1.000000	-1.000000	65.000000	0.000000	-1.000000	-1.000000	269333.000000	1775713461.996869
-42482.880000	-75045.105000	-60007.275000	-23400.405000	-9543.420000	-78156.180000	-212.220000	-5275.350000	5.411387	6.089315	4.966794	4.222283	-1.306477	-15.532250	-3.193329	2.724876	-0.228900	1.556520	-0.534100	-0.809446	0.071167	0.565245	-1.000000	-1.000000	-1.000000	-1.000000	-1.000000	-1.000000	-1.000000	65.000000	0.000000	-1.000000	-1.000000	269334.000000	1775713461.996897
-42479.820000	-75040.065000	-59998.905000	-23390.460000	-9534.150000	-78158.970000	-205.965000	-5269.995000	3.226751	4.826566	2.610577	2.644939	2.285010	15.615078	-3.266250	1.134887	-0.228900	1.556520	-0.534100	-0.809446	0.071167	0.565245	-1.000000	-1.000000	-1.000000	-1.000000	-1.000000	-1.000000	-1.000000	65.000000	0.000000	-1.000000	-1.000000	269335.000000	1775713461.996922
-42481.620000	-75040.875000	-59999.670000	-23389.470000	-9536.175000	-78213.150000	-204.255000	-5268.600000	-0.390047	1.734128	-0.246243	0.750553	6.411963	44.670447	-0.921539	-0.864460	-0.228900	1.556520	-0.534100	-0.809446	0.071167	0.565245	-1.000000	-1.000000	-1.000000	-1.000000	-1.000000	-1.000000	-1.000000	65.000000	0.000000	-1.000000	-1.000000	269336.000000	1775713461.996932
-42483.015000	-75038.715000	-59997.870000	-23388.480000	-9535.500000	-78219.135000	-209.430000	-5270.580000	-3.187887	-1.044178	-1.784645	0.022572	8.779002	48.390456	2.130171	-1.607562	-0.228900	1.556520	-0.534100	-0.809446	0.071167	0.565245	-1.000000	-1.000000	-1.000000	-1.000000	-1.000000	-1.000000	-1.000000	65.000000	0.000000	-1.000000	-1.000000	269337.000000	1775713462.005404
-42476.850000	-75028.320000	-59986.260000	-23378.220000	-9526.095000	-78213.555000	-208.080000	-5266.755000	-3.783988	-2.073083	-1.521640	0.496657	7.968207	23.739710	3.610691	-0.839006	-0.228900	1.556520	-0.534100	-0.809446	0.071167	0.565245	-1.000000	-1.000000	-1.000000	-1.000000	-1.000000	-1.000000	-1.000000	65.000000	0.000000	-1.000000	-1.000000	269338.000000	1775713462.005430
-42475.005000	-75025.440000	-59982.345000	-23375.160000	-9522.720000	-78215.265000	-206.370000	-5265.225000	-2.198059	-1.164989	0.047254	1.421659	4.711346	-10.388718	2.770346	0.580754	-0.228900	1.556520	-0.534100	-0.809446	0.071167	0.565245	-1.000000	-1.000000	-1.000000	-1.000000	-1.000000	-1.000000	-1.000000	65.000000	0.000000	-1.000000	-1.000000	269339.000000	1775713462.006786
-42477.615000	-75035.385000	-59994.180000	-23387.220000	-9534.330000	-78224.895000	-201.465000	-5260.365000	0.347650	0.369854	1.495528	1.661668	0.509644	-33.374299	0.805494	1.787233	-0.228900	1.556520	-0.534100	-0.809446	0.071167	0.565245	-1.000000	-1.000000	-1.000000	-1.000000	-1.000000	-1.000000	-1.000000	65.000000	0.000000	-1.000000	-1.000000	269340.000000	1775713462.006804
-42477.345000	-75040.515000	-60001.155000	-23394.465000	-9543.015000	-78230.475000	-197.595000	-5254.380000	2.049202	0.383087	0.810854	-0.131887	-4.029670	-37.213978	-0.654064	2.330910	-0.671440	0.656180	2.411080	-0.811399	0.073425	0.564269	-1.000000	-1.000000	-1.000000	-1.000000	-1.000000	-1.000000	-1.000000	65.000000	0.000000	-1.000000	-1.000000	269341.000000	1775713462.008422
-42472.305000	-75037.995000	-60002.415000	-23399.100000	-9547.965000	-78233.130000	-196.470000	-5248.305000	2.054412	-1.669777	-2.299717	-3.783052	-8.226512	-25.781123	-0.966638	2.206761	-0.671440	0.656180	2.411080	-0.811399	0.073425	0.564269	-1.000000	-1.000000	-1.000000	-1.000000	-1.000000	-1.000000	-1.000000	65.000000	0.000000	-1.000000	-1.000000	269342.000000	1775713462.008441
-42464.880000	-75029.445000	-59997.645000	-23394.735000	-9543.195000	-78234.840000	-194.490000	-5243.445000	1.132189	-3.713855	-5.380154	-6.842727	-10.199104	-7.882133	-0.638689	1.561691	-0.671440	0.656180	2.411080	-0.811399	0.073425	0.564269	-1.000000	-1.000000	-1.000000	-1.000000	-1.000000	-1.000000	-1.000000	65.000000	0.000000	-1.000000	-1.000000	269343.000000	1775713462.024763
-42469.110000	-75032.595000	-59998.140000	-23395.185000	-9546.930000	-78264.315000	-202.950000	-5247.720000	0.346807	-3.479371	-5.633970	-6.679925	-8.262478	7.770526	-0.619722	0.325503	-0.671440	0.656180	2.411080	-0.811399	0.073425	0.564269	-1.000000	-1.000000	-1.000000	-1.000000	-1.000000	-1.000000	-1.000000	65.000000	0.000000	-1.000000	-1.000000	269344.000000	1775713462.024791
-42470.820000	-75032.505000	-59992.965000	-23390.370000	-9543.870000	-78278.940000	-204.120000	-5249.340000	-0.346949	-1.140506	-2.612977	-2.932952	-2.984661	15.196682	-1.509124	-1.701094	-0.671440	0.656180	2.411080	-0.811399	0.073425	0.564269	-1.000000	-1.000000	-1.000000	-1.000000	-1.000000	-1.000000	-1.000000	65.000000	0.000000	-1.000000	-1.000000	269345.000000	1775713462.024820
-42463.890000	-75024.090000	-59987.115000	-23382.945000	-9532.530000	-78258.510000	-202.050000	-5247.045000	-1.313352	1.492244	1.910670	2.468818	3.289510	14.276243	-2.791033	-4.051821	-0.671440	0.656180	2.411080	-0.811399	0.073425	0.564269	-1.000000	-1.000000	-1.000000	-1.000000	-1.000000	-1.000000	-1.000000	65.000000	0.000000	-1.000000	-1.000000	269346.000000	1775713462.024832
-42460.245000	-75017.700000	-59984.640000	-23377.410000	-9517.410000	-78187.230000	-203.715000	-5248.935000	-1.962061	3.314925	5.642220	7.013965	8.504143	11.759576	-3.130110	-5.432619	-0.671440	0.656180	2.411080	-0.811399	0.073425	0.564269	-1.000000	-1.000000	-1.000000	-1.000000	-1.000000	-1.000000	-1.000000	65.000000	0.000000	-1.000000	-1.000000	269347.000000	1775713462.024848
-42461.100000	-75018.510000	-59982.345000	-23373.990000	-9510.480000	-78138.135000	-203.175000	-5248.620000	-1.631187	4.036515	6.899148	8.828830	11.374600	15.001952	-1.900807	-4.932993	-0.671440	0.656180	2.411080	-0.811399	0.073425	0.564269	-1.000000	-1.000000	-1.000000	-1.000000	-1.000000	-1.000000	-1.000000	65.000000	0.000000	-1.000000	-1.000000	269348.000000	1775713462.024859
-42465.195000	-75025.890000	-59993.280000	-23388.435000	-9531.810000	-78219.045000	-192.105000	-5246.280000	-0.828587	3.127113	5.030736	6.935454	10.337220	20.911177	0.462047	-2.747221	-0.671440	0.656180	2.411080	-0.811399	0.073425	0.564269	-1.000000	-1.000000	-1.000000	-1.000000	-1.000000	-1.000000	-1.000000	65.000000	0.000000	-1.000000	-1.000000	269349.000000	1775713462.024873
-42471.360000	-75032.055000	-60003.720000	-23403.555000	-9547.695000	-78262.155000	-191.880000	-5250.915000	-0.632680	0.232874	0.456424	1.349523	3.967589	15.806270	3.169191	0.141810	-0.671440	0.656180	2.411080	-0.811399	0.073425	0.564269	-1.000000	-1.000000	-1.000000	-1.000000	-1.000000	-1.000000	-1.000000	65.000000	0.000000	-1.000000	-1.000000	269350.000000	1775713462.024884
-42469.560000	-75029.400000	-59999.130000	-23397.795000	-9539.955000	-78250.140000	-195.705000	-5250.015000	-1.291195	-3.543405	-4.927657	-5.861275	-5.869680	-5.758219	4.925846	2.455720	-2.884140	1.846460	0.350980	-0.811033	0.075989	0.563048	-1.000000	-1.000000	-1.000000	-1.000000	-1.000000	-1.000000	-1.000000	65.000000	0.000000	-1.000000	-1.000000	269351.000000	1775713462.031885
-42469.560000	-75027.600000	-59996.340000	-23392.935000	-9534.195000	-78245.235000	-196.335000	-5251.005000	-1.825518	-5.804315	-7.921359	-10.386886	-13.197285	-29.776807	4.349235	3.417528	-2.884140	1.846460	0.350980	-0.811033	0.075989	0.563048	-1.000000	-1.000000	-1.000000	-1.000000	-1.000000	-1.000000	-1.000000	65.000000	0.000000	-1.000000	-1.000000	269352.000000	1775713462.031910
-42469.830000	-75026.700000	-59996.835000	-23394.555000	-9539.325000	-78215.445000	-195.480000	-5251.320000	-1.205779	-4.929613	-6.502422	-9.095907	-13.207796	-37.697769	1.556829	3.155261	-2.884140	1.846460	0.350980	-0.811033	0.075989	0.563048	-1.000000	-1.000000	-1.000000	-1.000000	-1.000000	-1.000000	-1.000000	65.000000	0.000000	-1.000000	-1.000000	269353.000000	1775713462.036484
-42478.695000	-75033.000000	-60003.720000	-23401.665000	-9550.305000	-78217.290000	-206.730000	-5260.185000	0.308798	-1.683569	-1.965112	-3.333481	-7.061661	-24.467063	-1.901411	2.078227	-2.884140	1.846460	0.350980	-0.811033	0.075989	0.563048	-1.000000	-1.000000	-1.000000	-1.000000	-1.000000	-1.000000	-1.000000	65.000000	0.000000	-1.000000	-1.000000	269354.000000	1775713462.036505
-42475.680000	-75027.465000	-59996.700000	-23392.530000	-9533.565000	-78224.670000	-206.415000	-5257.890000	1.562112	1.718718	2.582332	2.862596	0.558856	-0.563322	-4.571793	0.522817	-2.884140	1.846460	0.350980	-0.811033	0.075989	0.563048	-1.000000	-1.000000	-1.000000	-1.000000	-1.000000	-1.000000	-1.000000	65.000000	0.000000	-1.000000	-1.000000	269355.000000	1775713462.036530
-42484.815000	-75034.755000	-60004.935000	-23398.380000	-9527.445000	-78201.270000	-209.970000	-5263.740000	1.893426	3.657113	5.047829	6.623513	6.618182	18.896135	-5.489821	-0.894225	-2.884140	1.846460	0.350980	-0.811033	0.075989	0.563048	-1.000000	-1.000000	-1.000000	-1.000000	-1.000000	-1.000000	-1.000000	65.000000	0.000000	-1.000000	-1.000000	269356.000000	1775713462.036542
-42484.320000	-75034.980000	-60007.320000	-23405.175000	-9544.185000	-78234.255000	-202.005000	-5257.935000	1.431930	3.688212	4.912001	7.017537	9.822591	25.403251	-4.062848	-1.411237	-2.884140	1.846460	0.350980	-0.811033	0.075989	0.563048	-1.000000	-1.000000	-1.000000	-1.000000	-1.000000	-1.000000	-1.000000	65.000000	0.000000	-1.000000	-1.000000	269357.000000	1775713462.040752
-42480.990000	-75029.535000	-59999.985000	-23400.180000	-9544.860000	-78278.715000	-201.555000	-5254.515000	0.816085	2.390684	2.913212	4.473755	8.763501	17.940314	-0.570874	-0.606622	-2.884140	1.846460	0.350980	-0.811033	0.075989	0.563048	-1.000000	-1.000000	-1.000000	-1.000000	-1.000000	-1.000000	-1.000000	65.000000	0.000000	-1.000000	-1.000000	269358.000000	1775713462.040777
-42478.470000	-75027.195000	-59995.890000	-23396.535000	-9545.040000	-78339.735000	-207.945000	-5253.885000	0.876550	1.105859	0.891820	0.989939	3.825840	0.013570	3.313316	1.186998	-2.884140	1.846460	0.350980	-0.811033	0.075989	0.563048	-1.000000	-1.000000	-1.000000	-1.000000	-1.000000	-1.000000	-1.000000	65.000000	0.000000	-1.000000	-1.000000	269359.000000	1775713462.044202
-42479.145000	-75030.840000	-60000.030000	-23402.205000	-9550.485000	-78299.145000	-209.205000	-5254.470000	1.683912	0.583489	0.088261	-1.317551	-1.906414	-18.876234	5.263631	2.734692	-2.884140	1.846460	0.350980	-0.811033	0.075989	0.563048	-1.000000	-1.000000	-1.000000	-1.000000	-1.000000	-1.000000	-1.000000	65.000000	0.000000	-1.000000	-1.000000	269360.000000	1775713462.044226
-42485.805000	-75041.055000	-60012.945000	-23412.915000	-9548.370000	-78169.500000	-205.875000	-5258.610000	2.190860	0.116379	-0.293292	-2.303338	-5.426840	-22.984792	4.427486	2.743271	-0.717220	1.968540	0.747740	-0.809446	0.072082	0.564024	-1.000000	-1.000000	-1.000000	-1.000000	-1.000000	-1.000000	-1.000000	65.000000	0.000000	-1.000000	-1.000000	269361.000000	1775713462.051445
-42477.930000	-75030.660000	-60002.640000	-23401.125000	-9531.180000	-78144.840000	-200.475000	-5251.860000	1.486430	-1.009648	-1.420626	-2.782188	-5.312219	-2.658796	2.188759	1.099930	-0.717220	1.968540	0.747740	-0.809446	0.072082	0.564024	-1.000000	-1.000000	-1.000000	-1.000000	-1.000000	-1.000000	-1.000000	65.000000	0.000000	-1.000000	-1.000000	269362.000000	1775713462.051469
-42471.945000	-75023.280000	-59994.495000	-23394.735000	-9532.080000	-78215.355000	-198.630000	-5246.595000	0.169588	-1.815191	-2.418771	-2.322315	-1.765699	28.141400	0.418581	-0.840664	-0.717220	1.968540	0.747740	-0.809446	0.072082	0.564024	-1.000000	-1.000000	-1.000000	-1.000000	-1.000000	-1.000000	-1.000000	65.000000	0.000000	-1.000000	-1.000000	269363.000000	1775713462.052871
-42478.065000	-75025.215000	-59995.710000	-23397.975000	-9543.960000	-78238.845000	-203.175000	-5251.050000	-0.633794	-1.024988	-1.674000	-0.341767	2.561464	40.281902	-0.388919	-1.735691	-0.717220	1.968540	0.747740	-0.809446	0.072082	0.564024	-1.000000	-1.000000	-1.000000	-1.000000	-1.000000	-1.000000	-1.000000	65.000000	0.000000	-1.000000	-1.000000	269364.000000	1775713462.052895
-42483.150000	-75031.110000	-59999.580000	-23402.340000	-9550.980000	-78230.340000	-204.885000	-5253.930000	-1.133385	0.546806	0.266229	1.810508	3.896465	21.616588	-1.031308	-1.794222	-0.717220	1.968540	0.747740	-0.809446	0.072082	0.564024	-1.000000	-1.000000	-1.000000	-1.000000	-1.000000	-1.000000	-1.000000	65.000000	0.000000	-1.000000	-1.000000	269365.000000	1775713462.061749
-42475.320000	-75028.095000	-59998.005000	-23400.495000	-9543.105000	-78217.785000	-199.395000	-5248.080000	-1.942306	1.056903	1.413244	2.250904	1.354775	-11.434915	-1.936214	-1.808395	-0.717220	1.968540	0.747740	-0.809446	0.072082	0.564024	-1.000000	-1.000000	-1.000000	-1.000000	-1.000000	-1.000000	-1.000000	65.000000	0.000000	-1.000000	-1.000000	269366.000000	1775713462.061778
-42476.400000	-75030.030000	-60002.100000	-23404.995000	-9542.565000	-78193.935000	-193.770000	-5248.215000	-2.460221	0.134572	0.893851	0.828029	-2.101517	-34.041317	-2.330741	-1.661783	-0.717220	1.968540	0.747740	-0.809446	0.072082	0.564024	-1.000000	-1.000000	-1.000000	-1.000000	-1.000000	-1.000000	-1.000000	65.000000	0.000000	-1.000000	-1.000000	269367.000000	1775713462.061805
-42476.355000	-75026.655000	-59999.130000	-23404.770000	-9543.915000	-78197.670000	-200.340000	-5250.915000	-1.943349	-1.106096	-0.576373	-1.202691	-3.419050	-34.498838	-1.612605	-1.035014	-0.717220	1.968540	0.747740	-0.809446	0.072082	0.564024	-1.000000	-1.000000	-1.000000	-1.000000	-1.000000	-1.000000	-1.000000	65.000000	0.000000	-1.000000	-1.000000	269368.000000	1775713462.061816
-42484.860000	-75031.830000	-60001.605000	-23404.995000	-9545.220000	-78219.000000	-208.710000	-5257.980000	-0.896368	-1.654069	-1.749071	-2.506052	-2.323913	-18.885731	-0.706021	-0.421424	-0.717220	1.968540	0.747740	-0.809446	0.072082	0.564024	-1.000000	-1.000000	-1.000000	-1.000000	-1.000000	-1.000000	-1.000000	65.000000	0.000000	-1.000000	-1.000000	269369.000000	1775713462.070111
-42481.215000	-75024.765000	-59990.940000	-23394.915000	-9538.875000	-78234.300000	-213.480000	-5255.235000	-0.279673	-1.311228	-1.704413	-2.208003	-0.226308	-1.610730	-0.912643	-0.381587	-0.717220	1.968540	0.747740	-0.809446	0.072082	0.564024	-1.000000	-1.000000	-1.000000	-1.000000	-1.000000	-1.000000	-1.000000	65.000000	0.000000	-1.000000	-1.000000	269370.000000	1775713462.070138
-42473.970000	-75020.220000	-59989.815000	-23393.340000	-9535.365000	-78245.190000	-209.070000	-5247.765000	0.015090	-0.195509	-0.238349	-0.221216	1.768316	7.502520	-1.894517	-0.387632	1.495480	1.556520	1.754900	-0.808836	0.069092	0.564269	-1.000000	-1.000000	-1.000000	-1.000000	-1.000000	-1.000000	-1.000000	65.000000	0.000000	-1.000000	-1.000000	269371.000000	1775713462.070165
-42478.020000	-75031.290000	-60004.890000	-23408.955000	-9553.770000	-78276.285000	-205.695000	-5245.245000	0.767284	1.164929	1.508051	2.012788	2.721509	7.725491	-1.904055	0.569827	1.495480	1.556520	1.754900	-0.808836	0.069092	0.564269	-1.000000	-1.000000	-1.000000	-1.000000	-1.000000	-1.000000	-1.000000	65.000000	0.000000	-1.000000	-1.000000	269372.000000	1775713462.070177
-42483.060000	-75036.960000	-60010.605000	-23412.420000	-9551.295000	-78233.715000	-200.025000	-5245.470000	1.658705	1.426404	1.458545	2.174156	1.590471	4.291881	0.089253	2.289353	1.495480	1.556520	1.754900	-0.808836	0.069092	0.564269	-1.000000	-1.000000	-1.000000	-1.000000	-1.000000	-1.000000	-1.000000	65.000000	0.000000	-1.000000	-1.000000	269373.000000	1775713462.079575
-42487.965000	-75035.430000	-60003.990000	-23406.390000	-9540.945000	-78161.805000	-208.080000	-5252.580000	1.507196	-0.005721	-0.669397	-0.015661	-0.847179	5.275787	3.021524	3.211131	1.495480	1.556520	1.754900	-0.808836	0.069092	0.564269	-1.000000	-1.000000	-1.000000	-1.000000	-1.000000	-1.000000	-1.000000	65.000000	0.000000	-1.000000	-1.000000	269374.000000	1775713462.079599
-42480.810000	-75025.710000	-59994.405000	-23398.920000	-9538.515000	-78146.505000	-202.005000	-5247.945000	0.241778	-1.558759	-2.322859	-1.967417	-1.964745	14.911456	4.694103	2.198120	1.495480	1.556520	1.754900	-0.808836	0.069092	0.564269	-1.000000	-1.000000	-1.000000	-1.000000	-1.000000	-1.000000	-1.000000	65.000000	0.000000	-1.000000	-1.000000	269375.000000	1775713462.079626
-42484.725000	-75027.060000	-60000.255000	-23406.615000	-9553.815000	-78258.915000	-198.720000	-5246.235000	-0.826187	-1.259189	-1.361505	-1.591778	-0.948489	24.007809	4.149641	-0.012393	1.495480	1.556520	1.754900	-0.808836	0.069092	0.564269	-1.000000	-1.000000	-1.000000	-1.000000	-1.000000	-1.000000	-1.000000	65.000000	0.000000	-1.000000	-1.000000	269376.000000	1775713462.079636
-42493.320000	-75034.530000	-60009.570000	-23416.335000	-9561.780000	-78266.340000	-198.270000	-5250.420000	-0.976626	0.594044	1.029719	0.070643	0.032872	16.699203	2.244505	-1.793623	1.495480	1.556520	1.754900	-0.808836	0.069092	0.564269	-1.000000	-1.000000	-1.000000	-1.000000	-1.000000	-1.000000	-1.000000	65.000000	0.000000	-1.000000	-1.000000	269377.000000	1775713462.085884
-42488.100000	-75034.935000	-60009.480000	-23413.455000	-9551.565000	-78236.055000	-198.540000	-5251.500000	-0.728767	1.878550	2.136906	0.796124	-0.496138	-6.708391	0.068054	-2.485572	1.495480	1.556520	1.754900	-0.808836	0.069092	0.564269	-1.000000	-1.000000	-1.000000	-1.000000	-1.000000	-1.000000	-1.000000	65.000000	0.000000	-1.000000	-1.000000	269378.000000	1775713462.085911
-42469.830000	-75026.880000	-59998.320000	-23402.790000	-9544.815000	-78233.715000	-196.560000	-5241.960000	0.020186	1.621971	1.448399	0.500774	-0.986558	-26.841695	-1.787855	-2.151475	1.495480	1.556520	1.754900	-0.808836	0.069092	0.564269	-1.000000	-1.000000	-1.000000	-1.000000	-1.000000	-1.000000	-1.000000	65.000000	0.000000	-1.000000	-1.000000	269379.000000	1775713462.085938
-42471.315000	-75024.990000	-59990.940000	-23394.060000	-9532.170000	-78212.205000	-196.740000	-5240.790000	1.984416	0.888076	0.866945	0.921651	0.572396	-28.249868	-2.910924	-0.738603	1.495480	1.556520	1.754900	-0.808836	0.069092	0.564269	-1.000000	-1.000000	-1.000000	-1.000000	-1.000000	-1.000000	-1.000000	65.000000	0.000000	-1.000000	-1.000000	269380.000000	1775713462.085950
-42478.290000	-75029.355000	-59997.195000	-23401.080000	-9546.030000	-78224.805000	-199.260000	-5243.445000	4.017740	0.594836	1.468613	2.483279	3.456389	-12.961226	-3.153385	1.174388	0.915600	2.426340	-0.427280	-0.808714	0.070740	0.565123	-1.000000	-1.000000	-1.000000	-1.000000	-1.000000	-1.000000	-1.000000	65.000000	0.000000	-1.000000	-1.000000	269381.000000	1775713462.100578
-42470.955000	-75026.070000	-60008.580000	-23413.005000	-9560.160000	-78228.540000	-199.620000	-5237.370000	3.798621	0.361388	1.765484	3.118748	4.402436	5.939235	-2.749367	2.303214	0.915600	2.426340	-0.427280	-0.808714	0.070740	0.565123	-1.000000	-1.000000	-1.000000	-1.000000	-1.000000	-1.000000	-1.000000	65.000000	0.000000	-1.000000	-1.000000	269382.000000	1775713462.100603
-42467.625000	-75020.220000	-60003.900000	-23410.935000	-9556.245000	-78214.275000	-195.390000	-5233.680000	1.192323	-0.120278	0.108068	0.999737	1.414410	16.876167	-1.876804	2.165812	0.915600	2.426340	-0.427280	-0.808714	0.070740	0.565123	-1.000000	-1.000000	-1.000000	-1.000000	-1.000000	-1.000000	-1.000000	65.000000	0.000000	-1.000000	-1.000000	269383.000000	1775713462.100628
-42471.585000	-75019.545000	-59995.305000	-23404.725000	-9558.495000	-78247.125000	-197.145000	-5238.315000	-1.876663	-0.419950	-2.396472	-2.534247	-3.311422	16.631764	-0.534790	1.202066	0.915600	2.426340	-0.427280	-0.808714	0.070740	0.565123	-1.000000	-1.000000	-1.000000	-1.000000	-1.000000	-1.000000	-1.000000	65.000000	0.000000	-1.000000	-1.000000	269384.000000	1775713462.100640
-42474.780000	-75020.085000	-59989.545000	-23402.115000	-9555.480000	-78260.715000	-199.260000	-5240.835000	-4.055677	-0.403995	-3.101851	-4.347028	-5.878612	7.801499	0.876112	-0.327946	0.915600	2.426340	-0.427280	-0.808714	0.070740	0.565123	-1.000000	-1.000000	-1.000000	-1.000000	-1.000000	-1.000000	-1.000000	65.000000	0.000000	-1.000000	-1.000000	269385.000000	1775713462.100654
-42482.745000	-75023.640000	-59992.740000	-23405.715000	-9556.335000	-78259.995000	-207.945000	-5248.260000	-5.160565	-0.582923	-1.319823	-3.200395	-4.661356	-4.109898	1.485623	-2.261381	0.915600	2.426340	-0.427280	-0.808714	0.070740	0.565123	-1.000000	-1.000000	-1.000000	-1.000000	-1.000000	-1.000000	-1.000000	65.000000	0.000000	-1.000000	-1.000000	269386.000000	1775713462.100665
-42481.260000	-75023.775000	-60005.115000	-23411.295000	-9560.070000	-78253.380000	-207.180000	-5246.640000	-5.199768	-1.281777	0.792692	-0.723346	-1.023004	-11.845935	0.861082	-3.895893	0.915600	2.426340	-0.427280	-0.808714	0.070740	0.565123	-1.000000	-1.000000	-1.000000	-1.000000	-1.000000	-1.000000	-1.000000	65.000000	0.000000	-1.000000	-1.000000	269387.000000	1775713462.102176
-42473.475000	-75016.170000	-60001.380000	-23402.610000	-9550.125000	-78272.055000	-202.500000	-5239.890000	-3.714650	-1.932975	0.907172	1.034483	2.598814	-11.292751	-0.162689	-3.999553	0.915600	2.426340	-0.427280	-0.808714	0.070740	0.565123	-1.000000	-1.000000	-1.000000	-1.000000	-1.000000	-1.000000	-1.000000	65.000000	0.000000	-1.000000	-1.000000	269388.000000	1775713462.102197
-42477.615000	-75017.655000	-59996.520000	-23398.245000	-9542.565000	-78262.965000	-202.410000	-5242.680000	-0.495622	-1.580191	-0.593941	1.821622	4.919872	-4.643131	-0.214398	-1.880248	0.915600	2.426340	-0.427280	-0.808714	0.070740	0.565123	-1.000000	-1.000000	-1.000000	-1.000000	-1.000000	-1.000000	-1.000000	65.000000	0.000000	-1.000000	-1.000000	269389.000000	1775713462.114448
-42473.565000	-75011.985000	-59989.320000	-23393.295000	-9535.995000	-78224.310000	-197.595000	-5238.945000	3.228405	-0.148665	-1.358101	2.398524	5.876152	3.961415	0.997918	1.452164	0.915600	2.426340	-0.427280	-0.808714	0.070740	0.565123	-1.000000	-1.000000	-1.000000	-1.000000	-1.000000	-1.000000	-1.000000	65.000000	0.000000	-1.000000	-1.000000	269390.000000	1775713462.114473
-42478.605000	-75016.935000	-59999.040000	-23404.320000	-9540.945000	-78170.085000	-202.140000	-5242.995000	5.505250	1.380340	-0.351917	2.590734	5.221016	13.031241	2.430993	4.008549	-0.854560	1.663340	0.824040	-0.810057	0.072876	0.563353	-1.000000	-1.000000	-1.000000	-1.000000	-1.000000	-1.000000	-1.000000	65.000000	0.000000	-1.000000	-1.000000	269391.000000	1775713462.114500
-42484.365000	-75026.160000	-60010.515000	-23415.255000	-9547.560000	-78171.390000	-199.575000	-5242.545000	5.166717	1.718787	0.817065	1.195355	2.350510	20.850500	2.784330	4.453690	-0.854560	1.663340	0.824040	-0.810057	0.072876	0.563353	-1.000000	-1.000000	-1.000000	-1.000000	-1.000000	-1.000000	-1.000000	65.000000	0.000000	-1.000000	-1.000000	269392.000000	1775713462.114512
-42480.630000	-75023.370000	-60005.835000	-23411.655000	-9547.830000	-78181.020000	-192.915000	-5237.865000	2.562219	0.353992	0.376033	-1.945716	-2.331913	21.652573	1.801079	2.960974	-0.854560	1.663340	0.824040	-0.810057	0.072876	0.563353	-1.000000	-1.000000	-1.000000	-1.000000	-1.000000	-1.000000	-1.000000	65.000000	0.000000	-1.000000	-1.000000	269393.000000	1775713462.114526
-42482.340000	-75024.765000	-60007.230000	-23413.995000	-9556.020000	-78245.055000	-196.605000	-5237.865000	-0.503430	-1.547852	-0.981475	-4.721523	-6.798888	9.590606	0.338423	0.880629	-0.854560	1.663340	0.824040	-0.810057	0.072876	0.563353	-1.000000	-1.000000	-1.000000	-1.000000	-1.000000	-1.000000	-1.000000	65.000000	0.000000	-1.000000	-1.000000	269394.000000	1775713462.114536
-42484.005000	-75025.980000	-60009.345000	-23417.865000	-9568.890000	-78244.650000	-198.495000	-5238.945000	-2.286659	-2.278499	-1.429042	-4.939700	-9.065155	-13.319670	-1.015735	-0.678701	-0.854560	1.663340	0.824040	-0.810057	0.072876	0.563353	-1.000000	-1.000000	-1.000000	-1.000000	-1.000000	-1.000000	-1.000000	65.000000	0.000000	-1.000000	-1.000000	269395.000000	1775713462.115096
-42485.310000	-75025.125000	-60007.320000	-23415.120000	-9570.240000	-78250.815000	-198.585000	-5239.530000	-2.445557	-1.358783	-0.447892	-2.560375	-8.536026	-34.723615	-2.231121	-1.573822	-0.854560	1.663340	0.824040	-0.810057	0.072876	0.563353	-1.000000	-1.000000	-1.000000	-1.000000	-1.000000	-1.000000	-1.000000	65.000000	0.000000	-1.000000	-1.000000	269396.000000	1775713462.115110
-42484.545000	-75022.605000	-60002.955000	-23408.685000	-9557.955000	-78244.380000	-196.605000	-5239.710000	-1.574067	0.538594	1.323488	1.093463	-5.123740	-40.552639	-2.965260	-2.006350	-0.854560	1.663340	0.824040	-0.810057	0.072876	0.563353	-1.000000	-1.000000	-1.000000	-1.000000	-1.000000	-1.000000	-1.000000	65.000000	0.000000	-1.000000	-1.000000	269397.000000	1775713462.121401
-42483.555000	-75019.365000	-60000.075000	-23402.655000	-9539.775000	-78217.020000	-197.370000	-5238.945000	-0.316371	2.473951	3.058048	4.661045	1.204455	-26.475805	-2.697601	-1.993432	-0.854560	1.663340	0.824040	-0.810057	0.072876	0.563353	-1.000000	-1.000000	-1.000000	-1.000000	-1.000000	-1.000000	-1.000000	65.000000	0.000000	-1.000000	-1.000000	269398.000000	1775713462.121426
-42484.185000	-75017.745000	-59998.680000	-23401.260000	-9535.770000	-78203.745000	-200.655000	-5240.070000	0.834023	3.653329	3.941944	6.852246	8.879794	0.174401	-1.549993	-1.499179	-0.854560	1.663340	0.824040	-0.810057	0.072876	0.563353	-1.000000	-1.000000	-1.000000	-1.000000	-1.000000	-1.000000	-1.000000	65.000000	0.000000	-1.000000	-1.000000	269399.000000	1775713462.126960
-42484.230000	-75012.435000	-59994.630000	-23401.530000	-9538.830000	-78198.615000	-202.725000	-5241.285000	1.457314	3.643561	3.438535	6.552204	13.973879	25.797195	-0.296695	-0.717883	-0.854560	1.663340	0.824040	-0.810057	0.072876	0.563353	-1.000000	-1.000000	-1.000000	-1.000000	-1.000000	-1.000000	-1.000000	65.000000	0.000000	-1.000000	-1.000000	269400.000000	1775713462.126977
-42485.625000	-75014.235000	-59995.755000	-23403.555000	-9548.685000	-78241.455000	-200.520000	-5240.880000	1.332581	2.485568	1.671215	3.550773	12.690663	37.318327	0.518996	0.019291	-1.266580	2.151660	0.564620	-0.810484	0.076477	0.563902	-1.000000	-1.000000	-1.000000	-1.000000	-1.000000	-1.000000	-1.000000	65.000000	0.000000	-1.000000	-1.000000	269401.000000	1775713462.127000
-42484.590000	-75009.285000	-59990.760000	-23403.780000	-9559.440000	-78273.855000	-208.530000	-5243.355000	0.617205	0.571887	-0.654898	-0.980300	4.770379	28.742284	0.896130	0.511493	-1.266580	2.151660	0.564620	-0.810484	0.076477	0.563902	-1.000000	-1.000000	-1.000000	-1.000000	-1.000000	-1.000000	-1.000000	65.000000	0.000000	-1.000000	-1.000000	269402.000000	1775713462.127006
-42477.390000	-75001.320000	-59980.995000	-23395.005000	-9543.780000	-78218.235000	-201.645000	-5239.710000	-0.090172	-1.285187	-2.432728	-4.846531	-5.509813	6.831507	0.976234	0.764750	-1.266580	2.151660	0.564620	-0.810484	0.076477	0.563902	-1.000000	-1.000000	-1.000000	-1.000000	-1.000000	-1.000000	-1.000000	65.000000	0.000000	-1.000000	-1.000000	269403.000000	1775713462.131494
-42487.920000	-75018.780000	-59999.130000	-23410.035000	-9555.165000	-78167.430000	-197.955000	-5244.525000	-0.336213	-2.510668	-3.089714	-6.357214	-12.111225	-10.895944	1.172784	0.878560	-1.266580	2.151660	0.564620	-0.810484	0.076477	0.563902	-1.000000	-1.000000	-1.000000	-1.000000	-1.000000	-1.000000	-1.000000	65.000000	0.000000	-1.000000	-1.000000	269404.000000	1775713462.131518
-42485.670000	-75019.590000	-60000.885000	-23411.475000	-9558.765000	-78223.455000	-192.690000	-5237.190000	-0.523160	-3.638495	-3.528537	-5.828933	-12.302205	-13.065291	1.927850	0.914042	-1.266580	2.151660	0.564620	-0.810484	0.076477	0.563902	-1.000000	-1.000000	-1.000000	-1.000000	-1.000000	-1.000000	-1.000000	65.000000	0.000000	-1.000000	-1.000000	269405.000000	1775713462.135819
-42486.030000	-75022.560000	-60005.790000	-23416.920000	-9557.370000	-78207.570000	-199.125000	-5235.705000	-1.023437	-4.880293	-4.435092	-4.489882	-7.858166	-6.077552	2.725434	1.035027	-1.266580	2.151660	0.564620	-0.810484	0.076477	0.563902	-1.000000	-1.000000	-1.000000	-1.000000	-1.000000	-1.000000	-1.000000	65.000000	0.000000	-1.000000	-1.000000	269406.000000	1775713462.135840
-42485.400000	-75022.920000	-60006.780000	-23415.345000	-9546.210000	-78160.950000	-196.245000	-5232.825000	-1.353780	-5.052882	-4.792201	-2.679149	-1.581728	-0.504230	2.378610	1.327720	-1.266580	2.151660	0.564620	-0.810484	0.076477	0.563902	-1.000000	-1.000000	-1.000000	-1.000000	-1.000000	-1.000000	-1.000000	65.000000	0.000000	-1.000000	-1.000000	269407.000000	1775713462.140598
-42489.045000	-75022.920000	-60005.565000	-23414.220000	-9551.250000	-78227.955000	-198.630000	-5236.380000	-1.089409	-3.183064	-3.320601	-0.163616	4.432888	1.047390	0.575718	1.357867	-1.266580	2.151660	0.564620	-0.810484	0.076477	0.563902	-1.000000	-1.000000	-1.000000	-1.000000	-1.000000	-1.000000	-1.000000	65.000000	0.000000	-1.000000	-1.000000	269408.000000	1775713462.140617
-42491.340000	-75024.180000	-60005.565000	-23416.740000	-9564.255000	-78286.365000	-199.035000	-5238.720000	-0.514522	0.227325	-0.015087	2.755798	7.870699	-3.038932	-1.725309	0.514866	-1.266580	2.151660	0.564620	-0.810484	0.076477	0.563902	-1.000000	-1.000000	-1.000000	-1.000000	-1.000000	-1.000000	-1.000000	65.000000	0.000000	-1.000000	-1.000000	269409.000000	1775713462.143379
-42489.360000	-75019.995000	-59999.130000	-23411.520000	-9562.320000	-78237.270000	-196.245000	-5236.695000	-0.024017	3.705453	3.886920	5.081922	7.025906	-12.498673	-3.260305	-1.102259	-1.266580	2.151660	0.564620	-0.810484	0.076477	0.563902	-1.000000	-1.000000	-1.000000	-1.000000	-1.000000	-1.000000	-1.000000	65.000000	0.000000	-1.000000	-1.000000	269410.000000	1775713462.143396
-42490.710000	-75020.310000	-59997.465000	-23408.595000	-9550.260000	-78188.670000	-193.095000	-5236.515000	0.407958	5.906352	6.817974	6.025959	3.280122	-16.956988	-3.206218	-2.480587	-1.617560	1.327620	0.518840	-0.811094	0.075317	0.563597	-1.000000	-1.000000	-1.000000	-1.000000	-1.000000	-1.000000	-1.000000	65.000000	0.000000	-1.000000	-1.000000	269411.000000	1775713462.147382
-42490.755000	-75020.040000	-59998.320000	-23407.290000	-9539.775000	-78191.550000	-193.230000	-5235.750000	0.871018	6.135287	7.562882	5.459567	0.330073	-6.792205	-1.655318	-2.668719	-1.617560	1.327620	0.518840	-0.811094	0.075317	0.563597	-1.000000	-1.000000	-1.000000	-1.000000	-1.000000	-1.000000	-1.000000	65.000000	0.000000	-1.000000	-1.000000	269412.000000	1775713462.147397
-42480.720000	-75013.695000	-59994.990000	-23405.445000	-9538.335000	-78231.915000	-189.900000	-5227.245000	1.376640	4.525067	5.704782	3.572823	0.177327	11.211965	0.385415	-1.501187	-1.617560	1.327620	0.518840	-0.811094	0.075317	0.563597	-1.000000	-1.000000	-1.000000	-1.000000	-1.000000	-1.000000	-1.000000	65.000000	0.000000	-1.000000	-1.000000	269413.000000	1775713462.155390
-42473.565000	-75008.835000	-59992.290000	-23408.370000	-9555.300000	-78269.715000	-194.580000	-5222.970000	2.157074	2.117918	2.126609	0.790562	1.079005	20.396173	1.734184	0.614664	-1.617560	1.327620	0.518840	-0.811094	0.075317	0.563597	-1.000000	-1.000000	-1.000000	-1.000000	-1.000000	-1.000000	-1.000000	65.000000	0.000000	-1.000000	-1.000000	269414.000000	1775713462.155415
-42475.275000	-75008.880000	-59989.050000	-23408.415000	-9560.070000	-78245.370000	-197.730000	-5222.520000	3.004777	-0.000635	-1.460394	-2.194764	-0.072623	13.624658	1.651416	2.700165	-1.617560	1.327620	0.518840	-0.811094	0.075317	0.563597	-1.000000	-1.000000	-1.000000	-1.000000	-1.000000	-1.000000	-1.000000	65.000000	0.000000	-1.000000	-1.000000	269415.000000	1775713462.156066
-42490.080000	-75024.945000	-60004.440000	-23422.140000	-9569.205000	-78219.990000	-187.560000	-5226.345000	2.537291	-1.899102	-4.033140	-4.716290	-3.793014	0.266034	0.463545	3.346685	-1.617560	1.327620	0.518840	-0.811094	0.075317	0.563597	-1.000000	-1.000000	-1.000000	-1.000000	-1.000000	-1.000000	-1.000000	65.000000	0.000000	-1.000000	-1.000000	269416.000000	1775713462.156082
-42505.470000	-75037.770000	-60019.425000	-23432.220000	-9562.140000	-78171.345000	-188.190000	-5236.515000	-0.647825	-4.477149	-6.031177	-6.506801	-7.270795	-5.605558	-0.436639	1.654562	-1.617560	1.327620	0.518840	-0.811094	0.075317	0.563597	-1.000000	-1.000000	-1.000000	-1.000000	-1.000000	-1.000000	-1.000000	65.000000	0.000000	-1.000000	-1.000000	269417.000000	1775713462.161795
-42499.845000	-75023.685000	-60009.345000	-23424.120000	-9559.755000	-78226.965000	-192.240000	-5236.155000	-5.545113	-7.150110	-7.566178	-7.019413	-7.208430	-0.775957	-0.338564	-1.784774	-1.617560	1.327620	0.518840	-0.811094	0.075317	0.563597	-1.000000	-1.000000	-1.000000	-1.000000	-1.000000	-1.000000	-1.000000	65.000000	0.000000	-1.000000	-1.000000	269418.000000	1775713462.161817
-42496.695000	-75023.730000	-60007.950000	-23422.590000	-9556.875000	-78229.170000	-192.870000	-5237.190000	-8.425348	-7.185982	-6.850202	-4.955766	-2.899025	5.009594	-0.029895	-4.822142	-1.617560	1.327620	0.518840	-0.811094	0.075317	0.563597	-1.000000	-1.000000	-1.000000	-1.000000	-1.000000	-1.000000	-1.000000	65.000000	0.000000	-1.000000	-1.000000	269419.000000	1775713462.168061
-42483.735000	-75024.585000	-60010.155000	-23426.235000	-9562.140000	-78233.355000	-194.130000	-5232.555000	-6.200783	-3.254227	-2.722960	-0.242403	3.064430	2.858227	-0.257550	-5.240757	-1.617560	1.327620	0.518840	-0.811094	0.075317	0.563597	-1.000000	-1.000000	-1.000000	-1.000000	-1.000000	-1.000000	-1.000000	65.000000	0.000000	-1.000000	-1.000000	269420.000000	1775713462.168081
-42479.415000	-75024.225000	-60008.265000	-23424.345000	-9562.680000	-78214.590000	-189.495000	-5228.820000	0.455022	2.380372	2.954624	4.799260	7.005967	-4.714254	-0.703565	-2.531597	-0.625660	2.044840	1.236060	-0.811766	0.074524	0.562438	-1.000000	-1.000000	-1.000000	-1.000000	-1.000000	-1.000000	-1.000000	65.000000	0.000000	-1.000000	-1.000000	269421.000000	1775713462.169308
-42487.065000	-75024.585000	-60007.140000	-23422.860000	-9560.745000	-78204.240000	-191.880000	-5231.745000	7.378376	6.389227	7.171368	7.620713	7.149259	-9.419754	-0.663520	1.715005	-0.625660	2.044840	1.236060	-0.811766	0.074524	0.562438	-1.000000	-1.000000	-1.000000	-1.000000	-1.000000	-1.000000	-1.000000	65.000000	0.000000	-1.000000	-1.000000	269422.000000	1775713462.169331
-42482.880000	-75017.970000	-59999.400000	-23415.120000	-9554.445000	-78217.830000	-187.830000	-5226.705000	10.058129	7.236980	8.389402	7.533267	4.557476	-7.458959	0.000571	4.985820	-0.625660	2.044840	1.236060	-0.811766	0.074524	0.562438	-1.000000	-1.000000	-1.000000	-1.000000	-1.000000	-1.000000	-1.000000	65.000000	0.000000	-1.000000	-1.000000	269423.000000	1775713462.171465
-42488.595000	-75019.680000	-59999.085000	-23416.830000	-9555.390000	-78195.105000	-194.265000	-5233.005000	7.235328	5.488715	6.914070	5.385707	1.462547	-1.682976	0.745637	5.653495	-0.625660	2.044840	1.236060	-0.811766	0.074524	0.562438	-1.000000	-1.000000	-1.000000	-1.000000	-1.000000	-1.000000	-1.000000	65.000000	0.000000	-1.000000	-1.000000	269424.000000	1775713462.171483
-42488.640000	-75018.285000	-59996.790000	-23414.580000	-9553.500000	-78196.770000	-195.300000	-5232.555000	1.228893	2.472438	3.798949	2.230857	-0.815040	3.684537	0.848804	3.686708	-0.625660	2.044840	1.236060	-0.811766	0.074524	0.562438	-1.000000	-1.000000	-1.000000	-1.000000	-1.000000	-1.000000	-1.000000	65.000000	0.000000	-1.000000	-1.000000	269425.000000	1775713462.177783
-42490.890000	-75021.570000	-59998.230000	-23415.705000	-9559.980000	-78246.630000	-193.995000	-5233.635000	-4.492190	-0.732549	0.053616	-1.128755	-2.269224	5.394511	0.178079	0.345767	-0.625660	2.044840	1.236060	-0.811766	0.074524	0.562438	-1.000000	-1.000000	-1.000000	-1.000000	-1.000000	-1.000000	-1.000000	65.000000	0.000000	-1.000000	-1.000000	269426.000000	1775713462.177809
-42495.030000	-75024.720000	-60004.845000	-23421.195000	-9561.870000	-78231.195000	-194.490000	-5237.280000	-7.453559	-3.383073	-3.490075	-3.997292	-3.365363	1.416869	-0.547532	-2.602376	-0.625660	2.044840	1.236060	-0.811766	0.074524	0.562438	-1.000000	-1.000000	-1.000000	-1.000000	-1.000000	-1.000000	-1.000000	65.000000	0.000000	-1.000000	-1.000000	269427.000000	1775713462.183705
-42493.815000	-75020.085000	-60001.245000	-23419.530000	-9555.435000	-78218.595000	-194.175000	-5236.065000	-7.064953	-4.837206	-6.063273	-5.804189	-3.979487	-4.844032	-0.644752	-3.978288	-0.625660	2.044840	1.236060	-0.811766	0.074524	0.562438	-1.000000	-1.000000	-1.000000	-1.000000	-1.000000	-1.000000	-1.000000	65.000000	0.000000	-1.000000	-1.000000	269428.000000	1775713462.183726
-42487.515000	-75013.830000	-59994.225000	-23414.310000	-9551.385000	-78212.115000	-192.015000	-5229.495000	-4.043580	-4.395857	-6.621750	-5.888432	-3.248027	-6.489946	-0.093234	-3.395742	-0.625660	2.044840	1.236060	-0.811766	0.074524	0.562438	-1.000000	-1.000000	-1.000000	-1.000000	-1.000000	-1.000000	-1.000000	65.000000	0.000000	-1.000000	-1.000000	269429.000000	1775713462.188998
-42486.120000	-75016.800000	-59999.895000	-23422.860000	-9561.195000	-78219.675000	-188.955000	-5224.950000	0.328024	-2.069951	-4.632202	-4.022738	-1.137284	-1.769179	0.771456	-1.059336	-0.625660	2.044840	1.236060	-0.811766	0.074524	0.562438	-1.000000	-1.000000	-1.000000	-1.000000	-1.000000	-1.000000	-1.000000	65.000000	0.000000	-1.000000	-1.000000	269430.000000	1775713462.189017
-42485.670000	-75016.530000	-60000.030000	-23423.085000	-9560.340000	-78225.705000	-186.165000	-5222.655000	4.237550	0.711346	-1.323142	-1.306184	0.818463	4.521229	1.567269	1.948234	0.228900	1.358140	1.236060	-0.812254	0.073791	0.560973	-1.000000	-1.000000	-1.000000	-1.000000	-1.000000	-1.000000	-1.000000	65.000000	0.000000	-1.000000	-1.000000	269431.000000	1775713462.189042
-42482.205000	-75011.715000	-59993.190000	-23415.210000	-9549.315000	-78232.635000	-183.105000	-5219.280000	5.997646	2.350611	1.476383	0.990296	1.627295	7.129697	1.937364	3.976047	0.228900	1.358140	1.236060	-0.812254	0.073791	0.560973	-1.000000	-1.000000	-1.000000	-1.000000	-1.000000	-1.000000	-1.000000	65.000000	0.000000	-1.000000	-1.000000	269432.000000	1775713462.189054
-42484.500000	-75012.795000	-59994.270000	-23416.470000	-9551.970000	-78239.700000	-184.140000	-5221.485000	5.122623	2.509112	3.086045	2.691726	1.948574	4.814655	1.602777	3.899412	0.228900	1.358140	1.236060	-0.812254	0.073791	0.560973	-1.000000	-1.000000	-1.000000	-1.000000	-1.000000	-1.000000	-1.000000	65.000000	0.000000	-1.000000	-1.000000	269433.000000	1775713462.191441
-42490.440000	-75017.880000	-59998.950000	-23422.635000	-9561.780000	-78226.695000	-188.685000	-5227.515000	2.239754	1.560103	3.411304	3.624374	2.020242	0.296045	0.387086	1.646259	0.228900	1.358140	1.236060	-0.812254	0.073791	0.560973	-1.000000	-1.000000	-1.000000	-1.000000	-1.000000	-1.000000	-1.000000	65.000000	0.000000	-1.000000	-1.000000	269434.000000	1775713462.191464
-42490.080000	-75016.440000	-59997.420000	-23422.815000	-9567.810000	-78248.520000	-196.740000	-5229.720000	-1.448663	-0.089138	2.347371	3.104296	0.910018	-2.868748	-1.660813	-1.867986	0.228900	1.358140	1.236060	-0.812254	0.073791	0.560973	-1.000000	-1.000000	-1.000000	-1.000000	-1.000000	-1.000000	-1.000000	65.000000	0.000000	-1.000000	-1.000000	269435.000000	1775713462.199459
-42488.190000	-75014.190000	-59995.440000	-23420.655000	-9566.145000	-78242.040000	-197.460000	-5228.010000	-4.258123	-1.600478	0.524992	1.320955	-1.360398	-3.561269	-3.885572	-4.862202	0.228900	1.358140	1.236060	-0.812254	0.073791	0.560973	-1.000000	-1.000000	-1.000000	-1.000000	-1.000000	-1.000000	-1.000000	65.000000	0.000000	-1.000000	-1.000000	269436.000000	1775713462.199485
-42486.390000	-75012.030000	-59994.765000	-23418.855000	-9557.820000	-78216.975000	-194.445000	-5226.885000	-4.752584	-1.957235	-0.849333	-0.401277	-2.907175	-2.034527	-4.887458	-5.550328	0.228900	1.358140	1.236060	-0.812254	0.073791	0.560973	-1.000000	-1.000000	-1.000000	-1.000000	-1.000000	-1.000000	-1.000000	65.000000	0.000000	-1.000000	-1.000000	269437.000000	1775713462.208886
-42486.345000	-75007.485000	-59990.490000	-23414.985000	-9547.335000	-78202.215000	-200.160000	-5227.740000	-2.901854	-0.911119	-1.093265	-0.968226	-1.813811	2.041767	-3.623954	-3.549868	0.228900	1.358140	1.236060	-0.812254	0.073791	0.560973	-1.000000	-1.000000	-1.000000	-1.000000	-1.000000	-1.000000	-1.000000	65.000000	0.000000	-1.000000	-1.000000	269438.000000	1775713462.208912
-42489.630000	-75013.965000	-59998.005000	-23423.490000	-9558.405000	-78239.115000	-196.155000	-5225.670000	-0.139531	0.700963	-0.533483	-0.540073	1.443237	6.556327	-0.646563	-0.147097	0.228900	1.358140	1.236060	-0.812254	0.073791	0.560973	-1.000000	-1.000000	-1.000000	-1.000000	-1.000000	-1.000000	-1.000000	65.000000	0.000000	-1.000000	-1.000000	269439.000000	1775713462.208937
-42493.815000	-75022.875000	-60010.020000	-23434.065000	-9568.665000	-78212.250000	-185.895000	-5224.590000	1.745383	1.363859	-0.362157	-0.423784	3.746013	6.884310	2.722159	2.893953	0.228900	1.358140	1.236060	-0.812254	0.073791	0.560973	-1.000000	-1.000000	-1.000000	-1.000000	-1.000000	-1.000000	-1.000000	65.000000	0.000000	-1.000000	-1.000000	269440.000000	1775713462.208950
-42495.075000	-75019.725000	-60006.285000	-23428.440000	-9555.255000	-78165.810000	-184.140000	-5227.200000	1.903394	0.300655	-1.345629	-1.411175	2.856268	3.270281	5.518644	4.363050	-0.518840	1.571780	-0.564620	-0.811399	0.072449	0.561156	-1.000000	-1.000000	-1.000000	-1.000000	-1.000000	-1.000000	-1.000000	65.000000	0.000000	-1.000000	-1.000000	269441.000000	1775713462.212146
-42486.705000	-75004.065000	-59991.030000	-23415.570000	-9532.530000	-78125.265000	-180.720000	-5223.330000	1.053403	-1.064595	-2.142319	-2.133077	0.678143	1.738846	6.761209	3.941379	-0.518840	1.571780	-0.564620	-0.811399	0.072449	0.561156	-1.000000	-1.000000	-1.000000	-1.000000	-1.000000	-1.000000	-1.000000	65.000000	0.000000	-1.000000	-1.000000	269442.000000	1775713462.212173
-42480.360000	-74997.540000	-59986.845000	-23414.715000	-9540.405000	-78185.430000	-180.315000	-5217.435000	0.768846	-0.426950	-0.616982	-0.697121	0.348281	3.503317	5.602527	2.386597	-0.518840	1.571780	-0.564620	-0.811399	0.072449	0.561156	-1.000000	-1.000000	-1.000000	-1.000000	-1.000000	-1.000000	-1.000000	65.000000	0.000000	-1.000000	-1.000000	269443.000000	1775713462.217949
-42482.070000	-74996.820000	-59985.045000	-23415.030000	-9546.255000	-78200.865000	-188.100000	-5220.765000	1.630874	2.230794	2.884761	2.288433	1.274784	1.160873	2.121763	0.829676	-0.518840	1.571780	-0.564620	-0.811399	0.072449	0.561156	-1.000000	-1.000000	-1.000000	-1.000000	-1.000000	-1.000000	-1.000000	65.000000	0.000000	-1.000000	-1.000000	269444.000000	1775713462.217976
-42484.455000	-74997.675000	-59984.415000	-23416.065000	-9549.090000	-78175.215000	-193.725000	-5224.005000	2.411151	4.303434	5.520146	4.213035	0.548119	-8.760048	-2.658701	-0.465739	-0.518840	1.571780	-0.564620	-0.811399	0.072449	0.561156	-1.000000	-1.000000	-1.000000	-1.000000	-1.000000	-1.000000	-1.000000	65.000000	0.000000	-1.000000	-1.000000	269445.000000	1775713462.218003
-42479.820000	-74992.770000	-59975.145000	-23408.100000	-9551.340000	-78270.705000	-192.195000	-5218.335000	1.758846	3.638425	5.220888	3.592704	-2.418494	-19.896153	-6.874782	-1.699859	-0.518840	1.571780	-0.564620	-0.811399	0.072449	0.561156	-1.000000	-1.000000	-1.000000	-1.000000	-1.000000	-1.000000	-1.000000	65.000000	0.000000	-1.000000	-1.000000	269446.000000	1775713462.218015
-42485.445000	-74995.245000	-59973.345000	-23411.295000	-9566.640000	-78357.150000	-191.475000	-5220.495000	-0.166910	0.592247	2.493216	1.223988	-5.707153	-27.695397	-8.345749	-2.474952	-0.518840	1.571780	-0.564620	-0.811399	0.072449	0.561156	-1.000000	-1.000000	-1.000000	-1.000000	-1.000000	-1.000000	-1.000000	65.000000	0.000000	-1.000000	-1.000000	269447.000000	1775713462.221516
-42498.000000	-75006.765000	-59994.945000	-23423.940000	-9561.555000	-78198.120000	-188.055000	-5228.865000	-2.537987	-3.180870	-1.326557	-1.635022	-7.331154	-28.543449	-6.121123	-2.514134	-0.518840	1.571780	-0.564620	-0.811399	0.072449	0.561156	-1.000000	-1.000000	-1.000000	-1.000000	-1.000000	-1.000000	-1.000000	65.000000	0.000000	-1.000000	-1.000000	269448.000000	1775713462.221543
-42499.305000	-75017.835000	-60016.050000	-23436.045000	-9564.435000	-78172.920000	-183.960000	-5227.065000	-4.731321	-6.482315	-5.962729	-4.605808	-6.048378	-11.746506	-1.309078	-2.250237	-0.518840	1.571780	-0.564620	-0.811399	0.072449	0.561156	-1.000000	-1.000000	-1.000000	-1.000000	-1.000000	-1.000000	-1.000000	65.000000	0.000000	-1.000000	-1.000000	269449.000000	1775713462.227885
-42483.870000	-75006.630000	-60004.395000	-23431.635000	-9573.615000	-78281.640000	-186.210000	-5218.245000	-5.381839	-8.099074	-10.335713	-6.944443	-2.085531	20.667773	3.656262	-1.618239	-0.518840	1.571780	-0.564620	-0.811399	0.072449	0.561156	-1.000000	-1.000000	-1.000000	-1.000000	-1.000000	-1.000000	-1.000000	65.000000	0.000000	-1.000000	-1.000000	269450.000000	1775713462.227911
-42485.310000	-75007.395000	-59999.535000	-23426.460000	-9567.495000	-78284.205000	-189.810000	-5218.155000	-2.920287	-6.381451	-10.910436	-6.686694	2.587372	43.393366	6.309556	0.030723	0.259420	1.083460	0.808780	-0.811033	0.073608	0.562743	-1.000000	-1.000000	-1.000000	-1.000000	-1.000000	-1.000000	-1.000000	65.000000	0.000000	-1.000000	-1.000000	269451.000000	1775713462.230416
-42488.505000	-75004.110000	-59993.550000	-23420.205000	-9548.505000	-78188.805000	-189.135000	-5219.190000	1.714957	-1.275911	-5.359918	-2.640550	6.465229	40.500413	5.595705	2.259649	0.259420	1.083460	0.808780	-0.811033	0.073608	0.562743	-1.000000	-1.000000	-1.000000	-1.000000	-1.000000	-1.000000	-1.000000	65.000000	0.000000	-1.000000	-1.000000	269452.000000	1775713462.230435
-42479.100000	-74993.445000	-59985.810000	-23418.270000	-9550.215000	-78150.600000	-182.880000	-5213.295000	5.458934	4.859238	3.945677	3.596425	9.271798	24.452806	2.690911	3.633862	0.259420	1.083460	0.808780	-0.811033	0.073608	0.562743	-1.000000	-1.000000	-1.000000	-1.000000	-1.000000	-1.000000	-1.000000	65.000000	0.000000	-1.000000	-1.000000	269453.000000	1775713462.231083
-42484.005000	-74999.340000	-59993.955000	-23428.305000	-9571.095000	-78196.545000	-182.565000	-5217.120000	6.377823	9.125466	11.733443	8.366481	9.595448	10.913360	-0.105120	3.377162	0.259420	1.083460	0.808780	-0.811033	0.073608	0.562743	-1.000000	-1.000000	-1.000000	-1.000000	-1.000000	-1.000000	-1.000000	65.000000	0.000000	-1.000000	-1.000000	269454.000000	1775713462.231100
-42488.010000	-75000.825000	-59992.605000	-23425.470000	-9567.675000	-78214.905000	-187.245000	-5220.900000	4.414054	9.455232	13.679793	8.719495	5.486482	-0.995175	-1.571610	1.616658	0.259420	1.083460	0.808780	-0.811033	0.073608	0.562743	-1.000000	-1.000000	-1.000000	-1.000000	-1.000000	-1.000000	-1.000000	65.000000	0.000000	-1.000000	-1.000000	269455.000000	1775713462.240844
-42494.310000	-75009.735000	-60000.075000	-23426.460000	-9561.015000	-78195.060000	-184.680000	-5221.980000	0.467607	5.502790	9.147838	4.904259	-1.496081	-15.871670	-2.064111	-1.007865	0.259420	1.083460	0.808780	-0.811033	0.073608	0.562743	-1.000000	-1.000000	-1.000000	-1.000000	-1.000000	-1.000000	-1.000000	65.000000	0.000000	-1.000000	-1.000000	269456.000000	1775713462.240883
-42493.770000	-75010.995000	-60000.930000	-23426.145000	-9557.595000	-78201.360000	-185.715000	-5220.990000	-3.691681	-0.788274	1.164053	-0.201356	-6.705975	-28.697828	-2.107698	-3.249354	0.259420	1.083460	0.808780	-0.811033	0.073608	0.562743	-1.000000	-1.000000	-1.000000	-1.000000	-1.000000	-1.000000	-1.000000	65.000000	0.000000	-1.000000	-1.000000	269457.000000	1775713462.240913
-42488.550000	-75005.100000	-59994.135000	-23421.375000	-9553.410000	-78208.470000	-187.740000	-5217.120000	-5.849498	-6.037823	-5.844506	-3.754530	-7.285111	-31.891791	-1.804401	-3.793419	0.259420	1.083460	0.808780	-0.811033	0.073608	0.562743	-1.000000	-1.000000	-1.000000	-1.000000	-1.000000	-1.000000	-1.000000	65.000000	0.000000	-1.000000	-1.000000	269458.000000	1775713462.240926
-42489.765000	-75001.725000	-59986.125000	-23413.320000	-9540.090000	-78194.250000	-186.075000	-5217.930000	-4.782744	-7.396747	-8.422276	-4.381752	-3.958804	-24.217788	-1.235455	-2.321737	0.259420	1.083460	0.808780	-0.811033	0.073608	0.562743	-1.000000	-1.000000	-1.000000	-1.000000	-1.000000	-1.000000	-1.000000	65.000000	0.000000	-1.000000	-1.000000	269459.000000	1775713462.246939
-42491.475000	-75000.105000	-59982.615000	-23413.140000	-9547.425000	-78234.345000	-183.240000	-5216.355000	-1.448852	-4.594394	-5.996758	-2.453706	0.586657	-10.365937	-0.415486	0.151235	0.259420	1.083460	0.808780	-0.811033	0.073608	0.562743	-1.000000	-1.000000	-1.000000	-1.000000	-1.000000	-1.000000	-1.000000	65.000000	0.000000	-1.000000	-1.000000	269460.000000	1775713462.246963
-42488.370000	-74999.610000	-59987.430000	-23419.980000	-9562.185000	-78236.280000	-186.840000	-5213.880000	1.896943	-0.014587	-1.221617	0.015117	3.014222	2.390578	0.578719	2.184528	-1.098720	0.808780	1.602300	-0.811338	0.073852	0.561705	-1.000000	-1.000000	-1.000000	-1.000000	-1.000000	-1.000000	-1.000000	65.000000	0.000000	-1.000000	-1.000000	269461.000000	1775713462.249711
-42484.140000	-75001.545000	-59997.555000	-23429.340000	-9565.830000	-78196.815000	-192.420000	-5213.115000	3.779723	3.382526	2.037838	0.667355	1.314828	10.256113	1.163599	2.980106	-1.098720	0.808780	1.602300	-0.811338	0.073852	0.561705	-1.000000	-1.000000	-1.000000	-1.000000	-1.000000	-1.000000	-1.000000	65.000000	0.000000	-1.000000	-1.000000	269462.000000	1775713462.249733
-42486.525000	-74996.505000	-59989.995000	-23421.015000	-9555.570000	-78222.915000	-188.325000	-5211.090000	4.001827	4.125559	1.878069	-0.918974	-2.711548	14.926388	0.854802	2.521769	-1.098720	0.808780	1.602300	-0.811338	0.073852	0.561705	-1.000000	-1.000000	-1.000000	-1.000000	-1.000000	-1.000000	-1.000000	65.000000	0.000000	-1.000000	-1.000000	269463.000000	1775713462.255366
-42499.575000	-74998.845000	-59991.345000	-23425.695000	-9566.145000	-78255.720000	-190.035000	-5219.055000	2.569788	2.718626	-0.218122	-2.722063	-5.066506	16.283757	0.149510	1.108366	-1.098720	0.808780	1.602300	-0.811338	0.073852	0.561705	-1.000000	-1.000000	-1.000000	-1.000000	-1.000000	-1.000000	-1.000000	65.000000	0.000000	-1.000000	-1.000000	269464.000000	1775713462.255395
-42494.580000	-75001.365000	-59994.720000	-23427.855000	-9561.645000	-78197.445000	-188.235000	-5215.950000	-0.294240	0.446924	-1.730421	-2.854585	-3.969064	12.541958	-0.126368	-0.851470	-1.098720	0.808780	1.602300	-0.811338	0.073852	0.561705	-1.000000	-1.000000	-1.000000	-1.000000	-1.000000	-1.000000	-1.000000	65.000000	0.000000	-1.000000	-1.000000	269465.000000	1775713462.259884
-42486.840000	-75012.480000	-60007.905000	-23438.565000	-9569.565000	-78215.805000	-185.715000	-5214.645000	-2.921144	-1.878780	-2.006093	-1.572014	-0.741172	6.987962	0.247951	-2.469845	-1.098720	0.808780	1.602300	-0.811338	0.073852	0.561705	-1.000000	-1.000000	-1.000000	-1.000000	-1.000000	-1.000000	-1.000000	65.000000	0.000000	-1.000000	-1.000000	269466.000000	1775713462.259912
-42490.755000	-75019.635000	-60014.700000	-23442.165000	-9570.105000	-78191.820000	-185.580000	-5218.245000	-3.264768	-3.929920	-1.973986	-0.256266	2.370998	3.695090	0.949331	-2.805723	-1.098720	0.808780	1.602300	-0.811338	0.073852	0.561705	-1.000000	-1.000000	-1.000000	-1.000000	-1.000000	-1.000000	-1.000000	65.000000	0.000000	-1.000000	-1.000000	269467.000000	1775713462.271601
-42494.940000	-75014.325000	-60008.895000	-23439.690000	-9566.685000	-78188.895000	-186.705000	-5222.340000	-1.538896	-4.971502	-1.895832	0.531476	4.011413	2.292683	1.372637	-1.993312	-1.098720	0.808780	1.602300	-0.811338	0.073852	0.561705	-1.000000	-1.000000	-1.000000	-1.000000	-1.000000	-1.000000	-1.000000	65.000000	0.000000	-1.000000	-1.000000	269468.000000	1775713462.271629
-42493.905000	-75009.870000	-60003.945000	-23438.385000	-9565.605000	-78198.390000	-184.545000	-5219.415000	0.296019	-3.710437	-0.651346	1.423237	4.282313	0.530467	1.066316	-0.846231	-1.098720	0.808780	1.602300	-0.811338	0.073852	0.561705	-1.000000	-1.000000	-1.000000	-1.000000	-1.000000	-1.000000	-1.000000	65.000000	0.000000	-1.000000	-1.000000	269469.000000	1775713462.271656
-42487.020000	-75005.100000	-59999.625000	-23432.085000	-9560.880000	-78205.455000	-182.385000	-5212.215000	1.215733	0.136648	2.361008	2.946029	3.852036	-3.377702	0.237852	0.421309	-1.098720	0.808780	1.602300	-0.811338	0.073852	0.561705	-1.000000	-1.000000	-1.000000	-1.000000	-1.000000	-1.000000	-1.000000	65.000000	0.000000	-1.000000	-1.000000	269470.000000	1775713462.271668
-42488.640000	-75003.660000	-60004.080000	-23437.665000	-9565.965000	-78213.195000	-188.010000	-5215.455000	1.597791	4.775163	5.657341	4.499398	2.945669	-9.039784	-0.626978	1.922392	-0.869820	0.763000	0.198380	-0.811949	0.073974	0.562621	-1.000000	-1.000000	-1.000000	-1.000000	-1.000000	-1.000000	-1.000000	65.000000	0.000000	-1.000000	-1.000000	269471.000000	1775713462.271683
-42489.855000	-75003.030000	-60002.910000	-23439.780000	-9568.890000	-78206.490000	-186.975000	-5216.130000	1.671749	7.540330	6.818246	4.675372	1.282042	-13.325108	-1.385304	2.993234	-0.869820	0.763000	0.198380	-0.811949	0.073974	0.562621	-1.000000	-1.000000	-1.000000	-1.000000	-1.000000	-1.000000	-1.000000	65.000000	0.000000	-1.000000	-1.000000	269472.000000	1775713462.271694
-42484.545000	-74993.445000	-59990.715000	-23429.340000	-9564.255000	-78200.505000	-181.125000	-5210.910000	1.216418	7.060717	5.089910	2.920416	-1.025357	-12.765569	-1.790241	2.808656	-0.869820	0.763000	0.198380	-0.811949	0.073974	0.562621	-1.000000	-1.000000	-1.000000	-1.000000	-1.000000	-1.000000	-1.000000	65.000000	0.000000	-1.000000	-1.000000	269473.000000	1775713462.277225
-42490.755000	-75003.030000	-59997.645000	-23432.580000	-9563.895000	-78210.090000	-181.080000	-5210.415000	0.317017	3.930177	1.894573	0.422327	-2.869190	-6.885503	-1.300457	1.614042	-0.869820	0.763000	0.198380	-0.811949	0.073974	0.562621	-1.000000	-1.000000	-1.000000	-1.000000	-1.000000	-1.000000	-1.000000	65.000000	0.000000	-1.000000	-1.000000	269474.000000	1775713462.277250
-42491.790000	-75004.965000	-59998.590000	-23433.300000	-9562.275000	-78202.890000	-184.230000	-5212.215000	-0.819698	-0.562487	-1.382601	-1.577056	-3.238645	1.032623	-0.106419	0.160836	-0.869820	0.763000	0.198380	-0.811949	0.073974	0.562621	-1.000000	-1.000000	-1.000000	-1.000000	-1.000000	-1.000000	-1.000000	65.000000	0.000000	-1.000000	-1.000000	269475.000000	1775713462.283319
-42494.715000	-75004.515000	-60000.615000	-23436.945000	-9567.270000	-78196.365000	-190.395000	-5216.805000	-1.986265	-4.940680	-4.213170	-2.957627	-2.358498	7.276154	0.658020	-1.269704	-0.869820	0.763000	0.198380	-0.811949	0.073974	0.562621	-1.000000	-1.000000	-1.000000	-1.000000	-1.000000	-1.000000	-1.000000	65.000000	0.000000	-1.000000	-1.000000	269476.000000	1775713462.283344
