Channel1	Channel2	Channel3	Channel4	Channel5	Channel6	Channel7	Channel8	FilteredChannel1	FilteredChannel2	FilteredChannel3	FilteredChannel4	FilteredChannel5	FilteredChannel6	FilteredChannel7	FilteredChannel8	GyroX	GyroY	GyroZ	AccX	AccY	AccZ	PPG1	PPG2	rawPPG1	rawPPG2	rawPPG3	Hr	Hrv	Battery	Trigger	PhysicalTrigger	AutoTrigger	NumMeasurements	Timestamp
-27985.950000	-5233.635000	987.705000	-5266.620000	-18281.070000	-32031.585000	14964.120000	39274.695000	2.456277	1.839171	1.774819	0.969128	3.859907	3.128963	0.806072	2.660677	-1.526000	3.326680	-0.564620	-0.666563	0.020569	0.731810	-1.000000	-1.000000	-1.000000	-1.000000	-1.000000	-1.000000	-1.000000	63.000000	0.000000	-1.000000	-1.000000	674035.000000	1775714271.755686
-27999.765000	-5251.140000	966.420000	-5286.600000	-18296.595000	-31978.305000	14964.930000	39263.895000	1.806763	1.581684	2.265252	0.765263	1.414242	-6.931321	-1.305462	0.843921	-1.526000	3.326680	-0.564620	-0.666563	0.020569	0.731810	-1.000000	-1.000000	-1.000000	-1.000000	-1.000000	-1.000000	-1.000000	63.000000	0.000000	-1.000000	-1.000000	674036.000000	1775714271.755714
-28006.155000	-5258.790000	959.310000	-5291.370000	-18295.245000	-31926.375000	14964.480000	39257.235000	-0.575829	-0.612545	0.188169	-1.216144	-2.895496	-11.684240	-2.410448	-2.026418	-1.526000	3.326680	-0.564620	-0.666563	0.020569	0.731810	-1.000000	-1.000000	-1.000000	-1.000000	-1.000000	-1.000000	-1.000000	63.000000	0.000000	-1.000000	-1.000000	674037.000000	1775714271.755741
-27994.635000	-5246.955000	971.460000	-5279.490000	-18290.070000	-31955.580000	14965.875000	39265.605000	-3.883048	-4.232368	-4.123742	-4.731417	-7.918094	-5.807925	-2.025128	-4.910020	-1.526000	3.326680	-0.564620	-0.666563	0.020569	0.731810	-1.000000	-1.000000	-1.000000	-1.000000	-1.000000	-1.000000	-1.000000	63.000000	0.000000	-1.000000	-1.000000	674038.000000	1775714271.755754
-27990.630000	-5245.155000	971.955000	-5281.290000	-18294.615000	-31971.960000	14964.120000	39269.745000	-5.474548	-6.257459	-7.023900	-6.728982	-10.457941	3.291287	-0.806362	-5.706948	-1.526000	3.326680	-0.564620	-0.666563	0.020569	0.731810	-1.000000	-1.000000	-1.000000	-1.000000	-1.000000	-1.000000	-1.000000	63.000000	0.000000	-1.000000	-1.000000	674039.000000	1775714271.755768
-27997.830000	-5252.715000	963.855000	-5289.165000	-18298.980000	-31974.570000	14961.195000	39265.515000	-3.851795	-4.728305	-5.968637	-5.319009	-9.020433	4.735033	0.260340	-3.430214	-1.526000	3.326680	-0.564620	-0.666563	0.020569	0.731810	-1.000000	-1.000000	-1.000000	-1.000000	-1.000000	-1.000000	-1.000000	63.000000	0.000000	-1.000000	-1.000000	674040.000000	1775714271.755780
-28015.515000	-5267.070000	949.230000	-5302.665000	-18313.740000	-32009.130000	14953.500000	39253.320000	-0.998722	-1.442428	-2.606577	-2.206141	-5.144879	-2.912914	0.411425	0.026503	-1.693860	3.082520	0.274680	-0.666380	0.020813	0.732969	-1.000000	-1.000000	-1.000000	-1.000000	-1.000000	-1.000000	-1.000000	63.000000	0.000000	-1.000000	-1.000000	674041.000000	1775714271.755793
-28027.305000	-5277.960000	939.735000	-5313.285000	-18326.880000	-32033.745000	14944.005000	39243.420000	-0.025282	0.473831	-0.157351	-0.138387	-1.494034	-13.526420	-0.568803	1.727876	-1.693860	3.082520	0.274680	-0.666380	0.020813	0.732969	-1.000000	-1.000000	-1.000000	-1.000000	-1.000000	-1.000000	-1.000000	63.000000	0.000000	-1.000000	-1.000000	674042.000000	1775714271.755804
-28024.605000	-5277.465000	937.620000	-5317.065000	-18334.215000	-32033.655000	14942.745000	39243.060000	-1.308211	0.213476	0.325488	0.145719	0.499352	-19.920603	-2.064518	0.856793	-1.693860	3.082520	0.274680	-0.666380	0.020813	0.732969	-1.000000	-1.000000	-1.000000	-1.000000	-1.000000	-1.000000	-1.000000	63.000000	0.000000	-1.000000	-1.000000	674043.000000	1775714271.759908
-27993.690000	-5245.470000	969.795000	-5285.340000	-18299.745000	-31978.845000	14940.945000	39264.255000	-1.628017	0.273283	0.942665	0.704560	2.182187	-15.910133	-2.715634	-0.288485	-1.693860	3.082520	0.274680	-0.666380	0.020813	0.732969	-1.000000	-1.000000	-1.000000	-1.000000	-1.000000	-1.000000	-1.000000	63.000000	0.000000	-1.000000	-1.000000	674044.000000	1775714271.759935
-27953.865000	-5204.745000	1012.590000	-5242.680000	-18254.115000	-31924.080000	14977.980000	39297.825000	2.803795	4.195750	5.032979	4.822858	6.901307	1.032210	-0.862688	1.708243	-1.693860	3.082520	0.274680	-0.666380	0.020813	0.732969	-1.000000	-1.000000	-1.000000	-1.000000	-1.000000	-1.000000	-1.000000	63.000000	0.000000	-1.000000	-1.000000	674045.000000	1775714271.764980
-27968.265000	-5224.320000	993.195000	-5263.875000	-18282.915000	-31961.430000	14998.320000	39292.380000	11.038548	11.375971	12.176968	12.108018	14.506064	23.768048	4.506532	7.201390	-1.693860	3.082520	0.274680	-0.666380	0.020813	0.732969	-1.000000	-1.000000	-1.000000	-1.000000	-1.000000	-1.000000	-1.000000	63.000000	0.000000	-1.000000	-1.000000	674046.000000	1775714271.765006
-27983.925000	-5240.340000	977.805000	-5278.770000	-18300.690000	-31997.835000	14977.485000	39280.680000	15.651499	14.770614	15.507578	15.650868	17.698533	35.702385	10.822504	11.213636	-1.693860	3.082520	0.274680	-0.666380	0.020813	0.732969	-1.000000	-1.000000	-1.000000	-1.000000	-1.000000	-1.000000	-1.000000	63.000000	0.000000	-1.000000	-1.000000	674047.000000	1775714271.765822
-27994.590000	-5246.640000	971.820000	-5283.405000	-18300.555000	-32040.720000	14962.860000	39269.430000	10.011561	8.268449	8.853497	9.247733	10.130788	25.014447	11.688435	8.072715	-1.693860	3.082520	0.274680	-0.666380	0.020813	0.732969	-1.000000	-1.000000	-1.000000	-1.000000	-1.000000	-1.000000	-1.000000	63.000000	0.000000	-1.000000	-1.000000	674048.000000	1775714271.765842
-28003.995000	-5253.165000	965.340000	-5289.840000	-18306.000000	-32041.710000	14952.870000	39260.520000	-3.817163	-5.352761	-5.091862	-4.393195	-4.561436	-2.335311	3.734816	-1.978096	-1.693860	3.082520	0.274680	-0.666380	0.020813	0.732969	-1.000000	-1.000000	-1.000000	-1.000000	-1.000000	-1.000000	-1.000000	63.000000	0.000000	-1.000000	-1.000000	674049.000000	1775714271.770894
-27996.840000	-5247.090000	970.785000	-5283.495000	-18291.915000	-31943.925000	14947.875000	39265.380000	-16.933249	-17.170816	-17.377909	-16.433023	-16.584444	-25.681109	-8.600116	-12.694370	-1.693860	3.082520	0.274680	-0.666380	0.020813	0.732969	-1.000000	-1.000000	-1.000000	-1.000000	-1.000000	-1.000000	-1.000000	63.000000	0.000000	-1.000000	-1.000000	674050.000000	1775714271.770919
-27974.205000	-5221.080000	999.585000	-5251.905000	-18255.735000	-31907.970000	14959.980000	39280.635000	-20.824753	-19.626513	-20.267000	-19.283499	-18.364495	-25.945311	-16.989886	-16.929352	-4.898460	3.662400	0.457800	-0.667479	0.019470	0.730833	-1.000000	-1.000000	-1.000000	-1.000000	-1.000000	-1.000000	-1.000000	63.000000	0.000000	-1.000000	-1.000000	674051.000000	1775714271.775769
-28032.300000	-5273.145000	952.605000	-5296.590000	-18309.555000	-32032.035000	14947.245000	39235.860000	-14.193754	-12.243644	-12.923170	-12.077795	-10.136191	-6.287854	-16.245857	-12.712972	-4.898460	3.662400	0.457800	-0.667479	0.019470	0.730833	-1.000000	-1.000000	-1.000000	-1.000000	-1.000000	-1.000000	-1.000000	63.000000	0.000000	-1.000000	-1.000000	674052.000000	1775714271.775796
-28153.080000	-5381.595000	850.680000	-5393.205000	-18414.180000	-32210.100000	14846.985000	39134.790000	-6.368457	-4.213704	-4.231781	-3.549077	-2.295816	6.140188	-9.737717	-6.781319	-4.898460	3.662400	0.457800	-0.667479	0.019470	0.730833	-1.000000	-1.000000	-1.000000	-1.000000	-1.000000	-1.000000	-1.000000	63.000000	0.000000	-1.000000	-1.000000	674053.000000	1775714271.778770
-28236.285000	-5465.430000	763.785000	-5473.395000	-18485.595000	-32296.005000	14759.685000	39059.910000	-8.862171	-6.652465	-5.633540	-4.976659	-6.354965	-9.431914	-7.475728	-8.433872	-4.898460	3.662400	0.457800	-0.667479	0.019470	0.730833	-1.000000	-1.000000	-1.000000	-1.000000	-1.000000	-1.000000	-1.000000	63.000000	0.000000	-1.000000	-1.000000	674054.000000	1775714271.778800
-28171.215000	-5424.930000	791.055000	-5451.255000	-18466.245000	-32215.995000	14752.530000	39110.940000	-18.189012	-16.932371	-15.771234	-15.147782	-18.974435	-38.075889	-13.045421	-15.511689	-4.898460	3.662400	0.457800	-0.667479	0.019470	0.730833	-1.000000	-1.000000	-1.000000	-1.000000	-1.000000	-1.000000	-1.000000	63.000000	0.000000	-1.000000	-1.000000	674055.000000	1775714271.782556
-27926.550000	-5194.845000	1016.280000	-5231.745000	-18243.450000	-31897.035000	14926.455000	39309.435000	-11.614453	-13.935591	-14.634110	-14.783738	-18.826324	-37.537384	-13.020625	-9.846671	-4.898460	3.662400	0.457800	-0.667479	0.019470	0.730833	-1.000000	-1.000000	-1.000000	-1.000000	-1.000000	-1.000000	-1.000000	63.000000	0.000000	-1.000000	-1.000000	674056.000000	1775714271.782586
-27834.795000	-5110.065000	1106.055000	-5143.815000	-18165.465000	-31750.245000	15108.975000	39406.320000	28.243515	20.504115	16.942663	14.882140	12.626286	18.583659	12.265920	23.465360	-4.898460	3.662400	0.457800	-0.667479	0.019470	0.730833	-1.000000	-1.000000	-1.000000	-1.000000	-1.000000	-1.000000	-1.000000	63.000000	0.000000	-1.000000	-1.000000	674057.000000	1775714271.786763
-27854.280000	-5123.070000	1102.635000	-5144.445000	-18183.645000	-31777.515000	15108.660000	39394.935000	81.472879	70.548943	65.967739	61.924023	61.403067	100.507642	59.591284	69.177172	-4.898460	3.662400	0.457800	-0.667479	0.019470	0.730833	-1.000000	-1.000000	-1.000000	-1.000000	-1.000000	-1.000000	-1.000000	63.000000	0.000000	-1.000000	-1.000000	674058.000000	1775714271.786829
-27913.815000	-5177.115000	1047.420000	-5202.675000	-18252.945000	-31828.995000	15045.660000	39346.650000	100.504481	92.343092	90.211267	85.778718	85.092056	139.065959	91.826051	87.583389	-4.898460	3.662400	0.457800	-0.667479	0.019470	0.730833	-1.000000	-1.000000	-1.000000	-1.000000	-1.000000	-1.000000	-1.000000	63.000000	0.000000	-1.000000	-1.000000	674059.000000	1775714271.790559
-27935.100000	-5195.610000	1010.745000	-5269.635000	-18275.940000	-31850.460000	15003.720000	39318.660000	58.810812	58.880604	60.720064	57.408602	55.975088	93.308772	71.846551	54.117247	-4.898460	3.662400	0.457800	-0.667479	0.019470	0.730833	-1.000000	-1.000000	-1.000000	-1.000000	-1.000000	-1.000000	-1.000000	63.000000	0.000000	-1.000000	-1.000000	674060.000000	1775714271.790587
-27937.890000	-5190.930000	1015.065000	-5258.385000	-18236.655000	-31890.465000	14987.970000	39311.550000	-21.954960	-12.630440	-8.946889	-11.322836	-9.783485	-12.086578	3.247481	-15.411663	-14.207060	-5.875100	2.044840	-0.671690	0.022644	0.729918	-1.000000	-1.000000	-1.000000	-1.000000	-1.000000	-1.000000	-1.000000	63.000000	0.000000	-1.000000	-1.000000	674061.000000	1775714271.794104
-27943.470000	-5193.900000	1019.340000	-5237.865000	-18251.415000	-31970.700000	14985.585000	39307.545000	-93.313253	-78.536640	-76.044605	-77.394495	-68.981691	-115.742598	-72.544435	-79.822431	-14.207060	-5.875100	2.044840	-0.671690	0.022644	0.729918	-1.000000	-1.000000	-1.000000	-1.000000	-1.000000	-1.000000	-1.000000	63.000000	0.000000	-1.000000	-1.000000	674062.000000	1775714271.794128
-27951.300000	-5202.090000	1012.275000	-5243.535000	-18244.350000	-31956.705000	14983.380000	39300.345000	-118.901107	-104.796029	-104.069223	-102.169647	-89.923771	-166.964029	-112.470275	-105.508900	-14.207060	-5.875100	2.044840	-0.671690	0.022644	0.729918	-1.000000	-1.000000	-1.000000	-1.000000	-1.000000	-1.000000	-1.000000	63.000000	0.000000	-1.000000	-1.000000	674063.000000	1775714271.802316
-27963.405000	-5211.540000	1004.940000	-5244.615000	-18225.630000	-31896.450000	14975.235000	39288.510000	-94.193866	-86.103773	-85.644715	-78.734356	-70.197984	-146.600911	-100.781537	-85.954452	-14.207060	-5.875100	2.044840	-0.671690	0.022644	0.729918	-1.000000	-1.000000	-1.000000	-1.000000	-1.000000	-1.000000	-1.000000	63.000000	0.000000	-1.000000	-1.000000	674064.000000	1775714271.802342
-27965.340000	-5214.915000	1002.285000	-5249.205000	-18242.730000	-31962.645000	14973.480000	39288.735000	-39.832270	-40.037066	-38.657323	-28.371883	-27.711717	-69.632577	-51.695205	-38.162822	-14.207060	-5.875100	2.044840	-0.671690	0.022644	0.729918	-1.000000	-1.000000	-1.000000	-1.000000	-1.000000	-1.000000	-1.000000	63.000000	0.000000	-1.000000	-1.000000	674065.000000	1775714271.802818
-27966.420000	-5217.480000	998.235000	-5254.695000	-18252.225000	-31960.485000	14974.920000	39290.895000	16.547363	9.254089	11.306120	20.603897	13.874923	21.857916	6.691895	13.184080	-14.207060	-5.875100	2.044840	-0.671690	0.022644	0.729918	-1.000000	-1.000000	-1.000000	-1.000000	-1.000000	-1.000000	-1.000000	63.000000	0.000000	-1.000000	-1.000000	674066.000000	1775714271.802835
-27970.605000	-5223.510000	989.280000	-5263.560000	-18260.460000	-31936.725000	14974.020000	39286.350000	54.629387	43.659156	45.105884	49.200131	37.668148	86.285744	50.106749	49.060093	-14.207060	-5.875100	2.044840	-0.671690	0.022644	0.729918	-1.000000	-1.000000	-1.000000	-1.000000	-1.000000	-1.000000	-1.000000	63.000000	0.000000	-1.000000	-1.000000	674067.000000	1775714271.812539
-27971.190000	-5222.340000	993.240000	-5258.430000	-18254.790000	-31930.155000	14974.470000	39283.335000	66.654795	55.950597	55.638119	53.047115	40.536564	107.552955	67.048873	61.242617	-14.207060	-5.875100	2.044840	-0.671690	0.022644	0.729918	-1.000000	-1.000000	-1.000000	-1.000000	-1.000000	-1.000000	-1.000000	63.000000	0.000000	-1.000000	-1.000000	674068.000000	1775714271.812558
-27989.550000	-5236.965000	981.900000	-5268.195000	-18266.445000	-31948.515000	14960.880000	39267.855000	55.834171	48.628927	46.609650	39.155129	29.775115	91.625853	58.807604	51.684644	-14.207060	-5.875100	2.044840	-0.671690	0.022644	0.729918	-1.000000	-1.000000	-1.000000	-1.000000	-1.000000	-1.000000	-1.000000	63.000000	0.000000	-1.000000	-1.000000	674069.000000	1775714271.812579
-28031.175000	-5267.295000	954.810000	-5293.935000	-18297.495000	-32019.930000	14925.285000	39230.955000	30.972538	29.128895	26.679870	17.994192	14.240578	51.892319	34.185536	28.441594	-14.207060	-5.875100	2.044840	-0.671690	0.022644	0.729918	-1.000000	-1.000000	-1.000000	-1.000000	-1.000000	-1.000000	-1.000000	63.000000	0.000000	-1.000000	-1.000000	674070.000000	1775714271.812586
-28076.490000	-5299.110000	915.885000	-5331.645000	-18338.355000	-32112.360000	14870.205000	39190.050000	1.603753	5.455439	3.831531	-2.756140	-1.026758	1.936973	3.558239	0.952543	-22.890000	0.579880	-1.220800	-0.685606	0.028747	0.725218	-1.000000	-1.000000	-1.000000	-1.000000	-1.000000	-1.000000	-1.000000	63.000000	0.000000	-1.000000	-1.000000	674071.000000	1775714271.813906
-28059.930000	-5290.830000	926.595000	-5321.565000	-18324.045000	-32089.230000	14862.600000	39203.820000	-22.415582	-14.432313	-15.116036	-17.987566	-12.699885	-42.554315	-23.122882	-21.273807	-22.890000	0.579880	-1.220800	-0.685606	0.028747	0.725218	-1.000000	-1.000000	-1.000000	-1.000000	-1.000000	-1.000000	-1.000000	63.000000	0.000000	-1.000000	-1.000000	674072.000000	1775714271.813933
-27964.710000	-5226.120000	989.910000	-5264.370000	-18265.815000	-31961.340000	14963.310000	39295.350000	-29.794976	-22.002760	-22.371121	-21.941836	-15.127774	-60.741241	-34.408687	-27.883190	-22.890000	0.579880	-1.220800	-0.685606	0.028747	0.725218	-1.000000	-1.000000	-1.000000	-1.000000	-1.000000	-1.000000	-1.000000	63.000000	0.000000	-1.000000	-1.000000	674073.000000	1775714271.821216
-27883.710000	-5179.005000	1048.905000	-5207.040000	-18197.550000	-31822.200000	15077.655000	39375.900000	-13.580325	-12.257354	-12.465672	-10.514056	-3.457703	-37.493750	-20.351879	-12.481648	-22.890000	0.579880	-1.220800	-0.685606	0.028747	0.725218	-1.000000	-1.000000	-1.000000	-1.000000	-1.000000	-1.000000	-1.000000	63.000000	0.000000	-1.000000	-1.000000	674074.000000	1775714271.821241
-27951.210000	-5247.855000	982.845000	-5269.140000	-18249.345000	-31870.170000	15055.875000	39329.235000	16.202237	7.325593	7.979003	9.810639	16.548333	14.949777	13.619110	15.982357	-22.890000	0.579880	-1.220800	-0.685606	0.028747	0.725218	-1.000000	-1.000000	-1.000000	-1.000000	-1.000000	-1.000000	-1.000000	63.000000	0.000000	-1.000000	-1.000000	674075.000000	1775714271.821755
-27971.460000	-5230.305000	978.615000	-5272.965000	-18259.155000	-31936.050000	14988.105000	39301.920000	33.691638	18.859039	20.517011	21.890628	27.720558	55.700100	40.625949	33.472012	-22.890000	0.579880	-1.220800	-0.685606	0.028747	0.725218	-1.000000	-1.000000	-1.000000	-1.000000	-1.000000	-1.000000	-1.000000	63.000000	0.000000	-1.000000	-1.000000	674076.000000	1775714271.821773
-27956.025000	-5193.855000	1010.835000	-5250.375000	-18255.780000	-31947.795000	14987.970000	39308.535000	22.774881	13.551561	14.359176	15.658209	18.673427	50.800268	35.222532	23.547451	-22.890000	0.579880	-1.220800	-0.685606	0.028747	0.725218	-1.000000	-1.000000	-1.000000	-1.000000	-1.000000	-1.000000	-1.000000	63.000000	0.000000	-1.000000	-1.000000	674077.000000	1775714271.825238
-27966.870000	-5217.165000	994.905000	-5253.840000	-18254.700000	-31933.395000	14995.530000	39303.360000	-6.348974	-0.572236	-2.540884	-1.245144	-3.657054	6.578544	0.992025	-5.625066	-22.890000	0.579880	-1.220800	-0.685606	0.028747	0.725218	-1.000000	-1.000000	-1.000000	-1.000000	-1.000000	-1.000000	-1.000000	63.000000	0.000000	-1.000000	-1.000000	674078.000000	1775714271.825256
-27970.515000	-5236.515000	969.345000	-5279.625000	-18300.420000	-31969.530000	14986.980000	39300.480000	-32.033902	-13.438335	-17.319717	-15.922482	-24.259971	-41.913700	-35.403364	-32.651951	-22.890000	0.579880	-1.220800	-0.685606	0.028747	0.725218	-1.000000	-1.000000	-1.000000	-1.000000	-1.000000	-1.000000	-1.000000	63.000000	0.000000	-1.000000	-1.000000	674079.000000	1775714271.829471
-27993.915000	-5264.865000	939.195000	-5309.415000	-18347.175000	-32019.075000	14969.745000	39275.730000	-41.138788	-21.740366	-24.818534	-23.040789	-34.900074	-66.604466	-51.740207	-42.884721	-22.890000	0.579880	-1.220800	-0.685606	0.028747	0.725218	-1.000000	-1.000000	-1.000000	-1.000000	-1.000000	-1.000000	-1.000000	63.000000	0.000000	-1.000000	-1.000000	674080.000000	1775714271.829495
-28016.370000	-5283.720000	922.680000	-5344.425000	-18409.410000	-32074.560000	14945.130000	39251.430000	-33.696156	-24.778619	-25.138704	-23.644714	-35.745635	-62.631869	-44.333854	-35.538279	-14.054460	1.342880	6.744920	-0.679991	0.015076	0.723936	-1.000000	-1.000000	-1.000000	-1.000000	-1.000000	-1.000000	-1.000000	63.000000	0.000000	-1.000000	-1.000000	674081.000000	1775714271.834129
-28010.070000	-5271.930000	934.425000	-5354.235000	-18498.960000	-32114.745000	14940.315000	39258.585000	-16.929248	-21.101652	-18.476510	-19.395890	-30.174967	-39.899791	-22.595288	-18.095473	-14.054460	1.342880	6.744920	-0.679991	0.015076	0.723936	-1.000000	-1.000000	-1.000000	-1.000000	-1.000000	-1.000000	-1.000000	63.000000	0.000000	-1.000000	-1.000000	674082.000000	1775714271.834155
-27964.935000	-5209.065000	1018.260000	-5234.805000	-18235.305000	-31978.620000	14943.195000	39291.885000	2.929303	-8.566518	-3.622817	-8.121817	-15.531047	-7.410495	2.042106	2.550637	-14.054460	1.342880	6.744920	-0.679991	0.015076	0.723936	-1.000000	-1.000000	-1.000000	-1.000000	-1.000000	-1.000000	-1.000000	63.000000	0.000000	-1.000000	-1.000000	674083.000000	1775714271.838047
-27999.945000	-5227.695000	1018.080000	-5211.045000	-18161.325000	-32002.605000	14944.680000	39273.210000	21.468177	11.384460	18.164272	13.570427	18.908536	30.852838	21.888993	21.614204	-14.054460	1.342880	6.744920	-0.679991	0.015076	0.723936	-1.000000	-1.000000	-1.000000	-1.000000	-1.000000	-1.000000	-1.000000	63.000000	0.000000	-1.000000	-1.000000	674084.000000	1775714271.838068
-27983.565000	-5207.940000	1023.255000	-5229.000000	-18244.710000	-32029.740000	14937.255000	39284.595000	32.235738	29.382656	37.113910	38.052126	65.109392	63.160257	32.671684	33.140537	-14.054460	1.342880	6.744920	-0.679991	0.015076	0.723936	-1.000000	-1.000000	-1.000000	-1.000000	-1.000000	-1.000000	-1.000000	63.000000	0.000000	-1.000000	-1.000000	674085.000000	1775714271.842135
-27956.880000	-5196.285000	1016.955000	-5261.580000	-18287.910000	-31962.330000	15006.060000	39312.405000	31.130648	34.883413	40.152189	46.542462	85.713725	72.050006	33.945616	33.216481	-14.054460	1.342880	6.744920	-0.679991	0.015076	0.723936	-1.000000	-1.000000	-1.000000	-1.000000	-1.000000	-1.000000	-1.000000	63.000000	0.000000	-1.000000	-1.000000	674086.000000	1775714271.842167
-27942.480000	-5186.520000	1019.205000	-5267.655000	-18338.265000	-31928.130000	15021.765000	39321.855000	21.583762	25.985722	23.945267	28.912123	55.522144	55.249948	29.653013	24.255689	-14.054460	1.342880	6.744920	-0.679991	0.015076	0.723936	-1.000000	-1.000000	-1.000000	-1.000000	-1.000000	-1.000000	-1.000000	63.000000	0.000000	-1.000000	-1.000000	674087.000000	1775714271.846080
-27948.555000	-5194.980000	1005.300000	-5267.385000	-18321.165000	-31970.880000	14998.185000	39312.360000	9.222802	8.398713	-2.493394	-4.526025	-8.026719	24.678474	21.992738	11.009016	-14.054460	1.342880	6.744920	-0.679991	0.015076	0.723936	-1.000000	-1.000000	-1.000000	-1.000000	-1.000000	-1.000000	-1.000000	63.000000	0.000000	-1.000000	-1.000000	674088.000000	1775714271.846106
-27956.295000	-5190.255000	1011.465000	-5249.025000	-18239.805000	-31972.455000	14976.405000	39302.955000	-3.404298	-10.244886	-25.796025	-32.817090	-62.127318	-9.394750	8.072517	-3.635222	-14.054460	1.342880	6.744920	-0.679991	0.015076	0.723936	-1.000000	-1.000000	-1.000000	-1.000000	-1.000000	-1.000000	-1.000000	63.000000	0.000000	-1.000000	-1.000000	674089.000000	1775714271.861532
-27954.270000	-5186.115000	1027.035000	-5213.790000	-18162.765000	-31966.830000	14970.555000	39301.110000	-14.785845	-23.195586	-35.841264	-40.616921	-73.100092	-38.607723	-12.096658	-16.955918	-14.054460	1.342880	6.744920	-0.679991	0.015076	0.723936	-1.000000	-1.000000	-1.000000	-1.000000	-1.000000	-1.000000	-1.000000	63.000000	0.000000	-1.000000	-1.000000	674090.000000	1775714271.861558
-27969.075000	-5204.430000	1011.285000	-5229.090000	-18191.970000	-31955.940000	14965.920000	39289.185000	-22.212023	-26.854805	-30.202390	-27.252045	-41.004219	-53.223095	-30.507076	-25.099969	11.383960	11.078760	13.596660	-0.664793	-0.038330	0.731566	-1.000000	-1.000000	-1.000000	-1.000000	-1.000000	-1.000000	-1.000000	63.000000	0.000000	-1.000000	-1.000000	674091.000000	1775714271.861586
-27975.690000	-5207.985000	1005.885000	-5235.795000	-18198.630000	-31856.445000	14974.965000	39283.785000	-23.513755	-22.386634	-15.066313	-5.339513	3.280576	-46.693389	-37.370928	-25.446137	11.383960	11.078760	13.596660	-0.664793	-0.038330	0.731566	-1.000000	-1.000000	-1.000000	-1.000000	-1.000000	-1.000000	-1.000000	63.000000	0.000000	-1.000000	-1.000000	674092.000000	1775714271.861598
-27976.230000	-5209.470000	1001.880000	-5245.065000	-18234.810000	-32014.350000	14972.175000	39286.080000	-18.605493	-13.382012	0.246313	10.355536	27.442207	-23.818810	-29.246717	-18.343030	11.383960	11.078760	13.596660	-0.664793	-0.038330	0.731566	-1.000000	-1.000000	-1.000000	-1.000000	-1.000000	-1.000000	-1.000000	63.000000	0.000000	-1.000000	-1.000000	674093.000000	1775714271.861809
-27978.120000	-5211.585000	998.235000	-5253.930000	-18263.745000	-32164.065000	14953.455000	39284.775000	-9.045492	-2.873368	10.088121	13.795187	21.848386	-5.734006	-11.527191	-6.517985	11.383960	11.078760	13.596660	-0.664793	-0.038330	0.731566	-1.000000	-1.000000	-1.000000	-1.000000	-1.000000	-1.000000	-1.000000	63.000000	0.000000	-1.000000	-1.000000	674094.000000	1775714271.861828
-27964.575000	-5194.890000	1018.980000	-5232.420000	-18231.750000	-31986.945000	14960.115000	39295.710000	2.447251	6.992602	14.049381	8.772804	-0.340200	-6.290943	6.034347	6.031286	11.383960	11.078760	13.596660	-0.664793	-0.038330	0.731566	-1.000000	-1.000000	-1.000000	-1.000000	-1.000000	-1.000000	-1.000000	63.000000	0.000000	-1.000000	-1.000000	674095.000000	1775714271.862845
-27949.050000	-5179.320000	1034.145000	-5215.545000	-18198.270000	-31762.305000	14973.120000	39307.770000	12.884529	14.827385	14.825554	3.363210	-17.019222	-3.887598	17.064848	15.626365	11.383960	11.078760	13.596660	-0.664793	-0.038330	0.731566	-1.000000	-1.000000	-1.000000	-1.000000	-1.000000	-1.000000	-1.000000	63.000000	0.000000	-1.000000	-1.000000	674096.000000	1775714271.862865
-27954.135000	-5184.405000	1024.965000	-5220.855000	-18188.190000	-31776.480000	14990.895000	39307.365000	19.417365	19.165605	14.214490	2.478433	-14.860478	26.865224	21.226690	19.909925	11.383960	11.078760	13.596660	-0.664793	-0.038330	0.731566	-1.000000	-1.000000	-1.000000	-1.000000	-1.000000	-1.000000	-1.000000	63.000000	0.000000	-1.000000	-1.000000	674097.000000	1775714271.866189
-28005.840000	-5243.670000	961.245000	-5281.380000	-18239.715000	-31853.790000	14980.005000	39269.970000	18.477758	16.819682	9.894946	3.211547	0.491728	66.184956	20.165799	17.092578	11.383960	11.078760	13.596660	-0.664793	-0.038330	0.731566	-1.000000	-1.000000	-1.000000	-1.000000	-1.000000	-1.000000	-1.000000	63.000000	0.000000	-1.000000	-1.000000	674098.000000	1775714271.866213
-28030.680000	-5271.570000	929.925000	-5317.335000	-18291.105000	-31902.210000	14968.395000	39252.375000	7.793109	5.189332	-1.426294	-1.071144	11.907145	69.680212	14.084528	6.629351	11.383960	11.078760	13.596660	-0.664793	-0.038330	0.731566	-1.000000	-1.000000	-1.000000	-1.000000	-1.000000	-1.000000	-1.000000	63.000000	0.000000	-1.000000	-1.000000	674099.000000	1775714271.870739
-28004.805000	-5241.645000	961.155000	-5287.185000	-18277.335000	-31947.210000	14971.545000	39270.285000	-7.701837	-10.765495	-15.603466	-10.067745	9.424539	24.135380	3.678318	-7.054832	11.383960	11.078760	13.596660	-0.664793	-0.038330	0.731566	-1.000000	-1.000000	-1.000000	-1.000000	-1.000000	-1.000000	-1.000000	63.000000	0.000000	-1.000000	-1.000000	674100.000000	1775714271.870793
-27983.970000	-5215.770000	991.710000	-5257.620000	-18248.490000	-31959.945000	14973.975000	39284.235000	-16.387614	-18.675402	-20.676708	-13.793139	0.105147	-40.889104	-7.079216	-15.017074	32.915820	7.996240	6.867000	-0.661375	-0.057068	0.746336	-1.000000	-1.000000	-1.000000	-1.000000	-1.000000	-1.000000	-1.000000	63.000000	0.000000	-1.000000	-1.000000	674101.000000	1775714271.873527
-27981.180000	-5213.790000	994.320000	-5249.655000	-18227.205000	-31939.740000	14981.580000	39286.080000	-11.352864	-11.387354	-9.974781	-4.817186	-2.583044	-83.527874	-13.104885	-11.993835	32.915820	7.996240	6.867000	-0.661375	-0.057068	0.746336	-1.000000	-1.000000	-1.000000	-1.000000	-1.000000	-1.000000	-1.000000	63.000000	0.000000	-1.000000	-1.000000	674102.000000	1775714271.873546
-27980.550000	-5216.085000	990.585000	-5251.860000	-18223.785000	-31868.370000	14981.535000	39286.620000	2.225447	4.664954	8.919207	11.471501	5.090544	-79.486250	-12.379846	-1.703932	32.915820	7.996240	6.867000	-0.661375	-0.057068	0.746336	-1.000000	-1.000000	-1.000000	-1.000000	-1.000000	-1.000000	-1.000000	63.000000	0.000000	-1.000000	-1.000000	674103.000000	1775714271.883124
-27993.915000	-5235.075000	965.295000	-5283.855000	-18262.890000	-31914.315000	14970.465000	39278.565000	13.142884	16.481517	21.580927	22.119974	14.429463	-34.863588	-7.209993	7.542096	32.915820	7.996240	6.867000	-0.661375	-0.057068	0.746336	-1.000000	-1.000000	-1.000000	-1.000000	-1.000000	-1.000000	-1.000000	63.000000	0.000000	-1.000000	-1.000000	674104.000000	1775714271.883180
-28014.210000	-5257.755000	939.555000	-5308.650000	-18285.885000	-31983.390000	14965.785000	39264.570000	13.858295	15.882877	19.291108	18.407899	14.290228	18.335927	-1.954920	9.845039	32.915820	7.996240	6.867000	-0.661375	-0.057068	0.746336	-1.000000	-1.000000	-1.000000	-1.000000	-1.000000	-1.000000	-1.000000	63.000000	0.000000	-1.000000	-1.000000	674105.000000	1775714271.885414
-28009.215000	-5248.395000	949.770000	-5294.655000	-18268.290000	-31949.730000	14966.505000	39267.045000	5.007373	4.666842	4.925440	3.062207	3.040303	47.831637	0.787355	5.018436	32.915820	7.996240	6.867000	-0.661375	-0.057068	0.746336	-1.000000	-1.000000	-1.000000	-1.000000	-1.000000	-1.000000	-1.000000	63.000000	0.000000	-1.000000	-1.000000	674106.000000	1775714271.885443
-27998.595000	-5235.255000	963.720000	-5282.415000	-18263.025000	-31953.330000	14966.955000	39274.740000	-5.883468	-7.650248	-9.939250	-11.943369	-9.741973	47.180621	1.574035	-2.108696	32.915820	7.996240	6.867000	-0.661375	-0.057068	0.746336	-1.000000	-1.000000	-1.000000	-1.000000	-1.000000	-1.000000	-1.000000	63.000000	0.000000	-1.000000	-1.000000	674107.000000	1775714271.886068
-27996.615000	-5232.195000	965.880000	-5280.795000	-18263.745000	-31957.920000	14965.695000	39276.945000	-10.907931	-12.184620	-15.042040	-16.352586	-14.307181	30.612438	2.028650	-5.968739	32.915820	7.996240	6.867000	-0.661375	-0.057068	0.746336	-1.000000	-1.000000	-1.000000	-1.000000	-1.000000	-1.000000	-1.000000	63.000000	0.000000	-1.000000	-1.000000	674108.000000	1775714271.886086
-27994.005000	-5230.305000	967.410000	-5279.085000	-18261.630000	-31962.015000	14966.055000	39280.185000	-8.184062	-7.851845	-9.530017	-9.937981	-9.659970	12.263821	2.766777	-4.779615	32.915820	7.996240	6.867000	-0.661375	-0.057068	0.746336	-1.000000	-1.000000	-1.000000	-1.000000	-1.000000	-1.000000	-1.000000	63.000000	0.000000	-1.000000	-1.000000	674109.000000	1775714271.891106
-27994.500000	-5231.385000	967.455000	-5280.165000	-18261.765000	-31963.815000	14966.235000	39280.320000	-1.620837	-0.090047	-0.012745	0.187380	-1.233923	-1.210847	3.401716	-0.801721	32.915820	7.996240	6.867000	-0.661375	-0.057068	0.746336	-1.000000	-1.000000	-1.000000	-1.000000	-1.000000	-1.000000	-1.000000	63.000000	0.000000	-1.000000	-1.000000	674110.000000	1775714271.891126
-27994.680000	-5231.070000	967.635000	-5282.190000	-18267.840000	-31961.790000	14967.855000	39280.005000	3.760187	5.231420	6.622289	6.983127	5.166223	-8.244975	3.428967	2.597922	32.793740	3.998120	3.540320	-0.665892	-0.020386	0.734983	-1.000000	-1.000000	-1.000000	-1.000000	-1.000000	-1.000000	-1.000000	63.000000	0.000000	-1.000000	-1.000000	674111.000000	1775714271.894511
-27996.525000	-5234.175000	964.305000	-5284.530000	-18271.980000	-31962.195000	14970.150000	39278.430000	5.294204	5.696904	7.496993	7.668386	6.608378	-9.834692	2.738593	3.422226	32.793740	3.998120	3.540320	-0.665892	-0.020386	0.734983	-1.000000	-1.000000	-1.000000	-1.000000	-1.000000	-1.000000	-1.000000	63.000000	0.000000	-1.000000	-1.000000	674112.000000	1775714271.894535
-28004.805000	-5241.690000	956.520000	-5288.850000	-18272.790000	-31973.355000	14968.035000	39270.285000	3.161623	2.291408	3.618562	3.647594	3.721883	-8.293709	1.524377	1.635046	32.793740	3.998120	3.540320	-0.665892	-0.020386	0.734983	-1.000000	-1.000000	-1.000000	-1.000000	-1.000000	-1.000000	-1.000000	63.000000	0.000000	-1.000000	-1.000000	674113.000000	1775714271.903106
-28029.015000	-5259.555000	940.410000	-5303.385000	-18283.905000	-31999.500000	14943.285000	39248.370000	-1.178016	-2.690539	-2.306627	-1.954290	-0.713010	-6.631248	-0.446273	-1.842699	32.793740	3.998120	3.540320	-0.665892	-0.020386	0.734983	-1.000000	-1.000000	-1.000000	-1.000000	-1.000000	-1.000000	-1.000000	63.000000	0.000000	-1.000000	-1.000000	674114.000000	1775714271.903130
-28051.740000	-5285.655000	922.905000	-5319.945000	-18302.400000	-32032.530000	14906.880000	39226.410000	-6.308707	-7.424217	-7.733376	-6.707545	-4.444303	-7.256735	-4.191942	-6.048943	32.793740	3.998120	3.540320	-0.665892	-0.020386	0.734983	-1.000000	-1.000000	-1.000000	-1.000000	-1.000000	-1.000000	-1.000000	63.000000	0.000000	-1.000000	-1.000000	674115.000000	1775714271.903175
-28032.165000	-5279.130000	937.440000	-5303.655000	-18295.875000	-32013.495000	14918.085000	39244.545000	-9.797759	-10.233311	-10.281020	-8.816168	-6.410053	-9.305569	-9.112167	-8.923751	32.793740	3.998120	3.540320	-0.665892	-0.020386	0.734983	-1.000000	-1.000000	-1.000000	-1.000000	-1.000000	-1.000000	-1.000000	63.000000	0.000000	-1.000000	-1.000000	674116.000000	1775714271.903188
-27964.710000	-5202.270000	1001.385000	-5241.105000	-18244.440000	-31934.520000	14978.970000	39299.130000	-6.803280	-7.377992	-6.579115	-5.366675	-4.570103	-6.782600	-9.847646	-6.154311	32.793740	3.998120	3.540320	-0.665892	-0.020386	0.734983	-1.000000	-1.000000	-1.000000	-1.000000	-1.000000	-1.000000	-1.000000	63.000000	0.000000	-1.000000	-1.000000	674117.000000	1775714271.905492
-27964.845000	-5203.125000	993.780000	-5273.820000	-18255.105000	-31918.995000	15019.380000	39303.900000	5.179389	4.121638	4.606778	4.412901	2.646116	5.520010	-0.370444	4.542011	32.793740	3.998120	3.540320	-0.665892	-0.020386	0.734983	-1.000000	-1.000000	-1.000000	-1.000000	-1.000000	-1.000000	-1.000000	63.000000	0.000000	-1.000000	-1.000000	674118.000000	1775714271.905517
-27977.805000	-5211.270000	985.680000	-5275.350000	-18264.330000	-31939.245000	14978.835000	39289.095000	18.947324	18.361086	16.546356	13.630333	10.931665	21.488231	15.468348	16.966671	32.793740	3.998120	3.540320	-0.665892	-0.020386	0.734983	-1.000000	-1.000000	-1.000000	-1.000000	-1.000000	-1.000000	-1.000000	63.000000	0.000000	-1.000000	-1.000000	674119.000000	1775714271.909768
-27984.600000	-5211.045000	989.730000	-5259.105000	-18296.100000	-31987.845000	14956.065000	39277.080000	22.348728	23.395357	19.111612	14.108468	12.186901	26.070660	23.397219	20.264198	32.793740	3.998120	3.540320	-0.665892	-0.020386	0.734983	-1.000000	-1.000000	-1.000000	-1.000000	-1.000000	-1.000000	-1.000000	63.000000	0.000000	-1.000000	-1.000000	674120.000000	1775714271.909794
-28029.015000	-5254.335000	953.730000	-5292.180000	-18323.640000	-32054.805000	14910.255000	39240.405000	10.742000	13.684969	9.349731	5.789138	3.191027	10.530865	13.534803	9.918406	33.327840	11.673900	-11.689160	-0.663756	0.050171	0.720884	-1.000000	-1.000000	-1.000000	-1.000000	-1.000000	-1.000000	-1.000000	63.000000	0.000000	-1.000000	-1.000000	674121.000000	1775714271.914445
-28065.690000	-5289.255000	929.745000	-5310.720000	-18257.490000	-32028.255000	14890.095000	39212.460000	-10.198035	-6.389004	-7.585928	-6.341156	-9.539926	-17.213050	-9.026022	-8.822397	33.327840	11.673900	-11.689160	-0.663756	0.050171	0.720884	-1.000000	-1.000000	-1.000000	-1.000000	-1.000000	-1.000000	-1.000000	63.000000	0.000000	-1.000000	-1.000000	674122.000000	1775714271.914470
-28044.360000	-5284.170000	932.085000	-5310.630000	-18253.665000	-32014.035000	14896.935000	39232.530000	-28.730586	-26.201602	-22.795246	-16.786148	-14.126294	-36.830417	-28.948053	-24.877558	33.327840	11.673900	-11.689160	-0.663756	0.050171	0.720884	-1.000000	-1.000000	-1.000000	-1.000000	-1.000000	-1.000000	-1.000000	63.000000	0.000000	-1.000000	-1.000000	674123.000000	1775714271.918363
-27971.280000	-5237.010000	958.410000	-5303.700000	-18268.020000	-31968.540000	14933.790000	39295.170000	-31.487718	-32.949755	-26.972811	-19.863482	-6.651895	-32.564642	-31.944778	-26.539827	33.327840	11.673900	-11.689160	-0.663756	0.050171	0.720884	-1.000000	-1.000000	-1.000000	-1.000000	-1.000000	-1.000000	-1.000000	63.000000	0.000000	-1.000000	-1.000000	674124.000000	1775714271.918389
-27923.670000	-5201.775000	967.635000	-5313.915000	-18351.405000	-31942.845000	15030.270000	39347.415000	-12.340465	-19.620335	-16.189094	-13.245006	2.775290	-6.540531	-13.260666	-9.130547	33.327840	11.673900	-11.689160	-0.663756	0.050171	0.720884	-1.000000	-1.000000	-1.000000	-1.000000	-1.000000	-1.000000	-1.000000	63.000000	0.000000	-1.000000	-1.000000	674125.000000	1775714271.921736
-27906.660000	-5162.445000	1009.305000	-5264.325000	-18355.230000	-31906.215000	15050.070000	39354.660000	18.880946	7.734805	4.284350	-0.017759	2.367684	24.766804	19.019924	18.287354	33.327840	11.673900	-11.689160	-0.663756	0.050171	0.720884	-1.000000	-1.000000	-1.000000	-1.000000	-1.000000	-1.000000	-1.000000	63.000000	0.000000	-1.000000	-1.000000	674126.000000	1775714271.921755
-27931.770000	-5173.785000	1030.680000	-5202.450000	-18167.940000	-31863.375000	15003.495000	39327.345000	40.915083	32.691414	23.990329	15.498142	-3.138533	44.023440	44.822278	36.645924	33.327840	11.673900	-11.689160	-0.663756	0.050171	0.720884	-1.000000	-1.000000	-1.000000	-1.000000	-1.000000	-1.000000	-1.000000	63.000000	0.000000	-1.000000	-1.000000	674127.000000	1775714271.941194
-27971.640000	-5238.450000	978.120000	-5233.275000	-18199.170000	-31905.315000	14973.480000	39297.015000	37.265343	38.491760	32.426000	28.158024	2.716749	42.208553	43.767634	31.420295	33.327840	11.673900	-11.689160	-0.663756	0.050171	0.720884	-1.000000	-1.000000	-1.000000	-1.000000	-1.000000	-1.000000	-1.000000	63.000000	0.000000	-1.000000	-1.000000	674128.000000	1775714271.941218
-27979.380000	-5242.140000	983.745000	-5238.630000	-18171.495000	-31901.490000	14954.085000	39284.280000	9.252574	19.554950	23.289540	29.357191	20.023130	19.744983	13.960906	4.920084	33.327840	11.673900	-11.689160	-0.663756	0.050171	0.720884	-1.000000	-1.000000	-1.000000	-1.000000	-1.000000	-1.000000	-1.000000	63.000000	0.000000	-1.000000	-1.000000	674129.000000	1775714271.941366
-27997.605000	-5225.760000	962.010000	-5287.320000	-18260.235000	-32013.090000	14942.205000	39272.400000	-25.145423	-11.527049	0.951926	13.834206	28.539607	-14.861804	-25.240311	-25.789423	33.327840	11.673900	-11.689160	-0.663756	0.050171	0.720884	-1.000000	-1.000000	-1.000000	-1.000000	-1.000000	-1.000000	-1.000000	63.000000	0.000000	-1.000000	-1.000000	674130.000000	1775714271.941386
-28059.435000	-5303.835000	879.075000	-5364.360000	-18389.160000	-32142.510000	14913.090000	39223.935000	-46.627293	-34.587854	-22.648735	-13.585782	11.558153	-50.284200	-50.554498	-43.363416	-12.635280	20.341580	-10.376800	-0.656431	0.109863	0.732054	-1.000000	-1.000000	-1.000000	-1.000000	-1.000000	-1.000000	-1.000000	63.000000	0.000000	-1.000000	-1.000000	674131.000000	1775714271.941410
-28095.075000	-5344.380000	856.260000	-5386.365000	-18445.680000	-32191.740000	14865.930000	39189.510000	-48.216835	-40.850476	-38.353444	-40.626146	-27.518504	-75.209334	-51.819574	-42.195319	-12.635280	20.341580	-10.376800	-0.656431	0.109863	0.732054	-1.000000	-1.000000	-1.000000	-1.000000	-1.000000	-1.000000	-1.000000	63.000000	0.000000	-1.000000	-1.000000	674132.000000	1775714271.941422
-28018.215000	-5256.045000	941.670000	-5319.990000	-18386.640000	-32125.455000	14859.135000	39246.030000	-31.832429	-31.503710	-38.825979	-51.204198	-62.677905	-74.419531	-33.843286	-25.650793	-12.635280	20.341580	-10.376800	-0.656431	0.109863	0.732054	-1.000000	-1.000000	-1.000000	-1.000000	-1.000000	-1.000000	-1.000000	63.000000	0.000000	-1.000000	-1.000000	674133.000000	1775714271.941444
-27933.030000	-5172.255000	1003.050000	-5286.465000	-18422.235000	-32038.470000	14906.250000	39317.760000	0.280014	-6.159188	-17.201196	-33.562981	-64.039913	-35.622164	-6.051898	2.533257	-12.635280	20.341580	-10.376800	-0.656431	0.109863	0.732054	-1.000000	-1.000000	-1.000000	-1.000000	-1.000000	-1.000000	-1.000000	63.000000	0.000000	-1.000000	-1.000000	674134.000000	1775714271.941456
-27878.220000	-5107.815000	1081.710000	-5177.430000	-18140.265000	-31741.560000	15019.245000	39367.710000	40.872558	31.083125	21.943160	7.842170	-22.495850	36.666474	25.755811	36.252501	-12.635280	20.341580	-10.376800	-0.656431	0.109863	0.732054	-1.000000	-1.000000	-1.000000	-1.000000	-1.000000	-1.000000	-1.000000	63.000000	0.000000	-1.000000	-1.000000	674135.000000	1775714271.943927
-27944.865000	-5164.110000	1038.555000	-5180.130000	-18034.290000	-31759.740000	15019.695000	39315.285000	70.152811	61.425558	57.409335	52.121213	48.001463	115.335710	55.359867	60.347115	-12.635280	20.341580	-10.376800	-0.656431	0.109863	0.732054	-1.000000	-1.000000	-1.000000	-1.000000	-1.000000	-1.000000	-1.000000	63.000000	0.000000	-1.000000	-1.000000	674136.000000	1775714271.943945
-27977.580000	-5189.895000	1017.090000	-5202.765000	-18133.695000	-31868.100000	14972.085000	39284.865000	65.868436	61.449728	64.234806	73.153103	110.837513	152.683009	68.225832	56.975224	-12.635280	20.341580	-10.376800	-0.656431	0.109863	0.732054	-1.000000	-1.000000	-1.000000	-1.000000	-1.000000	-1.000000	-1.000000	63.000000	0.000000	-1.000000	-1.000000	674137.000000	1775714271.948268
-27924.615000	-5140.845000	1057.545000	-5181.075000	-18156.150000	-31897.980000	14987.655000	39326.310000	26.934893	27.328643	35.768026	56.719261	118.646582	111.201118	50.898562	24.553521	-12.635280	20.341580	-10.376800	-0.656431	0.109863	0.732054	-1.000000	-1.000000	-1.000000	-1.000000	-1.000000	-1.000000	-1.000000	63.000000	0.000000	-1.000000	-1.000000	674138.000000	1775714271.948291
-27874.530000	-5093.955000	1102.950000	-5136.795000	-18084.870000	-31797.315000	15016.545000	39370.950000	-20.129389	-17.396673	-7.885748	13.886250	58.933817	9.028213	10.206458	-15.562324	-12.635280	20.341580	-10.376800	-0.656431	0.109863	0.732054	-1.000000	-1.000000	-1.000000	-1.000000	-1.000000	-1.000000	-1.000000	63.000000	0.000000	-1.000000	-1.000000	674139.000000	1775714271.956752
-27899.775000	-5120.370000	1079.145000	-5155.785000	-18103.680000	-31793.715000	14998.950000	39350.610000	-46.837002	-45.263264	-39.769297	-29.008702	-28.656836	-89.315344	-30.417120	-39.244992	-12.635280	20.341580	-10.376800	-0.656431	0.109863	0.732054	-1.000000	-1.000000	-1.000000	-1.000000	-1.000000	-1.000000	-1.000000	63.000000	0.000000	-1.000000	-1.000000	674140.000000	1775714271.956777
-27927.585000	-5146.920000	1048.725000	-5193.090000	-18169.380000	-31853.745000	14985.720000	39327.750000	-47.907698	-49.310709	-49.933648	-54.098536	-94.905509	-133.556245	-53.005342	-41.185721	-69.204100	0.427280	3.708180	-0.675108	0.118469	0.733397	-1.000000	-1.000000	-1.000000	-1.000000	-1.000000	-1.000000	-1.000000	63.000000	0.000000	-1.000000	-1.000000	674141.000000	1775714271.956802
-27944.640000	-5162.715000	1031.130000	-5203.935000	-18166.365000	-31796.730000	14968.845000	39311.640000	-35.882187	-39.371673	-44.756262	-59.315092	-117.656087	-119.372622	-54.460741	-31.499380	-69.204100	0.427280	3.708180	-0.675108	0.118469	0.733397	-1.000000	-1.000000	-1.000000	-1.000000	-1.000000	-1.000000	-1.000000	63.000000	0.000000	-1.000000	-1.000000	674142.000000	1775714271.956814
-27975.510000	-5194.440000	994.140000	-5236.515000	-18194.490000	-31902.255000	14945.670000	39286.935000	-22.384509	-25.578835	-32.759867	-49.297324	-98.792320	-70.630255	-40.777670	-20.121655	-69.204100	0.427280	3.708180	-0.675108	0.118469	0.733397	-1.000000	-1.000000	-1.000000	-1.000000	-1.000000	-1.000000	-1.000000	63.000000	0.000000	-1.000000	-1.000000	674143.000000	1775714271.966780
-28011.330000	-5238.495000	945.900000	-5286.060000	-18242.370000	-31901.130000	14949.675000	39260.520000	-11.573884	-12.707191	-18.951438	-30.112635	-53.171062	-16.778042	-20.021268	-10.707715	-69.204100	0.427280	3.708180	-0.675108	0.118469	0.733397	-1.000000	-1.000000	-1.000000	-1.000000	-1.000000	-1.000000	-1.000000	63.000000	0.000000	-1.000000	-1.000000	674144.000000	1775714271.966806
-28024.605000	-5258.070000	925.695000	-5298.615000	-18228.060000	-31886.190000	14985.855000	39264.930000	-3.032477	-2.185463	-5.844507	-8.536446	-1.438007	22.802478	2.231199	-2.620710	-69.204100	0.427280	3.708180	-0.675108	0.118469	0.733397	-1.000000	-1.000000	-1.000000	-1.000000	-1.000000	-1.000000	-1.000000	63.000000	0.000000	-1.000000	-1.000000	674145.000000	1775714271.966835
-28001.430000	-5233.545000	951.300000	-5279.895000	-18231.210000	-31951.125000	14980.050000	39283.515000	6.082322	7.698423	7.268968	11.647293	40.456279	44.471015	22.566502	6.700803	-69.204100	0.427280	3.708180	-0.675108	0.118469	0.733397	-1.000000	-1.000000	-1.000000	-1.000000	-1.000000	-1.000000	-1.000000	63.000000	0.000000	-1.000000	-1.000000	674146.000000	1775714271.966846
-27957.780000	-5179.140000	1011.825000	-5226.255000	-18199.800000	-32030.595000	14953.365000	39306.105000	18.804335	20.696817	23.478830	30.730332	65.532168	48.785005	35.279226	18.500226	-69.204100	0.427280	3.708180	-0.675108	0.118469	0.733397	-1.000000	-1.000000	-1.000000	-1.000000	-1.000000	-1.000000	-1.000000	63.000000	0.000000	-1.000000	-1.000000	674147.000000	1775714271.966858
-27892.665000	-5101.965000	1094.175000	-5156.820000	-18167.040000	-32101.380000	14931.135000	39346.155000	34.646463	37.812371	43.243074	48.616640	72.848000	36.002415	33.893694	30.149308	-69.204100	0.427280	3.708180	-0.675108	0.118469	0.733397	-1.000000	-1.000000	-1.000000	-1.000000	-1.000000	-1.000000	-1.000000	63.000000	0.000000	-1.000000	-1.000000	674148.000000	1775714271.966869
-27846.405000	-5047.875000	1152.720000	-5101.470000	-18107.325000	-31945.005000	14957.235000	39379.230000	47.865824	53.455718	60.309884	60.927863	65.319835	16.979880	19.526221	36.719228	-69.204100	0.427280	3.708180	-0.675108	0.118469	0.733397	-1.000000	-1.000000	-1.000000	-1.000000	-1.000000	-1.000000	-1.000000	63.000000	0.000000	-1.000000	-1.000000	674149.000000	1775714271.969869
-27899.865000	-5110.380000	1090.080000	-5143.905000	-18075.105000	-31641.885000	14989.680000	39345.030000	48.365141	55.498954	61.841718	58.620224	47.628856	16.907009	2.939388	33.086839	-69.204100	0.427280	3.708180	-0.675108	0.118469	0.733397	-1.000000	-1.000000	-1.000000	-1.000000	-1.000000	-1.000000	-1.000000	63.000000	0.000000	-1.000000	-1.000000	674150.000000	1775714271.969898
-28030.995000	-5268.555000	916.065000	-5304.780000	-18205.245000	-31689.495000	15019.155000	39262.095000	25.474693	30.275185	33.650938	31.123343	20.902400	47.753935	-4.937402	14.726036	-33.434660	-8.835540	-1.510740	-0.696592	0.061401	0.726500	-1.000000	-1.000000	-1.000000	-1.000000	-1.000000	-1.000000	-1.000000	63.000000	0.000000	-1.000000	-1.000000	674151.000000	1775714271.974254
-28081.440000	-5331.690000	837.945000	-5392.755000	-18331.695000	-31916.565000	14974.245000	39224.970000	-20.427154	-22.835552	-24.823846	-22.420462	-18.534865	74.588205	-3.693291	-16.812146	-33.434660	-8.835540	-1.510740	-0.696592	0.061401	0.726500	-1.000000	-1.000000	-1.000000	-1.000000	-1.000000	-1.000000	-1.000000	63.000000	0.000000	-1.000000	-1.000000	674152.000000	1775714271.974278
-28050.480000	-5293.305000	879.210000	-5361.840000	-18328.140000	-31980.330000	14968.485000	39245.400000	-66.908354	-77.716609	-85.646002	-79.015711	-64.479210	46.332094	-2.384008	-47.133012	-33.434660	-8.835540	-1.510740	-0.696592	0.061401	0.726500	-1.000000	-1.000000	-1.000000	-1.000000	-1.000000	-1.000000	-1.000000	63.000000	0.000000	-1.000000	-1.000000	674153.000000	1775714271.977003
-28028.880000	-5264.910000	912.735000	-5326.875000	-18287.055000	-31933.980000	14967.855000	39257.910000	-81.840557	-95.804968	-106.538009	-100.727589	-90.987267	-33.833882	-7.029180	-56.086784	-33.434660	-8.835540	-1.510740	-0.696592	0.061401	0.726500	-1.000000	-1.000000	-1.000000	-1.000000	-1.000000	-1.000000	-1.000000	63.000000	0.000000	-1.000000	-1.000000	674154.000000	1775714271.977026
-28015.875000	-5248.755000	930.015000	-5305.050000	-18260.730000	-31919.445000	14967.720000	39267.045000	-52.920497	-61.717739	-69.591367	-68.719369	-74.131006	-105.962565	-13.879648	-36.151346	-33.434660	-8.835540	-1.510740	-0.696592	0.061401	0.726500	-1.000000	-1.000000	-1.000000	-1.000000	-1.000000	-1.000000	-1.000000	63.000000	0.000000	-1.000000	-1.000000	674155.000000	1775714271.981973
-28007.190000	-5238.630000	940.770000	-5295.465000	-18250.830000	-31919.715000	14969.655000	39273.075000	1.469898	2.900616	2.043502	-1.874444	-19.445712	-119.192672	-16.095504	0.503506	-33.434660	-8.835540	-1.510740	-0.696592	0.061401	0.726500	-1.000000	-1.000000	-1.000000	-1.000000	-1.000000	-1.000000	-1.000000	63.000000	0.000000	-1.000000	-1.000000	674156.000000	1775714271.982000
-28001.565000	-5229.720000	950.310000	-5286.060000	-18246.690000	-31924.710000	14967.990000	39275.685000	49.766882	60.191986	66.302358	60.627737	41.518457	-73.255693	-11.259918	33.121149	-33.434660	-8.835540	-1.510740	-0.696592	0.061401	0.726500	-1.000000	-1.000000	-1.000000	-1.000000	-1.000000	-1.000000	-1.000000	63.000000	0.000000	-1.000000	-1.000000	674157.000000	1775714271.985540
-27996.075000	-5221.395000	958.725000	-5277.195000	-18241.515000	-31926.240000	14965.560000	39277.755000	69.799167	83.603865	93.139657	88.692631	77.036970	-3.689530	-2.171253	46.922291	-33.434660	-8.835540	-1.510740	-0.696592	0.061401	0.726500	-1.000000	-1.000000	-1.000000	-1.000000	-1.000000	-1.000000	-1.000000	63.000000	0.000000	-1.000000	-1.000000	674158.000000	1775714271.985562
-27990.270000	-5212.890000	968.310000	-5270.715000	-18238.320000	-31919.535000	14958.540000	39279.375000	58.420794	69.535904	78.062874	76.212555	74.914231	51.952710	6.221053	39.568254	-33.434660	-8.835540	-1.510740	-0.696592	0.061401	0.726500	-1.000000	-1.000000	-1.000000	-1.000000	-1.000000	-1.000000	-1.000000	63.000000	0.000000	-1.000000	-1.000000	674159.000000	1775714272.002953
-27972.045000	-5190.075000	992.430000	-5251.590000	-18230.670000	-31904.145000	14945.625000	39289.860000	27.795969	32.628116	37.152503	37.510026	44.073428	74.817627	10.130279	19.034458	-33.434660	-8.835540	-1.510740	-0.696592	0.061401	0.726500	-1.000000	-1.000000	-1.000000	-1.000000	-1.000000	-1.000000	-1.000000	63.000000	0.000000	-1.000000	-1.000000	674160.000000	1775714272.002980
-27950.760000	-5165.415000	1017.765000	-5229.855000	-18221.355000	-31927.275000	14933.070000	39304.305000	-4.568575	-6.266254	-6.377749	-5.219460	4.063900	65.953420	8.598230	-2.835794	29.772260	-1.632820	-9.735880	-0.684385	-0.040100	0.715941	-1.000000	-1.000000	-1.000000	-1.000000	-1.000000	-1.000000	-1.000000	63.000000	0.000000	-1.000000	-1.000000	674161.000000	1775714272.003010
-27956.385000	-5176.305000	1003.455000	-5242.680000	-18224.595000	-31984.380000	14941.665000	39302.280000	-25.954512	-32.140357	-35.720452	-34.920893	-27.395506	36.127350	3.870946	-17.177374	29.772260	-1.632820	-9.735880	-0.684385	-0.040100	0.715941	-1.000000	-1.000000	-1.000000	-1.000000	-1.000000	-1.000000	-1.000000	63.000000	0.000000	-1.000000	-1.000000	674162.000000	1775714272.003024
-28000.440000	-5227.605000	947.430000	-5286.240000	-18242.730000	-31958.820000	14972.535000	39274.830000	-34.235919	-42.511053	-47.835550	-47.220294	-42.204908	-0.711268	0.592593	-22.314655	29.772260	-1.632820	-9.735880	-0.684385	-0.040100	0.715941	-1.000000	-1.000000	-1.000000	-1.000000	-1.000000	-1.000000	-1.000000	63.000000	0.000000	-1.000000	-1.000000	674163.000000	1775714272.003040
-28017.720000	-5244.075000	931.005000	-5295.015000	-18246.060000	-31931.190000	14982.795000	39265.155000	-34.715567	-43.250169	-48.803842	-46.948841	-41.697834	-27.903473	2.276610	-21.943640	29.772260	-1.632820	-9.735880	-0.684385	-0.040100	0.715941	-1.000000	-1.000000	-1.000000	-1.000000	-1.000000	-1.000000	-1.000000	63.000000	0.000000	-1.000000	-1.000000	674164.000000	1775714272.003051
-28007.820000	-5236.380000	934.245000	-5294.340000	-18230.760000	-31891.005000	14972.940000	39274.605000	-30.717340	-37.807220	-42.324663	-38.319196	-30.710763	-32.998170	6.913502	-18.744020	29.772260	-1.632820	-9.735880	-0.684385	-0.040100	0.715941	-1.000000	-1.000000	-1.000000	-1.000000	-1.000000	-1.000000	-1.000000	63.000000	0.000000	-1.000000	-1.000000	674165.000000	1775714272.003065
-27989.505000	-5223.915000	944.685000	-5283.945000	-18237.555000	-31911.255000	14969.385000	39284.910000	-20.268919	-24.326377	-26.897210	-22.056720	-13.927787	-18.257720	8.407058	-11.851486	29.772260	-1.632820	-9.735880	-0.684385	-0.040100	0.715941	-1.000000	-1.000000	-1.000000	-1.000000	-1.000000	-1.000000	-1.000000	63.000000	0.000000	-1.000000	-1.000000	674166.000000	1775714272.003076
-27981.630000	-5219.550000	954.720000	-5280.705000	-18257.445000	-31930.335000	14968.080000	39288.870000	-2.596217	-3.016405	-3.203843	-0.434740	2.805349	0.666222	3.513547	-1.000787	29.772260	-1.632820	-9.735880	-0.684385	-0.040100	0.715941	-1.000000	-1.000000	-1.000000	-1.000000	-1.000000	-1.000000	-1.000000	63.000000	0.000000	-1.000000	-1.000000	674167.000000	1775714272.006523
-27989.190000	-5218.605000	965.160000	-5270.445000	-18219.510000	-31923.945000	14969.970000	39288.780000	16.488036	19.269556	21.727714	20.214314	14.069259	9.149535	-4.928432	10.235955	29.772260	-1.632820	-9.735880	-0.684385	-0.040100	0.715941	-1.000000	-1.000000	-1.000000	-1.000000	-1.000000	-1.000000	-1.000000	63.000000	0.000000	-1.000000	-1.000000	674168.000000	1775714272.006546
-27984.825000	-5195.745000	976.545000	-5259.195000	-18204.570000	-31910.895000	14971.185000	39290.850000	28.048409	33.664149	38.484422	32.907116	19.375266	5.615530	-11.462621	16.797770	29.772260	-1.632820	-9.735880	-0.684385	-0.040100	0.715941	-1.000000	-1.000000	-1.000000	-1.000000	-1.000000	-1.000000	-1.000000	63.000000	0.000000	-1.000000	-1.000000	674169.000000	1775714272.017469
-27984.420000	-5197.815000	979.920000	-5257.035000	-18214.515000	-31919.625000	14967.765000	39288.105000	27.550740	35.792187	41.229928	34.129781	20.467186	-1.973653	-12.735919	16.190220	29.772260	-1.632820	-9.735880	-0.684385	-0.040100	0.715941	-1.000000	-1.000000	-1.000000	-1.000000	-1.000000	-1.000000	-1.000000	63.000000	0.000000	-1.000000	-1.000000	674170.000000	1775714272.017495
-27987.165000	-5201.640000	977.130000	-5259.240000	-18220.320000	-31933.080000	14961.915000	39285.495000	17.414247	26.540512	30.242852	24.748456	16.469657	-7.163829	-9.245157	9.702975	39.920160	5.371520	-22.233820	-0.655272	-0.053100	0.727964	-1.000000	-1.000000	-1.000000	-1.000000	-1.000000	-1.000000	-1.000000	63.000000	0.000000	-1.000000	-1.000000	674171.000000	1775714272.017570
-27987.345000	-5202.405000	976.770000	-5256.765000	-18214.335000	-31925.925000	14960.520000	39284.505000	3.692127	10.106304	10.946727	9.076751	6.998116	-8.517597	-3.771352	0.971083	39.920160	5.371520	-22.233820	-0.655272	-0.053100	0.727964	-1.000000	-1.000000	-1.000000	-1.000000	-1.000000	-1.000000	-1.000000	63.000000	0.000000	-1.000000	-1.000000	674172.000000	1775714272.017587
-27990.225000	-5202.405000	971.460000	-5257.035000	-18208.170000	-31916.340000	14962.050000	39283.560000	-7.801368	-7.059294	-8.793514	-6.673638	-4.042050	-6.203736	1.257247	-6.111622	39.920160	5.371520	-22.233820	-0.655272	-0.053100	0.727964	-1.000000	-1.000000	-1.000000	-1.000000	-1.000000	-1.000000	-1.000000	63.000000	0.000000	-1.000000	-1.000000	674173.000000	1775714272.017609
-27989.775000	-5203.215000	967.995000	-5262.345000	-18212.580000	-31918.455000	14958.585000	39283.245000	-13.661676	-18.684712	-22.179798	-17.181349	-11.453204	-0.892402	4.751103	-9.167089	39.920160	5.371520	-22.233820	-0.655272	-0.053100	0.727964	-1.000000	-1.000000	-1.000000	-1.000000	-1.000000	-1.000000	-1.000000	63.000000	0.000000	-1.000000	-1.000000	674174.000000	1775714272.017621
-27986.085000	-5206.275000	971.370000	-5263.380000	-18221.625000	-31925.880000	14961.510000	39286.260000	-13.366782	-21.780837	-25.914548	-20.306460	-13.332455	4.741192	6.391778	-8.004149	39.920160	5.371520	-22.233820	-0.655272	-0.053100	0.727964	-1.000000	-1.000000	-1.000000	-1.000000	-1.000000	-1.000000	-1.000000	63.000000	0.000000	-1.000000	-1.000000	674175.000000	1775714272.022557
-27988.920000	-5206.365000	969.930000	-5267.565000	-18245.565000	-31951.530000	14962.230000	39283.605000	-8.639174	-17.382824	-20.582329	-16.966679	-11.564640	6.924331	6.331718	-4.140178	39.920160	5.371520	-22.233820	-0.655272	-0.053100	0.727964	-1.000000	-1.000000	-1.000000	-1.000000	-1.000000	-1.000000	-1.000000	63.000000	0.000000	-1.000000	-1.000000	674176.000000	1775714272.022581
-27994.590000	-5211.540000	966.240000	-5265.090000	-18264.645000	-31923.630000	14960.835000	39279.465000	-2.580260	-8.989139	-9.961390	-9.708954	-9.099233	4.573728	5.034036	0.054704	39.920160	5.371520	-22.233820	-0.655272	-0.053100	0.727964	-1.000000	-1.000000	-1.000000	-1.000000	-1.000000	-1.000000	-1.000000	63.000000	0.000000	-1.000000	-1.000000	674177.000000	1775714272.025537
-27993.240000	-5212.035000	966.285000	-5259.915000	-18201.645000	-31894.695000	14962.365000	39280.545000	1.927025	-0.465413	0.878037	-1.314645	-5.731775	1.733258	2.949947	2.634549	39.920160	5.371520	-22.233820	-0.655272	-0.053100	0.727964	-1.000000	-1.000000	-1.000000	-1.000000	-1.000000	-1.000000	-1.000000	63.000000	0.000000	-1.000000	-1.000000	674178.000000	1775714272.025558
-27985.950000	-5208.030000	968.445000	-5259.465000	-18203.310000	-31908.645000	14963.760000	39290.085000	4.034607	5.671302	8.285990	5.903899	1.965915	2.598149	0.646034	3.389014	39.920160	5.371520	-22.233820	-0.655272	-0.053100	0.727964	-1.000000	-1.000000	-1.000000	-1.000000	-1.000000	-1.000000	-1.000000	63.000000	0.000000	-1.000000	-1.000000	674179.000000	1775714272.030017
-27984.465000	-5208.030000	967.590000	-5261.805000	-18215.865000	-31930.695000	14961.285000	39291.480000	4.674853	8.769831	11.182023	10.058444	12.642597	4.704048	-1.257776	3.431425	39.920160	5.371520	-22.233820	-0.655272	-0.053100	0.727964	-1.000000	-1.000000	-1.000000	-1.000000	-1.000000	-1.000000	-1.000000	63.000000	0.000000	-1.000000	-1.000000	674180.000000	1775714272.030043
-27977.805000	-5197.410000	980.370000	-5248.305000	-18198.495000	-31933.215000	14964.705000	39293.595000	4.702476	9.298945	10.452844	10.376388	18.667629	2.647818	-2.428569	3.344570	13.474580	10.758300	-22.477980	-0.646544	0.029907	0.732664	-1.000000	-1.000000	-1.000000	-1.000000	-1.000000	-1.000000	-1.000000	63.000000	0.000000	-1.000000	-1.000000	674181.000000	1775714272.044975
-27970.740000	-5188.275000	992.610000	-5233.770000	-18172.485000	-31887.990000	14964.705000	39297.240000	4.256932	8.216442	8.088220	8.181912	16.252848	-2.774282	-2.727634	2.724319	13.474580	10.758300	-22.477980	-0.646544	0.029907	0.732664	-1.000000	-1.000000	-1.000000	-1.000000	-1.000000	-1.000000	-1.000000	63.000000	0.000000	-1.000000	-1.000000	674182.000000	1775714272.045001
-27977.220000	-5196.015000	982.620000	-5246.280000	-18197.595000	-31856.220000	14961.735000	39292.470000	3.078267	6.113349	5.443881	5.218940	8.276993	-4.637421	-2.282557	1.192023	13.474580	10.758300	-22.477980	-0.646544	0.029907	0.732664	-1.000000	-1.000000	-1.000000	-1.000000	-1.000000	-1.000000	-1.000000	63.000000	0.000000	-1.000000	-1.000000	674183.000000	1775714272.045029
-27984.240000	-5203.800000	971.730000	-5260.950000	-18231.345000	-31896.765000	14963.670000	39286.215000	0.585247	2.497916	1.828335	1.178714	-2.570088	-0.406236	-1.566768	-1.228316	13.474580	10.758300	-22.477980	-0.646544	0.029907	0.732664	-1.000000	-1.000000	-1.000000	-1.000000	-1.000000	-1.000000	-1.000000	63.000000	0.000000	-1.000000	-1.000000	674184.000000	1775714272.045042
-27994.320000	-5213.520000	961.920000	-5270.265000	-18240.570000	-31942.845000	14956.470000	39276.315000	-3.287361	-2.836920	-3.592966	-4.667683	-14.673535	2.470932	-1.001090	-4.114223	13.474580	10.758300	-22.477980	-0.646544	0.029907	0.732664	-1.000000	-1.000000	-1.000000	-1.000000	-1.000000	-1.000000	-1.000000	63.000000	0.000000	-1.000000	-1.000000	674185.000000	1775714272.045057
-27997.740000	-5212.845000	965.295000	-5262.075000	-18220.995000	-31936.230000	14946.255000	39272.355000	-7.135599	-8.123552	-9.080354	-10.198724	-22.885172	-2.991391	-0.953533	-6.436422	13.474580	10.758300	-22.477980	-0.646544	0.029907	0.732664	-1.000000	-1.000000	-1.000000	-1.000000	-1.000000	-1.000000	-1.000000	63.000000	0.000000	-1.000000	-1.000000	674186.000000	1775714272.045068
-27990.090000	-5204.115000	974.520000	-5253.480000	-18221.265000	-31918.140000	14953.950000	39281.040000	-8.528208	-10.261963	-11.024155	-11.338805	-20.812033	-11.951804	-1.375744	-6.610347	13.474580	10.758300	-22.477980	-0.646544	0.029907	0.732664	-1.000000	-1.000000	-1.000000	-1.000000	-1.000000	-1.000000	-1.000000	63.000000	0.000000	-1.000000	-1.000000	674187.000000	1775714272.056659
-27997.380000	-5216.355000	961.155000	-5266.890000	-18222.705000	-31896.360000	14954.895000	39279.420000	-5.948775	-7.639338	-7.685650	-6.667684	-8.500834	-13.512385	-1.158361	-3.562319	13.474580	10.758300	-22.477980	-0.646544	0.029907	0.732664	-1.000000	-1.000000	-1.000000	-1.000000	-1.000000	-1.000000	-1.000000	63.000000	0.000000	-1.000000	-1.000000	674188.000000	1775714272.056686
-27995.580000	-5218.650000	957.780000	-5268.600000	-18207.090000	-31899.420000	14960.295000	39280.950000	-0.616744	-2.179890	-1.516682	0.443189	6.945180	-4.129224	0.624797	1.635120	13.474580	10.758300	-22.477980	-0.646544	0.029907	0.732664	-1.000000	-1.000000	-1.000000	-1.000000	-1.000000	-1.000000	-1.000000	63.000000	0.000000	-1.000000	-1.000000	674189.000000	1775714272.056718
-27985.320000	-5211.000000	963.810000	-5261.715000	-18210.915000	-31918.050000	14964.930000	39284.145000	4.730688	2.853450	3.673731	5.673736	17.925954	8.855527	3.318434	6.239403	13.474580	10.758300	-22.477980	-0.646544	0.029907	0.732664	-1.000000	-1.000000	-1.000000	-1.000000	-1.000000	-1.000000	-1.000000	63.000000	0.000000	-1.000000	-1.000000	674190.000000	1775714272.056731
-27980.550000	-5204.790000	970.605000	-5257.215000	-18217.575000	-31919.355000	14963.580000	39289.410000	8.301881	6.103674	6.513223	7.754781	20.303717	15.367884	5.253336	8.210674	-20.982500	13.795040	-9.934260	-0.655882	0.090515	0.730223	-1.000000	-1.000000	-1.000000	-1.000000	-1.000000	-1.000000	-1.000000	63.000000	0.000000	-1.000000	-1.000000	674191.000000	1775714272.056746
-27972.585000	-5191.155000	988.245000	-5236.380000	-18190.485000	-31922.640000	14959.755000	39294.135000	9.398576	7.828963	7.783360	7.856790	14.542444	12.126360	4.915687	7.309042	-20.982500	13.795040	-9.934260	-0.655882	0.090515	0.730223	-1.000000	-1.000000	-1.000000	-1.000000	-1.000000	-1.000000	-1.000000	63.000000	0.000000	-1.000000	-1.000000	674192.000000	1775714272.056757
-27974.880000	-5193.045000	987.885000	-5230.845000	-18173.025000	-31898.385000	14959.440000	39293.505000	7.722834	8.091112	8.123461	7.306401	5.795757	3.987829	2.038503	4.389537	-20.982500	13.795040	-9.934260	-0.655882	0.090515	0.730223	-1.000000	-1.000000	-1.000000	-1.000000	-1.000000	-1.000000	-1.000000	63.000000	0.000000	-1.000000	-1.000000	674193.000000	1775714272.061219
-27986.040000	-5209.785000	967.320000	-5258.835000	-18218.610000	-31930.920000	14958.720000	39286.485000	3.305630	5.888211	6.421941	5.458886	-1.538920	-2.632944	-1.918662	0.364765	-20.982500	13.795040	-9.934260	-0.655882	0.090515	0.730223	-1.000000	-1.000000	-1.000000	-1.000000	-1.000000	-1.000000	-1.000000	63.000000	0.000000	-1.000000	-1.000000	674194.000000	1775714272.061242
-27987.030000	-5213.970000	958.770000	-5272.155000	-18246.330000	-31992.660000	14956.515000	39285.045000	-2.952111	0.394925	1.011682	0.077225	-8.616870	-7.042590	-4.854335	-3.919960	-20.982500	13.795040	-9.934260	-0.655882	0.090515	0.730223	-1.000000	-1.000000	-1.000000	-1.000000	-1.000000	-1.000000	-1.000000	63.000000	0.000000	-1.000000	-1.000000	674195.000000	1775714272.062407
-27982.800000	-5211.135000	962.460000	-5262.345000	-18221.265000	-31929.030000	14956.920000	39287.250000	-8.480670	-6.433438	-6.634889	-7.977730	-16.083173	-10.980364	-5.548114	-7.073510	-20.982500	13.795040	-9.934260	-0.655882	0.090515	0.730223	-1.000000	-1.000000	-1.000000	-1.000000	-1.000000	-1.000000	-1.000000	63.000000	0.000000	-1.000000	-1.000000	674196.000000	1775714272.062424
-27989.190000	-5221.620000	952.335000	-5272.290000	-18234.675000	-31909.140000	14958.630000	39283.920000	-10.377733	-10.649308	-11.918848	-13.472276	-18.844758	-10.077789	-4.033493	-7.626861	-20.982500	13.795040	-9.934260	-0.655882	0.090515	0.730223	-1.000000	-1.000000	-1.000000	-1.000000	-1.000000	-1.000000	-1.000000	63.000000	0.000000	-1.000000	-1.000000	674197.000000	1775714272.066349
-27989.730000	-5220.945000	951.165000	-5282.415000	-18242.595000	-31873.050000	14964.525000	39283.695000	-8.077889	-10.140914	-11.745114	-12.709825	-13.255731	0.388321	-1.100624	-5.444921	-20.982500	13.795040	-9.934260	-0.655882	0.090515	0.730223	-1.000000	-1.000000	-1.000000	-1.000000	-1.000000	-1.000000	-1.000000	63.000000	0.000000	-1.000000	-1.000000	674198.000000	1775714272.066374
-27991.935000	-5217.255000	956.385000	-5267.205000	-18211.230000	-31850.955000	14960.835000	39278.610000	-3.408539	-5.650849	-6.622838	-6.657541	-1.971258	15.690173	2.019857	-1.891883	-20.982500	13.795040	-9.934260	-0.655882	0.090515	0.730223	-1.000000	-1.000000	-1.000000	-1.000000	-1.000000	-1.000000	-1.000000	63.000000	0.000000	-1.000000	-1.000000	674199.000000	1775714272.077569
-27996.345000	-5219.775000	956.835000	-5256.315000	-18209.160000	-31879.755000	14958.135000	39274.335000	1.280795	0.664199	0.902317	2.024373	10.349290	24.756587	3.811342	1.255876	-20.982500	13.795040	-9.934260	-0.655882	0.090515	0.730223	-1.000000	-1.000000	-1.000000	-1.000000	-1.000000	-1.000000	-1.000000	63.000000	0.000000	-1.000000	-1.000000	674200.000000	1775714272.077595
-27992.115000	-5213.025000	966.420000	-5248.665000	-18193.590000	-31915.575000	14956.785000	39276.585000	4.408194	6.208730	7.756213	10.493129	19.274820	18.638876	3.363627	2.980673	-47.550160	13.199900	-7.721560	-0.662047	0.080017	0.727598	-1.000000	-1.000000	-1.000000	-1.000000	-1.000000	-1.000000	-1.000000	63.000000	0.000000	-1.000000	-1.000000	674201.000000	1775714272.077623
-27991.665000	-5209.695000	969.705000	-5249.070000	-18198.405000	-31949.145000	14941.710000	39275.595000	5.678409	9.108539	11.533807	15.283110	20.979414	-2.282011	1.017445	3.489371	-47.550160	13.199900	-7.721560	-0.662047	0.080017	0.727598	-1.000000	-1.000000	-1.000000	-1.000000	-1.000000	-1.000000	-1.000000	63.000000	0.000000	-1.000000	-1.000000	674202.000000	1775714272.077636
-27993.330000	-5212.755000	965.835000	-5259.240000	-18222.885000	-31993.740000	14923.395000	39273.660000	5.493273	8.793764	11.117244	13.687913	13.991864	-27.176607	-2.404987	3.381199	-47.550160	13.199900	-7.721560	-0.662047	0.080017	0.727598	-1.000000	-1.000000	-1.000000	-1.000000	-1.000000	-1.000000	-1.000000	63.000000	0.000000	-1.000000	-1.000000	674203.000000	1775714272.080546
-27997.155000	-5217.705000	964.080000	-5260.905000	-18224.595000	-32000.580000	14910.525000	39269.025000	4.063854	5.502480	6.660709	5.953380	0.454577	-42.109086	-5.890569	2.756947	-47.550160	13.199900	-7.721560	-0.662047	0.080017	0.727598	-1.000000	-1.000000	-1.000000	-1.000000	-1.000000	-1.000000	-1.000000	63.000000	0.000000	-1.000000	-1.000000	674204.000000	1775714272.080574
-27987.390000	-5207.265000	977.355000	-5241.870000	-18199.620000	-31900.905000	14935.455000	39281.580000	1.827692	0.559567	0.187717	-3.749069	-12.898275	-36.399898	-7.109215	1.759568	-47.550160	13.199900	-7.721560	-0.662047	0.080017	0.727598	-1.000000	-1.000000	-1.000000	-1.000000	-1.000000	-1.000000	-1.000000	63.000000	0.000000	-1.000000	-1.000000	674205.000000	1775714272.081850
-27964.080000	-5183.955000	997.560000	-5222.475000	-18169.605000	-31792.770000	14953.860000	39296.925000	0.324907	-3.139264	-4.594867	-9.389427	-17.612137	-6.201068	-3.022881	1.413161	-47.550160	13.199900	-7.721560	-0.662047	0.080017	0.727598	-1.000000	-1.000000	-1.000000	-1.000000	-1.000000	-1.000000	-1.000000	63.000000	0.000000	-1.000000	-1.000000	674206.000000	1775714272.081877
-27973.665000	-5201.190000	974.610000	-5252.400000	-18221.445000	-31859.415000	14974.155000	39288.330000	0.735922	-3.546771	-5.609184	-8.694646	-11.954342	36.121287	6.263666	2.230377	-47.550160	13.199900	-7.721560	-0.662047	0.080017	0.727598	-1.000000	-1.000000	-1.000000	-1.000000	-1.000000	-1.000000	-1.000000	63.000000	0.000000	-1.000000	-1.000000	674207.000000	1775714272.085036
-27967.230000	-5195.340000	981.945000	-5242.320000	-18195.750000	-31826.745000	14978.520000	39302.460000	1.610134	-2.260447	-4.787512	-5.371947	-3.302516	62.301523	15.603788	2.794548	-47.550160	13.199900	-7.721560	-0.662047	0.080017	0.727598	-1.000000	-1.000000	-1.000000	-1.000000	-1.000000	-1.000000	-1.000000	63.000000	0.000000	-1.000000	-1.000000	674208.000000	1775714272.085053
-27959.175000	-5185.305000	992.880000	-5226.570000	-18149.760000	-31804.155000	14976.135000	39309.885000	0.844938	-1.753409	-4.319152	-2.971757	2.657300	54.115843	18.352348	1.883100	-47.550160	13.199900	-7.721560	-0.662047	0.080017	0.727598	-1.000000	-1.000000	-1.000000	-1.000000	-1.000000	-1.000000	-1.000000	63.000000	0.000000	-1.000000	-1.000000	674209.000000	1775714272.094432
-27976.005000	-5201.325000	973.080000	-5246.550000	-18179.595000	-31889.250000	14964.075000	39291.480000	-1.691003	-2.235929	-3.931675	-1.325355	6.734793	18.713578	11.452644	-0.397375	-47.550160	13.199900	-7.721560	-0.662047	0.080017	0.727598	-1.000000	-1.000000	-1.000000	-1.000000	-1.000000	-1.000000	-1.000000	63.000000	0.000000	-1.000000	-1.000000	674210.000000	1775714272.094458
-27990.135000	-5213.610000	962.685000	-5258.520000	-18209.115000	-31785.570000	14962.680000	39280.950000	-5.385637	-3.485546	-3.655742	-0.519097	7.675821	-23.227374	-2.211542	-4.126563	-39.782820	6.332900	-1.587040	-0.670958	0.026123	0.723143	-1.000000	-1.000000	-1.000000	-1.000000	-1.000000	-1.000000	-1.000000	63.000000	0.000000	-1.000000	-1.000000	674211.000000	1775714272.094549
-27998.865000	-5225.895000	947.475000	-5279.220000	-18246.375000	-31910.895000	14961.735000	39277.305000	-9.274248	-5.511662	-4.211332	-1.721182	1.614718	-51.240903	-15.475951	-8.574334	-39.782820	6.332900	-1.587040	-0.670958	0.026123	0.723143	-1.000000	-1.000000	-1.000000	-1.000000	-1.000000	-1.000000	-1.000000	63.000000	0.000000	-1.000000	-1.000000	674212.000000	1775714272.094567
-28006.335000	-5235.030000	937.170000	-5291.370000	-18256.950000	-31969.665000	14946.030000	39270.555000	-11.133284	-7.068486	-4.934312	-4.318340	-9.645955	-58.553417	-21.885738	-11.058820	-39.782820	6.332900	-1.587040	-0.670958	0.026123	0.723143	-1.000000	-1.000000	-1.000000	-1.000000	-1.000000	-1.000000	-1.000000	63.000000	0.000000	-1.000000	-1.000000	674213.000000	1775714272.100971
-28000.845000	-5227.650000	945.045000	-5281.470000	-18236.790000	-31894.245000	14947.110000	39273.480000	-8.774019	-6.063318	-3.938420	-5.486092	-17.458214	-49.797512	-19.723349	-9.239892	-39.782820	6.332900	-1.587040	-0.670958	0.026123	0.723143	-1.000000	-1.000000	-1.000000	-1.000000	-1.000000	-1.000000	-1.000000	63.000000	0.000000	-1.000000	-1.000000	674214.000000	1775714272.100997
-27995.805000	-5220.945000	952.020000	-5275.980000	-18235.575000	-31864.995000	14953.230000	39278.070000	-1.955252	-1.226027	0.344960	-2.290116	-13.887553	-25.177259	-11.111199	-3.174171	-39.782820	6.332900	-1.587040	-0.670958	0.026123	0.723143	-1.000000	-1.000000	-1.000000	-1.000000	-1.000000	-1.000000	-1.000000	63.000000	0.000000	-1.000000	-1.000000	674215.000000	1775714272.113778
-27996.030000	-5220.945000	953.415000	-5273.280000	-18222.030000	-31866.345000	14955.255000	39278.205000	6.872702	6.180178	7.143844	5.051719	0.385840	12.349956	0.444173	4.745372	-39.782820	6.332900	-1.587040	-0.670958	0.026123	0.723143	-1.000000	-1.000000	-1.000000	-1.000000	-1.000000	-1.000000	-1.000000	63.000000	0.000000	-1.000000	-1.000000	674216.000000	1775714272.113805
-27995.310000	-5217.525000	958.365000	-5266.305000	-18215.415000	-31926.690000	14946.840000	39277.305000	13.543090	12.403870	12.986023	12.530944	16.763345	45.134393	10.589835	10.914738	-39.782820	6.332900	-1.587040	-0.670958	0.026123	0.723143	-1.000000	-1.000000	-1.000000	-1.000000	-1.000000	-1.000000	-1.000000	63.000000	0.000000	-1.000000	-1.000000	674217.000000	1775714272.113836
-27991.485000	-5214.060000	962.010000	-5265.090000	-18227.700000	-31914.090000	14949.000000	39275.955000	14.964577	14.071940	14.470627	15.738834	25.779468	54.164067	15.397494	12.557415	-39.782820	6.332900	-1.587040	-0.670958	0.026123	0.723143	-1.000000	-1.000000	-1.000000	-1.000000	-1.000000	-1.000000	-1.000000	63.000000	0.000000	-1.000000	-1.000000	674218.000000	1775714272.113848
-27991.980000	-5214.915000	962.550000	-5260.905000	-18236.970000	-31945.725000	14951.250000	39281.130000	11.089806	10.578583	10.777428	12.965832	22.542931	37.630580	13.963416	9.511158	-39.782820	6.332900	-1.587040	-0.670958	0.026123	0.723143	-1.000000	-1.000000	-1.000000	-1.000000	-1.000000	-1.000000	-1.000000	63.000000	0.000000	-1.000000	-1.000000	674219.000000	1775714272.113863
-27991.215000	-5213.970000	966.285000	-5250.195000	-18200.745000	-31914.270000	14946.480000	39283.830000	4.214972	3.780031	3.665346	5.849811	9.883998	10.134339	8.538127	4.066335	-39.782820	6.332900	-1.587040	-0.670958	0.026123	0.723143	-1.000000	-1.000000	-1.000000	-1.000000	-1.000000	-1.000000	-1.000000	63.000000	0.000000	-1.000000	-1.000000	674220.000000	1775714272.113874
-27985.815000	-5208.030000	972.945000	-5246.730000	-18190.080000	-31900.095000	14948.640000	39286.485000	-2.651031	-3.312339	-3.729611	-2.002398	-3.167132	-10.899267	2.128545	-0.996494	-18.235700	1.190280	3.860780	-0.691466	-0.028259	0.715513	-1.000000	-1.000000	-1.000000	-1.000000	-1.000000	-1.000000	-1.000000	63.000000	0.000000	-1.000000	-1.000000	674221.000000	1775714272.128186
-27986.490000	-5209.740000	965.925000	-5266.125000	-18272.925000	-31963.590000	14944.860000	39283.560000	-7.078273	-7.965138	-8.701481	-8.034056	-11.249866	-17.977116	-3.014951	-4.220139	-18.235700	1.190280	3.860780	-0.691466	-0.028259	0.715513	-1.000000	-1.000000	-1.000000	-1.000000	-1.000000	-1.000000	-1.000000	63.000000	0.000000	-1.000000	-1.000000	674222.000000	1775714272.128214
-27982.080000	-5204.205000	973.080000	-5260.275000	-18291.690000	-31936.905000	14939.460000	39282.570000	-8.204337	-9.081116	-10.364060	-11.875441	-17.624656	-16.107665	-5.847888	-5.647368	-18.235700	1.190280	3.860780	-0.691466	-0.028259	0.715513	-1.000000	-1.000000	-1.000000	-1.000000	-1.000000	-1.000000	-1.000000	63.000000	0.000000	-1.000000	-1.000000	674223.000000	1775714272.128325
-27996.300000	-5215.500000	966.645000	-5251.230000	-18181.530000	-31858.650000	14940.855000	39271.455000	-6.953808	-7.467449	-9.213620	-12.905788	-21.815763	-10.095694	-6.435073	-5.987808	-18.235700	1.190280	3.860780	-0.691466	-0.028259	0.715513	-1.000000	-1.000000	-1.000000	-1.000000	-1.000000	-1.000000	-1.000000	63.000000	0.000000	-1.000000	-1.000000	674224.000000	1775714272.128340
-28005.705000	-5226.840000	953.505000	-5260.815000	-18167.940000	-31872.330000	14941.305000	39267.405000	-5.303476	-5.150814	-6.584778	-10.040525	-14.307944	0.829526	-5.146613	-5.854906	-18.235700	1.190280	3.860780	-0.691466	-0.028259	0.715513	-1.000000	-1.000000	-1.000000	-1.000000	-1.000000	-1.000000	-1.000000	63.000000	0.000000	-1.000000	-1.000000	674225.000000	1775714272.128363
-27992.745000	-5215.185000	964.350000	-5252.130000	-18187.020000	-31895.370000	14948.145000	39279.375000	-4.156488	-3.452797	-3.869320	-4.311070	5.400162	11.857804	-2.384382	-4.903461	-18.235700	1.190280	3.860780	-0.691466	-0.028259	0.715513	-1.000000	-1.000000	-1.000000	-1.000000	-1.000000	-1.000000	-1.000000	63.000000	0.000000	-1.000000	-1.000000	674226.000000	1775714272.128375
-27980.730000	-5205.330000	972.405000	-5249.295000	-18192.915000	-31915.080000	14953.545000	39292.020000	-2.017402	-1.355721	-0.883225	1.782767	21.868787	12.755552	1.111852	-1.853886	-18.235700	1.190280	3.860780	-0.691466	-0.028259	0.715513	-1.000000	-1.000000	-1.000000	-1.000000	-1.000000	-1.000000	-1.000000	63.000000	0.000000	-1.000000	-1.000000	674227.000000	1775714272.128390
-27984.870000	-5210.325000	965.610000	-5256.270000	-18208.170000	-31947.210000	14951.655000	39288.825000	2.199360	2.248173	2.909225	6.142917	21.949183	0.810191	4.057172	3.201369	-18.235700	1.190280	3.860780	-0.691466	-0.028259	0.715513	-1.000000	-1.000000	-1.000000	-1.000000	-1.000000	-1.000000	-1.000000	63.000000	0.000000	-1.000000	-1.000000	674228.000000	1775714272.128401
-27989.640000	-5215.545000	959.625000	-5256.270000	-18211.455000	-31946.670000	14950.485000	39285.045000	6.316687	5.695832	5.956530	7.325302	7.280589	-15.828477	4.926600	7.355351	-18.235700	1.190280	3.860780	-0.691466	-0.028259	0.715513	-1.000000	-1.000000	-1.000000	-1.000000	-1.000000	-1.000000	-1.000000	63.000000	0.000000	-1.000000	-1.000000	674229.000000	1775714272.130928
-27993.780000	-5219.865000	955.800000	-5262.300000	-18225.990000	-31895.730000	14948.145000	39281.085000	7.119918	6.307711	6.119112	5.282895	-10.896724	-24.430393	3.119843	7.479703	-18.235700	1.190280	3.860780	-0.691466	-0.028259	0.715513	-1.000000	-1.000000	-1.000000	-1.000000	-1.000000	-1.000000	-1.000000	63.000000	0.000000	-1.000000	-1.000000	674230.000000	1775714272.130953
-27993.420000	-5219.055000	956.880000	-5263.155000	-18224.730000	-31870.620000	14943.645000	39279.960000	4.079067	3.708422	3.516887	1.611819	-21.818531	-16.469877	-0.381490	3.477419	-3.921820	-3.418240	1.449700	-0.698546	-0.047729	0.711790	-1.000000	-1.000000	-1.000000	-1.000000	-1.000000	-1.000000	-1.000000	63.000000	0.000000	-1.000000	-1.000000	674231.000000	1775714272.133635
-27992.880000	-5216.445000	962.955000	-5252.940000	-18193.455000	-31883.940000	14941.035000	39278.700000	-0.400173	0.072657	0.439499	-1.377175	-20.372546	3.780258	-3.771015	-1.876006	-3.921820	-3.418240	1.449700	-0.698546	-0.047729	0.711790	-1.000000	-1.000000	-1.000000	-1.000000	-1.000000	-1.000000	-1.000000	63.000000	0.000000	-1.000000	-1.000000	674232.000000	1775714272.133652
-27991.935000	-5214.645000	964.935000	-5249.835000	-18195.390000	-31882.635000	14944.995000	39279.555000	-3.449474	-2.121848	-0.911530	-1.864890	-7.874051	21.381672	-5.372157	-5.440909	-3.921820	-3.418240	1.449700	-0.698546	-0.047729	0.711790	-1.000000	-1.000000	-1.000000	-1.000000	-1.000000	-1.000000	-1.000000	63.000000	0.000000	-1.000000	-1.000000	674233.000000	1775714272.137761
-27992.070000	-5214.150000	965.430000	-5246.370000	-18187.740000	-31859.685000	14948.235000	39279.960000	-3.839780	-2.055508	-0.275113	0.028253	8.228568	25.138163	-4.274034	-5.725571	-3.921820	-3.418240	1.449700	-0.698546	-0.047729	0.711790	-1.000000	-1.000000	-1.000000	-1.000000	-1.000000	-1.000000	-1.000000	63.000000	0.000000	-1.000000	-1.000000	674234.000000	1775714272.137780
-27990.450000	-5214.870000	962.325000	-5252.940000	-18208.710000	-31918.455000	14942.655000	39281.265000	-2.195866	-0.676734	0.851909	2.168139	18.343901	15.138599	-1.115474	-3.272693	-3.921820	-3.418240	1.449700	-0.698546	-0.047729	0.711790	-1.000000	-1.000000	-1.000000	-1.000000	-1.000000	-1.000000	-1.000000	63.000000	0.000000	-1.000000	-1.000000	674235.000000	1775714272.144439
-27991.575000	-5217.165000	959.130000	-5261.805000	-18229.950000	-31929.795000	14946.525000	39281.445000	0.028514	0.511290	0.888304	2.208323	16.925073	-2.736758	2.104146	0.172375	-3.921820	-3.418240	1.449700	-0.698546	-0.047729	0.711790	-1.000000	-1.000000	-1.000000	-1.000000	-1.000000	-1.000000	-1.000000	63.000000	0.000000	-1.000000	-1.000000	674236.000000	1775714272.144464
-28000.395000	-5227.605000	947.160000	-5275.440000	-18239.445000	-31936.500000	14943.060000	39274.245000	1.399259	0.466585	-0.662443	-0.589566	5.702342	-20.115092	3.730845	2.700997	-3.921820	-3.418240	1.449700	-0.698546	-0.047729	0.711790	-1.000000	-1.000000	-1.000000	-1.000000	-1.000000	-1.000000	-1.000000	63.000000	0.000000	-1.000000	-1.000000	674237.000000	1775714272.160093
-28006.020000	-5230.530000	944.865000	-5271.480000	-18216.720000	-31905.270000	14929.065000	39265.830000	1.037496	-0.938913	-3.105688	-4.568809	-7.046482	-27.008339	3.190319	2.989527	-3.921820	-3.418240	1.449700	-0.698546	-0.047729	0.711790	-1.000000	-1.000000	-1.000000	-1.000000	-1.000000	-1.000000	-1.000000	63.000000	0.000000	-1.000000	-1.000000	674238.000000	1775714272.160121
-27999.405000	-5222.790000	954.585000	-5261.715000	-18214.065000	-31918.545000	14931.180000	39272.535000	-0.503861	-2.478033	-4.616962	-6.387129	-12.224966	-18.668164	0.778059	1.258389	-3.921820	-3.418240	1.449700	-0.698546	-0.047729	0.711790	-1.000000	-1.000000	-1.000000	-1.000000	-1.000000	-1.000000	-1.000000	63.000000	0.000000	-1.000000	-1.000000	674239.000000	1775714272.160148
-27994.770000	-5218.425000	961.155000	-5252.895000	-18203.175000	-31943.655000	14929.425000	39272.580000	-1.295762	-2.216382	-3.216902	-3.671405	-7.378828	-1.413260	-1.902051	-0.546047	-3.921820	-3.418240	1.449700	-0.698546	-0.047729	0.711790	-1.000000	-1.000000	-1.000000	-1.000000	-1.000000	-1.000000	-1.000000	63.000000	0.000000	-1.000000	-1.000000	674240.000000	1775714272.160161
-27994.680000	-5217.660000	962.325000	-5250.555000	-18195.930000	-31932.720000	14923.530000	39272.715000	-0.131152	0.311504	0.968978	2.395820	2.424588	12.912363	-2.950686	-0.753411	8.896580	-3.769220	-1.052940	-0.689940	-0.045837	0.716612	-1.000000	-1.000000	-1.000000	-1.000000	-1.000000	-1.000000	-1.000000	63.000000	0.000000	-1.000000	-1.000000	674241.000000	1775714272.160176
-27992.070000	-5218.335000	957.420000	-5264.820000	-18233.640000	-31966.155000	14921.640000	39279.015000	2.051940	3.296692	5.118714	7.515841	9.425024	17.576728	-2.061526	0.501085	8.896580	-3.769220	-1.052940	-0.689940	-0.045837	0.716612	-1.000000	-1.000000	-1.000000	-1.000000	-1.000000	-1.000000	-1.000000	63.000000	0.000000	-1.000000	-1.000000	674242.000000	1775714272.160187
-27992.070000	-5220.315000	954.135000	-5272.560000	-18246.150000	-31960.035000	14913.495000	39278.565000	3.425107	4.470223	6.158354	7.640570	7.991835	13.357757	-0.319554	2.081337	8.896580	-3.769220	-1.052940	-0.689940	-0.045837	0.716612	-1.000000	-1.000000	-1.000000	-1.000000	-1.000000	-1.000000	-1.000000	63.000000	0.000000	-1.000000	-1.000000	674243.000000	1775714272.160201
-27990.090000	-5213.610000	965.340000	-5249.430000	-18199.080000	-31948.200000	14916.915000	39276.855000	3.026807	3.200228	3.695329	3.043944	0.065826	5.625089	1.180778	2.777873	8.896580	-3.769220	-1.052940	-0.689940	-0.045837	0.716612	-1.000000	-1.000000	-1.000000	-1.000000	-1.000000	-1.000000	-1.000000	63.000000	0.000000	-1.000000	-1.000000	674244.000000	1775714272.160213
-27984.465000	-5203.845000	978.615000	-5232.060000	-18180.495000	-31874.445000	14946.075000	39281.490000	1.277477	0.913981	0.389252	-1.364241	-5.165343	1.824896	2.691258	1.952793	8.896580	-3.769220	-1.052940	-0.689940	-0.045837	0.716612	-1.000000	-1.000000	-1.000000	-1.000000	-1.000000	-1.000000	-1.000000	63.000000	0.000000	-1.000000	-1.000000	674245.000000	1775714272.174248
-27991.800000	-5211.495000	972.855000	-5235.390000	-18184.770000	-31832.820000	14942.925000	39276.000000	-0.771587	-0.718168	-1.183818	-1.768558	-2.362875	6.622049	5.161412	0.050384	8.896580	-3.769220	-1.052940	-0.689940	-0.045837	0.716612	-1.000000	-1.000000	-1.000000	-1.000000	-1.000000	-1.000000	-1.000000	63.000000	0.000000	-1.000000	-1.000000	674246.000000	1775714272.174298
-28001.880000	-5224.815000	957.105000	-5247.990000	-18196.110000	-31925.565000	14917.995000	39268.440000	-2.727311	-1.922397	-1.634634	-0.005938	3.526869	14.228165	6.852447	-2.150343	8.896580	-3.769220	-1.052940	-0.689940	-0.045837	0.716612	-1.000000	-1.000000	-1.000000	-1.000000	-1.000000	-1.000000	-1.000000	63.000000	0.000000	-1.000000	-1.000000	674247.000000	1775714272.174329
-28018.665000	-5247.225000	930.420000	-5280.480000	-18229.725000	-31957.875000	14909.625000	39259.665000	-4.872104	-4.153121	-3.573591	-0.804630	4.299738	10.207640	4.021758	-4.207442	8.896580	-3.769220	-1.052940	-0.689940	-0.045837	0.716612	-1.000000	-1.000000	-1.000000	-1.000000	-1.000000	-1.000000	-1.000000	63.000000	0.000000	-1.000000	-1.000000	674248.000000	1775714272.174342
-28016.055000	-5246.595000	932.085000	-5279.310000	-18219.645000	-31867.965000	14912.055000	39261.915000	-6.712857	-7.291162	-7.488256	-5.802355	-2.271804	-8.230343	-3.145566	-5.416778	8.896580	-3.769220	-1.052940	-0.689940	-0.045837	0.716612	-1.000000	-1.000000	-1.000000	-1.000000	-1.000000	-1.000000	-1.000000	63.000000	0.000000	-1.000000	-1.000000	674249.000000	1775714272.174357
-28004.670000	-5230.575000	950.985000	-5259.375000	-18198.315000	-31833.045000	14919.840000	39267.945000	-6.215548	-8.301185	-9.652772	-10.626597	-10.003894	-23.390790	-9.308918	-4.532939	8.896580	-3.769220	-1.052940	-0.689940	-0.045837	0.716612	-1.000000	-1.000000	-1.000000	-1.000000	-1.000000	-1.000000	-1.000000	63.000000	0.000000	-1.000000	-1.000000	674250.000000	1775714272.174369
-27998.415000	-5221.485000	960.030000	-5253.120000	-18198.270000	-31870.305000	14928.795000	39271.320000	-1.729332	-3.988680	-5.688799	-9.052904	-10.887583	-21.074398	-9.532979	-1.009768	15.534680	0.610400	3.692920	-0.681273	-0.026489	0.722838	-1.000000	-1.000000	-1.000000	-1.000000	-1.000000	-1.000000	-1.000000	63.000000	0.000000	-1.000000	-1.000000	674251.000000	1775714272.177460
-28003.590000	-5230.890000	948.285000	-5267.925000	-18222.030000	-31919.040000	14928.075000	39267.450000	5.088261	4.355985	3.380115	-0.796303	-4.429266	-9.164106	-3.848504	3.630204	15.534680	0.610400	3.692920	-0.681273	-0.026489	0.722838	-1.000000	-1.000000	-1.000000	-1.000000	-1.000000	-1.000000	-1.000000	63.000000	0.000000	-1.000000	-1.000000	674252.000000	1775714272.177480
-28012.140000	-5242.995000	935.460000	-5280.345000	-18238.995000	-31918.320000	14931.585000	39268.665000	9.758802	10.891296	10.946740	7.598412	2.482314	-2.837744	3.418374	6.616149	15.534680	0.610400	3.692920	-0.681273	-0.026489	0.722838	-1.000000	-1.000000	-1.000000	-1.000000	-1.000000	-1.000000	-1.000000	63.000000	0.000000	-1.000000	-1.000000	674253.000000	1775714272.178257
-28010.565000	-5241.780000	936.630000	-5277.690000	-18232.020000	-31928.895000	14921.730000	39273.435000	9.124858	10.950933	11.612518	10.210009	4.573763	-4.793725	7.527589	6.460071	15.534680	0.610400	3.692920	-0.681273	-0.026489	0.722838	-1.000000	-1.000000	-1.000000	-1.000000	-1.000000	-1.000000	-1.000000	63.000000	0.000000	-1.000000	-1.000000	674254.000000	1775714272.178274
-27982.665000	-5212.755000	965.115000	-5249.160000	-18202.095000	-31927.455000	14906.610000	39289.590000	4.719701	5.983037	6.737218	7.716390	3.744728	-7.176184	6.216683	4.230578	15.534680	0.610400	3.692920	-0.681273	-0.026489	0.722838	-1.000000	-1.000000	-1.000000	-1.000000	-1.000000	-1.000000	-1.000000	63.000000	0.000000	-1.000000	-1.000000	674255.000000	1775714272.182542
-27977.715000	-5207.715000	969.840000	-5247.360000	-18203.625000	-31908.735000	14921.235000	39293.010000	1.035487	1.449407	2.046441	4.930684	4.717418	-3.369085	0.885496	2.059057	15.534680	0.610400	3.692920	-0.681273	-0.026489	0.722838	-1.000000	-1.000000	-1.000000	-1.000000	-1.000000	-1.000000	-1.000000	63.000000	0.000000	-1.000000	-1.000000	674256.000000	1775714272.182562
-27981.810000	-5209.110000	970.335000	-5246.955000	-18219.600000	-31960.440000	14924.520000	39290.310000	-0.024821	0.044581	0.497852	3.983022	7.412951	5.784333	-3.934115	0.578262	15.534680	0.610400	3.692920	-0.681273	-0.026489	0.722838	-1.000000	-1.000000	-1.000000	-1.000000	-1.000000	-1.000000	-1.000000	63.000000	0.000000	-1.000000	-1.000000	674257.000000	1775714272.186473
-27986.220000	-5211.495000	969.300000	-5244.705000	-18215.595000	-31951.755000	14916.555000	39283.920000	-0.715382	-0.360891	0.139091	2.906896	7.454726	13.296510	-4.789464	-1.360129	15.534680	0.610400	3.692920	-0.681273	-0.026489	0.722838	-1.000000	-1.000000	-1.000000	-1.000000	-1.000000	-1.000000	-1.000000	63.000000	0.000000	-1.000000	-1.000000	674258.000000	1775714272.186498
-27985.995000	-5211.090000	969.480000	-5242.770000	-18186.975000	-31866.030000	14918.310000	39284.145000	-3.173646	-2.302688	-1.609591	-0.046425	3.649027	15.969414	-2.513310	-4.364643	15.534680	0.610400	3.692920	-0.681273	-0.026489	0.722838	-1.000000	-1.000000	-1.000000	-1.000000	-1.000000	-1.000000	-1.000000	63.000000	0.000000	-1.000000	-1.000000	674259.000000	1775714272.191910
-27997.020000	-5224.725000	954.000000	-5260.005000	-18206.280000	-31874.220000	14914.755000	39275.550000	-6.680200	-5.713180	-5.013117	-4.437320	-0.730973	17.993861	0.157687	-7.245956	15.534680	0.610400	3.692920	-0.681273	-0.026489	0.722838	-1.000000	-1.000000	-1.000000	-1.000000	-1.000000	-1.000000	-1.000000	63.000000	0.000000	-1.000000	-1.000000	674260.000000	1775714272.191936
-28007.775000	-5233.005000	948.420000	-5260.365000	-18197.235000	-31868.730000	14909.085000	39265.425000	-9.292117	-9.004383	-8.719450	-8.825080	-3.670451	19.674347	1.522424	-8.455469	4.227020	3.265640	9.003400	-0.673094	0.001648	0.727842	-1.000000	-1.000000	-1.000000	-1.000000	-1.000000	-1.000000	-1.000000	63.000000	0.000000	-1.000000	-1.000000	674261.000000	1775714272.193327
-28004.265000	-5228.865000	953.730000	-5253.210000	-18193.590000	-31872.240000	14916.195000	39268.935000	-9.477200	-10.236308	-10.521245	-11.011646	-5.376582	14.926249	1.431373	-7.298889	4.227020	3.265640	9.003400	-0.673094	0.001648	0.727842	-1.000000	-1.000000	-1.000000	-1.000000	-1.000000	-1.000000	-1.000000	63.000000	0.000000	-1.000000	-1.000000	674262.000000	1775714272.193343
-28009.215000	-5233.860000	948.870000	-5257.890000	-18204.705000	-31899.195000	14919.885000	39266.910000	-6.373956	-7.820409	-8.399733	-8.982491	-5.906326	1.241488	1.017648	-3.683953	4.227020	3.265640	9.003400	-0.673094	0.001648	0.727842	-1.000000	-1.000000	-1.000000	-1.000000	-1.000000	-1.000000	-1.000000	63.000000	0.000000	-1.000000	-1.000000	674263.000000	1775714272.204811
-28014.885000	-5241.240000	937.620000	-5274.000000	-18237.060000	-31955.940000	14911.785000	39263.535000	-0.749824	-2.269802	-2.894434	-3.649758	-6.149952	-17.612112	1.149207	1.486830	4.227020	3.265640	9.003400	-0.673094	0.001648	0.727842	-1.000000	-1.000000	-1.000000	-1.000000	-1.000000	-1.000000	-1.000000	63.000000	0.000000	-1.000000	-1.000000	674264.000000	1775714272.204839
-27996.345000	-5222.880000	952.425000	-5264.235000	-18243.000000	-31968.495000	14899.545000	39276.405000	5.269126	4.048868	3.217717	1.731413	-7.424777	-34.564930	0.988224	6.359088	4.227020	3.265640	9.003400	-0.673094	0.001648	0.727842	-1.000000	-1.000000	-1.000000	-1.000000	-1.000000	-1.000000	-1.000000	63.000000	0.000000	-1.000000	-1.000000	674265.000000	1775714272.204868
-27987.345000	-5213.835000	960.930000	-5255.820000	-18213.165000	-31891.455000	14894.370000	39281.130000	10.206225	9.417472	8.101313	5.493894	-7.814054	-39.336760	-0.607296	9.579568	4.227020	3.265640	9.003400	-0.673094	0.001648	0.727842	-1.000000	-1.000000	-1.000000	-1.000000	-1.000000	-1.000000	-1.000000	63.000000	0.000000	-1.000000	-1.000000	674266.000000	1775714272.204881
-27995.445000	-5224.005000	951.705000	-5261.355000	-18197.640000	-31874.130000	14909.805000	39279.555000	12.812062	12.500503	10.940266	7.866779	-2.976854	-23.552526	-2.609095	10.369256	4.227020	3.265640	9.003400	-0.673094	0.001648	0.727842	-1.000000	-1.000000	-1.000000	-1.000000	-1.000000	-1.000000	-1.000000	63.000000	0.000000	-1.000000	-1.000000	674267.000000	1775714272.206200
-27998.055000	-5224.140000	956.385000	-5248.755000	-18183.690000	-31910.670000	14907.420000	39276.720000	11.133505	11.295693	10.404313	8.607195	7.340889	6.443216	-2.507775	7.962172	4.227020	3.265640	9.003400	-0.673094	0.001648	0.727842	-1.000000	-1.000000	-1.000000	-1.000000	-1.000000	-1.000000	-1.000000	63.000000	0.000000	-1.000000	-1.000000	674268.000000	1775714272.206223
-27981.270000	-5200.740000	983.385000	-5220.810000	-18187.560000	-31943.340000	14913.180000	39286.755000	5.180097	5.940166	6.733370	7.837371	17.014654	29.962026	0.271105	2.856695	4.227020	3.265640	9.003400	-0.673094	0.001648	0.727842	-1.000000	-1.000000	-1.000000	-1.000000	-1.000000	-1.000000	-1.000000	63.000000	0.000000	-1.000000	-1.000000	674269.000000	1775714272.210556
-27974.970000	-5193.990000	989.640000	-5216.940000	-18171.765000	-31930.020000	14922.315000	39292.110000	-1.543872	0.082408	2.774661	6.693378	19.280183	32.289288	3.752789	-2.452235	4.227020	3.265640	9.003400	-0.673094	0.001648	0.727842	-1.000000	-1.000000	-1.000000	-1.000000	-1.000000	-1.000000	-1.000000	63.000000	0.000000	-1.000000	-1.000000	674270.000000	1775714272.210576
-27989.055000	-5210.865000	972.450000	-5230.845000	-18183.870000	-31946.580000	14916.420000	39282.345000	-5.859775	-3.604384	-0.092189	4.612098	12.574772	17.503329	5.673519	-5.718989	-13.077820	5.875100	8.087800	-0.667662	0.017700	0.731566	-1.000000	-1.000000	-1.000000	-1.000000	-1.000000	-1.000000	-1.000000	63.000000	0.000000	-1.000000	-1.000000	674271.000000	1775714272.213803
-27993.915000	-5225.490000	954.315000	-5250.285000	-18210.105000	-31904.055000	14917.410000	39274.695000	-7.973764	-6.360358	-3.863625	-0.766912	-0.039452	0.119717	4.673351	-7.057614	-13.077820	5.875100	8.087800	-0.667662	0.017700	0.731566	-1.000000	-1.000000	-1.000000	-1.000000	-1.000000	-1.000000	-1.000000	63.000000	0.000000	-1.000000	-1.000000	674272.000000	1775714272.213829
-28000.260000	-5238.090000	942.165000	-5260.770000	-18210.375000	-31804.110000	14917.185000	39261.510000	-9.106773	-9.816057	-9.729692	-9.432364	-13.642258	-6.544302	1.029033	-7.685386	-13.077820	5.875100	8.087800	-0.667662	0.017700	0.731566	-1.000000	-1.000000	-1.000000	-1.000000	-1.000000	-1.000000	-1.000000	63.000000	0.000000	-1.000000	-1.000000	674273.000000	1775714272.217726
-28006.470000	-5237.370000	944.370000	-5256.630000	-18193.635000	-31876.965000	14913.225000	39269.655000	-9.028200	-12.474068	-14.796635	-16.929479	-21.822894	0.488661	-3.303611	-7.578927	-13.077820	5.875100	8.087800	-0.667662	0.017700	0.731566	-1.000000	-1.000000	-1.000000	-1.000000	-1.000000	-1.000000	-1.000000	63.000000	0.000000	-1.000000	-1.000000	674274.000000	1775714272.217744
-27992.205000	-5220.540000	955.755000	-5247.180000	-18192.330000	-31926.780000	14912.685000	39281.355000	-6.641678	-10.880595	-14.340530	-17.554462	-19.549405	7.860185	-6.246673	-5.138204	-13.077820	5.875100	8.087800	-0.667662	0.017700	0.731566	-1.000000	-1.000000	-1.000000	-1.000000	-1.000000	-1.000000	-1.000000	63.000000	0.000000	-1.000000	-1.000000	674275.000000	1775714272.221782
-27996.165000	-5224.095000	951.210000	-5255.640000	-18201.240000	-31930.065000	14900.310000	39276.270000	-1.487694	-3.559372	-6.729679	-9.763025	-8.435311	0.873946	-6.922032	0.315584	-13.077820	5.875100	8.087800	-0.667662	0.017700	0.731566	-1.000000	-1.000000	-1.000000	-1.000000	-1.000000	-1.000000	-1.000000	63.000000	0.000000	-1.000000	-1.000000	674276.000000	1775714272.221804
-28003.365000	-5231.070000	945.720000	-5262.210000	-18206.505000	-31914.720000	14898.555000	39271.680000	4.611713	6.137185	4.153854	1.837524	4.037911	-16.135152	-5.734493	6.208996	-13.077820	5.875100	8.087800	-0.667662	0.017700	0.731566	-1.000000	-1.000000	-1.000000	-1.000000	-1.000000	-1.000000	-1.000000	63.000000	0.000000	-1.000000	-1.000000	674277.000000	1775714272.227861
-28005.390000	-5233.140000	946.485000	-5257.530000	-18193.140000	-31852.440000	14901.345000	39268.755000	8.282860	12.408077	12.147316	10.745457	11.532760	-25.486765	-3.281121	8.814516	-13.077820	5.875100	8.087800	-0.667662	0.017700	0.731566	-1.000000	-1.000000	-1.000000	-1.000000	-1.000000	-1.000000	-1.000000	63.000000	0.000000	-1.000000	-1.000000	674278.000000	1775714272.227885
-28001.250000	-5228.415000	952.695000	-5254.515000	-18194.130000	-31839.030000	14904.045000	39271.230000	8.016405	12.443428	14.105521	13.945746	13.035340	-16.276625	0.262001	7.079828	-13.077820	5.875100	8.087800	-0.667662	0.017700	0.731566	-1.000000	-1.000000	-1.000000	-1.000000	-1.000000	-1.000000	-1.000000	63.000000	0.000000	-1.000000	-1.000000	674279.000000	1775714272.235059
-27993.330000	-5220.720000	959.355000	-5252.535000	-18207.225000	-31858.695000	14908.770000	39277.530000	5.383439	8.116199	11.208717	12.308096	10.267752	4.737709	4.287234	3.147091	-13.077820	5.875100	8.087800	-0.667662	0.017700	0.731566	-1.000000	-1.000000	-1.000000	-1.000000	-1.000000	-1.000000	-1.000000	63.000000	0.000000	-1.000000	-1.000000	674280.000000	1775714272.235094
-27994.140000	-5221.440000	960.210000	-5248.575000	-18214.380000	-31826.790000	14909.085000	39277.980000	2.733995	2.980796	6.292360	8.007565	4.624837	20.932129	7.355286	-0.139514	-13.138860	5.691980	7.340060	-0.670592	0.013733	0.730284	-1.000000	-1.000000	-1.000000	-1.000000	-1.000000	-1.000000	-1.000000	63.000000	0.000000	-1.000000	-1.000000	674281.000000	1775714272.235128
-28004.310000	-5231.205000	947.610000	-5260.050000	-18232.740000	-31948.650000	14904.630000	39271.680000	0.688620	-1.125545	1.069056	2.780799	-2.307005	20.760733	7.907658	-1.738188	-13.138860	5.691980	7.340060	-0.670592	0.013733	0.730284	-1.000000	-1.000000	-1.000000	-1.000000	-1.000000	-1.000000	-1.000000	63.000000	0.000000	-1.000000	-1.000000	674282.000000	1775714272.235139
-28005.345000	-5230.575000	947.565000	-5263.245000	-18232.515000	-31975.470000	14899.770000	39270.690000	-1.565485	-4.287884	-4.023834	-2.478579	-8.007475	2.735385	5.278797	-2.459409	-13.138860	5.691980	7.340060	-0.670592	0.013733	0.730284	-1.000000	-1.000000	-1.000000	-1.000000	-1.000000	-1.000000	-1.000000	63.000000	0.000000	-1.000000	-1.000000	674283.000000	1775714272.243728
-27998.685000	-5220.855000	959.940000	-5245.740000	-18194.445000	-31923.045000	14901.525000	39274.065000	-3.862407	-6.203318	-7.779401	-6.459416	-9.090610	-21.392640	0.548261	-2.952605	-13.138860	5.691980	7.340060	-0.670592	0.013733	0.730284	-1.000000	-1.000000	-1.000000	-1.000000	-1.000000	-1.000000	-1.000000	63.000000	0.000000	-1.000000	-1.000000	674284.000000	1775714272.243754
-27995.940000	-5219.550000	959.040000	-5247.720000	-18197.415000	-31932.540000	14905.125000	39275.640000	-4.612244	-5.718292	-8.170112	-7.141193	-3.408418	-31.083626	-3.730346	-2.795573	-13.138860	5.691980	7.340060	-0.670592	0.013733	0.730284	-1.000000	-1.000000	-1.000000	-1.000000	-1.000000	-1.000000	-1.000000	63.000000	0.000000	-1.000000	-1.000000	674285.000000	1775714272.243782
-27998.640000	-5222.520000	957.060000	-5247.495000	-18198.495000	-31949.640000	14906.745000	39273.255000	-3.112636	-2.994690	-5.154465	-4.450627	5.737860	-18.177009	-5.338571	-1.676054	-13.138860	5.691980	7.340060	-0.670592	0.013733	0.730284	-1.000000	-1.000000	-1.000000	-1.000000	-1.000000	-1.000000	-1.000000	63.000000	0.000000	-1.000000	-1.000000	674286.000000	1775714272.243795
-27998.415000	-5220.315000	962.640000	-5237.685000	-18189.180000	-31955.760000	14900.355000	39273.345000	-0.644394	0.023668	-1.077190	-0.735714	11.467565	5.432792	-4.187757	-0.212087	-13.138860	5.691980	7.340060	-0.670592	0.013733	0.730284	-1.000000	-1.000000	-1.000000	-1.000000	-1.000000	-1.000000	-1.000000	63.000000	0.000000	-1.000000	-1.000000	674287.000000	1775714272.246923
-27996.930000	-5218.695000	965.700000	-5233.815000	-18196.155000	-31910.175000	14894.820000	39274.650000	1.139292	1.729761	1.992681	2.028950	10.209470	24.380161	-2.123985	0.813758	-13.138860	5.691980	7.340060	-0.670592	0.013733	0.730284	-1.000000	-1.000000	-1.000000	-1.000000	-1.000000	-1.000000	-1.000000	63.000000	0.000000	-1.000000	-1.000000	674288.000000	1775714272.246951
-27992.520000	-5215.545000	965.610000	-5238.630000	-18209.295000	-31914.810000	14903.910000	39280.905000	1.761052	2.014271	3.366270	3.031715	3.205055	32.449530	-0.678028	1.318495	-13.138860	5.691980	7.340060	-0.670592	0.013733	0.730284	-1.000000	-1.000000	-1.000000	-1.000000	-1.000000	-1.000000	-1.000000	63.000000	0.000000	-1.000000	-1.000000	674289.000000	1775714272.251238
-27985.455000	-5210.595000	973.485000	-5228.730000	-18169.110000	-31908.960000	14906.610000	39286.350000	1.783157	1.607466	3.169670	2.086358	-5.172704	29.511136	0.412719	1.739260	-13.138860	5.691980	7.340060	-0.670592	0.013733	0.730284	-1.000000	-1.000000	-1.000000	-1.000000	-1.000000	-1.000000	-1.000000	63.000000	0.000000	-1.000000	-1.000000	674290.000000	1775714272.251265
-27979.380000	-5208.165000	982.170000	-5215.905000	-18144.405000	-31896.450000	14911.020000	39293.955000	1.864341	1.178996	2.209495	0.318460	-8.731221	17.530997	1.844588	2.305567	1.403920	5.554640	5.279960	-0.674742	0.001404	0.725889	-1.000000	-1.000000	-1.000000	-1.000000	-1.000000	-1.000000	-1.000000	63.000000	0.000000	-1.000000	-1.000000	674291.000000	1775714272.255639
-27989.685000	-5217.930000	971.640000	-5228.370000	-18164.430000	-31886.190000	14904.630000	39286.395000	1.774834	0.646102	1.155644	-0.820410	-5.252791	1.547454	3.065656	2.484470	1.403920	5.554640	5.279960	-0.674742	0.001404	0.725889	-1.000000	-1.000000	-1.000000	-1.000000	-1.000000	-1.000000	-1.000000	63.000000	0.000000	-1.000000	-1.000000	674292.000000	1775714272.255663
-28007.865000	-5237.505000	942.570000	-5263.830000	-18223.020000	-31957.290000	14893.740000	39270.105000	0.186857	-0.955127	-0.899046	-2.259439	-1.145696	-13.506853	2.641205	0.991954	1.403920	5.554640	5.279960	-0.674742	0.001404	0.725889	-1.000000	-1.000000	-1.000000	-1.000000	-1.000000	-1.000000	-1.000000	63.000000	0.000000	-1.000000	-1.000000	674293.000000	1775714272.261369
-28020.510000	-5252.580000	918.090000	-5286.240000	-18240.435000	-31952.070000	14890.905000	39260.565000	-3.646582	-4.199543	-5.342778	-6.145410	-4.250099	-25.946195	-0.001728	-2.820042	1.403920	5.554640	5.279960	-0.674742	0.001404	0.725889	-1.000000	-1.000000	-1.000000	-1.000000	-1.000000	-1.000000	-1.000000	63.000000	0.000000	-1.000000	-1.000000	674294.000000	1775714272.261396
-28024.920000	-5253.795000	921.780000	-5277.195000	-18211.275000	-31855.230000	14892.030000	39255.435000	-7.911424	-7.515130	-10.552369	-10.941751	-12.220117	-30.834803	-3.290417	-7.226312	1.403920	5.554640	5.279960	-0.674742	0.001404	0.725889	-1.000000	-1.000000	-1.000000	-1.000000	-1.000000	-1.000000	-1.000000	63.000000	0.000000	-1.000000	-1.000000	674295.000000	1775714272.262788
-28021.185000	-5249.115000	931.185000	-5266.035000	-18196.290000	-31850.280000	14894.100000	39258.405000	-9.066481	-7.650827	-11.497835	-11.002682	-14.077779	-20.106697	-4.634939	-8.903648	1.403920	5.554640	5.279960	-0.674742	0.001404	0.725889	-1.000000	-1.000000	-1.000000	-1.000000	-1.000000	-1.000000	-1.000000	63.000000	0.000000	-1.000000	-1.000000	674296.000000	1775714272.262811
-28016.190000	-5244.165000	936.180000	-5265.405000	-18205.920000	-31889.430000	14895.675000	39264.075000	-4.997655	-2.783542	-4.867815	-3.138656	-4.361349	1.984877	-2.903492	-5.758404	1.403920	5.554640	5.279960	-0.674742	0.001404	0.725889	-1.000000	-1.000000	-1.000000	-1.000000	-1.000000	-1.000000	-1.000000	63.000000	0.000000	-1.000000	-1.000000	674297.000000	1775714272.268307
-28010.520000	-5237.325000	943.245000	-5260.230000	-18212.220000	-31941.315000	14891.670000	39269.025000	2.898286	5.279799	6.655020	8.881822	10.188083	17.116570	0.634872	1.220875	1.403920	5.554640	5.279960	-0.674742	0.001404	0.725889	-1.000000	-1.000000	-1.000000	-1.000000	-1.000000	-1.000000	-1.000000	63.000000	0.000000	-1.000000	-1.000000	674298.000000	1775714272.268332
-28000.755000	-5223.780000	959.715000	-5241.240000	-18188.865000	-31955.085000	14891.625000	39275.055000	10.696153	12.498602	16.763830	18.193835	19.561002	13.183323	3.557091	8.552300	1.403920	5.554640	5.279960	-0.674742	0.001404	0.725889	-1.000000	-1.000000	-1.000000	-1.000000	-1.000000	-1.000000	-1.000000	63.000000	0.000000	-1.000000	-1.000000	674299.000000	1775714272.280825
-28000.080000	-5222.205000	961.785000	-5237.595000	-18164.790000	-31887.135000	14898.510000	39276.495000	14.606573	15.448266	20.548268	20.653389	20.590253	-1.900433	4.453101	12.556728	1.403920	5.554640	5.279960	-0.674742	0.001404	0.725889	-1.000000	-1.000000	-1.000000	-1.000000	-1.000000	-1.000000	-1.000000	63.000000	0.000000	-1.000000	-1.000000	674300.000000	1775714272.280851
-28009.755000	-5235.300000	945.315000	-5258.880000	-18197.955000	-31849.335000	14900.400000	39269.610000	12.627684	12.425006	16.178441	15.405105	15.311451	-9.290507	3.743320	11.283602	8.209880	5.142620	4.562740	-0.676512	-0.005127	0.726011	-1.000000	-1.000000	-1.000000	-1.000000	-1.000000	-1.000000	-1.000000	63.000000	0.000000	-1.000000	-1.000000	674301.000000	1775714272.280879
-28004.895000	-5231.205000	948.465000	-5259.690000	-18217.170000	-31924.080000	14897.115000	39270.960000	5.372143	4.017436	4.970278	3.804208	4.813519	-1.928402	2.298475	5.303294	8.209880	5.142620	4.562740	-0.676512	-0.005127	0.726011	-1.000000	-1.000000	-1.000000	-1.000000	-1.000000	-1.000000	-1.000000	63.000000	0.000000	-1.000000	-1.000000	674302.000000	1775714272.280892
-28004.445000	-5232.195000	949.095000	-5258.430000	-18213.030000	-31903.605000	14903.280000	39272.445000	-3.587911	-6.042551	-8.039775	-9.462664	-8.860400	8.373720	0.480500	-2.352527	8.209880	5.142620	4.562740	-0.676512	-0.005127	0.726011	-1.000000	-1.000000	-1.000000	-1.000000	-1.000000	-1.000000	-1.000000	63.000000	0.000000	-1.000000	-1.000000	674303.000000	1775714272.280906
-27995.895000	-5222.880000	960.930000	-5245.605000	-18189.315000	-31887.945000	14898.645000	39274.065000	-9.719277	-12.678003	-16.326991	-17.677741	-18.863040	10.401104	-1.331697	-7.897373	8.209880	5.142620	4.562740	-0.676512	-0.005127	0.726011	-1.000000	-1.000000	-1.000000	-1.000000	-1.000000	-1.000000	-1.000000	63.000000	0.000000	-1.000000	-1.000000	674304.000000	1775714272.280918
-27982.845000	-5203.755000	984.375000	-5216.085000	-18154.305000	-31927.005000	14891.310000	39283.650000	-10.435017	-12.760745	-16.033259	-16.498760	-17.971673	5.276661	-2.851495	-9.123881	8.209880	5.142620	4.562740	-0.676512	-0.005127	0.726011	-1.000000	-1.000000	-1.000000	-1.000000	-1.000000	-1.000000	-1.000000	63.000000	0.000000	-1.000000	-1.000000	674305.000000	1775714272.281380
-27973.440000	-5195.115000	994.410000	-5201.415000	-18135.810000	-31933.215000	14893.695000	39295.215000	-6.198929	-6.733133	-8.063334	-6.797048	-5.901726	-2.436119	-4.007116	-6.088966	8.209880	5.142620	4.562740	-0.676512	-0.005127	0.726011	-1.000000	-1.000000	-1.000000	-1.000000	-1.000000	-1.000000	-1.000000	63.000000	0.000000	-1.000000	-1.000000	674306.000000	1775714272.281399
-27981.675000	-5206.455000	981.045000	-5214.555000	-18170.325000	-31875.795000	14899.905000	39292.065000	-0.275069	1.190477	1.989097	5.049247	8.622817	-8.181657	-4.108940	-0.860016	8.209880	5.142620	4.562740	-0.676512	-0.005127	0.726011	-1.000000	-1.000000	-1.000000	-1.000000	-1.000000	-1.000000	-1.000000	63.000000	0.000000	-1.000000	-1.000000	674307.000000	1775714272.296488
-28003.680000	-5230.305000	955.035000	-5242.995000	-18169.065000	-31817.700000	14895.090000	39274.380000	2.763505	5.070886	6.771764	10.376305	14.194904	-5.403180	-2.449588	2.913172	8.209880	5.142620	4.562740	-0.676512	-0.005127	0.726011	-1.000000	-1.000000	-1.000000	-1.000000	-1.000000	-1.000000	-1.000000	63.000000	0.000000	-1.000000	-1.000000	674308.000000	1775714272.296592
-28011.780000	-5243.175000	939.285000	-5265.990000	-18203.670000	-31884.705000	14895.945000	39270.825000	0.427838	1.921728	2.853916	4.884486	6.955569	5.680497	0.205403	2.360825	8.209880	5.142620	4.562740	-0.676512	-0.005127	0.726011	-1.000000	-1.000000	-1.000000	-1.000000	-1.000000	-1.000000	-1.000000	63.000000	0.000000	-1.000000	-1.000000	674309.000000	1775714272.296625
-28021.410000	-5255.820000	923.490000	-5284.530000	-18234.720000	-31891.410000	14889.735000	39264.975000	-5.060954	-5.364328	-6.150350	-7.372337	-7.520226	12.919314	2.181335	-1.625824	8.209880	5.142620	4.562740	-0.676512	-0.005127	0.726011	-1.000000	-1.000000	-1.000000	-1.000000	-1.000000	-1.000000	-1.000000	63.000000	0.000000	-1.000000	-1.000000	674310.000000	1775714272.296639
-28029.240000	-5262.570000	917.595000	-5288.310000	-18239.715000	-31911.165000	14884.830000	39258.810000	-8.809996	-10.651398	-12.855211	-17.199055	-20.029711	6.669735	2.427613	-5.323870	4.410140	6.058220	3.738700	-0.675413	0.002808	0.724180	-1.000000	-1.000000	-1.000000	-1.000000	-1.000000	-1.000000	-1.000000	63.000000	0.000000	-1.000000	-1.000000	674311.000000	1775714272.296655
-28020.870000	-5252.040000	929.835000	-5273.640000	-18226.980000	-31933.305000	14887.800000	39263.445000	-7.449619	-9.450470	-11.736050	-16.986738	-22.313423	-8.543737	1.232945	-5.735189	4.410140	6.058220	3.738700	-0.675413	0.002808	0.724180	-1.000000	-1.000000	-1.000000	-1.000000	-1.000000	-1.000000	-1.000000	63.000000	0.000000	-1.000000	-1.000000	674312.000000	1775714272.296667
-28011.240000	-5241.825000	940.995000	-5264.235000	-18217.125000	-31928.445000	14887.665000	39268.530000	-0.789094	-1.345526	-2.177315	-5.506727	-11.320836	-21.028337	-0.009261	-2.218336	4.410140	6.058220	3.738700	-0.675413	0.002808	0.724180	-1.000000	-1.000000	-1.000000	-1.000000	-1.000000	-1.000000	-1.000000	63.000000	0.000000	-1.000000	-1.000000	674313.000000	1775714272.310846
-28007.775000	-5239.440000	942.570000	-5262.930000	-18213.480000	-31912.380000	14890.815000	39267.810000	8.312946	9.844297	11.147645	11.171036	7.668984	-21.815112	-0.122144	3.530407	4.410140	6.058220	3.738700	-0.675413	0.002808	0.724180	-1.000000	-1.000000	-1.000000	-1.000000	-1.000000	-1.000000	-1.000000	63.000000	0.000000	-1.000000	-1.000000	674314.000000	1775714272.310891
-28000.305000	-5229.675000	953.505000	-5248.260000	-18198.990000	-31963.230000	14893.155000	39276.135000	15.199184	18.110274	20.954988	23.797644	24.378322	-10.572113	0.872012	8.434859	4.410140	6.058220	3.738700	-0.675413	0.002808	0.724180	-1.000000	-1.000000	-1.000000	-1.000000	-1.000000	-1.000000	-1.000000	63.000000	0.000000	-1.000000	-1.000000	674315.000000	1775714272.310924
-27990.990000	-5215.365000	971.145000	-5229.000000	-18175.680000	-31981.680000	14885.010000	39282.660000	16.442267	19.462294	22.585382	26.722691	31.150518	3.587932	1.913274	10.234555	4.410140	6.058220	3.738700	-0.675413	0.002808	0.724180	-1.000000	-1.000000	-1.000000	-1.000000	-1.000000	-1.000000	-1.000000	63.000000	0.000000	-1.000000	-1.000000	674316.000000	1775714272.310936
-27988.875000	-5212.215000	974.070000	-5226.075000	-18165.915000	-31867.785000	14891.175000	39284.460000	11.859952	14.095878	16.446998	20.334768	26.834895	13.687576	1.837894	8.577923	4.410140	6.058220	3.738700	-0.675413	0.002808	0.724180	-1.000000	-1.000000	-1.000000	-1.000000	-1.000000	-1.000000	-1.000000	63.000000	0.000000	-1.000000	-1.000000	674317.000000	1775714272.310951
-28009.395000	-5237.865000	945.090000	-5253.930000	-18185.445000	-31831.065000	14890.500000	39266.055000	3.287373	4.216518	5.177112	7.627437	14.161555	23.068728	0.673244	3.950527	4.410140	6.058220	3.738700	-0.675413	0.002808	0.724180	-1.000000	-1.000000	-1.000000	-1.000000	-1.000000	-1.000000	-1.000000	63.000000	0.000000	-1.000000	-1.000000	674318.000000	1775714272.310963
-28013.130000	-5240.880000	943.380000	-5255.055000	-18190.890000	-31901.715000	14880.420000	39263.175000	-6.900579	-7.760298	-8.482207	-8.040628	-3.152418	31.549579	-0.779440	-2.795562	4.410140	6.058220	3.738700	-0.675413	0.002808	0.724180	-1.000000	-1.000000	-1.000000	-1.000000	-1.000000	-1.000000	-1.000000	63.000000	0.000000	-1.000000	-1.000000	674319.000000	1775714272.312565
-28006.605000	-5233.365000	951.570000	-5246.775000	-18180.495000	-31885.290000	14878.170000	39266.910000	-15.044058	-17.691545	-19.809240	-21.193751	-19.412713	27.879914	-2.223484	-9.153380	4.410140	6.058220	3.738700	-0.675413	0.002808	0.724180	-1.000000	-1.000000	-1.000000	-1.000000	-1.000000	-1.000000	-1.000000	63.000000	0.000000	-1.000000	-1.000000	674320.000000	1775714272.312591
-28010.205000	-5236.470000	947.025000	-5252.265000	-18185.940000	-31861.665000	14886.135000	39267.675000	-17.094854	-20.566923	-23.165448	-25.668914	-27.801574	8.283660	-3.160479	-11.553095	-1.785420	5.005280	2.151660	-0.675169	0.016052	0.722776	-1.000000	-1.000000	-1.000000	-1.000000	-1.000000	-1.000000	-1.000000	63.000000	0.000000	-1.000000	-1.000000	674321.000000	1775714272.321043
-28009.440000	-5235.165000	946.395000	-5252.220000	-18188.370000	-31871.430000	14884.290000	39267.495000	-12.231599	-15.107379	-17.253370	-20.017326	-25.465779	-15.161898	-2.521827	-8.636207	-1.785420	5.005280	2.151660	-0.675169	0.016052	0.722776	-1.000000	-1.000000	-1.000000	-1.000000	-1.000000	-1.000000	-1.000000	63.000000	0.000000	-1.000000	-1.000000	674322.000000	1775714272.321071
-28001.520000	-5228.550000	956.160000	-5241.555000	-18176.265000	-31874.490000	14889.510000	39276.045000	-3.454064	-4.778967	-5.968803	-8.206019	-15.141788	-29.677499	-0.238783	-2.339524	-1.785420	5.005280	2.151660	-0.675169	0.016052	0.722776	-1.000000	-1.000000	-1.000000	-1.000000	-1.000000	-1.000000	-1.000000	63.000000	0.000000	-1.000000	-1.000000	674323.000000	1775714272.321098
-28004.445000	-5230.665000	954.495000	-5241.870000	-18176.670000	-31929.705000	14887.755000	39277.170000	5.142155	5.427534	5.402458	4.273700	-1.890632	-32.518106	2.329826	4.145643	-1.785420	5.005280	2.151660	-0.675169	0.016052	0.722776	-1.000000	-1.000000	-1.000000	-1.000000	-1.000000	-1.000000	-1.000000	63.000000	0.000000	-1.000000	-1.000000	674324.000000	1775714272.321110
-28002.330000	-5228.865000	955.710000	-5243.040000	-18187.110000	-31969.530000	14883.885000	39278.070000	10.274865	11.587947	12.671262	12.798657	9.052173	-28.461463	3.556355	8.105802	-1.785420	5.005280	2.151660	-0.675169	0.016052	0.722776	-1.000000	-1.000000	-1.000000	-1.000000	-1.000000	-1.000000	-1.000000	63.000000	0.000000	-1.000000	-1.000000	674325.000000	1775714272.321692
-27998.235000	-5226.165000	961.110000	-5237.820000	-18181.890000	-31924.530000	14890.995000	39283.110000	10.654858	12.239584	13.976674	14.928363	13.836943	-20.853622	2.792294	8.257479	-1.785420	5.005280	2.151660	-0.675169	0.016052	0.722776	-1.000000	-1.000000	-1.000000	-1.000000	-1.000000	-1.000000	-1.000000	63.000000	0.000000	-1.000000	-1.000000	674326.000000	1775714272.321714
-27992.250000	-5219.685000	965.025000	-5236.515000	-18187.920000	-31946.130000	14887.620000	39287.385000	7.491924	8.728045	10.439141	11.468151	12.244658	-7.621881	0.892274	5.359182	-1.785420	5.005280	2.151660	-0.675169	0.016052	0.722776	-1.000000	-1.000000	-1.000000	-1.000000	-1.000000	-1.000000	-1.000000	63.000000	0.000000	-1.000000	-1.000000	674327.000000	1775714272.325816
-27994.680000	-5222.745000	959.085000	-5246.235000	-18201.060000	-31956.120000	14878.800000	39285.135000	3.063233	3.672564	4.656805	5.130985	6.847198	10.241455	-1.067653	1.300612	-1.785420	5.005280	2.151660	-0.675169	0.016052	0.722776	-1.000000	-1.000000	-1.000000	-1.000000	-1.000000	-1.000000	-1.000000	63.000000	0.000000	-1.000000	-1.000000	674328.000000	1775714272.325836
-28007.955000	-5232.555000	953.685000	-5243.670000	-18181.890000	-31876.425000	14877.360000	39273.210000	-1.300199	-1.168528	-1.337098	-1.509021	0.874782	26.355001	-2.790779	-2.636237	-1.785420	5.005280	2.151660	-0.675169	0.016052	0.722776	-1.000000	-1.000000	-1.000000	-1.000000	-1.000000	-1.000000	-1.000000	63.000000	0.000000	-1.000000	-1.000000	674329.000000	1775714272.329792
-28012.680000	-5237.235000	948.195000	-5245.695000	-18179.910000	-31857.435000	14885.955000	39270.825000	-5.311524	-5.229106	-6.241323	-6.278944	-2.396592	36.965729	-3.675185	-5.972416	-1.785420	5.005280	2.151660	-0.675169	0.016052	0.722776	-1.000000	-1.000000	-1.000000	-1.000000	-1.000000	-1.000000	-1.000000	63.000000	0.000000	-1.000000	-1.000000	674330.000000	1775714272.329814
-28008.585000	-5236.290000	946.710000	-5245.920000	-18179.055000	-31867.695000	14891.220000	39274.785000	-8.025714	-7.750559	-8.844854	-7.726294	-1.747809	39.336883	-2.567616	-7.731325	-1.022420	3.006220	0.320460	-0.678831	0.021789	0.721190	-1.000000	-1.000000	-1.000000	-1.000000	-1.000000	-1.000000	-1.000000	63.000000	0.000000	-1.000000	-1.000000	674331.000000	1775714272.337109
-28002.510000	-5232.105000	950.985000	-5246.235000	-18191.295000	-31856.895000	14891.355000	39278.835000	-7.596832	-7.446319	-8.189615	-5.981177	0.443153	28.951525	0.449018	-6.484628	-1.022420	3.006220	0.320460	-0.678831	0.021789	0.721190	-1.000000	-1.000000	-1.000000	-1.000000	-1.000000	-1.000000	-1.000000	63.000000	0.000000	-1.000000	-1.000000	674332.000000	1775714272.337135
-27999.765000	-5226.120000	957.330000	-5245.830000	-18209.115000	-31896.315000	14896.845000	39281.670000	-3.470819	-3.892068	-4.265304	-2.467955	0.640953	6.254106	3.506292	-2.203063	-1.022420	3.006220	0.320460	-0.678831	0.021789	0.721190	-1.000000	-1.000000	-1.000000	-1.000000	-1.000000	-1.000000	-1.000000	63.000000	0.000000	-1.000000	-1.000000	674333.000000	1775714272.339025
-28011.285000	-5240.295000	941.805000	-5262.120000	-18211.140000	-31919.175000	14893.245000	39273.255000	2.077176	1.185377	1.129546	0.802374	-2.256255	-21.106059	4.666486	2.877037	-1.022420	3.006220	0.320460	-0.678831	0.021789	0.721190	-1.000000	-1.000000	-1.000000	-1.000000	-1.000000	-1.000000	-1.000000	63.000000	0.000000	-1.000000	-1.000000	674334.000000	1775714272.339050
-28025.100000	-5257.980000	922.095000	-5280.615000	-18218.835000	-31890.555000	14885.055000	39265.020000	5.253034	4.319969	4.485327	1.768486	-5.815281	-41.631201	3.136821	5.640963	-1.022420	3.006220	0.320460	-0.678831	0.021789	0.721190	-1.000000	-1.000000	-1.000000	-1.000000	-1.000000	-1.000000	-1.000000	63.000000	0.000000	-1.000000	-1.000000	674335.000000	1775714272.343943
-28026.090000	-5256.450000	925.785000	-5274.135000	-18212.445000	-31901.040000	14875.875000	39262.140000	4.141265	3.405355	3.643582	0.133476	-6.561452	-44.868770	-0.640932	4.652090	-1.022420	3.006220	0.320460	-0.678831	0.021789	0.721190	-1.000000	-1.000000	-1.000000	-1.000000	-1.000000	-1.000000	-1.000000	63.000000	0.000000	-1.000000	-1.000000	674336.000000	1775714272.343977
-28018.170000	-5245.650000	940.050000	-5251.410000	-18184.005000	-31897.620000	14881.095000	39267.720000	0.789467	0.503225	0.882256	-1.077608	-2.629642	-29.676013	-4.762325	1.506276	-1.022420	3.006220	0.320460	-0.678831	0.021789	0.721190	-1.000000	-1.000000	-1.000000	-1.000000	-1.000000	-1.000000	-1.000000	63.000000	0.000000	-1.000000	-1.000000	674337.000000	1775714272.360501
-28015.740000	-5243.085000	943.560000	-5242.140000	-18169.110000	-31877.370000	14883.570000	39267.810000	-1.026559	-0.449341	0.378176	1.588847	5.331109	-5.227380	-6.452356	-0.810006	-1.022420	3.006220	0.320460	-0.678831	0.021789	0.721190	-1.000000	-1.000000	-1.000000	-1.000000	-1.000000	-1.000000	-1.000000	63.000000	0.000000	-1.000000	-1.000000	674338.000000	1775714272.360529
-28007.865000	-5234.445000	951.480000	-5238.540000	-18171.630000	-31889.655000	14882.670000	39271.950000	0.271553	1.773604	3.083169	7.204700	13.244585	16.912185	-4.369166	-0.773888	-1.022420	3.006220	0.320460	-0.678831	0.021789	0.721190	-1.000000	-1.000000	-1.000000	-1.000000	-1.000000	-1.000000	-1.000000	63.000000	0.000000	-1.000000	-1.000000	674339.000000	1775714272.360572
-27997.065000	-5225.895000	956.295000	-5236.920000	-18178.920000	-31922.640000	14880.240000	39274.830000	3.352017	5.154878	6.322507	10.954494	15.186330	27.695798	-0.045229	0.906430	-1.022420	3.006220	0.320460	-0.678831	0.021789	0.721190	-1.000000	-1.000000	-1.000000	-1.000000	-1.000000	-1.000000	-1.000000	63.000000	0.000000	-1.000000	-1.000000	674340.000000	1775714272.360590
-27994.005000	-5223.330000	956.835000	-5236.245000	-18181.665000	-31981.230000	14876.595000	39279.870000	5.854712	6.989962	7.068655	9.198192	8.535133	22.642056	3.613481	2.630653	-1.251320	1.266580	0.549360	-0.680967	0.016785	0.722532	-1.000000	-1.000000	-1.000000	-1.000000	-1.000000	-1.000000	-1.000000	63.000000	0.000000	-1.000000	-1.000000	674341.000000	1775714272.360610
-27983.520000	-5209.155000	975.645000	-5216.355000	-18162.045000	-31973.940000	14877.450000	39292.020000	5.975810	5.878956	4.512978	2.829689	-2.835936	5.641442	4.793546	3.368184	-1.251320	1.266580	0.549360	-0.680967	0.016785	0.722532	-1.000000	-1.000000	-1.000000	-1.000000	-1.000000	-1.000000	-1.000000	63.000000	0.000000	-1.000000	-1.000000	674342.000000	1775714272.360622
-27978.570000	-5200.920000	989.235000	-5205.645000	-18151.740000	-31926.330000	14886.000000	39297.510000	3.448553	2.499267	0.586662	-3.803238	-11.456225	-9.974860	3.875461	3.076450	-1.251320	1.266580	0.549360	-0.680967	0.016785	0.722532	-1.000000	-1.000000	-1.000000	-1.000000	-1.000000	-1.000000	-1.000000	63.000000	0.000000	-1.000000	-1.000000	674343.000000	1775714272.360637
-28002.555000	-5225.040000	964.350000	-5230.305000	-18170.595000	-31877.820000	14892.705000	39281.535000	-1.061614	-1.928516	-2.872255	-7.691518	-13.204676	-10.369089	2.589612	1.581302	-1.251320	1.266580	0.549360	-0.680967	0.016785	0.722532	-1.000000	-1.000000	-1.000000	-1.000000	-1.000000	-1.000000	-1.000000	63.000000	0.000000	-1.000000	-1.000000	674344.000000	1775714272.360648
-28004.940000	-5225.715000	961.605000	-5231.610000	-18176.625000	-31885.785000	14878.170000	39276.990000	-6.892392	-7.127430	-6.494660	-9.748250	-10.396356	4.902189	1.714533	-1.835430	-1.251320	1.266580	0.549360	-0.680967	0.016785	0.722532	-1.000000	-1.000000	-1.000000	-1.000000	-1.000000	-1.000000	-1.000000	63.000000	0.000000	-1.000000	-1.000000	674345.000000	1775714272.367005
