Channel1	Channel2	Channel3	Channel4	Channel5	Channel6	Channel7	Channel8	FilteredChannel1	FilteredChannel2	FilteredChannel3	FilteredChannel4	FilteredChannel5	FilteredChannel6	FilteredChannel7	FilteredChannel8	GyroX	GyroY	GyroZ	AccX	AccY	AccZ	PPG1	PPG2	rawPPG1	rawPPG2	rawPPG3	Hr	Hrv	Battery	Trigger	PhysicalTrigger	AutoTrigger	NumMeasurements	Timestamp
1391.580000	-2833.245000	-2350.395000	20987.595000	13232.025000	1101.555000	-22667.580000	-18153.855000	-0.224806	-1.266759	-0.244384	0.904780	1.151435	6.199585	1.023170	1.610662	-1.648080	-0.412020	2.578940	-0.720579	-0.097961	0.677611	-1.000000	-1.000000	-1.000000	-1.000000	-1.000000	-1.000000	-1.000000	56.000000	0.000000	-1.000000	-1.000000	614723.000000	1775777953.829609
1387.845000	-2840.490000	-2360.070000	20976.525000	13221.630000	1093.815000	-22672.125000	-18156.645000	0.445793	-0.367680	1.171720	0.719357	-4.649099	-4.830357	-1.810138	1.837111	-1.648080	-0.412020	2.578940	-0.720579	-0.097961	0.677611	-1.000000	-1.000000	-1.000000	-1.000000	-1.000000	-1.000000	-1.000000	56.000000	0.000000	-1.000000	-1.000000	614724.000000	1775777953.829623
1397.745000	-2834.685000	-2359.620000	20982.060000	13230.495000	1091.205000	-22668.930000	-18146.745000	0.331945	-0.531018	0.362092	-1.115652	-9.133946	-14.474388	-4.446750	0.722890	-1.648080	-0.412020	2.578940	-0.720579	-0.097961	0.677611	-1.000000	-1.000000	-1.000000	-1.000000	-1.000000	-1.000000	-1.000000	56.000000	0.000000	-1.000000	-1.000000	614725.000000	1775777953.829640
1399.995000	-2833.740000	-2360.970000	20978.955000	13226.265000	1086.165000	-22669.290000	-18144.315000	0.583945	-0.546978	-1.267620	-2.643195	-9.265873	-17.583059	-5.226118	-0.142547	-1.648080	-0.412020	2.578940	-0.720579	-0.097961	0.677611	-1.000000	-1.000000	-1.000000	-1.000000	-1.000000	-1.000000	-1.000000	56.000000	0.000000	-1.000000	-1.000000	614726.000000	1775777954.017477
1397.520000	-2832.525000	-2356.380000	20981.700000	13225.635000	1088.145000	-22671.540000	-18149.445000	1.657374	0.564811	-1.656720	-2.104892	-4.794734	-13.284008	-3.682462	0.096935	-1.648080	-0.412020	2.578940	-0.720579	-0.097961	0.677611	-1.000000	-1.000000	-1.000000	-1.000000	-1.000000	-1.000000	-1.000000	56.000000	0.000000	-1.000000	-1.000000	614727.000000	1775777954.017502
1391.670000	-2836.890000	-2357.955000	20982.735000	13230.360000	1094.040000	-22671.180000	-18155.250000	2.399014	2.267268	-0.023600	0.389329	1.622643	-4.146832	-0.870119	0.429398	-1.648080	-0.412020	2.578940	-0.720579	-0.097961	0.677611	-1.000000	-1.000000	-1.000000	-1.000000	-1.000000	-1.000000	-1.000000	56.000000	0.000000	-1.000000	-1.000000	614728.000000	1775777954.017529
1391.580000	-2836.755000	-2357.820000	20983.545000	13228.650000	1086.525000	-22672.530000	-18154.755000	1.619200	3.203770	2.573492	3.348588	6.894072	5.647663	1.718891	-0.262114	-1.648080	-0.412020	2.578940	-0.720579	-0.097961	0.677611	-1.000000	-1.000000	-1.000000	-1.000000	-1.000000	-1.000000	-1.000000	56.000000	0.000000	-1.000000	-1.000000	614729.000000	1775777954.017541
1397.025000	-2831.895000	-2354.805000	20981.835000	13217.895000	1084.140000	-22673.790000	-18150.165000	-0.171811	2.840819	4.422133	5.097227	8.889657	11.902330	3.143208	-1.420333	1.358140	0.366240	0.900340	-0.715574	-0.098022	0.678709	-1.000000	-1.000000	-1.000000	-1.000000	-1.000000	-1.000000	-1.000000	56.000000	0.000000	-1.000000	-1.000000	614730.000000	1775777954.017621
1399.725000	-2830.185000	-2353.185000	20983.410000	13223.475000	1083.825000	-22677.345000	-18150.075000	-1.298764	1.873031	4.656548	4.760694	7.009334	12.530938	3.146430	-1.628923	1.358140	0.366240	0.900340	-0.715574	-0.098022	0.678709	-1.000000	-1.000000	-1.000000	-1.000000	-1.000000	-1.000000	-1.000000	56.000000	0.000000	-1.000000	-1.000000	614731.000000	1775777954.017637
1399.095000	-2832.210000	-2355.120000	20985.885000	13245.795000	1087.335000	-22671.990000	-18149.940000	-0.927001	1.003607	3.400284	2.782066	3.344605	8.777904	2.154838	-0.513703	1.358140	0.366240	0.900340	-0.715574	-0.098022	0.678709	-1.000000	-1.000000	-1.000000	-1.000000	-1.000000	-1.000000	-1.000000	56.000000	0.000000	-1.000000	-1.000000	614732.000000	1775777954.017658
1388.745000	-2843.460000	-2365.785000	20980.395000	13240.170000	1103.670000	-22670.370000	-18158.175000	-0.007135	-0.030140	0.981942	0.299346	1.081931	3.951149	1.136260	0.836728	1.358140	0.366240	0.900340	-0.715574	-0.098022	0.678709	-1.000000	-1.000000	-1.000000	-1.000000	-1.000000	-1.000000	-1.000000	56.000000	0.000000	-1.000000	-1.000000	614733.000000	1775777954.017670
1391.895000	-2840.220000	-2362.680000	20981.970000	13220.910000	1086.750000	-22667.985000	-18153.720000	0.039126	-1.657448	-2.057003	-1.854094	0.259994	0.547060	0.775459	1.212516	1.358140	0.366240	0.900340	-0.715574	-0.098022	0.678709	-1.000000	-1.000000	-1.000000	-1.000000	-1.000000	-1.000000	-1.000000	56.000000	0.000000	-1.000000	-1.000000	614734.000000	1775777954.017684
1389.285000	-2841.345000	-2362.365000	20983.095000	13217.400000	1067.625000	-22674.105000	-18156.645000	-0.801650	-3.134730	-4.329486	-3.125674	-1.790064	-2.070535	0.733471	0.639757	1.358140	0.366240	0.900340	-0.715574	-0.098022	0.678709	-1.000000	-1.000000	-1.000000	-1.000000	-1.000000	-1.000000	-1.000000	56.000000	0.000000	-1.000000	-1.000000	614735.000000	1775777954.017695
1392.930000	-2835.270000	-2358.000000	20976.210000	13221.990000	1073.970000	-22670.280000	-18152.190000	-1.337225	-3.071182	-4.338018	-3.219751	-5.320054	-5.434184	0.224001	0.044142	1.358140	0.366240	0.900340	-0.715574	-0.098022	0.678709	-1.000000	-1.000000	-1.000000	-1.000000	-1.000000	-1.000000	-1.000000	56.000000	0.000000	-1.000000	-1.000000	614736.000000	1775777954.017709
1387.665000	-2839.905000	-2361.240000	20973.330000	13229.235000	1095.660000	-22674.015000	-18162.450000	-0.850606	-1.181330	-2.089177	-2.568220	-7.177363	-7.687687	-0.835935	-0.105881	1.358140	0.366240	0.900340	-0.715574	-0.098022	0.678709	-1.000000	-1.000000	-1.000000	-1.000000	-1.000000	-1.000000	-1.000000	56.000000	0.000000	-1.000000	-1.000000	614737.000000	1775777954.017720
1393.695000	-2832.615000	-2352.690000	20984.715000	13227.615000	1082.205000	-22677.255000	-18160.245000	0.319362	1.358584	0.938097	-1.547504	-5.074755	-5.756018	-1.907350	-0.182271	1.358140	0.366240	0.900340	-0.715574	-0.098022	0.678709	-1.000000	-1.000000	-1.000000	-1.000000	-1.000000	-1.000000	-1.000000	56.000000	0.000000	-1.000000	-1.000000	614738.000000	1775777954.017733
1398.060000	-2826.585000	-2345.940000	20986.245000	13227.480000	1062.630000	-22677.030000	-18154.305000	1.617547	3.293456	3.370012	0.218866	-0.330861	-1.114807	-2.523200	-0.290764	1.358140	0.366240	0.900340	-0.715574	-0.098022	0.678709	-1.000000	-1.000000	-1.000000	-1.000000	-1.000000	-1.000000	-1.000000	56.000000	0.000000	-1.000000	-1.000000	614739.000000	1775777954.017744
1391.670000	-2833.065000	-2350.980000	20980.800000	13242.330000	1099.800000	-22665.240000	-18153.630000	2.553488	3.965108	4.449772	2.415750	4.112076	2.347522	-2.108452	0.153843	1.983800	0.259420	2.807840	-0.710997	-0.096557	0.678404	-1.000000	-1.000000	-1.000000	-1.000000	-1.000000	-1.000000	-1.000000	56.000000	0.000000	-1.000000	-1.000000	614740.000000	1775777954.017758
1387.485000	-2840.895000	-2358.990000	20978.145000	13244.445000	1122.795000	-22659.570000	-18154.710000	2.278819	2.715023	3.376817	3.416427	6.605110	4.751712	-0.121450	1.133426	1.983800	0.259420	2.807840	-0.710997	-0.096557	0.678404	-1.000000	-1.000000	-1.000000	-1.000000	-1.000000	-1.000000	-1.000000	56.000000	0.000000	-1.000000	-1.000000	614741.000000	1775777954.017768
1393.875000	-2835.495000	-2357.235000	20975.310000	13228.110000	1098.855000	-22659.795000	-18149.940000	0.575886	-0.353104	0.088484	2.231187	6.365139	7.409886	2.715096	1.786375	1.983800	0.259420	2.807840	-0.710997	-0.096557	0.678404	-1.000000	-1.000000	-1.000000	-1.000000	-1.000000	-1.000000	-1.000000	56.000000	0.000000	-1.000000	-1.000000	614742.000000	1775777954.017781
1392.120000	-2835.810000	-2357.280000	20976.435000	13218.120000	1088.235000	-22669.830000	-18155.970000	-1.283791	-3.361681	-3.597128	-0.234057	2.600838	7.294708	4.177498	1.506657	1.983800	0.259420	2.807840	-0.710997	-0.096557	0.678404	-1.000000	-1.000000	-1.000000	-1.000000	-1.000000	-1.000000	-1.000000	56.000000	0.000000	-1.000000	-1.000000	614743.000000	1775777954.017792
1393.335000	-2833.515000	-2351.520000	20985.660000	13226.445000	1086.885000	-22674.420000	-18157.410000	-2.011131	-4.271883	-5.219287	-2.006212	-3.377811	1.622293	2.498624	0.221912	1.983800	0.259420	2.807840	-0.710997	-0.096557	0.678404	-1.000000	-1.000000	-1.000000	-1.000000	-1.000000	-1.000000	-1.000000	56.000000	0.000000	-1.000000	-1.000000	614744.000000	1775777954.017805
1394.145000	-2832.840000	-2353.320000	20980.305000	13227.660000	1078.560000	-22675.590000	-18155.880000	-1.541781	-2.819588	-3.864587	-1.799754	-7.553262	-6.675585	-1.536063	-1.548312	1.983800	0.259420	2.807840	-0.710997	-0.096557	0.678404	-1.000000	-1.000000	-1.000000	-1.000000	-1.000000	-1.000000	-1.000000	56.000000	0.000000	-1.000000	-1.000000	614745.000000	1775777954.017816
1392.750000	-2833.560000	-2353.455000	20984.355000	13236.840000	1090.170000	-22668.840000	-18156.645000	-0.556142	-0.296941	-0.786301	-0.233277	-6.862473	-11.913556	-4.925520	-2.712365	1.983800	0.259420	2.807840	-0.710997	-0.096557	0.678404	-1.000000	-1.000000	-1.000000	-1.000000	-1.000000	-1.000000	-1.000000	56.000000	0.000000	-1.000000	-1.000000	614746.000000	1775777954.017831
1395.135000	-2830.005000	-2346.795000	20991.735000	13234.635000	1072.215000	-22672.800000	-18156.330000	0.257333	1.765026	2.026163	1.285009	-2.052325	-10.980988	-5.159358	-2.544082	1.983800	0.259420	2.807840	-0.710997	-0.096557	0.678404	-1.000000	-1.000000	-1.000000	-1.000000	-1.000000	-1.000000	-1.000000	56.000000	0.000000	-1.000000	-1.000000	614747.000000	1775777954.017842
1396.710000	-2829.240000	-2347.020000	20993.895000	13225.230000	1047.015000	-22680.405000	-18156.915000	0.650814	2.624054	3.512002	2.145578	3.171683	-5.871136	-2.582990	-1.291303	1.983800	0.259420	2.807840	-0.710997	-0.096557	0.678404	-1.000000	-1.000000	-1.000000	-1.000000	-1.000000	-1.000000	-1.000000	56.000000	0.000000	-1.000000	-1.000000	614748.000000	1775777954.017856
1392.930000	-2836.665000	-2357.640000	20982.555000	13228.335000	1095.795000	-22673.880000	-18158.265000	0.674916	2.199106	3.295456	1.948532	5.283649	-0.165560	0.526612	0.226101	1.983800	0.259420	2.807840	-0.710997	-0.096557	0.678404	-1.000000	-1.000000	-1.000000	-1.000000	-1.000000	-1.000000	-1.000000	56.000000	0.000000	-1.000000	-1.000000	614749.000000	1775777954.017866
1385.190000	-2847.330000	-2372.580000	20965.680000	13222.305000	1114.020000	-22674.465000	-18163.935000	0.143138	0.438146	0.977952	-0.158513	3.753775	6.282601	2.715504	1.154364	2.426340	0.045780	4.822160	-0.712462	-0.094421	0.680845	-1.000000	-1.000000	-1.000000	-1.000000	-1.000000	-1.000000	-1.000000	56.000000	0.000000	-1.000000	-1.000000	614750.000000	1775777954.017880
1384.830000	-2842.920000	-2365.290000	20978.235000	13232.160000	1098.180000	-22673.565000	-18165.870000	-1.040104	-2.112787	-2.698035	-3.744400	0.753868	13.390884	3.788854	1.044743	2.426340	0.045780	4.822160	-0.712462	-0.094421	0.680845	-1.000000	-1.000000	-1.000000	-1.000000	-1.000000	-1.000000	-1.000000	56.000000	0.000000	-1.000000	-1.000000	614751.000000	1775777954.017890
1387.665000	-2835.180000	-2355.345000	20987.775000	13239.315000	1096.470000	-22671.540000	-18165.195000	-2.066952	-3.552664	-4.877416	-5.743221	-1.041554	16.140381	3.766307	0.269539	2.426340	0.045780	4.822160	-0.712462	-0.094421	0.680845	-1.000000	-1.000000	-1.000000	-1.000000	-1.000000	-1.000000	-1.000000	56.000000	0.000000	-1.000000	-1.000000	614752.000000	1775777954.017904
1388.385000	-2836.575000	-2359.170000	20982.015000	13233.645000	1092.870000	-22671.810000	-18165.825000	-1.759030	-2.248962	-3.208747	-3.651059	-0.616925	10.639742	2.786932	-0.244370	2.426340	0.045780	4.822160	-0.712462	-0.094421	0.680845	-1.000000	-1.000000	-1.000000	-1.000000	-1.000000	-1.000000	-1.000000	56.000000	0.000000	-1.000000	-1.000000	614753.000000	1775777954.017914
1389.645000	-2834.370000	-2352.105000	20988.810000	13215.195000	1053.360000	-22685.760000	-18168.480000	0.005062	0.983944	1.169399	1.057859	0.257164	-1.017733	0.948436	-0.021665	2.426340	0.045780	4.822160	-0.712462	-0.094421	0.680845	-1.000000	-1.000000	-1.000000	-1.000000	-1.000000	-1.000000	-1.000000	56.000000	0.000000	-1.000000	-1.000000	614754.000000	1775777954.017928
1397.295000	-2826.180000	-2344.095000	20994.210000	13211.955000	1032.120000	-22693.410000	-18164.385000	2.238784	3.890743	5.230608	5.083587	-0.821233	-13.897671	-1.824010	0.657727	2.426340	0.045780	4.822160	-0.712462	-0.094421	0.680845	-1.000000	-1.000000	-1.000000	-1.000000	-1.000000	-1.000000	-1.000000	56.000000	0.000000	-1.000000	-1.000000	614755.000000	1775777954.017938
1398.420000	-2824.020000	-2343.015000	20997.900000	13239.945000	1078.785000	-22680.720000	-18163.080000	3.875609	5.076106	6.955364	6.593438	-2.932326	-21.542148	-4.494479	1.408775	2.426340	0.045780	4.822160	-0.712462	-0.094421	0.680845	-1.000000	-1.000000	-1.000000	-1.000000	-1.000000	-1.000000	-1.000000	56.000000	0.000000	-1.000000	-1.000000	614756.000000	1775777954.018716
1379.340000	-2845.890000	-2365.245000	20981.745000	13252.770000	1131.660000	-22668.120000	-18176.850000	3.776783	3.864754	5.299926	5.097732	-2.239433	-16.506625	-4.521223	1.681562	2.426340	0.045780	4.822160	-0.712462	-0.094421	0.680845	-1.000000	-1.000000	-1.000000	-1.000000	-1.000000	-1.000000	-1.000000	56.000000	0.000000	-1.000000	-1.000000	614757.000000	1775777954.018731
1382.985000	-2842.560000	-2365.470000	20977.065000	13233.015000	1108.935000	-22670.955000	-18174.645000	1.099493	-0.014074	0.134961	0.749752	1.993317	1.233621	-0.858979	0.727820	2.426340	0.045780	4.822160	-0.712462	-0.094421	0.680845	-1.000000	-1.000000	-1.000000	-1.000000	-1.000000	-1.000000	-1.000000	56.000000	0.000000	-1.000000	-1.000000	614758.000000	1775777954.018808
1391.850000	-2830.995000	-2352.015000	20995.515000	13244.580000	1093.860000	-22670.955000	-18168.255000	-2.663188	-4.523767	-5.848478	-4.336803	5.450337	18.937038	3.828181	-0.942113	2.426340	0.045780	4.822160	-0.712462	-0.094421	0.680845	-1.000000	-1.000000	-1.000000	-1.000000	-1.000000	-1.000000	-1.000000	56.000000	0.000000	-1.000000	-1.000000	614759.000000	1775777954.018822
1386.585000	-2837.115000	-2360.205000	20985.615000	13234.590000	1087.515000	-22674.015000	-18171.180000	-4.443632	-6.159760	-8.339143	-6.590815	4.677027	22.724870	5.804755	-1.652666	-1.129240	-0.198380	3.036740	-0.720762	-0.090698	0.682615	-1.000000	-1.000000	-1.000000	-1.000000	-1.000000	-1.000000	-1.000000	56.000000	0.000000	-1.000000	-1.000000	614760.000000	1775777954.018840
1384.290000	-2838.915000	-2360.655000	20986.875000	13245.120000	1099.935000	-22675.680000	-18171.405000	-3.347127	-4.137233	-6.119657	-4.932731	0.665841	11.723989	3.852774	-0.898244	-1.129240	-0.198380	3.036740	-0.720762	-0.090698	0.682615	-1.000000	-1.000000	-1.000000	-1.000000	-1.000000	-1.000000	-1.000000	56.000000	0.000000	-1.000000	-1.000000	614761.000000	1775777954.018850
1396.125000	-2827.395000	-2348.730000	20997.585000	13257.135000	1107.135000	-22670.010000	-18161.010000	-0.827763	-0.531312	-1.446349	-1.312962	-3.120744	-3.601059	-0.239334	0.480233	-1.129240	-0.198380	3.036740	-0.720762	-0.090698	0.682615	-1.000000	-1.000000	-1.000000	-1.000000	-1.000000	-1.000000	-1.000000	56.000000	0.000000	-1.000000	-1.000000	614762.000000	1775777954.018864
1393.920000	-2831.310000	-2353.545000	20987.280000	13242.645000	1097.505000	-22675.050000	-18165.420000	1.784378	2.738129	3.177964	2.130579	-4.214799	-13.163626	-3.634076	1.729059	-1.129240	-0.198380	3.036740	-0.720762	-0.090698	0.682615	-1.000000	-1.000000	-1.000000	-1.000000	-1.000000	-1.000000	-1.000000	56.000000	0.000000	-1.000000	-1.000000	614763.000000	1775777954.018874
1390.140000	-2834.865000	-2353.365000	20987.370000	13230.765000	1089.990000	-22671.900000	-18164.790000	3.408822	4.365292	5.836974	3.749028	-3.617080	-14.521332	-4.746124	2.140517	-1.129240	-0.198380	3.036740	-0.720762	-0.090698	0.682615	-1.000000	-1.000000	-1.000000	-1.000000	-1.000000	-1.000000	-1.000000	56.000000	0.000000	-1.000000	-1.000000	614764.000000	1775777954.018887
1388.340000	-2834.190000	-2354.580000	20984.220000	13227.615000	1087.245000	-22674.330000	-18164.970000	2.995956	3.563302	5.441493	2.855694	-3.632046	-10.754148	-3.749680	1.198404	-1.129240	-0.198380	3.036740	-0.720762	-0.090698	0.682615	-1.000000	-1.000000	-1.000000	-1.000000	-1.000000	-1.000000	-1.000000	56.000000	0.000000	-1.000000	-1.000000	614765.000000	1775777954.018897
1390.050000	-2832.480000	-2354.040000	20987.235000	13228.425000	1076.535000	-22675.320000	-18165.240000	0.796847	1.086581	2.654324	0.578464	-4.116812	-5.414556	-1.706326	-0.627593	-1.129240	-0.198380	3.036740	-0.720762	-0.090698	0.682615	-1.000000	-1.000000	-1.000000	-1.000000	-1.000000	-1.000000	-1.000000	56.000000	0.000000	-1.000000	-1.000000	614766.000000	1775777954.018909
1389.465000	-2834.190000	-2357.775000	20985.210000	13231.215000	1076.355000	-22671.720000	-18166.905000	-1.576418	-1.301163	-0.730002	-1.237045	-3.119657	-0.589539	0.306342	-2.292082	-1.129240	-0.198380	3.036740	-0.720762	-0.090698	0.682615	-1.000000	-1.000000	-1.000000	-1.000000	-1.000000	-1.000000	-1.000000	56.000000	0.000000	-1.000000	-1.000000	614767.000000	1775777954.018919
1386.990000	-2835.045000	-2357.640000	20984.670000	13230.315000	1083.555000	-22669.470000	-18167.445000	-2.750058	-2.477530	-3.173342	-1.662518	0.131046	3.235354	1.817112	-3.052173	-1.129240	-0.198380	3.036740	-0.720762	-0.090698	0.682615	-1.000000	-1.000000	-1.000000	-1.000000	-1.000000	-1.000000	-1.000000	56.000000	0.000000	-1.000000	-1.000000	614768.000000	1775777954.018932
1387.440000	-2830.545000	-2350.170000	20987.370000	13229.235000	1081.485000	-22674.105000	-18167.895000	-2.519128	-2.312229	-3.784938	-0.934827	4.168664	6.400243	2.637833	-2.708971	-1.129240	-0.198380	3.036740	-0.720762	-0.090698	0.682615	-1.000000	-1.000000	-1.000000	-1.000000	-1.000000	-1.000000	-1.000000	56.000000	0.000000	-1.000000	-1.000000	614769.000000	1775777954.018942
1388.115000	-2833.425000	-2352.600000	20992.950000	13233.105000	1083.150000	-22672.440000	-18166.185000	-1.368058	-1.169166	-2.403576	0.386890	6.792857	8.497515	2.430185	-1.470451	-2.624720	0.579880	0.686700	-0.724974	-0.088806	0.681090	-1.000000	-1.000000	-1.000000	-1.000000	-1.000000	-1.000000	-1.000000	56.000000	0.000000	-1.000000	-1.000000	614770.000000	1775777954.018955
1388.160000	-2834.280000	-2353.230000	20993.490000	13222.170000	1068.255000	-22677.525000	-18168.885000	0.119942	0.172890	-0.071195	1.787604	6.748161	8.218950	1.203647	0.152198	-2.624720	0.579880	0.686700	-0.724974	-0.088806	0.681090	-1.000000	-1.000000	-1.000000	-1.000000	-1.000000	-1.000000	-1.000000	56.000000	0.000000	-1.000000	-1.000000	614771.000000	1775777954.018965
1395.945000	-2822.175000	-2338.290000	21005.640000	13239.135000	1069.470000	-22677.480000	-18165.060000	1.501642	1.118253	1.854414	2.748689	4.328127	4.897977	-0.447862	1.516077	-2.624720	0.579880	0.686700	-0.724974	-0.088806	0.681090	-1.000000	-1.000000	-1.000000	-1.000000	-1.000000	-1.000000	-1.000000	56.000000	0.000000	-1.000000	-1.000000	614772.000000	1775777954.018978
1393.290000	-2825.955000	-2345.310000	20996.775000	13246.155000	1084.545000	-22677.525000	-18168.120000	2.506897	1.792618	2.922343	2.825426	1.493068	0.255499	-1.687827	2.201261	-2.624720	0.579880	0.686700	-0.724974	-0.088806	0.681090	-1.000000	-1.000000	-1.000000	-1.000000	-1.000000	-1.000000	-1.000000	56.000000	0.000000	-1.000000	-1.000000	614773.000000	1775777954.018988
1393.470000	-2826.720000	-2349.180000	20992.230000	13238.730000	1081.530000	-22672.980000	-18166.365000	2.690926	2.040713	2.712610	1.409174	-0.094631	-2.548681	-1.786133	2.096467	-2.624720	0.579880	0.686700	-0.724974	-0.088806	0.681090	-1.000000	-1.000000	-1.000000	-1.000000	-1.000000	-1.000000	-1.000000	56.000000	0.000000	-1.000000	-1.000000	614774.000000	1775777954.019000
1393.110000	-2828.970000	-2352.780000	20992.140000	13230.945000	1077.570000	-22672.260000	-18166.365000	1.677334	1.216805	0.711105	-1.545475	-1.234186	-2.593860	-0.607979	1.373883	-2.624720	0.579880	0.686700	-0.724974	-0.088806	0.681090	-1.000000	-1.000000	-1.000000	-1.000000	-1.000000	-1.000000	-1.000000	56.000000	0.000000	-1.000000	-1.000000	614775.000000	1775777954.019010
1388.295000	-2837.430000	-2363.310000	20982.510000	13227.030000	1092.015000	-22673.115000	-18169.290000	-0.224524	-0.717500	-2.430424	-4.653879	-3.341839	-1.478872	1.061361	0.394191	-2.624720	0.579880	0.686700	-0.724974	-0.088806	0.681090	-1.000000	-1.000000	-1.000000	-1.000000	-1.000000	-1.000000	-1.000000	56.000000	0.000000	-1.000000	-1.000000	614776.000000	1775777954.019022
1394.730000	-2829.330000	-2355.345000	20983.950000	13219.245000	1075.680000	-22671.720000	-18162.315000	-2.089962	-2.806643	-4.953039	-6.200416	-5.921839	-0.635793	2.050344	-0.448349	-2.624720	0.579880	0.686700	-0.724974	-0.088806	0.681090	-1.000000	-1.000000	-1.000000	-1.000000	-1.000000	-1.000000	-1.000000	56.000000	0.000000	-1.000000	-1.000000	614777.000000	1775777954.019032
1396.800000	-2827.755000	-2350.755000	20988.270000	13236.030000	1090.845000	-22670.820000	-18161.640000	-2.774129	-3.475003	-4.903698	-5.179958	-6.882118	-0.677256	1.834042	-0.686110	-2.624720	0.579880	0.686700	-0.724974	-0.088806	0.681090	-1.000000	-1.000000	-1.000000	-1.000000	-1.000000	-1.000000	-1.000000	56.000000	0.000000	-1.000000	-1.000000	614778.000000	1775777954.019045
1386.360000	-2837.340000	-2356.515000	20984.265000	13239.720000	1102.860000	-22673.430000	-18170.280000	-2.011145	-2.127102	-1.841666	-1.726236	-4.331733	-0.987171	0.726519	-0.404665	-2.624720	0.579880	0.686700	-0.724974	-0.088806	0.681090	-1.000000	-1.000000	-1.000000	-1.000000	-1.000000	-1.000000	-1.000000	56.000000	0.000000	-1.000000	-1.000000	614779.000000	1775777954.019055
1386.405000	-2833.605000	-2351.205000	20990.070000	13240.980000	1095.930000	-22671.720000	-18172.170000	-0.957166	-0.063210	2.235571	2.553969	1.112048	-0.421758	-0.659660	-0.516601	-1.190280	2.075360	2.746800	-0.717161	-0.089111	0.679503	-1.000000	-1.000000	-1.000000	-1.000000	-1.000000	-1.000000	-1.000000	56.000000	0.000000	-1.000000	-1.000000	614780.000000	1775777954.019067
1387.845000	-2830.185000	-2347.470000	20992.455000	13241.745000	1088.685000	-22674.105000	-18172.215000	-0.474052	1.452333	4.996761	5.725812	6.111454	0.219641	-1.713135	-1.339749	-1.190280	2.075360	2.746800	-0.717161	-0.089111	0.679503	-1.000000	-1.000000	-1.000000	-1.000000	-1.000000	-1.000000	-1.000000	56.000000	0.000000	-1.000000	-1.000000	614781.000000	1775777954.019077
1388.610000	-2830.815000	-2350.440000	20986.245000	13231.620000	1083.060000	-22674.555000	-18171.990000	-0.099652	2.350983	5.536934	6.617940	7.458866	-0.798467	-2.066402	-1.950427	-1.190280	2.075360	2.746800	-0.717161	-0.089111	0.679503	-1.000000	-1.000000	-1.000000	-1.000000	-1.000000	-1.000000	-1.000000	56.000000	0.000000	-1.000000	-1.000000	614782.000000	1775777954.019090
1383.480000	-2832.075000	-2350.080000	20989.755000	13230.495000	1069.560000	-22680.135000	-18177.210000	0.612765	2.643058	3.925324	4.916899	4.447514	-3.420424	-1.818277	-1.552631	-1.190280	2.075360	2.746800	-0.717161	-0.089111	0.679503	-1.000000	-1.000000	-1.000000	-1.000000	-1.000000	-1.000000	-1.000000	56.000000	0.000000	-1.000000	-1.000000	614783.000000	1775777954.019100
1390.410000	-2825.055000	-2343.510000	20998.800000	13238.955000	1061.730000	-22677.165000	-18170.190000	1.374716	2.198025	1.068836	1.740783	-0.617148	-5.978930	-1.260273	-0.296866	-1.190280	2.075360	2.746800	-0.717161	-0.089111	0.679503	-1.000000	-1.000000	-1.000000	-1.000000	-1.000000	-1.000000	-1.000000	56.000000	0.000000	-1.000000	-1.000000	614784.000000	1775777954.019112
1387.935000	-2830.860000	-2352.195000	20991.015000	13244.130000	1081.305000	-22671.045000	-18170.145000	1.903390	1.261599	-1.598563	-1.008546	-3.999458	-6.178609	-0.305038	1.350228	-1.190280	2.075360	2.746800	-0.717161	-0.089111	0.679503	-1.000000	-1.000000	-1.000000	-1.000000	-1.000000	-1.000000	-1.000000	56.000000	0.000000	-1.000000	-1.000000	614785.000000	1775777954.019122
1384.200000	-2836.305000	-2358.315000	20982.870000	13240.620000	1102.140000	-22669.785000	-18172.305000	1.961812	-0.059175	-3.468159	-2.797954	-3.878502	-1.878959	1.264779	2.757422	-1.190280	2.075360	2.746800	-0.717161	-0.089111	0.679503	-1.000000	-1.000000	-1.000000	-1.000000	-1.000000	-1.000000	-1.000000	56.000000	0.000000	-1.000000	-1.000000	614786.000000	1775777954.019135
1380.915000	-2836.890000	-2357.505000	20982.285000	13217.985000	1073.385000	-22675.860000	-18175.950000	1.144267	-1.779190	-4.606141	-4.212474	-2.059168	5.666399	2.757600	2.992248	-1.190280	2.075360	2.746800	-0.717161	-0.089111	0.679503	-1.000000	-1.000000	-1.000000	-1.000000	-1.000000	-1.000000	-1.000000	56.000000	0.000000	-1.000000	-1.000000	614787.000000	1775777954.019145
1382.535000	-2834.370000	-2353.770000	20987.730000	13215.690000	1063.935000	-22678.605000	-18176.445000	-0.364744	-3.127052	-4.471263	-4.859607	-1.583511	10.486117	2.807608	1.679809	-1.190280	2.075360	2.746800	-0.717161	-0.089111	0.679503	-1.000000	-1.000000	-1.000000	-1.000000	-1.000000	-1.000000	-1.000000	56.000000	0.000000	-1.000000	-1.000000	614788.000000	1775777954.019157
1390.455000	-2827.215000	-2345.850000	20993.355000	13220.910000	1066.995000	-22675.635000	-18171.180000	-1.427469	-2.873326	-2.326457	-3.529111	-2.650452	8.295642	1.127978	-0.280896	-1.190280	2.075360	2.746800	-0.717161	-0.089111	0.679503	-1.000000	-1.000000	-1.000000	-1.000000	-1.000000	-1.000000	-1.000000	56.000000	0.000000	-1.000000	-1.000000	614789.000000	1775777954.019167
1390.680000	-2827.395000	-2346.660000	20988.450000	13226.670000	1058.535000	-22679.415000	-18173.970000	-1.020823	-0.746416	1.332263	-0.303480	-2.524535	1.570482	-0.994485	-1.498030	0.579880	3.082520	2.472120	-0.712828	-0.088806	0.679442	-1.000000	-1.000000	-1.000000	-1.000000	-1.000000	-1.000000	-1.000000	56.000000	0.000000	-1.000000	-1.000000	614790.000000	1775777954.019179
1393.065000	-2826.630000	-2345.940000	20990.880000	13245.390000	1072.260000	-22672.080000	-18172.890000	0.483942	1.937154	4.539057	2.885887	0.722631	-4.149524	-2.101072	-1.510681	0.579880	3.082520	2.472120	-0.712828	-0.088806	0.679442	-1.000000	-1.000000	-1.000000	-1.000000	-1.000000	-1.000000	-1.000000	56.000000	0.000000	-1.000000	-1.000000	614791.000000	1775777954.019189
1389.780000	-2828.250000	-2346.390000	20995.560000	13244.625000	1095.255000	-22670.685000	-18176.805000	1.630699	3.331176	5.372742	4.288662	5.965825	-4.924247	-1.582691	-0.943572	0.579880	3.082520	2.472120	-0.712828	-0.088806	0.679442	-1.000000	-1.000000	-1.000000	-1.000000	-1.000000	-1.000000	-1.000000	56.000000	0.000000	-1.000000	-1.000000	614792.000000	1775777954.019202
1387.935000	-2830.095000	-2349.495000	20988.495000	13229.235000	1079.730000	-22675.860000	-18178.830000	1.303597	2.610629	3.493322	3.681176	9.365907	-0.741636	-0.039585	-0.576849	0.579880	3.082520	2.472120	-0.712828	-0.088806	0.679442	-1.000000	-1.000000	-1.000000	-1.000000	-1.000000	-1.000000	-1.000000	56.000000	0.000000	-1.000000	-1.000000	614793.000000	1775777954.019212
1385.955000	-2832.030000	-2351.745000	20984.130000	13226.490000	1064.745000	-22674.240000	-18178.380000	-0.395815	0.372107	0.068252	1.518699	7.320118	3.619206	1.072048	-0.629947	0.579880	3.082520	2.472120	-0.712828	-0.088806	0.679442	-1.000000	-1.000000	-1.000000	-1.000000	-1.000000	-1.000000	-1.000000	56.000000	0.000000	-1.000000	-1.000000	614794.000000	1775777954.019225
1390.950000	-2827.530000	-2346.705000	20987.550000	13220.235000	1065.510000	-22673.205000	-18175.455000	-2.222793	-1.905780	-3.034561	-1.312139	0.413440	3.244977	0.994577	-0.632048	0.579880	3.082520	2.472120	-0.712828	-0.088806	0.679442	-1.000000	-1.000000	-1.000000	-1.000000	-1.000000	-1.000000	-1.000000	56.000000	0.000000	-1.000000	-1.000000	614795.000000	1775777954.019235
1397.655000	-2819.340000	-2338.065000	20993.580000	13221.405000	1081.260000	-22670.505000	-18171.090000	-2.637550	-2.652650	-4.012993	-3.117451	-6.860408	-0.955131	0.291344	0.012575	0.579880	3.082520	2.472120	-0.712828	-0.088806	0.679442	-1.000000	-1.000000	-1.000000	-1.000000	-1.000000	-1.000000	-1.000000	56.000000	0.000000	-1.000000	-1.000000	614796.000000	1775777954.019248
1388.205000	-2830.365000	-2346.030000	20991.420000	13241.970000	1098.405000	-22665.195000	-18177.030000	-1.305796	-1.524869	-2.479687	-2.683745	-9.756492	-3.743368	-0.118679	1.139956	0.579880	3.082520	2.472120	-0.712828	-0.088806	0.679442	-1.000000	-1.000000	-1.000000	-1.000000	-1.000000	-1.000000	-1.000000	56.000000	0.000000	-1.000000	-1.000000	614797.000000	1775777954.019258
1386.405000	-2831.310000	-2346.030000	20993.490000	13242.105000	1095.660000	-22663.980000	-18176.580000	0.281527	-0.051055	-0.152787	-0.675151	-6.394587	-2.140145	0.143633	1.740253	0.579880	3.082520	2.472120	-0.712828	-0.088806	0.679442	-1.000000	-1.000000	-1.000000	-1.000000	-1.000000	-1.000000	-1.000000	56.000000	0.000000	-1.000000	-1.000000	614798.000000	1775777954.019270
1389.645000	-2825.460000	-2338.695000	21000.510000	13231.530000	1077.030000	-22670.640000	-18177.165000	0.723475	0.382583	1.155909	1.357079	0.370687	1.212401	0.520496	1.174397	0.579880	3.082520	2.472120	-0.712828	-0.088806	0.679442	-1.000000	-1.000000	-1.000000	-1.000000	-1.000000	-1.000000	-1.000000	56.000000	0.000000	-1.000000	-1.000000	614799.000000	1775777954.019280
1383.255000	-2830.230000	-2344.140000	20997.405000	13228.605000	1072.620000	-22676.490000	-18187.290000	0.261535	0.150593	1.319700	2.466794	5.039845	1.624829	-0.046424	-0.236953	2.319520	3.235120	1.251320	-0.714171	-0.087219	0.680357	-1.000000	-1.000000	-1.000000	-1.000000	-1.000000	-1.000000	-1.000000	56.000000	0.000000	-1.000000	-1.000000	614800.000000	1775777954.019293
1380.780000	-2837.295000	-2355.390000	20988.450000	13228.830000	1069.740000	-22681.890000	-18189.000000	-0.359327	-0.140714	0.616124	2.076318	4.834079	-1.782514	-1.811240	-1.897769	2.319520	3.235120	1.251320	-0.714171	-0.087219	0.680357	-1.000000	-1.000000	-1.000000	-1.000000	-1.000000	-1.000000	-1.000000	56.000000	0.000000	-1.000000	-1.000000	614801.000000	1775777954.019303
1380.780000	-2837.295000	-2355.390000	20988.450000	13228.830000	1069.740000	-22681.890000	-18189.000000	-0.750578	-0.593731	-0.981104	-0.002112	1.498455	-5.550264	-3.612498	-2.990116	2.319520	3.235120	1.251320	-0.714171	-0.087219	0.680357	-1.000000	-1.000000	-1.000000	-1.000000	-1.000000	-1.000000	-1.000000	56.000000	0.000000	-1.000000	-1.000000	614802.000000	1775777954.019446
1380.780000	-2837.295000	-2355.390000	20988.450000	13228.830000	1069.740000	-22681.890000	-18189.000000	-0.558316	-0.964466	-2.555610	-2.595016	-1.673104	-6.144548	-3.823114	-2.577788	2.319520	3.235120	1.251320	-0.714171	-0.087219	0.680357	-1.000000	-1.000000	-1.000000	-1.000000	-1.000000	-1.000000	-1.000000	56.000000	0.000000	-1.000000	-1.000000	614803.000000	1775777954.019458
1380.780000	-2837.295000	-2355.390000	20988.450000	13228.830000	1069.740000	-22681.890000	-18189.000000	0.323099	-0.609950	-2.602517	-3.803465	-2.769857	-2.963671	-1.842212	-0.597839	2.319520	3.235120	1.251320	-0.714171	-0.087219	0.680357	-1.000000	-1.000000	-1.000000	-1.000000	-1.000000	-1.000000	-1.000000	56.000000	0.000000	-1.000000	-1.000000	614804.000000	1775777954.019467
1380.780000	-2837.295000	-2355.390000	20988.450000	13228.830000	1069.740000	-22681.890000	-18189.000000	1.456981	0.535279	-0.780475	-2.825257	-1.842860	1.957457	1.366192	1.900438	2.319520	3.235120	1.251320	-0.714171	-0.087219	0.680357	-1.000000	-1.000000	-1.000000	-1.000000	-1.000000	-1.000000	-1.000000	56.000000	0.000000	-1.000000	-1.000000	614805.000000	1775777954.019476
1380.780000	-2837.295000	-2355.390000	20988.450000	13228.830000	1069.740000	-22681.890000	-18189.000000	2.193888	1.820894	1.805886	-0.423840	-0.040171	5.900349	4.103829	3.611109	2.319520	3.235120	1.251320	-0.714171	-0.087219	0.680357	-1.000000	-1.000000	-1.000000	-1.000000	-1.000000	-1.000000	-1.000000	56.000000	0.000000	-1.000000	-1.000000	614806.000000	1775777954.019485
1380.780000	-2837.295000	-2355.390000	20988.450000	13228.830000	1069.740000	-22681.890000	-18189.000000	2.142717	2.500576	3.689968	1.973699	1.446039	7.187151	5.130374	3.812943	2.319520	3.235120	1.251320	-0.714171	-0.087219	0.680357	-1.000000	-1.000000	-1.000000	-1.000000	-1.000000	-1.000000	-1.000000	56.000000	0.000000	-1.000000	-1.000000	614807.000000	1775777954.019494
1380.780000	-2837.295000	-2355.390000	20988.450000	13228.830000	1069.740000	-22681.890000	-18189.000000	1.357792	2.242083	4.022074	3.265120	1.989260	5.749114	4.237607	2.625769	2.319520	3.235120	1.251320	-0.714171	-0.087219	0.680357	-1.000000	-1.000000	-1.000000	-1.000000	-1.000000	-1.000000	-1.000000	56.000000	0.000000	-1.000000	-1.000000	614808.000000	1775777954.019502
1380.780000	-2837.295000	-2355.390000	20988.450000	13228.830000	1069.740000	-22681.890000	-18189.000000	0.221468	1.229722	2.870641	3.133481	1.607382	2.697589	2.097950	0.746366	2.319520	3.235120	1.251320	-0.714171	-0.087219	0.680357	-1.000000	-1.000000	-1.000000	-1.000000	-1.000000	-1.000000	-1.000000	56.000000	0.000000	-1.000000	-1.000000	614809.000000	1775777954.019512
1380.780000	-2837.295000	-2355.390000	20988.450000	13228.830000	1069.740000	-22681.890000	-18189.000000	-0.808203	-0.046582	0.944780	1.955169	0.714005	-0.506225	-0.268476	-1.012118	2.319520	3.235120	1.251320	-0.714171	-0.087219	0.680357	-1.000000	-1.000000	-1.000000	-1.000000	-1.000000	-1.000000	-1.000000	56.000000	0.000000	-1.000000	-1.000000	614810.000000	1775777954.019520
1380.780000	-2837.295000	-2355.390000	20988.450000	13228.830000	1069.740000	-22681.890000	-18189.000000	-1.411867	-1.090039	-0.900430	0.420760	-0.203105	-2.750296	-2.014219	-2.087526	2.319520	3.235120	1.251320	-0.714171	-0.087219	0.680357	-1.000000	-1.000000	-1.000000	-1.000000	-1.000000	-1.000000	-1.000000	56.000000	0.000000	-1.000000	-1.000000	614811.000000	1775777954.019529
1380.780000	-2837.295000	-2355.390000	20988.450000	13228.830000	1069.740000	-22681.890000	-18189.000000	-1.498829	-1.607100	-2.061244	-0.846301	-0.807227	-3.587379	-2.743658	-2.312706	2.319520	3.235120	1.251320	-0.714171	-0.087219	0.680357	-1.000000	-1.000000	-1.000000	-1.000000	-1.000000	-1.000000	-1.000000	56.000000	0.000000	-1.000000	-1.000000	614812.000000	1775777954.019537
1380.780000	-2837.295000	-2355.390000	20988.450000	13228.830000	1069.740000	-22681.890000	-18189.000000	-1.176366	-1.565332	-2.345131	-1.508167	-0.988849	-3.182002	-2.520200	-1.855929	2.319520	3.235120	1.251320	-0.714171	-0.087219	0.680357	-1.000000	-1.000000	-1.000000	-1.000000	-1.000000	-1.000000	-1.000000	56.000000	0.000000	-1.000000	-1.000000	614813.000000	1775777954.019546
1380.780000	-2837.295000	-2355.390000	20988.450000	13228.830000	1069.740000	-22681.890000	-18189.000000	-0.652855	-1.128401	-1.913660	-1.541317	-0.824074	-2.048443	-1.697439	-1.055107	2.319520	3.235120	1.251320	-0.714171	-0.087219	0.680357	-1.000000	-1.000000	-1.000000	-1.000000	-1.000000	-1.000000	-1.000000	56.000000	0.000000	-1.000000	-1.000000	614814.000000	1775777954.019554
1380.780000	-2837.295000	-2355.390000	20988.450000	13228.830000	1069.740000	-22681.890000	-18189.000000	-0.135754	-0.538170	-1.111234	-1.137223	-0.479636	-0.757440	-0.703526	-0.247873	2.319520	3.235120	1.251320	-0.714171	-0.087219	0.680357	-1.000000	-1.000000	-1.000000	-1.000000	-1.000000	-1.000000	-1.000000	56.000000	0.000000	-1.000000	-1.000000	614815.000000	1775777954.019562
1380.780000	-2837.295000	-2355.390000	20988.450000	13228.830000	1069.740000	-22681.890000	-18189.000000	0.235686	-0.008247	-0.287470	-0.561843	-0.121876	0.269802	0.124415	0.338494	2.319520	3.235120	1.251320	-0.714171	-0.087219	0.680357	-1.000000	-1.000000	-1.000000	-1.000000	-1.000000	-1.000000	-1.000000	56.000000	0.000000	-1.000000	-1.000000	614816.000000	1775777954.019571
1380.780000	-2837.295000	-2355.390000	20988.450000	13228.830000	1069.740000	-22681.890000	-18189.000000	0.411369	0.335882	0.319052	-0.041192	0.138816	0.841223	0.615544	0.620530	2.319520	3.235120	1.251320	-0.714171	-0.087219	0.680357	-1.000000	-1.000000	-1.000000	-1.000000	-1.000000	-1.000000	-1.000000	56.000000	0.000000	-1.000000	-1.000000	614817.000000	1775777954.019579
1380.780000	-2837.295000	-2355.390000	20988.450000	13228.830000	1069.740000	-22681.890000	-18189.000000	0.414683	0.465989	0.617457	0.296625	0.262789	0.968787	0.758407	0.632768	2.319520	3.235120	1.251320	-0.714171	-0.087219	0.680357	-1.000000	-1.000000	-1.000000	-1.000000	-1.000000	-1.000000	-1.000000	56.000000	0.000000	-1.000000	-1.000000	614818.000000	1775777954.019587
1380.780000	-2837.295000	-2355.390000	20988.450000	13228.830000	1069.740000	-22681.890000	-18189.000000	0.309111	0.425242	0.639301	0.425077	0.266598	0.787887	0.645621	0.473920	2.319520	3.235120	1.251320	-0.714171	-0.087219	0.680357	-1.000000	-1.000000	-1.000000	-1.000000	-1.000000	-1.000000	-1.000000	56.000000	0.000000	-1.000000	-1.000000	614819.000000	1775777954.019595
1380.780000	-2837.295000	-2355.390000	20988.450000	13228.830000	1069.740000	-22681.890000	-18189.000000	0.164753	0.289216	0.483646	0.388770	0.195989	0.469461	0.407027	0.253442	2.319520	3.235120	1.251320	-0.714171	-0.087219	0.680357	-1.000000	-1.000000	-1.000000	-1.000000	-1.000000	-1.000000	-1.000000	56.000000	0.000000	-1.000000	-1.000000	614820.000000	1775777954.019604
1380.780000	-2837.295000	-2355.390000	20988.450000	13228.830000	1069.740000	-22681.890000	-18189.000000	0.035509	0.131516	0.262013	0.262487	0.100419	0.155784	0.157265	0.055435	2.319520	3.235120	1.251320	-0.714171	-0.087219	0.680357	-1.000000	-1.000000	-1.000000	-1.000000	-1.000000	-1.000000	-1.000000	56.000000	0.000000	-1.000000	-1.000000	614821.000000	1775777954.019612
1380.780000	-2837.295000	-2355.390000	20988.450000	13228.830000	1069.740000	-22681.890000	-18189.000000	-0.050085	0.003174	0.060874	0.117104	0.016717	-0.069445	-0.031454	-0.075664	2.319520	3.235120	1.251320	-0.714171	-0.087219	0.680357	-1.000000	-1.000000	-1.000000	-1.000000	-1.000000	-1.000000	-1.000000	56.000000	0.000000	-1.000000	-1.000000	614822.000000	1775777954.019621
1380.780000	-2837.295000	-2355.390000	20988.450000	13228.830000	1069.740000	-22681.890000	-18189.000000	-0.086923	-0.073151	-0.073503	0.000375	-0.036700	-0.181461	-0.133085	-0.131925	2.319520	3.235120	1.251320	-0.714171	-0.087219	0.680357	-1.000000	-1.000000	-1.000000	-1.000000	-1.000000	-1.000000	-1.000000	56.000000	0.000000	-1.000000	-1.000000	614823.000000	1775777954.019630
1380.780000	-2837.295000	-2355.390000	20988.450000	13228.830000	1069.740000	-22681.890000	-18189.000000	-0.085337	-0.098294	-0.132175	-0.067537	-0.057642	-0.197268	-0.156385	-0.129333	2.319520	3.235120	1.251320	-0.714171	-0.087219	0.680357	-1.000000	-1.000000	-1.000000	-1.000000	-1.000000	-1.000000	-1.000000	56.000000	0.000000	-1.000000	-1.000000	614824.000000	1775777954.019638
1380.780000	-2837.295000	-2355.390000	20988.450000	13228.830000	1069.740000	-22681.890000	-18189.000000	-0.061885	-0.086816	-0.130849	-0.088503	-0.054026	-0.153411	-0.128079	-0.093412	2.319520	3.235120	1.251320	-0.714171	-0.087219	0.680357	-1.000000	-1.000000	-1.000000	-1.000000	-1.000000	-1.000000	-1.000000	56.000000	0.000000	-1.000000	-1.000000	614825.000000	1775777954.019647
1390.905000	-2823.345000	-2338.695000	21008.520000	13237.920000	1084.545000	-22661.865000	-18187.245000	0.146174	0.188433	0.198797	0.276772	0.122762	0.173331	0.274850	-0.017168	0.335720	2.777320	-1.007160	-0.721739	-0.083496	0.680479	-1.000000	-1.000000	-1.000000	-1.000000	-1.000000	-1.000000	-1.000000	56.000000	0.000000	-1.000000	-1.000000	614828.000000	1775777954.025663
1388.880000	-2823.030000	-2337.570000	21010.635000	13230.810000	1067.895000	-22674.105000	-18194.085000	0.773529	1.104534	1.315682	1.605341	0.589572	0.873129	1.369612	0.011349	0.335720	2.777320	-1.007160	-0.721739	-0.083496	0.680479	-1.000000	-1.000000	-1.000000	-1.000000	-1.000000	-1.000000	-1.000000	56.000000	0.000000	-1.000000	-1.000000	614829.000000	1775777954.025685
1380.555000	-2830.635000	-2344.095000	21001.680000	13236.705000	1089.495000	-22678.965000	-18204.210000	1.245111	2.020524	2.513747	3.055882	0.916475	1.313001	1.991536	-0.447100	-1.175020	2.472120	-2.151660	-0.720823	-0.082580	0.680052	-1.000000	-1.000000	-1.000000	-1.000000	-1.000000	-1.000000	-1.000000	56.000000	0.000000	-1.000000	-1.000000	614830.000000	1775777954.031083
1377.405000	-2832.210000	-2343.420000	21005.460000	13252.635000	1094.445000	-22679.595000	-18207.720000	0.413847	1.396145	2.035677	2.510395	0.964640	1.415827	0.588541	-1.649328	-1.175020	2.472120	-2.151660	-0.720823	-0.082580	0.680052	-1.000000	-1.000000	-1.000000	-1.000000	-1.000000	-1.000000	-1.000000	56.000000	0.000000	-1.000000	-1.000000	614831.000000	1775777954.031107
1386.630000	-2822.490000	-2333.970000	21015.360000	13250.475000	1071.855000	-22679.190000	-18199.845000	-1.449869	-0.800987	-0.288657	-0.211294	1.314653	1.244942	-2.126990	-2.603390	-1.175020	2.472120	-2.151660	-0.720823	-0.082580	0.680052	-1.000000	-1.000000	-1.000000	-1.000000	-1.000000	-1.000000	-1.000000	56.000000	0.000000	-1.000000	-1.000000	614832.000000	1775777954.035524
1384.650000	-2824.470000	-2336.310000	21014.325000	13250.655000	1071.135000	-22682.205000	-18199.845000	-2.484385	-2.624584	-2.542420	-2.845024	1.622602	-0.499336	-3.986158	-1.704028	-1.175020	2.472120	-2.151660	-0.720823	-0.082580	0.680052	-1.000000	-1.000000	-1.000000	-1.000000	-1.000000	-1.000000	-1.000000	56.000000	0.000000	-1.000000	-1.000000	614833.000000	1775777954.035544
1382.760000	-2831.670000	-2346.435000	21007.755000	13250.655000	1080.810000	-22679.415000	-18197.145000	-1.746165	-2.881242	-3.503079	-3.912105	0.713951	-3.655453	-3.757392	1.132345	-1.175020	2.472120	-2.151660	-0.720823	-0.082580	0.680052	-1.000000	-1.000000	-1.000000	-1.000000	-1.000000	-1.000000	-1.000000	56.000000	0.000000	-1.000000	-1.000000	614834.000000	1775777954.040541
1387.575000	-2832.390000	-2352.195000	20999.070000	13244.085000	1085.580000	-22676.490000	-18191.475000	-0.100079	-2.288732	-3.782637	-4.045816	-1.576106	-5.200378	-1.627404	4.205041	-1.175020	2.472120	-2.151660	-0.720823	-0.082580	0.680052	-1.000000	-1.000000	-1.000000	-1.000000	-1.000000	-1.000000	-1.000000	56.000000	0.000000	-1.000000	-1.000000	614835.000000	1775777954.040564
1386.945000	-2831.445000	-2351.025000	20996.595000	13230.630000	1080.585000	-22679.730000	-18194.625000	1.356486	-1.615694	-3.856138	-4.120489	-4.419328	-3.329683	1.262246	5.690994	-1.175020	2.472120	-2.151660	-0.720823	-0.082580	0.680052	-1.000000	-1.000000	-1.000000	-1.000000	-1.000000	-1.000000	-1.000000	56.000000	0.000000	-1.000000	-1.000000	614836.000000	1775777954.042762
1386.855000	-2831.895000	-2351.790000	20996.595000	13234.320000	1077.210000	-22681.260000	-18197.415000	2.039522	-0.706307	-2.993389	-3.737545	-6.599810	0.192232	3.296994	4.613915	-1.175020	2.472120	-2.151660	-0.720823	-0.082580	0.680052	-1.000000	-1.000000	-1.000000	-1.000000	-1.000000	-1.000000	-1.000000	56.000000	0.000000	-1.000000	-1.000000	614837.000000	1775777954.042779
1387.890000	-2827.845000	-2346.255000	21006.585000	13254.885000	1088.370000	-22676.265000	-18197.955000	1.737616	0.661068	-0.553503	-1.787715	-6.106689	2.784497	3.553758	1.282172	-1.175020	2.472120	-2.151660	-0.720823	-0.082580	0.680052	-1.000000	-1.000000	-1.000000	-1.000000	-1.000000	-1.000000	-1.000000	56.000000	0.000000	-1.000000	-1.000000	614838.000000	1775777954.048682
1384.560000	-2829.465000	-2349.405000	21001.365000	13256.460000	1104.255000	-22671.360000	-18199.485000	0.682999	2.180510	2.827260	1.871661	-1.513264	4.090988	2.617277	-2.626563	-1.175020	2.472120	-2.151660	-0.720823	-0.082580	0.680052	-1.000000	-1.000000	-1.000000	-1.000000	-1.000000	-1.000000	-1.000000	56.000000	0.000000	-1.000000	-1.000000	614839.000000	1775777954.048705
1388.655000	-2824.335000	-2342.340000	21001.905000	13247.820000	1089.000000	-22674.690000	-18197.730000	-0.561104	3.205008	5.575309	5.484821	4.978827	4.697409	1.512723	-5.128757	-1.205540	3.387720	-2.365300	-0.717466	-0.082763	0.678648	-1.000000	-1.000000	-1.000000	-1.000000	-1.000000	-1.000000	-1.000000	56.000000	0.000000	-1.000000	-1.000000	614840.000000	1775777954.049887
1389.780000	-2821.995000	-2334.015000	21008.655000	13243.545000	1077.795000	-22677.165000	-18198.990000	-1.288435	3.326345	6.608755	6.982459	8.562188	3.486664	0.364463	-5.217400	-1.205540	3.387720	-2.365300	-0.717466	-0.082763	0.678648	-1.000000	-1.000000	-1.000000	-1.000000	-1.000000	-1.000000	-1.000000	56.000000	0.000000	-1.000000	-1.000000	614841.000000	1775777954.049908
1395.945000	-2817.765000	-2331.180000	21016.530000	13236.210000	1069.200000	-22674.825000	-18191.340000	-1.013971	2.637930	5.948713	6.152195	6.705286	-0.673143	-1.051769	-3.163066	-1.205540	3.387720	-2.365300	-0.717466	-0.082763	0.678648	-1.000000	-1.000000	-1.000000	-1.000000	-1.000000	-1.000000	-1.000000	56.000000	0.000000	-1.000000	-1.000000	614842.000000	1775777954.053762
1395.360000	-2815.740000	-2331.585000	21013.335000	13227.750000	1042.020000	-22685.265000	-18195.075000	0.057316	1.437304	3.843632	4.020858	1.066465	-6.366770	-2.452648	-0.096660	-1.205540	3.387720	-2.365300	-0.717466	-0.082763	0.678648	-1.000000	-1.000000	-1.000000	-1.000000	-1.000000	-1.000000	-1.000000	56.000000	0.000000	-1.000000	-1.000000	614843.000000	1775777954.053786
1388.700000	-2823.390000	-2340.765000	21004.695000	13239.630000	1059.885000	-22681.170000	-18198.360000	0.920014	-0.170056	0.336614	1.010086	-4.395992	-10.317515	-3.364769	2.335454	-1.205540	3.387720	-2.365300	-0.717466	-0.082763	0.678648	-1.000000	-1.000000	-1.000000	-1.000000	-1.000000	-1.000000	-1.000000	56.000000	0.000000	-1.000000	-1.000000	614844.000000	1775777954.057741
1379.970000	-2832.570000	-2347.200000	21001.680000	13257.810000	1096.875000	-22675.275000	-18202.275000	0.378582	-2.373711	-4.122287	-2.820786	-5.735600	-8.404752	-3.119791	2.778273	-1.205540	3.387720	-2.365300	-0.717466	-0.082763	0.678648	-1.000000	-1.000000	-1.000000	-1.000000	-1.000000	-1.000000	-1.000000	56.000000	0.000000	-1.000000	-1.000000	614845.000000	1775777954.057770
1387.575000	-2828.430000	-2343.645000	21009.195000	13262.040000	1088.055000	-22669.560000	-18192.330000	-1.462693	-4.763350	-7.935882	-6.180751	-1.746809	0.824392	-1.103336	1.511076	-1.205540	3.387720	-2.365300	-0.717466	-0.082763	0.678648	-1.000000	-1.000000	-1.000000	-1.000000	-1.000000	-1.000000	-1.000000	56.000000	0.000000	-1.000000	-1.000000	614846.000000	1775777954.061738
1385.955000	-2830.905000	-2347.695000	21003.300000	13246.875000	1084.860000	-22669.695000	-18193.005000	-2.783181	-5.770926	-8.917981	-7.033746	4.068515	11.722191	2.010512	0.249351	-1.205540	3.387720	-2.365300	-0.717466	-0.082763	0.678648	-1.000000	-1.000000	-1.000000	-1.000000	-1.000000	-1.000000	-1.000000	56.000000	0.000000	-1.000000	-1.000000	614847.000000	1775777954.061760
1391.985000	-2821.905000	-2336.670000	21012.615000	13236.705000	1088.550000	-22666.635000	-18190.620000	-2.040924	-4.091945	-6.123529	-4.804564	6.111517	16.074446	4.331135	0.089209	-1.205540	3.387720	-2.365300	-0.717466	-0.082763	0.678648	-1.000000	-1.000000	-1.000000	-1.000000	-1.000000	-1.000000	-1.000000	56.000000	0.000000	-1.000000	-1.000000	614848.000000	1775777954.072818
1386.180000	-2827.755000	-2343.195000	21004.830000	13232.025000	1073.295000	-22677.030000	-18199.935000	0.319563	-0.236704	-0.758198	-0.874008	2.302676	11.244040	4.256745	0.403992	-1.205540	3.387720	-2.365300	-0.717466	-0.082763	0.678648	-1.000000	-1.000000	-1.000000	-1.000000	-1.000000	-1.000000	-1.000000	56.000000	0.000000	-1.000000	-1.000000	614849.000000	1775777954.072845
1385.460000	-2829.240000	-2345.220000	21005.460000	13252.140000	1092.330000	-22675.770000	-18201.240000	2.444782	3.566644	4.341830	2.535400	-3.680628	1.111373	1.587068	-0.029489	0.198380	3.860780	-2.365300	-0.716002	-0.085083	0.678160	-1.000000	-1.000000	-1.000000	-1.000000	-1.000000	-1.000000	-1.000000	56.000000	0.000000	-1.000000	-1.000000	614850.000000	1775777954.072876
1379.745000	-2834.190000	-2350.845000	20997.000000	13245.435000	1091.520000	-22677.390000	-18207.450000	2.813435	5.069958	6.487939	3.729811	-6.348791	-7.717070	-2.119801	-1.425736	0.198380	3.860780	-2.365300	-0.716002	-0.085083	0.678160	-1.000000	-1.000000	-1.000000	-1.000000	-1.000000	-1.000000	-1.000000	56.000000	0.000000	-1.000000	-1.000000	614851.000000	1775777954.072889
1393.425000	-2818.710000	-2335.275000	21006.360000	13236.570000	1058.895000	-22681.665000	-18199.350000	1.655819	4.105510	5.441678	2.763408	-4.347152	-11.436955	-4.621086	-2.633310	0.198380	3.860780	-2.365300	-0.716002	-0.085083	0.678160	-1.000000	-1.000000	-1.000000	-1.000000	-1.000000	-1.000000	-1.000000	56.000000	0.000000	-1.000000	-1.000000	614852.000000	1775777954.074114
1393.470000	-2818.395000	-2332.620000	21013.470000	13257.720000	1053.045000	-22686.120000	-18201.015000	0.629647	2.522536	3.398822	1.410387	-0.426303	-11.536399	-4.875268	-2.242758	0.198380	3.860780	-2.365300	-0.716002	-0.085083	0.678160	-1.000000	-1.000000	-1.000000	-1.000000	-1.000000	-1.000000	-1.000000	56.000000	0.000000	-1.000000	-1.000000	614853.000000	1775777954.074129
1381.545000	-2832.255000	-2348.235000	21002.625000	13265.370000	1106.055000	-22672.440000	-18208.395000	0.425209	1.355230	1.820805	1.053528	3.346380	-9.070988	-3.050045	-0.316908	0.198380	3.860780	-2.365300	-0.716002	-0.085083	0.678160	-1.000000	-1.000000	-1.000000	-1.000000	-1.000000	-1.000000	-1.000000	56.000000	0.000000	-1.000000	-1.000000	614854.000000	1775777954.077640
1375.695000	-2836.980000	-2351.475000	21000.150000	13241.430000	1113.570000	-22667.715000	-18213.030000	-0.207775	-0.396135	-0.174439	0.920738	5.712831	-1.753055	0.472880	1.426772	0.198380	3.860780	-2.365300	-0.716002	-0.085083	0.678160	-1.000000	-1.000000	-1.000000	-1.000000	-1.000000	-1.000000	-1.000000	56.000000	0.000000	-1.000000	-1.000000	614855.000000	1775777954.077657
1380.960000	-2827.980000	-2339.640000	21012.660000	13241.205000	1080.585000	-22675.815000	-18212.040000	-1.876004	-2.930872	-2.829570	0.071362	4.522901	8.450587	4.333221	1.738022	0.198380	3.860780	-2.365300	-0.716002	-0.085083	0.678160	-1.000000	-1.000000	-1.000000	-1.000000	-1.000000	-1.000000	-1.000000	56.000000	0.000000	-1.000000	-1.000000	614856.000000	1775777954.083548
1390.095000	-2817.270000	-2329.200000	21021.660000	13255.155000	1068.750000	-22674.420000	-18204.210000	-2.901454	-4.087154	-3.959789	-0.458794	0.069209	13.152513	6.020777	1.268090	0.198380	3.860780	-2.365300	-0.716002	-0.085083	0.678160	-1.000000	-1.000000	-1.000000	-1.000000	-1.000000	-1.000000	-1.000000	56.000000	0.000000	-1.000000	-1.000000	614857.000000	1775777954.083568
1384.830000	-2826.225000	-2339.820000	21010.950000	13249.395000	1075.230000	-22672.935000	-18205.740000	-1.694872	-2.379469	-2.241741	0.191202	-3.800050	8.081551	4.419025	1.325620	0.198380	3.860780	-2.365300	-0.716002	-0.085083	0.678160	-1.000000	-1.000000	-1.000000	-1.000000	-1.000000	-1.000000	-1.000000	56.000000	0.000000	-1.000000	-1.000000	614858.000000	1775777954.085810
1381.320000	-2830.545000	-2345.220000	21007.710000	13247.910000	1084.005000	-22673.565000	-18208.665000	0.750835	0.450391	0.272573	0.625716	-4.532734	-1.303822	0.980097	1.903972	0.198380	3.860780	-2.365300	-0.716002	-0.085083	0.678160	-1.000000	-1.000000	-1.000000	-1.000000	-1.000000	-1.000000	-1.000000	56.000000	0.000000	-1.000000	-1.000000	614859.000000	1775777954.085829
1377.855000	-2829.915000	-2342.745000	21010.770000	13244.535000	1085.535000	-22676.220000	-18213.930000	2.131571	1.729725	0.971879	-0.520949	-3.014679	-6.994662	-2.189377	1.778225	-0.350980	3.296160	-3.784480	-0.718138	-0.086487	0.677550	-1.000000	-1.000000	-1.000000	-1.000000	-1.000000	-1.000000	-1.000000	56.000000	0.000000	-1.000000	-1.000000	614860.000000	1775777954.089940
1376.010000	-2832.165000	-2344.725000	21007.530000	13250.655000	1090.710000	-22677.750000	-18217.215000	1.537563	1.015489	-0.087219	-2.379762	-0.955554	-6.185811	-3.947179	0.260442	-0.350980	3.296160	-3.784480	-0.718138	-0.086487	0.677550	-1.000000	-1.000000	-1.000000	-1.000000	-1.000000	-1.000000	-1.000000	56.000000	0.000000	-1.000000	-1.000000	614861.000000	1775777954.089960
1384.065000	-2823.930000	-2336.670000	21018.105000	13262.895000	1096.695000	-22674.645000	-18212.445000	0.063458	-0.196424	-1.072625	-3.142761	1.130951	-1.373806	-4.023564	-1.805765	-0.350980	3.296160	-3.784480	-0.718138	-0.086487	0.677550	-1.000000	-1.000000	-1.000000	-1.000000	-1.000000	-1.000000	-1.000000	56.000000	0.000000	-1.000000	-1.000000	614862.000000	1775777954.093849
1381.545000	-2827.395000	-2340.900000	21006.270000	13251.330000	1093.365000	-22679.055000	-18216.540000	-0.617204	-0.460032	-0.741526	-2.101165	3.093065	3.363205	-2.670763	-2.856384	-0.350980	3.296160	-3.784480	-0.718138	-0.086487	0.677550	-1.000000	-1.000000	-1.000000	-1.000000	-1.000000	-1.000000	-1.000000	56.000000	0.000000	-1.000000	-1.000000	614863.000000	1775777954.093871
1380.780000	-2830.770000	-2346.255000	20997.585000	13241.160000	1084.455000	-22681.215000	-18215.820000	-0.110946	0.189669	0.402863	-0.487431	3.539439	4.895723	-0.757181	-2.281505	-0.350980	3.296160	-3.784480	-0.718138	-0.086487	0.677550	-1.000000	-1.000000	-1.000000	-1.000000	-1.000000	-1.000000	-1.000000	56.000000	0.000000	-1.000000	-1.000000	614864.000000	1775777954.099236
1389.195000	-2823.885000	-2340.720000	21005.235000	13238.595000	1074.960000	-22676.220000	-18206.145000	0.764513	0.760135	1.061228	0.169765	1.252091	2.291477	0.812411	-0.571570	-0.350980	3.296160	-3.784480	-0.718138	-0.086487	0.677550	-1.000000	-1.000000	-1.000000	-1.000000	-1.000000	-1.000000	-1.000000	56.000000	0.000000	-1.000000	-1.000000	614865.000000	1775777954.099258
1386.315000	-2828.250000	-2345.310000	21005.775000	13249.080000	1086.660000	-22671.900000	-18206.415000	1.383035	0.851191	0.912229	0.307098	-2.178876	-2.387774	1.958204	1.597197	-0.350980	3.296160	-3.784480	-0.718138	-0.086487	0.677550	-1.000000	-1.000000	-1.000000	-1.000000	-1.000000	-1.000000	-1.000000	56.000000	0.000000	-1.000000	-1.000000	614866.000000	1775777954.109809
1378.035000	-2834.955000	-2349.990000	21004.605000	13255.605000	1095.615000	-22675.590000	-18215.820000	1.217472	0.428349	0.324819	1.055711	-3.465018	-5.110706	2.807827	3.052555	-0.350980	3.296160	-3.784480	-0.718138	-0.086487	0.677550	-1.000000	-1.000000	-1.000000	-1.000000	-1.000000	-1.000000	-1.000000	56.000000	0.000000	-1.000000	-1.000000	614867.000000	1775777954.109833
1378.125000	-2831.220000	-2344.635000	21007.305000	13247.730000	1078.560000	-22678.155000	-18219.420000	-0.223922	-0.563713	-0.385214	2.227393	-1.493075	-3.823692	2.804514	2.350292	-0.350980	3.296160	-3.784480	-0.718138	-0.086487	0.677550	-1.000000	-1.000000	-1.000000	-1.000000	-1.000000	-1.000000	-1.000000	56.000000	0.000000	-1.000000	-1.000000	614868.000000	1775777954.109862
1387.035000	-2822.490000	-2338.020000	21006.810000	13236.750000	1066.770000	-22675.635000	-18211.725000	-2.085858	-1.297923	-0.502605	2.934663	1.254991	-0.926954	1.531889	-0.221798	-0.350980	3.296160	-3.784480	-0.718138	-0.086487	0.677550	-1.000000	-1.000000	-1.000000	-1.000000	-1.000000	-1.000000	-1.000000	56.000000	0.000000	-1.000000	-1.000000	614869.000000	1775777954.109874
1392.885000	-2817.990000	-2332.620000	21012.705000	13232.520000	1036.260000	-22684.320000	-18208.305000	-2.443542	-0.575680	0.601692	2.742491	1.767795	-0.239527	-0.455912	-2.326560	-0.900340	3.586100	-3.998120	-0.718382	-0.087890	0.677427	-1.000000	-1.000000	-1.000000	-1.000000	-1.000000	-1.000000	-1.000000	56.000000	0.000000	-1.000000	-1.000000	614870.000000	1775777954.109890
1393.245000	-2814.480000	-2324.745000	21024.045000	13243.230000	1024.605000	-22690.440000	-18211.185000	-0.671195	1.408217	2.440530	2.046845	0.130786	-2.775231	-2.403174	-2.289566	-0.900340	3.586100	-3.998120	-0.718382	-0.087890	0.677427	-1.000000	-1.000000	-1.000000	-1.000000	-1.000000	-1.000000	-1.000000	56.000000	0.000000	-1.000000	-1.000000	614871.000000	1775777954.109901
1381.005000	-2824.245000	-2330.820000	21024.450000	13275.495000	1100.655000	-22678.740000	-18221.490000	1.439322	2.844731	3.565424	1.505467	-0.448288	-4.322216	-3.515440	-0.997030	-0.900340	3.586100	-3.998120	-0.718382	-0.087890	0.677427	-1.000000	-1.000000	-1.000000	-1.000000	-1.000000	-1.000000	-1.000000	56.000000	0.000000	-1.000000	-1.000000	614872.000000	1775777954.113018
1371.060000	-2836.980000	-2349.585000	21000.195000	13258.620000	1135.530000	-22673.250000	-18228.330000	1.390967	1.773546	2.244621	0.468226	2.144150	2.022592	-2.573773	-0.473322	-0.900340	3.586100	-3.998120	-0.718382	-0.087890	0.677427	-1.000000	-1.000000	-1.000000	-1.000000	-1.000000	-1.000000	-1.000000	56.000000	0.000000	-1.000000	-1.000000	614873.000000	1775777954.113033
1385.460000	-2820.780000	-2332.215000	21014.730000	13252.185000	1098.855000	-22677.165000	-18219.420000	-0.929509	-1.585177	-1.695007	-2.242174	5.077432	14.946290	0.448163	-1.126095	-0.900340	3.586100	-3.998120	-0.718382	-0.087890	0.677427	-1.000000	-1.000000	-1.000000	-1.000000	-1.000000	-1.000000	-1.000000	56.000000	0.000000	-1.000000	-1.000000	614874.000000	1775777954.117097
1389.330000	-2818.980000	-2333.385000	21018.060000	13254.435000	1067.355000	-22680.270000	-18215.640000	-2.620795	-4.144202	-5.329315	-5.187406	4.099437	21.449693	3.309388	-1.234689	-0.900340	3.586100	-3.998120	-0.718382	-0.087890	0.677427	-1.000000	-1.000000	-1.000000	-1.000000	-1.000000	-1.000000	-1.000000	56.000000	0.000000	-1.000000	-1.000000	614875.000000	1775777954.117115
1392.570000	-2817.180000	-2331.315000	21023.145000	13255.425000	1059.255000	-22678.830000	-18210.510000	-1.405185	-3.422178	-5.609666	-5.414427	-0.542709	11.914939	3.795102	0.532192	-0.900340	3.586100	-3.998120	-0.718382	-0.087890	0.677427	-1.000000	-1.000000	-1.000000	-1.000000	-1.000000	-1.000000	-1.000000	56.000000	0.000000	-1.000000	-1.000000	614876.000000	1775777954.122119
1382.760000	-2827.575000	-2341.890000	21011.760000	13251.420000	1104.390000	-22672.620000	-18216.945000	1.470410	-0.568245	-2.983807	-2.698164	-5.197246	-6.931875	2.088869	3.136265	-0.900340	3.586100	-3.998120	-0.718382	-0.087890	0.677427	-1.000000	-1.000000	-1.000000	-1.000000	-1.000000	-1.000000	-1.000000	56.000000	0.000000	-1.000000	-1.000000	614877.000000	1775777954.122149
1370.700000	-2840.850000	-2354.130000	20998.350000	13234.095000	1095.570000	-22673.295000	-18225.765000	2.819994	1.251396	-0.352488	0.100461	-7.459165	-19.590820	0.010436	4.114982	-0.900340	3.586100	-3.998120	-0.718382	-0.087890	0.677427	-1.000000	-1.000000	-1.000000	-1.000000	-1.000000	-1.000000	-1.000000	56.000000	0.000000	-1.000000	-1.000000	614878.000000	1775777954.125442
1372.995000	-2838.105000	-2350.125000	21003.435000	13240.485000	1093.410000	-22675.590000	-18225.540000	1.126610	0.444032	0.379203	0.681222	-7.244275	-18.755253	-1.269500	2.177962	-0.900340	3.586100	-3.998120	-0.718382	-0.087890	0.677427	-1.000000	-1.000000	-1.000000	-1.000000	-1.000000	-1.000000	-1.000000	56.000000	0.000000	-1.000000	-1.000000	614879.000000	1775777954.125462
1381.770000	-2829.645000	-2345.355000	21005.820000	13249.980000	1097.730000	-22675.230000	-18219.105000	-1.646032	-1.249256	0.187379	-0.030301	-4.619146	-9.373040	-1.856045	-1.147636	-1.327620	2.884140	-2.731540	-0.719175	-0.088745	0.677916	-1.000000	-1.000000	-1.000000	-1.000000	-1.000000	-1.000000	-1.000000	56.000000	0.000000	-1.000000	-1.000000	614880.000000	1775777954.130482
1391.805000	-2816.595000	-2330.775000	21019.320000	13258.395000	1089.405000	-22676.670000	-18210.870000	-2.193640	-0.796194	1.313483	0.476473	0.527137	0.410696	-2.080387	-2.907526	-1.327620	2.884140	-2.731540	-0.719175	-0.088745	0.677916	-1.000000	-1.000000	-1.000000	-1.000000	-1.000000	-1.000000	-1.000000	56.000000	0.000000	-1.000000	-1.000000	614881.000000	1775777954.130505
1387.125000	-2821.815000	-2333.970000	21018.690000	13258.980000	1097.640000	-22672.305000	-18212.310000	0.292228	2.373030	4.196939	3.003988	6.515153	5.915483	-1.876274	-1.806403	-1.327620	2.884140	-2.731540	-0.719175	-0.088745	0.677916	-1.000000	-1.000000	-1.000000	-1.000000	-1.000000	-1.000000	-1.000000	56.000000	0.000000	-1.000000	-1.000000	614882.000000	1775777954.133077
1385.595000	-2825.370000	-2338.065000	21016.485000	13253.670000	1095.300000	-22670.100000	-18212.805000	3.262680	5.417150	6.537473	5.642940	9.975834	6.762972	-1.008128	0.627025	-1.327620	2.884140	-2.731540	-0.719175	-0.088745	0.677916	-1.000000	-1.000000	-1.000000	-1.000000	-1.000000	-1.000000	-1.000000	56.000000	0.000000	-1.000000	-1.000000	614883.000000	1775777954.133094
1390.545000	-2818.530000	-2331.720000	21021.660000	13249.755000	1089.630000	-22670.280000	-18210.870000	3.947949	5.388357	5.813665	5.859953	8.524437	4.823468	0.363172	2.026841	-1.327620	2.884140	-2.731540	-0.719175	-0.088745	0.677916	-1.000000	-1.000000	-1.000000	-1.000000	-1.000000	-1.000000	-1.000000	56.000000	0.000000	-1.000000	-1.000000	614884.000000	1775777954.138949
1384.380000	-2822.805000	-2335.185000	21015.270000	13253.625000	1084.635000	-22673.565000	-18217.575000	2.053674	2.365917	2.180885	3.122744	3.017737	1.771840	1.426108	1.421461	-1.327620	2.884140	-2.731540	-0.719175	-0.088745	0.677916	-1.000000	-1.000000	-1.000000	-1.000000	-1.000000	-1.000000	-1.000000	56.000000	0.000000	-1.000000	-1.000000	614885.000000	1775777954.138971
1388.880000	-2816.820000	-2330.415000	21017.655000	13256.280000	1084.185000	-22670.640000	-18215.820000	-0.934268	-1.469524	-2.134638	-1.107792	-2.981970	-1.129079	1.462661	-0.610696	-1.327620	2.884140	-2.731540	-0.719175	-0.088745	0.677916	-1.000000	-1.000000	-1.000000	-1.000000	-1.000000	-1.000000	-1.000000	56.000000	0.000000	-1.000000	-1.000000	614886.000000	1775777954.141809
1388.565000	-2817.585000	-2330.910000	21017.430000	13249.755000	1076.445000	-22677.480000	-18217.890000	-3.255800	-4.063915	-5.006925	-4.726847	-6.323014	-2.763060	0.569868	-2.657758	-1.327620	2.884140	-2.731540	-0.719175	-0.088745	0.677916	-1.000000	-1.000000	-1.000000	-1.000000	-1.000000	-1.000000	-1.000000	56.000000	0.000000	-1.000000	-1.000000	614887.000000	1775777954.141826
1392.795000	-2818.710000	-2334.330000	21014.370000	13255.470000	1100.205000	-22659.885000	-18211.770000	-3.748581	-4.605239	-5.616117	-6.165669	-6.371770	-2.310562	-0.374475	-3.295549	-1.327620	2.884140	-2.731540	-0.719175	-0.088745	0.677916	-1.000000	-1.000000	-1.000000	-1.000000	-1.000000	-1.000000	-1.000000	56.000000	0.000000	-1.000000	-1.000000	614888.000000	1775777954.146431
1395.585000	-2816.190000	-2330.280000	21019.635000	13259.340000	1114.065000	-22662.540000	-18210.645000	-2.400252	-3.574464	-4.463120	-5.172695	-4.044863	0.849045	-0.243777	-1.992689	-1.327620	2.884140	-2.731540	-0.719175	-0.088745	0.677916	-1.000000	-1.000000	-1.000000	-1.000000	-1.000000	-1.000000	-1.000000	56.000000	0.000000	-1.000000	-1.000000	614889.000000	1775777954.146454
1386.405000	-2824.560000	-2333.430000	21018.195000	13259.925000	1090.755000	-22678.290000	-18215.910000	-0.361125	-1.983482	-2.426880	-2.496159	-0.614971	5.244137	0.609650	0.363174	-0.518840	3.479280	-1.876980	-0.720274	-0.089966	0.677427	-1.000000	-1.000000	-1.000000	-1.000000	-1.000000	-1.000000	-1.000000	56.000000	0.000000	-1.000000	-1.000000	614890.000000	1775777954.154990
1383.660000	-2826.540000	-2336.445000	21015.270000	13255.155000	1084.680000	-22678.560000	-18220.905000	0.712568	-0.806427	-0.368608	0.529828	2.240707	6.525633	0.265641	1.944975	-0.518840	3.479280	-1.876980	-0.720274	-0.089966	0.677427	-1.000000	-1.000000	-1.000000	-1.000000	-1.000000	-1.000000	-1.000000	56.000000	0.000000	-1.000000	-1.000000	614891.000000	1775777954.155014
1390.995000	-2820.510000	-2332.665000	21013.560000	13240.395000	1071.630000	-22670.145000	-18214.605000	0.357428	-0.234001	1.038495	2.444338	2.831794	2.232942	-1.464401	1.807074	-0.518840	3.479280	-1.876980	-0.720274	-0.089966	0.677427	-1.000000	-1.000000	-1.000000	-1.000000	-1.000000	-1.000000	-1.000000	56.000000	0.000000	-1.000000	-1.000000	614892.000000	1775777954.155035
1384.740000	-2824.290000	-2338.515000	21007.035000	13226.895000	1037.430000	-22693.140000	-18224.190000	-0.237228	0.460641	1.710132	2.572466	0.533396	-5.421042	-2.769770	0.691668	-0.518840	3.479280	-1.876980	-0.720274	-0.089966	0.677427	-1.000000	-1.000000	-1.000000	-1.000000	-1.000000	-1.000000	-1.000000	56.000000	0.000000	-1.000000	-1.000000	614893.000000	1775777954.155047
1385.460000	-2818.755000	-2330.325000	21016.125000	13245.345000	1052.955000	-22691.475000	-18225.900000	-0.180599	1.627985	1.920752	1.502109	-2.851844	-11.902630	-3.007493	-0.452638	-0.518840	3.479280	-1.876980	-0.720274	-0.089966	0.677427	-1.000000	-1.000000	-1.000000	-1.000000	-1.000000	-1.000000	-1.000000	56.000000	0.000000	-1.000000	-1.000000	614894.000000	1775777954.157878
1386.360000	-2816.370000	-2322.180000	21029.535000	13268.745000	1093.455000	-22672.170000	-18224.280000	0.342952	2.847186	2.196859	0.905537	-3.262359	-11.703716	-2.056318	-1.166978	-0.518840	3.479280	-1.876980	-0.720274	-0.089966	0.677427	-1.000000	-1.000000	-1.000000	-1.000000	-1.000000	-1.000000	-1.000000	56.000000	0.000000	-1.000000	-1.000000	614895.000000	1775777954.157898
1380.870000	-2830.095000	-2339.370000	21018.780000	13253.535000	1113.390000	-22665.780000	-18225.405000	0.886856	3.267514	2.565288	1.758325	1.124868	-1.686880	1.106321	-0.998924	-0.518840	3.479280	-1.876980	-0.720274	-0.089966	0.677427	-1.000000	-1.000000	-1.000000	-1.000000	-1.000000	-1.000000	-1.000000	56.000000	0.000000	-1.000000	-1.000000	614896.000000	1775777954.162884
1386.585000	-2820.870000	-2330.550000	21023.460000	13248.855000	1075.725000	-22679.010000	-18222.480000	1.120152	2.110636	1.951288	2.700456	6.329191	12.557006	5.497848	0.120220	-0.518840	3.479280	-1.876980	-0.720274	-0.089966	0.677427	-1.000000	-1.000000	-1.000000	-1.000000	-1.000000	-1.000000	-1.000000	56.000000	0.000000	-1.000000	-1.000000	614897.000000	1775777954.162900
1377.450000	-2826.945000	-2335.095000	21019.275000	13260.735000	1075.860000	-22682.430000	-18230.895000	0.969494	-0.057806	0.082669	1.974028	7.364668	19.303508	7.360239	1.443067	-0.518840	3.479280	-1.876980	-0.720274	-0.089966	0.677427	-1.000000	-1.000000	-1.000000	-1.000000	-1.000000	-1.000000	-1.000000	56.000000	0.000000	-1.000000	-1.000000	614898.000000	1775777954.171052
1370.925000	-2832.120000	-2339.550000	21019.455000	13269.780000	1108.080000	-22673.205000	-18233.820000	0.308819	-1.900459	-1.883844	-0.319452	4.323201	13.775787	4.809974	1.836623	-0.518840	3.479280	-1.876980	-0.720274	-0.089966	0.677427	-1.000000	-1.000000	-1.000000	-1.000000	-1.000000	-1.000000	-1.000000	56.000000	0.000000	-1.000000	-1.000000	614899.000000	1775777954.171075
1372.005000	-2832.615000	-2341.530000	21015.495000	13256.190000	1105.335000	-22672.530000	-18231.120000	-0.863247	-2.834956	-3.055371	-2.834679	0.248435	2.707335	0.219617	0.974509	0.503580	2.273740	-1.190280	-0.720640	-0.092651	0.677000	-1.000000	-1.000000	-1.000000	-1.000000	-1.000000	-1.000000	-1.000000	56.000000	0.000000	-1.000000	-1.000000	614900.000000	1775777954.177249
1381.680000	-2823.255000	-2334.960000	21017.835000	13258.710000	1097.505000	-22669.065000	-18222.840000	-1.508063	-2.520558	-2.976454	-4.234618	-3.329461	-6.045683	-3.084519	0.006416	0.503580	2.273740	-1.190280	-0.720640	-0.092651	0.677000	-1.000000	-1.000000	-1.000000	-1.000000	-1.000000	-1.000000	-1.000000	56.000000	0.000000	-1.000000	-1.000000	614901.000000	1775777954.177270
1383.030000	-2820.735000	-2332.845000	21019.680000	13259.070000	1096.110000	-22669.830000	-18223.470000	-0.391641	-0.589200	-1.323832	-3.771189	-5.885915	-10.588948	-3.953141	0.184707	0.503580	2.273740	-1.190280	-0.720640	-0.092651	0.677000	-1.000000	-1.000000	-1.000000	-1.000000	-1.000000	-1.000000	-1.000000	56.000000	0.000000	-1.000000	-1.000000	614902.000000	1775777954.177294
1379.790000	-2824.155000	-2335.455000	21016.485000	13251.780000	1086.570000	-22674.420000	-18226.575000	1.920664	2.130956	1.258544	-1.701582	-6.621856	-11.942646	-3.262023	1.120263	0.503580	2.273740	-1.190280	-0.720640	-0.092651	0.677000	-1.000000	-1.000000	-1.000000	-1.000000	-1.000000	-1.000000	-1.000000	56.000000	0.000000	-1.000000	-1.000000	614903.000000	1775777954.177306
1381.095000	-2823.795000	-2336.715000	21014.505000	13243.050000	1071.810000	-22675.230000	-18225.450000	3.369834	3.692787	3.110858	0.688611	-5.582544	-11.104210	-2.402813	1.368217	0.503580	2.273740	-1.190280	-0.720640	-0.092651	0.677000	-1.000000	-1.000000	-1.000000	-1.000000	-1.000000	-1.000000	-1.000000	56.000000	0.000000	-1.000000	-1.000000	614904.000000	1775777954.183137
1381.050000	-2822.580000	-2334.780000	21017.430000	13248.585000	1066.050000	-22677.930000	-18225.945000	2.749984	3.022065	3.110369	2.162165	-3.538419	-8.801744	-1.968196	0.366812	0.503580	2.273740	-1.190280	-0.720640	-0.092651	0.677000	-1.000000	-1.000000	-1.000000	-1.000000	-1.000000	-1.000000	-1.000000	56.000000	0.000000	-1.000000	-1.000000	614905.000000	1775777954.183157
1379.745000	-2824.515000	-2337.705000	21013.425000	13264.470000	1103.220000	-22670.460000	-18225.585000	0.618970	0.819531	1.610800	2.464739	-0.430149	-4.423369	-1.485399	-1.160625	0.503580	2.273740	-1.190280	-0.720640	-0.092651	0.677000	-1.000000	-1.000000	-1.000000	-1.000000	-1.000000	-1.000000	-1.000000	56.000000	0.000000	-1.000000	-1.000000	614906.000000	1775777954.183182
1376.415000	-2826.945000	-2339.820000	21012.255000	13264.065000	1107.495000	-22672.260000	-18228.240000	-1.771259	-1.565114	-0.361306	1.882871	3.930275	3.348491	-0.263693	-2.274646	0.503580	2.273740	-1.190280	-0.720640	-0.092651	0.677000	-1.000000	-1.000000	-1.000000	-1.000000	-1.000000	-1.000000	-1.000000	56.000000	0.000000	-1.000000	-1.000000	614907.000000	1775777954.183194
1380.105000	-2822.805000	-2335.545000	21016.350000	13261.860000	1095.345000	-22673.205000	-18224.460000	-3.345149	-3.063492	-1.859947	0.891196	7.769838	12.144937	1.457114	-2.486958	0.503580	2.273740	-1.190280	-0.720640	-0.092651	0.677000	-1.000000	-1.000000	-1.000000	-1.000000	-1.000000	-1.000000	-1.000000	56.000000	0.000000	-1.000000	-1.000000	614908.000000	1775777954.194095
1380.465000	-2820.645000	-2332.980000	21020.985000	13259.880000	1087.920000	-22671.945000	-18223.965000	-3.394531	-3.000479	-2.112636	0.275090	8.318939	15.778435	2.617073	-1.703963	0.503580	2.273740	-1.190280	-0.720640	-0.092651	0.677000	-1.000000	-1.000000	-1.000000	-1.000000	-1.000000	-1.000000	-1.000000	56.000000	0.000000	-1.000000	-1.000000	614909.000000	1775777954.194119
1377.450000	-2823.210000	-2336.715000	21012.210000	13237.830000	1064.160000	-22677.480000	-18227.700000	-2.026526	-1.523987	-1.104300	0.317830	4.510235	10.697565	2.513779	-0.342381	0.305200	2.258480	-1.999060	-0.719786	-0.095276	0.677305	-1.000000	-1.000000	-1.000000	-1.000000	-1.000000	-1.000000	-1.000000	56.000000	0.000000	-1.000000	-1.000000	614910.000000	1775777954.194144
1380.420000	-2820.780000	-2333.070000	21017.250000	13238.820000	1050.165000	-22681.215000	-18227.745000	-0.205979	0.282847	0.207357	0.312295	-2.163856	-0.570017	1.173069	0.716982	0.305200	2.258480	-1.999060	-0.719786	-0.095276	0.677305	-1.000000	-1.000000	-1.000000	-1.000000	-1.000000	-1.000000	-1.000000	56.000000	0.000000	-1.000000	-1.000000	614911.000000	1775777954.194156
1382.175000	-2818.080000	-2326.365000	21030.435000	13258.395000	1070.055000	-22672.890000	-18225.630000	1.231405	1.462120	1.086731	0.072682	-7.640849	-11.107913	-0.584641	1.013643	0.305200	2.258480	-1.999060	-0.719786	-0.095276	0.677305	-1.000000	-1.000000	-1.000000	-1.000000	-1.000000	-1.000000	-1.000000	56.000000	0.000000	-1.000000	-1.000000	614912.000000	1775777954.210767
1378.035000	-2824.155000	-2333.430000	21019.635000	13251.780000	1075.320000	-22674.690000	-18228.420000	1.950436	1.719404	1.447682	0.204630	-7.773572	-13.759438	-1.381796	0.842120	0.305200	2.258480	-1.999060	-0.719786	-0.095276	0.677305	-1.000000	-1.000000	-1.000000	-1.000000	-1.000000	-1.000000	-1.000000	56.000000	0.000000	-1.000000	-1.000000	614913.000000	1775777954.210790
1382.985000	-2818.080000	-2330.370000	21016.080000	13254.435000	1095.345000	-22669.515000	-18223.380000	1.817565	1.109590	1.073763	0.208292	-2.876346	-6.703743	-0.655715	0.623876	0.305200	2.258480	-1.999060	-0.719786	-0.095276	0.677305	-1.000000	-1.000000	-1.000000	-1.000000	-1.000000	-1.000000	-1.000000	56.000000	0.000000	-1.000000	-1.000000	614914.000000	1775777954.210816
1381.005000	-2816.505000	-2327.940000	21018.780000	13260.420000	1101.105000	-22670.280000	-18226.800000	1.095070	0.211160	0.019754	-0.834633	2.934888	5.106744	0.798237	0.556301	0.305200	2.258480	-1.999060	-0.719786	-0.095276	0.677305	-1.000000	-1.000000	-1.000000	-1.000000	-1.000000	-1.000000	-1.000000	56.000000	0.000000	-1.000000	-1.000000	614915.000000	1775777954.210827
1388.925000	-2806.470000	-2315.880000	21031.560000	13257.225000	1065.780000	-22679.640000	-18224.190000	0.391812	-0.064899	-0.736946	-2.005431	6.234285	13.414527	1.585231	0.546823	0.305200	2.258480	-1.999060	-0.719786	-0.095276	0.677305	-1.000000	-1.000000	-1.000000	-1.000000	-1.000000	-1.000000	-1.000000	56.000000	0.000000	-1.000000	-1.000000	614916.000000	1775777954.210841
1392.210000	-2803.140000	-2311.560000	21038.805000	13264.110000	1057.410000	-22682.520000	-18223.110000	0.223097	0.626449	-0.246653	-1.460279	6.013622	11.816725	0.668097	0.428480	0.305200	2.258480	-1.999060	-0.719786	-0.095276	0.677305	-1.000000	-1.000000	-1.000000	-1.000000	-1.000000	-1.000000	-1.000000	56.000000	0.000000	-1.000000	-1.000000	614917.000000	1775777954.210852
1385.460000	-2811.600000	-2320.920000	21029.220000	13265.415000	1079.370000	-22674.285000	-18227.250000	0.418271	1.414529	0.888949	0.690796	3.281856	1.883753	-1.332146	0.153410	0.305200	2.258480	-1.999060	-0.719786	-0.095276	0.677305	-1.000000	-1.000000	-1.000000	-1.000000	-1.000000	-1.000000	-1.000000	56.000000	0.000000	-1.000000	-1.000000	614918.000000	1775777954.210900
1380.150000	-2821.545000	-2336.130000	21015.630000	13250.295000	1086.930000	-22671.855000	-18229.005000	-0.037000	0.640623	0.569089	1.830967	-0.365836	-7.376608	-2.328352	-0.399611	0.305200	2.258480	-1.999060	-0.719786	-0.095276	0.677305	-1.000000	-1.000000	-1.000000	-1.000000	-1.000000	-1.000000	-1.000000	56.000000	0.000000	-1.000000	-1.000000	614919.000000	1775777954.210912
1387.620000	-2811.420000	-2325.735000	21025.485000	13241.925000	1052.460000	-22680.990000	-18225.495000	-1.481945	-1.951028	-2.039121	0.190131	-4.177725	-9.791190	-1.397658	-1.090867	-1.037680	2.456860	-1.724380	-0.718626	-0.094238	0.675657	-1.000000	-1.000000	-1.000000	-1.000000	-1.000000	-1.000000	-1.000000	56.000000	0.000000	-1.000000	-1.000000	614920.000000	1775777954.210926
1383.480000	-2814.165000	-2326.770000	21019.320000	13245.075000	1085.040000	-22679.865000	-18228.015000	-2.678482	-4.165815	-4.606562	-2.560726	-7.219837	-6.965054	0.115455	-1.331130	-1.037680	2.456860	-1.724380	-0.718626	-0.094238	0.675657	-1.000000	-1.000000	-1.000000	-1.000000	-1.000000	-1.000000	-1.000000	56.000000	0.000000	-1.000000	-1.000000	614921.000000	1775777954.210937
1382.445000	-2815.290000	-2329.830000	21009.870000	13243.995000	1118.160000	-22668.930000	-18223.470000	-2.552493	-4.003991	-4.479424	-3.920254	-7.584858	-1.432185	1.015073	-0.795552	-1.037680	2.456860	-1.724380	-0.718626	-0.094238	0.675657	-1.000000	-1.000000	-1.000000	-1.000000	-1.000000	-1.000000	-1.000000	56.000000	0.000000	-1.000000	-1.000000	614922.000000	1775777954.217045
1379.475000	-2819.115000	-2332.980000	21015.585000	13252.230000	1088.865000	-22678.065000	-18232.605000	-1.424480	-1.884560	-1.862873	-3.319868	-4.261377	5.485147	1.504927	0.109761	-1.037680	2.456860	-1.724380	-0.718626	-0.094238	0.675657	-1.000000	-1.000000	-1.000000	-1.000000	-1.000000	-1.000000	-1.000000	56.000000	0.000000	-1.000000	-1.000000	614923.000000	1775777954.217060
1377.315000	-2822.400000	-2334.690000	21022.560000	13279.455000	1109.070000	-22669.965000	-18235.080000	-0.155178	0.472466	1.205044	-1.015611	1.922286	9.645673	1.676485	0.502157	-1.037680	2.456860	-1.724380	-0.718626	-0.094238	0.675657	-1.000000	-1.000000	-1.000000	-1.000000	-1.000000	-1.000000	-1.000000	56.000000	0.000000	-1.000000	-1.000000	614924.000000	1775777954.219542
1377.585000	-2820.735000	-2333.745000	21024.225000	13279.770000	1105.245000	-22667.580000	-18234.315000	0.763859	1.910554	3.206671	2.517242	8.804357	7.814343	1.390345	0.028734	-1.037680	2.456860	-1.724380	-0.718626	-0.094238	0.675657	-1.000000	-1.000000	-1.000000	-1.000000	-1.000000	-1.000000	-1.000000	56.000000	0.000000	-1.000000	-1.000000	614925.000000	1775777954.219564
1380.825000	-2815.065000	-2328.660000	21024.270000	13262.490000	1093.590000	-22670.280000	-18234.000000	1.408472	2.529060	3.938988	5.686447	12.447062	1.510766	0.840480	-0.536105	-1.037680	2.456860	-1.724380	-0.718626	-0.094238	0.675657	-1.000000	-1.000000	-1.000000	-1.000000	-1.000000	-1.000000	-1.000000	56.000000	0.000000	-1.000000	-1.000000	614926.000000	1775777954.224132
1375.380000	-2817.675000	-2328.435000	21021.885000	13259.160000	1077.705000	-22678.695000	-18242.595000	1.935750	2.914825	3.905731	6.508162	9.165651	-6.148235	-0.159865	-0.482970	-1.037680	2.456860	-1.724380	-0.718626	-0.094238	0.675657	-1.000000	-1.000000	-1.000000	-1.000000	-1.000000	-1.000000	-1.000000	56.000000	0.000000	-1.000000	-1.000000	614927.000000	1775777954.224155
1378.440000	-2814.840000	-2322.270000	21030.480000	13277.295000	1106.955000	-22671.855000	-18240.030000	2.086061	3.016063	3.422061	4.498726	0.465641	-11.647979	-1.733521	-0.063612	-1.037680	2.456860	-1.724380	-0.718626	-0.094238	0.675657	-1.000000	-1.000000	-1.000000	-1.000000	-1.000000	-1.000000	-1.000000	56.000000	0.000000	-1.000000	-1.000000	614928.000000	1775777954.237038
1376.280000	-2821.680000	-2331.045000	21024.675000	13270.410000	1108.260000	-22674.330000	-18240.570000	1.642051	2.292757	2.334421	1.041187	-7.452475	-11.101499	-2.920158	0.401489	-1.037680	2.456860	-1.724380	-0.718626	-0.094238	0.675657	-1.000000	-1.000000	-1.000000	-1.000000	-1.000000	-1.000000	-1.000000	56.000000	0.000000	-1.000000	-1.000000	614929.000000	1775777954.237061
1382.715000	-2815.155000	-2325.015000	21031.335000	13268.565000	1099.125000	-22674.645000	-18235.755000	0.910400	0.655650	0.414445	-2.124791	-10.326536	-4.433180	-2.719317	1.063843	-1.419180	1.922760	0.106820	-0.721251	-0.092285	0.674803	-1.000000	-1.000000	-1.000000	-1.000000	-1.000000	-1.000000	-1.000000	56.000000	0.000000	-1.000000	-1.000000	614930.000000	1775777954.237089
1384.920000	-2813.130000	-2323.665000	21029.490000	13272.660000	1099.755000	-22673.970000	-18234.090000	0.443124	-1.033360	-1.775921	-3.935566	-8.554064	3.260338	-1.321880	1.963076	-1.419180	1.922760	0.106820	-0.721251	-0.092285	0.674803	-1.000000	-1.000000	-1.000000	-1.000000	-1.000000	-1.000000	-1.000000	56.000000	0.000000	-1.000000	-1.000000	614931.000000	1775777954.237100
1385.280000	-2815.830000	-2327.715000	21026.880000	13268.070000	1093.050000	-22664.745000	-18230.220000	0.392964	-1.814020	-3.174771	-4.198814	-4.437074	7.093138	0.580127	2.690461	-1.419180	1.922760	0.106820	-0.721251	-0.092285	0.674803	-1.000000	-1.000000	-1.000000	-1.000000	-1.000000	-1.000000	-1.000000	56.000000	0.000000	-1.000000	-1.000000	614932.000000	1775777954.237114
1382.220000	-2820.465000	-2332.755000	21023.595000	13264.965000	1095.075000	-22661.190000	-18229.815000	0.220558	-1.845679	-3.570344	-3.552234	-0.274532	6.261021	2.544853	2.666204	-1.419180	1.922760	0.106820	-0.721251	-0.092285	0.674803	-1.000000	-1.000000	-1.000000	-1.000000	-1.000000	-1.000000	-1.000000	56.000000	0.000000	-1.000000	-1.000000	614933.000000	1775777954.237125
1386.270000	-2816.190000	-2331.630000	21016.845000	13253.985000	1077.930000	-22668.255000	-18229.680000	-0.548575	-1.778166	-3.376989	-2.762760	2.158589	2.729300	3.785864	1.569361	-1.419180	1.922760	0.106820	-0.721251	-0.092285	0.674803	-1.000000	-1.000000	-1.000000	-1.000000	-1.000000	-1.000000	-1.000000	56.000000	0.000000	-1.000000	-1.000000	614934.000000	1775777954.237648
1379.070000	-2820.465000	-2334.645000	21011.445000	13248.945000	1058.940000	-22686.660000	-18240.885000	-1.661539	-1.611211	-2.630948	-2.164072	2.297532	-1.551985	2.810450	-0.576041	-1.419180	1.922760	0.106820	-0.721251	-0.092285	0.674803	-1.000000	-1.000000	-1.000000	-1.000000	-1.000000	-1.000000	-1.000000	56.000000	0.000000	-1.000000	-1.000000	614935.000000	1775777954.237662
1373.850000	-2824.245000	-2334.690000	21018.060000	13263.570000	1076.985000	-22686.345000	-18246.870000	-2.705931	-1.185581	-1.237772	-1.413113	1.393103	-4.844039	-0.892271	-3.434306	-1.419180	1.922760	0.106820	-0.721251	-0.092285	0.674803	-1.000000	-1.000000	-1.000000	-1.000000	-1.000000	-1.000000	-1.000000	56.000000	0.000000	-1.000000	-1.000000	614936.000000	1775777954.243736
1370.070000	-2828.205000	-2338.335000	21011.220000	13254.390000	1076.310000	-22687.065000	-18248.805000	-3.438045	-0.759433	0.462661	0.144795	1.511654	-4.638562	-5.045791	-5.928025	-1.419180	1.922760	0.106820	-0.721251	-0.092285	0.674803	-1.000000	-1.000000	-1.000000	-1.000000	-1.000000	-1.000000	-1.000000	56.000000	0.000000	-1.000000	-1.000000	614937.000000	1775777954.243759
1373.490000	-2824.650000	-2334.825000	21017.295000	13258.935000	1075.500000	-22685.040000	-18246.420000	-3.293238	-0.395546	1.918740	2.353597	2.934208	-0.272711	-6.287116	-6.344602	-1.419180	1.922760	0.106820	-0.721251	-0.092285	0.674803	-1.000000	-1.000000	-1.000000	-1.000000	-1.000000	-1.000000	-1.000000	56.000000	0.000000	-1.000000	-1.000000	614938.000000	1775777954.256652
1377.810000	-2821.410000	-2332.800000	21023.685000	13265.010000	1068.165000	-22681.890000	-18242.820000	-1.573176	0.379504	2.887463	4.406763	4.257066	5.071494	-3.474900	-3.723126	-1.419180	1.922760	0.106820	-0.721251	-0.092285	0.674803	-1.000000	-1.000000	-1.000000	-1.000000	-1.000000	-1.000000	-1.000000	56.000000	0.000000	-1.000000	-1.000000	614939.000000	1775777954.256675
1381.950000	-2819.430000	-2333.970000	21020.805000	13262.130000	1085.670000	-22673.250000	-18237.195000	1.574938	1.799567	3.315962	5.582895	4.471266	7.815322	1.755793	1.081686	-0.534100	1.602300	0.732480	-0.722532	-0.091980	0.675291	-1.000000	-1.000000	-1.000000	-1.000000	-1.000000	-1.000000	-1.000000	56.000000	0.000000	-1.000000	-1.000000	614940.000000	1775777954.256709
1377.360000	-2822.895000	-2340.315000	21007.530000	13234.410000	1088.370000	-22673.655000	-18241.605000	4.653765	3.126158	2.841930	4.851270	2.689215	7.448002	6.593659	5.715125	-0.534100	1.602300	0.732480	-0.722532	-0.091980	0.675291	-1.000000	-1.000000	-1.000000	-1.000000	-1.000000	-1.000000	-1.000000	56.000000	0.000000	-1.000000	-1.000000	614941.000000	1775777954.256721
1378.215000	-2819.115000	-2333.025000	21018.645000	13247.685000	1078.020000	-22674.105000	-18242.190000	5.711299	3.268322	1.306218	1.759319	-1.449306	4.996894	8.496944	7.643916	-0.534100	1.602300	0.732480	-0.722532	-0.091980	0.675291	-1.000000	-1.000000	-1.000000	-1.000000	-1.000000	-1.000000	-1.000000	56.000000	0.000000	-1.000000	-1.000000	614942.000000	1775777954.256736
1373.310000	-2824.155000	-2336.220000	21017.565000	13252.950000	1070.280000	-22678.020000	-18248.085000	4.010616	1.952699	-0.479159	-1.933919	-5.414930	0.692866	6.395484	5.853956	-0.534100	1.602300	0.732480	-0.722532	-0.091980	0.675291	-1.000000	-1.000000	-1.000000	-1.000000	-1.000000	-1.000000	-1.000000	56.000000	0.000000	-1.000000	-1.000000	614943.000000	1775777954.256746
1378.485000	-2814.030000	-2325.015000	21029.760000	13257.450000	1066.095000	-22677.930000	-18245.295000	0.665413	-0.032926	-1.383656	-3.663633	-5.640538	-4.783128	1.406572	1.591264	-0.534100	1.602300	0.732480	-0.722532	-0.091980	0.675291	-1.000000	-1.000000	-1.000000	-1.000000	-1.000000	-1.000000	-1.000000	56.000000	0.000000	-1.000000	-1.000000	614944.000000	1775777954.259570
1370.430000	-2819.340000	-2329.605000	21025.350000	13258.890000	1089.855000	-22678.335000	-18250.605000	-2.400954	-1.514594	-1.044550	-2.718444	-1.949289	-8.621108	-3.814773	-2.648508	-0.534100	1.602300	0.732480	-0.722532	-0.091980	0.675291	-1.000000	-1.000000	-1.000000	-1.000000	-1.000000	-1.000000	-1.000000	56.000000	0.000000	-1.000000	-1.000000	614945.000000	1775777954.259590
1368.180000	-2825.640000	-2339.100000	21012.210000	13260.690000	1107.135000	-22676.985000	-18250.425000	-4.050313	-2.165453	-0.412553	-0.910224	2.598019	-7.405549	-6.764157	-4.939808	-0.534100	1.602300	0.732480	-0.722532	-0.091980	0.675291	-1.000000	-1.000000	-1.000000	-1.000000	-1.000000	-1.000000	-1.000000	56.000000	0.000000	-1.000000	-1.000000	614946.000000	1775777954.267586
1371.555000	-2822.130000	-2335.995000	21013.920000	13257.945000	1097.235000	-22678.245000	-18248.220000	-4.115698	-2.512387	-0.811133	-0.624609	4.924700	-1.313665	-6.520643	-4.741971	-0.534100	1.602300	0.732480	-0.722532	-0.091980	0.675291	-1.000000	-1.000000	-1.000000	-1.000000	-1.000000	-1.000000	-1.000000	56.000000	0.000000	-1.000000	-1.000000	614947.000000	1775777954.267612
1374.660000	-2818.620000	-2336.400000	21017.250000	13261.905000	1089.945000	-22678.605000	-18245.970000	-2.594744	-2.441647	-1.974499	-1.842973	4.012260	4.506948	-3.945968	-2.535258	-0.534100	1.602300	0.732480	-0.722532	-0.091980	0.675291	-1.000000	-1.000000	-1.000000	-1.000000	-1.000000	-1.000000	-1.000000	56.000000	0.000000	-1.000000	-1.000000	614948.000000	1775777954.267640
1379.655000	-2814.480000	-2331.405000	21023.460000	13263.255000	1077.975000	-22677.030000	-18240.030000	0.157207	-1.288130	-2.361997	-2.359921	1.093155	4.975263	-0.692751	0.583035	-0.534100	1.602300	0.732480	-0.722532	-0.091980	0.675291	-1.000000	-1.000000	-1.000000	-1.000000	-1.000000	-1.000000	-1.000000	56.000000	0.000000	-1.000000	-1.000000	614949.000000	1775777954.267651
1380.240000	-2813.805000	-2326.590000	21027.105000	13258.080000	1055.655000	-22682.115000	-18241.470000	2.987404	0.756116	-1.092485	-0.786254	-1.876510	-0.240255	1.826238	3.230586	-0.869820	1.632820	0.854560	-0.720579	-0.091736	0.675291	-1.000000	-1.000000	-1.000000	-1.000000	-1.000000	-1.000000	-1.000000	56.000000	0.000000	-1.000000	-1.000000	614950.000000	1775777954.281327
1377.315000	-2822.175000	-2337.975000	21018.870000	13258.710000	1074.015000	-22677.345000	-18244.395000	4.375554	2.344433	1.053488	1.850570	-3.783057	-6.959872	2.902389	4.111417	-0.869820	1.632820	0.854560	-0.720579	-0.091736	0.675291	-1.000000	-1.000000	-1.000000	-1.000000	-1.000000	-1.000000	-1.000000	56.000000	0.000000	-1.000000	-1.000000	614951.000000	1775777954.281357
1376.730000	-2820.780000	-2336.400000	21016.980000	13256.010000	1083.195000	-22679.640000	-18248.355000	3.431095	2.153845	2.204592	3.204035	-4.314197	-9.228340	2.728102	2.644548	-0.869820	1.632820	0.854560	-0.720579	-0.091736	0.675291	-1.000000	-1.000000	-1.000000	-1.000000	-1.000000	-1.000000	-1.000000	56.000000	0.000000	-1.000000	-1.000000	614952.000000	1775777954.281386
1377.495000	-2815.650000	-2328.930000	21024.585000	13248.315000	1046.070000	-22692.105000	-18253.170000	0.742553	0.517412	1.673988	2.312094	-3.635049	-4.984786	1.704848	-0.449130	-0.869820	1.632820	0.854560	-0.720579	-0.091736	0.675291	-1.000000	-1.000000	-1.000000	-1.000000	-1.000000	-1.000000	-1.000000	56.000000	0.000000	-1.000000	-1.000000	614953.000000	1775777954.281398
1377.630000	-2814.165000	-2322.540000	21031.425000	13257.090000	1069.605000	-22685.265000	-18251.280000	-2.008428	-0.833356	0.833565	0.671629	-2.172099	1.588720	0.037747	-3.427288	-0.869820	1.632820	0.854560	-0.720579	-0.091736	0.675291	-1.000000	-1.000000	-1.000000	-1.000000	-1.000000	-1.000000	-1.000000	56.000000	0.000000	-1.000000	-1.000000	614954.000000	1775777954.281414
1376.280000	-2816.820000	-2326.230000	21026.250000	13267.260000	1106.910000	-22672.620000	-18248.850000	-3.430921	-0.926575	0.825231	-0.066431	0.154707	7.101012	-1.107907	-4.487968	-0.869820	1.632820	0.854560	-0.720579	-0.091736	0.675291	-1.000000	-1.000000	-1.000000	-1.000000	-1.000000	-1.000000	-1.000000	56.000000	0.000000	-1.000000	-1.000000	614955.000000	1775777954.281425
1379.295000	-2814.435000	-2325.375000	21026.655000	13270.680000	1102.095000	-22671.855000	-18246.015000	-3.187848	-0.311010	1.028649	-0.138892	3.371390	11.858297	-0.239800	-2.938238	-0.869820	1.632820	0.854560	-0.720579	-0.091736	0.675291	-1.000000	-1.000000	-1.000000	-1.000000	-1.000000	-1.000000	-1.000000	56.000000	0.000000	-1.000000	-1.000000	614956.000000	1775777954.282667
1382.445000	-2810.385000	-2317.005000	21037.005000	13270.905000	1091.205000	-22672.755000	-18243.540000	-1.663044	0.270456	0.593261	-0.332638	6.072438	13.955457	1.970102	0.262622	-0.869820	1.632820	0.854560	-0.720579	-0.091736	0.675291	-1.000000	-1.000000	-1.000000	-1.000000	-1.000000	-1.000000	-1.000000	56.000000	0.000000	-1.000000	-1.000000	614957.000000	1775777954.282681
1373.580000	-2823.120000	-2332.485000	21021.615000	13252.590000	1092.330000	-22674.105000	-18249.615000	0.231210	0.430266	-0.446466	-0.696144	5.937490	9.706944	3.129728	3.111155	-0.869820	1.632820	0.854560	-0.720579	-0.091736	0.675291	-1.000000	-1.000000	-1.000000	-1.000000	-1.000000	-1.000000	-1.000000	56.000000	0.000000	-1.000000	-1.000000	614958.000000	1775777954.287404
1376.370000	-2819.700000	-2330.865000	21019.230000	13247.010000	1080.045000	-22673.295000	-18247.860000	1.278284	-0.218450	-1.989436	-1.491316	1.856631	-0.240189	1.939494	3.889474	-0.869820	1.632820	0.854560	-0.720579	-0.091736	0.675291	-1.000000	-1.000000	-1.000000	-1.000000	-1.000000	-1.000000	-1.000000	56.000000	0.000000	-1.000000	-1.000000	614959.000000	1775777954.287428
1375.560000	-2819.745000	-2328.885000	21024.855000	13259.475000	1082.205000	-22675.995000	-18250.155000	1.113497	-1.308399	-3.491672	-2.666310	-3.964489	-10.746836	-0.800847	2.443595	-0.320460	1.693860	2.029580	-0.720457	-0.089844	0.674559	-1.000000	-1.000000	-1.000000	-1.000000	-1.000000	-1.000000	-1.000000	56.000000	0.000000	-1.000000	-1.000000	614960.000000	1775777954.303347
1378.305000	-2816.505000	-2325.015000	21028.545000	13260.960000	1093.320000	-22676.175000	-18249.930000	0.536015	-1.626644	-3.546660	-2.819082	-7.046883	-16.174949	-3.387847	0.067687	-0.320460	1.693860	2.029580	-0.720457	-0.089844	0.674559	-1.000000	-1.000000	-1.000000	-1.000000	-1.000000	-1.000000	-1.000000	56.000000	0.000000	-1.000000	-1.000000	614961.000000	1775777954.303373
1380.915000	-2809.170000	-2317.995000	21029.175000	13251.825000	1078.740000	-22687.695000	-18253.890000	0.392699	-0.480868	-1.432622	-1.002327	-5.389109	-14.042098	-4.701749	-1.840580	-0.320460	1.693860	2.029580	-0.720457	-0.089844	0.674559	-1.000000	-1.000000	-1.000000	-1.000000	-1.000000	-1.000000	-1.000000	56.000000	0.000000	-1.000000	-1.000000	614962.000000	1775777954.303400
1384.110000	-2802.870000	-2309.580000	21040.020000	13276.350000	1074.375000	-22690.620000	-18254.430000	0.861804	1.740860	2.043541	1.937211	-0.896746	-6.940651	-4.707711	-2.633781	-0.320460	1.693860	2.029580	-0.720457	-0.089844	0.674559	-1.000000	-1.000000	-1.000000	-1.000000	-1.000000	-1.000000	-1.000000	56.000000	0.000000	-1.000000	-1.000000	614963.000000	1775777954.303411
1383.480000	-2803.455000	-2307.735000	21050.775000	13314.060000	1101.510000	-22684.050000	-18254.160000	1.464236	3.774380	5.130313	4.630185	4.619944	0.839105	-3.501730	-2.284375	-0.320460	1.693860	2.029580	-0.720457	-0.089844	0.674559	-1.000000	-1.000000	-1.000000	-1.000000	-1.000000	-1.000000	-1.000000	56.000000	0.000000	-1.000000	-1.000000	614964.000000	1775777954.303426
1381.140000	-2811.645000	-2316.690000	21042.360000	13289.760000	1108.935000	-22676.895000	-18251.640000	1.421529	3.925884	5.835016	5.857578	9.762073	7.550603	-0.680252	-1.015349	-0.320460	1.693860	2.029580	-0.720457	-0.089844	0.674559	-1.000000	-1.000000	-1.000000	-1.000000	-1.000000	-1.000000	-1.000000	56.000000	0.000000	-1.000000	-1.000000	614965.000000	1775777954.303437
1376.370000	-2823.795000	-2334.690000	21021.480000	13239.540000	1088.820000	-22672.350000	-18249.480000	0.272088	1.184131	2.824138	3.987393	9.714737	11.844865	3.444978	0.744929	-0.320460	1.693860	2.029580	-0.720457	-0.089844	0.674559	-1.000000	-1.000000	-1.000000	-1.000000	-1.000000	-1.000000	-1.000000	56.000000	0.000000	-1.000000	-1.000000	614966.000000	1775777954.303450
1379.070000	-2824.470000	-2341.620000	21015.540000	13229.370000	1063.755000	-22672.845000	-18245.025000	-1.555143	-3.470317	-3.182211	-1.581222	0.285274	10.480623	6.976349	2.369626	-0.320460	1.693860	2.029580	-0.720457	-0.089844	0.674559	-1.000000	-1.000000	-1.000000	-1.000000	-1.000000	-1.000000	-1.000000	56.000000	0.000000	-1.000000	-1.000000	614967.000000	1775777954.303460
1375.065000	-2822.355000	-2334.780000	21025.845000	13249.980000	1064.295000	-22679.280000	-18252.495000	-2.897915	-7.047131	-8.655108	-7.854529	-13.246364	2.593480	7.576657	3.085885	-0.320460	1.693860	2.029580	-0.720457	-0.089844	0.674559	-1.000000	-1.000000	-1.000000	-1.000000	-1.000000	-1.000000	-1.000000	56.000000	0.000000	-1.000000	-1.000000	614968.000000	1775777954.309263
1368.180000	-2824.380000	-2334.420000	21021.930000	13247.550000	1060.110000	-22686.930000	-18262.395000	-3.051479	-6.872506	-9.422815	-9.975839	-19.360073	-6.864422	4.315861	2.039389	-0.320460	1.693860	2.029580	-0.720457	-0.089844	0.674559	-1.000000	-1.000000	-1.000000	-1.000000	-1.000000	-1.000000	-1.000000	56.000000	0.000000	-1.000000	-1.000000	614969.000000	1775777954.309282
1369.980000	-2821.005000	-2328.705000	21026.205000	13256.730000	1071.810000	-22686.660000	-18262.350000	-2.259807	-2.979922	-4.498478	-6.245896	-12.840446	-11.144697	-1.301992	-0.767674	-2.258480	1.388660	2.243220	-0.721251	-0.090515	0.674315	-1.000000	-1.000000	-1.000000	-1.000000	-1.000000	-1.000000	-1.000000	56.000000	0.000000	-1.000000	-1.000000	614970.000000	1775777954.310519
1373.895000	-2820.780000	-2330.415000	21018.645000	13258.080000	1079.280000	-22681.890000	-18257.895000	-0.761694	2.295199	3.066205	0.516950	1.248704	-7.495208	-5.961536	-3.514253	-2.258480	1.388660	2.243220	-0.721251	-0.090515	0.674315	-1.000000	-1.000000	-1.000000	-1.000000	-1.000000	-1.000000	-1.000000	56.000000	0.000000	-1.000000	-1.000000	614971.000000	1775777954.310536
1387.755000	-2808.495000	-2319.750000	21027.195000	13250.970000	1045.620000	-22679.550000	-18243.765000	1.610169	6.472504	9.022604	6.174919	13.732100	0.652364	-6.879818	-3.694074	-2.258480	1.388660	2.243220	-0.721251	-0.090515	0.674315	-1.000000	-1.000000	-1.000000	-1.000000	-1.000000	-1.000000	-1.000000	56.000000	0.000000	-1.000000	-1.000000	614972.000000	1775777954.313246
1387.305000	-2807.055000	-2318.085000	21032.280000	13256.190000	1067.175000	-22677.750000	-18242.100000	4.500005	8.285665	10.933304	8.590248	18.120176	6.772290	-3.968808	-0.588105	-2.258480	1.388660	2.243220	-0.721251	-0.090515	0.674315	-1.000000	-1.000000	-1.000000	-1.000000	-1.000000	-1.000000	-1.000000	56.000000	0.000000	-1.000000	-1.000000	614973.000000	1775777954.313264
1386.855000	-2806.650000	-2319.435000	21030.210000	13272.660000	1133.820000	-22670.325000	-18242.640000	6.271572	7.373138	8.661322	7.920273	14.240175	9.241634	0.552351	3.590096	-2.258480	1.388660	2.243220	-0.721251	-0.090515	0.674315	-1.000000	-1.000000	-1.000000	-1.000000	-1.000000	-1.000000	-1.000000	56.000000	0.000000	-1.000000	-1.000000	614974.000000	1775777954.317235
1383.705000	-2812.725000	-2325.780000	21022.740000	13266.810000	1126.125000	-22667.355000	-18244.440000	5.147743	3.798246	3.316521	4.825598	6.555058	11.651497	4.236411	5.503872	-2.258480	1.388660	2.243220	-0.721251	-0.090515	0.674315	-1.000000	-1.000000	-1.000000	-1.000000	-1.000000	-1.000000	-1.000000	56.000000	0.000000	-1.000000	-1.000000	614975.000000	1775777954.317250
1379.745000	-2817.135000	-2328.435000	21024.270000	13271.445000	1120.635000	-22666.185000	-18248.085000	1.141157	-1.517756	-3.173522	0.148504	-0.903340	13.157539	5.588470	3.681774	-2.258480	1.388660	2.243220	-0.721251	-0.090515	0.674315	-1.000000	-1.000000	-1.000000	-1.000000	-1.000000	-1.000000	-1.000000	56.000000	0.000000	-1.000000	-1.000000	614976.000000	1775777954.323042
1377.315000	-2813.760000	-2321.370000	21031.830000	13283.685000	1107.135000	-22677.705000	-18254.835000	-3.790946	-6.475354	-8.132999	-4.136620	-6.139227	8.209300	4.033065	-0.695408	-2.258480	1.388660	2.243220	-0.721251	-0.090515	0.674315	-1.000000	-1.000000	-1.000000	-1.000000	-1.000000	-1.000000	-1.000000	56.000000	0.000000	-1.000000	-1.000000	614977.000000	1775777954.323064
1370.610000	-2818.170000	-2324.655000	21028.500000	13282.065000	1101.690000	-22679.550000	-18261.495000	-7.244127	-8.723010	-9.297614	-5.855624	-8.156581	-4.064417	0.027460	-5.202754	-2.258480	1.388660	2.243220	-0.721251	-0.090515	0.674315	-1.000000	-1.000000	-1.000000	-1.000000	-1.000000	-1.000000	-1.000000	56.000000	0.000000	-1.000000	-1.000000	614978.000000	1775777954.326061
1369.305000	-2821.140000	-2327.895000	21026.655000	13268.475000	1113.255000	-22665.600000	-18259.020000	-7.836639	-7.478511	-6.691779	-4.799813	-7.683444	-17.152357	-4.199324	-7.557712	-2.258480	1.388660	2.243220	-0.721251	-0.090515	0.674315	-1.000000	-1.000000	-1.000000	-1.000000	-1.000000	-1.000000	-1.000000	56.000000	0.000000	-1.000000	-1.000000	614979.000000	1775777954.326079
1374.255000	-2816.505000	-2324.655000	21029.085000	13256.280000	1116.495000	-22660.740000	-18255.420000	-5.458631	-3.838668	-2.425185	-2.521572	-6.985619	-22.837708	-5.496441	-6.376567	-2.121140	2.151660	1.541260	-0.722288	-0.091491	0.675841	-1.000000	-1.000000	-1.000000	-1.000000	-1.000000	-1.000000	-1.000000	56.000000	0.000000	-1.000000	-1.000000	614980.000000	1775777954.334129
1381.590000	-2809.035000	-2318.715000	21034.440000	13261.680000	1104.930000	-22666.365000	-18251.190000	-0.829139	0.715793	1.577376	-0.272336	-6.934171	-18.295328	-3.089767	-1.939380	-2.121140	2.151660	1.541260	-0.722288	-0.091491	0.675841	-1.000000	-1.000000	-1.000000	-1.000000	-1.000000	-1.000000	-1.000000	56.000000	0.000000	-1.000000	-1.000000	614981.000000	1775777954.334150
1378.980000	-2810.925000	-2319.210000	21036.465000	13266.405000	1083.330000	-22679.415000	-18254.520000	4.368078	4.844803	4.426224	1.583826	-5.716240	-8.100793	0.182194	3.519202	-2.121140	2.151660	1.541260	-0.722288	-0.091491	0.675841	-1.000000	-1.000000	-1.000000	-1.000000	-1.000000	-1.000000	-1.000000	56.000000	0.000000	-1.000000	-1.000000	614982.000000	1775777954.334234
1376.325000	-2812.995000	-2320.740000	21033.720000	13252.590000	1065.600000	-22676.445000	-18255.285000	7.606500	6.941234	5.483320	2.683338	-1.908562	0.703753	1.232798	7.018009	-2.121140	2.151660	1.541260	-0.722288	-0.091491	0.675841	-1.000000	-1.000000	-1.000000	-1.000000	-1.000000	-1.000000	-1.000000	56.000000	0.000000	-1.000000	-1.000000	614983.000000	1775777954.334249
1375.020000	-2812.815000	-2318.130000	21038.310000	13259.700000	1072.935000	-22682.970000	-18259.245000	7.156900	5.975445	4.436345	2.547979	3.002869	4.993931	0.029666	6.880098	-2.121140	2.151660	1.541260	-0.722288	-0.091491	0.675841	-1.000000	-1.000000	-1.000000	-1.000000	-1.000000	-1.000000	-1.000000	56.000000	0.000000	-1.000000	-1.000000	614984.000000	1775777954.342763
1362.735000	-2828.880000	-2335.500000	21021.030000	13259.700000	1084.410000	-22686.390000	-18269.370000	3.404126	2.395395	1.681393	1.065865	6.731186	7.036580	-1.439649	3.541524	-2.121140	2.151660	1.541260	-0.722288	-0.091491	0.675841	-1.000000	-1.000000	-1.000000	-1.000000	-1.000000	-1.000000	-1.000000	56.000000	0.000000	-1.000000	-1.000000	614985.000000	1775777954.342785
1370.970000	-2818.170000	-2324.790000	21032.280000	13272.570000	1084.545000	-22679.010000	-18264.735000	-1.538032	-2.108873	-1.787379	-1.287983	8.510148	9.908511	-1.565683	-1.038804	-2.121140	2.151660	1.541260	-0.722288	-0.091491	0.675841	-1.000000	-1.000000	-1.000000	-1.000000	-1.000000	-1.000000	-1.000000	56.000000	0.000000	-1.000000	-1.000000	614986.000000	1775777954.342812
1380.195000	-2803.095000	-2307.015000	21050.955000	13283.955000	1079.190000	-22684.140000	-18261.945000	-4.663582	-4.715705	-3.791301	-2.673658	8.737462	12.903265	0.100342	-4.184514	-2.121140	2.151660	1.541260	-0.722288	-0.091491	0.675841	-1.000000	-1.000000	-1.000000	-1.000000	-1.000000	-1.000000	-1.000000	56.000000	0.000000	-1.000000	-1.000000	614987.000000	1775777954.342823
1370.700000	-2813.670000	-2320.200000	21036.600000	13272.435000	1079.055000	-22691.205000	-18270.315000	-4.192215	-3.495954	-2.527403	-1.371333	7.491190	12.845704	2.410531	-4.311505	-2.121140	2.151660	1.541260	-0.722288	-0.091491	0.675841	-1.000000	-1.000000	-1.000000	-1.000000	-1.000000	-1.000000	-1.000000	56.000000	0.000000	-1.000000	-1.000000	614988.000000	1775777954.345351
1372.230000	-2815.470000	-2325.960000	21025.080000	13263.705000	1083.240000	-22683.195000	-18265.680000	-1.530796	-0.219177	0.276313	0.899113	3.765698	8.509307	3.617061	-2.251390	-2.121140	2.151660	1.541260	-0.722288	-0.091491	0.675841	-1.000000	-1.000000	-1.000000	-1.000000	-1.000000	-1.000000	-1.000000	56.000000	0.000000	-1.000000	-1.000000	614989.000000	1775777954.345365
1372.770000	-2814.030000	-2319.840000	21031.020000	13271.850000	1095.120000	-22679.820000	-18263.700000	0.729786	1.813037	1.489080	1.103575	-2.324991	2.111916	3.497540	0.306708	-1.266580	1.892240	-0.564620	-0.722227	-0.094055	0.677489	-1.000000	-1.000000	-1.000000	-1.000000	-1.000000	-1.000000	-1.000000	56.000000	0.000000	-1.000000	-1.000000	614990.000000	1775777954.351206
1375.830000	-2817.495000	-2322.090000	21033.810000	13266.270000	1088.505000	-22678.470000	-18259.920000	1.617299	1.566070	0.742728	-0.486585	-7.862930	-3.206066	2.917410	2.401817	-1.266580	1.892240	-0.564620	-0.722227	-0.094055	0.677489	-1.000000	-1.000000	-1.000000	-1.000000	-1.000000	-1.000000	-1.000000	56.000000	0.000000	-1.000000	-1.000000	614991.000000	1775777954.351224
1379.520000	-2818.305000	-2328.750000	21026.655000	13252.590000	1063.305000	-22682.070000	-18257.355000	1.611602	0.060871	-0.527057	-1.547387	-10.132747	-6.735138	2.033349	3.545605	-1.266580	1.892240	-0.564620	-0.722227	-0.094055	0.677489	-1.000000	-1.000000	-1.000000	-1.000000	-1.000000	-1.000000	-1.000000	56.000000	0.000000	-1.000000	-1.000000	614992.000000	1775777954.366143
1370.430000	-2826.540000	-2336.805000	21017.835000	13253.985000	1075.365000	-22682.565000	-18267.120000	1.171047	-1.484926	-1.633983	-1.437634	-9.074307	-9.454583	0.419258	3.233277	-1.266580	1.892240	-0.564620	-0.722227	-0.094055	0.677489	-1.000000	-1.000000	-1.000000	-1.000000	-1.000000	-1.000000	-1.000000	56.000000	0.000000	-1.000000	-1.000000	614993.000000	1775777954.366167
1367.910000	-2827.665000	-2335.230000	21020.085000	13264.695000	1090.080000	-22681.125000	-18271.575000	0.089741	-2.403328	-2.387991	-0.990328	-5.449268	-10.161063	-1.707245	1.080014	-1.266580	1.892240	-0.564620	-0.722227	-0.094055	0.677489	-1.000000	-1.000000	-1.000000	-1.000000	-1.000000	-1.000000	-1.000000	56.000000	0.000000	-1.000000	-1.000000	614994.000000	1775777954.366195
1379.160000	-2815.155000	-2324.430000	21031.245000	13279.815000	1098.360000	-22677.705000	-18263.925000	-1.344844	-2.098124	-1.956532	-0.181091	0.439616	-6.422555	-3.269265	-2.065324	-1.266580	1.892240	-0.564620	-0.722227	-0.094055	0.677489	-1.000000	-1.000000	-1.000000	-1.000000	-1.000000	-1.000000	-1.000000	56.000000	0.000000	-1.000000	-1.000000	614995.000000	1775777954.366207
1378.125000	-2813.715000	-2323.260000	21027.465000	13273.650000	1083.780000	-22687.290000	-18266.805000	-1.773684	0.013972	0.416572	1.624010	7.040148	0.463174	-3.538697	-4.039327	-1.266580	1.892240	-0.564620	-0.722227	-0.094055	0.677489	-1.000000	-1.000000	-1.000000	-1.000000	-1.000000	-1.000000	-1.000000	56.000000	0.000000	-1.000000	-1.000000	614996.000000	1775777954.366222
1379.205000	-2809.305000	-2318.715000	21027.555000	13255.605000	1047.645000	-22690.215000	-18265.095000	-0.672299	3.182640	3.773401	3.663024	10.551907	4.959771	-3.019533	-3.585853	-1.266580	1.892240	-0.564620	-0.722227	-0.094055	0.677489	-1.000000	-1.000000	-1.000000	-1.000000	-1.000000	-1.000000	-1.000000	56.000000	0.000000	-1.000000	-1.000000	614997.000000	1775777954.366233
1377.225000	-2809.080000	-2317.005000	21033.720000	13255.245000	1046.385000	-22686.795000	-18264.780000	0.783406	5.326337	5.919002	4.348406	7.977227	2.974376	-2.339901	-1.436419	-1.266580	1.892240	-0.564620	-0.722227	-0.094055	0.677489	-1.000000	-1.000000	-1.000000	-1.000000	-1.000000	-1.000000	-1.000000	56.000000	0.000000	-1.000000	-1.000000	614998.000000	1775777954.366247
1373.220000	-2813.985000	-2318.850000	21037.320000	13275.585000	1102.725000	-22674.915000	-18265.095000	1.217828	4.809383	5.366525	3.361630	1.400722	-1.877398	-1.000163	0.892659	-1.266580	1.892240	-0.564620	-0.722227	-0.094055	0.677489	-1.000000	-1.000000	-1.000000	-1.000000	-1.000000	-1.000000	-1.000000	56.000000	0.000000	-1.000000	-1.000000	614999.000000	1775777954.366257
1376.505000	-2811.150000	-2315.835000	21036.510000	13280.535000	1121.265000	-22670.505000	-18259.695000	0.372743	1.677957	2.296886	1.469311	-3.459436	-1.177150	1.629293	2.337753	2.197440	2.945180	-0.076300	-0.716978	-0.094604	0.678831	-1.000000	-1.000000	-1.000000	-1.000000	-1.000000	-1.000000	-1.000000	56.000000	0.000000	-1.000000	-1.000000	615000.000000	1775777954.373809
1376.505000	-2811.105000	-2316.465000	21032.370000	13266.675000	1098.675000	-22676.040000	-18261.315000	-0.803403	-2.278024	-1.675081	-0.790852	-3.880211	6.372087	4.473108	2.665241	2.197440	2.945180	-0.076300	-0.716978	-0.094604	0.678831	-1.000000	-1.000000	-1.000000	-1.000000	-1.000000	-1.000000	-1.000000	56.000000	0.000000	-1.000000	-1.000000	615001.000000	1775777954.373832
1380.330000	-2806.470000	-2312.910000	21036.330000	13267.530000	1094.220000	-22675.905000	-18260.685000	-1.181917	-4.786579	-4.600082	-3.029905	-2.314134	12.035861	5.232600	2.037941	2.197440	2.945180	-0.076300	-0.716978	-0.094604	0.678831	-1.000000	-1.000000	-1.000000	-1.000000	-1.000000	-1.000000	-1.000000	56.000000	0.000000	-1.000000	-1.000000	615002.000000	1775777954.379707
1381.410000	-2807.460000	-2313.855000	21036.465000	13262.220000	1078.425000	-22681.215000	-18260.955000	-0.479765	-4.770868	-5.393736	-4.401963	-1.718641	8.472076	2.915251	0.715907	2.197440	2.945180	-0.076300	-0.716978	-0.094604	0.678831	-1.000000	-1.000000	-1.000000	-1.000000	-1.000000	-1.000000	-1.000000	56.000000	0.000000	-1.000000	-1.000000	615003.000000	1775777954.379729
1382.895000	-2810.790000	-2318.490000	21036.330000	13271.760000	1094.265000	-22673.430000	-18256.590000	0.703772	-2.935070	-4.341506	-4.198099	-2.134277	-2.093204	-0.997930	-0.707551	2.197440	2.945180	-0.076300	-0.716978	-0.094604	0.678831	-1.000000	-1.000000	-1.000000	-1.000000	-1.000000	-1.000000	-1.000000	56.000000	0.000000	-1.000000	-1.000000	615004.000000	1775777954.379757
1381.185000	-2815.245000	-2326.185000	21027.735000	13267.260000	1105.515000	-22671.045000	-18256.320000	1.447623	-0.953064	-2.729996	-2.822315	-1.999167	-11.215348	-3.825012	-1.499882	2.197440	2.945180	-0.076300	-0.716978	-0.094604	0.678831	-1.000000	-1.000000	-1.000000	-1.000000	-1.000000	-1.000000	-1.000000	56.000000	0.000000	-1.000000	-1.000000	615005.000000	1775777954.379769
1384.290000	-2805.030000	-2310.795000	21043.755000	13271.310000	1092.555000	-22674.645000	-18258.435000	1.236410	0.246618	-1.314354	-1.108520	-0.650941	-12.809867	-4.062653	-1.493797	2.197440	2.945180	-0.076300	-0.716978	-0.094604	0.678831	-1.000000	-1.000000	-1.000000	-1.000000	-1.000000	-1.000000	-1.000000	56.000000	0.000000	-1.000000	-1.000000	615006.000000	1775777954.382031
1376.280000	-2808.495000	-2310.615000	21047.805000	13279.725000	1093.680000	-22677.165000	-18266.220000	0.207577	1.091630	0.522763	0.982489	1.329511	-8.057386	-2.545179	-1.320729	2.197440	2.945180	-0.076300	-0.716978	-0.094604	0.678831	-1.000000	-1.000000	-1.000000	-1.000000	-1.000000	-1.000000	-1.000000	56.000000	0.000000	-1.000000	-1.000000	615007.000000	1775777954.382047
1372.050000	-2817.405000	-2326.545000	21027.015000	13263.345000	1079.415000	-22680.810000	-18266.985000	-1.299993	1.747198	2.672570	3.009496	2.852944	-2.032669	-1.005744	-1.605716	2.197440	2.945180	-0.076300	-0.716978	-0.094604	0.678831	-1.000000	-1.000000	-1.000000	-1.000000	-1.000000	-1.000000	-1.000000	56.000000	0.000000	-1.000000	-1.000000	615008.000000	1775777954.387542
1377.630000	-2814.480000	-2324.610000	21028.590000	13264.830000	1075.545000	-22680.495000	-18262.980000	-2.632060	1.529822	3.325992	3.036094	2.574341	1.619357	-0.250522	-1.940400	2.197440	2.945180	-0.076300	-0.716978	-0.094604	0.678831	-1.000000	-1.000000	-1.000000	-1.000000	-1.000000	-1.000000	-1.000000	56.000000	0.000000	-1.000000	-1.000000	615009.000000	1775777954.387565
1381.500000	-2811.105000	-2321.415000	21030.885000	13266.810000	1073.070000	-22683.330000	-18261.765000	-2.583422	0.616741	1.944271	0.694219	0.454503	2.442247	0.018624	-1.263126	1.770160	3.311420	0.518840	-0.714354	-0.089721	0.678038	-1.000000	-1.000000	-1.000000	-1.000000	-1.000000	-1.000000	-1.000000	56.000000	0.000000	-1.000000	-1.000000	615010.000000	1775777954.389333
1386.270000	-2804.130000	-2313.315000	21036.780000	13271.535000	1082.160000	-22681.800000	-18260.460000	-0.583288	0.266763	0.432606	-1.529087	-1.528228	2.363284	0.368599	0.626041	1.770160	3.311420	0.518840	-0.714354	-0.089721	0.678038	-1.000000	-1.000000	-1.000000	-1.000000	-1.000000	-1.000000	-1.000000	56.000000	0.000000	-1.000000	-1.000000	615011.000000	1775777954.389347
1385.730000	-2803.680000	-2314.035000	21033.810000	13266.405000	1078.830000	-22682.070000	-18261.090000	2.278533	1.060928	0.440460	-1.550762	-1.773097	3.265175	1.038468	2.650923	1.770160	3.311420	0.518840	-0.714354	-0.089721	0.678038	-1.000000	-1.000000	-1.000000	-1.000000	-1.000000	-1.000000	-1.000000	56.000000	0.000000	-1.000000	-1.000000	615012.000000	1775777954.393240
1381.680000	-2806.515000	-2314.890000	21035.700000	13274.280000	1089.855000	-22679.730000	-18263.070000	3.985297	2.059778	1.451661	0.157635	-0.581979	5.096480	1.872625	3.494380	1.770160	3.311420	0.518840	-0.714354	-0.089721	0.678038	-1.000000	-1.000000	-1.000000	-1.000000	-1.000000	-1.000000	-1.000000	56.000000	0.000000	-1.000000	-1.000000	615013.000000	1775777954.393260
1379.205000	-2806.110000	-2311.200000	21044.610000	13291.875000	1124.640000	-22673.565000	-18265.320000	3.215650	1.871563	1.906042	1.999729	1.286385	7.095255	2.581034	2.616097	1.770160	3.311420	0.518840	-0.714354	-0.089721	0.678038	-1.000000	-1.000000	-1.000000	-1.000000	-1.000000	-1.000000	-1.000000	56.000000	0.000000	-1.000000	-1.000000	615014.000000	1775777954.398168
1373.040000	-2813.220000	-2317.185000	21040.695000	13278.285000	1123.470000	-22676.490000	-18271.890000	0.367909	0.138241	1.056520	2.992642	3.193037	8.850812	2.870666	0.455217	1.770160	3.311420	0.518840	-0.714354	-0.089721	0.678038	-1.000000	-1.000000	-1.000000	-1.000000	-1.000000	-1.000000	-1.000000	56.000000	0.000000	-1.000000	-1.000000	615015.000000	1775777954.398189
1375.020000	-2811.780000	-2318.040000	21036.960000	13267.395000	1095.210000	-22683.420000	-18274.545000	-2.799004	-2.261636	-0.810472	2.547200	3.308105	8.024752	2.155062	-1.982357	1.770160	3.311420	0.518840	-0.714354	-0.089721	0.678038	-1.000000	-1.000000	-1.000000	-1.000000	-1.000000	-1.000000	-1.000000	56.000000	0.000000	-1.000000	-1.000000	615016.000000	1775777954.404499
1376.370000	-2809.440000	-2316.915000	21038.040000	13277.295000	1097.280000	-22679.595000	-18274.230000	-4.309269	-3.817784	-2.756201	0.511281	0.407228	1.566330	0.123400	-3.501519	1.770160	3.311420	0.518840	-0.714354	-0.089721	0.678038	-1.000000	-1.000000	-1.000000	-1.000000	-1.000000	-1.000000	-1.000000	56.000000	0.000000	-1.000000	-1.000000	615017.000000	1775777954.404524
1376.100000	-2807.955000	-2315.385000	21037.185000	13265.190000	1086.840000	-22678.695000	-18273.735000	-3.278520	-3.365033	-3.552190	-2.068310	-3.582313	-8.692063	-2.193363	-3.193201	1.770160	3.311420	0.518840	-0.714354	-0.089721	0.678038	-1.000000	-1.000000	-1.000000	-1.000000	-1.000000	-1.000000	-1.000000	56.000000	0.000000	-1.000000	-1.000000	615018.000000	1775777954.405742
1379.970000	-2804.940000	-2311.965000	21037.320000	13254.345000	1079.505000	-22676.220000	-18268.110000	-0.497384	-1.088310	-2.584228	-3.651312	-6.098535	-16.647172	-3.216794	-1.052758	1.770160	3.311420	0.518840	-0.714354	-0.089721	0.678038	-1.000000	-1.000000	-1.000000	-1.000000	-1.000000	-1.000000	-1.000000	56.000000	0.000000	-1.000000	-1.000000	615019.000000	1775777954.405758
1374.660000	-2811.690000	-2318.760000	21032.685000	13261.185000	1086.570000	-22677.885000	-18274.500000	2.303293	1.528767	-0.505304	-3.590401	-6.278322	-17.625161	-2.506191	1.806978	0.701960	2.899400	0.228900	-0.719420	-0.085205	0.677977	-1.000000	-1.000000	-1.000000	-1.000000	-1.000000	-1.000000	-1.000000	56.000000	0.000000	-1.000000	-1.000000	615020.000000	1775777954.409526
1377.900000	-2808.630000	-2313.855000	21039.885000	13270.320000	1101.915000	-22678.380000	-18274.095000	3.610838	2.839378	1.280514	-2.224524	-3.701652	-10.734097	-0.948498	3.637878	0.701960	2.899400	0.228900	-0.719420	-0.085205	0.677977	-1.000000	-1.000000	-1.000000	-1.000000	-1.000000	-1.000000	-1.000000	56.000000	0.000000	-1.000000	-1.000000	615021.000000	1775777954.409544
1385.280000	-2801.070000	-2305.845000	21048.345000	13267.845000	1094.670000	-22683.060000	-18270.675000	3.215443	2.555690	2.147899	0.042839	1.299237	1.000464	0.241518	3.490889	0.701960	2.899400	0.228900	-0.719420	-0.085205	0.677977	-1.000000	-1.000000	-1.000000	-1.000000	-1.000000	-1.000000	-1.000000	56.000000	0.000000	-1.000000	-1.000000	615022.000000	1775777954.419903
1381.140000	-2805.525000	-2311.200000	21046.320000	13273.605000	1087.695000	-22681.485000	-18273.645000	2.041604	1.672781	2.437629	2.677888	6.365791	11.330702	0.487955	1.961282	0.701960	2.899400	0.228900	-0.719420	-0.085205	0.677977	-1.000000	-1.000000	-1.000000	-1.000000	-1.000000	-1.000000	-1.000000	56.000000	0.000000	-1.000000	-1.000000	615023.000000	1775777954.419929
1372.365000	-2815.650000	-2323.395000	21034.260000	13269.960000	1098.495000	-22676.715000	-18279.405000	0.495575	0.557597	1.856319	4.100470	8.676047	15.060539	0.263104	-0.010250	0.701960	2.899400	0.228900	-0.719420	-0.085205	0.677977	-1.000000	-1.000000	-1.000000	-1.000000	-1.000000	-1.000000	-1.000000	56.000000	0.000000	-1.000000	-1.000000	615024.000000	1775777954.419954
1373.985000	-2811.825000	-2319.165000	21037.815000	13271.760000	1094.760000	-22678.020000	-18279.540000	-1.592444	-1.118070	-0.151880	2.817655	7.148777	12.082974	0.414907	-1.902355	0.701960	2.899400	0.228900	-0.719420	-0.085205	0.677977	-1.000000	-1.000000	-1.000000	-1.000000	-1.000000	-1.000000	-1.000000	56.000000	0.000000	-1.000000	-1.000000	615025.000000	1775777954.419963
1375.290000	-2809.170000	-2317.140000	21039.480000	13275.540000	1099.170000	-22675.770000	-18279.630000	-3.445183	-2.615339	-2.449265	-0.274534	2.942641	5.783752	1.023999	-3.077541	0.701960	2.899400	0.228900	-0.719420	-0.085205	0.677977	-1.000000	-1.000000	-1.000000	-1.000000	-1.000000	-1.000000	-1.000000	56.000000	0.000000	-1.000000	-1.000000	615026.000000	1775777954.421811
1390.320000	-2793.960000	-2301.795000	21053.160000	13274.055000	1077.660000	-22678.695000	-18269.685000	-3.445251	-2.319001	-2.793402	-2.403169	-1.554608	-0.820570	1.427937	-2.717097	0.701960	2.899400	0.228900	-0.719420	-0.085205	0.677977	-1.000000	-1.000000	-1.000000	-1.000000	-1.000000	-1.000000	-1.000000	56.000000	0.000000	-1.000000	-1.000000	615027.000000	1775777954.421828
1388.115000	-2796.210000	-2304.045000	21045.690000	13267.620000	1050.975000	-22688.865000	-18272.205000	-0.970109	0.204895	-0.406389	-1.927666	-4.640510	-6.775800	0.896999	-0.674586	0.701960	2.899400	0.228900	-0.719420	-0.085205	0.677977	-1.000000	-1.000000	-1.000000	-1.000000	-1.000000	-1.000000	-1.000000	56.000000	0.000000	-1.000000	-1.000000	615028.000000	1775777954.428357
1375.335000	-2808.180000	-2312.775000	21039.705000	13271.040000	1069.605000	-22691.790000	-18281.970000	2.100476	2.902429	2.660682	-0.144723	-5.932644	-11.236819	-0.807344	1.624743	0.701960	2.899400	0.228900	-0.719420	-0.085205	0.677977	-1.000000	-1.000000	-1.000000	-1.000000	-1.000000	-1.000000	-1.000000	56.000000	0.000000	-1.000000	-1.000000	615029.000000	1775777954.428380
1375.020000	-2808.180000	-2311.740000	21045.960000	13283.010000	1109.430000	-22681.575000	-18279.270000	2.819830	2.949737	3.404546	0.658561	-5.197906	-10.560968	-2.569749	2.199341	-3.387720	1.999060	-0.259420	-0.723204	-0.084350	0.677489	-1.000000	-1.000000	-1.000000	-1.000000	-1.000000	-1.000000	-1.000000	56.000000	0.000000	-1.000000	-1.000000	615030.000000	1775777954.433728
1375.155000	-2809.755000	-2315.880000	21042.270000	13280.310000	1112.085000	-22672.575000	-18274.770000	0.707324	0.144564	1.195190	0.122520	-2.348060	-2.017800	-2.313226	0.982799	-3.387720	1.999060	-0.259420	-0.723204	-0.084350	0.677489	-1.000000	-1.000000	-1.000000	-1.000000	-1.000000	-1.000000	-1.000000	56.000000	0.000000	-1.000000	-1.000000	615031.000000	1775777954.433752
1379.385000	-2804.265000	-2308.590000	21052.440000	13280.850000	1095.030000	-22673.295000	-18272.880000	-1.832983	-2.900874	-1.873876	-0.526422	1.211364	9.497584	0.513311	-0.265710	-3.387720	1.999060	-0.259420	-0.723204	-0.084350	0.677489	-1.000000	-1.000000	-1.000000	-1.000000	-1.000000	-1.000000	-1.000000	56.000000	0.000000	-1.000000	-1.000000	615032.000000	1775777954.433778
1377.765000	-2806.470000	-2311.290000	21048.750000	13279.095000	1114.020000	-22672.350000	-18275.670000	-2.514527	-3.735390	-3.379202	-0.344076	3.267652	15.017773	3.751292	-0.468569	-3.387720	1.999060	-0.259420	-0.723204	-0.084350	0.677489	-1.000000	-1.000000	-1.000000	-1.000000	-1.000000	-1.000000	-1.000000	56.000000	0.000000	-1.000000	-1.000000	615033.000000	1775777954.433789
1372.725000	-2810.655000	-2317.590000	21038.400000	13264.065000	1101.330000	-22672.395000	-18277.695000	-1.287275	-2.232867	-2.752489	0.225287	2.643175	11.235048	4.756262	-0.157021	-3.387720	1.999060	-0.259420	-0.723204	-0.084350	0.677489	-1.000000	-1.000000	-1.000000	-1.000000	-1.000000	-1.000000	-1.000000	56.000000	0.000000	-1.000000	-1.000000	615034.000000	1775777954.438718
1369.710000	-2815.830000	-2322.810000	21033.720000	13266.225000	1097.145000	-22673.385000	-18278.190000	0.264551	-0.141355	-1.352191	-0.152523	-0.198749	1.639547	2.857360	-0.193065	-3.387720	1.999060	-0.259420	-0.723204	-0.084350	0.677489	-1.000000	-1.000000	-1.000000	-1.000000	-1.000000	-1.000000	-1.000000	56.000000	0.000000	-1.000000	-1.000000	615035.000000	1775777954.438741
1370.385000	-2818.395000	-2328.300000	21025.755000	13266.405000	1095.345000	-22678.740000	-18279.720000	0.954922	0.970451	-0.539535	-1.741675	-3.118483	-8.306499	-0.708525	-0.660358	-3.387720	1.999060	-0.259420	-0.723204	-0.084350	0.677489	-1.000000	-1.000000	-1.000000	-1.000000	-1.000000	-1.000000	-1.000000	56.000000	0.000000	-1.000000	-1.000000	615036.000000	1775777954.444957
1374.660000	-2811.780000	-2322.405000	21025.845000	13263.705000	1096.020000	-22678.470000	-18276.480000	1.014119	1.103224	-0.265394	-3.210658	-3.768893	-13.907885	-4.088693	-1.010720	-3.387720	1.999060	-0.259420	-0.723204	-0.084350	0.677489	-1.000000	-1.000000	-1.000000	-1.000000	-1.000000	-1.000000	-1.000000	56.000000	0.000000	-1.000000	-1.000000	615037.000000	1775777954.444980
1383.345000	-2801.205000	-2308.320000	21041.055000	13265.955000	1086.255000	-22680.900000	-18274.320000	1.383288	1.501644	0.721388	-2.706873	-1.769815	-13.226489	-5.717092	-0.683356	-3.387720	1.999060	-0.259420	-0.723204	-0.084350	0.677489	-1.000000	-1.000000	-1.000000	-1.000000	-1.000000	-1.000000	-1.000000	56.000000	0.000000	-1.000000	-1.000000	615038.000000	1775777954.446593
1389.285000	-2791.710000	-2295.810000	21056.220000	13280.310000	1081.440000	-22678.380000	-18272.610000	2.496641	3.062623	3.389156	0.895365	1.701452	-7.967543	-4.913997	0.351561	-3.387720	1.999060	-0.259420	-0.723204	-0.084350	0.677489	-1.000000	-1.000000	-1.000000	-1.000000	-1.000000	-1.000000	-1.000000	56.000000	0.000000	-1.000000	-1.000000	615039.000000	1775777954.446614
