Channel1	Channel2	Channel3	Channel4	Channel5	Channel6	Channel7	Channel8	FilteredChannel1	FilteredChannel2	FilteredChannel3	FilteredChannel4	FilteredChannel5	FilteredChannel6	FilteredChannel7	FilteredChannel8	GyroX	GyroY	GyroZ	AccX	AccY	AccZ	PPG1	PPG2	rawPPG1	rawPPG2	rawPPG3	Hr	Hrv	Battery	Trigger	PhysicalTrigger	AutoTrigger	NumMeasurements	Timestamp
-11617.830000	-6833.970000	4235.310000	29227.320000	20274.075000	12969.225000	-7590.420000	8604.405000	2.671329	-2.417003	-5.901962	-8.024390	-5.157804	-0.168871	3.460160	3.397336	-1.876980	1.190280	0.991900	-0.793821	-0.081054	0.592467	-1.000000	-1.000000	-1.000000	-1.000000	-1.000000	-1.000000	-1.000000	57.000000	0.000000	-1.000000	-1.000000	384237.000000	1775777492.563260
-11614.230000	-6828.120000	4241.295000	29233.215000	20276.955000	12972.780000	-7584.930000	8608.005000	6.444625	2.018889	-1.766113	-2.930134	-0.807978	-3.532408	4.347555	6.885490	-1.876980	1.190280	0.991900	-0.793821	-0.081054	0.592467	-1.000000	-1.000000	-1.000000	-1.000000	-1.000000	-1.000000	-1.000000	57.000000	0.000000	-1.000000	-1.000000	384238.000000	1775777492.563290
-11614.680000	-6830.820000	4241.610000	29232.180000	20280.510000	12989.385000	-7581.015000	8609.265000	6.972968	5.345918	3.079779	3.182062	4.246263	-4.274123	2.942764	6.877078	-1.876980	1.190280	0.991900	-0.793821	-0.081054	0.592467	-1.000000	-1.000000	-1.000000	-1.000000	-1.000000	-1.000000	-1.000000	57.000000	0.000000	-1.000000	-1.000000	384239.000000	1775777492.572011
-11619.765000	-6839.505000	4237.020000	29228.445000	20277.225000	12994.560000	-7583.445000	8604.720000	4.367024	5.920787	6.284548	7.212959	7.191707	-1.090467	0.407766	3.943025	-1.876980	1.190280	0.991900	-0.793821	-0.081054	0.592467	-1.000000	-1.000000	-1.000000	-1.000000	-1.000000	-1.000000	-1.000000	57.000000	0.000000	-1.000000	-1.000000	384240.000000	1775777492.572034
-11619.405000	-6845.850000	4230.630000	29228.760000	20279.970000	13000.410000	-7581.195000	8606.520000	0.065571	3.261947	6.171698	7.383115	6.805980	4.282045	-2.043361	-0.227474	-1.876980	1.190280	0.991900	-0.793821	-0.081054	0.592467	-1.000000	-1.000000	-1.000000	-1.000000	-1.000000	-1.000000	-1.000000	57.000000	0.000000	-1.000000	-1.000000	384241.000000	1775777492.572063
-11612.520000	-6837.840000	4237.470000	29235.015000	20288.430000	13002.570000	-7578.945000	8610.030000	-3.680125	-1.002846	3.096074	4.451426	3.912846	8.033720	-3.596816	-3.658105	-1.876980	1.190280	0.991900	-0.793821	-0.081054	0.592467	-1.000000	-1.000000	-1.000000	-1.000000	-1.000000	-1.000000	-1.000000	57.000000	0.000000	-1.000000	-1.000000	384242.000000	1775777492.572075
-11605.815000	-6833.070000	4239.630000	29235.285000	20282.580000	12985.200000	-7577.865000	8614.305000	-4.759391	-3.733884	-0.489086	0.870089	0.503760	7.225157	-3.745162	-4.779079	-1.876980	1.190280	0.991900	-0.793821	-0.081054	0.592467	-1.000000	-1.000000	-1.000000	-1.000000	-1.000000	-1.000000	-1.000000	57.000000	0.000000	-1.000000	-1.000000	384243.000000	1775777492.575602
-11601.945000	-6831.495000	4240.845000	29234.250000	20282.670000	12982.500000	-7575.795000	8614.080000	-2.781534	-3.082910	-2.269589	-1.551487	-2.211600	1.565845	-2.606015	-3.455663	-1.876980	1.190280	0.991900	-0.793821	-0.081054	0.592467	-1.000000	-1.000000	-1.000000	-1.000000	-1.000000	-1.000000	-1.000000	57.000000	0.000000	-1.000000	-1.000000	384244.000000	1775777492.575625
-11607.255000	-6836.670000	4235.535000	29229.390000	20270.070000	12982.680000	-7580.835000	8604.720000	0.395493	-0.282844	-2.088510	-2.698206	-4.216523	-5.893518	-0.967853	-1.233544	-1.876980	1.190280	0.991900	-0.793821	-0.081054	0.592467	-1.000000	-1.000000	-1.000000	-1.000000	-1.000000	-1.000000	-1.000000	57.000000	0.000000	-1.000000	-1.000000	384245.000000	1775777492.578034
-11600.325000	-6831.000000	4239.585000	29231.280000	20264.985000	12979.935000	-7579.980000	8608.365000	2.309510	2.027421	-1.245651	-3.148381	-5.695325	-10.514418	0.213453	0.037238	-1.876980	1.190280	0.991900	-0.793821	-0.081054	0.592467	-1.000000	-1.000000	-1.000000	-1.000000	-1.000000	-1.000000	-1.000000	57.000000	0.000000	-1.000000	-1.000000	384246.000000	1775777492.578082
-11600.370000	-6830.730000	4242.060000	29236.140000	20285.055000	12992.355000	-7579.440000	8607.195000	2.139814	2.545804	-0.556001	-2.917768	-5.820778	-9.602519	0.624308	0.059785	-0.350980	0.381500	-0.839300	-0.795103	-0.082580	0.592833	-1.000000	-1.000000	-1.000000	-1.000000	-1.000000	-1.000000	-1.000000	57.000000	0.000000	-1.000000	-1.000000	384247.000000	1775777492.584200
-11601.270000	-6833.385000	4240.305000	29237.355000	20296.350000	13005.495000	-7577.640000	8605.620000	0.714244	1.610508	-0.012297	-1.645374	-2.844996	-3.613982	0.741708	-0.176862	-0.350980	0.381500	-0.839300	-0.795103	-0.082580	0.592833	-1.000000	-1.000000	-1.000000	-1.000000	-1.000000	-1.000000	-1.000000	57.000000	0.000000	-1.000000	-1.000000	384248.000000	1775777492.584225
-11594.790000	-6830.505000	4242.105000	29241.180000	20299.905000	13014.315000	-7569.495000	8612.235000	-0.828421	0.010759	0.340004	0.375400	3.006298	4.570566	1.177107	0.109176	-0.350980	0.381500	-0.839300	-0.795103	-0.082580	0.592833	-1.000000	-1.000000	-1.000000	-1.000000	-1.000000	-1.000000	-1.000000	57.000000	0.000000	-1.000000	-1.000000	384249.000000	1775777492.585832
-11591.595000	-6828.705000	4242.330000	29239.605000	20284.650000	12999.195000	-7571.790000	8611.920000	-1.520325	-1.360762	0.365394	2.111668	7.886621	10.429405	2.036858	1.081191	-0.350980	0.381500	-0.839300	-0.795103	-0.082580	0.592833	-1.000000	-1.000000	-1.000000	-1.000000	-1.000000	-1.000000	-1.000000	57.000000	0.000000	-1.000000	-1.000000	384250.000000	1775777492.585850
-11589.030000	-6827.895000	4240.980000	29232.360000	20270.610000	12994.020000	-7570.485000	8609.310000	-1.021777	-1.795983	0.124331	2.453978	7.412326	10.018796	2.607876	2.158239	-0.350980	0.381500	-0.839300	-0.795103	-0.082580	0.592833	-1.000000	-1.000000	-1.000000	-1.000000	-1.000000	-1.000000	-1.000000	57.000000	0.000000	-1.000000	-1.000000	384251.000000	1775777492.594572
-11587.995000	-6827.220000	4241.655000	29234.295000	20274.570000	12995.685000	-7562.745000	8611.200000	0.029951	-1.322468	-0.254440	1.037706	1.339924	3.526357	2.201123	2.360208	-0.350980	0.381500	-0.839300	-0.795103	-0.082580	0.592833	-1.000000	-1.000000	-1.000000	-1.000000	-1.000000	-1.000000	-1.000000	57.000000	0.000000	-1.000000	-1.000000	384252.000000	1775777492.594604
-11587.995000	-6829.020000	4238.460000	29228.940000	20270.610000	12988.980000	-7562.070000	8610.795000	0.674903	-0.553223	-0.629200	-1.183594	-5.703472	-4.488898	1.116741	1.440965	-0.350980	0.381500	-0.839300	-0.795103	-0.082580	0.592833	-1.000000	-1.000000	-1.000000	-1.000000	-1.000000	-1.000000	-1.000000	57.000000	0.000000	-1.000000	-1.000000	384253.000000	1775777492.594635
-11589.165000	-6829.605000	4238.685000	29230.515000	20275.785000	12968.505000	-7570.845000	8607.870000	0.426003	-0.100154	-0.873437	-2.702229	-8.670771	-9.657308	-0.238891	-0.018588	-0.350980	0.381500	-0.839300	-0.795103	-0.082580	0.592833	-1.000000	-1.000000	-1.000000	-1.000000	-1.000000	-1.000000	-1.000000	57.000000	0.000000	-1.000000	-1.000000	384254.000000	1775777492.594649
-11591.190000	-6832.890000	4234.050000	29225.655000	20273.985000	12964.095000	-7573.770000	8604.045000	-0.530006	-0.173206	-0.925284	-2.703988	-6.181994	-10.805316	-2.048915	-1.437614	-0.350980	0.381500	-0.839300	-0.795103	-0.082580	0.592833	-1.000000	-1.000000	-1.000000	-1.000000	-1.000000	-1.000000	-1.000000	57.000000	0.000000	-1.000000	-1.000000	384255.000000	1775777492.597858
-11589.390000	-6831.495000	4237.020000	29231.235000	20295.135000	13000.500000	-7569.945000	8603.145000	-1.521596	-0.518143	-0.731253	-1.322837	-0.196030	-7.664313	-3.882395	-2.427952	-0.350980	0.381500	-0.839300	-0.795103	-0.082580	0.592833	-1.000000	-1.000000	-1.000000	-1.000000	-1.000000	-1.000000	-1.000000	57.000000	0.000000	-1.000000	-1.000000	384256.000000	1775777492.597886
-11593.800000	-6836.445000	4233.015000	29227.860000	20295.405000	13009.995000	-7572.735000	8596.620000	-1.860041	-0.701754	-0.223879	0.757454	6.264088	0.385736	-4.382102	-2.685176	-0.534100	1.022420	-0.503580	-0.791685	-0.082092	0.593871	-1.000000	-1.000000	-1.000000	-1.000000	-1.000000	-1.000000	-1.000000	57.000000	0.000000	-1.000000	-1.000000	384257.000000	1775777492.601763
-11588.715000	-6831.900000	4237.470000	29229.885000	20294.145000	13006.800000	-7569.315000	8600.355000	-1.303915	-0.459539	0.541991	2.583564	10.037348	10.554996	-2.867022	-2.090705	-0.534100	1.022420	-0.503580	-0.791685	-0.082092	0.593871	-1.000000	-1.000000	-1.000000	-1.000000	-1.000000	-1.000000	-1.000000	57.000000	0.000000	-1.000000	-1.000000	384258.000000	1775777492.601788
-11579.940000	-6824.070000	4245.210000	29237.355000	20296.260000	13006.305000	-7559.145000	8608.680000	0.153556	0.431965	1.524144	3.477041	8.894919	16.271191	0.125583	-0.493615	-0.534100	1.022420	-0.503580	-0.791685	-0.082092	0.593871	-1.000000	-1.000000	-1.000000	-1.000000	-1.000000	-1.000000	-1.000000	57.000000	0.000000	-1.000000	-1.000000	384259.000000	1775777492.611200
-11583.405000	-6824.835000	4246.245000	29238.930000	20287.575000	12987.360000	-7564.230000	8602.875000	2.198763	1.961631	2.658515	3.494877	3.336122	13.117968	3.387943	1.917113	-0.534100	1.022420	-0.503580	-0.791685	-0.082092	0.593871	-1.000000	-1.000000	-1.000000	-1.000000	-1.000000	-1.000000	-1.000000	57.000000	0.000000	-1.000000	-1.000000	384260.000000	1775777492.611228
-11578.545000	-6818.130000	4253.715000	29244.780000	20287.395000	12978.765000	-7559.595000	8606.565000	3.692756	3.317934	3.410177	2.883863	-3.784398	2.485672	5.258433	3.872682	-0.534100	1.022420	-0.503580	-0.791685	-0.082092	0.593871	-1.000000	-1.000000	-1.000000	-1.000000	-1.000000	-1.000000	-1.000000	57.000000	0.000000	-1.000000	-1.000000	384261.000000	1775777492.611258
-11584.080000	-6827.265000	4238.910000	29228.805000	20286.855000	12992.715000	-7556.580000	8601.525000	3.474089	3.333702	2.831659	1.385726	-9.056450	-9.364106	4.761831	4.006261	-0.534100	1.022420	-0.503580	-0.791685	-0.082092	0.593871	-1.000000	-1.000000	-1.000000	-1.000000	-1.000000	-1.000000	-1.000000	57.000000	0.000000	-1.000000	-1.000000	384262.000000	1775777492.611271
-11582.010000	-6826.455000	4237.920000	29226.645000	20282.670000	12994.245000	-7558.650000	8603.235000	1.478628	1.433009	0.241864	-1.461560	-10.229274	-15.128607	2.455802	2.220390	-0.534100	1.022420	-0.503580	-0.791685	-0.082092	0.593871	-1.000000	-1.000000	-1.000000	-1.000000	-1.000000	-1.000000	-1.000000	57.000000	0.000000	-1.000000	-1.000000	384263.000000	1775777492.614295
-11578.905000	-6821.100000	4245.030000	29234.160000	20283.030000	12993.120000	-7556.400000	8606.295000	-1.138056	-1.527139	-3.367848	-4.727542	-7.401262	-12.141811	-0.450586	-0.305993	-0.534100	1.022420	-0.503580	-0.791685	-0.082092	0.593871	-1.000000	-1.000000	-1.000000	-1.000000	-1.000000	-1.000000	-1.000000	57.000000	0.000000	-1.000000	-1.000000	384264.000000	1775777492.614312
-11576.205000	-6820.785000	4246.245000	29234.610000	20285.145000	13007.610000	-7551.540000	8608.230000	-2.759594	-3.564544	-5.374145	-5.963971	-2.375936	-3.720724	-2.737880	-2.019466	-0.534100	1.022420	-0.503580	-0.791685	-0.082092	0.593871	-1.000000	-1.000000	-1.000000	-1.000000	-1.000000	-1.000000	-1.000000	57.000000	0.000000	-1.000000	-1.000000	384265.000000	1775777492.616957
-11572.380000	-6820.785000	4245.660000	29232.450000	20283.840000	13004.235000	-7550.190000	8608.050000	-2.586785	-3.555413	-4.342066	-4.061022	2.713855	4.896314	-3.471100	-2.241341	-0.534100	1.022420	-0.503580	-0.791685	-0.082092	0.593871	-1.000000	-1.000000	-1.000000	-1.000000	-1.000000	-1.000000	-1.000000	57.000000	0.000000	-1.000000	-1.000000	384266.000000	1775777492.616978
-11563.065000	-6811.290000	4254.210000	29241.045000	20293.110000	12987.360000	-7546.545000	8611.605000	-0.971242	-1.932292	-1.273890	-0.400609	6.240667	9.346497	-2.635248	-1.444865	-0.640920	2.121140	-0.198380	-0.790953	-0.080932	0.594969	-1.000000	-1.000000	-1.000000	-1.000000	-1.000000	-1.000000	-1.000000	57.000000	0.000000	-1.000000	-1.000000	384267.000000	1775777492.623339
-11566.350000	-6814.755000	4250.970000	29241.810000	20303.730000	12994.155000	-7547.040000	8604.495000	1.050679	0.291017	1.945555	3.060835	7.749175	7.665920	-1.092535	-0.553477	-0.640920	2.121140	-0.198380	-0.790953	-0.080932	0.594969	-1.000000	-1.000000	-1.000000	-1.000000	-1.000000	-1.000000	-1.000000	57.000000	0.000000	-1.000000	-1.000000	384268.000000	1775777492.623366
-11564.055000	-6816.150000	4248.585000	29240.370000	20307.555000	12996.585000	-7542.315000	8604.270000	2.109734	1.853079	3.637462	4.903348	7.589989	2.170407	0.202479	-0.361509	-0.640920	2.121140	-0.198380	-0.790953	-0.080932	0.594969	-1.000000	-1.000000	-1.000000	-1.000000	-1.000000	-1.000000	-1.000000	57.000000	0.000000	-1.000000	-1.000000	384269.000000	1775777492.640766
-11567.430000	-6820.920000	4241.565000	29233.170000	20305.170000	13005.855000	-7545.240000	8597.610000	1.388818	1.709681	2.868610	4.237425	5.716305	-2.418844	0.768895	-1.005995	-0.640920	2.121140	-0.198380	-0.790953	-0.080932	0.594969	-1.000000	-1.000000	-1.000000	-1.000000	-1.000000	-1.000000	-1.000000	57.000000	0.000000	-1.000000	-1.000000	384270.000000	1775777492.640793
-11560.905000	-6815.430000	4247.055000	29238.660000	20302.515000	13010.760000	-7542.720000	8602.380000	-0.528719	0.140685	0.300520	1.397310	1.843694	-3.295269	0.580624	-1.759872	-0.640920	2.121140	-0.198380	-0.790953	-0.080932	0.594969	-1.000000	-1.000000	-1.000000	-1.000000	-1.000000	-1.000000	-1.000000	57.000000	0.000000	-1.000000	-1.000000	384271.000000	1775777492.640839
-11559.105000	-6815.115000	4247.235000	29236.950000	20294.370000	13008.420000	-7541.190000	8605.170000	-2.099082	-1.321356	-2.011882	-1.759785	-3.361891	-1.220306	-0.004454	-1.525248	-0.640920	2.121140	-0.198380	-0.790953	-0.080932	0.594969	-1.000000	-1.000000	-1.000000	-1.000000	-1.000000	-1.000000	-1.000000	57.000000	0.000000	-1.000000	-1.000000	384272.000000	1775777492.640851
-11555.820000	-6812.055000	4253.580000	29246.175000	20306.925000	13018.680000	-7537.320000	8606.295000	-2.212186	-1.433561	-2.346039	-3.216424	-7.813183	1.178812	-0.364768	0.126836	-0.640920	2.121140	-0.198380	-0.790953	-0.080932	0.594969	-1.000000	-1.000000	-1.000000	-1.000000	-1.000000	-1.000000	-1.000000	57.000000	0.000000	-1.000000	-1.000000	384273.000000	1775777492.640869
-11551.815000	-6810.435000	4255.605000	29248.785000	20304.225000	13015.305000	-7536.690000	8606.745000	-1.010230	-0.280936	-0.658395	-2.274360	-8.993917	2.077013	-0.150572	2.292436	-0.640920	2.121140	-0.198380	-0.790953	-0.080932	0.594969	-1.000000	-1.000000	-1.000000	-1.000000	-1.000000	-1.000000	-1.000000	57.000000	0.000000	-1.000000	-1.000000	384274.000000	1775777492.640881
-11555.595000	-6816.330000	4248.180000	29239.920000	20294.280000	13002.570000	-7542.180000	8602.155000	0.484009	1.038159	1.503222	-0.087589	-6.481970	0.915934	0.259965	3.443855	-0.640920	2.121140	-0.198380	-0.790953	-0.080932	0.594969	-1.000000	-1.000000	-1.000000	-1.000000	-1.000000	-1.000000	-1.000000	57.000000	0.000000	-1.000000	-1.000000	384275.000000	1775777492.640896
-11555.505000	-6819.435000	4244.805000	29235.645000	20283.885000	12994.020000	-7541.280000	8600.085000	1.132969	1.288642	2.157252	1.088960	-2.741669	-2.210003	0.157518	2.688137	-0.640920	2.121140	-0.198380	-0.790953	-0.080932	0.594969	-1.000000	-1.000000	-1.000000	-1.000000	-1.000000	-1.000000	-1.000000	57.000000	0.000000	-1.000000	-1.000000	384276.000000	1775777492.640908
-11551.275000	-6816.780000	4246.920000	29237.400000	20282.670000	12990.330000	-7536.870000	8602.065000	0.652640	0.267043	0.776985	0.239820	-0.210773	-5.858925	-0.402027	0.525154	-0.320460	2.151660	0.091560	-0.789244	-0.078003	0.595824	-1.000000	-1.000000	-1.000000	-1.000000	-1.000000	-1.000000	-1.000000	57.000000	0.000000	-1.000000	-1.000000	384277.000000	1775777492.655902
-11545.920000	-6812.010000	4249.620000	29240.325000	20284.200000	12986.460000	-7533.045000	8604.135000	-0.047062	-0.811619	-1.119888	-1.285435	1.095057	-7.500072	-0.508007	-1.469190	-0.320460	2.151660	0.091560	-0.789244	-0.078003	0.595824	-1.000000	-1.000000	-1.000000	-1.000000	-1.000000	-1.000000	-1.000000	57.000000	0.000000	-1.000000	-1.000000	384278.000000	1775777492.655928
-11540.745000	-6805.620000	4256.505000	29246.085000	20291.220000	12989.835000	-7531.875000	8606.520000	0.041918	-0.597674	-1.658922	-1.532389	2.593395	-5.524657	0.304328	-2.011796	-0.320460	2.151660	0.091560	-0.789244	-0.078003	0.595824	-1.000000	-1.000000	-1.000000	-1.000000	-1.000000	-1.000000	-1.000000	57.000000	0.000000	-1.000000	-1.000000	384279.000000	1775777492.655957
-11544.705000	-6809.805000	4251.195000	29238.660000	20286.720000	12990.105000	-7538.355000	8601.615000	0.795812	0.842645	-0.483642	-0.141533	4.789320	-0.481405	1.264322	-1.198642	-0.320460	2.151660	0.091560	-0.789244	-0.078003	0.595824	-1.000000	-1.000000	-1.000000	-1.000000	-1.000000	-1.000000	-1.000000	57.000000	0.000000	-1.000000	-1.000000	384280.000000	1775777492.655970
-11541.555000	-6804.810000	4255.155000	29242.035000	20293.830000	12991.995000	-7533.855000	8606.655000	1.153931	2.095829	1.096913	1.479311	6.536896	5.301110	1.268344	-0.101595	-0.320460	2.151660	0.091560	-0.789244	-0.078003	0.595824	-1.000000	-1.000000	-1.000000	-1.000000	-1.000000	-1.000000	-1.000000	57.000000	0.000000	-1.000000	-1.000000	384281.000000	1775777492.655986
-11546.280000	-6811.245000	4249.080000	29238.615000	20292.930000	12999.105000	-7533.045000	8604.270000	0.441931	1.952711	1.636890	1.979336	6.522211	9.230677	0.350379	0.522114	-0.320460	2.151660	0.091560	-0.789244	-0.078003	0.595824	-1.000000	-1.000000	-1.000000	-1.000000	-1.000000	-1.000000	-1.000000	57.000000	0.000000	-1.000000	-1.000000	384282.000000	1775777492.655998
-11549.790000	-6813.270000	4248.945000	29241.180000	20299.905000	13019.760000	-7528.365000	8600.625000	-1.081720	0.302682	0.754061	1.301778	4.587273	10.306725	-0.455665	0.504353	-0.320460	2.151660	0.091560	-0.789244	-0.078003	0.595824	-1.000000	-1.000000	-1.000000	-1.000000	-1.000000	-1.000000	-1.000000	57.000000	0.000000	-1.000000	-1.000000	384283.000000	1775777492.656011
-11544.435000	-6805.575000	4255.785000	29249.550000	20312.955000	13031.685000	-7517.880000	8605.035000	-2.505259	-1.833711	-0.718177	0.379493	1.800385	9.306826	-0.292650	-0.034465	-0.320460	2.151660	0.091560	-0.789244	-0.078003	0.595824	-1.000000	-1.000000	-1.000000	-1.000000	-1.000000	-1.000000	-1.000000	57.000000	0.000000	-1.000000	-1.000000	384284.000000	1775777492.656022
-11546.370000	-6810.300000	4246.560000	29236.545000	20298.510000	13009.365000	-7522.785000	8603.325000	-2.696588	-2.887363	-1.543425	-0.038545	-0.715551	6.405921	0.758119	-0.547816	-0.320460	2.151660	0.091560	-0.789244	-0.078003	0.595824	-1.000000	-1.000000	-1.000000	-1.000000	-1.000000	-1.000000	-1.000000	57.000000	0.000000	-1.000000	-1.000000	384285.000000	1775777492.670427
-11547.090000	-6813.765000	4240.755000	29228.490000	20289.420000	12994.830000	-7522.920000	8602.560000	-1.386112	-2.396170	-1.617858	-0.566035	-3.317416	0.187643	1.463707	-0.581632	-0.320460	2.151660	0.091560	-0.789244	-0.078003	0.595824	-1.000000	-1.000000	-1.000000	-1.000000	-1.000000	-1.000000	-1.000000	57.000000	0.000000	-1.000000	-1.000000	384286.000000	1775777492.670453
-11546.415000	-6813.405000	4240.620000	29232.495000	20288.430000	12997.080000	-7520.760000	8601.345000	0.514073	-1.258346	-1.628636	-1.876666	-6.481989	-8.712137	0.742236	-0.306308	-0.122080	2.289000	2.807840	-0.787046	-0.076416	0.597105	-1.000000	-1.000000	-1.000000	-1.000000	-1.000000	-1.000000	-1.000000	57.000000	0.000000	-1.000000	-1.000000	384287.000000	1775777492.670483
-11539.620000	-6805.530000	4251.735000	29245.770000	20300.805000	13007.655000	-7516.170000	8605.305000	2.097048	-0.049555	-1.264283	-2.632232	-8.426863	-15.312864	-0.861338	0.015848	-0.122080	2.289000	2.807840	-0.787046	-0.076416	0.597105	-1.000000	-1.000000	-1.000000	-1.000000	-1.000000	-1.000000	-1.000000	57.000000	0.000000	-1.000000	-1.000000	384288.000000	1775777492.670497
-11539.530000	-6803.280000	4257.225000	29252.115000	20308.095000	13010.355000	-7517.160000	8605.080000	3.080727	1.411634	0.479143	-0.936118	-6.572700	-14.648843	-1.990392	0.419337	-0.122080	2.289000	2.807840	-0.787046	-0.076416	0.597105	-1.000000	-1.000000	-1.000000	-1.000000	-1.000000	-1.000000	-1.000000	57.000000	0.000000	-1.000000	-1.000000	384289.000000	1775777492.670512
-11543.535000	-6807.375000	4254.120000	29247.930000	20303.190000	13007.610000	-7524.180000	8599.770000	3.164012	2.797092	3.205273	2.584127	-1.152418	-7.075103	-2.216850	0.745497	-0.122080	2.289000	2.807840	-0.787046	-0.076416	0.597105	-1.000000	-1.000000	-1.000000	-1.000000	-1.000000	-1.000000	-1.000000	57.000000	0.000000	-1.000000	-1.000000	384290.000000	1775777492.670524
-11534.670000	-6801.480000	4260.330000	29251.575000	20312.370000	13019.040000	-7517.385000	8606.385000	2.089395	3.112698	4.917609	4.999331	4.469588	2.520180	-1.993493	0.633588	-0.122080	2.289000	2.807840	-0.787046	-0.076416	0.597105	-1.000000	-1.000000	-1.000000	-1.000000	-1.000000	-1.000000	-1.000000	57.000000	0.000000	-1.000000	-1.000000	384291.000000	1775777492.670538
-11532.105000	-6801.795000	4259.655000	29249.955000	20305.755000	13007.790000	-7515.495000	8607.105000	0.527313	2.088963	4.268739	4.327650	7.120183	9.216513	-1.329263	0.304712	-0.122080	2.289000	2.807840	-0.787046	-0.076416	0.597105	-1.000000	-1.000000	-1.000000	-1.000000	-1.000000	-1.000000	-1.000000	57.000000	0.000000	-1.000000	-1.000000	384292.000000	1775777492.670549
-11536.380000	-6808.815000	4251.780000	29239.965000	20288.340000	12989.340000	-7520.850000	8601.525000	-0.654640	0.273955	1.505210	0.964334	5.596201	10.160353	-0.084904	0.129595	-0.122080	2.289000	2.807840	-0.787046	-0.076416	0.597105	-1.000000	-1.000000	-1.000000	-1.000000	-1.000000	-1.000000	-1.000000	57.000000	0.000000	-1.000000	-1.000000	384293.000000	1775777492.673401
-11534.715000	-6807.870000	4251.780000	29241.360000	20290.770000	12992.715000	-7516.530000	8602.245000	-1.508200	-1.802070	-2.287719	-3.348466	0.672589	5.405972	1.118127	-0.163479	-0.122080	2.289000	2.807840	-0.787046	-0.076416	0.597105	-1.000000	-1.000000	-1.000000	-1.000000	-1.000000	-1.000000	-1.000000	57.000000	0.000000	-1.000000	-1.000000	384294.000000	1775777492.673428
-11534.265000	-6805.170000	4253.850000	29242.035000	20287.170000	12986.640000	-7515.405000	8600.940000	-2.225960	-3.315736	-5.364961	-6.306649	-4.568693	-1.325405	1.735969	-0.743067	-0.122080	2.289000	2.807840	-0.787046	-0.076416	0.597105	-1.000000	-1.000000	-1.000000	-1.000000	-1.000000	-1.000000	-1.000000	57.000000	0.000000	-1.000000	-1.000000	384295.000000	1775777492.687129
-11530.755000	-6800.715000	4258.665000	29243.610000	20281.005000	12971.970000	-7518.015000	8601.480000	-2.427482	-3.202660	-5.916656	-6.148867	-6.767639	-5.688043	1.799733	-1.170831	-0.122080	2.289000	2.807840	-0.787046	-0.076416	0.597105	-1.000000	-1.000000	-1.000000	-1.000000	-1.000000	-1.000000	-1.000000	57.000000	0.000000	-1.000000	-1.000000	384296.000000	1775777492.687154
-11525.850000	-6798.330000	4263.030000	29253.105000	20303.415000	12998.925000	-7510.365000	8606.835000	-1.681658	-1.291282	-3.497998	-2.894190	-4.735421	-5.769931	1.461355	-0.923748	-1.236060	1.007160	2.563680	-0.788389	-0.077148	0.596190	-1.000000	-1.000000	-1.000000	-1.000000	-1.000000	-1.000000	-1.000000	57.000000	0.000000	-1.000000	-1.000000	384297.000000	1775777492.687180
-11531.970000	-6805.440000	4255.695000	29248.425000	20321.190000	13024.530000	-7506.450000	8602.245000	-0.255905	1.138594	0.332137	1.727931	1.019622	-1.034570	1.117273	0.041623	-1.236060	1.007160	2.563680	-0.788389	-0.077148	0.596190	-1.000000	-1.000000	-1.000000	-1.000000	-1.000000	-1.000000	-1.000000	57.000000	0.000000	-1.000000	-1.000000	384298.000000	1775777492.687192
-11529.855000	-6802.560000	4258.755000	29248.695000	20317.320000	13010.445000	-7506.945000	8602.920000	0.826563	2.330161	3.081109	5.133053	8.057529	6.732640	1.045456	1.015196	-1.236060	1.007160	2.563680	-0.788389	-0.077148	0.596190	-1.000000	-1.000000	-1.000000	-1.000000	-1.000000	-1.000000	-1.000000	57.000000	0.000000	-1.000000	-1.000000	384299.000000	1775777492.689794
-11534.895000	-6809.940000	4249.755000	29233.170000	20309.130000	13018.680000	-7509.915000	8596.935000	0.833143	1.664752	3.340003	5.272107	11.618067	11.968494	0.745626	1.135583	-1.236060	1.007160	2.563680	-0.788389	-0.077148	0.596190	-1.000000	-1.000000	-1.000000	-1.000000	-1.000000	-1.000000	-1.000000	57.000000	0.000000	-1.000000	-1.000000	384300.000000	1775777492.689818
-11529.720000	-6808.815000	4250.880000	29235.735000	20301.525000	13025.115000	-7500.870000	8600.445000	0.091703	-0.081433	1.537358	2.109758	8.234177	10.429218	-0.201321	0.327131	-1.236060	1.007160	2.563680	-0.788389	-0.077148	0.596190	-1.000000	-1.000000	-1.000000	-1.000000	-1.000000	-1.000000	-1.000000	57.000000	0.000000	-1.000000	-1.000000	384301.000000	1775777492.690381
-11535.570000	-6817.500000	4240.935000	29231.010000	20287.080000	13005.180000	-7506.135000	8592.480000	-0.535022	-1.725746	-0.893207	-2.064121	-0.719154	3.138903	-1.277388	-0.728447	-1.236060	1.007160	2.563680	-0.788389	-0.077148	0.596190	-1.000000	-1.000000	-1.000000	-1.000000	-1.000000	-1.000000	-1.000000	57.000000	0.000000	-1.000000	-1.000000	384302.000000	1775777492.690401
-11534.220000	-6812.505000	4243.725000	29230.020000	20283.030000	12991.860000	-7507.890000	8592.975000	-0.605583	-2.387754	-2.535702	-4.417812	-10.205740	-6.456925	-1.981037	-1.405371	-1.236060	1.007160	2.563680	-0.788389	-0.077148	0.596190	-1.000000	-1.000000	-1.000000	-1.000000	-1.000000	-1.000000	-1.000000	57.000000	0.000000	-1.000000	-1.000000	384303.000000	1775777492.693662
-11531.205000	-6807.240000	4250.970000	29238.525000	20298.870000	13001.490000	-7504.740000	8597.970000	-0.163413	-1.507719	-2.348351	-3.660524	-14.693100	-14.323111	-2.303450	-1.309261	-1.236060	1.007160	2.563680	-0.788389	-0.077148	0.596190	-1.000000	-1.000000	-1.000000	-1.000000	-1.000000	-1.000000	-1.000000	57.000000	0.000000	-1.000000	-1.000000	384304.000000	1775777492.693688
-11528.775000	-6802.515000	4259.835000	29247.255000	20310.660000	12998.970000	-7515.990000	8595.720000	0.728552	0.913225	0.086863	-0.192525	-11.021288	-16.186863	-2.226815	-0.204817	-1.236060	1.007160	2.563680	-0.788389	-0.077148	0.596190	-1.000000	-1.000000	-1.000000	-1.000000	-1.000000	-1.000000	-1.000000	57.000000	0.000000	-1.000000	-1.000000	384305.000000	1775777492.697834
-11518.740000	-6797.970000	4259.880000	29248.110000	20320.380000	13008.060000	-7504.515000	8605.755000	1.935299	3.768949	3.699061	4.215692	-0.883189	-10.618530	-1.714538	1.534472	-1.236060	1.007160	2.563680	-0.788389	-0.077148	0.596190	-1.000000	-1.000000	-1.000000	-1.000000	-1.000000	-1.000000	-1.000000	57.000000	0.000000	-1.000000	-1.000000	384306.000000	1775777492.697861
-11517.840000	-6799.590000	4257.765000	29245.860000	20313.585000	13018.815000	-7497.315000	8607.645000	3.058514	5.302888	6.005325	6.838310	9.572930	-0.453759	-0.357163	3.139053	-2.746800	1.464960	0.976640	-0.789671	-0.077881	0.593932	-1.000000	-1.000000	-1.000000	-1.000000	-1.000000	-1.000000	-1.000000	57.000000	0.000000	-1.000000	-1.000000	384307.000000	1775777492.701066
-11521.395000	-6801.840000	4255.830000	29242.980000	20301.120000	13005.405000	-7500.285000	8605.485000	3.236052	4.287660	5.055732	5.738566	13.777742	9.160966	1.991664	3.749931	-2.746800	1.464960	0.976640	-0.789671	-0.077881	0.593932	-1.000000	-1.000000	-1.000000	-1.000000	-1.000000	-1.000000	-1.000000	57.000000	0.000000	-1.000000	-1.000000	384308.000000	1775777492.701083
-11518.425000	-6797.430000	4259.160000	29246.445000	20298.420000	12997.980000	-7496.505000	8608.230000	1.689830	1.040782	1.276990	1.490562	9.447860	13.196352	4.005107	2.650207	-2.746800	1.464960	0.976640	-0.789671	-0.077881	0.593932	-1.000000	-1.000000	-1.000000	-1.000000	-1.000000	-1.000000	-1.000000	57.000000	0.000000	-1.000000	-1.000000	384309.000000	1775777492.706605
-11522.880000	-6803.955000	4250.835000	29236.545000	20283.345000	12992.445000	-7497.990000	8603.775000	-1.128773	-2.686600	-3.070901	-3.405940	-0.022744	9.911797	4.146694	0.073758	-2.746800	1.464960	0.976640	-0.789671	-0.077881	0.593932	-1.000000	-1.000000	-1.000000	-1.000000	-1.000000	-1.000000	-1.000000	57.000000	0.000000	-1.000000	-1.000000	384310.000000	1775777492.706630
-11519.505000	-6801.345000	4252.455000	29239.560000	20293.020000	13004.370000	-7486.110000	8608.635000	-3.754141	-5.170731	-5.953159	-6.655437	-8.563882	2.619895	2.489893	-2.740481	-2.746800	1.464960	0.976640	-0.789671	-0.077881	0.593932	-1.000000	-1.000000	-1.000000	-1.000000	-1.000000	-1.000000	-1.000000	57.000000	0.000000	-1.000000	-1.000000	384311.000000	1775777492.709220
-11526.435000	-6807.600000	4245.930000	29233.845000	20301.255000	13016.700000	-7487.505000	8600.040000	-4.936516	-5.675435	-6.509717	-7.185020	-11.185763	-2.953123	0.404301	-4.496283	-2.746800	1.464960	0.976640	-0.789671	-0.077881	0.593932	-1.000000	-1.000000	-1.000000	-1.000000	-1.000000	-1.000000	-1.000000	57.000000	0.000000	-1.000000	-1.000000	384312.000000	1775777492.709245
-11526.660000	-6807.420000	4248.675000	29236.230000	20299.230000	13014.900000	-7490.160000	8595.720000	-4.424994	-4.413146	-4.870741	-5.111999	-6.804867	-3.613888	-1.202363	-4.815564	-2.746800	1.464960	0.976640	-0.789671	-0.077881	0.593932	-1.000000	-1.000000	-1.000000	-1.000000	-1.000000	-1.000000	-1.000000	57.000000	0.000000	-1.000000	-1.000000	384313.000000	1775777492.713815
-11518.560000	-6799.230000	4258.620000	29247.345000	20307.960000	13017.735000	-7487.685000	8600.085000	-2.553501	-1.946759	-1.604774	-1.286907	1.064125	-0.973202	-2.441799	-3.957754	-2.746800	1.464960	0.976640	-0.789671	-0.077881	0.593932	-1.000000	-1.000000	-1.000000	-1.000000	-1.000000	-1.000000	-1.000000	57.000000	0.000000	-1.000000	-1.000000	384314.000000	1775777492.713841
-11515.860000	-6796.665000	4261.545000	29250.270000	20308.050000	13016.970000	-7489.305000	8600.355000	0.379941	1.271143	2.534239	3.209810	7.497562	1.311560	-3.304652	-1.928413	-2.746800	1.464960	0.976640	-0.789671	-0.077881	0.593932	-1.000000	-1.000000	-1.000000	-1.000000	-1.000000	-1.000000	-1.000000	57.000000	0.000000	-1.000000	-1.000000	384315.000000	1775777492.716952
-11514.555000	-6793.740000	4264.020000	29248.515000	20299.635000	13006.530000	-7495.515000	8598.060000	3.513330	4.336255	6.064068	6.672724	9.352869	1.046140	-3.521460	0.926281	-2.746800	1.464960	0.976640	-0.789671	-0.077881	0.593932	-1.000000	-1.000000	-1.000000	-1.000000	-1.000000	-1.000000	-1.000000	57.000000	0.000000	-1.000000	-1.000000	384316.000000	1775777492.716971
-11511.765000	-6789.060000	4268.385000	29249.505000	20298.600000	12997.575000	-7496.190000	8599.185000	5.337693	5.906194	7.239152	7.206404	6.126512	-1.798968	-3.139860	3.394154	-2.777320	1.663340	0.457800	-0.789060	-0.079590	0.591612	-1.000000	-1.000000	-1.000000	-1.000000	-1.000000	-1.000000	-1.000000	57.000000	0.000000	-1.000000	-1.000000	384317.000000	1775777492.726002
-11507.400000	-6787.125000	4269.645000	29253.690000	20309.490000	13004.550000	-7486.965000	8604.045000	5.014962	5.300845	5.528421	4.563775	0.302588	-5.291724	-2.014457	4.513896	-2.777320	1.663340	0.457800	-0.789060	-0.079590	0.591612	-1.000000	-1.000000	-1.000000	-1.000000	-1.000000	-1.000000	-1.000000	57.000000	0.000000	-1.000000	-1.000000	384318.000000	1775777492.726028
-11507.400000	-6792.120000	4263.120000	29250.720000	20312.955000	13015.620000	-7478.055000	8606.295000	2.969765	2.772917	1.740688	0.438298	-4.067992	-6.260105	0.393684	4.331721	-2.777320	1.663340	0.457800	-0.789060	-0.079590	0.591612	-1.000000	-1.000000	-1.000000	-1.000000	-1.000000	-1.000000	-1.000000	57.000000	0.000000	-1.000000	-1.000000	384319.000000	1775777492.726056
-11512.080000	-6802.290000	4251.870000	29241.585000	20304.405000	13010.715000	-7477.605000	8604.810000	0.095604	-1.049311	-2.945451	-3.372857	-4.989503	-3.123008	3.715277	3.228106	-2.777320	1.663340	0.457800	-0.789060	-0.079590	0.591612	-1.000000	-1.000000	-1.000000	-1.000000	-1.000000	-1.000000	-1.000000	57.000000	0.000000	-1.000000	-1.000000	384320.000000	1775777492.726070
-11510.055000	-6799.005000	4254.165000	29240.055000	20301.480000	13004.280000	-7476.840000	8605.530000	-2.772569	-5.008654	-7.073105	-5.991583	-3.851275	1.880401	6.041562	1.383679	-2.777320	1.663340	0.457800	-0.789060	-0.079590	0.591612	-1.000000	-1.000000	-1.000000	-1.000000	-1.000000	-1.000000	-1.000000	57.000000	0.000000	-1.000000	-1.000000	384321.000000	1775777492.729084
-11505.465000	-6789.780000	4265.595000	29249.010000	20320.020000	13020.840000	-7471.980000	8606.385000	-4.548343	-6.968903	-8.449354	-6.589708	-2.356980	5.265471	5.675750	-0.810794	-2.777320	1.663340	0.457800	-0.789060	-0.079590	0.591612	-1.000000	-1.000000	-1.000000	-1.000000	-1.000000	-1.000000	-1.000000	57.000000	0.000000	-1.000000	-1.000000	384322.000000	1775777492.729108
-11507.850000	-6788.475000	4270.185000	29255.265000	20330.910000	13031.640000	-7473.555000	8601.885000	-4.344281	-5.241006	-5.485515	-4.261205	-0.168982	6.266083	2.828287	-2.670322	-2.777320	1.663340	0.457800	-0.789060	-0.079590	0.591612	-1.000000	-1.000000	-1.000000	-1.000000	-1.000000	-1.000000	-1.000000	57.000000	0.000000	-1.000000	-1.000000	384323.000000	1775777492.733016
-11508.390000	-6789.240000	4268.745000	29254.365000	20326.005000	13028.895000	-7476.705000	8600.220000	-2.545519	-0.797571	0.460537	0.337355	2.828891	5.881840	-1.027828	-3.751481	-2.777320	1.663340	0.457800	-0.789060	-0.079590	0.591612	-1.000000	-1.000000	-1.000000	-1.000000	-1.000000	-1.000000	-1.000000	57.000000	0.000000	-1.000000	-1.000000	384324.000000	1775777492.733036
-11505.465000	-6789.510000	4265.145000	29249.010000	20317.095000	13013.505000	-7473.555000	8604.270000	-0.384314	3.348449	5.556837	4.473422	4.403913	3.784832	-4.324783	-3.794233	-2.777320	1.663340	0.457800	-0.789060	-0.079590	0.591612	-1.000000	-1.000000	-1.000000	-1.000000	-1.000000	-1.000000	-1.000000	57.000000	0.000000	-1.000000	-1.000000	384325.000000	1775777492.737391
-11495.070000	-6782.760000	4265.820000	29247.345000	20307.465000	13006.530000	-7466.760000	8616.735000	1.481010	5.036552	6.831591	5.525190	2.321883	-0.899032	-5.634288	-2.326389	-2.777320	1.663340	0.457800	-0.789060	-0.079590	0.591612	-1.000000	-1.000000	-1.000000	-1.000000	-1.000000	-1.000000	-1.000000	57.000000	0.000000	-1.000000	-1.000000	384326.000000	1775777492.737413
-11491.605000	-6778.440000	4268.070000	29248.200000	20304.045000	13006.755000	-7463.565000	8620.470000	3.086383	4.395613	4.440446	3.342344	-2.597975	-6.674667	-4.254468	0.712821	-1.037680	1.678600	0.396760	-0.791380	-0.080627	0.590880	-1.000000	-1.000000	-1.000000	-1.000000	-1.000000	-1.000000	-1.000000	57.000000	0.000000	-1.000000	-1.000000	384327.000000	1775777492.743315
-11496.285000	-6782.130000	4263.660000	29245.770000	20305.575000	13019.175000	-7459.920000	8616.465000	3.972276	2.586417	0.673874	-0.023464	-6.864787	-9.719683	-1.047716	3.833234	-1.037680	1.678600	0.396760	-0.791380	-0.080627	0.590880	-1.000000	-1.000000	-1.000000	-1.000000	-1.000000	-1.000000	-1.000000	57.000000	0.000000	-1.000000	-1.000000	384328.000000	1775777492.743342
-11498.445000	-6782.490000	4264.155000	29248.920000	20309.895000	13018.455000	-7455.465000	8615.880000	3.068490	0.280611	-2.376740	-2.386187	-7.217492	-7.386242	2.105623	4.702376	-1.037680	1.678600	0.396760	-0.791380	-0.080627	0.590880	-1.000000	-1.000000	-1.000000	-1.000000	-1.000000	-1.000000	-1.000000	57.000000	0.000000	-1.000000	-1.000000	384329.000000	1775777492.745025
-11507.130000	-6789.555000	4261.185000	29248.425000	20314.305000	13015.890000	-7466.265000	8604.495000	0.137991	-2.189336	-3.766358	-2.757758	-3.116810	-1.157197	3.490488	2.353547	-1.037680	1.678600	0.396760	-0.791380	-0.080627	0.590880	-1.000000	-1.000000	-1.000000	-1.000000	-1.000000	-1.000000	-1.000000	57.000000	0.000000	-1.000000	-1.000000	384330.000000	1775777492.745043
-11501.640000	-6784.740000	4269.555000	29256.480000	20324.115000	13025.835000	-7464.465000	8606.745000	-3.405589	-4.127950	-3.314341	-1.368026	3.186310	4.879858	2.314246	-1.920653	-1.037680	1.678600	0.396760	-0.791380	-0.080627	0.590880	-1.000000	-1.000000	-1.000000	-1.000000	-1.000000	-1.000000	-1.000000	57.000000	0.000000	-1.000000	-1.000000	384331.000000	1775777492.749996
-11504.880000	-6788.925000	4267.260000	29252.520000	20319.705000	13022.280000	-7471.935000	8602.155000	-5.333941	-4.572790	-1.342889	0.762083	8.324196	7.842084	-0.609639	-5.462584	-1.037680	1.678600	0.396760	-0.791380	-0.080627	0.590880	-1.000000	-1.000000	-1.000000	-1.000000	-1.000000	-1.000000	-1.000000	57.000000	0.000000	-1.000000	-1.000000	384332.000000	1775777492.750013
-11500.965000	-6788.205000	4267.395000	29251.125000	20310.705000	13004.640000	-7471.395000	8604.360000	-4.408105	-3.211322	1.065124	2.185024	9.373213	6.796547	-3.307149	-6.109615	-1.037680	1.678600	0.396760	-0.791380	-0.080627	0.590880	-1.000000	-1.000000	-1.000000	-1.000000	-1.000000	-1.000000	-1.000000	57.000000	0.000000	-1.000000	-1.000000	384333.000000	1775777492.759148
-11495.250000	-6785.595000	4269.015000	29251.980000	20307.960000	13000.680000	-7468.920000	8606.340000	-1.186822	-0.720408	2.528972	1.932423	5.479183	2.089275	-4.048848	-3.583439	-1.037680	1.678600	0.396760	-0.791380	-0.080627	0.590880	-1.000000	-1.000000	-1.000000	-1.000000	-1.000000	-1.000000	-1.000000	57.000000	0.000000	-1.000000	-1.000000	384334.000000	1775777492.759174
-11489.670000	-6780.690000	4272.885000	29258.235000	20325.645000	13026.060000	-7460.820000	8609.220000	2.771250	1.977710	2.584507	0.536242	-0.700780	-3.330004	-2.159490	0.715987	-1.037680	1.678600	0.396760	-0.791380	-0.080627	0.590880	-1.000000	-1.000000	-1.000000	-1.000000	-1.000000	-1.000000	-1.000000	57.000000	0.000000	-1.000000	-1.000000	384335.000000	1775777492.760437
-11486.655000	-6780.060000	4271.220000	29259.045000	20324.655000	13028.310000	-7456.140000	8610.480000	5.713823	4.068631	1.722894	-0.597753	-4.722737	-4.944727	1.627767	4.674075	-1.037680	1.678600	0.396760	-0.791380	-0.080627	0.590880	-1.000000	-1.000000	-1.000000	-1.000000	-1.000000	-1.000000	-1.000000	57.000000	0.000000	-1.000000	-1.000000	384336.000000	1775777492.760456
-11483.505000	-6778.215000	4270.545000	29253.510000	20309.445000	13003.920000	-7458.300000	8610.300000	6.316349	4.776752	0.458049	-0.918069	-4.999570	-2.176786	5.230132	6.504262	1.770160	2.029580	-0.305200	-0.795713	-0.080078	0.591063	-1.000000	-1.000000	-1.000000	-1.000000	-1.000000	-1.000000	-1.000000	57.000000	0.000000	-1.000000	-1.000000	384337.000000	1775777492.765164
-11483.505000	-6777.270000	4270.770000	29250.090000	20319.885000	13005.495000	-7458.030000	8608.770000	4.336882	3.763580	-0.888112	-1.111073	-3.601953	0.618376	6.348416	5.550748	1.770160	2.029580	-0.305200	-0.795713	-0.080078	0.591063	-1.000000	-1.000000	-1.000000	-1.000000	-1.000000	-1.000000	-1.000000	57.000000	0.000000	-1.000000	-1.000000	384338.000000	1775777492.765186
-11482.605000	-6773.715000	4277.295000	29258.055000	20325.870000	13016.340000	-7455.060000	8607.150000	0.697119	1.546098	-1.767342	-1.547835	-2.059832	0.738973	4.313395	2.471095	1.770160	2.029580	-0.305200	-0.795713	-0.080078	0.591063	-1.000000	-1.000000	-1.000000	-1.000000	-1.000000	-1.000000	-1.000000	57.000000	0.000000	-1.000000	-1.000000	384339.000000	1775777492.768102
-11486.430000	-6776.280000	4275.765000	29256.120000	20328.660000	13040.685000	-7453.710000	8600.085000	-3.100075	-0.860369	-1.632511	-1.499524	-0.103814	0.410089	0.606660	-1.305395	1.770160	2.029580	-0.305200	-0.795713	-0.080078	0.591063	-1.000000	-1.000000	-1.000000	-1.000000	-1.000000	-1.000000	-1.000000	57.000000	0.000000	-1.000000	-1.000000	384340.000000	1775777492.768120
-11488.545000	-6779.925000	4270.500000	29251.080000	20318.985000	13040.640000	-7454.655000	8596.935000	-5.747540	-2.767459	-0.829833	-0.637471	1.795605	2.269286	-2.687801	-4.388795	1.770160	2.029580	-0.305200	-0.795713	-0.080078	0.591063	-1.000000	-1.000000	-1.000000	-1.000000	-1.000000	-1.000000	-1.000000	57.000000	0.000000	-1.000000	-1.000000	384341.000000	1775777492.769561
-11490.120000	-6782.940000	4267.035000	29248.470000	20314.665000	13030.965000	-7453.845000	8596.980000	-6.507348	-3.983715	-0.435230	0.187704	2.083345	4.827178	-4.394230	-5.713835	1.770160	2.029580	-0.305200	-0.795713	-0.080078	0.591063	-1.000000	-1.000000	-1.000000	-1.000000	-1.000000	-1.000000	-1.000000	57.000000	0.000000	-1.000000	-1.000000	384342.000000	1775777492.769577
-11485.035000	-6781.005000	4266.810000	29248.380000	20312.325000	13022.505000	-7448.715000	8604.990000	-5.132853	-4.256492	-0.845634	0.322616	0.315331	4.205930	-4.281617	-4.560739	1.770160	2.029580	-0.305200	-0.795713	-0.080078	0.591063	-1.000000	-1.000000	-1.000000	-1.000000	-1.000000	-1.000000	-1.000000	57.000000	0.000000	-1.000000	-1.000000	384343.000000	1775777492.773982
-11477.970000	-6774.120000	4273.020000	29253.735000	20313.405000	13019.040000	-7444.755000	8610.570000	-1.835707	-3.072371	-1.188766	0.232706	-1.944983	-0.692829	-2.598833	-1.030569	1.770160	2.029580	-0.305200	-0.795713	-0.080078	0.591063	-1.000000	-1.000000	-1.000000	-1.000000	-1.000000	-1.000000	-1.000000	57.000000	0.000000	-1.000000	-1.000000	384344.000000	1775777492.774006
-11477.070000	-6772.590000	4273.245000	29254.635000	20316.420000	13019.220000	-7444.080000	8609.580000	2.364329	-0.362094	-0.415263	0.716355	-2.663958	-6.683093	-0.143454	3.318857	1.770160	2.029580	-0.305200	-0.795713	-0.080078	0.591063	-1.000000	-1.000000	-1.000000	-1.000000	-1.000000	-1.000000	-1.000000	57.000000	0.000000	-1.000000	-1.000000	384345.000000	1775777492.785017
-11474.730000	-6771.870000	4273.020000	29251.440000	20311.155000	13016.880000	-7445.970000	8610.075000	5.599444	2.741559	1.287454	1.658367	-1.266620	-9.574046	1.762533	5.997160	1.770160	2.029580	-0.305200	-0.795713	-0.080078	0.591063	-1.000000	-1.000000	-1.000000	-1.000000	-1.000000	-1.000000	-1.000000	57.000000	0.000000	-1.000000	-1.000000	384346.000000	1775777492.785042
-11472.840000	-6770.565000	4276.845000	29255.805000	20308.635000	13015.935000	-7450.920000	8609.085000	6.312857	4.518528	2.703413	2.137428	0.955280	-7.718366	2.016382	5.469263	2.868880	2.136400	0.503580	-0.795103	-0.078125	0.591612	-1.000000	-1.000000	-1.000000	-1.000000	-1.000000	-1.000000	-1.000000	57.000000	0.000000	-1.000000	-1.000000	384347.000000	1775777492.785070
-11476.710000	-6771.105000	4280.040000	29259.720000	20315.205000	13021.335000	-7452.900000	8604.450000	4.341259	4.100436	3.031960	1.786136	2.468080	-2.478905	0.574052	2.218263	2.868880	2.136400	0.503580	-0.795103	-0.078125	0.591612	-1.000000	-1.000000	-1.000000	-1.000000	-1.000000	-1.000000	-1.000000	57.000000	0.000000	-1.000000	-1.000000	384348.000000	1775777492.785083
-11472.165000	-6766.335000	4286.430000	29266.245000	20332.710000	13033.260000	-7447.230000	8606.880000	0.811007	2.027340	2.428566	1.144035	3.307676	3.698237	-1.301914	-1.889546	2.868880	2.136400	0.503580	-0.795103	-0.078125	0.591612	-1.000000	-1.000000	-1.000000	-1.000000	-1.000000	-1.000000	-1.000000	57.000000	0.000000	-1.000000	-1.000000	384349.000000	1775777492.786330
-11470.140000	-6765.120000	4287.825000	29268.810000	20335.320000	13027.545000	-7444.620000	8607.780000	-2.431032	-0.318054	1.406315	0.714495	4.307601	8.487775	-1.880835	-4.691315	2.868880	2.136400	0.503580	-0.795103	-0.078125	0.591612	-1.000000	-1.000000	-1.000000	-1.000000	-1.000000	-1.000000	-1.000000	57.000000	0.000000	-1.000000	-1.000000	384350.000000	1775777492.786348
-11467.395000	-6763.680000	4288.680000	29264.985000	20328.345000	13028.625000	-7440.480000	8609.355000	-3.857496	-1.814686	0.195081	0.256142	4.771936	9.785200	-0.538156	-4.912553	2.868880	2.136400	0.503580	-0.795103	-0.078125	0.591612	-1.000000	-1.000000	-1.000000	-1.000000	-1.000000	-1.000000	-1.000000	57.000000	0.000000	-1.000000	-1.000000	384351.000000	1775777492.795947
-11469.240000	-6768.045000	4279.815000	29251.935000	20308.995000	13014.585000	-7443.540000	8606.250000	-3.323107	-2.334162	-1.378659	-1.076689	2.531624	6.664104	1.634333	-2.969665	2.868880	2.136400	0.503580	-0.795103	-0.078125	0.591612	-1.000000	-1.000000	-1.000000	-1.000000	-1.000000	-1.000000	-1.000000	57.000000	0.000000	-1.000000	-1.000000	384352.000000	1775777492.795974
-11472.165000	-6772.905000	4271.400000	29241.045000	20288.835000	12995.415000	-7448.715000	8600.805000	-1.926151	-2.480072	-3.499178	-3.741518	-3.327099	0.105832	2.771234	-0.532177	2.868880	2.136400	0.503580	-0.795103	-0.078125	0.591612	-1.000000	-1.000000	-1.000000	-1.000000	-1.000000	-1.000000	-1.000000	57.000000	0.000000	-1.000000	-1.000000	384353.000000	1775777492.796001
-11465.145000	-6766.065000	4279.950000	29252.205000	20299.995000	13003.155000	-7443.675000	8604.270000	-0.713678	-2.531471	-5.417842	-6.385143	-10.103256	-7.018321	1.946772	0.965549	2.868880	2.136400	0.503580	-0.795103	-0.078125	0.591612	-1.000000	-1.000000	-1.000000	-1.000000	-1.000000	-1.000000	-1.000000	57.000000	0.000000	-1.000000	-1.000000	384354.000000	1775777492.796014
-11469.960000	-6774.030000	4273.290000	29255.985000	20331.450000	13042.125000	-7434.405000	8601.795000	0.150895	-2.045587	-5.454113	-6.177038	-12.003867	-9.834040	0.259168	1.413827	2.868880	2.136400	0.503580	-0.795103	-0.078125	0.591612	-1.000000	-1.000000	-1.000000	-1.000000	-1.000000	-1.000000	-1.000000	57.000000	0.000000	-1.000000	-1.000000	384355.000000	1775777492.813991
-11464.155000	-6769.080000	4278.510000	29262.060000	20341.710000	13059.540000	-7425.315000	8607.960000	0.809773	-0.838018	-2.937038	-1.907633	-5.249046	-4.550119	-0.334114	1.527271	2.868880	2.136400	0.503580	-0.795103	-0.078125	0.591612	-1.000000	-1.000000	-1.000000	-1.000000	-1.000000	-1.000000	-1.000000	57.000000	0.000000	-1.000000	-1.000000	384356.000000	1775777492.814019
-11465.415000	-6771.195000	4276.530000	29257.155000	20337.930000	13051.620000	-7428.330000	8604.585000	1.258151	0.688378	0.941399	4.084187	6.496890	5.904169	0.589162	1.767841	1.236060	1.861720	2.212700	-0.791685	-0.075317	0.592101	-1.000000	-1.000000	-1.000000	-1.000000	-1.000000	-1.000000	-1.000000	57.000000	0.000000	-1.000000	-1.000000	384357.000000	1775777492.814048
-11452.995000	-6761.565000	4285.395000	29265.030000	20342.205000	13051.215000	-7423.065000	8612.955000	1.624487	2.174338	4.435860	8.052829	14.669672	12.898787	1.511928	2.034015	1.236060	1.861720	2.212700	-0.791685	-0.075317	0.592101	-1.000000	-1.000000	-1.000000	-1.000000	-1.000000	-1.000000	-1.000000	57.000000	0.000000	-1.000000	-1.000000	384358.000000	1775777492.814061
-11450.250000	-6758.505000	4286.385000	29265.840000	20338.740000	13036.140000	-7425.630000	8612.505000	2.143819	3.446398	6.383910	8.160757	13.935785	10.468434	1.008178	2.066352	1.236060	1.861720	2.212700	-0.791685	-0.075317	0.592101	-1.000000	-1.000000	-1.000000	-1.000000	-1.000000	-1.000000	-1.000000	57.000000	0.000000	-1.000000	-1.000000	384359.000000	1775777492.814075
-11455.065000	-6763.500000	4277.385000	29252.925000	20324.295000	13023.090000	-7431.120000	8603.055000	2.428189	3.992164	6.094388	4.883194	5.455842	0.034663	-0.988697	1.444303	1.236060	1.861720	2.212700	-0.791685	-0.075317	0.592101	-1.000000	-1.000000	-1.000000	-1.000000	-1.000000	-1.000000	-1.000000	57.000000	0.000000	-1.000000	-1.000000	384360.000000	1775777492.814086
-11453.940000	-6762.420000	4279.230000	29248.335000	20316.645000	13022.730000	-7427.430000	8600.940000	1.474879	2.956305	3.318521	-0.460165	-5.861902	-11.821849	-3.477196	-0.363373	1.236060	1.861720	2.212700	-0.791685	-0.075317	0.592101	-1.000000	-1.000000	-1.000000	-1.000000	-1.000000	-1.000000	-1.000000	57.000000	0.000000	-1.000000	-1.000000	384361.000000	1775777492.814100
-11450.025000	-6757.965000	4287.780000	29259.225000	20327.760000	13025.970000	-7426.260000	8603.595000	-0.726562	0.477607	-0.619260	-5.537107	-14.160923	-17.858811	-4.837919	-2.779902	1.236060	1.861720	2.212700	-0.791685	-0.075317	0.592101	-1.000000	-1.000000	-1.000000	-1.000000	-1.000000	-1.000000	-1.000000	57.000000	0.000000	-1.000000	-1.000000	384362.000000	1775777492.814111
-11450.205000	-6759.495000	4288.185000	29270.520000	20329.470000	13035.690000	-7420.950000	8603.595000	-2.773990	-1.997072	-3.243248	-7.142827	-15.001206	-14.513414	-3.893521	-4.052655	1.236060	1.861720	2.212700	-0.791685	-0.075317	0.592101	-1.000000	-1.000000	-1.000000	-1.000000	-1.000000	-1.000000	-1.000000	57.000000	0.000000	-1.000000	-1.000000	384363.000000	1775777492.814124
-11454.345000	-6761.745000	4287.510000	29266.290000	20310.480000	13030.155000	-7423.650000	8597.925000	-3.568483	-3.337043	-3.479192	-4.168244	-8.747326	-4.061665	-1.052412	-3.271951	1.236060	1.861720	2.212700	-0.791685	-0.075317	0.592101	-1.000000	-1.000000	-1.000000	-1.000000	-1.000000	-1.000000	-1.000000	57.000000	0.000000	-1.000000	-1.000000	384364.000000	1775777492.814134
-11455.335000	-6761.295000	4289.490000	29266.560000	20321.820000	13035.510000	-7425.810000	8595.225000	-3.223585	-3.481588	-2.301720	0.674530	-0.288085	7.241734	1.891464	-1.322756	1.236060	1.861720	2.212700	-0.791685	-0.075317	0.592101	-1.000000	-1.000000	-1.000000	-1.000000	-1.000000	-1.000000	-1.000000	57.000000	0.000000	-1.000000	-1.000000	384365.000000	1775777492.817222
-11454.030000	-6762.780000	4287.780000	29265.435000	20326.905000	13033.530000	-7428.150000	8597.025000	-2.214241	-2.757534	-1.062295	3.656927	6.245251	13.766442	3.209395	0.500657	1.236060	1.861720	2.212700	-0.791685	-0.075317	0.592101	-1.000000	-1.000000	-1.000000	-1.000000	-1.000000	-1.000000	-1.000000	57.000000	0.000000	-1.000000	-1.000000	384366.000000	1775777492.817245
-11451.870000	-6763.455000	4284.945000	29260.575000	20319.795000	13026.960000	-7429.050000	8601.255000	-0.690709	-1.504988	-0.480653	3.321280	9.629744	13.508166	2.577073	1.849337	-3.692920	1.648080	2.548420	-0.790464	-0.073791	0.591246	-1.000000	-1.000000	-1.000000	-1.000000	-1.000000	-1.000000	-1.000000	57.000000	0.000000	-1.000000	-1.000000	384367.000000	1775777492.821940
-11445.300000	-6760.845000	4283.325000	29255.355000	20317.725000	13022.370000	-7419.465000	8609.985000	1.261467	-0.064345	-0.636569	0.584287	9.449077	7.808963	1.171615	3.060579	-3.692920	1.648080	2.548420	-0.790464	-0.073791	0.591246	-1.000000	-1.000000	-1.000000	-1.000000	-1.000000	-1.000000	-1.000000	57.000000	0.000000	-1.000000	-1.000000	384368.000000	1775777492.821965
-11443.680000	-6757.605000	4286.970000	29260.260000	20321.010000	13026.195000	-7414.155000	8611.920000	3.224555	1.366361	-0.971005	-2.462875	6.093850	0.180502	0.622856	4.169057	-3.692920	1.648080	2.548420	-0.790464	-0.073791	0.591246	-1.000000	-1.000000	-1.000000	-1.000000	-1.000000	-1.000000	-1.000000	57.000000	0.000000	-1.000000	-1.000000	384369.000000	1775777492.826052
-11444.355000	-6755.265000	4291.380000	29266.920000	20317.320000	13015.440000	-7421.220000	8606.880000	4.314448	2.599909	-0.606807	-3.562152	1.510645	-5.577056	1.234952	4.314229	-3.692920	1.648080	2.548420	-0.790464	-0.073791	0.591246	-1.000000	-1.000000	-1.000000	-1.000000	-1.000000	-1.000000	-1.000000	57.000000	0.000000	-1.000000	-1.000000	384370.000000	1775777492.826078
-11434.950000	-6748.515000	4296.960000	29270.610000	20318.490000	12995.865000	-7420.500000	8613.855000	3.857376	3.326286	0.825821	-1.759398	-2.218258	-8.031073	1.563878	2.604987	-3.692920	1.648080	2.548420	-0.790464	-0.073791	0.591246	-1.000000	-1.000000	-1.000000	-1.000000	-1.000000	-1.000000	-1.000000	57.000000	0.000000	-1.000000	-1.000000	384371.000000	1775777492.834698
-11438.775000	-6751.215000	4294.260000	29265.840000	20324.565000	12998.610000	-7425.765000	8609.895000	2.159830	3.224360	2.592872	1.532670	-3.947344	-8.001481	0.439562	-0.438588	-3.692920	1.648080	2.548420	-0.790464	-0.073791	0.591246	-1.000000	-1.000000	-1.000000	-1.000000	-1.000000	-1.000000	-1.000000	57.000000	0.000000	-1.000000	-1.000000	384372.000000	1775777492.834723
-11449.170000	-6759.585000	4286.925000	29258.685000	20329.110000	13031.820000	-7429.365000	8599.185000	-0.284058	1.850745	3.149191	3.534697	-3.382881	-5.271415	-1.717529	-3.547988	-3.692920	1.648080	2.548420	-0.790464	-0.073791	0.591246	-1.000000	-1.000000	-1.000000	-1.000000	-1.000000	-1.000000	-1.000000	57.000000	0.000000	-1.000000	-1.000000	384373.000000	1775777492.834748
-11452.320000	-6764.760000	4283.325000	29258.010000	20329.965000	13050.495000	-7422.030000	8597.655000	-3.270195	-0.985823	1.486956	2.639067	-1.284330	1.540725	-3.439097	-5.923784	-3.692920	1.648080	2.548420	-0.790464	-0.073791	0.591246	-1.000000	-1.000000	-1.000000	-1.000000	-1.000000	-1.000000	-1.000000	57.000000	0.000000	-1.000000	-1.000000	384374.000000	1775777492.834759
-11444.625000	-6759.945000	4287.060000	29260.935000	20329.920000	13031.190000	-7414.065000	8606.700000	-5.630990	-4.125245	-1.476620	-0.075912	0.703036	10.118133	-3.112626	-6.553301	-3.692920	1.648080	2.548420	-0.790464	-0.073791	0.591246	-1.000000	-1.000000	-1.000000	-1.000000	-1.000000	-1.000000	-1.000000	57.000000	0.000000	-1.000000	-1.000000	384375.000000	1775777492.837155
-11444.670000	-6761.430000	4284.000000	29259.405000	20350.260000	13047.660000	-7404.750000	8608.275000	-5.449798	-5.413930	-3.524226	-2.176680	1.600445	14.120472	-0.278196	-4.302730	-3.692920	1.648080	2.548420	-0.790464	-0.073791	0.591246	-1.000000	-1.000000	-1.000000	-1.000000	-1.000000	-1.000000	-1.000000	57.000000	0.000000	-1.000000	-1.000000	384376.000000	1775777492.837174
-11443.230000	-6761.070000	4282.785000	29258.775000	20338.470000	13060.485000	-7396.290000	8609.715000	-2.394321	-3.867404	-3.390333	-2.364810	1.687178	10.588460	3.640953	0.213317	-6.744920	1.983800	2.289000	-0.790769	-0.075317	0.592040	-1.000000	-1.000000	-1.000000	-1.000000	-1.000000	-1.000000	-1.000000	57.000000	0.000000	-1.000000	-1.000000	384377.000000	1775777492.843169
-11441.340000	-6758.100000	4284.585000	29257.425000	20322.270000	13048.650000	-7402.770000	8607.960000	1.688293	-0.526265	-1.557697	-1.128824	0.560252	2.539746	6.097446	4.459596	-6.744920	1.983800	2.289000	-0.790769	-0.075317	0.592040	-1.000000	-1.000000	-1.000000	-1.000000	-1.000000	-1.000000	-1.000000	57.000000	0.000000	-1.000000	-1.000000	384378.000000	1775777492.843195
-11432.205000	-6744.285000	4296.375000	29267.145000	20328.345000	13040.010000	-7404.345000	8611.470000	4.734390	3.028148	1.012342	0.548117	-2.485964	-6.175920	4.992005	6.184252	-6.744920	1.983800	2.289000	-0.790769	-0.075317	0.592040	-1.000000	-1.000000	-1.000000	-1.000000	-1.000000	-1.000000	-1.000000	57.000000	0.000000	-1.000000	-1.000000	384379.000000	1775777492.845768
-11434.635000	-6743.385000	4300.155000	29274.255000	20341.170000	13045.005000	-7402.635000	8606.655000	5.801423	5.734183	3.654264	2.267697	-5.425386	-12.920746	0.551207	4.981039	-6.744920	1.983800	2.289000	-0.790769	-0.075317	0.592040	-1.000000	-1.000000	-1.000000	-1.000000	-1.000000	-1.000000	-1.000000	57.000000	0.000000	-1.000000	-1.000000	384380.000000	1775777492.845786
-11436.840000	-6743.295000	4302.450000	29280.555000	20350.080000	13054.860000	-7402.950000	8603.955000	4.640874	6.527545	5.403462	3.787724	-4.849029	-14.939005	-4.479486	1.856659	-6.744920	1.983800	2.289000	-0.790769	-0.075317	0.592040	-1.000000	-1.000000	-1.000000	-1.000000	-1.000000	-1.000000	-1.000000	57.000000	0.000000	-1.000000	-1.000000	384381.000000	1775777492.855482
-11440.530000	-6745.815000	4300.875000	29280.465000	20345.310000	13051.980000	-7404.930000	8600.265000	1.509139	4.517402	5.010860	4.289232	-0.544290	-10.924873	-7.246483	-1.692357	-6.744920	1.983800	2.289000	-0.790769	-0.075317	0.592040	-1.000000	-1.000000	-1.000000	-1.000000	-1.000000	-1.000000	-1.000000	57.000000	0.000000	-1.000000	-1.000000	384382.000000	1775777492.855506
-11438.415000	-6743.070000	4303.620000	29278.350000	20340.225000	13040.325000	-7405.695000	8600.535000	-2.305459	0.291370	2.202345	2.831706	3.872046	-3.416388	-6.821576	-4.147564	-6.744920	1.983800	2.289000	-0.790769	-0.075317	0.592040	-1.000000	-1.000000	-1.000000	-1.000000	-1.000000	-1.000000	-1.000000	57.000000	0.000000	-1.000000	-1.000000	384383.000000	1775777492.861260
-11439.135000	-6745.635000	4298.580000	29271.330000	20342.025000	13038.345000	-7401.195000	8600.670000	-4.880144	-4.059798	-1.794598	-0.635112	4.966341	2.960702	-3.948651	-4.486123	-6.744920	1.983800	2.289000	-0.790769	-0.075317	0.592040	-1.000000	-1.000000	-1.000000	-1.000000	-1.000000	-1.000000	-1.000000	57.000000	0.000000	-1.000000	-1.000000	384384.000000	1775777492.861286
-11435.040000	-6746.130000	4293.675000	29263.725000	20332.755000	13037.355000	-7393.095000	8605.935000	-4.982152	-6.548285	-5.296369	-4.942958	2.554216	5.715225	0.141851	-2.642740	-6.744920	1.983800	2.289000	-0.790769	-0.075317	0.592040	-1.000000	-1.000000	-1.000000	-1.000000	-1.000000	-1.000000	-1.000000	57.000000	0.000000	-1.000000	-1.000000	384385.000000	1775777492.861317
-11422.080000	-6734.115000	4303.530000	29272.095000	20330.370000	13026.825000	-7394.310000	8615.835000	-2.602575	-6.237398	-6.904784	-7.970340	-1.270075	5.457304	4.089925	0.625700	-6.744920	1.983800	2.289000	-0.790769	-0.075317	0.592040	-1.000000	-1.000000	-1.000000	-1.000000	-1.000000	-1.000000	-1.000000	57.000000	0.000000	-1.000000	-1.000000	384386.000000	1775777492.861331
-11425.365000	-6738.165000	4298.310000	29270.295000	20328.435000	13017.015000	-7393.905000	8612.595000	1.155963	-3.317031	-5.732697	-7.616049	-4.146545	3.593442	6.268625	3.934009	-4.471180	1.281840	1.495480	-0.791197	-0.080078	0.593260	-1.000000	-1.000000	-1.000000	-1.000000	-1.000000	-1.000000	-1.000000	57.000000	0.000000	-1.000000	-1.000000	384387.000000	1775777492.863746
-11428.290000	-6743.790000	4289.625000	29265.885000	20335.185000	13037.760000	-7389.225000	8613.180000	4.044547	0.422542	-2.560353	-3.818150	-4.394002	1.681319	5.724715	5.430443	-4.471180	1.281840	1.495480	-0.791197	-0.080078	0.593260	-1.000000	-1.000000	-1.000000	-1.000000	-1.000000	-1.000000	-1.000000	57.000000	0.000000	-1.000000	-1.000000	384388.000000	1775777492.863765
-11422.845000	-6736.590000	4298.625000	29273.085000	20347.065000	13061.835000	-7390.530000	8616.555000	4.165374	2.695925	0.587474	1.182531	-1.552178	2.126750	3.109809	4.118684	-4.471180	1.281840	1.495480	-0.791197	-0.080078	0.593260	-1.000000	-1.000000	-1.000000	-1.000000	-1.000000	-1.000000	-1.000000	57.000000	0.000000	-1.000000	-1.000000	384389.000000	1775777492.865236
-11423.025000	-6736.185000	4302.315000	29274.795000	20345.400000	13054.905000	-7393.590000	8611.920000	1.921710	3.029438	2.850280	5.168804	3.093568	5.600491	-0.170681	0.866060	-4.471180	1.281840	1.495480	-0.791197	-0.080078	0.593260	-1.000000	-1.000000	-1.000000	-1.000000	-1.000000	-1.000000	-1.000000	57.000000	0.000000	-1.000000	-1.000000	384390.000000	1775777492.865254
-11426.130000	-6738.750000	4301.730000	29276.145000	20347.605000	13051.260000	-7396.380000	8606.565000	-0.888863	2.331692	4.428121	7.063668	6.694298	8.436650	-3.038990	-2.716876	-4.471180	1.281840	1.495480	-0.791197	-0.080078	0.593260	-1.000000	-1.000000	-1.000000	-1.000000	-1.000000	-1.000000	-1.000000	57.000000	0.000000	-1.000000	-1.000000	384391.000000	1775777492.873034
-11420.370000	-6734.340000	4305.015000	29278.260000	20338.695000	13043.970000	-7389.405000	8611.200000	-2.863166	1.278323	4.999951	6.541198	6.700733	6.292464	-4.592521	-5.249141	-4.471180	1.281840	1.495480	-0.791197	-0.080078	0.593260	-1.000000	-1.000000	-1.000000	-1.000000	-1.000000	-1.000000	-1.000000	57.000000	0.000000	-1.000000	-1.000000	384392.000000	1775777492.873057
-11421.765000	-6738.885000	4298.175000	29270.700000	20327.715000	13034.430000	-7386.975000	8609.445000	-3.275857	0.245045	3.994284	3.912640	2.684444	-0.882988	-4.026673	-5.600381	-4.471180	1.281840	1.495480	-0.791197	-0.080078	0.593260	-1.000000	-1.000000	-1.000000	-1.000000	-1.000000	-1.000000	-1.000000	57.000000	0.000000	-1.000000	-1.000000	384393.000000	1775777492.873677
-11416.590000	-6736.320000	4297.320000	29270.160000	20338.965000	13034.745000	-7381.845000	8613.810000	-2.152291	-0.544138	1.427429	0.038814	-3.145136	-9.053296	-1.482402	-3.548834	-4.471180	1.281840	1.495480	-0.791197	-0.080078	0.593260	-1.000000	-1.000000	-1.000000	-1.000000	-1.000000	-1.000000	-1.000000	57.000000	0.000000	-1.000000	-1.000000	384394.000000	1775777492.873694
-11417.085000	-6735.105000	4299.030000	29269.080000	20326.815000	13011.255000	-7385.535000	8611.560000	-0.264884	-0.941734	-1.688892	-3.634440	-7.121479	-13.806217	1.548528	-0.203730	-4.471180	1.281840	1.495480	-0.791197	-0.080078	0.593260	-1.000000	-1.000000	-1.000000	-1.000000	-1.000000	-1.000000	-1.000000	57.000000	0.000000	-1.000000	-1.000000	384395.000000	1775777492.881142
-11411.730000	-6726.420000	4310.100000	29278.305000	20331.270000	13018.680000	-7382.025000	8615.610000	1.426548	-0.644888	-3.516387	-5.330549	-7.199999	-13.308323	3.242251	2.764872	-4.471180	1.281840	1.495480	-0.791197	-0.080078	0.593260	-1.000000	-1.000000	-1.000000	-1.000000	-1.000000	-1.000000	-1.000000	57.000000	0.000000	-1.000000	-1.000000	384396.000000	1775777492.881164
-11409.840000	-6726.780000	4307.985000	29277.405000	20348.370000	13052.115000	-7379.055000	8616.105000	2.324159	0.410890	-2.864700	-4.131001	-3.756661	-7.352966	2.965460	4.218535	-0.061040	1.739640	0.854560	-0.789793	-0.083618	0.595152	-1.000000	-1.000000	-1.000000	-1.000000	-1.000000	-1.000000	-1.000000	57.000000	0.000000	-1.000000	-1.000000	384397.000000	1775777492.881764
-11407.770000	-6725.430000	4310.820000	29285.145000	20368.080000	13076.955000	-7374.465000	8616.105000	2.291560	1.505366	-0.586466	-0.915915	2.128034	3.616247	1.569364	3.944149	-0.061040	1.739640	0.854560	-0.789793	-0.083618	0.595152	-1.000000	-1.000000	-1.000000	-1.000000	-1.000000	-1.000000	-1.000000	57.000000	0.000000	-1.000000	-1.000000	384398.000000	1775777492.881783
-11408.580000	-6726.780000	4310.685000	29284.335000	20359.395000	13065.345000	-7374.780000	8615.565000	1.416764	1.611538	1.322229	2.308915	8.150135	15.467304	0.177845	2.340769	-0.061040	1.739640	0.854560	-0.789793	-0.083618	0.595152	-1.000000	-1.000000	-1.000000	-1.000000	-1.000000	-1.000000	-1.000000	57.000000	0.000000	-1.000000	-1.000000	384399.000000	1775777492.886071
-11414.295000	-6733.800000	4303.845000	29276.010000	20350.395000	13055.355000	-7379.145000	8609.400000	-0.141490	0.323964	1.537911	3.636891	10.203009	20.352099	-0.896506	0.056260	-0.061040	1.739640	0.854560	-0.789793	-0.083618	0.595152	-1.000000	-1.000000	-1.000000	-1.000000	-1.000000	-1.000000	-1.000000	57.000000	0.000000	-1.000000	-1.000000	384400.000000	1775777492.886092
-11411.190000	-6732.450000	4303.035000	29271.060000	20343.735000	13053.600000	-7376.670000	8608.275000	-1.959302	-1.824241	0.005893	2.126012	5.770860	13.847477	-1.860414	-2.205346	-0.061040	1.739640	0.854560	-0.789793	-0.083618	0.595152	-1.000000	-1.000000	-1.000000	-1.000000	-1.000000	-1.000000	-1.000000	57.000000	0.000000	-1.000000	-1.000000	384401.000000	1775777492.889886
-11404.665000	-6729.120000	4300.200000	29257.830000	20323.755000	13038.750000	-7373.700000	8611.650000	-2.985347	-3.429094	-2.146998	-1.491435	-3.105590	-0.270661	-2.447893	-3.550693	-0.061040	1.739640	0.854560	-0.789793	-0.083618	0.595152	-1.000000	-1.000000	-1.000000	-1.000000	-1.000000	-1.000000	-1.000000	57.000000	0.000000	-1.000000	-1.000000	384402.000000	1775777492.889909
-11412.450000	-6736.410000	4294.665000	29257.020000	20328.930000	13037.445000	-7373.025000	8610.435000	-2.383885	-3.285877	-3.445465	-5.094759	-11.382934	-13.812542	-2.058732	-3.172401	-0.061040	1.739640	0.854560	-0.789793	-0.083618	0.595152	-1.000000	-1.000000	-1.000000	-1.000000	-1.000000	-1.000000	-1.000000	57.000000	0.000000	-1.000000	-1.000000	384403.000000	1775777492.897060
-11411.685000	-6731.235000	4303.395000	29268.855000	20343.870000	13043.655000	-7369.470000	8611.920000	-0.817511	-1.618275	-3.039134	-6.094709	-13.882315	-19.939542	-0.711318	-1.253762	-0.061040	1.739640	0.854560	-0.789793	-0.083618	0.595152	-1.000000	-1.000000	-1.000000	-1.000000	-1.000000	-1.000000	-1.000000	57.000000	0.000000	-1.000000	-1.000000	384404.000000	1775777492.897083
-11416.005000	-6731.910000	4304.205000	29272.140000	20344.320000	13041.900000	-7373.700000	8607.105000	0.397181	0.578538	-0.789023	-2.933957	-8.416875	-16.317674	0.812047	0.970833	-0.061040	1.739640	0.854560	-0.789793	-0.083618	0.595152	-1.000000	-1.000000	-1.000000	-1.000000	-1.000000	-1.000000	-1.000000	57.000000	0.000000	-1.000000	-1.000000	384405.000000	1775777492.897692
-11398.320000	-6714.540000	4321.935000	29292.345000	20364.885000	13058.145000	-7356.195000	8622.990000	1.085602	2.752098	2.712423	3.293834	2.050848	-5.748375	1.855598	2.481477	-0.061040	1.739640	0.854560	-0.789793	-0.083618	0.595152	-1.000000	-1.000000	-1.000000	-1.000000	-1.000000	-1.000000	-1.000000	57.000000	0.000000	-1.000000	-1.000000	384406.000000	1775777492.897710
-11392.695000	-6708.420000	4327.830000	29295.270000	20371.050000	13058.865000	-7354.440000	8625.960000	2.219189	4.802758	6.218502	9.387611	11.812265	6.204647	2.608551	3.397918	2.975700	1.175020	1.144500	-0.791136	-0.081970	0.596068	-1.000000	-1.000000	-1.000000	-1.000000	-1.000000	-1.000000	-1.000000	57.000000	0.000000	-1.000000	-1.000000	384407.000000	1775777492.921619
-11408.535000	-6725.115000	4307.535000	29268.315000	20346.660000	13048.155000	-7370.280000	8607.375000	3.613337	5.739200	7.595541	11.344173	15.657452	13.952665	2.789293	3.526634	2.975700	1.175020	1.144500	-0.791136	-0.081970	0.596068	-1.000000	-1.000000	-1.000000	-1.000000	-1.000000	-1.000000	-1.000000	57.000000	0.000000	-1.000000	-1.000000	384408.000000	1775777492.921644
-11409.930000	-6725.835000	4307.805000	29266.110000	20331.630000	13047.345000	-7367.715000	8607.195000	3.154090	3.638275	4.625010	6.424713	10.631415	14.084698	1.109036	1.565402	2.975700	1.175020	1.144500	-0.791136	-0.081970	0.596068	-1.000000	-1.000000	-1.000000	-1.000000	-1.000000	-1.000000	-1.000000	57.000000	0.000000	-1.000000	-1.000000	384409.000000	1775777492.921731
-11411.865000	-6725.610000	4313.115000	29275.560000	20330.280000	13022.595000	-7372.845000	8604.360000	0.031867	-1.321813	-1.712044	-2.978733	-1.020532	7.251449	-2.217076	-2.258443	2.975700	1.175020	1.144500	-0.791136	-0.081970	0.596068	-1.000000	-1.000000	-1.000000	-1.000000	-1.000000	-1.000000	-1.000000	57.000000	0.000000	-1.000000	-1.000000	384410.000000	1775777492.921746
-11410.110000	-6730.965000	4306.635000	29279.880000	20345.220000	13036.995000	-7364.430000	8606.475000	-3.570933	-6.072930	-7.173641	-10.136063	-11.644962	-2.267426	-4.800148	-5.318563	2.975700	1.175020	1.144500	-0.791136	-0.081970	0.596068	-1.000000	-1.000000	-1.000000	-1.000000	-1.000000	-1.000000	-1.000000	57.000000	0.000000	-1.000000	-1.000000	384411.000000	1775777492.921809
-11406.600000	-6726.330000	4309.470000	29276.280000	20339.730000	13056.255000	-7355.655000	8611.425000	-4.941038	-7.771879	-8.665962	-10.673760	-14.259636	-8.390655	-4.385398	-5.291358	2.975700	1.175020	1.144500	-0.791136	-0.081970	0.596068	-1.000000	-1.000000	-1.000000	-1.000000	-1.000000	-1.000000	-1.000000	57.000000	0.000000	-1.000000	-1.000000	384412.000000	1775777492.921827
-11407.995000	-6725.700000	4312.575000	29278.170000	20344.680000	13051.080000	-7358.085000	8609.580000	-3.297632	-5.724196	-6.143213	-5.925324	-8.488717	-7.231559	-0.929976	-2.166778	2.975700	1.175020	1.144500	-0.791136	-0.081970	0.596068	-1.000000	-1.000000	-1.000000	-1.000000	-1.000000	-1.000000	-1.000000	57.000000	0.000000	-1.000000	-1.000000	384413.000000	1775777492.921847
-11410.830000	-6730.380000	4308.750000	29276.955000	20349.540000	13049.910000	-7360.920000	8607.870000	-0.119333	-1.347463	-1.445469	0.037507	0.660580	-1.154049	3.015689	1.887469	2.975700	1.175020	1.144500	-0.791136	-0.081970	0.596068	-1.000000	-1.000000	-1.000000	-1.000000	-1.000000	-1.000000	-1.000000	57.000000	0.000000	-1.000000	-1.000000	384414.000000	1775777492.921854
-11407.995000	-6728.850000	4310.280000	29280.060000	20361.285000	13068.585000	-7353.945000	8610.930000	2.427114	2.788055	2.884323	4.119945	8.084935	4.367579	4.707453	4.409948	2.975700	1.175020	1.144500	-0.791136	-0.081970	0.596068	-1.000000	-1.000000	-1.000000	-1.000000	-1.000000	-1.000000	-1.000000	57.000000	0.000000	-1.000000	-1.000000	384415.000000	1775777492.921864
-11408.805000	-6730.965000	4307.895000	29278.035000	20360.655000	13073.985000	-7349.130000	8610.525000	3.309589	4.846832	5.011462	5.340017	11.188604	6.660297	3.853510	4.543563	2.975700	1.175020	1.144500	-0.791136	-0.081970	0.596068	-1.000000	-1.000000	-1.000000	-1.000000	-1.000000	-1.000000	-1.000000	57.000000	0.000000	-1.000000	-1.000000	384416.000000	1775777492.921872
-11406.195000	-6728.895000	4308.930000	29278.035000	20351.070000	13054.680000	-7353.495000	8610.885000	2.797825	4.662106	4.691138	4.204481	9.286790	5.498966	1.824376	2.936286	3.204600	1.846460	1.754900	-0.792234	-0.076538	0.595396	-1.000000	-1.000000	-1.000000	-1.000000	-1.000000	-1.000000	-1.000000	57.000000	0.000000	-1.000000	-1.000000	384417.000000	1775777492.925187
-11401.740000	-6724.620000	4310.415000	29276.055000	20341.665000	13039.470000	-7356.330000	8611.155000	1.707813	3.215086	2.896011	1.838349	3.070168	0.630762	-0.489669	0.683945	3.204600	1.846460	1.754900	-0.792234	-0.076538	0.595396	-1.000000	-1.000000	-1.000000	-1.000000	-1.000000	-1.000000	-1.000000	57.000000	0.000000	-1.000000	-1.000000	384418.000000	1775777492.925211
-11390.355000	-6713.685000	4318.785000	29282.400000	20345.310000	13037.220000	-7347.060000	8619.885000	0.957810	1.863553	1.068914	-0.437062	-4.726929	-6.578615	-2.525369	-1.098831	3.204600	1.846460	1.754900	-0.792234	-0.076538	0.595396	-1.000000	-1.000000	-1.000000	-1.000000	-1.000000	-1.000000	-1.000000	57.000000	0.000000	-1.000000	-1.000000	384419.000000	1775777492.925824
-11395.890000	-6720.480000	4312.755000	29275.695000	20350.125000	13046.760000	-7348.320000	8614.080000	0.873474	1.249559	0.113600	-1.636772	-9.837438	-11.682032	-3.288969	-1.713519	3.204600	1.846460	1.754900	-0.792234	-0.076538	0.595396	-1.000000	-1.000000	-1.000000	-1.000000	-1.000000	-1.000000	-1.000000	57.000000	0.000000	-1.000000	-1.000000	384420.000000	1775777492.925880
-11387.385000	-6712.380000	4322.475000	29285.505000	20369.520000	13074.120000	-7336.800000	8620.830000	0.744293	0.735937	-0.177427	-1.634609	-9.131859	-10.059576	-2.249531	-1.437056	3.204600	1.846460	1.754900	-0.792234	-0.076538	0.595396	-1.000000	-1.000000	-1.000000	-1.000000	-1.000000	-1.000000	-1.000000	57.000000	0.000000	-1.000000	-1.000000	384421.000000	1775777492.933589
-11373.165000	-6697.755000	4338.360000	29301.300000	20374.380000	13071.330000	-7329.420000	8631.675000	0.173385	-0.069959	-0.004896	-0.479879	-2.973012	-1.429969	0.110379	-0.736767	3.204600	1.846460	1.754900	-0.792234	-0.076538	0.595396	-1.000000	-1.000000	-1.000000	-1.000000	-1.000000	-1.000000	-1.000000	57.000000	0.000000	-1.000000	-1.000000	384422.000000	1775777492.933612
-11387.295000	-6712.515000	4325.220000	29287.080000	20356.515000	13047.525000	-7346.115000	8617.050000	-0.499816	-0.794837	0.607290	1.456107	4.284977	8.231978	2.261257	0.079442	3.204600	1.846460	1.754900	-0.792234	-0.076538	0.595396	-1.000000	-1.000000	-1.000000	-1.000000	-1.000000	-1.000000	-1.000000	57.000000	0.000000	-1.000000	-1.000000	384423.000000	1775777492.933639
-11387.520000	-6715.395000	4322.430000	29283.885000	20352.645000	13050.630000	-7346.610000	8614.800000	-1.704255	-1.952466	0.397803	2.268006	7.075168	11.420225	2.074597	-0.038324	3.204600	1.846460	1.754900	-0.792234	-0.076538	0.595396	-1.000000	-1.000000	-1.000000	-1.000000	-1.000000	-1.000000	-1.000000	57.000000	0.000000	-1.000000	-1.000000	384424.000000	1775777492.933652
-11386.035000	-6714.855000	4325.085000	29289.690000	20360.295000	13063.860000	-7337.520000	8617.140000	-3.707671	-4.012407	-1.638349	0.567172	3.980363	7.063381	-0.527248	-1.572474	3.204600	1.846460	1.754900	-0.792234	-0.076538	0.595396	-1.000000	-1.000000	-1.000000	-1.000000	-1.000000	-1.000000	-1.000000	57.000000	0.000000	-1.000000	-1.000000	384425.000000	1775777492.937078
-11389.050000	-6717.150000	4322.880000	29286.765000	20364.705000	13062.735000	-7339.545000	8612.640000	-5.187430	-5.645209	-4.147765	-2.187008	-1.058367	0.601516	-2.863029	-3.115094	3.204600	1.846460	1.754900	-0.792234	-0.076538	0.595396	-1.000000	-1.000000	-1.000000	-1.000000	-1.000000	-1.000000	-1.000000	57.000000	0.000000	-1.000000	-1.000000	384426.000000	1775777492.937098
-11390.625000	-6718.230000	4320.180000	29282.130000	20354.895000	13054.320000	-7336.035000	8611.920000	-4.843156	-5.263703	-5.138110	-3.834404	-3.845566	-3.398749	-2.889163	-3.200043	-0.305200	2.563680	2.395820	-0.791136	-0.071167	0.594176	-1.000000	-1.000000	-1.000000	-1.000000	-1.000000	-1.000000	-1.000000	57.000000	0.000000	-1.000000	-1.000000	384427.000000	1775777492.943354
-11388.555000	-6715.395000	4322.250000	29285.505000	20359.350000	13063.140000	-7332.660000	8612.910000	-2.695297	-2.715282	-4.011270	-3.714055	-3.708662	-4.461877	-0.956064	-1.699208	-0.305200	2.563680	2.395820	-0.791136	-0.071167	0.594176	-1.000000	-1.000000	-1.000000	-1.000000	-1.000000	-1.000000	-1.000000	57.000000	0.000000	-1.000000	-1.000000	384428.000000	1775777492.943380
-11381.490000	-6710.220000	4325.085000	29288.025000	20355.300000	13062.420000	-7329.330000	8616.825000	0.538400	1.056151	-1.298029	-2.049721	-2.023475	-3.551943	1.506439	0.744805	-0.305200	2.563680	2.395820	-0.791136	-0.071167	0.594176	-1.000000	-1.000000	-1.000000	-1.000000	-1.000000	-1.000000	-1.000000	57.000000	0.000000	-1.000000	-1.000000	384429.000000	1775777492.945250
-11382.840000	-6713.595000	4322.835000	29282.670000	20353.995000	13066.425000	-7328.520000	8614.440000	3.860096	4.582901	1.896247	0.442635	-0.101022	-1.518491	3.155659	3.165960	-0.305200	2.563680	2.395820	-0.791136	-0.071167	0.594176	-1.000000	-1.000000	-1.000000	-1.000000	-1.000000	-1.000000	-1.000000	57.000000	0.000000	-1.000000	-1.000000	384430.000000	1775777492.945274
-11387.565000	-6717.195000	4321.305000	29282.895000	20358.900000	13064.355000	-7330.545000	8608.455000	5.803286	6.185333	4.124946	2.434262	1.331307	0.548769	3.167814	4.320128	-0.305200	2.563680	2.395820	-0.791136	-0.071167	0.594176	-1.000000	-1.000000	-1.000000	-1.000000	-1.000000	-1.000000	-1.000000	57.000000	0.000000	-1.000000	-1.000000	384431.000000	1775777492.950035
-11384.955000	-6712.290000	4328.145000	29293.830000	20372.085000	13072.500000	-7327.035000	8611.605000	5.233795	5.109605	4.551904	3.198384	2.477145	1.759804	1.608137	3.473680	-0.305200	2.563680	2.395820	-0.791136	-0.071167	0.594176	-1.000000	-1.000000	-1.000000	-1.000000	-1.000000	-1.000000	-1.000000	57.000000	0.000000	-1.000000	-1.000000	384432.000000	1775777492.950055
-11385.945000	-6713.595000	4325.895000	29291.400000	20372.085000	13067.955000	-7328.565000	8611.605000	2.652333	2.393369	3.590600	3.231832	3.770543	1.938312	-0.535964	1.364586	-0.305200	2.563680	2.395820	-0.791136	-0.071167	0.594176	-1.000000	-1.000000	-1.000000	-1.000000	-1.000000	-1.000000	-1.000000	57.000000	0.000000	-1.000000	-1.000000	384433.000000	1775777492.953146
-11383.245000	-6710.265000	4324.635000	29283.120000	20371.230000	13069.305000	-7324.380000	8611.830000	-0.235905	-0.227562	1.971772	2.675093	4.458891	1.218384	-2.073366	-0.520172	-0.305200	2.563680	2.395820	-0.791136	-0.071167	0.594176	-1.000000	-1.000000	-1.000000	-1.000000	-1.000000	-1.000000	-1.000000	57.000000	0.000000	-1.000000	-1.000000	384434.000000	1775777492.953165
-11380.995000	-6708.510000	4323.195000	29279.520000	20362.410000	13069.620000	-7316.550000	8615.160000	-1.980070	-1.698992	0.050411	0.864703	3.070322	-0.099236	-2.230498	-1.328462	-0.305200	2.563680	2.395820	-0.791136	-0.071167	0.594176	-1.000000	-1.000000	-1.000000	-1.000000	-1.000000	-1.000000	-1.000000	57.000000	0.000000	-1.000000	-1.000000	384435.000000	1775777492.963793
-11375.280000	-6703.065000	4325.985000	29283.885000	20356.335000	13064.040000	-7308.855000	8623.035000	-2.064611	-1.824435	-1.687227	-1.807815	-0.709200	-1.437741	-0.832917	-0.945293	-0.305200	2.563680	2.395820	-0.791136	-0.071167	0.594176	-1.000000	-1.000000	-1.000000	-1.000000	-1.000000	-1.000000	-1.000000	57.000000	0.000000	-1.000000	-1.000000	384436.000000	1775777492.963817
-11374.200000	-6701.265000	4328.820000	29286.855000	20354.670000	13054.725000	-7312.050000	8622.360000	-0.914447	-1.015041	-2.474783	-3.472311	-5.187503	-2.504931	1.247396	0.235761	-4.715340	2.929920	1.693860	-0.790769	-0.068115	0.593016	-1.000000	-1.000000	-1.000000	-1.000000	-1.000000	-1.000000	-1.000000	57.000000	0.000000	-1.000000	-1.000000	384437.000000	1775777492.963838
-11378.160000	-6704.280000	4329.045000	29289.555000	20361.330000	13062.960000	-7314.435000	8616.420000	0.305100	-0.145278	-1.968224	-2.805286	-7.548251	-3.089613	2.236348	1.080630	-4.715340	2.929920	1.693860	-0.790769	-0.068115	0.593016	-1.000000	-1.000000	-1.000000	-1.000000	-1.000000	-1.000000	-1.000000	57.000000	0.000000	-1.000000	-1.000000	384438.000000	1775777492.963845
-11371.455000	-6695.775000	4340.295000	29302.470000	20382.705000	13085.685000	-7308.765000	8620.020000	0.549675	0.044695	-0.526802	-0.204142	-5.596074	-1.974483	1.180059	0.498350	-4.715340	2.929920	1.693860	-0.790769	-0.068115	0.593016	-1.000000	-1.000000	-1.000000	-1.000000	-1.000000	-1.000000	-1.000000	57.000000	0.000000	-1.000000	-1.000000	384439.000000	1775777492.964467
-11369.025000	-6693.750000	4344.525000	29307.375000	20395.170000	13090.545000	-7312.185000	8618.085000	-0.016918	-0.243762	1.285703	2.965426	0.584445	1.867756	-0.964309	-1.166164	-4.715340	2.929920	1.693860	-0.790769	-0.068115	0.593016	-1.000000	-1.000000	-1.000000	-1.000000	-1.000000	-1.000000	-1.000000	57.000000	0.000000	-1.000000	-1.000000	384440.000000	1775777492.964487
-11365.740000	-6691.905000	4345.560000	29307.420000	20389.995000	13087.440000	-7310.205000	8619.795000	-0.490407	-0.408893	2.678090	4.974338	7.599433	6.470634	-2.634242	-2.550392	-4.715340	2.929920	1.693860	-0.790769	-0.068115	0.593016	-1.000000	-1.000000	-1.000000	-1.000000	-1.000000	-1.000000	-1.000000	57.000000	0.000000	-1.000000	-1.000000	384441.000000	1775777492.969991
-11366.325000	-6695.595000	4338.000000	29296.260000	20360.160000	13062.960000	-7307.145000	8619.930000	-0.524063	-0.504003	2.473543	4.124191	9.908658	7.452368	-2.959981	-2.717463	-4.715340	2.929920	1.693860	-0.790769	-0.068115	0.593016	-1.000000	-1.000000	-1.000000	-1.000000	-1.000000	-1.000000	-1.000000	57.000000	0.000000	-1.000000	-1.000000	384442.000000	1775777492.970018
-11363.445000	-6697.215000	4334.625000	29288.205000	20350.395000	13061.295000	-7298.775000	8622.630000	-0.426118	-0.981532	0.080375	-0.027805	4.299151	2.479571	-1.718407	-1.631571	-4.715340	2.929920	1.693860	-0.790769	-0.068115	0.593016	-1.000000	-1.000000	-1.000000	-1.000000	-1.000000	-1.000000	-1.000000	57.000000	0.000000	-1.000000	-1.000000	384443.000000	1775777492.973126
-11355.030000	-6692.940000	4337.910000	29289.600000	20336.580000	13051.890000	-7297.380000	8629.020000	-0.319333	-1.716617	-3.330925	-5.514668	-6.157508	-5.614834	0.631271	0.198065	-4.715340	2.929920	1.693860	-0.790769	-0.068115	0.593016	-1.000000	-1.000000	-1.000000	-1.000000	-1.000000	-1.000000	-1.000000	57.000000	0.000000	-1.000000	-1.000000	384444.000000	1775777492.973152
-11347.605000	-6687.540000	4342.725000	29296.395000	20334.285000	13026.645000	-7300.665000	8633.520000	0.165869	-1.789162	-5.288582	-8.670500	-14.222421	-11.643725	2.710326	2.136173	-4.715340	2.929920	1.693860	-0.790769	-0.068115	0.593016	-1.000000	-1.000000	-1.000000	-1.000000	-1.000000	-1.000000	-1.000000	57.000000	0.000000	-1.000000	-1.000000	384445.000000	1775777492.985241
-11348.685000	-6686.820000	4348.035000	29308.815000	20364.885000	13049.280000	-7295.355000	8632.035000	1.023544	-0.588769	-4.144165	-6.840717	-13.918412	-12.320406	3.104126	3.377996	-4.715340	2.929920	1.693860	-0.790769	-0.068115	0.593016	-1.000000	-1.000000	-1.000000	-1.000000	-1.000000	-1.000000	-1.000000	57.000000	0.000000	-1.000000	-1.000000	384446.000000	1775777492.985268
-11354.985000	-6696.630000	4336.830000	29300.760000	20383.965000	13086.990000	-7286.265000	8628.705000	1.221369	1.024618	-0.788164	-0.902666	-3.912099	-5.968633	1.955493	3.004859	-6.561800	2.350040	1.068200	-0.791075	-0.070495	0.591673	-1.000000	-1.000000	-1.000000	-1.000000	-1.000000	-1.000000	-1.000000	57.000000	0.000000	-1.000000	-1.000000	384447.000000	1775777492.985296
-11362.275000	-6703.785000	4329.405000	29289.870000	20385.180000	13090.680000	-7291.080000	8624.205000	-0.301551	1.332231	1.934714	4.835528	10.743302	6.450288	0.539856	0.761205	-6.561800	2.350040	1.068200	-0.791075	-0.070495	0.591673	-1.000000	-1.000000	-1.000000	-1.000000	-1.000000	-1.000000	-1.000000	57.000000	0.000000	-1.000000	-1.000000	384448.000000	1775777492.985310
-11361.735000	-6699.240000	4337.865000	29299.860000	20397.960000	13093.605000	-7291.305000	8624.880000	-3.051865	-0.063133	2.260088	6.542640	20.991466	18.315962	-0.645728	-2.311367	-6.561800	2.350040	1.068200	-0.791075	-0.070495	0.591673	-1.000000	-1.000000	-1.000000	-1.000000	-1.000000	-1.000000	-1.000000	57.000000	0.000000	-1.000000	-1.000000	384449.000000	1775777492.986774
-11365.920000	-6703.515000	4334.130000	29296.620000	20387.385000	13092.795000	-7287.255000	8621.775000	-5.043058	-1.539546	1.273463	4.499480	20.629385	21.418476	-1.741004	-4.429084	-6.561800	2.350040	1.068200	-0.791075	-0.070495	0.591673	-1.000000	-1.000000	-1.000000	-1.000000	-1.000000	-1.000000	-1.000000	57.000000	0.000000	-1.000000	-1.000000	384450.000000	1775777492.986796
-11360.835000	-6699.555000	4337.415000	29296.080000	20375.955000	13090.005000	-7285.725000	8624.835000	-4.571239	-1.482764	0.759398	1.393690	9.923703	13.437469	-2.343281	-4.384081	-6.561800	2.350040	1.068200	-0.791075	-0.070495	0.591673	-1.000000	-1.000000	-1.000000	-1.000000	-1.000000	-1.000000	-1.000000	57.000000	0.000000	-1.000000	-1.000000	384451.000000	1775777492.992665
-11358.675000	-6698.835000	4337.910000	29293.920000	20369.520000	13075.920000	-7287.840000	8624.205000	-1.490969	0.197331	1.131344	-0.974655	-5.694602	-1.079683	-2.044182	-2.255431	-6.561800	2.350040	1.068200	-0.791075	-0.070495	0.591673	-1.000000	-1.000000	-1.000000	-1.000000	-1.000000	-1.000000	-1.000000	57.000000	0.000000	-1.000000	-1.000000	384452.000000	1775777492.992689
-11353.410000	-6694.245000	4341.015000	29296.395000	20362.545000	13066.830000	-7284.015000	8627.310000	2.842437	2.491711	1.842272	-2.062411	-18.605228	-15.035811	-1.129466	0.834551	-6.561800	2.350040	1.068200	-0.791075	-0.070495	0.591673	-1.000000	-1.000000	-1.000000	-1.000000	-1.000000	-1.000000	-1.000000	57.000000	0.000000	-1.000000	-1.000000	384453.000000	1775777492.994056
-11346.795000	-6689.205000	4343.535000	29298.330000	20361.060000	13064.580000	-7277.580000	8633.745000	6.451616	4.210381	2.241426	-1.840292	-23.031660	-22.547936	0.050623	3.549424	-6.561800	2.350040	1.068200	-0.791075	-0.070495	0.591673	-1.000000	-1.000000	-1.000000	-1.000000	-1.000000	-1.000000	-1.000000	57.000000	0.000000	-1.000000	-1.000000	384454.000000	1775777492.994073
-11344.815000	-6685.245000	4350.060000	29307.555000	20380.860000	13078.530000	-7274.115000	8635.095000	7.821183	4.621516	2.053081	-0.529130	-17.527901	-20.620916	1.406107	5.028222	-6.561800	2.350040	1.068200	-0.791075	-0.070495	0.591673	-1.000000	-1.000000	-1.000000	-1.000000	-1.000000	-1.000000	-1.000000	57.000000	0.000000	-1.000000	-1.000000	384455.000000	1775777492.998249
-11352.420000	-6692.490000	4347.405000	29305.980000	20389.860000	13083.975000	-7281.090000	8627.400000	6.230032	3.382067	1.327107	1.281143	-4.728872	-10.126401	2.374405	4.664371	-6.561800	2.350040	1.068200	-0.791075	-0.070495	0.591673	-1.000000	-1.000000	-1.000000	-1.000000	-1.000000	-1.000000	-1.000000	57.000000	0.000000	-1.000000	-1.000000	384456.000000	1775777492.998267
-11350.890000	-6690.240000	4350.195000	29307.555000	20389.995000	13100.130000	-7281.180000	8628.660000	1.965049	0.515938	0.079488	2.467164	9.407146	4.148783	1.957946	2.199170	-3.586100	1.693860	0.305200	-0.794004	-0.075073	0.590880	-1.000000	-1.000000	-1.000000	-1.000000	-1.000000	-1.000000	-1.000000	57.000000	0.000000	-1.000000	-1.000000	384457.000000	1775777493.002932
-11344.725000	-6684.660000	4353.750000	29310.750000	20388.645000	13104.540000	-7272.360000	8635.140000	-3.022182	-2.824985	-1.428563	2.142488	17.922812	15.816890	0.283106	-1.212874	-3.586100	1.693860	0.305200	-0.794004	-0.075073	0.590880	-1.000000	-1.000000	-1.000000	-1.000000	-1.000000	-1.000000	-1.000000	57.000000	0.000000	-1.000000	-1.000000	384458.000000	1775777493.002955
-11342.520000	-6687.090000	4349.385000	29303.820000	20379.420000	13088.565000	-7266.870000	8638.155000	-5.976833	-4.779349	-2.598391	0.447007	17.077948	19.766075	-0.993330	-3.373163	-3.586100	1.693860	0.305200	-0.794004	-0.075073	0.590880	-1.000000	-1.000000	-1.000000	-1.000000	-1.000000	-1.000000	-1.000000	57.000000	0.000000	-1.000000	-1.000000	384459.000000	1775777493.005158
-11349.360000	-6694.245000	4339.890000	29291.220000	20354.895000	13064.220000	-7274.070000	8631.810000	-5.839400	-4.754906	-3.328352	-2.092927	8.079221	13.877067	-0.876089	-3.332431	-3.586100	1.693860	0.305200	-0.794004	-0.075073	0.590880	-1.000000	-1.000000	-1.000000	-1.000000	-1.000000	-1.000000	-1.000000	57.000000	0.000000	-1.000000	-1.000000	384460.000000	1775777493.005176
-11353.995000	-6698.070000	4335.300000	29289.960000	20358.315000	13059.990000	-7274.025000	8625.960000	-3.999315	-3.755541	-3.976168	-4.804084	-4.178971	0.841115	-0.323854	-2.287919	-3.586100	1.693860	0.305200	-0.794004	-0.075073	0.590880	-1.000000	-1.000000	-1.000000	-1.000000	-1.000000	-1.000000	-1.000000	57.000000	0.000000	-1.000000	-1.000000	384461.000000	1775777493.010059
-11351.385000	-6695.415000	4340.610000	29298.240000	20376.765000	13071.735000	-7264.845000	8628.210000	-2.173289	-2.575962	-4.118999	-6.033380	-12.709478	-11.659500	-0.299243	-1.661905	-3.586100	1.693860	0.305200	-0.794004	-0.075073	0.590880	-1.000000	-1.000000	-1.000000	-1.000000	-1.000000	-1.000000	-1.000000	57.000000	0.000000	-1.000000	-1.000000	384462.000000	1775777493.010083
-11350.710000	-6694.650000	4343.805000	29301.210000	20374.785000	13066.245000	-7269.435000	8628.570000	-0.642425	-0.974117	-2.561788	-4.021009	-12.372921	-15.978745	-0.398991	-1.350923	-3.586100	1.693860	0.305200	-0.794004	-0.075073	0.590880	-1.000000	-1.000000	-1.000000	-1.000000	-1.000000	-1.000000	-1.000000	57.000000	0.000000	-1.000000	-1.000000	384463.000000	1775777493.018570
-11347.290000	-6689.430000	4349.205000	29305.350000	20374.380000	13061.340000	-7268.940000	8632.305000	1.047000	1.322230	0.957947	0.800516	-4.607795	-10.929991	-0.262291	-0.469316	-3.586100	1.693860	0.305200	-0.794004	-0.075073	0.590880	-1.000000	-1.000000	-1.000000	-1.000000	-1.000000	-1.000000	-1.000000	57.000000	0.000000	-1.000000	-1.000000	384464.000000	1775777493.018596
-11350.125000	-6691.590000	4346.595000	29299.455000	20378.745000	13072.635000	-7269.345000	8629.470000	2.760058	3.714706	4.858867	5.580393	4.272870	-1.377296	-0.204811	1.108653	-3.586100	1.693860	0.305200	-0.794004	-0.075073	0.590880	-1.000000	-1.000000	-1.000000	-1.000000	-1.000000	-1.000000	-1.000000	57.000000	0.000000	-1.000000	-1.000000	384465.000000	1775777493.018624
-11354.535000	-6695.955000	4341.195000	29295.630000	20381.850000	13080.285000	-7268.355000	8625.195000	3.603628	4.891649	6.722228	7.272354	9.183612	7.405495	-0.314675	2.421172	-3.586100	1.693860	0.305200	-0.794004	-0.075073	0.590880	-1.000000	-1.000000	-1.000000	-1.000000	-1.000000	-1.000000	-1.000000	57.000000	0.000000	-1.000000	-1.000000	384466.000000	1775777493.018636
-11349.855000	-6693.345000	4341.555000	29296.485000	20380.860000	13075.830000	-7260.120000	8630.910000	2.968032	3.969022	5.261083	5.056112	8.886196	12.279110	-0.182444	2.553372	0.854560	1.297100	-0.717220	-0.795530	-0.079101	0.590025	-1.000000	-1.000000	-1.000000	-1.000000	-1.000000	-1.000000	-1.000000	57.000000	0.000000	-1.000000	-1.000000	384467.000000	1775777493.021890
-11351.025000	-6694.065000	4339.620000	29290.860000	20371.320000	13066.560000	-7255.890000	8629.740000	1.444141	1.568703	1.509177	0.754017	4.635136	11.566220	0.641444	1.762624	0.854560	1.297100	-0.717220	-0.795530	-0.079101	0.590025	-1.000000	-1.000000	-1.000000	-1.000000	-1.000000	-1.000000	-1.000000	57.000000	0.000000	-1.000000	-1.000000	384468.000000	1775777493.021908
-11340.945000	-6684.165000	4347.045000	29298.105000	20381.715000	13083.075000	-7250.940000	8638.110000	0.245960	-0.645729	-2.054804	-2.929179	-1.137205	5.958349	1.950841	0.971258	0.854560	1.297100	-0.717220	-0.795530	-0.079101	0.590025	-1.000000	-1.000000	-1.000000	-1.000000	-1.000000	-1.000000	-1.000000	57.000000	0.000000	-1.000000	-1.000000	384469.000000	1775777493.026049
-11338.740000	-6681.420000	4347.855000	29298.150000	20375.865000	13076.775000	-7253.955000	8639.775000	0.120205	-1.342219	-3.427723	-4.124949	-5.473311	-0.912473	2.713231	0.741900	0.854560	1.297100	-0.717220	-0.795530	-0.079101	0.590025	-1.000000	-1.000000	-1.000000	-1.000000	-1.000000	-1.000000	-1.000000	57.000000	0.000000	-1.000000	-1.000000	384470.000000	1775777493.026073
-11336.490000	-6677.055000	4354.920000	29299.995000	20373.345000	13072.860000	-7254.315000	8640.135000	0.742718	-0.545879	-2.341636	-2.718169	-6.697513	-5.691566	1.908745	0.843340	0.854560	1.297100	-0.717220	-0.795530	-0.079101	0.590025	-1.000000	-1.000000	-1.000000	-1.000000	-1.000000	-1.000000	-1.000000	57.000000	0.000000	-1.000000	-1.000000	384471.000000	1775777493.030569
-11339.280000	-6681.780000	4354.560000	29302.425000	20379.330000	13074.435000	-7264.215000	8634.600000	0.946650	0.411766	-0.095200	-0.176726	-5.229805	-7.605333	-0.550958	0.411555	0.854560	1.297100	-0.717220	-0.795530	-0.079101	0.590025	-1.000000	-1.000000	-1.000000	-1.000000	-1.000000	-1.000000	-1.000000	57.000000	0.000000	-1.000000	-1.000000	384472.000000	1775777493.030591
-11340.135000	-6686.415000	4351.860000	29307.150000	20394.945000	13094.820000	-7257.015000	8633.610000	-0.111765	0.071363	1.493788	1.892120	-1.923932	-6.678190	-3.510190	-1.084605	0.854560	1.297100	-0.717220	-0.795530	-0.079101	0.590025	-1.000000	-1.000000	-1.000000	-1.000000	-1.000000	-1.000000	-1.000000	57.000000	0.000000	-1.000000	-1.000000	384473.000000	1775777493.045637
-11335.770000	-6681.915000	4357.575000	29309.490000	20394.180000	13099.050000	-7249.590000	8638.110000	-1.985315	-1.695444	1.362322	2.733497	2.361018	-2.867911	-4.866890	-2.912254	0.854560	1.297100	-0.717220	-0.795530	-0.079101	0.590025	-1.000000	-1.000000	-1.000000	-1.000000	-1.000000	-1.000000	-1.000000	57.000000	0.000000	-1.000000	-1.000000	384474.000000	1775777493.045660
-11333.970000	-6681.735000	4355.595000	29308.500000	20390.265000	13089.735000	-7245.495000	8641.845000	-3.260389	-3.368926	-0.015140	2.246876	5.566144	1.967158	-3.176800	-3.518034	0.854560	1.297100	-0.717220	-0.795530	-0.079101	0.590025	-1.000000	-1.000000	-1.000000	-1.000000	-1.000000	-1.000000	-1.000000	57.000000	0.000000	-1.000000	-1.000000	384475.000000	1775777493.045688
-11336.355000	-6688.305000	4344.345000	29293.650000	20376.900000	13077.405000	-7244.820000	8642.880000	-3.047245	-3.558029	-1.680285	0.392993	5.217963	4.101449	0.575520	-2.176581	0.854560	1.297100	-0.717220	-0.795530	-0.079101	0.590025	-1.000000	-1.000000	-1.000000	-1.000000	-1.000000	-1.000000	-1.000000	57.000000	0.000000	-1.000000	-1.000000	384476.000000	1775777493.045698
-11336.805000	-6687.585000	4344.030000	29291.085000	20367.360000	13063.950000	-7249.770000	8640.495000	-1.805355	-2.427152	-3.235805	-2.649236	0.855944	1.499365	3.647583	0.140992	2.350040	1.205540	-0.412020	-0.793821	-0.079651	0.589964	-1.000000	-1.000000	-1.000000	-1.000000	-1.000000	-1.000000	-1.000000	57.000000	0.000000	-1.000000	-1.000000	384477.000000	1775777493.045859
-11327.535000	-6675.030000	4355.280000	29299.725000	20374.020000	13064.220000	-7245.720000	8645.085000	-0.314558	-0.544535	-3.842472	-5.315514	-4.823167	-3.804683	4.040875	1.850729	2.350040	1.205540	-0.412020	-0.793821	-0.079651	0.589964	-1.000000	-1.000000	-1.000000	-1.000000	-1.000000	-1.000000	-1.000000	57.000000	0.000000	-1.000000	-1.000000	384478.000000	1775777493.045878
-11327.490000	-6674.670000	4355.820000	29301.795000	20376.135000	13064.805000	-7243.290000	8645.085000	1.221601	1.986698	-2.224415	-5.172307	-7.585994	-7.316366	2.134214	2.278192	2.350040	1.205540	-0.412020	-0.793821	-0.079651	0.589964	-1.000000	-1.000000	-1.000000	-1.000000	-1.000000	-1.000000	-1.000000	57.000000	0.000000	-1.000000	-1.000000	384479.000000	1775777493.047444
-11332.125000	-6678.180000	4354.470000	29301.795000	20375.370000	13063.185000	-7245.180000	8640.180000	2.379741	4.284491	1.177386	-1.744096	-5.367286	-6.000184	-0.248116	1.613343	2.350040	1.205540	-0.412020	-0.793821	-0.079651	0.589964	-1.000000	-1.000000	-1.000000	-1.000000	-1.000000	-1.000000	-1.000000	57.000000	0.000000	-1.000000	-1.000000	384480.000000	1775777493.047462
-11335.725000	-6680.565000	4356.045000	29305.350000	20389.095000	13087.890000	-7241.265000	8637.075000	2.202636	4.628934	4.066351	2.726988	0.212180	-0.243241	-1.768953	0.147806	2.350040	1.205540	-0.412020	-0.793821	-0.079651	0.589964	-1.000000	-1.000000	-1.000000	-1.000000	-1.000000	-1.000000	-1.000000	57.000000	0.000000	-1.000000	-1.000000	384481.000000	1775777493.049927
-11333.295000	-6676.470000	4361.490000	29313.495000	20400.795000	13104.180000	-7234.335000	8640.225000	0.575010	2.563248	4.808776	5.752409	6.168259	7.577043	-1.929343	-1.489321	2.350040	1.205540	-0.412020	-0.793821	-0.079651	0.589964	-1.000000	-1.000000	-1.000000	-1.000000	-1.000000	-1.000000	-1.000000	57.000000	0.000000	-1.000000	-1.000000	384482.000000	1775777493.049942
-11335.905000	-6677.640000	4359.780000	29313.270000	20395.935000	13098.555000	-7232.985000	8639.820000	-1.262472	-0.406286	3.583452	6.349505	9.848502	13.846382	-0.809406	-2.215206	2.350040	1.205540	-0.412020	-0.793821	-0.079651	0.589964	-1.000000	-1.000000	-1.000000	-1.000000	-1.000000	-1.000000	-1.000000	57.000000	0.000000	-1.000000	-1.000000	384483.000000	1775777493.053242
-11334.330000	-6676.560000	4359.780000	29311.920000	20397.285000	13101.120000	-7226.955000	8642.880000	-2.034572	-2.492318	1.311232	4.574417	9.170476	14.363430	0.788811	-1.455451	2.350040	1.205540	-0.412020	-0.793821	-0.079651	0.589964	-1.000000	-1.000000	-1.000000	-1.000000	-1.000000	-1.000000	-1.000000	57.000000	0.000000	-1.000000	-1.000000	384484.000000	1775777493.053264
-11324.430000	-6670.845000	4363.020000	29310.525000	20393.505000	13089.420000	-7222.815000	8651.655000	-1.264936	-2.900040	-1.079410	1.042593	4.028514	7.641884	1.872287	0.440638	2.350040	1.205540	-0.412020	-0.793821	-0.079651	0.589964	-1.000000	-1.000000	-1.000000	-1.000000	-1.000000	-1.000000	-1.000000	57.000000	0.000000	-1.000000	-1.000000	384485.000000	1775777493.058232
-11324.655000	-6676.470000	4351.815000	29298.825000	20383.605000	13081.050000	-7219.710000	8653.185000	0.775011	-1.878706	-2.867089	-3.086477	-3.198943	-3.419936	1.956245	2.631993	2.350040	1.205540	-0.412020	-0.793821	-0.079651	0.589964	-1.000000	-1.000000	-1.000000	-1.000000	-1.000000	-1.000000	-1.000000	57.000000	0.000000	-1.000000	-1.000000	384486.000000	1775777493.058258
-11328.480000	-6678.900000	4349.430000	29297.070000	20381.265000	13077.225000	-7224.525000	8647.785000	2.764992	-0.573310	-3.960791	-6.480281	-9.319326	-13.529995	0.938799	3.822877	0.549360	0.961380	0.289940	-0.790953	-0.077270	0.590880	-1.000000	-1.000000	-1.000000	-1.000000	-1.000000	-1.000000	-1.000000	57.000000	0.000000	-1.000000	-1.000000	384487.000000	1775777493.066422
-11324.565000	-6672.780000	4358.520000	29307.825000	20392.830000	13082.175000	-7226.100000	8646.480000	3.093687	0.060908	-4.147879	-7.564425	-11.521153	-17.784105	-1.052875	2.809569	0.549360	0.961380	0.289940	-0.790953	-0.077270	0.590880	-1.000000	-1.000000	-1.000000	-1.000000	-1.000000	-1.000000	-1.000000	57.000000	0.000000	-1.000000	-1.000000	384488.000000	1775777493.066446
-11315.790000	-6663.195000	4368.915000	29319.075000	20406.420000	13097.475000	-7215.435000	8653.410000	1.759368	0.462961	-2.427992	-4.892397	-8.181057	-13.956440	-3.079089	0.018574	0.549360	0.961380	0.289940	-0.790953	-0.077270	0.590880	-1.000000	-1.000000	-1.000000	-1.000000	-1.000000	-1.000000	-1.000000	57.000000	0.000000	-1.000000	-1.000000	384489.000000	1775777493.066473
-11318.400000	-6665.400000	4366.395000	29317.185000	20405.655000	13108.770000	-7212.330000	8652.150000	0.154558	1.397447	1.244285	0.846087	-0.599983	-3.695588	-3.501657	-2.528083	0.549360	0.961380	0.289940	-0.790953	-0.077270	0.590880	-1.000000	-1.000000	-1.000000	-1.000000	-1.000000	-1.000000	-1.000000	57.000000	0.000000	-1.000000	-1.000000	384490.000000	1775777493.066486
-11319.525000	-6664.635000	4367.520000	29317.545000	20398.095000	13103.640000	-7210.395000	8653.680000	-0.995869	2.295292	4.689296	6.199432	6.638761	7.772272	-1.785870	-3.351129	0.549360	0.961380	0.289940	-0.790953	-0.077270	0.590880	-1.000000	-1.000000	-1.000000	-1.000000	-1.000000	-1.000000	-1.000000	57.000000	0.000000	-1.000000	-1.000000	384491.000000	1775777493.070002
-11318.085000	-6661.215000	4370.535000	29321.145000	20405.430000	13096.440000	-7208.955000	8655.660000	-1.905918	2.063922	5.552939	7.875640	9.146795	14.107706	0.705677	-2.554691	0.549360	0.961380	0.289940	-0.790953	-0.077270	0.590880	-1.000000	-1.000000	-1.000000	-1.000000	-1.000000	-1.000000	-1.000000	57.000000	0.000000	-1.000000	-1.000000	384492.000000	1775777493.070028
-11315.745000	-6659.820000	4369.950000	29320.245000	20408.490000	13092.885000	-7206.840000	8656.335000	-2.496402	0.710528	3.590613	5.504905	6.616902	12.174269	2.262863	-1.004520	0.549360	0.961380	0.289940	-0.790953	-0.077270	0.590880	-1.000000	-1.000000	-1.000000	-1.000000	-1.000000	-1.000000	-1.000000	57.000000	0.000000	-1.000000	-1.000000	384493.000000	1775777493.074072
-11319.525000	-6662.790000	4367.565000	29314.845000	20395.395000	13087.620000	-7209.990000	8651.205000	-2.410976	-0.963635	0.197479	0.948327	1.754301	4.243103	2.179635	0.318734	0.549360	0.961380	0.289940	-0.790953	-0.077270	0.590880	-1.000000	-1.000000	-1.000000	-1.000000	-1.000000	-1.000000	-1.000000	57.000000	0.000000	-1.000000	-1.000000	384494.000000	1775777493.074096
-11326.995000	-6668.910000	4362.615000	29308.545000	20384.505000	13074.975000	-7216.650000	8643.780000	-1.894390	-2.456211	-3.087199	-3.690165	-3.268770	-4.547909	0.638410	0.548990	0.549360	0.961380	0.289940	-0.790953	-0.077270	0.590880	-1.000000	-1.000000	-1.000000	-1.000000	-1.000000	-1.000000	-1.000000	57.000000	0.000000	-1.000000	-1.000000	384495.000000	1775777493.078161
-11325.870000	-6671.745000	4356.180000	29305.215000	20392.920000	13083.570000	-7210.620000	8647.785000	-1.496994	-3.586549	-5.255685	-6.804846	-6.963741	-9.832270	-1.478976	-0.335423	0.549360	0.961380	0.289940	-0.790953	-0.077270	0.590880	-1.000000	-1.000000	-1.000000	-1.000000	-1.000000	-1.000000	-1.000000	57.000000	0.000000	-1.000000	-1.000000	384496.000000	1775777493.078182
-11319.120000	-6666.255000	4363.875000	29313.405000	20397.195000	13081.770000	-7206.705000	8652.960000	-0.935886	-3.806522	-5.625699	-7.149434	-7.329402	-9.465380	-2.588819	-1.032978	-3.189340	1.266580	0.732480	-0.790037	-0.074524	0.592162	-1.000000	-1.000000	-1.000000	-1.000000	-1.000000	-1.000000	-1.000000	57.000000	0.000000	-1.000000	-1.000000	384497.000000	1775777493.081895
-11318.220000	-6666.030000	4366.125000	29314.080000	20387.205000	13074.615000	-7211.610000	8650.305000	0.563781	-2.368846	-3.644971	-4.224014	-3.807394	-4.399439	-1.743428	-0.298320	-3.189340	1.266580	0.732480	-0.790037	-0.074524	0.592162	-1.000000	-1.000000	-1.000000	-1.000000	-1.000000	-1.000000	-1.000000	57.000000	0.000000	-1.000000	-1.000000	384498.000000	1775777493.081917
-11310.615000	-6659.685000	4371.795000	29319.795000	20404.935000	13094.010000	-7207.245000	8656.740000	2.832402	0.566321	0.289176	0.795669	1.421255	2.109687	0.218186	1.503502	-3.189340	1.266580	0.732480	-0.790037	-0.074524	0.592162	-1.000000	-1.000000	-1.000000	-1.000000	-1.000000	-1.000000	-1.000000	57.000000	0.000000	-1.000000	-1.000000	384499.000000	1775777493.085191
-11314.395000	-6666.210000	4365.045000	29314.710000	20410.380000	13099.905000	-7208.145000	8652.735000	4.612457	3.564849	4.238398	5.301111	5.969854	7.500624	1.874407	3.017759	-3.189340	1.266580	0.732480	-0.790037	-0.074524	0.592162	-1.000000	-1.000000	-1.000000	-1.000000	-1.000000	-1.000000	-1.000000	57.000000	0.000000	-1.000000	-1.000000	384500.000000	1775777493.085214
-11308.275000	-6661.665000	4367.970000	29312.955000	20394.810000	13083.255000	-7201.935000	8656.965000	4.652656	4.895361	5.912977	6.880015	8.182608	10.046694	2.604790	3.211345	-3.189340	1.266580	0.732480	-0.790037	-0.074524	0.592162	-1.000000	-1.000000	-1.000000	-1.000000	-1.000000	-1.000000	-1.000000	57.000000	0.000000	-1.000000	-1.000000	384501.000000	1775777493.090001
-11312.505000	-6665.040000	4366.260000	29311.110000	20386.890000	13071.195000	-7208.595000	8650.395000	2.736178	3.950607	4.612814	4.942634	6.324798	7.746764	2.397238	1.898999	-3.189340	1.266580	0.732480	-0.790037	-0.074524	0.592162	-1.000000	-1.000000	-1.000000	-1.000000	-1.000000	-1.000000	-1.000000	57.000000	0.000000	-1.000000	-1.000000	384502.000000	1775777493.090022
-11311.515000	-6665.580000	4364.865000	29310.615000	20394.585000	13081.995000	-7203.555000	8651.160000	-0.282296	1.516683	1.543999	1.054276	0.828611	1.077495	1.355151	-0.345874	-3.189340	1.266580	0.732480	-0.790037	-0.074524	0.592162	-1.000000	-1.000000	-1.000000	-1.000000	-1.000000	-1.000000	-1.000000	57.000000	0.000000	-1.000000	-1.000000	384503.000000	1775777493.098108
-11309.040000	-6664.005000	4364.280000	29308.545000	20401.020000	13093.605000	-7198.200000	8652.735000	-3.057526	-1.068000	-1.532016	-2.445587	-4.434196	-5.290394	0.030358	-2.428216	-3.189340	1.266580	0.732480	-0.790037	-0.074524	0.592162	-1.000000	-1.000000	-1.000000	-1.000000	-1.000000	-1.000000	-1.000000	57.000000	0.000000	-1.000000	-1.000000	384504.000000	1775777493.098133
-11305.575000	-6658.290000	4371.795000	29317.320000	20405.610000	13100.535000	-7194.780000	8653.455000	-4.287239	-2.509873	-3.196563	-3.891251	-5.777283	-6.730311	-0.636668	-3.198628	-3.189340	1.266580	0.732480	-0.790037	-0.074524	0.592162	-1.000000	-1.000000	-1.000000	-1.000000	-1.000000	-1.000000	-1.000000	57.000000	0.000000	-1.000000	-1.000000	384505.000000	1775777493.098161
-11311.020000	-6663.240000	4367.970000	29315.610000	20399.805000	13101.480000	-7199.955000	8646.795000	-3.631966	-2.285976	-2.844991	-2.856309	-3.278978	-3.275830	-0.530634	-2.477330	-3.189340	1.266580	0.732480	-0.790037	-0.074524	0.592162	-1.000000	-1.000000	-1.000000	-1.000000	-1.000000	-1.000000	-1.000000	57.000000	0.000000	-1.000000	-1.000000	384506.000000	1775777493.098174
-11311.515000	-6662.610000	4369.905000	29315.025000	20401.110000	13107.330000	-7200.495000	8644.320000	-2.068978	-1.174011	-1.207973	-0.449536	0.066641	1.326963	-0.569045	-1.250726	-5.447820	1.495480	0.839300	-0.792295	-0.074096	0.592223	-1.000000	-1.000000	-1.000000	-1.000000	-1.000000	-1.000000	-1.000000	57.000000	0.000000	-1.000000	-1.000000	384507.000000	1775777493.104353
-11306.565000	-6657.840000	4375.035000	29319.885000	20412.855000	13111.785000	-7192.935000	8649.405000	-0.620192	-0.204520	0.435060	1.533161	1.962341	3.734685	-1.136669	-0.293578	-5.447820	1.495480	0.839300	-0.792295	-0.074096	0.592223	-1.000000	-1.000000	-1.000000	-1.000000	-1.000000	-1.000000	-1.000000	57.000000	0.000000	-1.000000	-1.000000	384508.000000	1775777493.104378
-11299.365000	-6653.070000	4376.160000	29318.895000	20411.460000	13110.300000	-7182.315000	8658.810000	0.734827	0.513406	1.474266	2.189028	2.423328	3.068227	-1.251136	0.790704	-5.447820	1.495480	0.839300	-0.792295	-0.074096	0.592223	-1.000000	-1.000000	-1.000000	-1.000000	-1.000000	-1.000000	-1.000000	57.000000	0.000000	-1.000000	-1.000000	384509.000000	1775777493.105389
-11304.540000	-6659.460000	4367.745000	29308.140000	20393.595000	13090.635000	-7187.265000	8652.105000	2.148515	1.083697	1.606848	1.425994	1.698324	-0.121662	-0.164608	2.354946	-5.447820	1.495480	0.839300	-0.792295	-0.074096	0.592223	-1.000000	-1.000000	-1.000000	-1.000000	-1.000000	-1.000000	-1.000000	57.000000	0.000000	-1.000000	-1.000000	384510.000000	1775777493.105409
-11301.705000	-6658.605000	4365.720000	29307.555000	20392.785000	13089.465000	-7181.730000	8657.325000	2.888543	0.999064	0.447758	-0.594945	-0.701346	-4.728816	1.184471	3.451220	-5.447820	1.495480	0.839300	-0.792295	-0.074096	0.592223	-1.000000	-1.000000	-1.000000	-1.000000	-1.000000	-1.000000	-1.000000	57.000000	0.000000	-1.000000	-1.000000	384511.000000	1775777493.119575
-11303.370000	-6660.180000	4362.885000	29306.970000	20400.480000	13096.440000	-7182.315000	8656.020000	2.269402	0.010367	-1.581789	-2.822156	-3.696362	-8.230290	1.476618	3.036119	-5.447820	1.495480	0.839300	-0.792295	-0.074096	0.592223	-1.000000	-1.000000	-1.000000	-1.000000	-1.000000	-1.000000	-1.000000	57.000000	0.000000	-1.000000	-1.000000	384512.000000	1775777493.119599
-11299.455000	-6653.565000	4369.410000	29310.885000	20394.990000	13094.595000	-7184.475000	8658.045000	0.696457	-1.100668	-2.977460	-3.545265	-4.665322	-7.684438	0.480137	1.296666	-5.447820	1.495480	0.839300	-0.792295	-0.074096	0.592223	-1.000000	-1.000000	-1.000000	-1.000000	-1.000000	-1.000000	-1.000000	57.000000	0.000000	-1.000000	-1.000000	384513.000000	1775777493.119626
-11294.595000	-6646.320000	4378.230000	29316.285000	20387.970000	13087.845000	-7184.295000	8661.105000	-0.704995	-1.155805	-2.251234	-1.903414	-2.869023	-3.060855	-1.200771	-0.752846	-5.447820	1.495480	0.839300	-0.792295	-0.074096	0.592223	-1.000000	-1.000000	-1.000000	-1.000000	-1.000000	-1.000000	-1.000000	57.000000	0.000000	-1.000000	-1.000000	384514.000000	1775777493.119638
-11296.305000	-6648.345000	4377.285000	29315.430000	20390.805000	13075.020000	-7189.020000	8657.730000	-1.141369	0.117557	0.585468	1.274569	-0.021735	2.311185	-2.676298	-2.174564	-5.447820	1.495480	0.839300	-0.792295	-0.074096	0.592223	-1.000000	-1.000000	-1.000000	-1.000000	-1.000000	-1.000000	-1.000000	57.000000	0.000000	-1.000000	-1.000000	384515.000000	1775777493.119652
-11305.440000	-6657.570000	4373.595000	29321.775000	20430.495000	13111.065000	-7180.830000	8649.495000	-1.037365	1.349936	3.488842	4.068875	3.034500	5.792506	-3.091349	-2.877409	-5.447820	1.495480	0.839300	-0.792295	-0.074096	0.592223	-1.000000	-1.000000	-1.000000	-1.000000	-1.000000	-1.000000	-1.000000	57.000000	0.000000	-1.000000	-1.000000	384516.000000	1775777493.119664
-11306.340000	-6655.545000	4378.185000	29326.905000	20433.330000	13123.890000	-7174.845000	8648.775000	-1.417243	0.922835	4.200892	5.070669	7.001770	8.254335	-1.814351	-3.311206	-4.028640	1.083460	0.488320	-0.792845	-0.076050	0.592772	-1.000000	-1.000000	-1.000000	-1.000000	-1.000000	-1.000000	-1.000000	57.000000	0.000000	-1.000000	-1.000000	384517.000000	1775777493.122740
-11305.440000	-6653.880000	4379.445000	29325.060000	20417.355000	13102.335000	-7180.245000	8647.380000	-2.217276	-0.839776	2.543358	4.089454	10.095717	10.166213	0.796689	-3.327230	-4.028640	1.083460	0.488320	-0.792845	-0.076050	0.592772	-1.000000	-1.000000	-1.000000	-1.000000	-1.000000	-1.000000	-1.000000	57.000000	0.000000	-1.000000	-1.000000	384518.000000	1775777493.122764
-11299.905000	-6649.290000	4383.360000	29330.190000	20414.340000	13099.545000	-7172.190000	8652.105000	-2.181184	-2.049153	0.086198	1.631548	8.046587	8.496900	3.104197	-2.211790	-4.028640	1.083460	0.488320	-0.792845	-0.076050	0.592772	-1.000000	-1.000000	-1.000000	-1.000000	-1.000000	-1.000000	-1.000000	57.000000	0.000000	-1.000000	-1.000000	384519.000000	1775777493.137247
-11299.680000	-6654.645000	4371.570000	29310.660000	20394.135000	13090.230000	-7167.060000	8652.960000	-0.532373	-1.619140	-1.906610	-1.643830	-0.115321	1.618389	3.921152	0.228436	-4.028640	1.083460	0.488320	-0.792845	-0.076050	0.592772	-1.000000	-1.000000	-1.000000	-1.000000	-1.000000	-1.000000	-1.000000	57.000000	0.000000	-1.000000	-1.000000	384520.000000	1775777493.137272
-11303.055000	-6660.135000	4362.975000	29298.195000	20386.395000	13094.055000	-7162.785000	8652.735000	1.867102	-0.367338	-3.483144	-5.366885	-10.307933	-7.028862	3.437547	3.048933	-4.028640	1.083460	0.488320	-0.792845	-0.076050	0.592772	-1.000000	-1.000000	-1.000000	-1.000000	-1.000000	-1.000000	-1.000000	57.000000	0.000000	-1.000000	-1.000000	384521.000000	1775777493.137298
-11301.210000	-6656.040000	4370.355000	29310.210000	20398.545000	13102.920000	-7165.260000	8652.420000	3.323064	0.395901	-4.668619	-8.366985	-16.505796	-11.994108	2.086463	4.720939	-4.028640	1.083460	0.488320	-0.792845	-0.076050	0.592772	-1.000000	-1.000000	-1.000000	-1.000000	-1.000000	-1.000000	-1.000000	57.000000	0.000000	-1.000000	-1.000000	384522.000000	1775777493.137311
-11304.495000	-6658.425000	4370.805000	29314.620000	20399.085000	13099.680000	-7165.080000	8649.180000	3.005088	0.544665	-4.268415	-7.930768	-14.438377	-10.438116	-0.004363	4.319333	-4.028640	1.083460	0.488320	-0.792845	-0.076050	0.592772	-1.000000	-1.000000	-1.000000	-1.000000	-1.000000	-1.000000	-1.000000	57.000000	0.000000	-1.000000	-1.000000	384523.000000	1775777493.137326
-11296.440000	-6649.965000	4382.235000	29325.105000	20408.130000	13111.560000	-7156.890000	8654.580000	1.507501	0.782795	-1.375317	-2.741559	-4.898703	-4.008253	-2.240844	2.226307	-4.028640	1.083460	0.488320	-0.792845	-0.076050	0.592772	-1.000000	-1.000000	-1.000000	-1.000000	-1.000000	-1.000000	-1.000000	57.000000	0.000000	-1.000000	-1.000000	384524.000000	1775777493.137337
-11292.030000	-6645.195000	4387.005000	29326.770000	20421.045000	13112.280000	-7162.380000	8654.625000	0.193344	1.604722	3.102609	4.772960	6.902563	3.276401	-3.524803	-0.153290	-4.028640	1.083460	0.488320	-0.792845	-0.076050	0.592772	-1.000000	-1.000000	-1.000000	-1.000000	-1.000000	-1.000000	-1.000000	57.000000	0.000000	-1.000000	-1.000000	384525.000000	1775777493.137351
-11293.020000	-6648.660000	4380.525000	29316.870000	20415.735000	13086.225000	-7163.865000	8654.940000	-0.132550	2.648077	6.715547	10.044627	15.187284	7.398651	-3.548074	-1.617290	-4.028640	1.083460	0.488320	-0.792845	-0.076050	0.592772	-1.000000	-1.000000	-1.000000	-1.000000	-1.000000	-1.000000	-1.000000	57.000000	0.000000	-1.000000	-1.000000	384526.000000	1775777493.137362
-11295.000000	-6651.630000	4373.910000	29307.645000	20398.680000	13065.075000	-7165.035000	8653.815000	-0.056154	2.660832	6.832664	9.579417	15.949995	5.512010	-2.903453	-2.033675	0.106820	0.045780	1.205540	-0.793211	-0.078857	0.592528	-1.000000	-1.000000	-1.000000	-1.000000	-1.000000	-1.000000	-1.000000	57.000000	0.000000	-1.000000	-1.000000	384527.000000	1775777493.142424
-11290.185000	-6644.160000	4378.545000	29310.255000	20397.600000	13084.965000	-7156.845000	8659.485000	-0.457011	1.042082	3.035839	3.763496	8.726747	-0.973047	-1.802549	-1.785944	0.106820	0.045780	1.205540	-0.793211	-0.078857	0.592528	-1.000000	-1.000000	-1.000000	-1.000000	-1.000000	-1.000000	-1.000000	57.000000	0.000000	-1.000000	-1.000000	384528.000000	1775777493.142450
-11290.995000	-6641.640000	4383.045000	29311.425000	20395.710000	13095.945000	-7153.065000	8658.315000	-1.222666	-1.050828	-1.938821	-3.183085	-2.119590	-5.686505	0.075254	-1.101862	0.106820	0.045780	1.205540	-0.793211	-0.078857	0.592528	-1.000000	-1.000000	-1.000000	-1.000000	-1.000000	-1.000000	-1.000000	57.000000	0.000000	-1.000000	-1.000000	384529.000000	1775777493.146024
-11300.805000	-6654.285000	4375.890000	29312.010000	20405.565000	13110.795000	-7154.865000	8649.495000	-1.929770	-2.391337	-4.905912	-6.881894	-10.021723	-3.586066	2.387134	-0.457832	0.106820	0.045780	1.205540	-0.793211	-0.078857	0.592528	-1.000000	-1.000000	-1.000000	-1.000000	-1.000000	-1.000000	-1.000000	57.000000	0.000000	-1.000000	-1.000000	384530.000000	1775777493.146048
-11300.670000	-6658.065000	4375.935000	29325.780000	20425.680000	13120.245000	-7152.570000	8649.675000	-2.611778	-3.247834	-5.109657	-5.846911	-10.682393	3.794691	3.826762	-0.582421	0.106820	0.045780	1.205540	-0.793211	-0.078857	0.592528	-1.000000	-1.000000	-1.000000	-1.000000	-1.000000	-1.000000	-1.000000	57.000000	0.000000	-1.000000	-1.000000	384531.000000	1775777493.151012
-11301.390000	-6656.265000	4378.770000	29323.395000	20424.420000	13124.520000	-7153.110000	8646.120000	-2.969561	-3.914646	-3.541282	-1.468632	-4.595052	10.587123	3.478230	-1.357606	0.106820	0.045780	1.205540	-0.793211	-0.078857	0.592528	-1.000000	-1.000000	-1.000000	-1.000000	-1.000000	-1.000000	-1.000000	57.000000	0.000000	-1.000000	-1.000000	384532.000000	1775777493.151033
-11299.950000	-6655.365000	4377.195000	29314.305000	20420.460000	13125.330000	-7147.755000	8646.615000	-2.219573	-3.498442	-1.188776	2.929769	3.152512	11.767072	1.757209	-1.784959	0.106820	0.045780	1.205540	-0.793211	-0.078857	0.592528	-1.000000	-1.000000	-1.000000	-1.000000	-1.000000	-1.000000	-1.000000	57.000000	0.000000	-1.000000	-1.000000	384533.000000	1775777493.154179
-11290.590000	-6649.155000	4379.220000	29314.395000	20417.805000	13120.740000	-7139.880000	8653.770000	-0.040997	-1.256345	1.102920	4.148664	6.799785	6.285204	-0.004216	-1.005862	0.106820	0.045780	1.205540	-0.793211	-0.078857	0.592528	-1.000000	-1.000000	-1.000000	-1.000000	-1.000000	-1.000000	-1.000000	57.000000	0.000000	-1.000000	-1.000000	384534.000000	1775777493.154199
-11285.505000	-6644.115000	4382.640000	29317.005000	20413.170000	13107.015000	-7140.780000	8657.325000	3.046584	2.246411	2.655899	1.983333	4.572324	-3.157905	-0.759316	1.110157	0.106820	0.045780	1.205540	-0.793211	-0.078857	0.592528	-1.000000	-1.000000	-1.000000	-1.000000	-1.000000	-1.000000	-1.000000	57.000000	0.000000	-1.000000	-1.000000	384535.000000	1775777493.159558
-11282.445000	-6638.220000	4388.895000	29323.710000	20416.455000	13103.145000	-7137.135000	8660.430000	5.697900	5.481703	3.346263	-0.912126	-0.856331	-12.216157	-0.698936	3.635890	0.106820	0.045780	1.205540	-0.793211	-0.078857	0.592528	-1.000000	-1.000000	-1.000000	-1.000000	-1.000000	-1.000000	-1.000000	57.000000	0.000000	-1.000000	-1.000000	384536.000000	1775777493.159587
-11283.840000	-6637.950000	4389.300000	29323.035000	20415.105000	13098.465000	-7140.780000	8656.200000	6.245713	6.824130	3.323644	-2.080038	-5.320578	-16.783694	-0.717189	4.899403	1.815940	0.930860	0.732480	-0.792295	-0.080322	0.592223	-1.000000	-1.000000	-1.000000	-1.000000	-1.000000	-1.000000	-1.000000	57.000000	0.000000	-1.000000	-1.000000	384537.000000	1775777493.168563
-11278.620000	-6633.315000	4394.025000	29324.385000	20416.995000	13106.070000	-7136.820000	8659.530000	4.040412	5.473446	2.569638	-1.316226	-6.266133	-14.617144	-1.257352	3.794025	1.815940	0.930860	0.732480	-0.792295	-0.080322	0.592223	-1.000000	-1.000000	-1.000000	-1.000000	-1.000000	-1.000000	-1.000000	57.000000	0.000000	-1.000000	-1.000000	384538.000000	1775777493.168588
-11277.990000	-6632.415000	4394.610000	29327.175000	20428.110000	13116.195000	-7136.685000	8661.420000	0.205563	2.035387	1.115002	0.058448	-3.676905	-6.363879	-1.918223	0.911427	1.815940	0.930860	0.732480	-0.792295	-0.080322	0.592223	-1.000000	-1.000000	-1.000000	-1.000000	-1.000000	-1.000000	-1.000000	57.000000	0.000000	-1.000000	-1.000000	384539.000000	1775777493.168616
-11285.730000	-6640.785000	4389.345000	29326.050000	20430.810000	13131.495000	-7135.065000	8657.280000	-3.492709	-2.083912	-0.816655	0.892733	0.875837	4.749127	-2.011859	-2.083741	1.815940	0.930860	0.732480	-0.792295	-0.080322	0.592223	-1.000000	-1.000000	-1.000000	-1.000000	-1.000000	-1.000000	-1.000000	57.000000	0.000000	-1.000000	-1.000000	384540.000000	1775777493.168629
-11281.590000	-6638.040000	4394.160000	29330.460000	20411.505000	13104.585000	-7134.705000	8660.790000	-5.929512	-5.600434	-2.820909	0.848675	4.616828	13.598267	-1.338018	-3.953712	1.815940	0.930860	0.732480	-0.792295	-0.080322	0.592223	-1.000000	-1.000000	-1.000000	-1.000000	-1.000000	-1.000000	-1.000000	57.000000	0.000000	-1.000000	-1.000000	384541.000000	1775777493.169408
-11282.715000	-6639.705000	4394.295000	29330.685000	20409.390000	13089.645000	-7133.355000	8659.710000	-6.405450	-7.308758	-4.040465	0.266038	4.676364	14.879740	-0.240793	-4.226215	1.815940	0.930860	0.732480	-0.792295	-0.080322	0.592223	-1.000000	-1.000000	-1.000000	-1.000000	-1.000000	-1.000000	-1.000000	57.000000	0.000000	-1.000000	-1.000000	384542.000000	1775777493.169425
-11282.220000	-6641.280000	4386.915000	29321.145000	20415.420000	13105.350000	-7125.930000	8661.510000	-4.703787	-6.461620	-3.871349	-0.533807	1.252428	7.970556	0.907973	-3.031886	1.815940	0.930860	0.732480	-0.792295	-0.080322	0.592223	-1.000000	-1.000000	-1.000000	-1.000000	-1.000000	-1.000000	-1.000000	57.000000	0.000000	-1.000000	-1.000000	384543.000000	1775777493.175416
-11279.925000	-6639.930000	4387.185000	29320.830000	20420.010000	13114.935000	-7117.740000	8664.435000	-1.586989	-3.533161	-2.774036	-1.632358	-2.081694	-0.919710	2.072499	-1.015966	1.815940	0.930860	0.732480	-0.792295	-0.080322	0.592223	-1.000000	-1.000000	-1.000000	-1.000000	-1.000000	-1.000000	-1.000000	57.000000	0.000000	-1.000000	-1.000000	384544.000000	1775777493.175442
-11281.050000	-6640.470000	4390.020000	29324.790000	20419.020000	13113.270000	-7115.670000	8663.490000	1.625871	0.168044	-1.326201	-2.573976	-2.490848	-5.169265	3.123620	0.995984	1.815940	0.930860	0.732480	-0.792295	-0.080322	0.592223	-1.000000	-1.000000	-1.000000	-1.000000	-1.000000	-1.000000	-1.000000	57.000000	0.000000	-1.000000	-1.000000	384545.000000	1775777493.178085
-11282.220000	-6639.435000	4392.045000	29325.465000	20417.220000	13109.535000	-7118.730000	8661.375000	3.701377	3.285093	0.479188	-2.252375	-0.497292	-4.137653	3.250378	2.177112	1.815940	0.930860	0.732480	-0.792295	-0.080322	0.592223	-1.000000	-1.000000	-1.000000	-1.000000	-1.000000	-1.000000	-1.000000	57.000000	0.000000	-1.000000	-1.000000	384546.000000	1775777493.178110
-11275.155000	-6631.020000	4401.630000	29335.320000	20429.730000	13114.035000	-7115.715000	8666.955000	4.134502	5.043813	2.604151	-0.263061	1.808565	-1.328330	1.692353	2.155815	1.785420	1.052940	0.473060	-0.790647	-0.077820	0.593382	-1.000000	-1.000000	-1.000000	-1.000000	-1.000000	-1.000000	-1.000000	57.000000	0.000000	-1.000000	-1.000000	384547.000000	1775777493.183766
-11271.555000	-6628.455000	4404.330000	29335.365000	20428.245000	13109.265000	-7117.965000	8668.395000	3.506135	5.492916	4.556365	2.551589	3.224492	0.412724	-1.050374	1.463345	1.785420	1.052940	0.473060	-0.790647	-0.077820	0.593382	-1.000000	-1.000000	-1.000000	-1.000000	-1.000000	-1.000000	-1.000000	57.000000	0.000000	-1.000000	-1.000000	384548.000000	1775777493.183810
-11269.170000	-6626.520000	4406.220000	29337.660000	20431.665000	13119.300000	-7116.030000	8671.455000	2.615372	4.825529	5.402634	4.577006	3.347867	0.543554	-3.516743	0.862724	1.785420	1.052940	0.473060	-0.790647	-0.077820	0.593382	-1.000000	-1.000000	-1.000000	-1.000000	-1.000000	-1.000000	-1.000000	57.000000	0.000000	-1.000000	-1.000000	384549.000000	1775777493.185948
-11274.570000	-6631.965000	4398.930000	29330.505000	20426.940000	13124.925000	-7115.580000	8666.910000	1.470028	2.887414	4.147486	4.340900	1.933380	0.133579	-4.466989	0.439873	1.785420	1.052940	0.473060	-0.790647	-0.077820	0.593382	-1.000000	-1.000000	-1.000000	-1.000000	-1.000000	-1.000000	-1.000000	57.000000	0.000000	-1.000000	-1.000000	384550.000000	1775777493.185968
-11273.490000	-6630.930000	4400.910000	29335.095000	20433.285000	13131.720000	-7107.795000	8668.440000	-0.313006	-0.222924	0.739194	1.705533	-0.585177	0.339357	-3.446008	-0.211213	1.785420	1.052940	0.473060	-0.790647	-0.077820	0.593382	-1.000000	-1.000000	-1.000000	-1.000000	-1.000000	-1.000000	-1.000000	57.000000	0.000000	-1.000000	-1.000000	384551.000000	1775777493.192377
-11267.955000	-6625.710000	4404.195000	29334.555000	20422.755000	13121.820000	-7102.215000	8673.480000	-2.287861	-3.346665	-3.199221	-1.733779	-3.075102	0.864179	-0.799571	-1.020981	1.785420	1.052940	0.473060	-0.790647	-0.077820	0.593382	-1.000000	-1.000000	-1.000000	-1.000000	-1.000000	-1.000000	-1.000000	57.000000	0.000000	-1.000000	-1.000000	384552.000000	1775777493.192405
