Channel1	Channel2	Channel3	Channel4	Channel5	Channel6	Channel7	Channel8	FilteredChannel1	FilteredChannel2	FilteredChannel3	FilteredChannel4	FilteredChannel5	FilteredChannel6	FilteredChannel7	FilteredChannel8	GyroX	GyroY	GyroZ	AccX	AccY	AccZ	PPG1	PPG2	rawPPG1	rawPPG2	rawPPG3	Hr	Hrv	Battery	Trigger	PhysicalTrigger	AutoTrigger	NumMeasurements	Timestamp
-24774.165000	-9793.800000	-4006.080000	18159.255000	10877.670000	-1603.980000	-7223.085000	7126.650000	1.549065	0.214738	-4.976277	-4.180564	-3.413886	-1.126825	4.497549	1.523506	-0.259420	1.098720	0.824040	-0.604002	-0.216796	0.746580	-1.000000	-1.000000	-1.000000	-1.000000	-1.000000	-1.000000	-1.000000	58.000000	0.000000	-1.000000	-1.000000	197125.000000	1775777118.349594
-24778.080000	-9798.570000	-4011.120000	18150.975000	10877.895000	-1617.975000	-7230.690000	7129.395000	1.531714	-0.076103	-3.587973	-2.461108	1.436607	4.451261	3.719579	2.980449	-0.259420	1.098720	0.824040	-0.604002	-0.216796	0.746580	-1.000000	-1.000000	-1.000000	-1.000000	-1.000000	-1.000000	-1.000000	58.000000	0.000000	-1.000000	-1.000000	197126.000000	1775777118.349605
-24765.525000	-9782.820000	-3995.235000	18170.955000	10895.760000	-1594.890000	-7219.170000	7134.120000	-0.297049	-1.780736	-1.996738	-0.142400	10.459936	12.440128	1.370380	3.282171	-0.259420	1.098720	0.824040	-0.604002	-0.216796	0.746580	-1.000000	-1.000000	-1.000000	-1.000000	-1.000000	-1.000000	-1.000000	58.000000	0.000000	-1.000000	-1.000000	197127.000000	1775777118.349618
-24770.925000	-9787.995000	-3999.105000	18167.760000	10886.085000	-1601.910000	-7228.845000	7117.785000	-2.257305	-2.938769	-0.496066	1.607592	14.882247	14.950878	-1.482183	1.737108	-0.259420	1.098720	0.824040	-0.604002	-0.216796	0.746580	-1.000000	-1.000000	-1.000000	-1.000000	-1.000000	-1.000000	-1.000000	58.000000	0.000000	-1.000000	-1.000000	197128.000000	1775777118.349628
-24774.930000	-9787.815000	-3999.825000	18167.985000	10875.555000	-1614.915000	-7236.360000	7111.395000	-3.100646	-2.427331	0.801875	2.274033	9.729741	8.899715	-3.875445	-1.896377	-0.259420	1.098720	0.824040	-0.604002	-0.216796	0.746580	-1.000000	-1.000000	-1.000000	-1.000000	-1.000000	-1.000000	-1.000000	58.000000	0.000000	-1.000000	-1.000000	197129.000000	1775777118.349642
-24773.355000	-9784.260000	-3999.195000	18164.385000	10862.955000	-1625.310000	-7231.950000	7113.105000	-3.098268	-1.086518	1.104130	1.206159	-3.177456	-3.412498	-5.447425	-6.253298	-0.259420	1.098720	0.824040	-0.604002	-0.216796	0.746580	-1.000000	-1.000000	-1.000000	-1.000000	-1.000000	-1.000000	-1.000000	58.000000	0.000000	-1.000000	-1.000000	197130.000000	1775777118.349652
-24764.220000	-9783.900000	-4003.920000	18154.530000	10850.985000	-1636.740000	-7222.995000	7131.240000	-2.392092	0.120559	0.173033	-1.517418	-17.055314	-16.109099	-5.253596	-8.066151	-0.259420	1.098720	0.824040	-0.604002	-0.216796	0.746580	-1.000000	-1.000000	-1.000000	-1.000000	-1.000000	-1.000000	-1.000000	58.000000	0.000000	-1.000000	-1.000000	197131.000000	1775777118.349665
-24761.790000	-9785.565000	-4006.890000	18153.045000	10849.050000	-1633.680000	-7216.875000	7140.960000	-0.604271	0.797020	-1.383230	-4.684429	-24.567028	-22.740800	-2.409244	-4.835855	-0.259420	1.098720	0.824040	-0.604002	-0.216796	0.746580	-1.000000	-1.000000	-1.000000	-1.000000	-1.000000	-1.000000	-1.000000	58.000000	0.000000	-1.000000	-1.000000	197132.000000	1775777118.349675
-24762.015000	-9783.990000	-4004.055000	18158.355000	10861.470000	-1610.640000	-7207.875000	7143.255000	1.755222	0.783779	-2.597311	-6.314994	-21.709655	-19.491494	2.151892	2.032415	-0.259420	1.098720	0.824040	-0.604002	-0.216796	0.746580	-1.000000	-1.000000	-1.000000	-1.000000	-1.000000	-1.000000	-1.000000	58.000000	0.000000	-1.000000	-1.000000	197133.000000	1775777118.350779
-24773.220000	-9790.290000	-4006.755000	18159.165000	10874.430000	-1598.040000	-7209.180000	7130.520000	2.989675	0.203752	-2.547392	-4.805217	-9.355844	-7.055974	5.942666	7.624577	-0.259420	1.098720	0.824040	-0.604002	-0.216796	0.746580	-1.000000	-1.000000	-1.000000	-1.000000	-1.000000	-1.000000	-1.000000	58.000000	0.000000	-1.000000	-1.000000	197134.000000	1775777118.350805
-24779.655000	-9790.515000	-4003.740000	18164.655000	10875.060000	-1612.755000	-7222.005000	7118.415000	1.722839	-0.655414	-1.101105	-0.543860	6.853415	8.320489	6.405284	7.512137	-0.015260	0.427280	0.625660	-0.606566	-0.218627	0.748594	-1.000000	-1.000000	-1.000000	-1.000000	-1.000000	-1.000000	-1.000000	58.000000	0.000000	-1.000000	-1.000000	197135.000000	1775777118.361314
-24772.095000	-9781.335000	-3992.445000	18177.255000	10881.855000	-1609.110000	-7220.655000	7121.745000	-1.244599	-1.149003	1.197295	4.436424	19.123106	17.842226	2.703207	1.774775	-0.015260	0.427280	0.625660	-0.606566	-0.218627	0.748594	-1.000000	-1.000000	-1.000000	-1.000000	-1.000000	-1.000000	-1.000000	58.000000	0.000000	-1.000000	-1.000000	197136.000000	1775777118.361337
-24759.630000	-9772.065000	-3986.685000	18174.825000	10876.500000	-1607.670000	-7215.390000	7134.750000	-2.981235	-0.275534	3.742398	7.956099	22.145326	17.202968	-2.820065	-4.704407	-0.015260	0.427280	0.625660	-0.606566	-0.218627	0.748594	-1.000000	-1.000000	-1.000000	-1.000000	-1.000000	-1.000000	-1.000000	58.000000	0.000000	-1.000000	-1.000000	197137.000000	1775777118.403462
-24760.980000	-9777.240000	-3994.065000	18166.410000	10865.610000	-1625.985000	-7220.655000	7136.505000	-1.446049	1.883242	5.368030	8.111296	15.600973	8.893425	-6.360264	-6.714532	-0.015260	0.427280	0.625660	-0.606566	-0.218627	0.748594	-1.000000	-1.000000	-1.000000	-1.000000	-1.000000	-1.000000	-1.000000	58.000000	0.000000	-1.000000	-1.000000	197138.000000	1775777118.403494
-24751.035000	-9774.000000	-3993.345000	18164.340000	10862.415000	-1633.545000	-7216.965000	7140.555000	2.149696	3.498377	4.484633	4.171780	3.394593	-1.952099	-6.186296	-3.488604	-0.015260	0.427280	0.625660	-0.606566	-0.218627	0.748594	-1.000000	-1.000000	-1.000000	-1.000000	-1.000000	-1.000000	-1.000000	58.000000	0.000000	-1.000000	-1.000000	197139.000000	1775777118.403737
-24763.050000	-9786.465000	-4008.645000	18149.535000	10856.520000	-1640.790000	-7223.940000	7130.925000	4.747823	2.793951	0.756488	-2.216377	-8.432344	-10.571117	-3.337555	1.430920	-0.015260	0.427280	0.625660	-0.606566	-0.218627	0.748594	-1.000000	-1.000000	-1.000000	-1.000000	-1.000000	-1.000000	-1.000000	58.000000	0.000000	-1.000000	-1.000000	197140.000000	1775777118.403756
-24766.515000	-9788.715000	-4011.255000	18146.970000	10854.000000	-1629.630000	-7224.570000	7126.110000	4.025744	-0.297427	-4.275964	-7.963983	-14.785605	-13.315971	0.019067	3.931176	-0.015260	0.427280	0.625660	-0.606566	-0.218627	0.748594	-1.000000	-1.000000	-1.000000	-1.000000	-1.000000	-1.000000	-1.000000	58.000000	0.000000	-1.000000	-1.000000	197141.000000	1775777118.403781
-24763.365000	-9781.740000	-3996.090000	18163.710000	10860.705000	-1627.470000	-7226.415000	7119.270000	0.234504	-3.845328	-7.658400	-9.941529	-13.845014	-9.022294	2.246274	2.563403	-0.015260	0.427280	0.625660	-0.606566	-0.218627	0.748594	-1.000000	-1.000000	-1.000000	-1.000000	-1.000000	-1.000000	-1.000000	58.000000	0.000000	-1.000000	-1.000000	197142.000000	1775777118.403796
-24767.640000	-9782.595000	-3995.190000	18174.465000	10870.875000	-1614.780000	-7224.840000	7123.230000	-3.858430	-5.137589	-6.595072	-6.197964	-6.952658	-0.071370	3.052749	-0.829269	-0.015260	0.427280	0.625660	-0.606566	-0.218627	0.748594	-1.000000	-1.000000	-1.000000	-1.000000	-1.000000	-1.000000	-1.000000	58.000000	0.000000	-1.000000	-1.000000	197143.000000	1775777118.403811
-24761.790000	-9781.965000	-3998.340000	18169.785000	10877.310000	-1593.270000	-7214.985000	7129.710000	-5.563331	-3.271131	-1.531333	1.630237	2.439432	9.162077	3.176797	-2.987887	-0.015260	0.427280	0.625660	-0.606566	-0.218627	0.748594	-1.000000	-1.000000	-1.000000	-1.000000	-1.000000	-1.000000	-1.000000	58.000000	0.000000	-1.000000	-1.000000	197144.000000	1775777118.403822
-24747.255000	-9771.165000	-3988.980000	18168.210000	10870.740000	-1597.185000	-7212.195000	7134.705000	-3.902489	0.352964	3.946797	8.352546	9.807284	14.734642	3.449399	-1.956651	-3.540320	0.152600	-1.663340	-0.613524	-0.218383	0.749998	-1.000000	-1.000000	-1.000000	-1.000000	-1.000000	-1.000000	-1.000000	58.000000	0.000000	-1.000000	-1.000000	197145.000000	1775777118.403836
-24757.785000	-9776.565000	-3994.695000	18165.510000	10859.985000	-1611.540000	-7213.455000	7133.535000	0.157124	3.741990	6.762372	9.659257	11.351174	13.676989	3.689620	1.359403	-3.540320	0.152600	-1.663340	-0.613524	-0.218383	0.749998	-1.000000	-1.000000	-1.000000	-1.000000	-1.000000	-1.000000	-1.000000	58.000000	0.000000	-1.000000	-1.000000	197146.000000	1775777118.403848
-24754.500000	-9776.115000	-3998.475000	18155.925000	10838.700000	-1627.605000	-7211.160000	7131.060000	3.745991	5.144095	5.929902	5.397868	6.160043	5.184500	2.872901	4.138488	-3.540320	0.152600	-1.663340	-0.613524	-0.218383	0.749998	-1.000000	-1.000000	-1.000000	-1.000000	-1.000000	-1.000000	-1.000000	58.000000	0.000000	-1.000000	-1.000000	197147.000000	1775777118.403862
-24764.940000	-9787.905000	-4011.345000	18143.595000	10836.495000	-1637.640000	-7222.275000	7120.935000	4.279882	3.616094	2.012395	-1.573860	-2.826371	-7.289705	0.476969	4.055139	-3.540320	0.152600	-1.663340	-0.613524	-0.218383	0.749998	-1.000000	-1.000000	-1.000000	-1.000000	-1.000000	-1.000000	-1.000000	58.000000	0.000000	-1.000000	-1.000000	197148.000000	1775777118.403873
-24769.890000	-9792.135000	-4014.630000	18151.335000	10861.470000	-1620.900000	-7220.340000	7125.120000	1.609593	-0.224928	-3.133404	-7.490260	-9.595427	-16.815357	-2.907536	1.073571	-3.540320	0.152600	-1.663340	-0.613524	-0.218383	0.749998	-1.000000	-1.000000	-1.000000	-1.000000	-1.000000	-1.000000	-1.000000	58.000000	0.000000	-1.000000	-1.000000	197149.000000	1775777118.403887
-24780.870000	-9802.530000	-4021.515000	18151.065000	10878.435000	-1602.225000	-7223.355000	7115.850000	-2.444356	-4.414580	-6.903981	-9.047873	-8.616858	-17.077646	-5.685953	-2.660034	-3.540320	0.152600	-1.663340	-0.613524	-0.218383	0.749998	-1.000000	-1.000000	-1.000000	-1.000000	-1.000000	-1.000000	-1.000000	58.000000	0.000000	-1.000000	-1.000000	197150.000000	1775777118.403898
-24774.435000	-9794.880000	-4012.290000	18157.410000	10873.080000	-1613.385000	-7221.645000	7122.555000	-5.340519	-6.577269	-7.157792	-5.392399	-0.323323	-7.724438	-6.196823	-4.741207	-3.540320	0.152600	-1.663340	-0.613524	-0.218383	0.749998	-1.000000	-1.000000	-1.000000	-1.000000	-1.000000	-1.000000	-1.000000	58.000000	0.000000	-1.000000	-1.000000	197151.000000	1775777118.403911
-24772.230000	-9792.315000	-4005.765000	18165.420000	10867.860000	-1624.995000	-7222.770000	7124.805000	-4.963870	-5.074889	-3.311185	1.217720	8.296265	4.192909	-4.091277	-4.003606	-3.540320	0.152600	-1.663340	-0.613524	-0.218383	0.749998	-1.000000	-1.000000	-1.000000	-1.000000	-1.000000	-1.000000	-1.000000	58.000000	0.000000	-1.000000	-1.000000	197152.000000	1775777118.403922
-24785.865000	-9809.280000	-4024.080000	18152.010000	10851.390000	-1637.865000	-7232.625000	7115.535000	-1.426276	-0.676671	2.598821	6.950591	10.209688	10.380241	-0.709747	-1.103163	-3.540320	0.152600	-1.663340	-0.613524	-0.218383	0.749998	-1.000000	-1.000000	-1.000000	-1.000000	-1.000000	-1.000000	-1.000000	58.000000	0.000000	-1.000000	-1.000000	197153.000000	1775777118.403936
-24782.670000	-9808.020000	-4027.680000	18149.805000	10852.785000	-1633.545000	-7237.800000	7110.045000	2.614217	3.417373	6.465345	8.388233	4.361018	8.569778	1.841091	1.638283	-3.540320	0.152600	-1.663340	-0.613524	-0.218383	0.749998	-1.000000	-1.000000	-1.000000	-1.000000	-1.000000	-1.000000	-1.000000	58.000000	0.000000	-1.000000	-1.000000	197154.000000	1775777118.403948
-24775.155000	-9805.545000	-4027.455000	18140.895000	10857.060000	-1610.100000	-7228.890000	7107.795000	4.977693	4.982805	5.974067	4.831438	-4.206447	3.340434	2.685971	2.360072	-5.722500	1.632820	-2.212700	-0.615782	-0.217590	0.749754	-1.000000	-1.000000	-1.000000	-1.000000	-1.000000	-1.000000	-1.000000	58.000000	0.000000	-1.000000	-1.000000	197155.000000	1775777118.403962
-24772.095000	-9787.635000	-4016.340000	18143.910000	10859.310000	-1613.070000	-7218.855000	7109.010000	5.739603	4.907114	2.983793	-1.013955	-9.144020	0.591931	3.059272	1.442467	-5.722500	1.632820	-2.212700	-0.615782	-0.217590	0.749754	-1.000000	-1.000000	-1.000000	-1.000000	-1.000000	-1.000000	-1.000000	58.000000	0.000000	-1.000000	-1.000000	197156.000000	1775777118.403972
-24748.515000	-9758.385000	-3984.795000	18170.640000	10860.840000	-1629.135000	-7204.140000	7134.885000	5.833476	5.491690	1.351039	-4.789085	-7.935656	1.166191	4.429659	0.964813	-5.722500	1.632820	-2.212700	-0.615782	-0.217590	0.749754	-1.000000	-1.000000	-1.000000	-1.000000	-1.000000	-1.000000	-1.000000	58.000000	0.000000	-1.000000	-1.000000	197157.000000	1775777118.403986
-24742.440000	-9761.040000	-3987.405000	18173.025000	10844.550000	-1642.500000	-7205.805000	7148.835000	5.835557	7.328986	2.982226	-3.495691	-2.978681	1.177884	6.298230	2.853197	-5.722500	1.632820	-2.212700	-0.615782	-0.217590	0.749754	-1.000000	-1.000000	-1.000000	-1.000000	-1.000000	-1.000000	-1.000000	58.000000	0.000000	-1.000000	-1.000000	197158.000000	1775777118.403998
-24742.215000	-9759.555000	-3984.975000	18170.460000	10849.995000	-1633.545000	-7222.095000	7142.085000	5.076002	7.692440	5.390860	1.294731	1.488104	-1.555585	6.073470	6.152666	-5.722500	1.632820	-2.212700	-0.615782	-0.217590	0.749754	-1.000000	-1.000000	-1.000000	-1.000000	-1.000000	-1.000000	-1.000000	58.000000	0.000000	-1.000000	-1.000000	197159.000000	1775777118.404012
-24756.435000	-9773.055000	-3994.650000	18168.120000	10868.580000	-1608.210000	-7224.525000	7134.120000	1.774500	3.372935	4.295679	4.638846	3.761501	-4.135731	1.687713	6.821711	-5.722500	1.632820	-2.212700	-0.615782	-0.217590	0.749754	-1.000000	-1.000000	-1.000000	-1.000000	-1.000000	-1.000000	-1.000000	58.000000	0.000000	-1.000000	-1.000000	197160.000000	1775777118.404023
-24766.065000	-9782.955000	-4000.095000	18171.405000	10889.235000	-1575.585000	-7219.845000	7130.430000	-4.655791	-5.332053	-1.514745	3.567234	5.479476	-2.121971	-5.120377	2.236214	-5.722500	1.632820	-2.212700	-0.615782	-0.217590	0.749754	-1.000000	-1.000000	-1.000000	-1.000000	-1.000000	-1.000000	-1.000000	58.000000	0.000000	-1.000000	-1.000000	197161.000000	1775777118.413504
-24763.320000	-9784.530000	-4008.780000	18170.910000	10889.730000	-1586.520000	-7213.320000	7139.655000	-11.671545	-14.280739	-9.164386	-0.608255	7.666914	4.362863	-9.657995	-5.241735	-5.722500	1.632820	-2.212700	-0.615782	-0.217590	0.749754	-1.000000	-1.000000	-1.000000	-1.000000	-1.000000	-1.000000	-1.000000	58.000000	0.000000	-1.000000	-1.000000	197162.000000	1775777118.413525
-24768.990000	-9791.145000	-4028.760000	18159.795000	10894.320000	-1573.830000	-7210.845000	7133.895000	-14.936199	-18.347783	-14.549277	-4.884351	8.331386	9.533570	-8.848783	-10.542895	-5.722500	1.632820	-2.212700	-0.615782	-0.217590	0.749754	-1.000000	-1.000000	-1.000000	-1.000000	-1.000000	-1.000000	-1.000000	58.000000	0.000000	-1.000000	-1.000000	197163.000000	1775777118.413546
-24773.580000	-9793.125000	-4032.135000	18151.380000	10872.225000	-1606.590000	-7215.930000	7119.630000	-12.224992	-15.168323	-15.219194	-7.482540	4.794740	7.731765	-3.885443	-11.070949	-5.722500	1.632820	-2.212700	-0.615782	-0.217590	0.749754	-1.000000	-1.000000	-1.000000	-1.000000	-1.000000	-1.000000	-1.000000	58.000000	0.000000	-1.000000	-1.000000	197164.000000	1775777118.413553
-24781.140000	-9797.490000	-4023.000000	18147.015000	10857.555000	-1619.730000	-7216.830000	7115.085000	-5.246323	-6.517536	-10.493477	-7.903099	-3.274179	-1.651485	1.419311	-8.165959	-4.318580	5.295220	-0.625660	-0.615416	-0.219238	0.748899	-1.000000	-1.000000	-1.000000	-1.000000	-1.000000	-1.000000	-1.000000	58.000000	0.000000	-1.000000	-1.000000	197165.000000	1775777118.419239
-24772.050000	-9786.195000	-4000.320000	18166.590000	10861.155000	-1622.115000	-7210.305000	7125.390000	2.580102	3.694975	-0.816090	-5.534125	-12.454113	-13.569201	4.289256	-3.768873	-4.318580	5.295220	-0.625660	-0.615416	-0.219238	0.748899	-1.000000	-1.000000	-1.000000	-1.000000	-1.000000	-1.000000	-1.000000	58.000000	0.000000	-1.000000	-1.000000	197166.000000	1775777118.419269
-24761.475000	-9776.655000	-3989.520000	18177.930000	10877.670000	-1615.410000	-7208.100000	7133.085000	8.983243	12.120863	11.239338	0.185726	-16.653947	-20.027332	4.672228	1.666110	-4.318580	5.295220	-0.625660	-0.615416	-0.219238	0.748899	-1.000000	-1.000000	-1.000000	-1.000000	-1.000000	-1.000000	-1.000000	58.000000	0.000000	-1.000000	-1.000000	197167.000000	1775777118.419297
-24764.850000	-9780.930000	-3993.615000	18183.510000	10902.015000	-1591.020000	-7212.645000	7126.695000	12.857431	16.544725	20.341229	7.661374	-11.623020	-15.749871	3.647670	7.256165	-4.318580	5.295220	-0.625660	-0.615416	-0.219238	0.748899	-1.000000	-1.000000	-1.000000	-1.000000	-1.000000	-1.000000	-1.000000	58.000000	0.000000	-1.000000	-1.000000	197168.000000	1775777118.419311
-24769.035000	-9784.440000	-4000.050000	18174.420000	10891.170000	-1598.625000	-7223.715000	7123.140000	12.882779	15.378639	21.003002	12.614294	0.456826	-2.477896	1.596139	10.394392	-4.318580	5.295220	-0.625660	-0.615416	-0.219238	0.748899	-1.000000	-1.000000	-1.000000	-1.000000	-1.000000	-1.000000	-1.000000	58.000000	0.000000	-1.000000	-1.000000	197169.000000	1775777118.432062
-24760.440000	-9775.440000	-3996.090000	18171.405000	10883.925000	-1595.295000	-7216.965000	7134.120000	8.621095	9.008688	12.268300	11.298411	11.475176	11.797330	-1.175806	9.337254	-4.318580	5.295220	-0.625660	-0.615416	-0.219238	0.748899	-1.000000	-1.000000	-1.000000	-1.000000	-1.000000	-1.000000	-1.000000	58.000000	0.000000	-1.000000	-1.000000	197170.000000	1775777118.432089
-24750.720000	-9764.730000	-3987.450000	18181.260000	10890.360000	-1585.665000	-7199.730000	7149.960000	2.320423	0.897250	-0.740919	4.325976	14.403900	19.125354	-2.897204	5.682281	-4.318580	5.295220	-0.625660	-0.615416	-0.219238	0.748899	-1.000000	-1.000000	-1.000000	-1.000000	-1.000000	-1.000000	-1.000000	58.000000	0.000000	-1.000000	-1.000000	197171.000000	1775777118.432119
-24752.835000	-9769.455000	-3994.380000	18173.700000	10884.195000	-1593.225000	-7199.595000	7146.810000	-2.804740	-5.041042	-11.051056	-3.754018	9.225550	17.248945	-1.668497	2.263507	-4.318580	5.295220	-0.625660	-0.615416	-0.219238	0.748899	-1.000000	-1.000000	-1.000000	-1.000000	-1.000000	-1.000000	-1.000000	58.000000	0.000000	-1.000000	-1.000000	197172.000000	1775777118.432131
-24757.785000	-9774.810000	-4000.500000	18169.920000	10876.230000	-1601.190000	-7199.865000	7140.510000	-5.633154	-7.772670	-15.232801	-8.918951	0.688358	8.664710	1.531895	-0.383940	-4.318580	5.295220	-0.625660	-0.615416	-0.219238	0.748899	-1.000000	-1.000000	-1.000000	-1.000000	-1.000000	-1.000000	-1.000000	58.000000	0.000000	-1.000000	-1.000000	197173.000000	1775777118.432146
-24756.345000	-9771.975000	-3998.205000	18171.045000	10867.050000	-1613.205000	-7204.680000	7139.610000	-6.908751	-8.420737	-13.939171	-10.024703	-6.689010	-2.434358	3.503579	-3.386309	-4.318580	5.295220	-0.625660	-0.615416	-0.219238	0.748899	-1.000000	-1.000000	-1.000000	-1.000000	-1.000000	-1.000000	-1.000000	58.000000	0.000000	-1.000000	-1.000000	197174.000000	1775777118.432158
-24757.830000	-9774.630000	-3999.510000	18175.680000	10882.170000	-1604.205000	-7204.545000	7138.395000	-7.067143	-7.664383	-9.117806	-7.532609	-9.979991	-11.330352	2.367253	-6.565918	-1.815940	4.288060	-0.625660	-0.611327	-0.223205	0.751280	-1.000000	-1.000000	-1.000000	-1.000000	-1.000000	-1.000000	-1.000000	58.000000	0.000000	-1.000000	-1.000000	197175.000000	1775777118.433492
-24755.535000	-9773.910000	-4001.580000	18175.095000	10886.850000	-1587.510000	-7197.255000	7146.090000	-5.851791	-5.539224	-2.820053	-2.695794	-7.708191	-13.789039	-0.747395	-8.104758	-1.815940	4.288060	-0.625660	-0.611327	-0.223205	0.751280	-1.000000	-1.000000	-1.000000	-1.000000	-1.000000	-1.000000	-1.000000	58.000000	0.000000	-1.000000	-1.000000	197176.000000	1775777118.433515
-24751.890000	-9768.555000	-3994.875000	18186.345000	10893.555000	-1591.335000	-7204.815000	7147.845000	-3.209152	-2.322781	2.945220	2.555295	-1.070574	-8.733729	-3.309219	-6.540129	-1.815940	4.288060	-0.625660	-0.611327	-0.223205	0.751280	-1.000000	-1.000000	-1.000000	-1.000000	-1.000000	-1.000000	-1.000000	58.000000	0.000000	-1.000000	-1.000000	197177.000000	1775777118.441466
-24760.395000	-9775.980000	-3993.165000	18188.775000	10890.495000	-1598.220000	-7216.425000	7137.945000	0.073673	1.186125	6.903140	6.458570	5.899909	-0.218397	-4.266608	-2.618130	-1.815940	4.288060	-0.625660	-0.611327	-0.223205	0.751280	-1.000000	-1.000000	-1.000000	-1.000000	-1.000000	-1.000000	-1.000000	58.000000	0.000000	-1.000000	-1.000000	197178.000000	1775777118.441492
-24768.720000	-9785.925000	-3996.675000	18177.660000	10876.005000	-1603.620000	-7222.500000	7127.910000	2.338652	3.479506	8.416060	7.623945	8.818874	5.675072	-4.358514	0.896915	-1.815940	4.288060	-0.625660	-0.611327	-0.223205	0.751280	-1.000000	-1.000000	-1.000000	-1.000000	-1.000000	-1.000000	-1.000000	58.000000	0.000000	-1.000000	-1.000000	197179.000000	1775777118.442066
-24765.300000	-9783.180000	-3997.890000	18170.370000	10863.855000	-1613.970000	-7221.060000	7126.605000	2.551301	3.464309	7.140081	5.078392	5.764237	5.991542	-3.886154	1.962506	-1.815940	4.288060	-0.625660	-0.611327	-0.223205	0.751280	-1.000000	-1.000000	-1.000000	-1.000000	-1.000000	-1.000000	-1.000000	58.000000	0.000000	-1.000000	-1.000000	197180.000000	1775777118.442083
-24751.440000	-9768.960000	-3991.905000	18170.505000	10855.395000	-1616.670000	-7209.990000	7138.485000	1.907551	2.283439	3.779801	-0.226068	-1.306672	2.156153	-1.899095	1.480545	-1.815940	4.288060	-0.625660	-0.611327	-0.223205	0.751280	-1.000000	-1.000000	-1.000000	-1.000000	-1.000000	-1.000000	-1.000000	58.000000	0.000000	-1.000000	-1.000000	197181.000000	1775777118.447627
-24753.015000	-9768.870000	-4007.205000	18156.240000	10859.760000	-1615.320000	-7206.840000	7141.140000	2.364001	2.165409	-0.067073	-5.329234	-7.594823	-2.102579	2.140284	1.883228	-1.815940	4.288060	-0.625660	-0.611327	-0.223205	0.751280	-1.000000	-1.000000	-1.000000	-1.000000	-1.000000	-1.000000	-1.000000	58.000000	0.000000	-1.000000	-1.000000	197182.000000	1775777118.447655
-24758.820000	-9770.220000	-3995.235000	18172.035000	10885.185000	-1605.420000	-7209.630000	7137.360000	3.640910	3.271677	-3.127063	-7.441707	-8.377398	-3.403375	6.607495	3.727093	-1.815940	4.288060	-0.625660	-0.611327	-0.223205	0.751280	-1.000000	-1.000000	-1.000000	-1.000000	-1.000000	-1.000000	-1.000000	58.000000	0.000000	-1.000000	-1.000000	197183.000000	1775777118.449778
-24751.440000	-9764.235000	-3988.575000	18185.580000	10892.745000	-1596.915000	-7202.790000	7143.705000	3.771135	3.770728	-4.222873	-5.017424	-2.242846	-0.724035	8.704200	5.181150	-1.815940	4.288060	-0.625660	-0.611327	-0.223205	0.751280	-1.000000	-1.000000	-1.000000	-1.000000	-1.000000	-1.000000	-1.000000	58.000000	0.000000	-1.000000	-1.000000	197184.000000	1775777118.449800
-24750.405000	-9765.270000	-3993.705000	18184.590000	10893.105000	-1593.855000	-7201.530000	7143.840000	2.174267	2.576979	-2.778693	1.184555	6.915086	4.036065	7.245724	4.735923	2.578940	4.578000	0.747740	-0.606932	-0.223144	0.748411	-1.000000	-1.000000	-1.000000	-1.000000	-1.000000	-1.000000	-1.000000	58.000000	0.000000	-1.000000	-1.000000	197185.000000	1775777118.461622
-24756.165000	-9771.255000	-3998.070000	18177.390000	10886.535000	-1618.920000	-7214.175000	7138.260000	-0.178351	0.011625	-0.361445	7.123193	12.318218	6.931705	3.051424	2.406639	2.578940	4.578000	0.747740	-0.606932	-0.223144	0.748411	-1.000000	-1.000000	-1.000000	-1.000000	-1.000000	-1.000000	-1.000000	58.000000	0.000000	-1.000000	-1.000000	197186.000000	1775777118.461650
-24747.615000	-9764.955000	-3990.330000	18185.535000	10880.595000	-1617.345000	-7207.425000	7146.810000	-2.314008	-2.943868	0.943037	8.608002	9.956562	4.780594	-2.288319	-0.856046	2.578940	4.578000	0.747740	-0.606932	-0.223144	0.748411	-1.000000	-1.000000	-1.000000	-1.000000	-1.000000	-1.000000	-1.000000	58.000000	0.000000	-1.000000	-1.000000	197187.000000	1775777118.461680
-24745.815000	-9766.845000	-3996.765000	18175.950000	10873.890000	-1598.445000	-7200.585000	7150.275000	-3.318549	-4.844108	0.859724	5.196112	1.440544	-0.885786	-6.349727	-3.380880	2.578940	4.578000	0.747740	-0.606932	-0.223144	0.748411	-1.000000	-1.000000	-1.000000	-1.000000	-1.000000	-1.000000	-1.000000	58.000000	0.000000	-1.000000	-1.000000	197188.000000	1775777118.461694
-24747.840000	-9769.545000	-4002.120000	18170.730000	10882.935000	-1600.515000	-7204.095000	7148.610000	-2.787610	-4.790495	0.010144	-0.631618	-7.725942	-4.851300	-7.001849	-3.938552	2.578940	4.578000	0.747740	-0.606932	-0.223144	0.748411	-1.000000	-1.000000	-1.000000	-1.000000	-1.000000	-1.000000	-1.000000	58.000000	0.000000	-1.000000	-1.000000	197189.000000	1775777118.465418
-24744.870000	-9765.405000	-4000.320000	18166.860000	10863.585000	-1640.520000	-7212.690000	7147.035000	-1.473727	-3.174856	-1.140062	-5.987455	-12.424372	-5.206811	-4.793899	-3.025337	2.578940	4.578000	0.747740	-0.606932	-0.223144	0.748411	-1.000000	-1.000000	-1.000000	-1.000000	-1.000000	-1.000000	-1.000000	58.000000	0.000000	-1.000000	-1.000000	197190.000000	1775777118.465442
-24736.635000	-9757.260000	-3992.445000	18175.230000	10867.635000	-1637.550000	-7206.480000	7151.985000	-0.182739	-0.698436	-1.653062	-8.378106	-11.420308	-4.958361	-2.044818	-1.836839	2.578940	4.578000	0.747740	-0.606932	-0.223144	0.748411	-1.000000	-1.000000	-1.000000	-1.000000	-1.000000	-1.000000	-1.000000	58.000000	0.000000	-1.000000	-1.000000	197191.000000	1775777118.467073
-24753.240000	-9771.795000	-4004.640000	18170.055000	10882.350000	-1586.205000	-7204.365000	7137.855000	0.656497	1.796783	-0.823062	-6.620052	-6.214202	-4.510957	0.100295	-1.062618	2.578940	4.578000	0.747740	-0.606932	-0.223144	0.748411	-1.000000	-1.000000	-1.000000	-1.000000	-1.000000	-1.000000	-1.000000	58.000000	0.000000	-1.000000	-1.000000	197192.000000	1775777118.467096
-24754.230000	-9767.250000	-3997.215000	18176.085000	10873.440000	-1581.165000	-7207.470000	7135.245000	0.277494	2.892354	0.586870	-1.930219	1.131206	0.050749	1.751017	-1.129510	2.578940	4.578000	0.747740	-0.606932	-0.223144	0.748411	-1.000000	-1.000000	-1.000000	-1.000000	-1.000000	-1.000000	-1.000000	58.000000	0.000000	-1.000000	-1.000000	197193.000000	1775777118.472419
-24752.205000	-9759.150000	-3981.420000	18189.810000	10881.765000	-1584.090000	-7207.065000	7135.380000	-1.254389	2.269576	1.854934	3.277129	7.571927	8.229553	2.710169	-1.763701	2.578940	4.578000	0.747740	-0.606932	-0.223144	0.748411	-1.000000	-1.000000	-1.000000	-1.000000	-1.000000	-1.000000	-1.000000	58.000000	0.000000	-1.000000	-1.000000	197194.000000	1775777118.472443
-24748.515000	-9758.250000	-3977.730000	18199.575000	10903.410000	-1581.075000	-7205.895000	7138.845000	-2.195226	1.380915	3.331283	7.323978	10.708624	13.226294	2.667252	-1.631489	2.701020	2.639980	0.900340	-0.606444	-0.219787	0.746031	-1.000000	-1.000000	-1.000000	-1.000000	-1.000000	-1.000000	-1.000000	58.000000	0.000000	-1.000000	-1.000000	197195.000000	1775777118.473978
-24739.920000	-9758.745000	-3983.490000	18201.555000	10913.175000	-1584.540000	-7198.020000	7151.310000	-1.027342	1.128703	4.429921	9.053866	10.790325	10.343592	2.031042	0.370422	2.701020	2.639980	0.900340	-0.606444	-0.219787	0.746031	-1.000000	-1.000000	-1.000000	-1.000000	-1.000000	-1.000000	-1.000000	58.000000	0.000000	-1.000000	-1.000000	197196.000000	1775777118.474001
-24733.755000	-9756.360000	-3987.360000	18187.470000	10886.805000	-1602.315000	-7192.845000	7159.545000	1.972714	0.983251	3.316888	7.141847	8.132282	1.032222	1.617215	3.957099	2.701020	2.639980	0.900340	-0.606444	-0.219787	0.746031	-1.000000	-1.000000	-1.000000	-1.000000	-1.000000	-1.000000	-1.000000	58.000000	0.000000	-1.000000	-1.000000	197197.000000	1775777118.479568
-24741.630000	-9763.155000	-3997.980000	18173.655000	10876.320000	-1614.330000	-7203.600000	7151.310000	4.812627	0.263126	-0.602879	1.065290	1.574022	-9.970714	1.424588	7.092868	2.701020	2.639980	0.900340	-0.606444	-0.219787	0.746031	-1.000000	-1.000000	-1.000000	-1.000000	-1.000000	-1.000000	-1.000000	58.000000	0.000000	-1.000000	-1.000000	197198.000000	1775777118.479596
-24761.520000	-9781.515000	-4010.895000	18172.080000	10891.125000	-1589.265000	-7200.990000	7136.820000	4.732618	-1.465189	-5.760833	-7.080742	-7.447962	-16.971404	0.449693	6.772782	2.701020	2.639980	0.900340	-0.606444	-0.219787	0.746031	-1.000000	-1.000000	-1.000000	-1.000000	-1.000000	-1.000000	-1.000000	58.000000	0.000000	-1.000000	-1.000000	197199.000000	1775777118.487558
-24747.030000	-9766.890000	-3997.395000	18178.965000	10888.965000	-1591.245000	-7193.655000	7149.960000	0.911059	-3.809357	-9.269406	-12.625102	-13.417295	-15.416210	-1.357764	2.146007	2.701020	2.639980	0.900340	-0.606444	-0.219787	0.746031	-1.000000	-1.000000	-1.000000	-1.000000	-1.000000	-1.000000	-1.000000	58.000000	0.000000	-1.000000	-1.000000	197200.000000	1775777118.487581
-24742.845000	-9762.345000	-3993.030000	18178.470000	10891.035000	-1590.885000	-7196.220000	7151.085000	-3.507810	-4.579398	-8.210197	-11.768527	-12.445310	-6.077237	-2.571513	-3.531748	2.701020	2.639980	0.900340	-0.606444	-0.219787	0.746031	-1.000000	-1.000000	-1.000000	-1.000000	-1.000000	-1.000000	-1.000000	58.000000	0.000000	-1.000000	-1.000000	197201.000000	1775777118.487608
-24745.635000	-9763.605000	-3991.950000	18181.620000	10899.360000	-1589.580000	-7202.520000	7146.495000	-4.735503	-2.087948	-2.311279	-5.038465	-5.867478	4.891066	-2.545929	-6.366019	2.701020	2.639980	0.900340	-0.606444	-0.219787	0.746031	-1.000000	-1.000000	-1.000000	-1.000000	-1.000000	-1.000000	-1.000000	58.000000	0.000000	-1.000000	-1.000000	197202.000000	1775777118.487620
-24753.690000	-9773.370000	-4001.040000	18177.120000	10894.995000	-1586.025000	-7205.715000	7142.220000	-2.795612	1.936548	4.771443	3.339567	2.155454	11.625154	-2.109875	-5.807495	2.701020	2.639980	0.900340	-0.606444	-0.219787	0.746031	-1.000000	-1.000000	-1.000000	-1.000000	-1.000000	-1.000000	-1.000000	58.000000	0.000000	-1.000000	-1.000000	197203.000000	1775777118.493555
-24753.465000	-9770.085000	-3999.555000	18183.060000	10896.795000	-1580.580000	-7199.640000	7140.510000	-0.370615	4.262212	8.541667	8.983081	7.597138	12.340558	-1.740348	-3.645134	2.701020	2.639980	0.900340	-0.606444	-0.219787	0.746031	-1.000000	-1.000000	-1.000000	-1.000000	-1.000000	-1.000000	-1.000000	58.000000	0.000000	-1.000000	-1.000000	197204.000000	1775777118.493575
-24748.110000	-9757.755000	-3988.530000	18193.995000	10898.595000	-1578.690000	-7191.450000	7137.045000	0.977772	4.050322	7.771601	10.297829	8.550409	8.639853	-0.707057	-1.394023	-1.464960	0.869820	0.686700	-0.611021	-0.217529	0.744139	-1.000000	-1.000000	-1.000000	-1.000000	-1.000000	-1.000000	-1.000000	58.000000	0.000000	-1.000000	-1.000000	197205.000000	1775777118.496955
-24741.810000	-9750.870000	-3984.030000	18195.030000	10899.045000	-1579.590000	-7187.265000	7138.125000	1.747591	3.084102	4.754832	8.410048	5.900750	3.155362	1.540971	0.411870	-1.464960	0.869820	0.686700	-0.611021	-0.217529	0.744139	-1.000000	-1.000000	-1.000000	-1.000000	-1.000000	-1.000000	-1.000000	58.000000	0.000000	-1.000000	-1.000000	197206.000000	1775777118.496983
-24731.100000	-9747.180000	-3982.230000	18193.320000	10890.270000	-1593.945000	-7182.090000	7156.260000	2.823396	2.708295	1.942654	4.778273	1.721382	-2.283083	4.084915	2.142802	-1.464960	0.869820	0.686700	-0.611021	-0.217529	0.744139	-1.000000	-1.000000	-1.000000	-1.000000	-1.000000	-1.000000	-1.000000	58.000000	0.000000	-1.000000	-1.000000	197207.000000	1775777118.498412
-24730.065000	-9755.145000	-3991.185000	18184.005000	10878.255000	-1611.405000	-7191.405000	7168.995000	4.042144	2.161917	-0.322117	0.049987	-2.521808	-7.046005	5.050043	4.589613	-1.464960	0.869820	0.686700	-0.611021	-0.217529	0.744139	-1.000000	-1.000000	-1.000000	-1.000000	-1.000000	-1.000000	-1.000000	58.000000	0.000000	-1.000000	-1.000000	197208.000000	1775777118.498437
-24731.415000	-9756.135000	-3990.195000	18186.210000	10884.960000	-1596.195000	-7190.640000	7168.635000	4.138409	0.054607	-2.757153	-4.919635	-5.704472	-10.146070	3.168134	7.214605	-1.464960	0.869820	0.686700	-0.611021	-0.217529	0.744139	-1.000000	-1.000000	-1.000000	-1.000000	-1.000000	-1.000000	-1.000000	58.000000	0.000000	-1.000000	-1.000000	197209.000000	1775777118.502151
-24741.270000	-9759.330000	-3986.595000	18196.785000	10894.680000	-1602.945000	-7202.115000	7150.185000	1.878035	-3.418490	-5.020702	-8.095655	-6.082340	-9.408108	-0.968739	7.285344	-1.464960	0.869820	0.686700	-0.611021	-0.217529	0.744139	-1.000000	-1.000000	-1.000000	-1.000000	-1.000000	-1.000000	-1.000000	58.000000	0.000000	-1.000000	-1.000000	197210.000000	1775777118.502176
-24741.990000	-9760.545000	-3988.080000	18196.425000	10892.385000	-1595.655000	-7199.325000	7143.885000	-2.441860	-6.359727	-5.721234	-7.514575	-2.772261	-4.189646	-5.171133	2.532558	-1.464960	0.869820	0.686700	-0.611021	-0.217529	0.744139	-1.000000	-1.000000	-1.000000	-1.000000	-1.000000	-1.000000	-1.000000	58.000000	0.000000	-1.000000	-1.000000	197211.000000	1775777118.506710
-24744.240000	-9764.595000	-3997.035000	18195.615000	10899.180000	-1581.840000	-7197.660000	7141.995000	-6.618679	-7.019624	-4.478061	-3.715966	2.340684	3.240002	-6.974962	-5.300316	-1.464960	0.869820	0.686700	-0.611021	-0.217529	0.744139	-1.000000	-1.000000	-1.000000	-1.000000	-1.000000	-1.000000	-1.000000	58.000000	0.000000	-1.000000	-1.000000	197212.000000	1775777118.506730
-24743.790000	-9772.335000	-4001.535000	18189.855000	10909.080000	-1569.645000	-7193.340000	7146.495000	-8.095539	-5.233165	-2.504936	0.450411	6.294070	9.878913	-5.118684	-11.134345	-1.464960	0.869820	0.686700	-0.611021	-0.217529	0.744139	-1.000000	-1.000000	-1.000000	-1.000000	-1.000000	-1.000000	-1.000000	58.000000	0.000000	-1.000000	-1.000000	197213.000000	1775777118.511354
-24734.205000	-9765.045000	-3998.070000	18185.535000	10903.455000	-1580.535000	-7184.115000	7158.375000	-5.814215	-2.013307	-0.810751	2.470136	7.380336	12.975003	-0.434034	-10.869479	-1.464960	0.869820	0.686700	-0.611021	-0.217529	0.744139	-1.000000	-1.000000	-1.000000	-1.000000	-1.000000	-1.000000	-1.000000	58.000000	0.000000	-1.000000	-1.000000	197214.000000	1775777118.511381
-24729.120000	-9748.800000	-3993.345000	18178.830000	10881.045000	-1611.000000	-7185.465000	7164.855000	-0.638220	1.998475	0.910614	1.869282	4.749545	9.875412	4.670673	-4.463937	-6.271860	0.686700	-2.227960	-0.615416	-0.217712	0.742674	-1.000000	-1.000000	-1.000000	-1.000000	-1.000000	-1.000000	-1.000000	58.000000	0.000000	-1.000000	-1.000000	197215.000000	1775777118.528147
-24734.520000	-9755.325000	-3995.505000	18177.075000	10861.515000	-1619.865000	-7191.405000	7160.355000	4.866723	6.249493	3.035810	-0.037210	-1.669851	0.312166	7.352647	4.061465	-6.271860	0.686700	-2.227960	-0.615416	-0.217712	0.742674	-1.000000	-1.000000	-1.000000	-1.000000	-1.000000	-1.000000	-1.000000	58.000000	0.000000	-1.000000	-1.000000	197216.000000	1775777118.528172
-24735.105000	-9755.820000	-3993.255000	18185.175000	10874.835000	-1607.355000	-7195.095000	7157.565000	7.564347	8.721283	4.789718	-1.209491	-9.052148	-10.632475	5.925916	9.368111	-6.271860	0.686700	-2.227960	-0.615416	-0.217712	0.742674	-1.000000	-1.000000	-1.000000	-1.000000	-1.000000	-1.000000	-1.000000	58.000000	0.000000	-1.000000	-1.000000	197217.000000	1775777118.528200
-24749.730000	-9768.555000	-4001.850000	18180.360000	10892.160000	-1597.635000	-7210.170000	7143.075000	5.920375	7.191663	4.919870	-0.327333	-11.694554	-15.128118	1.104942	8.530531	-6.271860	0.686700	-2.227960	-0.615416	-0.217712	0.742674	-1.000000	-1.000000	-1.000000	-1.000000	-1.000000	-1.000000	-1.000000	58.000000	0.000000	-1.000000	-1.000000	197218.000000	1775777118.528213
-24749.055000	-9769.230000	-4003.155000	18179.640000	10893.420000	-1604.250000	-7209.675000	7144.965000	1.050237	1.889359	2.923979	1.896917	-6.320125	-10.092770	-4.513466	2.743138	-6.271860	0.686700	-2.227960	-0.615416	-0.217712	0.742674	-1.000000	-1.000000	-1.000000	-1.000000	-1.000000	-1.000000	-1.000000	58.000000	0.000000	-1.000000	-1.000000	197219.000000	1775777118.528228
-24741.360000	-9760.455000	-4002.660000	18182.160000	10878.975000	-1623.690000	-7207.875000	7148.430000	-3.762468	-4.016134	-0.266611	3.592486	3.324897	-0.387898	-7.723195	-3.678454	-6.271860	0.686700	-2.227960	-0.615416	-0.217712	0.742674	-1.000000	-1.000000	-1.000000	-1.000000	-1.000000	-1.000000	-1.000000	58.000000	0.000000	-1.000000	-1.000000	197220.000000	1775777118.528239
-24740.370000	-9757.800000	-3999.240000	18184.995000	10875.735000	-1621.170000	-7205.445000	7141.770000	-5.181352	-6.668814	-2.701930	3.825409	9.802546	6.557812	-6.473689	-6.612068	-6.271860	0.686700	-2.227960	-0.615416	-0.217712	0.742674	-1.000000	-1.000000	-1.000000	-1.000000	-1.000000	-1.000000	-1.000000	58.000000	0.000000	-1.000000	-1.000000	197221.000000	1775777118.528252
-24736.230000	-9750.195000	-3981.915000	18196.695000	10887.975000	-1604.835000	-7196.580000	7137.495000	-2.665303	-4.782722	-2.726675	3.066755	9.588623	8.170017	-1.404123	-5.363309	-6.271860	0.686700	-2.227960	-0.615416	-0.217712	0.742674	-1.000000	-1.000000	-1.000000	-1.000000	-1.000000	-1.000000	-1.000000	58.000000	0.000000	-1.000000	-1.000000	197222.000000	1775777118.528262
-24748.470000	-9765.495000	-3995.640000	18183.915000	10883.565000	-1562.580000	-7184.295000	7136.190000	1.211976	-0.635379	-0.433324	1.933278	5.166173	7.834162	4.890688	-2.043022	-6.271860	0.686700	-2.227960	-0.615416	-0.217712	0.742674	-1.000000	-1.000000	-1.000000	-1.000000	-1.000000	-1.000000	-1.000000	58.000000	0.000000	-1.000000	-1.000000	197223.000000	1775777118.543912
-24750.180000	-9767.430000	-4003.515000	18178.920000	10878.030000	-1578.195000	-7188.660000	7140.915000	3.206143	2.052790	1.623963	0.009084	0.297283	8.807603	9.396046	1.310679	-6.271860	0.686700	-2.227960	-0.615416	-0.217712	0.742674	-1.000000	-1.000000	-1.000000	-1.000000	-1.000000	-1.000000	-1.000000	58.000000	0.000000	-1.000000	-1.000000	197224.000000	1775777118.543935
-24745.005000	-9763.650000	-3999.735000	18185.895000	10902.915000	-1576.125000	-7184.160000	7150.635000	2.350275	1.681871	1.024545	-2.825630	-2.875427	8.967220	9.699938	3.999420	-7.126420	0.595140	-2.746800	-0.617125	-0.217407	0.744261	-1.000000	-1.000000	-1.000000	-1.000000	-1.000000	-1.000000	-1.000000	58.000000	0.000000	-1.000000	-1.000000	197225.000000	1775777118.544044
-24747.795000	-9773.730000	-4010.265000	18174.285000	10903.860000	-1576.845000	-7195.950000	7144.830000	0.391456	-0.242144	-1.554126	-5.092681	-3.063340	4.511249	5.326802	5.750136	-7.126420	0.595140	-2.746800	-0.617125	-0.217407	0.744261	-1.000000	-1.000000	-1.000000	-1.000000	-1.000000	-1.000000	-1.000000	58.000000	0.000000	-1.000000	-1.000000	197226.000000	1775777118.544065
-24738.570000	-9762.435000	-3995.910000	18191.745000	10906.830000	-1570.095000	-7195.500000	7148.970000	-0.661235	-1.580705	-3.572181	-5.230659	-0.833116	-3.694700	-1.769078	5.746563	-7.126420	0.595140	-2.746800	-0.617125	-0.217407	0.744261	-1.000000	-1.000000	-1.000000	-1.000000	-1.000000	-1.000000	-1.000000	58.000000	0.000000	-1.000000	-1.000000	197227.000000	1775777118.544090
-24730.380000	-9750.195000	-3983.985000	18199.665000	10900.665000	-1573.605000	-7194.465000	7155.540000	-0.048268	-0.924862	-2.837981	-2.618482	0.994576	-11.074056	-8.099314	3.695890	-7.126420	0.595140	-2.746800	-0.617125	-0.217407	0.744261	-1.000000	-1.000000	-1.000000	-1.000000	-1.000000	-1.000000	-1.000000	58.000000	0.000000	-1.000000	-1.000000	197228.000000	1775777118.544102
-24732.540000	-9750.780000	-3984.570000	18198.180000	10909.215000	-1574.730000	-7195.095000	7154.460000	1.624946	1.824306	0.837524	1.833944	0.392125	-14.099085	-10.513028	0.686030	-7.126420	0.595140	-2.746800	-0.617125	-0.217407	0.744261	-1.000000	-1.000000	-1.000000	-1.000000	-1.000000	-1.000000	-1.000000	58.000000	0.000000	-1.000000	-1.000000	197229.000000	1775777118.544116
-24743.970000	-9762.030000	-3997.665000	18185.310000	10898.145000	-1582.155000	-7190.145000	7149.645000	2.397968	4.373565	4.508834	5.064537	-2.045728	-12.375492	-8.205330	-2.170735	-7.126420	0.595140	-2.746800	-0.617125	-0.217407	0.744261	-1.000000	-1.000000	-1.000000	-1.000000	-1.000000	-1.000000	-1.000000	58.000000	0.000000	-1.000000	-1.000000	197230.000000	1775777118.544127
-24745.995000	-9764.145000	-4003.290000	18179.325000	10874.610000	-1602.180000	-7191.450000	7149.105000	0.596522	3.816114	4.526164	4.209941	-5.012032	-7.992745	-2.893771	-4.480186	-7.126420	0.595140	-2.746800	-0.617125	-0.217407	0.744261	-1.000000	-1.000000	-1.000000	-1.000000	-1.000000	-1.000000	-1.000000	58.000000	0.000000	-1.000000	-1.000000	197231.000000	1775777118.559982
-24747.255000	-9761.895000	-4001.220000	18182.655000	10871.910000	-1621.980000	-7199.595000	7144.020000	-2.948419	0.139718	0.636733	-0.107706	-7.746471	-3.858849	2.386358	-5.848084	-7.126420	0.595140	-2.746800	-0.617125	-0.217407	0.744261	-1.000000	-1.000000	-1.000000	-1.000000	-1.000000	-1.000000	-1.000000	58.000000	0.000000	-1.000000	-1.000000	197232.000000	1775777118.560010
-24739.020000	-9753.480000	-3990.645000	18193.770000	10880.820000	-1630.980000	-7202.340000	7148.655000	-5.373811	-3.571987	-3.589145	-4.010101	-8.398871	-1.406938	4.959449	-5.686950	-7.126420	0.595140	-2.746800	-0.617125	-0.217407	0.744261	-1.000000	-1.000000	-1.000000	-1.000000	-1.000000	-1.000000	-1.000000	58.000000	0.000000	-1.000000	-1.000000	197233.000000	1775777118.560037
-24734.295000	-9752.265000	-3989.970000	18192.510000	10864.395000	-1635.255000	-7207.740000	7154.955000	-4.460183	-4.420227	-4.522089	-4.193177	-4.994605	0.499824	4.248221	-3.569652	-7.126420	0.595140	-2.746800	-0.617125	-0.217407	0.744261	-1.000000	-1.000000	-1.000000	-1.000000	-1.000000	-1.000000	-1.000000	58.000000	0.000000	-1.000000	-1.000000	197234.000000	1775777118.560050
-24749.190000	-9769.005000	-4005.990000	18179.460000	10855.260000	-1641.645000	-7219.215000	7143.300000	-0.908841	-2.640543	-2.240880	-1.313398	1.045783	3.616731	1.611636	-0.084463	-3.723440	1.159760	-0.930860	-0.616331	-0.220153	0.746031	-1.000000	-1.000000	-1.000000	-1.000000	-1.000000	-1.000000	-1.000000	58.000000	0.000000	-1.000000	-1.000000	197235.000000	1775777118.560066
-24751.800000	-9775.620000	-4014.540000	18161.460000	10864.710000	-1602.720000	-7216.695000	7131.330000	2.120244	-1.008362	-0.016922	0.932460	6.292166	8.570190	-1.085899	2.562734	-3.723440	1.159760	-0.930860	-0.616331	-0.220153	0.746031	-1.000000	-1.000000	-1.000000	-1.000000	-1.000000	-1.000000	-1.000000	58.000000	0.000000	-1.000000	-1.000000	197236.000000	1775777118.560077
-24763.455000	-9782.595000	-4017.195000	18167.220000	10897.380000	-1557.855000	-7211.340000	7118.460000	2.344650	-1.243478	-0.049955	0.291881	9.849356	15.500600	-2.040578	2.336487	-3.723440	1.159760	-0.930860	-0.616331	-0.220153	0.746031	-1.000000	-1.000000	-1.000000	-1.000000	-1.000000	-1.000000	-1.000000	58.000000	0.000000	-1.000000	-1.000000	197237.000000	1775777118.560091
-24769.845000	-9783.990000	-4018.545000	18168.705000	10900.260000	-1576.890000	-7210.440000	7119.675000	0.259549	-2.257136	-1.237556	-1.438747	12.787708	22.085695	-0.363132	-0.145999	-3.723440	1.159760	-0.930860	-0.616331	-0.220153	0.746031	-1.000000	-1.000000	-1.000000	-1.000000	-1.000000	-1.000000	-1.000000	58.000000	0.000000	-1.000000	-1.000000	197238.000000	1775777118.560102
-24755.400000	-9770.490000	-4008.690000	18171.765000	10885.770000	-1617.480000	-7208.865000	7130.430000	-1.707145	-1.754345	-1.153532	-1.192503	13.638722	21.010612	2.787479	-1.805389	-3.723440	1.159760	-0.930860	-0.616331	-0.220153	0.746031	-1.000000	-1.000000	-1.000000	-1.000000	-1.000000	-1.000000	-1.000000	58.000000	0.000000	-1.000000	-1.000000	197239.000000	1775777118.575050
-24750.720000	-9765.990000	-4006.935000	18169.290000	10873.125000	-1620.405000	-7206.300000	7130.520000	-0.957956	1.504591	1.296595	1.484203	8.817163	7.009709	5.110262	-0.147231	-3.723440	1.159760	-0.930860	-0.616331	-0.220153	0.746031	-1.000000	-1.000000	-1.000000	-1.000000	-1.000000	-1.000000	-1.000000	58.000000	0.000000	-1.000000	-1.000000	197240.000000	1775777118.575075
-24750.000000	-9766.530000	-4005.945000	18175.320000	10878.165000	-1580.670000	-7195.680000	7135.380000	2.638596	6.094767	4.804085	4.547830	-1.577268	-13.114492	5.312524	3.987310	-3.723440	1.159760	-0.930860	-0.616331	-0.220153	0.746031	-1.000000	-1.000000	-1.000000	-1.000000	-1.000000	-1.000000	-1.000000	58.000000	0.000000	-1.000000	-1.000000	197241.000000	1775777118.575103
-24747.480000	-9764.055000	-4003.155000	18181.305000	10874.160000	-1588.230000	-7196.490000	7143.480000	6.211845	8.749200	6.814433	6.083411	-12.015789	-25.285540	3.709134	7.538286	-3.723440	1.159760	-0.930860	-0.616331	-0.220153	0.746031	-1.000000	-1.000000	-1.000000	-1.000000	-1.000000	-1.000000	-1.000000	58.000000	0.000000	-1.000000	-1.000000	197242.000000	1775777118.575115
-24751.710000	-9767.655000	-4005.405000	18182.385000	10889.370000	-1586.880000	-7195.230000	7143.120000	6.809030	7.377435	5.823829	5.549169	-16.413483	-23.180497	1.044989	8.200562	-3.723440	1.159760	-0.930860	-0.616331	-0.220153	0.746031	-1.000000	-1.000000	-1.000000	-1.000000	-1.000000	-1.000000	-1.000000	58.000000	0.000000	-1.000000	-1.000000	197243.000000	1775777118.575129
-24748.380000	-9762.255000	-3998.340000	18183.960000	10878.885000	-1603.080000	-7200.495000	7142.175000	3.837025	2.688187	2.378964	3.209990	-12.992979	-12.370085	-2.176963	5.412991	-3.723440	1.159760	-0.930860	-0.616331	-0.220153	0.746031	-1.000000	-1.000000	-1.000000	-1.000000	-1.000000	-1.000000	-1.000000	58.000000	0.000000	-1.000000	-1.000000	197244.000000	1775777118.575139
-24740.505000	-9753.570000	-3985.740000	18195.345000	10874.250000	-1619.730000	-7209.090000	7139.835000	-0.745010	-2.507809	-1.356088	-0.034254	-5.166156	-2.014903	-5.400721	0.149514	2.243220	1.815940	1.480220	-0.613402	-0.223632	0.748655	-1.000000	-1.000000	-1.000000	-1.000000	-1.000000	-1.000000	-1.000000	58.000000	0.000000	-1.000000	-1.000000	197245.000000	1775777118.575152
-24750.945000	-9767.970000	-4002.705000	18181.710000	10877.985000	-1601.235000	-7215.435000	7134.885000	-4.325455	-5.705449	-3.581549	-2.975443	1.937623	3.243539	-7.837753	-5.488550	2.243220	1.815940	1.480220	-0.613402	-0.223632	0.748655	-1.000000	-1.000000	-1.000000	-1.000000	-1.000000	-1.000000	-1.000000	58.000000	0.000000	-1.000000	-1.000000	197246.000000	1775777118.575163
-24760.890000	-9783.585000	-4023.630000	18162.225000	10894.635000	-1557.000000	-7201.440000	7134.750000	-6.144216	-7.022427	-5.085480	-5.588273	6.069453	5.877990	-8.154845	-9.251572	2.243220	1.815940	1.480220	-0.613402	-0.223632	0.748655	-1.000000	-1.000000	-1.000000	-1.000000	-1.000000	-1.000000	-1.000000	58.000000	0.000000	-1.000000	-1.000000	197247.000000	1775777118.577338
-24767.415000	-9794.925000	-4038.570000	18146.430000	10871.595000	-1588.770000	-7203.465000	7132.230000	-6.917040	-7.919106	-7.572557	-8.575772	7.536100	9.643178	-5.076794	-9.727074	2.243220	1.815940	1.480220	-0.613402	-0.223632	0.748655	-1.000000	-1.000000	-1.000000	-1.000000	-1.000000	-1.000000	-1.000000	58.000000	0.000000	-1.000000	-1.000000	197248.000000	1775777118.577356
-24758.145000	-9783.720000	-4027.590000	18158.490000	10875.735000	-1599.210000	-7205.445000	7136.190000	-6.463163	-7.960826	-9.809974	-10.605585	6.206688	11.969248	0.466168	-6.870262	2.243220	1.815940	1.480220	-0.613402	-0.223632	0.748655	-1.000000	-1.000000	-1.000000	-1.000000	-1.000000	-1.000000	-1.000000	58.000000	0.000000	-1.000000	-1.000000	197249.000000	1775777118.590167
-24756.120000	-9774.135000	-4009.995000	18181.575000	10882.440000	-1599.615000	-7203.105000	7132.320000	-3.634187	-4.846751	-7.865421	-8.093878	2.616044	8.195157	5.391174	-2.006386	2.243220	1.815940	1.480220	-0.613402	-0.223632	0.748655	-1.000000	-1.000000	-1.000000	-1.000000	-1.000000	-1.000000	-1.000000	58.000000	0.000000	-1.000000	-1.000000	197250.000000	1775777118.590192
-24745.500000	-9765.045000	-4003.695000	18186.570000	10880.730000	-1592.055000	-7193.700000	7145.010000	1.509992	2.079314	0.015317	0.471201	-0.745087	-0.008754	7.543065	2.943944	2.243220	1.815940	1.480220	-0.613402	-0.223632	0.748655	-1.000000	-1.000000	-1.000000	-1.000000	-1.000000	-1.000000	-1.000000	58.000000	0.000000	-1.000000	-1.000000	197251.000000	1775777118.590216
-24745.095000	-9766.440000	-4005.720000	18183.780000	10880.820000	-1582.830000	-7191.945000	7149.330000	6.859341	9.733225	10.014009	10.874946	-2.133235	-6.447070	7.053524	6.612036	2.243220	1.815940	1.480220	-0.613402	-0.223632	0.748655	-1.000000	-1.000000	-1.000000	-1.000000	-1.000000	-1.000000	-1.000000	58.000000	0.000000	-1.000000	-1.000000	197252.000000	1775777118.590228
-24745.185000	-9762.930000	-4000.455000	18187.290000	10880.685000	-1595.340000	-7199.190000	7146.810000	9.575713	13.535187	15.741789	16.269059	-1.922631	-7.512094	4.704392	8.132993	2.243220	1.815940	1.480220	-0.613402	-0.223632	0.748655	-1.000000	-1.000000	-1.000000	-1.000000	-1.000000	-1.000000	-1.000000	58.000000	0.000000	-1.000000	-1.000000	197253.000000	1775777118.590238
-24745.770000	-9759.555000	-3996.945000	18193.590000	10899.045000	-1596.195000	-7200.180000	7144.470000	8.052102	11.352901	14.052869	13.652054	-0.837590	-4.778995	0.926412	6.695147	2.243220	1.815940	1.480220	-0.613402	-0.223632	0.748655	-1.000000	-1.000000	-1.000000	-1.000000	-1.000000	-1.000000	-1.000000	58.000000	0.000000	-1.000000	-1.000000	197254.000000	1775777118.590249
-24743.790000	-9760.140000	-4000.095000	18183.780000	10907.685000	-1580.040000	-7194.600000	7146.855000	3.166971	4.793715	6.676787	5.393517	1.103501	-1.329120	-3.133327	2.598193	3.509800	2.548420	1.663340	-0.611082	-0.225097	0.749815	-1.000000	-1.000000	-1.000000	-1.000000	-1.000000	-1.000000	-1.000000	58.000000	0.000000	-1.000000	-1.000000	197255.000000	1775777118.593403
-24739.245000	-9757.755000	-3999.015000	18180.540000	10895.535000	-1576.845000	-7191.135000	7150.545000	-2.309725	-2.691323	-2.374714	-4.197456	3.069727	1.824366	-5.420436	-2.076617	3.509800	2.548420	1.663340	-0.611082	-0.225097	0.749815	-1.000000	-1.000000	-1.000000	-1.000000	-1.000000	-1.000000	-1.000000	58.000000	0.000000	-1.000000	-1.000000	197256.000000	1775777118.593424
-24741.180000	-9758.745000	-4001.130000	18177.615000	10871.280000	-1596.555000	-7190.955000	7150.905000	-5.769310	-8.061018	-9.344197	-11.380296	2.389260	3.962906	-4.861755	-4.964522	3.509800	2.548420	1.663340	-0.611082	-0.225097	0.749815	-1.000000	-1.000000	-1.000000	-1.000000	-1.000000	-1.000000	-1.000000	58.000000	0.000000	-1.000000	-1.000000	197257.000000	1775777118.597256
-24748.290000	-9765.000000	-4010.895000	18165.735000	10866.105000	-1604.700000	-7199.280000	7142.985000	-6.532971	-9.974194	-12.231313	-13.906757	-2.436251	3.156524	-2.578935	-5.379232	3.509800	2.548420	1.663340	-0.611082	-0.225097	0.749815	-1.000000	-1.000000	-1.000000	-1.000000	-1.000000	-1.000000	-1.000000	58.000000	0.000000	-1.000000	-1.000000	197258.000000	1775777118.597270
-24744.285000	-9765.630000	-4014.450000	18177.660000	10885.320000	-1598.580000	-7195.005000	7149.465000	-5.514646	-8.880682	-11.256116	-11.508532	-8.109199	-0.612218	-0.579809	-4.228905	3.509800	2.548420	1.663340	-0.611082	-0.225097	0.749815	-1.000000	-1.000000	-1.000000	-1.000000	-1.000000	-1.000000	-1.000000	58.000000	0.000000	-1.000000	-1.000000	197259.000000	1775777118.601064
-24743.610000	-9765.090000	-4009.725000	18186.660000	10892.520000	-1593.990000	-7199.955000	7148.250000	-3.484795	-5.855763	-7.552254	-5.101326	-8.831104	-3.936260	0.294613	-2.346260	3.509800	2.548420	1.663340	-0.611082	-0.225097	0.749815	-1.000000	-1.000000	-1.000000	-1.000000	-1.000000	-1.000000	-1.000000	58.000000	0.000000	-1.000000	-1.000000	197260.000000	1775777118.601074
-24743.655000	-9764.415000	-4003.200000	18182.970000	10900.260000	-1579.365000	-7202.115000	7145.820000	-0.801612	-1.823385	-1.988371	3.179947	-2.820965	-3.485843	0.404547	-0.204218	3.509800	2.548420	1.663340	-0.611082	-0.225097	0.749815	-1.000000	-1.000000	-1.000000	-1.000000	-1.000000	-1.000000	-1.000000	58.000000	0.000000	-1.000000	-1.000000	197261.000000	1775777118.605613
-24735.240000	-9751.905000	-3992.940000	18190.170000	10901.205000	-1577.430000	-7196.355000	7151.310000	1.945367	2.414569	4.346469	9.692240	5.729082	0.702628	0.391113	1.570735	3.509800	2.548420	1.663340	-0.611082	-0.225097	0.749815	-1.000000	-1.000000	-1.000000	-1.000000	-1.000000	-1.000000	-1.000000	58.000000	0.000000	-1.000000	-1.000000	197262.000000	1775777118.605630
-24724.755000	-9741.285000	-3982.185000	18199.035000	10894.095000	-1591.245000	-7197.480000	7154.055000	4.274203	6.243918	9.680409	11.778889	10.853394	5.142754	0.865565	2.697033	3.509800	2.548420	1.663340	-0.611082	-0.225097	0.749815	-1.000000	-1.000000	-1.000000	-1.000000	-1.000000	-1.000000	-1.000000	58.000000	0.000000	-1.000000	-1.000000	197263.000000	1775777118.609313
-24721.560000	-9745.965000	-3993.345000	18185.850000	10879.245000	-1606.590000	-7196.625000	7154.280000	5.829784	8.669706	11.817871	9.334956	9.205539	5.530106	1.799126	3.210914	3.509800	2.548420	1.663340	-0.611082	-0.225097	0.749815	-1.000000	-1.000000	-1.000000	-1.000000	-1.000000	-1.000000	-1.000000	58.000000	0.000000	-1.000000	-1.000000	197264.000000	1775777118.609328
-24734.025000	-9757.395000	-4006.890000	18175.140000	10865.655000	-1626.840000	-7195.950000	7155.135000	5.562978	7.849972	8.827431	3.362998	1.701822	0.536897	2.444262	2.913845	1.068200	3.753960	0.656180	-0.610960	-0.224304	0.748533	-1.000000	-1.000000	-1.000000	-1.000000	-1.000000	-1.000000	-1.000000	58.000000	0.000000	-1.000000	-1.000000	197265.000000	1775777118.613478
-24729.705000	-9750.555000	-3996.180000	18190.710000	10896.210000	-1600.065000	-7181.010000	7162.560000	2.482222	3.117240	1.352268	-3.874336	-6.589165	-6.195857	2.497447	1.823356	1.068200	3.753960	0.656180	-0.610960	-0.224304	0.748533	-1.000000	-1.000000	-1.000000	-1.000000	-1.000000	-1.000000	-1.000000	58.000000	0.000000	-1.000000	-1.000000	197266.000000	1775777118.613502
-24746.355000	-9763.155000	-4003.740000	18194.760000	10918.575000	-1549.305000	-7176.420000	7149.825000	-2.533962	-3.211663	-6.335922	-8.323035	-8.933635	-7.581535	2.492822	0.309913	1.068200	3.753960	0.656180	-0.610960	-0.224304	0.748533	-1.000000	-1.000000	-1.000000	-1.000000	-1.000000	-1.000000	-1.000000	58.000000	0.000000	-1.000000	-1.000000	197267.000000	1775777118.620560
-24756.795000	-9767.700000	-4010.670000	18183.060000	10895.130000	-1564.740000	-7185.645000	7137.360000	-7.309131	-7.918820	-10.140018	-7.733258	-3.529830	-0.116854	2.311062	-1.777761	1.068200	3.753960	0.656180	-0.610960	-0.224304	0.748533	-1.000000	-1.000000	-1.000000	-1.000000	-1.000000	-1.000000	-1.000000	58.000000	0.000000	-1.000000	-1.000000	197268.000000	1775777118.620586
-24755.805000	-9763.515000	-4002.525000	18192.285000	10900.170000	-1575.405000	-7198.425000	7133.580000	-9.757635	-9.142952	-9.210652	-4.013486	3.605525	9.784759	0.501671	-4.487088	1.068200	3.753960	0.656180	-0.610960	-0.224304	0.748533	-1.000000	-1.000000	-1.000000	-1.000000	-1.000000	-1.000000	-1.000000	58.000000	0.000000	-1.000000	-1.000000	197269.000000	1775777118.621781
-24744.690000	-9759.330000	-3998.250000	18200.430000	10913.535000	-1568.340000	-7194.330000	7147.035000	-8.031827	-6.349018	-4.639770	0.093300	6.317378	12.410197	-3.344970	-6.065749	1.068200	3.753960	0.656180	-0.610960	-0.224304	0.748533	-1.000000	-1.000000	-1.000000	-1.000000	-1.000000	-1.000000	-1.000000	58.000000	0.000000	-1.000000	-1.000000	197270.000000	1775777118.621799
-24736.680000	-9753.120000	-3994.785000	18200.925000	10904.085000	-1584.180000	-7194.555000	7153.065000	-1.723272	-0.569750	1.583893	3.375410	4.400388	5.678315	-6.835713	-4.066881	1.068200	3.753960	0.656180	-0.610960	-0.224304	0.748533	-1.000000	-1.000000	-1.000000	-1.000000	-1.000000	-1.000000	-1.000000	58.000000	0.000000	-1.000000	-1.000000	197271.000000	1775777118.626036
-24740.640000	-9762.120000	-4013.640000	18184.995000	10873.125000	-1613.925000	-7201.395000	7148.160000	6.443896	5.345174	6.331839	4.681238	-0.173463	-5.637683	-7.253205	1.208010	1.068200	3.753960	0.656180	-0.610960	-0.224304	0.748533	-1.000000	-1.000000	-1.000000	-1.000000	-1.000000	-1.000000	-1.000000	58.000000	0.000000	-1.000000	-1.000000	197272.000000	1775777118.626056
-24736.680000	-9761.085000	-4021.785000	18184.770000	10861.875000	-1629.720000	-7198.785000	7153.830000	11.836741	8.166490	6.659955	2.875099	-6.321314	-15.927499	-4.439502	6.255852	1.068200	3.753960	0.656180	-0.610960	-0.224304	0.748533	-1.000000	-1.000000	-1.000000	-1.000000	-1.000000	-1.000000	-1.000000	58.000000	0.000000	-1.000000	-1.000000	197273.000000	1775777118.636137
-24739.290000	-9764.640000	-4009.500000	18185.895000	10877.985000	-1596.600000	-7182.765000	7155.900000	11.596102	6.721614	2.888581	-0.955635	-11.156800	-19.741780	0.192574	8.008982	1.068200	3.753960	0.656180	-0.610960	-0.224304	0.748533	-1.000000	-1.000000	-1.000000	-1.000000	-1.000000	-1.000000	-1.000000	58.000000	0.000000	-1.000000	-1.000000	197274.000000	1775777118.636163
-24740.730000	-9766.665000	-4003.155000	18181.440000	10890.540000	-1573.965000	-7177.095000	7157.115000	6.434168	2.564079	-0.925802	-3.879993	-9.924924	-12.634332	5.324889	6.154326	-1.709120	3.082520	-0.824040	-0.611388	-0.221862	0.746397	-1.000000	-1.000000	-1.000000	-1.000000	-1.000000	-1.000000	-1.000000	58.000000	0.000000	-1.000000	-1.000000	197275.000000	1775777118.638947
-24730.155000	-9743.895000	-3989.565000	18192.690000	10907.055000	-1561.590000	-7178.715000	7159.230000	-0.435816	-1.295837	-1.222677	-3.912785	-1.235453	3.708243	9.070033	2.216552	-1.709120	3.082520	-0.824040	-0.611388	-0.221862	0.746397	-1.000000	-1.000000	-1.000000	-1.000000	-1.000000	-1.000000	-1.000000	58.000000	0.000000	-1.000000	-1.000000	197276.000000	1775777118.638966
-24731.550000	-9745.110000	-3990.015000	18201.690000	10919.745000	-1558.665000	-7182.045000	7156.395000	-5.404017	-2.248142	1.640234	-0.952573	10.447438	19.967710	9.067161	-1.908300	-1.709120	3.082520	-0.824040	-0.611388	-0.221862	0.746397	-1.000000	-1.000000	-1.000000	-1.000000	-1.000000	-1.000000	-1.000000	58.000000	0.000000	-1.000000	-1.000000	197277.000000	1775777118.638988
-24734.970000	-9751.140000	-3996.270000	18200.430000	10916.685000	-1564.020000	-7185.555000	7153.515000	-6.938539	-0.663390	4.236978	3.403501	18.126171	26.074886	4.678436	-4.899223	-1.709120	3.082520	-0.824040	-0.611388	-0.221862	0.746397	-1.000000	-1.000000	-1.000000	-1.000000	-1.000000	-1.000000	-1.000000	58.000000	0.000000	-1.000000	-1.000000	197278.000000	1775777118.639000
-24736.365000	-9753.480000	-3997.305000	18196.110000	10892.880000	-1595.520000	-7197.255000	7150.995000	-6.070968	0.424156	3.442855	6.194285	16.581586	18.241584	-2.129070	-6.226359	-1.709120	3.082520	-0.824040	-0.611388	-0.221862	0.746397	-1.000000	-1.000000	-1.000000	-1.000000	-1.000000	-1.000000	-1.000000	58.000000	0.000000	-1.000000	-1.000000	197279.000000	1775777118.641330
-24732.405000	-9754.290000	-4003.785000	18183.645000	10866.600000	-1622.565000	-7202.430000	7153.425000	-4.257106	-0.746417	-0.734871	5.029415	5.198048	0.161884	-8.266649	-5.734947	-1.709120	3.082520	-0.824040	-0.611388	-0.221862	0.746397	-1.000000	-1.000000	-1.000000	-1.000000	-1.000000	-1.000000	-1.000000	58.000000	0.000000	-1.000000	-1.000000	197280.000000	1775777118.641349
-24734.745000	-9756.225000	-4009.815000	18175.635000	10869.120000	-1606.005000	-7195.815000	7151.175000	-2.096250	-3.073539	-5.681362	0.105761	-10.547759	-18.622251	-10.900067	-3.567766	-1.709120	3.082520	-0.824040	-0.611388	-0.221862	0.746397	-1.000000	-1.000000	-1.000000	-1.000000	-1.000000	-1.000000	-1.000000	58.000000	0.000000	-1.000000	-1.000000	197281.000000	1775777118.645655
-24731.460000	-9751.230000	-4006.215000	18180.360000	10887.300000	-1585.485000	-7191.180000	7153.560000	0.086168	-4.423099	-8.488336	-5.558650	-20.951227	-26.675257	-8.415547	-0.472858	-1.709120	3.082520	-0.824040	-0.611388	-0.221862	0.746397	-1.000000	-1.000000	-1.000000	-1.000000	-1.000000	-1.000000	-1.000000	58.000000	0.000000	-1.000000	-1.000000	197282.000000	1775777118.645678
-24719.940000	-9736.605000	-3990.645000	18193.050000	10890.135000	-1599.210000	-7187.130000	7161.930000	2.059030	-3.277163	-7.184120	-7.819817	-19.000093	-19.171690	-1.791503	2.564533	-1.709120	3.082520	-0.824040	-0.611388	-0.221862	0.746397	-1.000000	-1.000000	-1.000000	-1.000000	-1.000000	-1.000000	-1.000000	58.000000	0.000000	-1.000000	-1.000000	197283.000000	1775777118.650144
-24708.600000	-9725.445000	-3973.140000	18217.260000	10897.380000	-1607.850000	-7180.200000	7171.515000	3.960585	0.511158	-1.487760	-4.287186	-6.518256	-2.896600	5.574066	4.999615	-1.709120	3.082520	-0.824040	-0.611388	-0.221862	0.746397	-1.000000	-1.000000	-1.000000	-1.000000	-1.000000	-1.000000	-1.000000	58.000000	0.000000	-1.000000	-1.000000	197284.000000	1775777118.650168
-24731.325000	-9748.080000	-3990.690000	18212.670000	10917.765000	-1550.205000	-7181.145000	7153.515000	5.073525	4.658521	5.812376	3.321750	8.315896	11.779971	10.099820	6.037036	-2.304260	4.791640	-1.159760	-0.610411	-0.220153	0.743650	-1.000000	-1.000000	-1.000000	-1.000000	-1.000000	-1.000000	-1.000000	58.000000	0.000000	-1.000000	-1.000000	197285.000000	1775777118.653970
-24742.440000	-9758.250000	-4004.865000	18194.445000	10914.660000	-1549.170000	-7190.775000	7142.220000	3.239719	5.175023	9.319521	9.240700	17.911493	20.484263	9.737902	4.069895	-2.304260	4.791640	-1.159760	-0.610411	-0.220153	0.743650	-1.000000	-1.000000	-1.000000	-1.000000	-1.000000	-1.000000	-1.000000	58.000000	0.000000	-1.000000	-1.000000	197286.000000	1775777118.653990
-24725.970000	-9740.835000	-3987.270000	18201.870000	10920.465000	-1551.690000	-7179.750000	7159.905000	-1.623753	1.098966	6.251130	8.364977	18.560256	22.137315	4.937737	-0.662029	-2.304260	4.791640	-1.159760	-0.610411	-0.220153	0.743650	-1.000000	-1.000000	-1.000000	-1.000000	-1.000000	-1.000000	-1.000000	58.000000	0.000000	-1.000000	-1.000000	197287.000000	1775777118.660450
-24725.925000	-9742.680000	-3987.900000	18209.025000	10915.605000	-1551.915000	-7170.840000	7167.510000	-5.555478	-3.443447	0.076675	1.845021	10.937787	15.316748	-0.993157	-4.366438	-2.304260	4.791640	-1.159760	-0.610411	-0.220153	0.743650	-1.000000	-1.000000	-1.000000	-1.000000	-1.000000	-1.000000	-1.000000	58.000000	0.000000	-1.000000	-1.000000	197288.000000	1775777118.660472
-24726.870000	-9744.345000	-3992.175000	18204.615000	10888.155000	-1562.850000	-7167.825000	7166.835000	-5.261241	-4.545505	-4.160537	-4.740475	-1.129411	1.745894	-4.383808	-3.920507	-2.304260	4.791640	-1.159760	-0.610411	-0.220153	0.743650	-1.000000	-1.000000	-1.000000	-1.000000	-1.000000	-1.000000	-1.000000	58.000000	0.000000	-1.000000	-1.000000	197289.000000	1775777118.661793
-24722.460000	-9742.410000	-3997.530000	18191.655000	10880.325000	-1569.555000	-7166.970000	7169.490000	-1.685247	-2.474855	-5.142301	-7.896402	-13.082812	-12.868526	-4.466014	-0.591184	-2.304260	4.791640	-1.159760	-0.610411	-0.220153	0.743650	-1.000000	-1.000000	-1.000000	-1.000000	-1.000000	-1.000000	-1.000000	58.000000	0.000000	-1.000000	-1.000000	197290.000000	1775777118.661808
-24728.490000	-9748.665000	-4010.985000	18181.080000	10899.675000	-1569.600000	-7169.130000	7159.950000	2.159811	0.346714	-4.430808	-8.085000	-19.856413	-22.244531	-3.082859	2.115757	-2.304260	4.791640	-1.159760	-0.610411	-0.220153	0.743650	-1.000000	-1.000000	-1.000000	-1.000000	-1.000000	-1.000000	-1.000000	58.000000	0.000000	-1.000000	-1.000000	197291.000000	1775777118.680142
-24717.645000	-9739.575000	-4001.220000	18200.520000	10928.430000	-1565.415000	-7168.230000	7171.920000	4.124921	2.122298	-3.367111	-6.334708	-16.714978	-22.518130	-2.128182	2.209445	-2.304260	4.791640	-1.159760	-0.610411	-0.220153	0.743650	-1.000000	-1.000000	-1.000000	-1.000000	-1.000000	-1.000000	-1.000000	58.000000	0.000000	-1.000000	-1.000000	197292.000000	1775777118.680170
-24711.300000	-9735.390000	-3991.545000	18206.685000	10923.840000	-1566.945000	-7171.470000	7182.495000	4.136597	2.727648	-1.462371	-2.133509	-4.093892	-14.152008	-2.082052	0.762674	-2.304260	4.791640	-1.159760	-0.610411	-0.220153	0.743650	-1.000000	-1.000000	-1.000000	-1.000000	-1.000000	-1.000000	-1.000000	58.000000	0.000000	-1.000000	-1.000000	197293.000000	1775777118.680201
-24722.145000	-9748.755000	-3993.615000	18204.750000	10928.160000	-1556.055000	-7173.675000	7174.890000	3.043167	2.580309	1.991183	4.011056	10.265860	-1.537352	-2.379187	-0.159092	-2.304260	4.791640	-1.159760	-0.610411	-0.220153	0.743650	-1.000000	-1.000000	-1.000000	-1.000000	-1.000000	-1.000000	-1.000000	58.000000	0.000000	-1.000000	-1.000000	197294.000000	1775777118.680214
-24733.755000	-9760.230000	-3998.385000	18195.480000	10917.045000	-1563.480000	-7179.975000	7161.705000	0.692292	1.088191	5.422876	8.685077	17.315588	9.722834	-2.391536	-0.713603	-1.144500	3.265640	-1.434440	-0.609557	-0.219543	0.747007	-1.000000	-1.000000	-1.000000	-1.000000	-1.000000	-1.000000	-1.000000	58.000000	0.000000	-1.000000	-1.000000	197295.000000	1775777118.680229
-24724.665000	-9744.840000	-3987.630000	18204.660000	10917.900000	-1566.225000	-7175.520000	7165.575000	-2.797891	-1.646813	6.456953	8.812013	13.893959	15.288314	-1.739121	-2.194037	-1.144500	3.265640	-1.434440	-0.609557	-0.219543	0.747007	-1.000000	-1.000000	-1.000000	-1.000000	-1.000000	-1.000000	-1.000000	58.000000	0.000000	-1.000000	-1.000000	197296.000000	1775777118.680240
-24724.440000	-9739.845000	-3988.080000	18202.860000	10910.430000	-1568.970000	-7173.000000	7164.090000	-5.265427	-3.162087	4.852849	5.027265	3.721023	13.815265	-0.107374	-3.927555	-1.144500	3.265640	-1.434440	-0.609557	-0.219543	0.747007	-1.000000	-1.000000	-1.000000	-1.000000	-1.000000	-1.000000	-1.000000	58.000000	0.000000	-1.000000	-1.000000	197297.000000	1775777118.680271
-24727.455000	-9739.350000	-3989.565000	18200.250000	10894.500000	-1579.365000	-7178.940000	7159.005000	-4.747451	-1.594091	1.929446	0.200822	-6.852654	7.387078	2.218165	-4.115661	-1.144500	3.265640	-1.434440	-0.609557	-0.219543	0.747007	-1.000000	-1.000000	-1.000000	-1.000000	-1.000000	-1.000000	-1.000000	58.000000	0.000000	-1.000000	-1.000000	197298.000000	1775777118.680287
-24716.115000	-9726.030000	-3973.095000	18217.980000	10893.870000	-1594.215000	-7177.185000	7166.880000	-1.707532	1.833901	-0.935960	-3.200362	-13.161646	-0.504341	3.981659	-2.227277	-1.144500	3.265640	-1.434440	-0.609557	-0.219543	0.747007	-1.000000	-1.000000	-1.000000	-1.000000	-1.000000	-1.000000	-1.000000	58.000000	0.000000	-1.000000	-1.000000	197299.000000	1775777118.683501
-24713.100000	-9724.410000	-3971.205000	18220.230000	10895.130000	-1599.525000	-7182.855000	7168.230000	2.182184	4.705393	-2.401425	-3.716850	-13.150630	-6.845390	4.114222	1.045299	-1.144500	3.265640	-1.434440	-0.609557	-0.219543	0.747007	-1.000000	-1.000000	-1.000000	-1.000000	-1.000000	-1.000000	-1.000000	58.000000	0.000000	-1.000000	-1.000000	197300.000000	1775777118.683527
-24712.740000	-9728.415000	-3979.710000	18211.230000	10920.285000	-1560.960000	-7174.530000	7170.435000	5.166081	5.202356	-2.386021	-1.991763	-6.814731	-8.649203	2.818120	4.373745	-1.144500	3.265640	-1.434440	-0.609557	-0.219543	0.747007	-1.000000	-1.000000	-1.000000	-1.000000	-1.000000	-1.000000	-1.000000	58.000000	0.000000	-1.000000	-1.000000	197301.000000	1775777118.691156
-24719.805000	-9736.290000	-3982.905000	18212.895000	10931.625000	-1549.170000	-7177.005000	7164.945000	5.569282	2.467397	-2.518125	-0.622087	3.656147	-3.639312	1.237213	6.038342	-1.144500	3.265640	-1.434440	-0.609557	-0.219543	0.747007	-1.000000	-1.000000	-1.000000	-1.000000	-1.000000	-1.000000	-1.000000	58.000000	0.000000	-1.000000	-1.000000	197302.000000	1775777118.691181
-24724.485000	-9740.880000	-3980.025000	18215.955000	10919.835000	-1561.185000	-7183.260000	7161.795000	2.806109	-2.604366	-3.604529	-0.965401	13.273497	5.547830	0.064818	4.922429	-1.144500	3.265640	-1.434440	-0.609557	-0.219543	0.747007	-1.000000	-1.000000	-1.000000	-1.000000	-1.000000	-1.000000	-1.000000	58.000000	0.000000	-1.000000	-1.000000	197303.000000	1775777118.692474
-24728.265000	-9748.440000	-3986.730000	18213.075000	10921.545000	-1552.725000	-7177.905000	7161.300000	-1.763500	-7.448488	-4.513931	-1.997284	16.149463	11.586554	-0.891368	1.558194	-1.144500	3.265640	-1.434440	-0.609557	-0.219543	0.747007	-1.000000	-1.000000	-1.000000	-1.000000	-1.000000	-1.000000	-1.000000	58.000000	0.000000	-1.000000	-1.000000	197304.000000	1775777118.692492
-24722.730000	-9743.310000	-3997.350000	18205.470000	10915.605000	-1557.450000	-7164.855000	7169.625000	-5.415158	-9.351699	-4.253664	-2.556822	10.473720	9.889382	-1.301048	-1.909481	0.061040	2.411080	-0.610400	-0.613890	-0.218872	0.746580	-1.000000	-1.000000	-1.000000	-1.000000	-1.000000	-1.000000	-1.000000	58.000000	0.000000	-1.000000	-1.000000	197305.000000	1775777118.698852
-24715.035000	-9727.605000	-3990.015000	18207.945000	10913.490000	-1559.790000	-7158.105000	7172.010000	-5.740234	-6.715616	-2.879354	-2.450943	0.071091	2.185555	-0.276852	-3.263419	0.061040	2.411080	-0.610400	-0.613890	-0.218872	0.746580	-1.000000	-1.000000	-1.000000	-1.000000	-1.000000	-1.000000	-1.000000	58.000000	0.000000	-1.000000	-1.000000	197306.000000	1775777118.698879
-24711.570000	-9729.045000	-3990.105000	18200.790000	10911.735000	-1564.245000	-7160.085000	7173.180000	-2.416625	-0.157482	-0.387439	-1.699600	-9.193762	-6.685303	1.673685	-2.136981	0.061040	2.411080	-0.610400	-0.613890	-0.218872	0.746580	-1.000000	-1.000000	-1.000000	-1.000000	-1.000000	-1.000000	-1.000000	58.000000	0.000000	-1.000000	-1.000000	197307.000000	1775777118.703938
-24712.155000	-9733.455000	-3994.830000	18203.040000	10911.150000	-1572.705000	-7167.645000	7177.635000	2.300550	6.723397	2.858522	-0.370267	-13.197427	-12.458939	2.374918	-0.034003	0.061040	2.411080	-0.610400	-0.613890	-0.218872	0.746580	-1.000000	-1.000000	-1.000000	-1.000000	-1.000000	-1.000000	-1.000000	58.000000	0.000000	-1.000000	-1.000000	197308.000000	1775777118.703961
-24714.360000	-9731.565000	-3984.345000	18216.225000	10913.850000	-1575.630000	-7176.105000	7173.135000	5.234756	9.681666	5.541339	1.517886	-11.126060	-13.254403	0.221006	1.314404	0.061040	2.411080	-0.610400	-0.613890	-0.218872	0.746580	-1.000000	-1.000000	-1.000000	-1.000000	-1.000000	-1.000000	-1.000000	58.000000	0.000000	-1.000000	-1.000000	197309.000000	1775777118.703998
-24723.315000	-9735.480000	-3983.490000	18216.270000	10901.295000	-1600.200000	-7188.480000	7162.380000	4.589600	7.506731	6.721420	3.968705	-5.234311	-9.885525	-4.081553	0.843912	0.061040	2.411080	-0.610400	-0.613890	-0.218872	0.746580	-1.000000	-1.000000	-1.000000	-1.000000	-1.000000	-1.000000	-1.000000	58.000000	0.000000	-1.000000	-1.000000	197310.000000	1775777118.704011
-24721.920000	-9737.955000	-3989.250000	18213.345000	10912.680000	-1581.570000	-7177.815000	7167.510000	0.991728	2.247285	6.085628	5.881366	0.982613	-4.447240	-7.738771	-1.319866	0.061040	2.411080	-0.610400	-0.613890	-0.218872	0.746580	-1.000000	-1.000000	-1.000000	-1.000000	-1.000000	-1.000000	-1.000000	58.000000	0.000000	-1.000000	-1.000000	197311.000000	1775777118.705295
-24707.250000	-9727.965000	-3980.925000	18215.685000	10924.695000	-1544.265000	-7158.690000	7175.610000	-2.724800	-2.835418	3.574530	5.507516	5.587169	2.605231	-7.268293	-3.236460	0.061040	2.411080	-0.610400	-0.613890	-0.218872	0.746580	-1.000000	-1.000000	-1.000000	-1.000000	-1.000000	-1.000000	-1.000000	58.000000	0.000000	-1.000000	-1.000000	197312.000000	1775777118.705312
-24703.965000	-9727.470000	-3986.955000	18207.900000	10916.460000	-1553.580000	-7157.925000	7168.995000	-3.505946	-5.050099	0.077643	2.503549	8.283862	11.260250	-1.481259	-2.889286	0.061040	2.411080	-0.610400	-0.613890	-0.218872	0.746580	-1.000000	-1.000000	-1.000000	-1.000000	-1.000000	-1.000000	-1.000000	58.000000	0.000000	-1.000000	-1.000000	197313.000000	1775777118.709105
-24718.950000	-9736.965000	-4006.440000	18205.560000	10916.505000	-1563.885000	-7160.580000	7163.730000	-1.380915	-4.138532	-3.403350	-1.809851	8.280038	17.343744	6.138066	-0.802730	0.061040	2.411080	-0.610400	-0.613890	-0.218872	0.746580	-1.000000	-1.000000	-1.000000	-1.000000	-1.000000	-1.000000	-1.000000	58.000000	0.000000	-1.000000	-1.000000	197314.000000	1775777118.709131
-24724.620000	-9748.485000	-4019.310000	18192.105000	10910.745000	-1549.980000	-7158.240000	7170.255000	0.455778	-2.419097	-6.760836	-5.654480	4.989791	15.646472	10.209258	1.056817	0.366240	0.946120	0.671440	-0.615904	-0.215331	0.747374	-1.000000	-1.000000	-1.000000	-1.000000	-1.000000	-1.000000	-1.000000	58.000000	0.000000	-1.000000	-1.000000	197315.000000	1775777118.714769
-24714.540000	-9739.035000	-4000.995000	18202.140000	10910.925000	-1542.330000	-7150.815000	7182.405000	0.072399	-1.743031	-8.847274	-7.448990	-0.216699	7.111763	8.639887	2.202614	0.366240	0.946120	0.671440	-0.615904	-0.215331	0.747374	-1.000000	-1.000000	-1.000000	-1.000000	-1.000000	-1.000000	-1.000000	58.000000	0.000000	-1.000000	-1.000000	197316.000000	1775777118.714794
-24717.870000	-9741.690000	-3980.520000	18220.230000	10916.055000	-1563.570000	-7171.200000	7174.530000	-1.027145	-1.378423	-6.613824	-5.679498	-4.610971	-2.967091	3.181871	3.174955	0.366240	0.946120	0.671440	-0.615904	-0.215331	0.747374	-1.000000	-1.000000	-1.000000	-1.000000	-1.000000	-1.000000	-1.000000	58.000000	0.000000	-1.000000	-1.000000	197317.000000	1775777118.717344
-24732.045000	-9758.655000	-4002.345000	18205.470000	10924.155000	-1553.715000	-7181.865000	7158.960000	-1.231765	-0.344887	0.466422	-0.406049	-5.846916	-10.751479	-3.704782	3.108345	0.366240	0.946120	0.671440	-0.615904	-0.215331	0.747374	-1.000000	-1.000000	-1.000000	-1.000000	-1.000000	-1.000000	-1.000000	58.000000	0.000000	-1.000000	-1.000000	197318.000000	1775777118.717360
-24718.725000	-9731.295000	-3990.780000	18206.505000	10919.070000	-1548.270000	-7173.360000	7168.815000	-0.781842	1.043286	7.626143	4.959248	-3.707113	-14.036472	-9.413514	0.842282	0.366240	0.946120	0.671440	-0.615904	-0.215331	0.747374	-1.000000	-1.000000	-1.000000	-1.000000	-1.000000	-1.000000	-1.000000	58.000000	0.000000	-1.000000	-1.000000	197319.000000	1775777118.721344
-24719.895000	-9731.205000	-3984.030000	18206.685000	10921.545000	-1555.290000	-7178.805000	7164.315000	0.206476	3.010574	10.206983	6.717375	-0.366216	-11.836464	-10.825069	-2.264678	0.366240	0.946120	0.671440	-0.615904	-0.215331	0.747374	-1.000000	-1.000000	-1.000000	-1.000000	-1.000000	-1.000000	-1.000000	58.000000	0.000000	-1.000000	-1.000000	197320.000000	1775777118.721362
-24732.180000	-9748.395000	-3999.150000	18204.885000	10924.920000	-1560.555000	-7186.815000	7147.305000	1.612932	5.104950	7.848285	4.635290	1.840993	-6.140660	-7.129071	-4.071075	0.366240	0.946120	0.671440	-0.615904	-0.215331	0.747374	-1.000000	-1.000000	-1.000000	-1.000000	-1.000000	-1.000000	-1.000000	58.000000	0.000000	-1.000000	-1.000000	197321.000000	1775777118.726029
-24731.235000	-9747.405000	-4002.570000	18198.900000	10906.245000	-1563.435000	-7176.555000	7147.755000	2.166578	4.844660	2.197111	0.814978	1.947404	-0.498288	-0.814659	-4.351186	0.366240	0.946120	0.671440	-0.615904	-0.215331	0.747374	-1.000000	-1.000000	-1.000000	-1.000000	-1.000000	-1.000000	-1.000000	58.000000	0.000000	-1.000000	-1.000000	197322.000000	1775777118.726056
-24725.430000	-9745.605000	-4003.515000	18195.840000	10894.635000	-1576.755000	-7173.405000	7162.425000	1.427461	1.494072	-4.297291	-2.709026	-0.263679	2.865635	5.291811	-3.119649	0.366240	0.946120	0.671440	-0.615904	-0.215331	0.747374	-1.000000	-1.000000	-1.000000	-1.000000	-1.000000	-1.000000	-1.000000	58.000000	0.000000	-1.000000	-1.000000	197323.000000	1775777118.729916
-24719.850000	-9743.670000	-4004.190000	18191.070000	10892.430000	-1577.250000	-7167.330000	7175.160000	0.753391	-2.351193	-8.427259	-4.668388	-3.768775	3.644484	9.444320	0.495565	0.366240	0.946120	0.671440	-0.615904	-0.215331	0.747374	-1.000000	-1.000000	-1.000000	-1.000000	-1.000000	-1.000000	-1.000000	58.000000	0.000000	-1.000000	-1.000000	197324.000000	1775777118.729944
-24719.220000	-9742.545000	-4002.120000	18198.450000	10912.095000	-1564.065000	-7163.280000	7177.320000	1.135389	-4.052821	-8.254486	-4.432713	-5.448803	3.322877	10.525870	5.795782	-3.280900	0.564620	1.388660	-0.616209	-0.215637	0.747252	-1.000000	-1.000000	-1.000000	-1.000000	-1.000000	-1.000000	-1.000000	58.000000	0.000000	-1.000000	-1.000000	197325.000000	1775777118.733708
-24716.880000	-9734.940000	-3988.125000	18219.510000	10923.345000	-1560.105000	-7165.620000	7171.335000	1.915232	-3.069467	-4.146261	-1.630524	-2.356524	4.051474	8.210873	9.401724	-3.280900	0.564620	1.388660	-0.616209	-0.215637	0.747252	-1.000000	-1.000000	-1.000000	-1.000000	-1.000000	-1.000000	-1.000000	58.000000	0.000000	-1.000000	-1.000000	197326.000000	1775777118.733726
-24718.770000	-9735.615000	-3986.415000	18219.825000	10921.005000	-1557.360000	-7173.270000	7163.820000	1.847085	-0.510559	1.907081	3.218433	4.470090	6.040444	3.084490	8.022305	-3.280900	0.564620	1.388660	-0.616209	-0.215637	0.747252	-1.000000	-1.000000	-1.000000	-1.000000	-1.000000	-1.000000	-1.000000	58.000000	0.000000	-1.000000	-1.000000	197327.000000	1775777118.737286
-24723.765000	-9743.715000	-3997.305000	18208.260000	10915.200000	-1561.725000	-7179.840000	7160.265000	0.348671	1.637797	6.680986	7.209605	9.916707	7.106786	-3.389884	1.749772	-3.280900	0.564620	1.388660	-0.616209	-0.215637	0.747252	-1.000000	-1.000000	-1.000000	-1.000000	-1.000000	-1.000000	-1.000000	58.000000	0.000000	-1.000000	-1.000000	197328.000000	1775777118.737303
-24713.280000	-9734.805000	-3990.195000	18211.230000	10922.985000	-1548.855000	-7165.890000	7175.205000	-1.929132	1.846800	7.293659	6.803112	9.761239	5.466579	-8.583065	-5.483682	-3.280900	0.564620	1.388660	-0.616209	-0.215637	0.747252	-1.000000	-1.000000	-1.000000	-1.000000	-1.000000	-1.000000	-1.000000	58.000000	0.000000	-1.000000	-1.000000	197329.000000	1775777118.741358
-24718.320000	-9739.710000	-3994.695000	18205.200000	10902.240000	-1574.640000	-7171.830000	7174.125000	-3.422447	0.498044	3.885730	1.874943	4.235821	1.353750	-9.730440	-8.918324	-3.280900	0.564620	1.388660	-0.616209	-0.215637	0.747252	-1.000000	-1.000000	-1.000000	-1.000000	-1.000000	-1.000000	-1.000000	58.000000	0.000000	-1.000000	-1.000000	197330.000000	1775777118.741376
-24722.235000	-9740.970000	-3996.720000	18204.885000	10889.595000	-1595.340000	-7177.365000	7172.145000	-3.397610	-1.058582	-0.888076	-4.243917	-3.772297	-4.473967	-6.705330	-7.191021	-3.280900	0.564620	1.388660	-0.616209	-0.215637	0.747252	-1.000000	-1.000000	-1.000000	-1.000000	-1.000000	-1.000000	-1.000000	58.000000	0.000000	-1.000000	-1.000000	197331.000000	1775777118.746065
-24726.105000	-9744.345000	-4001.445000	18198.720000	10894.095000	-1588.365000	-7175.385000	7166.655000	-2.613029	-2.099060	-4.577826	-8.106052	-10.641543	-10.439647	-2.162705	-2.990304	-3.280900	0.564620	1.388660	-0.616209	-0.215637	0.747252	-1.000000	-1.000000	-1.000000	-1.000000	-1.000000	-1.000000	-1.000000	58.000000	0.000000	-1.000000	-1.000000	197332.000000	1775777118.746093
-24728.895000	-9743.805000	-4002.480000	18202.095000	10910.700000	-1559.745000	-7171.155000	7157.790000	-1.853966	-2.381441	-5.991699	-8.183659	-12.289672	-12.249155	1.628722	0.219985	-3.280900	0.564620	1.388660	-0.616209	-0.215637	0.747252	-1.000000	-1.000000	-1.000000	-1.000000	-1.000000	-1.000000	-1.000000	58.000000	0.000000	-1.000000	-1.000000	197333.000000	1775777118.749348
-24725.340000	-9740.880000	-4001.220000	18211.905000	10918.890000	-1551.690000	-7168.770000	7154.280000	-1.025613	-1.700746	-4.949243	-4.706579	-6.752152	-6.293526	4.099119	0.957745	-3.280900	0.564620	1.388660	-0.616209	-0.215637	0.747252	-1.000000	-1.000000	-1.000000	-1.000000	-1.000000	-1.000000	-1.000000	58.000000	0.000000	-1.000000	-1.000000	197334.000000	1775777118.749372
-24718.185000	-9731.970000	-3984.570000	18228.870000	10929.195000	-1549.665000	-7166.790000	7158.015000	0.467859	0.041959	-1.767045	1.154618	3.131185	4.710257	5.225368	0.231490	-5.203660	2.121140	0.152600	-0.613829	-0.219909	0.744993	-1.000000	-1.000000	-1.000000	-1.000000	-1.000000	-1.000000	-1.000000	58.000000	0.000000	-1.000000	-1.000000	197335.000000	1775777118.753972
-24712.380000	-9725.805000	-3978.765000	18228.105000	10933.920000	-1547.955000	-7168.005000	7166.295000	2.817271	2.523762	2.829986	7.212514	11.517380	13.236717	4.852907	0.255167	-5.203660	2.121140	0.152600	-0.613829	-0.219909	0.744993	-1.000000	-1.000000	-1.000000	-1.000000	-1.000000	-1.000000	-1.000000	58.000000	0.000000	-1.000000	-1.000000	197336.000000	1775777118.753990
-24704.550000	-9721.395000	-3978.990000	18218.520000	10928.115000	-1550.565000	-7165.755000	7181.820000	5.198084	4.696693	6.923642	10.102841	13.707962	13.889563	3.046014	2.395750	-5.203660	2.121140	0.152600	-0.613829	-0.219909	0.744993	-1.000000	-1.000000	-1.000000	-1.000000	-1.000000	-1.000000	-1.000000	58.000000	0.000000	-1.000000	-1.000000	197337.000000	1775777118.760265
-24710.580000	-9729.270000	-3985.650000	18216.225000	10912.275000	-1566.945000	-7172.865000	7179.975000	6.082926	5.015471	7.775902	7.406407	8.439673	6.779823	0.367789	5.799142	-5.203660	2.121140	0.152600	-0.613829	-0.219909	0.744993	-1.000000	-1.000000	-1.000000	-1.000000	-1.000000	-1.000000	-1.000000	58.000000	0.000000	-1.000000	-1.000000	197338.000000	1775777118.760290
-24704.325000	-9723.330000	-3982.815000	18221.175000	10911.780000	-1576.575000	-7169.265000	7182.810000	4.343322	2.636924	4.301740	0.585099	-1.662427	-4.097260	-2.307674	7.706066	-5.203660	2.121140	0.152600	-0.613829	-0.219909	0.744993	-1.000000	-1.000000	-1.000000	-1.000000	-1.000000	-1.000000	-1.000000	58.000000	0.000000	-1.000000	-1.000000	197339.000000	1775777118.775280
-24713.820000	-9731.340000	-3990.735000	18212.220000	10902.600000	-1582.290000	-7168.815000	7172.415000	0.379529	-1.436313	-1.585171	-6.004872	-11.156897	-13.310801	-3.912369	5.751029	-5.203660	2.121140	0.152600	-0.613829	-0.219909	0.744993	-1.000000	-1.000000	-1.000000	-1.000000	-1.000000	-1.000000	-1.000000	58.000000	0.000000	-1.000000	-1.000000	197340.000000	1775777118.775305
-24709.950000	-9725.895000	-3982.995000	18220.230000	10914.210000	-1569.960000	-7161.390000	7174.710000	-4.061669	-5.042272	-6.542111	-8.976342	-14.937389	-16.097620	-3.582928	0.207810	-5.203660	2.121140	0.152600	-0.613829	-0.219909	0.744993	-1.000000	-1.000000	-1.000000	-1.000000	-1.000000	-1.000000	-1.000000	58.000000	0.000000	-1.000000	-1.000000	197341.000000	1775777118.815853
-24718.995000	-9736.470000	-3993.525000	18214.200000	10927.350000	-1543.725000	-7161.930000	7166.835000	-7.052606	-6.540906	-8.187330	-7.628615	-10.993024	-10.349231	-1.470588	-6.080914	-5.203660	2.121140	0.152600	-0.613829	-0.219909	0.744993	-1.000000	-1.000000	-1.000000	-1.000000	-1.000000	-1.000000	-1.000000	58.000000	0.000000	-1.000000	-1.000000	197342.000000	1775777118.815879
-24709.455000	-9728.460000	-3986.775000	18218.520000	10920.555000	-1541.745000	-7160.625000	7176.240000	-7.353600	-5.590149	-6.353067	-3.434366	-1.582455	1.639961	1.078243	-9.705943	-5.203660	2.121140	0.152600	-0.613829	-0.219909	0.744993	-1.000000	-1.000000	-1.000000	-1.000000	-1.000000	-1.000000	-1.000000	58.000000	0.000000	-1.000000	-1.000000	197343.000000	1775777118.816005
-24704.415000	-9724.095000	-3982.005000	18221.355000	10915.605000	-1560.555000	-7170.165000	7177.005000	-4.648542	-2.623688	-2.326069	1.294682	7.456435	12.762766	2.327539	-8.755695	-5.203660	2.121140	0.152600	-0.613829	-0.219909	0.744993	-1.000000	-1.000000	-1.000000	-1.000000	-1.000000	-1.000000	-1.000000	58.000000	0.000000	-1.000000	-1.000000	197344.000000	1775777118.816020
-24703.380000	-9721.395000	-3979.665000	18224.820000	10936.305000	-1547.460000	-7164.990000	7177.905000	0.102214	1.464130	2.323272	4.821526	11.314696	15.813990	1.507340	-3.976730	-4.471180	2.487380	0.213640	-0.611082	-0.221923	0.745604	-1.000000	-1.000000	-1.000000	-1.000000	-1.000000	-1.000000	-1.000000	58.000000	0.000000	-1.000000	-1.000000	197345.000000	1775777118.816041
-24710.490000	-9727.785000	-3986.370000	18221.130000	10944.405000	-1531.665000	-7165.755000	7173.135000	4.387824	4.861838	5.670821	6.181270	10.192049	10.480924	-0.365680	1.616957	-4.471180	2.487380	0.213640	-0.611082	-0.221923	0.745604	-1.000000	-1.000000	-1.000000	-1.000000	-1.000000	-1.000000	-1.000000	58.000000	0.000000	-1.000000	-1.000000	197346.000000	1775777118.816053
-24702.480000	-9723.555000	-3984.795000	18223.110000	10950.750000	-1516.680000	-7147.665000	7187.355000	5.859380	5.728667	6.069038	5.072313	6.874782	2.705991	-1.269672	5.247796	-4.471180	2.487380	0.213640	-0.611082	-0.221923	0.745604	-1.000000	-1.000000	-1.000000	-1.000000	-1.000000	-1.000000	-1.000000	58.000000	0.000000	-1.000000	-1.000000	197347.000000	1775777118.816067
-24708.870000	-9731.340000	-3996.900000	18206.910000	10918.530000	-1544.670000	-7155.045000	7182.180000	4.395723	3.848486	3.481301	1.958522	2.294392	-3.010013	-0.156988	6.272302	-4.471180	2.487380	0.213640	-0.611082	-0.221923	0.745604	-1.000000	-1.000000	-1.000000	-1.000000	-1.000000	-1.000000	-1.000000	58.000000	0.000000	-1.000000	-1.000000	197348.000000	1775777118.816078
-24707.430000	-9728.190000	-4002.615000	18202.500000	10896.030000	-1560.645000	-7156.395000	7179.930000	1.483993	0.579108	-0.676779	-2.180688	-4.594350	-7.364332	1.643353	5.099531	-4.471180	2.487380	0.213640	-0.611082	-0.221923	0.745604	-1.000000	-1.000000	-1.000000	-1.000000	-1.000000	-1.000000	-1.000000	58.000000	0.000000	-1.000000	-1.000000	197349.000000	1775777118.816091
-24694.200000	-9713.520000	-3989.205000	18216.630000	10898.100000	-1569.510000	-7147.080000	7188.075000	-1.041635	-1.948213	-4.085175	-5.389840	-12.622182	-11.837698	2.093810	2.353816	-4.471180	2.487380	0.213640	-0.611082	-0.221923	0.745604	-1.000000	-1.000000	-1.000000	-1.000000	-1.000000	-1.000000	-1.000000	58.000000	0.000000	-1.000000	-1.000000	197350.000000	1775777118.816102
-24699.690000	-9716.130000	-3977.505000	18230.625000	10912.095000	-1550.115000	-7147.395000	7179.615000	-1.759714	-2.038717	-4.120421	-4.934367	-16.401293	-14.027952	1.084707	-0.680017	-4.471180	2.487380	0.213640	-0.611082	-0.221923	0.745604	-1.000000	-1.000000	-1.000000	-1.000000	-1.000000	-1.000000	-1.000000	58.000000	0.000000	-1.000000	-1.000000	197351.000000	1775777118.816116
-24714.765000	-9732.465000	-3982.320000	18225.990000	10916.055000	-1531.845000	-7157.115000	7166.745000	-1.282591	-0.582984	-0.394178	-0.377084	-11.391253	-9.803253	-0.489280	-3.163634	-4.471180	2.487380	0.213640	-0.611082	-0.221923	0.745604	-1.000000	-1.000000	-1.000000	-1.000000	-1.000000	-1.000000	-1.000000	58.000000	0.000000	-1.000000	-1.000000	197352.000000	1775777118.816126
-24715.485000	-9733.545000	-3983.040000	18223.875000	10942.425000	-1520.685000	-7160.490000	7172.550000	-1.613667	-0.300888	3.911114	4.723132	0.822746	1.021075	-2.390140	-4.983580	-4.471180	2.487380	0.213640	-0.611082	-0.221923	0.745604	-1.000000	-1.000000	-1.000000	-1.000000	-1.000000	-1.000000	-1.000000	58.000000	0.000000	-1.000000	-1.000000	197353.000000	1775777118.816140
-24713.550000	-9730.035000	-3986.730000	18224.100000	10957.230000	-1522.530000	-7158.645000	7175.205000	-2.889199	-1.798554	5.171909	6.300323	14.094715	12.738691	-4.088558	-5.198610	-4.471180	2.487380	0.213640	-0.611082	-0.221923	0.745604	-1.000000	-1.000000	-1.000000	-1.000000	-1.000000	-1.000000	-1.000000	58.000000	0.000000	-1.000000	-1.000000	197354.000000	1775777118.816151
-24701.265000	-9716.355000	-3976.695000	18222.435000	10927.530000	-1544.670000	-7155.405000	7185.780000	-2.976474	-2.676408	2.897723	3.667219	21.279801	17.676609	-4.219210	-2.678303	-1.449700	2.273740	0.564620	-0.611510	-0.224731	0.745176	-1.000000	-1.000000	-1.000000	-1.000000	-1.000000	-1.000000	-1.000000	58.000000	0.000000	-1.000000	-1.000000	197355.000000	1775777118.816164
-24710.085000	-9728.865000	-3991.410000	18218.295000	10922.220000	-1560.195000	-7164.945000	7175.790000	-0.607106	-1.125302	-0.763854	-0.923830	17.245069	12.050249	-2.257352	1.702158	-1.449700	2.273740	0.564620	-0.611510	-0.224731	0.745176	-1.000000	-1.000000	-1.000000	-1.000000	-1.000000	-1.000000	-1.000000	58.000000	0.000000	-1.000000	-1.000000	197356.000000	1775777118.816175
-24713.595000	-9736.020000	-4007.970000	18214.020000	10931.670000	-1547.820000	-7159.410000	7170.480000	2.561809	1.340363	-4.192434	-4.832347	3.862731	-0.445174	0.575193	4.970401	-1.449700	2.273740	0.564620	-0.611510	-0.224731	0.745176	-1.000000	-1.000000	-1.000000	-1.000000	-1.000000	-1.000000	-1.000000	58.000000	0.000000	-1.000000	-1.000000	197357.000000	1775777118.816188
-24716.025000	-9734.760000	-4000.320000	18218.610000	10921.635000	-1561.815000	-7166.070000	7164.855000	3.887930	2.135797	-6.738464	-6.345804	-10.164135	-11.195515	2.757224	4.748882	-1.449700	2.273740	0.564620	-0.611510	-0.224731	0.745176	-1.000000	-1.000000	-1.000000	-1.000000	-1.000000	-1.000000	-1.000000	58.000000	0.000000	-1.000000	-1.000000	197358.000000	1775777118.816198
-24719.040000	-9736.245000	-3987.405000	18214.470000	10915.515000	-1566.225000	-7170.165000	7165.305000	2.711683	1.088291	-6.633952	-4.959235	-17.399591	-14.360259	3.492708	1.635060	-1.449700	2.273740	0.564620	-0.611510	-0.224731	0.745176	-1.000000	-1.000000	-1.000000	-1.000000	-1.000000	-1.000000	-1.000000	58.000000	0.000000	-1.000000	-1.000000	197359.000000	1775777118.822562
-24728.715000	-9747.495000	-3988.665000	18213.795000	10924.785000	-1558.215000	-7177.365000	7155.945000	0.225636	-0.347715	-2.447358	-1.660168	-16.211889	-10.142538	2.598494	-1.815161	-1.449700	2.273740	0.564620	-0.611510	-0.224731	0.745176	-1.000000	-1.000000	-1.000000	-1.000000	-1.000000	-1.000000	-1.000000	58.000000	0.000000	-1.000000	-1.000000	197360.000000	1775777118.822587
-24729.615000	-9745.380000	-3993.795000	18223.650000	10940.895000	-1545.390000	-7177.095000	7152.435000	-2.122410	-1.298466	3.684291	1.875657	-8.470918	-1.604302	0.727458	-3.690518	-1.449700	2.273740	0.564620	-0.611510	-0.224731	0.745176	-1.000000	-1.000000	-1.000000	-1.000000	-1.000000	-1.000000	-1.000000	58.000000	0.000000	-1.000000	-1.000000	197361.000000	1775777118.822614
-24721.155000	-9741.285000	-4003.740000	18215.280000	10931.760000	-1545.615000	-7166.925000	7164.180000	-2.961881	-1.239620	7.379367	4.445434	2.063985	7.500975	-0.575022	-3.283827	-1.449700	2.273740	0.564620	-0.611510	-0.224731	0.745176	-1.000000	-1.000000	-1.000000	-1.000000	-1.000000	-1.000000	-1.000000	58.000000	0.000000	-1.000000	-1.000000	197362.000000	1775777118.822626
-24719.490000	-9742.545000	-4005.810000	18216.270000	10940.670000	-1529.415000	-7159.455000	7173.810000	-1.377561	0.190568	6.276845	5.125221	10.228420	13.337900	0.129930	-0.372855	-1.449700	2.273740	0.564620	-0.611510	-0.224731	0.745176	-1.000000	-1.000000	-1.000000	-1.000000	-1.000000	-1.000000	-1.000000	58.000000	0.000000	-1.000000	-1.000000	197363.000000	1775777118.822641
-24711.480000	-9738.495000	-3992.355000	18226.260000	10932.345000	-1540.620000	-7151.400000	7185.015000	1.955944	2.315241	2.153480	3.809518	12.369816	13.575847	2.645305	4.188026	-1.449700	2.273740	0.564620	-0.611510	-0.224731	0.745176	-1.000000	-1.000000	-1.000000	-1.000000	-1.000000	-1.000000	-1.000000	58.000000	0.000000	-1.000000	-1.000000	197364.000000	1775777118.822653
-24708.330000	-9733.545000	-3998.565000	18208.170000	10914.075000	-1550.205000	-7149.420000	7187.355000	5.022541	3.887698	-1.201944	1.507300	8.218931	7.993779	4.974777	7.959934	2.685760	1.190280	0.686700	-0.612547	-0.228271	0.745420	-1.000000	-1.000000	-1.000000	-1.000000	-1.000000	-1.000000	-1.000000	58.000000	0.000000	-1.000000	-1.000000	197365.000000	1775777118.822675
-24710.490000	-9723.240000	-4000.365000	18200.835000	10908.180000	-1558.530000	-7158.645000	7174.980000	5.889839	4.317984	-2.097486	-1.310404	0.115476	-1.468602	4.767424	8.057178	2.685760	1.190280	0.686700	-0.612547	-0.228271	0.745420	-1.000000	-1.000000	-1.000000	-1.000000	-1.000000	-1.000000	-1.000000	58.000000	0.000000	-1.000000	-1.000000	197366.000000	1775777118.822686
-24708.060000	-9721.440000	-3988.665000	18218.430000	10924.245000	-1549.710000	-7157.970000	7169.400000	3.797868	3.683557	-1.397802	-3.989609	-7.299037	-10.383177	1.129741	3.189347	2.685760	1.190280	0.686700	-0.612547	-0.228271	0.745420	-1.000000	-1.000000	-1.000000	-1.000000	-1.000000	-1.000000	-1.000000	58.000000	0.000000	-1.000000	-1.000000	197367.000000	1775777118.822701
-24708.060000	-9723.690000	-3986.865000	18223.605000	10928.340000	-1547.055000	-7160.265000	7167.060000	-0.249061	1.937376	-0.016014	-4.277910	-9.073627	-13.864950	-4.225957	-4.577045	2.685760	1.190280	0.686700	-0.612547	-0.228271	0.745420	-1.000000	-1.000000	-1.000000	-1.000000	-1.000000	-1.000000	-1.000000	58.000000	0.000000	-1.000000	-1.000000	197368.000000	1775777118.822712
-24695.730000	-9714.105000	-3977.505000	18230.265000	10941.030000	-1544.805000	-7164.405000	7176.960000	-3.941928	-0.837858	1.502213	-1.114977	-4.190845	-10.361963	-8.212402	-10.557432	2.685760	1.190280	0.686700	-0.612547	-0.228271	0.745420	-1.000000	-1.000000	-1.000000	-1.000000	-1.000000	-1.000000	-1.000000	58.000000	0.000000	-1.000000	-1.000000	197369.000000	1775777118.822725
-24696.180000	-9716.445000	-3980.790000	18226.485000	10941.210000	-1533.465000	-7157.970000	7186.545000	-5.268777	-3.626851	2.300517	3.175687	3.536488	-2.577004	-8.751674	-10.819491	2.685760	1.190280	0.686700	-0.612547	-0.228271	0.745420	-1.000000	-1.000000	-1.000000	-1.000000	-1.000000	-1.000000	-1.000000	58.000000	0.000000	-1.000000	-1.000000	197370.000000	1775777118.822736
-24703.740000	-9722.610000	-3985.200000	18226.125000	10943.460000	-1519.740000	-7153.830000	7181.235000	-4.305058	-5.416193	1.454993	5.157532	8.836007	5.412231	-5.574110	-5.417894	2.685760	1.190280	0.686700	-0.612547	-0.228271	0.745420	-1.000000	-1.000000	-1.000000	-1.000000	-1.000000	-1.000000	-1.000000	58.000000	0.000000	-1.000000	-1.000000	197371.000000	1775777118.828672
-24703.470000	-9720.090000	-3984.750000	18224.685000	10936.305000	-1540.215000	-7159.230000	7177.860000	-2.897250	-6.054959	-1.140932	3.446763	8.566024	10.093987	-0.279818	1.504376	2.685760	1.190280	0.686700	-0.612547	-0.228271	0.745420	-1.000000	-1.000000	-1.000000	-1.000000	-1.000000	-1.000000	-1.000000	58.000000	0.000000	-1.000000	-1.000000	197372.000000	1775777118.828698
-24700.140000	-9716.670000	-3981.555000	18230.895000	10947.420000	-1550.250000	-7156.305000	7182.225000	-2.094284	-5.343243	-4.029626	-0.411057	3.442593	8.773084	4.270966	5.590926	2.685760	1.190280	0.686700	-0.612547	-0.228271	0.745420	-1.000000	-1.000000	-1.000000	-1.000000	-1.000000	-1.000000	-1.000000	58.000000	0.000000	-1.000000	-1.000000	197373.000000	1775777118.838406
-24691.320000	-9709.875000	-3977.235000	18228.960000	10937.745000	-1553.445000	-7147.935000	7189.155000	-1.161535	-2.886765	-5.128808	-3.641682	-2.958136	1.843443	6.236043	5.903720	2.685760	1.190280	0.686700	-0.612547	-0.228271	0.745420	-1.000000	-1.000000	-1.000000	-1.000000	-1.000000	-1.000000	-1.000000	58.000000	0.000000	-1.000000	-1.000000	197374.000000	1775777118.838432
-24712.155000	-9729.765000	-3995.190000	18217.620000	10934.055000	-1529.280000	-7154.100000	7170.975000	0.335396	0.450467	-3.965491	-4.860167	-7.442921	-5.612745	5.773467	3.857273	3.158820	0.015260	-0.076300	-0.609862	-0.228027	0.745787	-1.000000	-1.000000	-1.000000	-1.000000	-1.000000	-1.000000	-1.000000	58.000000	0.000000	-1.000000	-1.000000	197375.000000	1775777118.838458
-24720.345000	-9736.020000	-3997.845000	18219.960000	10930.275000	-1528.200000	-7161.795000	7162.695000	0.992693	2.316446	-2.213551	-4.592025	-8.922067	-7.711579	3.453431	0.386931	3.158820	0.015260	-0.076300	-0.609862	-0.228027	0.745787	-1.000000	-1.000000	-1.000000	-1.000000	-1.000000	-1.000000	-1.000000	58.000000	0.000000	-1.000000	-1.000000	197376.000000	1775777118.838471
-24710.805000	-9726.615000	-3988.530000	18224.910000	10928.430000	-1536.165000	-7158.690000	7172.910000	0.018343	1.774768	-1.001080	-3.298244	-7.524128	-3.799815	-0.111471	-3.362362	3.158820	0.015260	-0.076300	-0.609862	-0.228027	0.745787	-1.000000	-1.000000	-1.000000	-1.000000	-1.000000	-1.000000	-1.000000	58.000000	0.000000	-1.000000	-1.000000	197377.000000	1775777118.838485
-24718.455000	-9736.290000	-3997.440000	18217.980000	10930.905000	-1534.590000	-7164.000000	7166.655000	-0.838352	0.704111	0.420014	-0.920121	-3.896598	1.466861	-3.369288	-4.979859	3.158820	0.015260	-0.076300	-0.609862	-0.228027	0.745787	-1.000000	-1.000000	-1.000000	-1.000000	-1.000000	-1.000000	-1.000000	58.000000	0.000000	-1.000000	-1.000000	197378.000000	1775777118.838496
-24709.635000	-9726.975000	-3989.070000	18226.035000	10932.165000	-1533.015000	-7158.465000	7176.420000	0.102094	0.902307	2.453910	1.858035	0.821676	3.964924	-4.646689	-3.167835	3.158820	0.015260	-0.076300	-0.609862	-0.228027	0.745787	-1.000000	-1.000000	-1.000000	-1.000000	-1.000000	-1.000000	-1.000000	58.000000	0.000000	-1.000000	-1.000000	197379.000000	1775777118.854794
-24710.670000	-9729.585000	-3993.165000	18218.610000	10916.010000	-1551.780000	-7162.020000	7175.475000	2.497231	2.336689	4.314332	3.879889	4.793749	2.967718	-3.489162	0.859478	3.158820	0.015260	-0.076300	-0.609862	-0.228027	0.745787	-1.000000	-1.000000	-1.000000	-1.000000	-1.000000	-1.000000	-1.000000	58.000000	0.000000	-1.000000	-1.000000	197380.000000	1775777118.854821
-24706.350000	-9724.590000	-3988.305000	18222.885000	10913.445000	-1564.515000	-7157.655000	7180.785000	4.830228	3.938828	5.097313	4.379050	5.993172	-0.606435	-0.808330	4.701319	3.158820	0.015260	-0.076300	-0.609862	-0.228027	0.745787	-1.000000	-1.000000	-1.000000	-1.000000	-1.000000	-1.000000	-1.000000	58.000000	0.000000	-1.000000	-1.000000	197381.000000	1775777118.854849
-24714.855000	-9733.995000	-3996.990000	18216.585000	10911.420000	-1559.790000	-7160.850000	7174.485000	5.442251	4.346832	4.263361	3.273979	4.214809	-4.708513	1.850200	6.231171	3.158820	0.015260	-0.076300	-0.609862	-0.228027	0.745787	-1.000000	-1.000000	-1.000000	-1.000000	-1.000000	-1.000000	-1.000000	58.000000	0.000000	-1.000000	-1.000000	197382.000000	1775777118.854862
-24723.045000	-9742.320000	-4006.170000	18202.995000	10915.920000	-1556.685000	-7171.830000	7165.260000	3.354611	2.571346	1.681614	0.925237	1.605583	-6.089012	3.020809	4.450157	3.158820	0.015260	-0.076300	-0.609862	-0.228027	0.745787	-1.000000	-1.000000	-1.000000	-1.000000	-1.000000	-1.000000	-1.000000	58.000000	0.000000	-1.000000	-1.000000	197383.000000	1775777118.854877
-24723.045000	-9740.115000	-4005.720000	18204.525000	10911.555000	-1571.355000	-7173.675000	7162.335000	-0.801379	-0.970808	-1.949053	-2.032076	0.316399	-3.272912	1.968622	0.039085	3.158820	0.015260	-0.076300	-0.609862	-0.228027	0.745787	-1.000000	-1.000000	-1.000000	-1.000000	-1.000000	-1.000000	-1.000000	58.000000	0.000000	-1.000000	-1.000000	197384.000000	1775777118.854889
-24719.670000	-9733.230000	-3998.115000	18217.710000	10917.765000	-1563.030000	-7174.395000	7156.935000	-4.574085	-3.987906	-4.593471	-3.852660	0.659034	1.619778	-0.385501	-4.634515	0.595140	1.022420	0.244160	-0.609373	-0.225463	0.743162	-1.000000	-1.000000	-1.000000	-1.000000	-1.000000	-1.000000	-1.000000	58.000000	0.000000	-1.000000	-1.000000	197385.000000	1775777118.854903
-24716.070000	-9720.855000	-3979.350000	18228.645000	10915.200000	-1579.410000	-7186.365000	7149.285000	-5.449116	-3.980550	-3.936265	-2.416666	1.638977	5.437360	-2.218928	-7.084031	0.595140	1.022420	0.244160	-0.609373	-0.225463	0.743162	-1.000000	-1.000000	-1.000000	-1.000000	-1.000000	-1.000000	-1.000000	58.000000	0.000000	-1.000000	-1.000000	197386.000000	1775777118.854915
-24699.645000	-9708.930000	-3975.255000	18227.880000	10917.855000	-1579.815000	-7182.045000	7165.530000	-2.797832	-0.560881	0.282801	1.908303	2.119954	6.347311	-2.592006	-6.096376	0.595140	1.022420	0.244160	-0.609373	-0.225463	0.743162	-1.000000	-1.000000	-1.000000	-1.000000	-1.000000	-1.000000	-1.000000	58.000000	0.000000	-1.000000	-1.000000	197387.000000	1775777118.859746
-24709.680000	-9732.195000	-4004.820000	18205.380000	10919.835000	-1542.555000	-7167.240000	7174.395000	1.707310	3.569413	4.639227	5.358069	1.556156	5.181346	-1.132627	-1.596839	0.595140	1.022420	0.244160	-0.609373	-0.225463	0.743162	-1.000000	-1.000000	-1.000000	-1.000000	-1.000000	-1.000000	-1.000000	58.000000	0.000000	-1.000000	-1.000000	197388.000000	1775777118.859768
-24696.675000	-9721.665000	-3993.840000	18219.195000	10959.210000	-1489.500000	-7136.145000	7194.735000	5.026612	4.472850	4.594880	4.409216	0.910594	5.816141	2.734333	5.036870	0.595140	1.022420	0.244160	-0.609373	-0.225463	0.743162	-1.000000	-1.000000	-1.000000	-1.000000	-1.000000	-1.000000	-1.000000	58.000000	0.000000	-1.000000	-1.000000	197389.000000	1775777118.862247
-24684.120000	-9710.415000	-3981.870000	18232.830000	10968.345000	-1490.400000	-7129.665000	7206.255000	5.478325	1.596316	0.385182	0.374600	2.023437	10.085624	8.257091	10.889000	0.595140	1.022420	0.244160	-0.609373	-0.225463	0.743162	-1.000000	-1.000000	-1.000000	-1.000000	-1.000000	-1.000000	-1.000000	58.000000	0.000000	-1.000000	-1.000000	197390.000000	1775777118.862270
-24728.805000	-9755.415000	-4024.710000	18190.080000	10911.735000	-1546.965000	-7168.545000	7163.100000	3.026298	-2.537883	-4.058685	-3.168913	3.206825	11.916490	11.125533	11.963230	0.595140	1.022420	0.244160	-0.609373	-0.225463	0.743162	-1.000000	-1.000000	-1.000000	-1.000000	-1.000000	-1.000000	-1.000000	58.000000	0.000000	-1.000000	-1.000000	197391.000000	1775777118.865983
-24732.405000	-9759.465000	-4031.055000	18182.970000	10902.060000	-1559.520000	-7174.305000	7159.185000	-2.670042	-6.876096	-7.309877	-5.943154	-0.884275	2.962688	6.155906	5.123482	0.595140	1.022420	0.244160	-0.609373	-0.225463	0.743162	-1.000000	-1.000000	-1.000000	-1.000000	-1.000000	-1.000000	-1.000000	58.000000	0.000000	-1.000000	-1.000000	197392.000000	1775777118.865999
-24728.805000	-9748.575000	-4017.375000	18200.835000	10918.845000	-1550.790000	-7172.145000	7162.245000	-9.585726	-10.083789	-8.906851	-8.056231	-10.008285	-14.499858	-5.366548	-6.912236	0.595140	1.022420	0.244160	-0.609373	-0.225463	0.743162	-1.000000	-1.000000	-1.000000	-1.000000	-1.000000	-1.000000	-1.000000	58.000000	0.000000	-1.000000	-1.000000	197393.000000	1775777118.869856
-24739.740000	-9754.515000	-4020.975000	18195.390000	10917.945000	-1554.345000	-7180.830000	7148.925000	-12.573159	-8.744997	-6.443420	-6.698215	-15.833873	-27.656075	-15.399037	-16.074529	0.595140	1.022420	0.244160	-0.609373	-0.225463	0.743162	-1.000000	-1.000000	-1.000000	-1.000000	-1.000000	-1.000000	-1.000000	58.000000	0.000000	-1.000000	-1.000000	197394.000000	1775777118.869876
-24741.180000	-9756.720000	-4022.370000	18193.680000	10916.640000	-1562.355000	-7186.725000	7145.550000	-9.095547	-2.226621	0.306958	-1.002573	-12.425198	-27.064921	-17.567371	-16.956753	-2.441600	0.579880	1.312360	-0.612730	-0.222289	0.743589	-1.000000	-1.000000	-1.000000	-1.000000	-1.000000	-1.000000	-1.000000	58.000000	0.000000	-1.000000	-1.000000	197395.000000	1775777118.875019
-24733.215000	-9750.330000	-4017.780000	18193.500000	10907.595000	-1569.465000	-7182.090000	7153.470000	-1.225527	5.825147	7.659586	5.599803	-2.480756	-14.437062	-11.670874	-10.142180	-2.441600	0.579880	1.312360	-0.612730	-0.222289	0.743589	-1.000000	-1.000000	-1.000000	-1.000000	-1.000000	-1.000000	-1.000000	58.000000	0.000000	-1.000000	-1.000000	197396.000000	1775777118.875039
-24720.705000	-9734.670000	-4001.760000	18210.735000	10917.810000	-1557.090000	-7166.700000	7162.830000	7.546689	11.723669	12.095175	9.664116	7.376406	2.217949	-1.143167	0.738979	-2.441600	0.579880	1.312360	-0.612730	-0.222289	0.743589	-1.000000	-1.000000	-1.000000	-1.000000	-1.000000	-1.000000	-1.000000	58.000000	0.000000	-1.000000	-1.000000	197397.000000	1775777118.888107
-24715.080000	-9729.225000	-3997.665000	18215.280000	10912.905000	-1557.090000	-7168.275000	7163.370000	14.125476	13.988352	12.667459	10.502602	12.758026	15.790537	9.637666	11.130869	-2.441600	0.579880	1.312360	-0.612730	-0.222289	0.743589	-1.000000	-1.000000	-1.000000	-1.000000	-1.000000	-1.000000	-1.000000	58.000000	0.000000	-1.000000	-1.000000	197398.000000	1775777118.888132
-24710.310000	-9722.385000	-3990.735000	18222.165000	10918.980000	-1550.295000	-7167.105000	7166.745000	16.039060	12.327299	9.801848	8.739007	12.843870	22.437668	16.182331	16.704597	-2.441600	0.579880	1.312360	-0.612730	-0.222289	0.743589	-1.000000	-1.000000	-1.000000	-1.000000	-1.000000	-1.000000	-1.000000	58.000000	0.000000	-1.000000	-1.000000	197399.000000	1775777118.888157
-24700.320000	-9712.620000	-3980.115000	18230.085000	10920.105000	-1562.130000	-7168.455000	7179.210000	12.478152	7.222532	4.473314	4.948516	9.048818	21.047671	15.714002	15.628821	-2.441600	0.579880	1.312360	-0.612730	-0.222289	0.743589	-1.000000	-1.000000	-1.000000	-1.000000	-1.000000	-1.000000	-1.000000	58.000000	0.000000	-1.000000	-1.000000	197400.000000	1775777118.888168
-24706.665000	-9726.795000	-3998.025000	18214.470000	10921.995000	-1565.055000	-7170.930000	7180.155000	4.959519	0.066524	-1.951053	-0.267344	3.689243	12.882207	9.066616	9.580598	-2.441600	0.579880	1.312360	-0.612730	-0.222289	0.743589	-1.000000	-1.000000	-1.000000	-1.000000	-1.000000	-1.000000	-1.000000	58.000000	0.000000	-1.000000	-1.000000	197401.000000	1775777118.888182
-24715.125000	-9739.440000	-4009.815000	18205.560000	10923.795000	-1542.465000	-7161.615000	7177.905000	-3.984241	-7.724965	-8.589790	-6.358798	-1.232602	2.000685	0.094276	1.616428	-2.441600	0.579880	1.312360	-0.612730	-0.222289	0.743589	-1.000000	-1.000000	-1.000000	-1.000000	-1.000000	-1.000000	-1.000000	58.000000	0.000000	-1.000000	-1.000000	197402.000000	1775777118.888193
-24719.670000	-9739.395000	-4009.005000	18204.210000	10907.280000	-1549.665000	-7168.905000	7168.005000	-11.843821	-14.352001	-14.140697	-11.900524	-4.865412	-6.160890	-6.881799	-5.990890	-2.441600	0.579880	1.312360	-0.612730	-0.222289	0.743589	-1.000000	-1.000000	-1.000000	-1.000000	-1.000000	-1.000000	-1.000000	58.000000	0.000000	-1.000000	-1.000000	197403.000000	1775777118.896343
-24718.275000	-9738.000000	-4013.055000	18201.240000	10906.380000	-1555.920000	-7164.990000	7170.525000	-15.993329	-16.837314	-15.866845	-14.133328	-7.366728	-9.293177	-9.716942	-11.584096	-2.441600	0.579880	1.312360	-0.612730	-0.222289	0.743589	-1.000000	-1.000000	-1.000000	-1.000000	-1.000000	-1.000000	-1.000000	58.000000	0.000000	-1.000000	-1.000000	197404.000000	1775777118.896368
-24719.805000	-9738.180000	-4024.395000	18194.805000	10907.280000	-1559.925000	-7161.570000	7163.730000	-14.629800	-13.178942	-12.210060	-11.374752	-8.413157	-9.219226	-8.685904	-13.588141	-3.052000	0.320460	1.052940	-0.618040	-0.221618	0.743650	-1.000000	-1.000000	-1.000000	-1.000000	-1.000000	-1.000000	-1.000000	58.000000	0.000000	-1.000000	-1.000000	197405.000000	1775777118.896395
-24721.110000	-9736.470000	-4017.870000	18198.945000	10923.975000	-1527.480000	-7154.595000	7160.130000	-8.412038	-4.769807	-4.743864	-4.758238	-6.622386	-7.425332	-5.029945	-11.452570	-3.052000	0.320460	1.052940	-0.618040	-0.221618	0.743650	-1.000000	-1.000000	-1.000000	-1.000000	-1.000000	-1.000000	-1.000000	58.000000	0.000000	-1.000000	-1.000000	197406.000000	1775777118.896406
-24707.475000	-9720.630000	-3987.720000	18218.925000	10930.455000	-1524.690000	-7149.510000	7175.835000	-0.049957	4.755197	4.178286	3.349740	-1.424940	-3.290462	-0.366527	-6.026496	-3.052000	0.320460	1.052940	-0.618040	-0.221618	0.743650	-1.000000	-1.000000	-1.000000	-1.000000	-1.000000	-1.000000	-1.000000	58.000000	0.000000	-1.000000	-1.000000	197407.000000	1775777118.897546
-24703.920000	-9722.835000	-3987.720000	18224.595000	10922.760000	-1547.280000	-7153.785000	7183.980000	7.608294	11.980659	12.780278	10.848781	4.895271	1.867882	3.353364	1.356953	-3.052000	0.320460	1.052940	-0.618040	-0.221618	0.743650	-1.000000	-1.000000	-1.000000	-1.000000	-1.000000	-1.000000	-1.000000	58.000000	0.000000	-1.000000	-1.000000	197408.000000	1775777118.897564
-24709.590000	-9727.470000	-4000.275000	18214.785000	10917.945000	-1554.300000	-7163.100000	7176.825000	12.076241	14.347026	17.693390	15.025077	8.153454	3.706902	4.293301	8.343144	-3.052000	0.320460	1.052940	-0.618040	-0.221618	0.743650	-1.000000	-1.000000	-1.000000	-1.000000	-1.000000	-1.000000	-1.000000	58.000000	0.000000	-1.000000	-1.000000	197409.000000	1775777118.903086
-24709.455000	-9724.815000	-4005.180000	18214.425000	10906.785000	-1544.715000	-7157.340000	7174.125000	11.532258	10.932662	15.045162	13.134019	6.015255	0.734718	2.126505	11.448539	-3.052000	0.320460	1.052940	-0.618040	-0.221618	0.743650	-1.000000	-1.000000	-1.000000	-1.000000	-1.000000	-1.000000	-1.000000	58.000000	0.000000	-1.000000	-1.000000	197410.000000	1775777118.903108
-24709.635000	-9723.240000	-4002.705000	18213.075000	10888.335000	-1577.880000	-7174.485000	7168.500000	6.488642	3.826787	5.461071	5.603466	-0.202541	-3.799252	-1.384708	8.914498	-3.052000	0.320460	1.052940	-0.618040	-0.221618	0.743650	-1.000000	-1.000000	-1.000000	-1.000000	-1.000000	-1.000000	-1.000000	58.000000	0.000000	-1.000000	-1.000000	197411.000000	1775777118.919608
-24707.880000	-9721.665000	-3984.390000	18222.165000	10901.295000	-1598.580000	-7188.075000	7166.610000	-0.073317	-3.104639	-5.091065	-3.315628	-6.637234	-7.170936	-4.399856	2.572766	-3.052000	0.320460	1.052940	-0.618040	-0.221618	0.743650	-1.000000	-1.000000	-1.000000	-1.000000	-1.000000	-1.000000	-1.000000	58.000000	0.000000	-1.000000	-1.000000	197412.000000	1775777118.919634
-24710.670000	-9730.665000	-3993.255000	18227.655000	10935.945000	-1558.035000	-7171.920000	7168.545000	-4.986203	-7.208185	-10.563336	-8.805439	-8.211242	-7.785572	-5.674499	-3.697492	-3.052000	0.320460	1.052940	-0.618040	-0.221618	0.743650	-1.000000	-1.000000	-1.000000	-1.000000	-1.000000	-1.000000	-1.000000	58.000000	0.000000	-1.000000	-1.000000	197413.000000	1775777118.919661
-24721.245000	-9743.985000	-4005.945000	18222.255000	10957.185000	-1505.115000	-7156.530000	7164.810000	-6.993385	-8.418511	-10.173608	-9.072087	-1.937566	-1.994919	-3.375935	-6.748850	-3.052000	0.320460	1.052940	-0.618040	-0.221618	0.743650	-1.000000	-1.000000	-1.000000	-1.000000	-1.000000	-1.000000	-1.000000	58.000000	0.000000	-1.000000	-1.000000	197414.000000	1775777118.919673
-24727.995000	-9755.460000	-4019.085000	18202.095000	10942.020000	-1519.965000	-7153.695000	7164.720000	-6.810322	-8.067505	-7.567537	-6.388042	8.409285	10.661707	2.833644	-5.959948	-0.076300	0.991900	1.358140	-0.618346	-0.222289	0.745115	-1.000000	-1.000000	-1.000000	-1.000000	-1.000000	-1.000000	-1.000000	58.000000	0.000000	-1.000000	-1.000000	197415.000000	1775777118.919688
-24708.870000	-9726.165000	-4007.970000	18201.870000	10926.585000	-1541.295000	-7152.030000	7179.615000	-5.046500	-6.199888	-5.338671	-4.231920	13.779628	21.161386	9.404418	-2.546456	-0.076300	0.991900	1.358140	-0.618346	-0.222289	0.745115	-1.000000	-1.000000	-1.000000	-1.000000	-1.000000	-1.000000	-1.000000	58.000000	0.000000	-1.000000	-1.000000	197416.000000	1775777118.919698
-24706.935000	-9720.540000	-3998.430000	18209.745000	10925.820000	-1540.800000	-7157.790000	7178.310000	-1.229994	-1.218312	-2.547056	-3.176766	8.752081	19.131897	11.568163	1.916175	-0.076300	0.991900	1.358140	-0.618346	-0.222289	0.745115	-1.000000	-1.000000	-1.000000	-1.000000	-1.000000	-1.000000	-1.000000	58.000000	0.000000	-1.000000	-1.000000	197417.000000	1775777118.919711
-24718.950000	-9735.705000	-4007.655000	18208.215000	10930.860000	-1539.990000	-7170.120000	7163.685000	3.664252	5.908170	1.944635	-1.208452	-2.797514	5.147377	7.387392	5.130370	-0.076300	0.991900	1.358140	-0.618346	-0.222289	0.745115	-1.000000	-1.000000	-1.000000	-1.000000	-1.000000	-1.000000	-1.000000	58.000000	0.000000	-1.000000	-1.000000	197418.000000	1775777118.919722
-24721.965000	-9739.935000	-4010.985000	18205.920000	10938.960000	-1532.475000	-7173.675000	7162.740000	6.377636	10.245913	6.221644	2.302646	-12.098637	-10.676696	-1.082917	4.709129	-0.076300	0.991900	1.358140	-0.618346	-0.222289	0.745115	-1.000000	-1.000000	-1.000000	-1.000000	-1.000000	-1.000000	-1.000000	58.000000	0.000000	-1.000000	-1.000000	197419.000000	1775777118.928427
-24729.435000	-9747.495000	-4019.580000	18198.180000	10920.735000	-1548.945000	-7182.765000	7156.935000	4.971711	8.403478	7.360313	5.419753	-13.884294	-19.226736	-9.250660	0.910415	-0.076300	0.991900	1.358140	-0.618346	-0.222289	0.745115	-1.000000	-1.000000	-1.000000	-1.000000	-1.000000	-1.000000	-1.000000	58.000000	0.000000	-1.000000	-1.000000	197420.000000	1775777118.928455
-24726.465000	-9742.815000	-4016.340000	18200.340000	10916.505000	-1552.140000	-7179.030000	7155.900000	0.965536	2.258600	4.927169	6.147965	-9.653187	-18.582000	-12.875067	-3.326630	-0.076300	0.991900	1.358140	-0.618346	-0.222289	0.745115	-1.000000	-1.000000	-1.000000	-1.000000	-1.000000	-1.000000	-1.000000	58.000000	0.000000	-1.000000	-1.000000	197421.000000	1775777118.928482
-24733.260000	-9744.030000	-4014.855000	18201.060000	10911.510000	-1557.450000	-7185.780000	7143.930000	-2.574012	-3.517038	1.208604	4.552242	-3.738735	-12.001034	-10.490263	-5.404516	-0.076300	0.991900	1.358140	-0.618346	-0.222289	0.745115	-1.000000	-1.000000	-1.000000	-1.000000	-1.000000	-1.000000	-1.000000	58.000000	0.000000	-1.000000	-1.000000	197422.000000	1775777118.928493
-24721.650000	-9733.995000	-4008.690000	18206.055000	10915.605000	-1546.245000	-7172.190000	7154.865000	-3.544279	-5.502572	-1.090187	2.280295	1.349155	-3.218663	-3.702578	-4.608356	-0.076300	0.991900	1.358140	-0.618346	-0.222289	0.745115	-1.000000	-1.000000	-1.000000	-1.000000	-1.000000	-1.000000	-1.000000	58.000000	0.000000	-1.000000	-1.000000	197423.000000	1775777118.929661
-24718.905000	-9738.765000	-4010.445000	18202.995000	10899.270000	-1551.285000	-7158.465000	7165.485000	-1.595211	-3.482941	-1.061130	0.663653	4.930741	5.179333	4.564701	-1.167523	-0.076300	0.991900	1.358140	-0.618346	-0.222289	0.745115	-1.000000	-1.000000	-1.000000	-1.000000	-1.000000	-1.000000	-1.000000	58.000000	0.000000	-1.000000	-1.000000	197424.000000	1775777118.929682
-24728.490000	-9744.570000	-4009.500000	18205.875000	10889.550000	-1575.090000	-7171.335000	7158.825000	1.696289	-0.036821	0.136167	-0.210257	6.276242	10.500141	11.085532	3.723318	2.929920	0.320460	3.036740	-0.614989	-0.224548	0.746824	-1.000000	-1.000000	-1.000000	-1.000000	-1.000000	-1.000000	-1.000000	58.000000	0.000000	-1.000000	-1.000000	197425.000000	1775777118.933323
-24722.640000	-9739.485000	-4014.540000	18209.160000	10904.445000	-1570.320000	-7176.780000	7163.460000	3.649878	1.944792	0.743995	-0.748859	5.424464	10.484253	12.425385	7.282473	2.929920	0.320460	3.036740	-0.614989	-0.224548	0.746824	-1.000000	-1.000000	-1.000000	-1.000000	-1.000000	-1.000000	-1.000000	58.000000	0.000000	-1.000000	-1.000000	197426.000000	1775777118.933346
-24715.980000	-9730.665000	-4013.730000	18203.760000	10922.355000	-1545.795000	-7167.240000	7169.355000	3.219066	1.990447	-0.036601	-1.181020	4.657019	6.775902	7.693143	7.384876	2.929920	0.320460	3.036740	-0.614989	-0.224548	0.746824	-1.000000	-1.000000	-1.000000	-1.000000	-1.000000	-1.000000	-1.000000	58.000000	0.000000	-1.000000	-1.000000	197427.000000	1775777118.938065
-24723.765000	-9736.380000	-4007.160000	18211.050000	10928.880000	-1550.115000	-7174.260000	7157.610000	1.480393	1.392739	-1.457406	-1.624962	5.955722	3.894912	0.253860	4.303546	2.929920	0.320460	3.036740	-0.614989	-0.224548	0.746824	-1.000000	-1.000000	-1.000000	-1.000000	-1.000000	-1.000000	-1.000000	58.000000	0.000000	-1.000000	-1.000000	197428.000000	1775777118.938092
-24729.435000	-9740.295000	-4010.490000	18206.055000	10926.045000	-1556.505000	-7184.205000	7148.025000	-0.719561	0.594180	-2.127434	-1.934867	7.744156	3.192664	-5.878160	-0.720173	2.929920	0.320460	3.036740	-0.614989	-0.224548	0.746824	-1.000000	-1.000000	-1.000000	-1.000000	-1.000000	-1.000000	-1.000000	58.000000	0.000000	-1.000000	-1.000000	197429.000000	1775777118.941924
-24721.245000	-9736.110000	-4012.380000	18201.960000	10928.925000	-1553.670000	-7174.665000	7158.870000	-2.909234	-0.695068	-1.713904	-2.023797	6.621806	2.228482	-8.827413	-5.806858	2.929920	0.320460	3.036740	-0.614989	-0.224548	0.746824	-1.000000	-1.000000	-1.000000	-1.000000	-1.000000	-1.000000	-1.000000	58.000000	0.000000	-1.000000	-1.000000	197430.000000	1775777118.941943
-24721.740000	-9737.190000	-4013.910000	18201.285000	10917.405000	-1559.565000	-7177.365000	7161.525000	-3.875667	-1.939966	-1.014952	-2.097048	1.363349	-0.502852	-7.996674	-8.053050	2.929920	0.320460	3.036740	-0.614989	-0.224548	0.746824	-1.000000	-1.000000	-1.000000	-1.000000	-1.000000	-1.000000	-1.000000	58.000000	0.000000	-1.000000	-1.000000	197431.000000	1775777118.949314
-24708.465000	-9730.350000	-4013.325000	18195.300000	10894.095000	-1566.090000	-7166.970000	7174.170000	-2.647943	-2.173189	-0.587776	-2.083714	-6.455720	-4.131178	-3.926941	-5.755435	2.929920	0.320460	3.036740	-0.614989	-0.224548	0.746824	-1.000000	-1.000000	-1.000000	-1.000000	-1.000000	-1.000000	-1.000000	58.000000	0.000000	-1.000000	-1.000000	197432.000000	1775777118.949343
-24714.945000	-9739.890000	-4021.830000	18187.830000	10875.690000	-1587.600000	-7171.875000	7172.595000	0.167983	-1.295917	-0.438780	-1.809568	-14.098658	-7.344240	1.316124	-0.372636	2.929920	0.320460	3.036740	-0.614989	-0.224548	0.746824	-1.000000	-1.000000	-1.000000	-1.000000	-1.000000	-1.000000	-1.000000	58.000000	0.000000	-1.000000	-1.000000	197433.000000	1775777118.961450
-24718.635000	-9742.320000	-4020.570000	18194.760000	10889.055000	-1572.930000	-7171.920000	7174.440000	2.460366	-0.353210	-0.507428	-1.147521	-17.884556	-8.928697	5.037750	4.528806	2.929920	0.320460	3.036740	-0.614989	-0.224548	0.746824	-1.000000	-1.000000	-1.000000	-1.000000	-1.000000	-1.000000	-1.000000	58.000000	0.000000	-1.000000	-1.000000	197434.000000	1775777118.961480
-24726.555000	-9747.495000	-4022.595000	18195.345000	10900.080000	-1568.115000	-7179.570000	7163.595000	2.249329	-0.325170	-0.517807	0.344670	-14.038522	-7.090531	5.435679	5.843334	2.655240	-0.442540	2.548420	-0.612120	-0.224304	0.745604	-1.000000	-1.000000	-1.000000	-1.000000	-1.000000	-1.000000	-1.000000	58.000000	0.000000	-1.000000	-1.000000	197435.000000	1775777118.961511
-24728.940000	-9744.840000	-4018.140000	18203.130000	10931.850000	-1537.065000	-7173.360000	7153.695000	-0.353809	-0.889843	0.036524	2.751209	-2.097702	-0.784902	2.872478	2.807213	2.655240	-0.442540	2.548420	-0.612120	-0.224304	0.745604	-1.000000	-1.000000	-1.000000	-1.000000	-1.000000	-1.000000	-1.000000	58.000000	0.000000	-1.000000	-1.000000	197436.000000	1775777118.961524
-24731.190000	-9742.365000	-4014.945000	18205.245000	10932.255000	-1531.170000	-7171.245000	7144.560000	-3.253641	-0.859607	1.335280	5.137074	12.991563	8.093771	-0.345762	-2.732066	2.655240	-0.442540	2.548420	-0.612120	-0.224304	0.745604	-1.000000	-1.000000	-1.000000	-1.000000	-1.000000	-1.000000	-1.000000	58.000000	0.000000	-1.000000	-1.000000	197437.000000	1775777118.961539
-24730.515000	-9740.475000	-4014.000000	18203.445000	10916.730000	-1548.630000	-7175.430000	7145.595000	-4.235400	0.430342	2.868283	6.034470	22.664570	14.344100	-2.097002	-7.304094	2.655240	-0.442540	2.548420	-0.612120	-0.224304	0.745604	-1.000000	-1.000000	-1.000000	-1.000000	-1.000000	-1.000000	-1.000000	58.000000	0.000000	-1.000000	-1.000000	197438.000000	1775777118.961550
