Channel1	Channel2	Channel3	Channel4	Channel5	Channel6	Channel7	Channel8	FilteredChannel1	FilteredChannel2	FilteredChannel3	FilteredChannel4	FilteredChannel5	FilteredChannel6	FilteredChannel7	FilteredChannel8	GyroX	GyroY	GyroZ	AccX	AccY	AccZ	PPG1	PPG2	rawPPG1	rawPPG2	rawPPG3	Hr	Hrv	Battery	Trigger	PhysicalTrigger	AutoTrigger	NumMeasurements	Timestamp
881.955000	-2600.055000	-5987.700000	19944.630000	14193.270000	3912.030000	-15590.295000	-13909.095000	1.529602	-0.575456	-1.921213	-3.643772	-9.888770	-13.066892	-1.659586	2.280189	-2.792580	2.838360	0.824040	-0.750059	-0.090332	0.639281	-1.000000	-1.000000	-1.000000	-1.000000	-1.000000	-1.000000	-1.000000	57.000000	0.000000	-1.000000	-1.000000	524897.000000	1775777774.027308
882.045000	-2595.555000	-5979.645000	19955.520000	14204.655000	3921.030000	-15585.615000	-13911.705000	-1.155344	-1.497501	-2.498731	-3.255994	-6.502611	-12.098714	-1.894126	-0.474424	-2.792580	2.838360	0.824040	-0.750059	-0.090332	0.639281	-1.000000	-1.000000	-1.000000	-1.000000	-1.000000	-1.000000	-1.000000	57.000000	0.000000	-1.000000	-1.000000	524898.000000	1775777774.027324
881.055000	-2598.210000	-5983.290000	19953.135000	14206.005000	3918.780000	-15588.495000	-13912.605000	-3.658509	-2.127475	-1.983207	-1.480720	-0.928329	-5.946098	-1.284423	-3.690673	-2.792580	2.838360	0.824040	-0.750059	-0.090332	0.639281	-1.000000	-1.000000	-1.000000	-1.000000	-1.000000	-1.000000	-1.000000	57.000000	0.000000	-1.000000	-1.000000	524899.000000	1775777774.031625
892.665000	-2588.355000	-5975.280000	19962.585000	14216.580000	3928.365000	-15575.220000	-13901.670000	-4.114993	-1.794377	-0.523777	1.253590	5.365471	2.847553	0.423157	-4.826653	-2.792580	2.838360	0.824040	-0.750059	-0.090332	0.639281	-1.000000	-1.000000	-1.000000	-1.000000	-1.000000	-1.000000	-1.000000	57.000000	0.000000	-1.000000	-1.000000	524900.000000	1775777774.031651
890.370000	-2591.640000	-5977.800000	19964.610000	14222.565000	3934.125000	-15579.495000	-13906.485000	-2.064006	-0.557021	0.971614	3.678163	10.067832	10.281910	2.509222	-2.911373	-2.792580	2.838360	0.824040	-0.750059	-0.090332	0.639281	-1.000000	-1.000000	-1.000000	-1.000000	-1.000000	-1.000000	-1.000000	57.000000	0.000000	-1.000000	-1.000000	524901.000000	1775777774.033749
877.950000	-2601.495000	-5983.785000	19962.045000	14217.345000	3926.745000	-15594.975000	-13920.705000	0.841091	0.607231	1.546380	4.539053	11.158737	13.313833	3.396715	0.339869	-2.792580	2.838360	0.824040	-0.750059	-0.090332	0.639281	-1.000000	-1.000000	-1.000000	-1.000000	-1.000000	-1.000000	-1.000000	57.000000	0.000000	-1.000000	-1.000000	524902.000000	1775777774.033767
879.705000	-2601.045000	-5987.025000	19951.020000	14193.585000	3891.735000	-15599.385000	-13919.040000	2.048260	0.438886	0.606161	2.960353	7.401478	10.155108	1.509241	2.040899	-2.823100	1.846460	-1.037680	-0.749815	-0.092285	0.638609	-1.000000	-1.000000	-1.000000	-1.000000	-1.000000	-1.000000	-1.000000	57.000000	0.000000	-1.000000	-1.000000	524903.000000	1775777774.039000
883.260000	-2597.670000	-5984.460000	19952.100000	14176.890000	3868.155000	-15596.640000	-13913.955000	1.119726	-0.770309	-1.232176	-0.769696	-0.823404	0.892758	-2.273510	1.621247	-2.823100	1.846460	-1.037680	-0.749815	-0.092285	0.638609	-1.000000	-1.000000	-1.000000	-1.000000	-1.000000	-1.000000	-1.000000	57.000000	0.000000	-1.000000	-1.000000	524904.000000	1775777774.039022
882.360000	-2601.270000	-5990.580000	19949.445000	14188.005000	3906.225000	-15585.615000	-13912.155000	-0.122728	-1.425211	-2.452039	-4.590444	-9.781162	-9.601156	-4.609708	0.964513	-2.823100	1.846460	-1.037680	-0.749815	-0.092285	0.638609	-1.000000	-1.000000	-1.000000	-1.000000	-1.000000	-1.000000	-1.000000	57.000000	0.000000	-1.000000	-1.000000	524905.000000	1775777774.042522
867.420000	-2618.370000	-6007.545000	19932.345000	14189.130000	3938.535000	-15583.320000	-13924.440000	-0.597240	-1.105608	-2.540430	-6.394599	-13.539385	-12.392345	-3.113911	1.114134	-2.823100	1.846460	-1.037680	-0.749815	-0.092285	0.638609	-1.000000	-1.000000	-1.000000	-1.000000	-1.000000	-1.000000	-1.000000	57.000000	0.000000	-1.000000	-1.000000	524906.000000	1775777774.042545
866.835000	-2617.065000	-6004.485000	19933.920000	14188.950000	3931.020000	-15584.940000	-13923.765000	-0.928314	-0.843299	-2.187407	-5.859006	-9.331970	-3.763335	1.076150	1.151589	-2.823100	1.846460	-1.037680	-0.749815	-0.092285	0.638609	-1.000000	-1.000000	-1.000000	-1.000000	-1.000000	-1.000000	-1.000000	57.000000	0.000000	-1.000000	-1.000000	524907.000000	1775777774.052552
870.255000	-2609.865000	-5993.955000	19946.115000	14201.865000	3933.765000	-15580.530000	-13919.355000	-1.310004	-0.666587	-1.161958	-3.205183	-0.082932	8.885430	4.627198	0.495529	-2.823100	1.846460	-1.037680	-0.749815	-0.092285	0.638609	-1.000000	-1.000000	-1.000000	-1.000000	-1.000000	-1.000000	-1.000000	57.000000	0.000000	-1.000000	-1.000000	524908.000000	1775777774.052578
864.810000	-2611.170000	-5993.280000	19949.985000	14202.675000	3931.380000	-15585.255000	-13924.035000	-0.867001	0.627665	1.547861	1.576133	8.915232	15.012505	5.236804	-0.093982	-2.823100	1.846460	-1.037680	-0.749815	-0.092285	0.638609	-1.000000	-1.000000	-1.000000	-1.000000	-1.000000	-1.000000	-1.000000	57.000000	0.000000	-1.000000	-1.000000	524909.000000	1775777774.052606
864.495000	-2609.370000	-5989.140000	19956.285000	14207.400000	3929.535000	-15588.090000	-13926.735000	0.541579	3.008126	5.223382	7.037230	13.472130	10.946210	2.827580	-0.188360	-2.823100	1.846460	-1.037680	-0.749815	-0.092285	0.638609	-1.000000	-1.000000	-1.000000	-1.000000	-1.000000	-1.000000	-1.000000	57.000000	0.000000	-1.000000	-1.000000	524910.000000	1775777774.052617
863.685000	-2611.170000	-5991.120000	19950.525000	14199.390000	3927.870000	-15586.155000	-13927.995000	2.012682	4.839450	7.470293	10.203504	11.850695	0.563870	-1.032465	-0.198847	-2.823100	1.846460	-1.037680	-0.749815	-0.092285	0.638609	-1.000000	-1.000000	-1.000000	-1.000000	-1.000000	-1.000000	-1.000000	57.000000	0.000000	-1.000000	-1.000000	524911.000000	1775777774.054982
862.605000	-2611.080000	-5991.120000	19950.300000	14189.355000	3915.540000	-15589.845000	-13929.840000	2.773405	4.726236	6.557275	8.871235	4.993821	-9.694360	-4.124220	-0.353928	-2.823100	1.846460	-1.037680	-0.749815	-0.092285	0.638609	-1.000000	-1.000000	-1.000000	-1.000000	-1.000000	-1.000000	-1.000000	57.000000	0.000000	-1.000000	-1.000000	524912.000000	1775777774.055010
872.550000	-2598.210000	-5976.720000	19964.610000	14187.195000	3889.440000	-15601.500000	-13925.565000	2.771316	2.877167	3.040256	3.808336	-3.965421	-15.669736	-5.250436	-0.384344	-1.449700	0.488320	-0.488320	-0.749144	-0.095642	0.639281	-1.000000	-1.000000	-1.000000	-1.000000	-1.000000	-1.000000	-1.000000	57.000000	0.000000	-1.000000	-1.000000	524913.000000	1775777774.057934
881.595000	-2589.030000	-5969.520000	19966.770000	14189.490000	3880.305000	-15598.575000	-13920.165000	2.658915	0.954402	-0.593331	-1.604539	-10.702049	-16.633234	-4.707973	0.157040	-1.449700	0.488320	-0.488320	-0.749144	-0.095642	0.639281	-1.000000	-1.000000	-1.000000	-1.000000	-1.000000	-1.000000	-1.000000	57.000000	0.000000	-1.000000	-1.000000	524914.000000	1775777774.057959
878.445000	-2594.565000	-5977.575000	19957.005000	14197.860000	3891.690000	-15596.640000	-13922.865000	2.727161	0.002747	-2.646558	-4.908236	-11.824650	-12.669872	-2.848086	1.232343	-1.449700	0.488320	-0.488320	-0.749144	-0.095642	0.639281	-1.000000	-1.000000	-1.000000	-1.000000	-1.000000	-1.000000	-1.000000	57.000000	0.000000	-1.000000	-1.000000	524915.000000	1775777774.063651
860.985000	-2614.545000	-5998.995000	19934.955000	14205.960000	3924.045000	-15599.205000	-13937.310000	1.740453	-1.218339	-4.177794	-6.773952	-7.004732	-3.228081	0.137741	1.672003	-1.449700	0.488320	-0.488320	-0.749144	-0.095642	0.639281	-1.000000	-1.000000	-1.000000	-1.000000	-1.000000	-1.000000	-1.000000	57.000000	0.000000	-1.000000	-1.000000	524916.000000	1775777774.063674
865.980000	-2608.830000	-5989.185000	19949.850000	14227.695000	3945.330000	-15596.145000	-13933.035000	-1.492549	-4.148253	-6.555418	-8.312271	1.124483	10.481850	3.258177	0.308107	-1.449700	0.488320	-0.488320	-0.749144	-0.095642	0.639281	-1.000000	-1.000000	-1.000000	-1.000000	-1.000000	-1.000000	-1.000000	57.000000	0.000000	-1.000000	-1.000000	524917.000000	1775777774.066486
877.500000	-2596.500000	-5975.280000	19963.890000	14224.140000	3953.880000	-15589.440000	-13922.190000	-5.242360	-7.043483	-7.956441	-7.798151	8.573607	23.020309	5.328749	-1.788247	-1.449700	0.488320	-0.488320	-0.749144	-0.095642	0.639281	-1.000000	-1.000000	-1.000000	-1.000000	-1.000000	-1.000000	-1.000000	57.000000	0.000000	-1.000000	-1.000000	524918.000000	1775777774.066504
864.135000	-2608.290000	-5986.845000	19949.040000	14202.630000	3940.515000	-15588.360000	-13931.865000	-6.394356	-6.751674	-5.641222	-3.420680	11.022676	26.791353	5.885339	-2.362628	-1.449700	0.488320	-0.488320	-0.749144	-0.095642	0.639281	-1.000000	-1.000000	-1.000000	-1.000000	-1.000000	-1.000000	-1.000000	57.000000	0.000000	-1.000000	-1.000000	524919.000000	1775777774.069807
860.535000	-2612.295000	-5993.370000	19942.245000	14201.280000	3941.820000	-15581.880000	-13930.785000	-4.673285	-3.368482	-0.748491	2.353425	6.146616	18.001133	4.934728	-1.232783	-1.449700	0.488320	-0.488320	-0.749144	-0.095642	0.639281	-1.000000	-1.000000	-1.000000	-1.000000	-1.000000	-1.000000	-1.000000	57.000000	0.000000	-1.000000	-1.000000	524920.000000	1775777774.069824
860.310000	-2611.350000	-5995.755000	19936.710000	14190.210000	3924.585000	-15588.675000	-13933.215000	-2.114095	0.389992	3.071949	5.361263	-3.293843	0.456338	2.640447	0.060208	-1.449700	0.488320	-0.488320	-0.749144	-0.095642	0.639281	-1.000000	-1.000000	-1.000000	-1.000000	-1.000000	-1.000000	-1.000000	57.000000	0.000000	-1.000000	-1.000000	524921.000000	1775777774.075083
859.005000	-2607.570000	-5990.445000	19941.255000	14186.970000	3913.110000	-15593.130000	-13936.005000	0.099154	2.947595	4.279825	4.710994	-11.235641	-17.283783	-0.739801	0.574140	-1.449700	0.488320	-0.488320	-0.749144	-0.095642	0.639281	-1.000000	-1.000000	-1.000000	-1.000000	-1.000000	-1.000000	-1.000000	57.000000	0.000000	-1.000000	-1.000000	524922.000000	1775777774.075111
857.340000	-2606.580000	-5987.385000	19945.260000	14193.270000	3916.575000	-15592.455000	-13935.555000	1.846979	4.380500	4.053606	2.754052	-13.068319	-27.331334	-4.408231	0.371237	0.747740	0.000000	-1.007160	-0.752867	-0.099365	0.641356	-1.000000	-1.000000	-1.000000	-1.000000	-1.000000	-1.000000	-1.000000	57.000000	0.000000	-1.000000	-1.000000	524923.000000	1775777774.087200
857.565000	-2603.745000	-5981.895000	19952.955000	14202.360000	3919.095000	-15590.520000	-13934.790000	3.036740	4.915699	3.847717	1.930028	-7.850150	-25.670921	-6.687514	0.040281	0.747740	0.000000	-1.007160	-0.752867	-0.099365	0.641356	-1.000000	-1.000000	-1.000000	-1.000000	-1.000000	-1.000000	-1.000000	57.000000	0.000000	-1.000000	-1.000000	524924.000000	1775777774.087228
862.335000	-2597.805000	-5973.480000	19964.520000	14218.740000	3934.665000	-15587.145000	-13934.115000	3.608300	4.550323	3.982745	2.819667	1.851517	-13.589797	-6.163203	0.136200	0.747740	0.000000	-1.007160	-0.752867	-0.099365	0.641356	-1.000000	-1.000000	-1.000000	-1.000000	-1.000000	-1.000000	-1.000000	57.000000	0.000000	-1.000000	-1.000000	524925.000000	1775777774.087256
855.855000	-2604.465000	-5978.520000	19959.660000	14215.455000	3938.535000	-15591.105000	-13942.080000	3.553152	3.258429	3.794212	4.153201	11.203825	3.022794	-3.143306	0.513804	0.747740	0.000000	-1.007160	-0.752867	-0.099365	0.641356	-1.000000	-1.000000	-1.000000	-1.000000	-1.000000	-1.000000	-1.000000	57.000000	0.000000	-1.000000	-1.000000	524926.000000	1775777774.087267
856.080000	-2607.750000	-5984.280000	19950.345000	14204.250000	3927.060000	-15595.245000	-13941.585000	2.619183	0.896392	2.138771	3.640411	15.049339	16.332510	0.398253	0.496073	0.747740	0.000000	-1.007160	-0.752867	-0.099365	0.641356	-1.000000	-1.000000	-1.000000	-1.000000	-1.000000	-1.000000	-1.000000	57.000000	0.000000	-1.000000	-1.000000	524927.000000	1775777774.087279
860.130000	-2605.680000	-5982.480000	19950.030000	14205.825000	3937.365000	-15589.440000	-13934.970000	0.910077	-2.153163	-1.279688	0.049112	11.016043	20.565287	2.607786	0.076913	0.747740	0.000000	-1.007160	-0.752867	-0.099365	0.641356	-1.000000	-1.000000	-1.000000	-1.000000	-1.000000	-1.000000	-1.000000	57.000000	0.000000	-1.000000	-1.000000	524928.000000	1775777774.087290
855.900000	-2611.350000	-5988.330000	19947.510000	14206.050000	3932.010000	-15594.885000	-13938.075000	-0.743951	-4.561137	-4.956597	-4.949182	1.892554	15.634698	3.170575	0.046646	0.747740	0.000000	-1.007160	-0.752867	-0.099365	0.641356	-1.000000	-1.000000	-1.000000	-1.000000	-1.000000	-1.000000	-1.000000	57.000000	0.000000	-1.000000	-1.000000	524929.000000	1775777774.090571
859.230000	-2604.780000	-5981.265000	19954.935000	14203.260000	3919.140000	-15590.070000	-13936.050000	-1.710778	-5.107796	-6.779213	-8.041979	-6.668669	5.776641	2.691296	0.575269	0.747740	0.000000	-1.007160	-0.752867	-0.099365	0.641356	-1.000000	-1.000000	-1.000000	-1.000000	-1.000000	-1.000000	-1.000000	57.000000	0.000000	-1.000000	-1.000000	524930.000000	1775777774.090599
854.820000	-2605.095000	-5980.815000	19951.245000	14199.885000	3913.380000	-15595.695000	-13943.070000	-1.972534	-3.501122	-5.619692	-7.221216	-10.763064	-4.429916	1.745763	0.896695	0.747740	0.000000	-1.007160	-0.752867	-0.099365	0.641356	-1.000000	-1.000000	-1.000000	-1.000000	-1.000000	-1.000000	-1.000000	57.000000	0.000000	-1.000000	-1.000000	524931.000000	1775777774.094556
856.755000	-2601.135000	-5977.170000	19951.785000	14209.605000	3913.245000	-15598.170000	-13941.135000	-1.774227	-0.487451	-2.035613	-3.317442	-9.709867	-11.284879	0.597588	0.380588	0.747740	0.000000	-1.007160	-0.752867	-0.099365	0.641356	-1.000000	-1.000000	-1.000000	-1.000000	-1.000000	-1.000000	-1.000000	57.000000	0.000000	-1.000000	-1.000000	524932.000000	1775777774.094575
856.845000	-2603.295000	-5979.465000	19952.685000	14216.805000	3917.835000	-15596.100000	-13938.570000	-1.300447	2.400972	1.984626	1.126977	-4.746780	-12.316535	-0.567954	-0.609504	2.075360	1.205540	-2.289000	-0.754942	-0.097412	0.643492	-1.000000	-1.000000	-1.000000	-1.000000	-1.000000	-1.000000	-1.000000	57.000000	0.000000	-1.000000	-1.000000	524933.000000	1775777774.097824
851.220000	-2609.190000	-5984.505000	19949.985000	14223.960000	3942.810000	-15597.045000	-13944.960000	-0.702524	3.626117	4.261481	4.025871	1.803120	-7.194116	-1.239329	-1.208322	2.075360	1.205540	-2.289000	-0.754942	-0.097412	0.643492	-1.000000	-1.000000	-1.000000	-1.000000	-1.000000	-1.000000	-1.000000	57.000000	0.000000	-1.000000	-1.000000	524934.000000	1775777774.097847
855.585000	-2601.630000	-5975.460000	19960.560000	14227.110000	3963.735000	-15585.255000	-13941.135000	-0.232051	2.730019	3.984695	4.801779	6.978938	2.149098	-0.851177	-1.170633	2.075360	1.205540	-2.289000	-0.754942	-0.097412	0.643492	-1.000000	-1.000000	-1.000000	-1.000000	-1.000000	-1.000000	-1.000000	57.000000	0.000000	-1.000000	-1.000000	524935.000000	1775777774.104367
852.705000	-2601.135000	-5971.995000	19963.125000	14204.880000	3944.745000	-15588.180000	-13942.125000	0.108107	0.892575	2.359283	4.248346	8.060400	11.071415	0.592786	-0.688969	2.075360	1.205540	-2.289000	-0.754942	-0.097412	0.643492	-1.000000	-1.000000	-1.000000	-1.000000	-1.000000	-1.000000	-1.000000	57.000000	0.000000	-1.000000	-1.000000	524936.000000	1775777774.104395
852.255000	-2604.105000	-5979.420000	19951.965000	14193.045000	3924.945000	-15596.820000	-13941.900000	0.445368	-0.447096	0.882135	3.025238	3.783374	13.147318	1.884853	0.056522	2.075360	1.205540	-2.289000	-0.754942	-0.097412	0.643492	-1.000000	-1.000000	-1.000000	-1.000000	-1.000000	-1.000000	-1.000000	57.000000	0.000000	-1.000000	-1.000000	524937.000000	1775777774.106569
849.690000	-2611.305000	-5992.470000	19937.025000	14196.375000	3916.575000	-15594.345000	-13941.405000	0.632300	-1.188979	-0.603688	0.531569	-3.667355	5.637095	1.455318	0.738398	2.075360	1.205540	-2.289000	-0.754942	-0.097412	0.643492	-1.000000	-1.000000	-1.000000	-1.000000	-1.000000	-1.000000	-1.000000	57.000000	0.000000	-1.000000	-1.000000	524938.000000	1775777774.106588
850.455000	-2610.540000	-5990.535000	19939.860000	14192.820000	3910.860000	-15591.240000	-13942.305000	0.540359	-1.870938	-2.693155	-3.296143	-9.096379	-6.607805	-0.441801	1.037944	2.075360	1.205540	-2.289000	-0.754942	-0.097412	0.643492	-1.000000	-1.000000	-1.000000	-1.000000	-1.000000	-1.000000	-1.000000	57.000000	0.000000	-1.000000	-1.000000	524939.000000	1775777774.111459
847.485000	-2612.070000	-5990.580000	19940.760000	14201.505000	3935.250000	-15594.750000	-13950.045000	0.293201	-2.313136	-4.342886	-6.219735	-8.679338	-14.783144	-2.045015	0.717697	2.075360	1.205540	-2.289000	-0.754942	-0.097412	0.643492	-1.000000	-1.000000	-1.000000	-1.000000	-1.000000	-1.000000	-1.000000	57.000000	0.000000	-1.000000	-1.000000	524940.000000	1775777774.111481
843.570000	-2611.620000	-5987.880000	19944.945000	14216.580000	3958.965000	-15593.670000	-13954.770000	-0.012817	-1.879612	-3.815248	-5.672443	-2.609074	-12.722351	-2.353110	-0.379742	2.075360	1.205540	-2.289000	-0.754942	-0.097412	0.643492	-1.000000	-1.000000	-1.000000	-1.000000	-1.000000	-1.000000	-1.000000	57.000000	0.000000	-1.000000	-1.000000	524941.000000	1775777774.113814
844.200000	-2610.270000	-5984.280000	19948.365000	14217.345000	3942.405000	-15594.075000	-13955.805000	-0.356211	-0.452865	-0.876718	-1.594733	5.761910	-1.892119	-1.590814	-1.814280	2.075360	1.205540	-2.289000	-0.754942	-0.097412	0.643492	-1.000000	-1.000000	-1.000000	-1.000000	-1.000000	-1.000000	-1.000000	57.000000	0.000000	-1.000000	-1.000000	524942.000000	1775777774.113830
846.495000	-2606.490000	-5978.430000	19958.400000	14222.565000	3933.855000	-15595.245000	-13955.265000	-0.442752	1.451753	3.022076	3.743187	11.720632	8.919341	-0.395410	-2.461416	2.807840	1.815940	0.656180	-0.750792	-0.093689	0.644774	-1.000000	-1.000000	-1.000000	-1.000000	-1.000000	-1.000000	-1.000000	57.000000	0.000000	-1.000000	-1.000000	524943.000000	1775777774.118442
849.240000	-2601.810000	-5974.245000	19960.200000	14219.505000	3937.365000	-15596.415000	-13953.465000	0.120387	3.134763	5.976412	7.662609	11.918528	11.857602	0.594828	-1.501264	2.807840	1.815940	0.656180	-0.750792	-0.093689	0.644774	-1.000000	-1.000000	-1.000000	-1.000000	-1.000000	-1.000000	-1.000000	57.000000	0.000000	-1.000000	-1.000000	524944.000000	1775777774.118462
854.100000	-2598.390000	-5974.740000	19952.145000	14213.250000	3936.600000	-15591.555000	-13946.130000	1.257568	3.999424	6.585017	8.151133	6.350568	6.971738	1.109338	0.846896	2.807840	1.815940	0.656180	-0.750792	-0.093689	0.644774	-1.000000	-1.000000	-1.000000	-1.000000	-1.000000	-1.000000	-1.000000	57.000000	0.000000	-1.000000	-1.000000	524945.000000	1775777774.136298
848.610000	-2605.275000	-5982.165000	19943.595000	14203.935000	3923.325000	-15596.730000	-13950.855000	2.229229	3.487319	4.310937	4.440374	-2.218803	-0.599810	1.278128	3.412646	2.807840	1.815940	0.656180	-0.750792	-0.093689	0.644774	-1.000000	-1.000000	-1.000000	-1.000000	-1.000000	-1.000000	-1.000000	57.000000	0.000000	-1.000000	-1.000000	524946.000000	1775777774.136325
850.545000	-2599.560000	-5972.985000	19954.395000	14205.330000	3924.045000	-15589.350000	-13951.035000	2.059256	1.377566	-0.008680	-1.766099	-9.811484	-6.441854	1.207130	4.548402	2.807840	1.815940	0.656180	-0.750792	-0.093689	0.644774	-1.000000	-1.000000	-1.000000	-1.000000	-1.000000	-1.000000	-1.000000	57.000000	0.000000	-1.000000	-1.000000	524947.000000	1775777774.136350
843.750000	-2605.455000	-5978.835000	19944.810000	14197.905000	3914.685000	-15598.260000	-13957.965000	0.466202	-1.528753	-4.121837	-6.760984	-13.005101	-8.511523	0.880947	3.250553	2.807840	1.815940	0.656180	-0.750792	-0.093689	0.644774	-1.000000	-1.000000	-1.000000	-1.000000	-1.000000	-1.000000	-1.000000	57.000000	0.000000	-1.000000	-1.000000	524948.000000	1775777774.136361
841.860000	-2608.380000	-5981.805000	19940.895000	14210.460000	3927.600000	-15607.530000	-13959.090000	-1.841089	-3.947084	-6.181920	-8.184863	-10.580855	-6.519073	-0.016962	0.084141	2.807840	1.815940	0.656180	-0.750792	-0.093689	0.644774	-1.000000	-1.000000	-1.000000	-1.000000	-1.000000	-1.000000	-1.000000	57.000000	0.000000	-1.000000	-1.000000	524949.000000	1775777774.136405
844.470000	-2606.220000	-5977.800000	19950.255000	14222.160000	3935.835000	-15607.035000	-13954.320000	-3.595786	-5.001635	-5.917364	-6.285081	-3.610118	-1.290174	-1.653616	-3.041990	2.807840	1.815940	0.656180	-0.750792	-0.093689	0.644774	-1.000000	-1.000000	-1.000000	-1.000000	-1.000000	-1.000000	-1.000000	57.000000	0.000000	-1.000000	-1.000000	524950.000000	1775777774.136414
845.280000	-2604.105000	-5974.380000	19955.070000	14224.545000	3937.500000	-15602.355000	-13950.900000	-3.605659	-4.187550	-3.714956	-2.098361	5.022322	5.130544	-2.907217	-4.087053	2.807840	1.815940	0.656180	-0.750792	-0.093689	0.644774	-1.000000	-1.000000	-1.000000	-1.000000	-1.000000	-1.000000	-1.000000	57.000000	0.000000	-1.000000	-1.000000	524951.000000	1775777774.136426
840.555000	-2605.770000	-5973.165000	19954.350000	14218.875000	3937.005000	-15599.205000	-13956.345000	-1.830012	-1.719660	-0.328510	2.841596	11.054498	9.472677	-2.194236	-2.650295	2.807840	1.815940	0.656180	-0.750792	-0.093689	0.644774	-1.000000	-1.000000	-1.000000	-1.000000	-1.000000	-1.000000	-1.000000	57.000000	0.000000	-1.000000	-1.000000	524952.000000	1775777774.136432
842.805000	-2603.475000	-5972.490000	19948.905000	14206.770000	3918.780000	-15606.360000	-13957.290000	0.468020	1.191410	2.821136	6.095482	10.999933	8.933591	0.325528	-0.356777	1.373400	3.219860	3.036740	-0.748411	-0.090881	0.644041	-1.000000	-1.000000	-1.000000	-1.000000	-1.000000	-1.000000	-1.000000	57.000000	0.000000	-1.000000	-1.000000	524953.000000	1775777774.138609
836.370000	-2611.215000	-5980.770000	19941.795000	14212.665000	3935.745000	-15609.015000	-13960.890000	1.978877	3.085943	4.201493	5.776965	5.069703	3.631687	2.593904	0.980212	1.373400	3.219860	3.036740	-0.748411	-0.090881	0.644041	-1.000000	-1.000000	-1.000000	-1.000000	-1.000000	-1.000000	-1.000000	57.000000	0.000000	-1.000000	-1.000000	524954.000000	1775777774.138633
841.635000	-2605.995000	-5976.135000	19948.005000	14222.475000	3945.555000	-15600.690000	-13954.995000	2.261674	3.211814	3.228685	2.381144	-2.344967	-2.490742	3.102055	1.030322	1.373400	3.219860	3.036740	-0.748411	-0.090881	0.644041	-1.000000	-1.000000	-1.000000	-1.000000	-1.000000	-1.000000	-1.000000	57.000000	0.000000	-1.000000	-1.000000	524955.000000	1775777774.142899
840.150000	-2607.795000	-5979.105000	19943.325000	14212.260000	3923.460000	-15601.230000	-13957.560000	1.781386	2.062709	0.916073	-1.459823	-6.480898	-5.537545	2.377931	0.667831	1.373400	3.219860	3.036740	-0.748411	-0.090881	0.644041	-1.000000	-1.000000	-1.000000	-1.000000	-1.000000	-1.000000	-1.000000	57.000000	0.000000	-1.000000	-1.000000	524956.000000	1775777774.142923
832.095000	-2614.815000	-5985.180000	19938.960000	14207.535000	3923.955000	-15608.970000	-13966.470000	1.056686	0.607937	-1.180363	-3.533569	-6.492212	-5.842433	1.313628	0.387697	1.373400	3.219860	3.036740	-0.748411	-0.090881	0.644041	-1.000000	-1.000000	-1.000000	-1.000000	-1.000000	-1.000000	-1.000000	57.000000	0.000000	-1.000000	-1.000000	524957.000000	1775777774.146838
834.930000	-2611.215000	-5980.365000	19944.585000	14220.540000	3942.855000	-15605.640000	-13963.140000	0.088672	-0.674398	-2.246410	-3.456714	-4.253864	-4.949793	-0.071548	-0.116052	1.373400	3.219860	3.036740	-0.748411	-0.090881	0.644041	-1.000000	-1.000000	-1.000000	-1.000000	-1.000000	-1.000000	-1.000000	57.000000	0.000000	-1.000000	-1.000000	524958.000000	1775777774.146857
833.985000	-2610.990000	-5979.915000	19944.090000	14212.575000	3934.845000	-15610.095000	-13965.075000	-0.839658	-1.349750	-1.943693	-1.728816	-1.142800	-2.531920	-1.574198	-0.706003	1.373400	3.219860	3.036740	-0.748411	-0.090881	0.644041	-1.000000	-1.000000	-1.000000	-1.000000	-1.000000	-1.000000	-1.000000	57.000000	0.000000	-1.000000	-1.000000	524959.000000	1775777774.158088
832.860000	-2609.910000	-5976.990000	19945.620000	14206.770000	3924.315000	-15616.170000	-13967.055000	-1.111177	-1.002696	-0.369130	0.735668	1.591314	0.695901	-2.624433	-0.779635	1.373400	3.219860	3.036740	-0.748411	-0.090881	0.644041	-1.000000	-1.000000	-1.000000	-1.000000	-1.000000	-1.000000	-1.000000	57.000000	0.000000	-1.000000	-1.000000	524960.000000	1775777774.158115
828.405000	-2612.340000	-5976.225000	19949.760000	14219.865000	3934.935000	-15613.695000	-13970.025000	-0.738090	0.021828	1.599528	2.736650	2.781409	2.504631	-2.925338	-0.319356	1.373400	3.219860	3.036740	-0.748411	-0.090881	0.644041	-1.000000	-1.000000	-1.000000	-1.000000	-1.000000	-1.000000	-1.000000	57.000000	0.000000	-1.000000	-1.000000	524961.000000	1775777774.158148
831.150000	-2608.065000	-5971.770000	19955.835000	14222.070000	3928.500000	-15611.760000	-13967.595000	-0.222719	0.924588	2.889584	3.607077	2.925219	2.425225	-2.177634	0.281371	1.373400	3.219860	3.036740	-0.748411	-0.090881	0.644041	-1.000000	-1.000000	-1.000000	-1.000000	-1.000000	-1.000000	-1.000000	57.000000	0.000000	-1.000000	-1.000000	524962.000000	1775777774.158159
829.845000	-2609.595000	-5975.505000	19952.145000	14225.805000	3942.135000	-15608.385000	-13968.675000	0.225930	1.276277	2.894119	3.270018	3.031906	1.763032	-0.253161	0.847734	-1.892240	3.799740	2.456860	-0.747129	-0.089172	0.642271	-1.000000	-1.000000	-1.000000	-1.000000	-1.000000	-1.000000	-1.000000	57.000000	0.000000	-1.000000	-1.000000	524963.000000	1775777774.159374
829.215000	-2610.315000	-5979.555000	19945.620000	14221.710000	3955.275000	-15607.170000	-13969.440000	0.622495	1.026721	1.464431	1.574453	2.808421	1.868826	2.154279	1.272023	-1.892240	3.799740	2.456860	-0.747129	-0.089172	0.642271	-1.000000	-1.000000	-1.000000	-1.000000	-1.000000	-1.000000	-1.000000	57.000000	0.000000	-1.000000	-1.000000	524964.000000	1775777774.159396
834.975000	-2605.860000	-5976.315000	19945.620000	14221.035000	3943.440000	-15610.275000	-13966.110000	0.935497	0.341121	-0.898775	-1.320267	1.411911	2.835964	3.723472	1.378126	-1.892240	3.799740	2.456860	-0.747129	-0.089172	0.642271	-1.000000	-1.000000	-1.000000	-1.000000	-1.000000	-1.000000	-1.000000	57.000000	0.000000	-1.000000	-1.000000	524965.000000	1775777774.161903
833.535000	-2605.410000	-5973.705000	19948.860000	14223.870000	3946.545000	-15612.210000	-13969.890000	1.193058	-0.297069	-2.813922	-4.044756	-0.999070	2.851995	3.400656	1.120907	-1.892240	3.799740	2.456860	-0.747129	-0.089172	0.642271	-1.000000	-1.000000	-1.000000	-1.000000	-1.000000	-1.000000	-1.000000	57.000000	0.000000	-1.000000	-1.000000	524966.000000	1775777774.161919
831.735000	-2608.560000	-5975.955000	19944.315000	14219.280000	3947.985000	-15614.280000	-13969.665000	1.190035	-0.610078	-3.102530	-4.901290	-3.188800	0.662665	1.279127	0.486921	-1.892240	3.799740	2.456860	-0.747129	-0.089172	0.642271	-1.000000	-1.000000	-1.000000	-1.000000	-1.000000	-1.000000	-1.000000	57.000000	0.000000	-1.000000	-1.000000	524967.000000	1775777774.165974
829.485000	-2611.350000	-5976.990000	19941.660000	14217.885000	3944.025000	-15619.635000	-13970.205000	0.497229	-0.916258	-1.997001	-3.662530	-4.170885	-2.562408	-1.472448	-0.423589	-1.892240	3.799740	2.456860	-0.747129	-0.089172	0.642271	-1.000000	-1.000000	-1.000000	-1.000000	-1.000000	-1.000000	-1.000000	57.000000	0.000000	-1.000000	-1.000000	524968.000000	1775777774.165992
822.960000	-2615.355000	-5979.105000	19936.755000	14206.815000	3933.090000	-15625.755000	-13978.080000	-0.916705	-1.508290	-0.605879	-1.528782	-3.977944	-5.147348	-3.612821	-1.342666	-1.892240	3.799740	2.456860	-0.747129	-0.089172	0.642271	-1.000000	-1.000000	-1.000000	-1.000000	-1.000000	-1.000000	-1.000000	57.000000	0.000000	-1.000000	-1.000000	524969.000000	1775777774.170986
822.060000	-2616.750000	-5978.070000	19938.735000	14205.600000	3924.810000	-15629.580000	-13982.715000	-2.492577	-2.117650	0.315914	0.363692	-3.165554	-6.475970	-4.446023	-2.181662	-1.892240	3.799740	2.456860	-0.747129	-0.089172	0.642271	-1.000000	-1.000000	-1.000000	-1.000000	-1.000000	-1.000000	-1.000000	57.000000	0.000000	-1.000000	-1.000000	524970.000000	1775777774.171013
822.465000	-2614.725000	-5972.805000	19945.665000	14211.675000	3928.995000	-15628.680000	-13982.850000	-3.273797	-2.080217	0.846646	1.871208	-1.774378	-6.183793	-3.672683	-2.728859	-1.892240	3.799740	2.456860	-0.747129	-0.089172	0.642271	-1.000000	-1.000000	-1.000000	-1.000000	-1.000000	-1.000000	-1.000000	57.000000	0.000000	-1.000000	-1.000000	524971.000000	1775777774.174660
821.700000	-2613.690000	-5970.015000	19950.705000	14217.210000	3937.995000	-15632.190000	-13984.560000	-2.520734	-0.915980	1.463043	3.401842	0.745905	-3.462168	-1.417016	-2.362273	-1.892240	3.799740	2.456860	-0.747129	-0.089172	0.642271	-1.000000	-1.000000	-1.000000	-1.000000	-1.000000	-1.000000	-1.000000	57.000000	0.000000	-1.000000	-1.000000	524972.000000	1775777774.174684
825.345000	-2607.165000	-5964.120000	19954.665000	14221.035000	3939.255000	-15632.415000	-13980.870000	-0.418693	1.167281	2.257343	4.783167	4.141467	1.656096	1.457814	-0.742296	-4.181240	2.990960	3.052000	-0.748472	-0.089599	0.640868	-1.000000	-1.000000	-1.000000	-1.000000	-1.000000	-1.000000	-1.000000	57.000000	0.000000	-1.000000	-1.000000	524973.000000	1775777774.179536
825.705000	-2605.545000	-5965.515000	19948.770000	14216.310000	3932.145000	-15635.700000	-13978.665000	2.064306	3.333642	2.705873	4.945255	6.675969	6.838751	3.681552	1.692722	-4.181240	2.990960	3.052000	-0.748472	-0.089599	0.640868	-1.000000	-1.000000	-1.000000	-1.000000	-1.000000	-1.000000	-1.000000	57.000000	0.000000	-1.000000	-1.000000	524974.000000	1775777774.179560
823.905000	-2607.390000	-5967.720000	19945.260000	14211.900000	3919.770000	-15631.110000	-13978.080000	3.723171	4.428276	2.055794	2.868145	6.367679	8.655523	4.481776	3.896641	-4.181240	2.990960	3.052000	-0.748472	-0.089599	0.640868	-1.000000	-1.000000	-1.000000	-1.000000	-1.000000	-1.000000	-1.000000	57.000000	0.000000	-1.000000	-1.000000	524975.000000	1775777774.181884
812.520000	-2616.840000	-5974.470000	19941.660000	14211.405000	3928.680000	-15627.420000	-13986.945000	3.494366	3.404458	-0.026020	-1.086387	2.922753	5.915991	4.072441	4.551234	-4.181240	2.990960	3.052000	-0.748472	-0.089599	0.640868	-1.000000	-1.000000	-1.000000	-1.000000	-1.000000	-1.000000	-1.000000	57.000000	0.000000	-1.000000	-1.000000	524976.000000	1775777774.181903
817.470000	-2616.255000	-5978.745000	19937.295000	14202.450000	3932.010000	-15624.000000	-13980.420000	1.263700	0.272864	-2.931557	-5.045244	-1.851447	1.223819	3.138973	3.013479	-4.181240	2.990960	3.052000	-0.748472	-0.089599	0.640868	-1.000000	-1.000000	-1.000000	-1.000000	-1.000000	-1.000000	-1.000000	57.000000	0.000000	-1.000000	-1.000000	524977.000000	1775777774.204233
823.680000	-2615.940000	-5986.080000	19929.870000	14201.235000	3922.515000	-15631.515000	-13976.280000	-1.311740	-3.248891	-5.319385	-7.110660	-5.616942	-2.056948	1.832389	0.392652	-4.181240	2.990960	3.052000	-0.748472	-0.089599	0.640868	-1.000000	-1.000000	-1.000000	-1.000000	-1.000000	-1.000000	-1.000000	57.000000	0.000000	-1.000000	-1.000000	524978.000000	1775777774.204257
821.700000	-2616.120000	-5983.155000	19936.395000	14224.770000	3949.110000	-15627.870000	-13978.980000	-2.155651	-4.919327	-5.839845	-6.430118	-6.366752	-2.714839	-0.161560	-1.486689	-4.181240	2.990960	3.052000	-0.748472	-0.089599	0.640868	-1.000000	-1.000000	-1.000000	-1.000000	-1.000000	-1.000000	-1.000000	57.000000	0.000000	-1.000000	-1.000000	524979.000000	1775777774.205570
812.115000	-2621.610000	-5985.000000	19932.480000	14207.220000	3950.370000	-15620.085000	-13988.160000	-1.300647	-4.032490	-3.838731	-3.178493	-3.339450	-0.868863	-2.309631	-2.271332	-4.181240	2.990960	3.052000	-0.748472	-0.089599	0.640868	-1.000000	-1.000000	-1.000000	-1.000000	-1.000000	-1.000000	-1.000000	57.000000	0.000000	-1.000000	-1.000000	524980.000000	1775777774.205586
814.005000	-2614.635000	-5976.090000	19939.635000	14205.735000	3925.260000	-15631.605000	-13991.535000	-0.465411	-1.581926	0.172603	1.401009	1.061477	1.590943	-3.487277	-2.870357	-4.181240	2.990960	3.052000	-0.748472	-0.089599	0.640868	-1.000000	-1.000000	-1.000000	-1.000000	-1.000000	-1.000000	-1.000000	57.000000	0.000000	-1.000000	-1.000000	524981.000000	1775777774.205609
810.855000	-2613.015000	-5972.355000	19942.875000	14210.820000	3922.110000	-15638.895000	-13997.295000	-0.472335	1.231670	4.705786	5.488394	3.408487	1.125355	-3.814758	-3.585608	-4.181240	2.990960	3.052000	-0.748472	-0.089599	0.640868	-1.000000	-1.000000	-1.000000	-1.000000	-1.000000	-1.000000	-1.000000	57.000000	0.000000	-1.000000	-1.000000	524982.000000	1775777774.205621
807.255000	-2617.695000	-5976.585000	19940.670000	14206.815000	3925.080000	-15642.675000	-13999.275000	-0.802722	3.407515	7.761281	7.534423	3.097709	-2.769072	-4.119457	-3.712239	-3.021480	2.182180	0.412020	-0.754332	-0.092346	0.637694	-1.000000	-1.000000	-1.000000	-1.000000	-1.000000	-1.000000	-1.000000	57.000000	0.000000	-1.000000	-1.000000	524983.000000	1775777774.205635
809.505000	-2617.245000	-5976.315000	19936.350000	14209.065000	3930.435000	-15638.445000	-13990.275000	-0.818064	3.919958	7.593838	6.580406	1.535529	-6.180133	-3.999495	-2.357891	-3.021480	2.182180	0.412020	-0.754332	-0.092346	0.637694	-1.000000	-1.000000	-1.000000	-1.000000	-1.000000	-1.000000	-1.000000	57.000000	0.000000	-1.000000	-1.000000	524984.000000	1775777774.205645
809.460000	-2619.045000	-5977.035000	19931.985000	14212.170000	3941.055000	-15629.985000	-13985.190000	-0.184207	2.562004	4.160831	2.823514	0.067948	-5.448101	-2.162647	0.810474	-3.021480	2.182180	0.412020	-0.754332	-0.092346	0.637694	-1.000000	-1.000000	-1.000000	-1.000000	-1.000000	-1.000000	-1.000000	57.000000	0.000000	-1.000000	-1.000000	524985.000000	1775777774.205658
804.960000	-2621.970000	-5980.725000	19920.960000	14193.135000	3925.620000	-15637.680000	-13989.780000	0.892238	0.260359	-0.675850	-2.185756	-0.870934	-0.969443	1.450915	4.622278	-3.021480	2.182180	0.412020	-0.754332	-0.092346	0.637694	-1.000000	-1.000000	-1.000000	-1.000000	-1.000000	-1.000000	-1.000000	57.000000	0.000000	-1.000000	-1.000000	524986.000000	1775777774.205669
811.170000	-2617.470000	-5981.355000	19925.820000	14191.065000	3910.410000	-15636.375000	-13986.630000	1.742695	-1.702755	-4.676308	-6.230606	-1.958383	3.159923	4.792451	6.693450	-3.021480	2.182180	0.412020	-0.754332	-0.092346	0.637694	-1.000000	-1.000000	-1.000000	-1.000000	-1.000000	-1.000000	-1.000000	57.000000	0.000000	-1.000000	-1.000000	524987.000000	1775777774.208776
813.780000	-2614.365000	-5977.260000	19929.465000	14196.870000	3911.130000	-15630.075000	-13983.750000	2.121915	-2.272178	-6.303768	-7.177836	-3.121283	3.472392	5.872771	5.736294	-3.021480	2.182180	0.412020	-0.754332	-0.092346	0.637694	-1.000000	-1.000000	-1.000000	-1.000000	-1.000000	-1.000000	-1.000000	57.000000	0.000000	-1.000000	-1.000000	524988.000000	1775777774.208799
807.435000	-2617.290000	-5979.240000	19926.180000	14199.705000	3923.685000	-15628.590000	-13986.810000	2.054290	-1.314721	-5.147637	-4.409209	-2.737346	1.137308	4.770573	2.575749	-3.021480	2.182180	0.412020	-0.754332	-0.092346	0.637694	-1.000000	-1.000000	-1.000000	-1.000000	-1.000000	-1.000000	-1.000000	57.000000	0.000000	-1.000000	-1.000000	524989.000000	1775777774.210781
799.785000	-2623.095000	-5983.515000	19931.805000	14204.070000	3942.180000	-15628.905000	-13995.675000	1.038841	-0.010158	-2.301490	0.284497	-0.043241	0.274363	2.586988	-1.331370	-3.021480	2.182180	0.412020	-0.754332	-0.092346	0.637694	-1.000000	-1.000000	-1.000000	-1.000000	-1.000000	-1.000000	-1.000000	57.000000	0.000000	-1.000000	-1.000000	524990.000000	1775777774.210795
800.730000	-2621.025000	-5979.870000	19937.880000	14207.310000	3939.030000	-15633.090000	-13997.475000	-1.093568	0.361957	0.434005	4.398056	3.558015	2.720656	0.003399	-4.853831	-3.021480	2.182180	0.412020	-0.754332	-0.092346	0.637694	-1.000000	-1.000000	-1.000000	-1.000000	-1.000000	-1.000000	-1.000000	57.000000	0.000000	-1.000000	-1.000000	524991.000000	1775777774.213958
799.965000	-2620.215000	-5979.195000	19933.605000	14208.165000	3934.215000	-15641.460000	-14001.930000	-3.128429	-0.111339	2.121604	6.355704	5.854955	5.729178	-2.699825	-6.844574	-3.021480	2.182180	0.412020	-0.754332	-0.092346	0.637694	-1.000000	-1.000000	-1.000000	-1.000000	-1.000000	-1.000000	-1.000000	57.000000	0.000000	-1.000000	-1.000000	524992.000000	1775777774.213984
800.190000	-2615.940000	-5972.940000	19936.170000	14216.535000	3939.840000	-15644.745000	-14004.090000	-3.536390	-0.379365	2.906154	5.511250	5.608164	5.492458	-5.074891	-6.432881	0.427280	1.342880	-0.167860	-0.756651	-0.094787	0.636778	-1.000000	-1.000000	-1.000000	-1.000000	-1.000000	-1.000000	-1.000000	57.000000	0.000000	-1.000000	-1.000000	524993.000000	1775777774.218874
806.850000	-2604.870000	-5957.145000	19954.755000	14228.550000	3946.320000	-15641.865000	-14001.120000	-1.926005	0.346012	3.400711	2.740359	3.449876	1.747539	-6.083171	-3.696075	0.427280	1.342880	-0.167860	-0.756651	-0.094787	0.636778	-1.000000	-1.000000	-1.000000	-1.000000	-1.000000	-1.000000	-1.000000	57.000000	0.000000	-1.000000	-1.000000	524994.000000	1775777774.218898
809.235000	-2601.360000	-5951.430000	19958.310000	14223.420000	3950.595000	-15634.620000	-13999.275000	0.929920	1.992513	4.075782	0.287665	0.823315	-2.634712	-4.551134	0.418590	0.427280	1.342880	-0.167860	-0.756651	-0.094787	0.636778	-1.000000	-1.000000	-1.000000	-1.000000	-1.000000	-1.000000	-1.000000	57.000000	0.000000	-1.000000	-1.000000	524995.000000	1775777774.222711
806.220000	-2609.370000	-5961.240000	19949.265000	14216.085000	3939.390000	-15635.970000	-13998.465000	3.479956	3.245858	4.114983	-0.962009	-1.936070	-5.394523	-0.592971	4.392864	0.427280	1.342880	-0.167860	-0.756651	-0.094787	0.636778	-1.000000	-1.000000	-1.000000	-1.000000	-1.000000	-1.000000	-1.000000	57.000000	0.000000	-1.000000	-1.000000	524996.000000	1775777774.222731
808.560000	-2616.840000	-5976.045000	19935.360000	14205.420000	3916.980000	-15637.365000	-13991.445000	4.152212	2.229526	1.583597	-2.577549	-5.250902	-6.873702	3.712826	6.735515	0.427280	1.342880	-0.167860	-0.756651	-0.094787	0.636778	-1.000000	-1.000000	-1.000000	-1.000000	-1.000000	-1.000000	-1.000000	57.000000	0.000000	-1.000000	-1.000000	524997.000000	1775777774.226062
813.555000	-2616.795000	-5981.895000	19925.460000	14189.445000	3894.210000	-15639.255000	-13984.515000	2.744754	-1.277353	-3.895466	-5.775388	-8.663981	-8.553178	5.828967	6.922294	0.427280	1.342880	-0.167860	-0.756651	-0.094787	0.636778	-1.000000	-1.000000	-1.000000	-1.000000	-1.000000	-1.000000	-1.000000	57.000000	0.000000	-1.000000	-1.000000	524998.000000	1775777774.226088
806.310000	-2616.120000	-5976.810000	19931.580000	14197.410000	3905.010000	-15636.195000	-13995.495000	0.372854	-4.965306	-9.324031	-8.905894	-10.389739	-9.843144	4.931364	5.119558	0.427280	1.342880	-0.167860	-0.756651	-0.094787	0.636778	-1.000000	-1.000000	-1.000000	-1.000000	-1.000000	-1.000000	-1.000000	57.000000	0.000000	-1.000000	-1.000000	524999.000000	1775777774.235590
801.360000	-2615.850000	-5971.320000	19940.310000	14224.005000	3954.330000	-15627.330000	-14004.180000	-2.066272	-6.129977	-10.459597	-8.564863	-7.742937	-6.738843	2.396395	1.297932	0.427280	1.342880	-0.167860	-0.756651	-0.094787	0.636778	-1.000000	-1.000000	-1.000000	-1.000000	-1.000000	-1.000000	-1.000000	57.000000	0.000000	-1.000000	-1.000000	525000.000000	1775777774.235614
807.165000	-2609.235000	-5961.420000	19949.715000	14226.930000	3960.135000	-15625.305000	-13997.970000	-3.962853	-3.973630	-5.725248	-3.162722	0.324213	3.654899	0.280242	-3.697243	0.427280	1.342880	-0.167860	-0.756651	-0.094787	0.636778	-1.000000	-1.000000	-1.000000	-1.000000	-1.000000	-1.000000	-1.000000	57.000000	0.000000	-1.000000	-1.000000	525001.000000	1775777774.241737
804.960000	-2610.495000	-5961.330000	19946.340000	14221.620000	3945.780000	-15632.190000	-13997.970000	-4.333363	0.207026	2.344431	4.849845	9.945852	16.349298	-0.775100	-7.223379	0.427280	1.342880	-0.167860	-0.756651	-0.094787	0.636778	-1.000000	-1.000000	-1.000000	-1.000000	-1.000000	-1.000000	-1.000000	57.000000	0.000000	-1.000000	-1.000000	525002.000000	1775777774.241763
802.170000	-2613.690000	-5965.245000	19943.010000	14238.135000	3972.105000	-15625.305000	-13997.790000	-2.867185	3.965210	8.939862	10.567508	14.940058	21.820467	-1.550487	-7.133843	2.731540	1.526000	-0.167860	-0.757200	-0.094116	0.636534	-1.000000	-1.000000	-1.000000	-1.000000	-1.000000	-1.000000	-1.000000	57.000000	0.000000	-1.000000	-1.000000	525003.000000	1775777774.241793
803.070000	-2613.870000	-5968.530000	19940.580000	14241.555000	3980.160000	-15622.110000	-13996.215000	-0.567437	5.227794	10.337204	10.612696	13.002103	16.771722	-2.272198	-3.899481	2.731540	1.526000	-0.167860	-0.757200	-0.094116	0.636534	-1.000000	-1.000000	-1.000000	-1.000000	-1.000000	-1.000000	-1.000000	57.000000	0.000000	-1.000000	-1.000000	525004.000000	1775777774.241822
806.265000	-2609.190000	-5964.885000	19941.930000	14229.675000	3955.545000	-15629.535000	-13994.595000	1.477165	3.873050	6.491478	5.661140	6.123956	5.109596	-2.484003	0.345344	2.731540	1.526000	-0.167860	-0.757200	-0.094116	0.636534	-1.000000	-1.000000	-1.000000	-1.000000	-1.000000	-1.000000	-1.000000	57.000000	0.000000	-1.000000	-1.000000	525005.000000	1775777774.254768
799.875000	-2612.565000	-5967.360000	19936.485000	14216.490000	3938.310000	-15640.290000	-14000.490000	2.717669	1.433175	0.554907	-0.811114	-2.953726	-8.621023	-2.548172	3.457308	2.731540	1.526000	-0.167860	-0.757200	-0.094116	0.636534	-1.000000	-1.000000	-1.000000	-1.000000	-1.000000	-1.000000	-1.000000	57.000000	0.000000	-1.000000	-1.000000	525006.000000	1775777774.254795
797.895000	-2612.295000	-5965.695000	19937.295000	14221.080000	3935.070000	-15642.135000	-14000.130000	2.722219	-0.698179	-4.045547	-5.523320	-11.225721	-20.218488	-3.091599	4.179453	2.731540	1.526000	-0.167860	-0.757200	-0.094116	0.636534	-1.000000	-1.000000	-1.000000	-1.000000	-1.000000	-1.000000	-1.000000	57.000000	0.000000	-1.000000	-1.000000	525007.000000	1775777774.254824
800.190000	-2606.715000	-5957.865000	19946.565000	14234.085000	3958.020000	-15636.060000	-13997.700000	1.565116	-1.879991	-5.539209	-6.759492	-14.749661	-24.267411	-3.341140	2.823428	2.731540	1.526000	-0.167860	-0.757200	-0.094116	0.636534	-1.000000	-1.000000	-1.000000	-1.000000	-1.000000	-1.000000	-1.000000	57.000000	0.000000	-1.000000	-1.000000	525008.000000	1775777774.254836
802.350000	-2603.745000	-5955.165000	19948.995000	14223.825000	3955.005000	-15631.515000	-13993.290000	0.254636	-1.787105	-3.908753	-4.399204	-11.373583	-17.481269	-1.728816	0.985662	2.731540	1.526000	-0.167860	-0.757200	-0.094116	0.636534	-1.000000	-1.000000	-1.000000	-1.000000	-1.000000	-1.000000	-1.000000	57.000000	0.000000	-1.000000	-1.000000	525009.000000	1775777774.259021
801.495000	-2603.790000	-5956.605000	19946.610000	14210.550000	3941.865000	-15634.620000	-13994.370000	-0.264201	-0.690884	-0.731261	-0.211234	-3.877934	-3.516413	1.763716	-0.013303	2.731540	1.526000	-0.167860	-0.757200	-0.094116	0.636534	-1.000000	-1.000000	-1.000000	-1.000000	-1.000000	-1.000000	-1.000000	57.000000	0.000000	-1.000000	-1.000000	525010.000000	1775777774.259069
799.155000	-2605.410000	-5959.080000	19942.425000	14214.780000	3943.395000	-15633.945000	-13994.685000	-0.106737	0.363048	1.639965	2.899001	2.602983	9.144027	5.047744	-0.183267	2.731540	1.526000	-0.167860	-0.757200	-0.094116	0.636534	-1.000000	-1.000000	-1.000000	-1.000000	-1.000000	-1.000000	-1.000000	57.000000	0.000000	-1.000000	-1.000000	525011.000000	1775777774.259101
798.525000	-2607.210000	-5960.970000	19945.035000	14235.165000	3959.640000	-15637.230000	-13995.945000	-0.001496	0.428991	1.808647	3.207812	6.138874	15.090913	5.993120	-0.287075	2.731540	1.526000	-0.167860	-0.757200	-0.094116	0.636534	-1.000000	-1.000000	-1.000000	-1.000000	-1.000000	-1.000000	-1.000000	57.000000	0.000000	-1.000000	-1.000000	525012.000000	1775777774.259111
796.005000	-2612.250000	-5967.090000	19942.155000	14229.765000	3947.580000	-15643.215000	-14000.445000	-0.325515	-0.572717	0.125884	1.364934	8.071917	14.705508	4.113729	-0.817389	2.487380	1.983800	1.144500	-0.755308	-0.090942	0.636839	-1.000000	-1.000000	-1.000000	-1.000000	-1.000000	-1.000000	-1.000000	57.000000	0.000000	-1.000000	-1.000000	525013.000000	1775777774.265850
799.470000	-2611.800000	-5969.475000	19936.485000	14218.695000	3936.600000	-15632.370000	-13995.270000	-0.801691	-1.919340	-2.041404	-0.949016	8.509295	9.989227	0.724920	-1.566780	2.487380	1.983800	1.144500	-0.755308	-0.090942	0.636839	-1.000000	-1.000000	-1.000000	-1.000000	-1.000000	-1.000000	-1.000000	57.000000	0.000000	-1.000000	-1.000000	525014.000000	1775777774.265875
801.135000	-2609.190000	-5967.630000	19932.255000	14211.765000	3941.820000	-15626.700000	-13992.165000	-0.828275	-2.499591	-3.201840	-2.635041	5.813858	2.783163	-1.745026	-1.709593	2.487380	1.983800	1.144500	-0.755308	-0.090942	0.636839	-1.000000	-1.000000	-1.000000	-1.000000	-1.000000	-1.000000	-1.000000	57.000000	0.000000	-1.000000	-1.000000	525015.000000	1775777774.265900
798.435000	-2608.470000	-5963.805000	19935.675000	14217.885000	3943.395000	-15633.180000	-13996.350000	-0.216393	-1.566588	-2.356824	-3.120616	0.411577	-3.768106	-1.957024	-0.802887	2.487380	1.983800	1.144500	-0.755308	-0.090942	0.636839	-1.000000	-1.000000	-1.000000	-1.000000	-1.000000	-1.000000	-1.000000	57.000000	0.000000	-1.000000	-1.000000	525016.000000	1775777774.265912
793.395000	-2610.360000	-5961.105000	19942.830000	14237.100000	3957.435000	-15639.435000	-14003.865000	0.371273	0.449051	0.327419	-1.880721	-4.055161	-6.422710	-1.174800	0.271756	2.487380	1.983800	1.144500	-0.755308	-0.090942	0.636839	-1.000000	-1.000000	-1.000000	-1.000000	-1.000000	-1.000000	-1.000000	57.000000	0.000000	-1.000000	-1.000000	525017.000000	1775777774.268424
791.865000	-2611.755000	-5962.005000	19940.580000	14233.320000	3962.925000	-15639.795000	-14007.330000	0.180409	2.208760	3.376832	0.895821	-4.358654	-4.405126	-1.243623	0.292492	2.487380	1.983800	1.144500	-0.755308	-0.090942	0.636839	-1.000000	-1.000000	-1.000000	-1.000000	-1.000000	-1.000000	-1.000000	57.000000	0.000000	-1.000000	-1.000000	525018.000000	1775777774.268443
789.435000	-2614.230000	-5965.245000	19935.450000	14224.095000	3953.970000	-15644.790000	-14009.850000	-0.648271	2.658813	4.886396	3.539794	-1.574742	-0.160310	-2.223123	-0.691315	2.487380	1.983800	1.144500	-0.755308	-0.090942	0.636839	-1.000000	-1.000000	-1.000000	-1.000000	-1.000000	-1.000000	-1.000000	57.000000	0.000000	-1.000000	-1.000000	525019.000000	1775777774.270484
794.160000	-2608.740000	-5960.250000	19940.535000	14223.285000	3952.080000	-15639.255000	-14003.190000	-1.194816	1.879979	4.000453	4.200526	0.435146	2.369901	-2.820772	-1.348602	2.487380	1.983800	1.144500	-0.755308	-0.090942	0.636839	-1.000000	-1.000000	-1.000000	-1.000000	-1.000000	-1.000000	-1.000000	57.000000	0.000000	-1.000000	-1.000000	525020.000000	1775777774.270504
794.025000	-2608.785000	-5959.215000	19944.630000	14223.285000	3949.065000	-15634.845000	-14004.540000	-0.669438	0.849129	1.629066	2.899834	-0.126901	1.279473	-1.848293	-0.498124	2.487380	1.983800	1.144500	-0.755308	-0.090942	0.636839	-1.000000	-1.000000	-1.000000	-1.000000	-1.000000	-1.000000	-1.000000	57.000000	0.000000	-1.000000	-1.000000	525021.000000	1775777774.274800
796.455000	-2610.315000	-5963.130000	19941.750000	14215.500000	3933.045000	-15639.840000	-14002.245000	0.780023	0.251643	-0.735662	1.008595	-1.990344	-2.200866	0.591972	1.561007	2.487380	1.983800	1.144500	-0.755308	-0.090942	0.636839	-1.000000	-1.000000	-1.000000	-1.000000	-1.000000	-1.000000	-1.000000	57.000000	0.000000	-1.000000	-1.000000	525022.000000	1775777774.274827
795.870000	-2611.980000	-5965.695000	19936.980000	14221.845000	3935.115000	-15639.165000	-14003.730000	2.168947	-0.125994	-2.440783	-0.727967	-3.226172	-5.639831	2.872579	3.340670	-0.915600	1.480220	1.510740	-0.753111	-0.088745	0.638365	-1.000000	-1.000000	-1.000000	-1.000000	-1.000000	-1.000000	-1.000000	57.000000	0.000000	-1.000000	-1.000000	525023.000000	1775777774.287140
787.410000	-2620.215000	-5972.670000	19929.420000	14228.640000	3946.905000	-15636.960000	-14011.245000	2.393861	-0.797157	-3.513815	-2.427795	-2.510029	-6.465525	3.531804	3.462459	-0.915600	1.480220	1.510740	-0.753111	-0.088745	0.638365	-1.000000	-1.000000	-1.000000	-1.000000	-1.000000	-1.000000	-1.000000	57.000000	0.000000	-1.000000	-1.000000	525024.000000	1775777774.287167
790.515000	-2614.140000	-5963.490000	19939.950000	14226.930000	3951.360000	-15637.365000	-14010.480000	1.029333	-1.743827	-3.750043	-3.746758	0.229728	-3.078181	2.619225	1.604614	-0.915600	1.480220	1.510740	-0.753111	-0.088745	0.638365	-1.000000	-1.000000	-1.000000	-1.000000	-1.000000	-1.000000	-1.000000	57.000000	0.000000	-1.000000	-1.000000	525025.000000	1775777774.287242
787.905000	-2613.780000	-5960.340000	19945.620000	14228.370000	3949.470000	-15645.465000	-14015.880000	-1.042562	-2.102035	-2.471041	-3.385126	3.293194	2.998745	0.854853	-1.168581	-0.915600	1.480220	1.510740	-0.753111	-0.088745	0.638365	-1.000000	-1.000000	-1.000000	-1.000000	-1.000000	-1.000000	-1.000000	57.000000	0.000000	-1.000000	-1.000000	525026.000000	1775777774.287255
791.685000	-2608.290000	-5953.905000	19952.055000	14238.855000	3958.110000	-15641.595000	-14011.965000	-2.308330	-1.078466	0.408779	-0.707557	4.813864	7.928967	-1.158724	-3.160252	-0.915600	1.480220	1.510740	-0.753111	-0.088745	0.638365	-1.000000	-1.000000	-1.000000	-1.000000	-1.000000	-1.000000	-1.000000	57.000000	0.000000	-1.000000	-1.000000	525027.000000	1775777774.287275
793.440000	-2606.490000	-5953.770000	19946.700000	14233.545000	3950.910000	-15645.780000	-14012.010000	-1.962410	0.972792	3.537093	2.739469	4.373863	8.948850	-2.613009	-3.235577	-0.915600	1.480220	1.510740	-0.753111	-0.088745	0.638365	-1.000000	-1.000000	-1.000000	-1.000000	-1.000000	-1.000000	-1.000000	57.000000	0.000000	-1.000000	-1.000000	525028.000000	1775777774.287287
790.020000	-2612.025000	-5962.365000	19935.000000	14215.500000	3919.860000	-15656.850000	-14015.700000	-0.444243	2.678285	4.846534	4.145622	1.984865	5.246366	-3.021000	-1.576815	-0.915600	1.480220	1.510740	-0.753111	-0.088745	0.638365	-1.000000	-1.000000	-1.000000	-1.000000	-1.000000	-1.000000	-1.000000	57.000000	0.000000	-1.000000	-1.000000	525029.000000	1775777774.289888
796.410000	-2610.090000	-5962.815000	19931.535000	14208.390000	3905.190000	-15649.965000	-14008.095000	1.074937	2.700398	3.143175	1.999727	-2.345655	-2.472205	-2.625825	0.604623	-0.915600	1.480220	1.510740	-0.753111	-0.088745	0.638365	-1.000000	-1.000000	-1.000000	-1.000000	-1.000000	-1.000000	-1.000000	57.000000	0.000000	-1.000000	-1.000000	525030.000000	1775777774.289907
795.915000	-2610.045000	-5961.375000	19936.845000	14222.835000	3922.920000	-15643.665000	-14007.960000	1.845678	1.048862	-0.528666	-2.048385	-6.616964	-10.264669	-1.274824	2.320247	-0.915600	1.480220	1.510740	-0.753111	-0.088745	0.638365	-1.000000	-1.000000	-1.000000	-1.000000	-1.000000	-1.000000	-1.000000	57.000000	0.000000	-1.000000	-1.000000	525031.000000	1775777774.293953
789.840000	-2617.740000	-5968.215000	19927.755000	14221.530000	3941.505000	-15648.255000	-14013.180000	1.652438	-1.122628	-3.709570	-4.705604	-7.280617	-11.742252	1.203377	2.986942	-0.915600	1.480220	1.510740	-0.753111	-0.088745	0.638365	-1.000000	-1.000000	-1.000000	-1.000000	-1.000000	-1.000000	-1.000000	57.000000	0.000000	-1.000000	-1.000000	525032.000000	1775777774.293970
789.615000	-2615.580000	-5962.545000	19931.355000	14224.770000	3942.180000	-15644.250000	-14014.890000	0.399786	-2.797573	-4.739248	-4.365874	-3.319661	-4.427778	3.617744	2.088154	-4.471180	1.434440	2.441600	-0.751829	-0.087707	0.638304	-1.000000	-1.000000	-1.000000	-1.000000	-1.000000	-1.000000	-1.000000	57.000000	0.000000	-1.000000	-1.000000	525033.000000	1775777774.298036
789.885000	-2612.385000	-5957.145000	19941.660000	14231.835000	3941.190000	-15644.745000	-14016.015000	-1.340025	-3.216033	-3.273796	-1.518794	2.590319	6.545120	4.460135	-0.071276	-4.471180	1.434440	2.441600	-0.751829	-0.087707	0.638304	-1.000000	-1.000000	-1.000000	-1.000000	-1.000000	-1.000000	-1.000000	57.000000	0.000000	-1.000000	-1.000000	525034.000000	1775777774.298054
784.845000	-2614.590000	-5957.370000	19943.685000	14234.850000	3955.005000	-15643.665000	-14020.740000	-2.479489	-1.996488	-0.043068	2.587455	7.077814	13.560403	3.408529	-2.256386	-4.471180	1.434440	2.441600	-0.751829	-0.087707	0.638304	-1.000000	-1.000000	-1.000000	-1.000000	-1.000000	-1.000000	-1.000000	57.000000	0.000000	-1.000000	-1.000000	525035.000000	1775777774.305173
780.435000	-2619.135000	-5960.610000	19939.680000	14230.845000	3961.035000	-15647.895000	-14025.510000	-2.580738	0.057685	3.048261	5.915217	8.104595	13.417699	1.092317	-3.447929	-4.471180	1.434440	2.441600	-0.751829	-0.087707	0.638304	-1.000000	-1.000000	-1.000000	-1.000000	-1.000000	-1.000000	-1.000000	57.000000	0.000000	-1.000000	-1.000000	525036.000000	1775777774.305198
788.445000	-2609.505000	-5951.835000	19945.485000	14230.530000	3950.955000	-15649.425000	-14019.480000	-1.772035	1.682779	4.235244	6.415173	5.316269	7.581251	-1.571895	-3.231096	-4.471180	1.434440	2.441600	-0.751829	-0.087707	0.638304	-1.000000	-1.000000	-1.000000	-1.000000	-1.000000	-1.000000	-1.000000	57.000000	0.000000	-1.000000	-1.000000	525037.000000	1775777774.307885
785.520000	-2609.955000	-5951.295000	19944.405000	14237.640000	3944.880000	-15651.630000	-14021.460000	-0.091665	2.569427	3.485912	3.947927	0.387318	-1.153027	-3.632167	-1.516391	-4.471180	1.434440	2.441600	-0.751829	-0.087707	0.638304	-1.000000	-1.000000	-1.000000	-1.000000	-1.000000	-1.000000	-1.000000	57.000000	0.000000	-1.000000	-1.000000	525038.000000	1775777774.307907
787.185000	-2610.945000	-5952.690000	19941.840000	14239.620000	3942.630000	-15646.680000	-14015.160000	1.954445	2.823039	1.761074	0.088461	-3.773340	-9.589466	-4.220419	1.145080	-4.471180	1.434440	2.441600	-0.751829	-0.087707	0.638304	-1.000000	-1.000000	-1.000000	-1.000000	-1.000000	-1.000000	-1.000000	57.000000	0.000000	-1.000000	-1.000000	525039.000000	1775777774.309888
790.605000	-2611.980000	-5954.490000	19943.325000	14238.450000	3944.385000	-15643.440000	-14008.590000	3.344978	2.145877	-0.332483	-3.426309	-5.332106	-14.228622	-2.891967	3.685811	-4.471180	1.434440	2.441600	-0.751829	-0.087707	0.638304	-1.000000	-1.000000	-1.000000	-1.000000	-1.000000	-1.000000	-1.000000	57.000000	0.000000	-1.000000	-1.000000	525040.000000	1775777774.309905
778.590000	-2624.940000	-5966.595000	19934.955000	14230.890000	3943.845000	-15653.790000	-14017.950000	3.302352	0.303385	-2.554916	-5.452045	-4.766825	-13.063838	-0.389065	4.953074	-4.471180	1.434440	2.441600	-0.751829	-0.087707	0.638304	-1.000000	-1.000000	-1.000000	-1.000000	-1.000000	-1.000000	-1.000000	57.000000	0.000000	-1.000000	-1.000000	525041.000000	1775777774.314680
775.755000	-2623.905000	-5965.155000	19925.820000	14211.270000	3939.795000	-15652.890000	-14021.775000	1.476183	-2.314047	-4.515900	-5.866500	-3.943986	-7.157602	1.474621	3.818772	-4.471180	1.434440	2.441600	-0.751829	-0.087707	0.638304	-1.000000	-1.000000	-1.000000	-1.000000	-1.000000	-1.000000	-1.000000	57.000000	0.000000	-1.000000	-1.000000	525042.000000	1775777774.314692
777.015000	-2617.290000	-5956.020000	19933.695000	14215.950000	3936.825000	-15653.295000	-14022.765000	-1.385271	-4.203069	-5.042868	-4.994746	-3.993795	0.118463	1.707933	0.365324	-5.234180	0.640920	3.601360	-0.753721	-0.088318	0.638060	-1.000000	-1.000000	-1.000000	-1.000000	-1.000000	-1.000000	-1.000000	57.000000	0.000000	-1.000000	-1.000000	525043.000000	1775777774.321608
774.135000	-2616.795000	-5952.015000	19942.425000	14238.720000	3952.755000	-15650.685000	-14025.105000	-3.398769	-3.603301	-2.852933	-2.451751	-3.335101	5.830236	1.055241	-3.432199	-5.234180	0.640920	3.601360	-0.753721	-0.088318	0.638060	-1.000000	-1.000000	-1.000000	-1.000000	-1.000000	-1.000000	-1.000000	57.000000	0.000000	-1.000000	-1.000000	525044.000000	1775777774.321631
773.640000	-2618.730000	-5957.325000	19934.910000	14234.175000	3958.245000	-15644.745000	-14022.720000	-3.342491	-0.690909	1.295440	1.678268	0.393879	9.221859	0.748040	-5.311738	-5.234180	0.640920	3.601360	-0.753721	-0.088318	0.638060	-1.000000	-1.000000	-1.000000	-1.000000	-1.000000	-1.000000	-1.000000	57.000000	0.000000	-1.000000	-1.000000	525045.000000	1775777774.332101
765.495000	-2624.535000	-5963.760000	19926.360000	14220.045000	3946.545000	-15652.215000	-14029.065000	-1.713101	2.289951	4.495297	5.155066	5.649211	10.092988	1.108535	-4.510602	-5.234180	0.640920	3.601360	-0.753721	-0.088318	0.638060	-1.000000	-1.000000	-1.000000	-1.000000	-1.000000	-1.000000	-1.000000	57.000000	0.000000	-1.000000	-1.000000	525046.000000	1775777774.332126
770.805000	-2616.345000	-5953.320000	19935.855000	14224.860000	3937.455000	-15650.730000	-14025.465000	0.200056	3.451513	4.732776	5.695106	8.016191	7.376254	1.297414	-1.964047	-5.234180	0.640920	3.601360	-0.753721	-0.088318	0.638060	-1.000000	-1.000000	-1.000000	-1.000000	-1.000000	-1.000000	-1.000000	57.000000	0.000000	-1.000000	-1.000000	525047.000000	1775777774.332152
762.930000	-2623.230000	-5959.170000	19931.805000	14229.765000	3932.145000	-15659.910000	-14036.265000	1.578559	2.813313	2.801809	3.765015	6.054770	1.219239	0.466055	0.699486	-5.234180	0.640920	3.601360	-0.753721	-0.088318	0.638060	-1.000000	-1.000000	-1.000000	-1.000000	-1.000000	-1.000000	-1.000000	57.000000	0.000000	-1.000000	-1.000000	525048.000000	1775777774.332163
758.790000	-2628.090000	-5962.770000	19931.535000	14241.195000	3948.255000	-15654.510000	-14038.695000	2.051407	1.183418	0.399295	1.256259	2.434883	-5.127268	-1.125800	2.114180	-5.234180	0.640920	3.601360	-0.753721	-0.088318	0.638060	-1.000000	-1.000000	-1.000000	-1.000000	-1.000000	-1.000000	-1.000000	57.000000	0.000000	-1.000000	-1.000000	525049.000000	1775777774.345870
763.515000	-2626.065000	-5962.455000	19931.940000	14236.245000	3957.120000	-15650.100000	-14033.835000	1.619509	-0.787735	-1.633248	-0.710000	-0.058435	-7.319220	-2.154874	2.077909	-5.234180	0.640920	3.601360	-0.753721	-0.088318	0.638060	-1.000000	-1.000000	-1.000000	-1.000000	-1.000000	-1.000000	-1.000000	57.000000	0.000000	-1.000000	-1.000000	525050.000000	1775777774.345895
765.630000	-2623.410000	-5957.415000	19938.555000	14235.795000	3953.790000	-15651.765000	-14033.880000	1.089437	-2.089548	-2.648573	-1.632862	-1.212680	-4.221904	-1.541455	1.707666	-5.234180	0.640920	3.601360	-0.753721	-0.088318	0.638060	-1.000000	-1.000000	-1.000000	-1.000000	-1.000000	-1.000000	-1.000000	57.000000	0.000000	-1.000000	-1.000000	525051.000000	1775777774.345923
764.235000	-2624.175000	-5956.020000	19938.780000	14239.710000	3957.435000	-15650.730000	-14035.995000	1.156431	-1.869108	-2.069395	-1.322821	-2.106013	0.868038	0.188118	1.811436	-5.234180	0.640920	3.601360	-0.753721	-0.088318	0.638060	-1.000000	-1.000000	-1.000000	-1.000000	-1.000000	-1.000000	-1.000000	57.000000	0.000000	-1.000000	-1.000000	525052.000000	1775777774.345934
768.870000	-2623.410000	-5958.945000	19929.960000	14228.910000	3955.905000	-15638.670000	-14029.155000	1.495935	-0.478505	-0.357631	-0.499818	-3.126797	3.920919	1.810688	2.084072	-3.174080	-0.228900	2.197440	-0.754698	-0.092468	0.639342	-1.000000	-1.000000	-1.000000	-1.000000	-1.000000	-1.000000	-1.000000	57.000000	0.000000	-1.000000	-1.000000	525053.000000	1775777774.345948
776.205000	-2617.335000	-5954.220000	19931.085000	14219.010000	3934.845000	-15648.840000	-14024.160000	1.620351	1.063914	1.185341	-0.425200	-4.271468	3.125126	2.646630	2.183575	-3.174080	-0.228900	2.197440	-0.754698	-0.092468	0.639342	-1.000000	-1.000000	-1.000000	-1.000000	-1.000000	-1.000000	-1.000000	57.000000	0.000000	-1.000000	-1.000000	525054.000000	1775777774.345959
786.960000	-2603.295000	-5938.245000	19948.545000	14230.395000	3930.345000	-15658.965000	-14018.400000	1.639868	2.327672	2.042517	-0.954947	-5.066710	-1.079335	1.898461	2.119392	-3.174080	-0.228900	2.197440	-0.754698	-0.092468	0.639342	-1.000000	-1.000000	-1.000000	-1.000000	-1.000000	-1.000000	-1.000000	57.000000	0.000000	-1.000000	-1.000000	525055.000000	1775777774.345972
778.590000	-2606.805000	-5939.325000	19949.310000	14231.115000	3936.780000	-15648.390000	-14025.150000	1.476477	3.261246	2.682805	-0.491638	-4.015602	-5.797428	-0.638805	1.555902	-3.174080	-0.228900	2.197440	-0.754698	-0.092468	0.639342	-1.000000	-1.000000	-1.000000	-1.000000	-1.000000	-1.000000	-1.000000	57.000000	0.000000	-1.000000	-1.000000	525056.000000	1775777774.345983
773.865000	-2609.325000	-5940.495000	19948.905000	14243.220000	3954.555000	-15643.845000	-14028.480000	0.161932	3.029531	2.793854	1.168259	-0.352129	-6.746864	-2.967668	-0.202834	-3.174080	-0.228900	2.197440	-0.754698	-0.092468	0.639342	-1.000000	-1.000000	-1.000000	-1.000000	-1.000000	-1.000000	-1.000000	57.000000	0.000000	-1.000000	-1.000000	525057.000000	1775777774.347986
772.065000	-2613.195000	-5948.640000	19935.315000	14243.400000	3963.735000	-15643.935000	-14028.030000	-2.755549	0.706350	1.198185	1.968454	4.450339	-2.004422	-2.919890	-3.005055	-3.174080	-0.228900	2.197440	-0.754698	-0.092468	0.639342	-1.000000	-1.000000	-1.000000	-1.000000	-1.000000	-1.000000	-1.000000	57.000000	0.000000	-1.000000	-1.000000	525058.000000	1775777774.348014
765.765000	-2616.930000	-5950.350000	19932.570000	14237.820000	3959.280000	-15650.415000	-14033.700000	-5.899276	-3.047704	-2.202804	0.203082	7.520558	5.480972	-1.008125	-5.401055	-3.174080	-0.228900	2.197440	-0.754698	-0.092468	0.639342	-1.000000	-1.000000	-1.000000	-1.000000	-1.000000	-1.000000	-1.000000	57.000000	0.000000	-1.000000	-1.000000	525059.000000	1775777774.360922
759.555000	-2622.285000	-5952.690000	19932.660000	14234.085000	3956.220000	-15653.070000	-14039.370000	-7.377080	-6.281485	-5.670066	-3.147365	6.615727	10.043788	0.551258	-6.091223	-3.174080	-0.228900	2.197440	-0.754698	-0.092468	0.639342	-1.000000	-1.000000	-1.000000	-1.000000	-1.000000	-1.000000	-1.000000	57.000000	0.000000	-1.000000	-1.000000	525060.000000	1775777774.360946
757.305000	-2624.760000	-5954.535000	19932.795000	14229.495000	3952.800000	-15651.360000	-14040.315000	-6.365597	-7.303467	-7.006553	-5.242832	2.062494	8.337915	0.617689	-4.891766	-3.174080	-0.228900	2.197440	-0.754698	-0.092468	0.639342	-1.000000	-1.000000	-1.000000	-1.000000	-1.000000	-1.000000	-1.000000	57.000000	0.000000	-1.000000	-1.000000	525061.000000	1775777774.365539
757.305000	-2623.545000	-5953.140000	19931.940000	14227.470000	3944.385000	-15655.590000	-14041.440000	-3.132112	-5.529103	-5.314324	-4.294225	-3.408227	1.720529	-0.136249	-2.242500	-3.174080	-0.228900	2.197440	-0.754698	-0.092468	0.639342	-1.000000	-1.000000	-1.000000	-1.000000	-1.000000	-1.000000	-1.000000	57.000000	0.000000	-1.000000	-1.000000	525062.000000	1775777774.365564
755.145000	-2624.130000	-5955.615000	19927.980000	14225.445000	3933.765000	-15660.495000	-14045.670000	1.264114	-1.577052	-1.445172	-1.026439	-6.792259	-5.852992	-0.747246	1.030473	0.534100	-0.488320	0.000000	-0.753904	-0.095154	0.640745	-1.000000	-1.000000	-1.000000	-1.000000	-1.000000	-1.000000	-1.000000	57.000000	0.000000	-1.000000	-1.000000	525063.000000	1775777774.365592
767.700000	-2612.880000	-5945.850000	19935.450000	14233.905000	3939.795000	-15652.710000	-14035.815000	5.433805	3.133129	2.871395	2.554243	-6.499200	-10.552057	-0.763034	3.927612	0.534100	-0.488320	0.000000	-0.753904	-0.095154	0.640745	-1.000000	-1.000000	-1.000000	-1.000000	-1.000000	-1.000000	-1.000000	57.000000	0.000000	-1.000000	-1.000000	525064.000000	1775777774.365605
769.185000	-2610.585000	-5944.725000	19932.660000	14224.455000	3936.105000	-15654.420000	-14036.670000	8.343673	7.089648	6.176003	4.966087	-3.020879	-10.089369	0.124022	5.875561	0.534100	-0.488320	0.000000	-0.753904	-0.095154	0.640745	-1.000000	-1.000000	-1.000000	-1.000000	-1.000000	-1.000000	-1.000000	57.000000	0.000000	-1.000000	-1.000000	525065.000000	1775777774.365620
764.190000	-2613.195000	-5946.165000	19930.275000	14215.230000	3922.515000	-15663.015000	-14042.655000	9.010065	8.812565	7.434356	5.484854	1.071175	-5.204679	1.459227	6.324242	0.534100	-0.488320	0.000000	-0.753904	-0.095154	0.640745	-1.000000	-1.000000	-1.000000	-1.000000	-1.000000	-1.000000	-1.000000	57.000000	0.000000	-1.000000	-1.000000	525066.000000	1775777774.365631
767.835000	-2607.075000	-5936.805000	19944.360000	14232.105000	3936.780000	-15662.295000	-14039.955000	6.603567	7.311944	6.175766	4.195907	3.397617	0.951010	1.954083	4.649382	0.534100	-0.488320	0.000000	-0.753904	-0.095154	0.640745	-1.000000	-1.000000	-1.000000	-1.000000	-1.000000	-1.000000	-1.000000	57.000000	0.000000	-1.000000	-1.000000	525067.000000	1775777774.367478
758.745000	-2615.085000	-5941.935000	19942.020000	14243.895000	3965.130000	-15663.555000	-14047.830000	1.727736	3.135154	3.099154	2.271745	4.397645	6.513230	1.194497	1.275026	0.534100	-0.488320	0.000000	-0.753904	-0.095154	0.640745	-1.000000	-1.000000	-1.000000	-1.000000	-1.000000	-1.000000	-1.000000	57.000000	0.000000	-1.000000	-1.000000	525068.000000	1775777774.367495
755.550000	-2622.150000	-5949.945000	19930.005000	14232.060000	3958.965000	-15662.925000	-14046.255000	-3.721891	-2.117481	-0.726861	0.353786	5.215418	11.163514	0.091559	-2.337406	0.534100	-0.488320	0.000000	-0.753904	-0.095154	0.640745	-1.000000	-1.000000	-1.000000	-1.000000	-1.000000	-1.000000	-1.000000	57.000000	0.000000	-1.000000	-1.000000	525069.000000	1775777774.369984
761.535000	-2616.615000	-5942.520000	19937.385000	14237.055000	3957.120000	-15657.120000	-14042.070000	-7.525298	-6.564802	-4.359121	-1.969041	4.835359	12.813377	-0.325211	-4.539543	0.534100	-0.488320	0.000000	-0.753904	-0.095154	0.640745	-1.000000	-1.000000	-1.000000	-1.000000	-1.000000	-1.000000	-1.000000	57.000000	0.000000	-1.000000	-1.000000	525070.000000	1775777774.370003
764.820000	-2614.005000	-5941.665000	19936.395000	14233.005000	3950.865000	-15659.685000	-14043.240000	-7.832872	-8.132892	-6.273080	-4.106807	2.168234	8.868529	0.221986	-4.315969	0.534100	-0.488320	0.000000	-0.753904	-0.095154	0.640745	-1.000000	-1.000000	-1.000000	-1.000000	-1.000000	-1.000000	-1.000000	57.000000	0.000000	-1.000000	-1.000000	525071.000000	1775777774.377129
768.870000	-2611.215000	-5941.845000	19933.155000	14224.590000	3951.855000	-15652.530000	-14038.920000	-4.523897	-5.918107	-5.413489	-4.723360	-1.923977	0.332353	1.144510	-2.123634	0.534100	-0.488320	0.000000	-0.753904	-0.095154	0.640745	-1.000000	-1.000000	-1.000000	-1.000000	-1.000000	-1.000000	-1.000000	57.000000	0.000000	-1.000000	-1.000000	525072.000000	1775777774.377154
764.460000	-2616.030000	-5946.795000	19926.405000	14231.250000	3962.025000	-15648.795000	-14040.045000	0.251462	-1.449110	-2.681646	-3.779607	-5.559806	-8.143071	1.744635	0.524112	4.120200	1.648080	0.061040	-0.751158	-0.093750	0.641905	-1.000000	-1.000000	-1.000000	-1.000000	-1.000000	-1.000000	-1.000000	57.000000	0.000000	-1.000000	-1.000000	525073.000000	1775777774.378444
763.695000	-2613.645000	-5940.900000	19935.495000	14240.295000	3958.605000	-15650.685000	-14039.325000	3.588347	2.499458	0.101742	-2.089717	-6.626300	-11.992286	1.665817	2.201985	4.120200	1.648080	0.061040	-0.751158	-0.093750	0.641905	-1.000000	-1.000000	-1.000000	-1.000000	-1.000000	-1.000000	-1.000000	57.000000	0.000000	-1.000000	-1.000000	525074.000000	1775777774.378463
763.695000	-2611.980000	-5937.300000	19939.905000	14232.105000	3934.305000	-15657.345000	-14039.505000	4.018490	4.235994	2.057364	0.149256	-4.285772	-10.714190	0.510117	2.278589	4.120200	1.648080	0.061040	-0.751158	-0.093750	0.641905	-1.000000	-1.000000	-1.000000	-1.000000	-1.000000	-1.000000	-1.000000	57.000000	0.000000	-1.000000	-1.000000	525075.000000	1775777774.382571
759.780000	-2612.970000	-5936.265000	19939.905000	14230.665000	3927.195000	-15666.345000	-14044.815000	2.193821	3.877931	3.218958	2.758141	-0.457644	-7.564384	-1.907679	1.006979	4.120200	1.648080	0.061040	-0.751158	-0.093750	0.641905	-1.000000	-1.000000	-1.000000	-1.000000	-1.000000	-1.000000	-1.000000	57.000000	0.000000	-1.000000	-1.000000	525076.000000	1775777774.382589
760.185000	-2611.080000	-5931.495000	19944.810000	14247.720000	3957.480000	-15665.625000	-14046.615000	-0.269997	2.349675	3.552978	4.647152	2.448519	-4.264874	-4.706171	-0.902052	4.120200	1.648080	0.061040	-0.751158	-0.093750	0.641905	-1.000000	-1.000000	-1.000000	-1.000000	-1.000000	-1.000000	-1.000000	57.000000	0.000000	-1.000000	-1.000000	525077.000000	1775777774.385997
761.130000	-2613.870000	-5934.105000	19943.010000	14254.155000	3980.160000	-15661.485000	-14046.255000	-1.918971	0.541108	2.900717	4.727392	4.190670	1.189000	-5.920191	-2.488256	4.120200	1.648080	0.061040	-0.751158	-0.093750	0.641905	-1.000000	-1.000000	-1.000000	-1.000000	-1.000000	-1.000000	-1.000000	57.000000	0.000000	-1.000000	-1.000000	525078.000000	1775777774.386013
760.050000	-2622.150000	-5944.995000	19933.920000	14242.050000	3975.255000	-15654.690000	-14043.105000	-2.036984	-1.114408	1.086625	2.701611	4.924315	9.154936	-3.995766	-2.751421	4.120200	1.648080	0.061040	-0.751158	-0.093750	0.641905	-1.000000	-1.000000	-1.000000	-1.000000	-1.000000	-1.000000	-1.000000	57.000000	0.000000	-1.000000	-1.000000	525079.000000	1775777774.390133
764.190000	-2622.015000	-5947.830000	19928.610000	14217.885000	3937.185000	-15662.925000	-14037.345000	-0.876115	-2.526789	-1.807938	-0.960154	3.086840	14.146221	0.339235	-1.283896	4.120200	1.648080	0.061040	-0.751158	-0.093750	0.641905	-1.000000	-1.000000	-1.000000	-1.000000	-1.000000	-1.000000	-1.000000	57.000000	0.000000	-1.000000	-1.000000	525080.000000	1775777774.390156
763.290000	-2618.505000	-5944.320000	19927.710000	14218.380000	3929.040000	-15661.800000	-14039.640000	0.750474	-3.143417	-4.506937	-4.713668	-2.106870	10.081260	4.257668	1.206519	4.120200	1.648080	0.061040	-0.751158	-0.093750	0.641905	-1.000000	-1.000000	-1.000000	-1.000000	-1.000000	-1.000000	-1.000000	57.000000	0.000000	-1.000000	-1.000000	525081.000000	1775777774.396340
750.420000	-2626.245000	-5948.685000	19925.820000	14224.050000	3945.870000	-15652.440000	-14051.295000	1.699431	-2.323710	-5.102862	-6.438847	-7.509561	-1.042902	5.669287	2.906892	4.120200	1.648080	0.061040	-0.751158	-0.093750	0.641905	-1.000000	-1.000000	-1.000000	-1.000000	-1.000000	-1.000000	-1.000000	57.000000	0.000000	-1.000000	-1.000000	525082.000000	1775777774.396366
748.125000	-2628.585000	-5949.405000	19926.405000	14239.800000	3969.720000	-15650.955000	-14052.240000	0.946806	-0.598880	-3.140514	-5.076083	-8.211974	-9.682660	4.940661	2.232434	3.082520	1.815940	-0.274680	-0.750242	-0.089782	0.641905	-1.000000	-1.000000	-1.000000	-1.000000	-1.000000	-1.000000	-1.000000	57.000000	0.000000	-1.000000	-1.000000	525083.000000	1775777774.414020
745.830000	-2623.545000	-5940.585000	19937.160000	14244.705000	3979.755000	-15652.260000	-14057.010000	-1.071175	0.991685	0.227462	-1.215202	-2.680860	-8.774576	3.202587	-0.343875	3.082520	1.815940	-0.274680	-0.750242	-0.089782	0.641905	-1.000000	-1.000000	-1.000000	-1.000000	-1.000000	-1.000000	-1.000000	57.000000	0.000000	-1.000000	-1.000000	525084.000000	1775777774.414046
752.760000	-2615.670000	-5933.520000	19943.370000	14248.845000	3978.810000	-15653.520000	-14052.645000	-2.401061	2.341640	3.765355	3.647964	5.521388	-0.515058	0.857952	-2.624065	3.082520	1.815940	-0.274680	-0.750242	-0.089782	0.641905	-1.000000	-1.000000	-1.000000	-1.000000	-1.000000	-1.000000	-1.000000	57.000000	0.000000	-1.000000	-1.000000	525085.000000	1775777774.414076
755.415000	-2612.745000	-5930.820000	19943.595000	14250.960000	3975.840000	-15660.360000	-14052.420000	-1.472284	3.717978	6.395017	7.468943	10.916687	7.071230	-1.878885	-2.762695	3.082520	1.815940	-0.274680	-0.750242	-0.089782	0.641905	-1.000000	-1.000000	-1.000000	-1.000000	-1.000000	-1.000000	-1.000000	57.000000	0.000000	-1.000000	-1.000000	525086.000000	1775777774.414088
757.305000	-2611.845000	-5929.380000	19941.705000	14245.605000	3965.490000	-15663.105000	-14050.125000	1.319077	4.536676	6.878715	8.139752	10.329287	7.928207	-4.409623	-0.683723	3.082520	1.815940	-0.274680	-0.750242	-0.089782	0.641905	-1.000000	-1.000000	-1.000000	-1.000000	-1.000000	-1.000000	-1.000000	57.000000	0.000000	-1.000000	-1.000000	525087.000000	1775777774.414102
762.795000	-2606.625000	-5925.465000	19941.075000	14228.145000	3940.560000	-15659.730000	-14042.745000	4.047485	3.852446	4.679852	4.998426	4.118825	1.631604	-5.683438	2.231704	3.082520	1.815940	-0.274680	-0.750242	-0.089782	0.641905	-1.000000	-1.000000	-1.000000	-1.000000	-1.000000	-1.000000	-1.000000	57.000000	0.000000	-1.000000	-1.000000	525088.000000	1775777774.414113
760.005000	-2609.640000	-5930.415000	19936.035000	14220.090000	3920.445000	-15660.360000	-14044.680000	4.959502	1.567289	0.629702	-0.431263	-4.814034	-8.059822	-4.726106	4.371985	3.082520	1.815940	-0.274680	-0.750242	-0.089782	0.641905	-1.000000	-1.000000	-1.000000	-1.000000	-1.000000	-1.000000	-1.000000	57.000000	0.000000	-1.000000	-1.000000	525089.000000	1775777774.414126
757.080000	-2609.415000	-5928.930000	19940.490000	14244.435000	3944.295000	-15659.820000	-14048.415000	3.389966	-1.546033	-3.684713	-5.439477	-11.594532	-15.061587	-1.763151	4.479719	3.082520	1.815940	-0.274680	-0.750242	-0.089782	0.641905	-1.000000	-1.000000	-1.000000	-1.000000	-1.000000	-1.000000	-1.000000	57.000000	0.000000	-1.000000	-1.000000	525090.000000	1775777774.414138
755.730000	-2608.875000	-5925.330000	19947.645000	14269.230000	3987.810000	-15653.475000	-14050.170000	-0.064679	-4.332153	-6.557825	-7.526120	-11.080951	-12.813141	1.799944	2.166870	3.082520	1.815940	-0.274680	-0.750242	-0.089782	0.641905	-1.000000	-1.000000	-1.000000	-1.000000	-1.000000	-1.000000	-1.000000	57.000000	0.000000	-1.000000	-1.000000	525091.000000	1775777774.419796
749.610000	-2614.140000	-5928.255000	19942.875000	14255.595000	3989.835000	-15654.105000	-14055.345000	-3.773665	-5.739081	-6.833260	-5.885818	-2.925063	0.101540	4.513407	-1.508730	3.082520	1.815940	-0.274680	-0.750242	-0.089782	0.641905	-1.000000	-1.000000	-1.000000	-1.000000	-1.000000	-1.000000	-1.000000	57.000000	0.000000	-1.000000	-1.000000	525092.000000	1775777774.419822
753.390000	-2609.145000	-5921.460000	19947.735000	14255.055000	3980.160000	-15657.075000	-14051.430000	-5.980766	-5.355248	-4.684536	-2.116575	6.313990	15.482207	5.320814	-4.578950	-1.022420	2.197440	0.930860	-0.749327	-0.085266	0.642576	-1.000000	-1.000000	-1.000000	-1.000000	-1.000000	-1.000000	-1.000000	57.000000	0.000000	-1.000000	-1.000000	525093.000000	1775777774.419936
763.335000	-2603.205000	-5919.255000	19947.960000	14255.370000	3969.135000	-15653.295000	-14036.490000	-5.435129	-3.222486	-1.237626	1.394983	9.669937	21.628109	3.887608	-5.094353	-1.022420	2.197440	0.930860	-0.749327	-0.085266	0.642576	-1.000000	-1.000000	-1.000000	-1.000000	-1.000000	-1.000000	-1.000000	57.000000	0.000000	-1.000000	-1.000000	525094.000000	1775777774.419954
772.830000	-2596.770000	-5914.080000	19952.190000	14267.790000	3976.920000	-15639.030000	-14021.415000	-1.900980	0.248508	2.188696	3.330410	6.460557	14.510409	1.403068	-2.084209	-1.022420	2.197440	0.930860	-0.749327	-0.085266	0.642576	-1.000000	-1.000000	-1.000000	-1.000000	-1.000000	-1.000000	-1.000000	57.000000	0.000000	-1.000000	-1.000000	525095.000000	1775777774.422907
746.775000	-2619.990000	-5936.985000	19930.455000	14242.320000	3963.015000	-15661.170000	-14046.795000	2.537479	3.363001	3.962335	3.166871	0.439111	0.134362	-0.622402	2.583537	-1.022420	2.197440	0.930860	-0.749327	-0.085266	0.642576	-1.000000	-1.000000	-1.000000	-1.000000	-1.000000	-1.000000	-1.000000	57.000000	0.000000	-1.000000	-1.000000	525096.000000	1775777774.422926
746.235000	-2619.945000	-5937.840000	19929.420000	14231.070000	3962.880000	-15670.620000	-14048.370000	4.133145	3.654236	2.652061	0.703474	-5.514231	-12.559559	-2.596223	4.513656	-1.022420	2.197440	0.930860	-0.749327	-0.085266	0.642576	-1.000000	-1.000000	-1.000000	-1.000000	-1.000000	-1.000000	-1.000000	57.000000	0.000000	-1.000000	-1.000000	525097.000000	1775777774.440055
747.405000	-2617.920000	-5936.445000	19929.150000	14223.870000	3955.320000	-15665.670000	-14044.050000	1.764562	1.024127	-0.819630	-2.701409	-9.909875	-18.028119	-5.084425	1.802460	-1.022420	2.197440	0.930860	-0.749327	-0.085266	0.642576	-1.000000	-1.000000	-1.000000	-1.000000	-1.000000	-1.000000	-1.000000	57.000000	0.000000	-1.000000	-1.000000	525098.000000	1775777774.440082
749.475000	-2615.040000	-5933.745000	19932.255000	14232.060000	3956.760000	-15660.495000	-14037.570000	-1.542649	-1.568883	-3.203689	-4.244823	-10.623469	-15.426099	-6.192306	-2.385119	-1.022420	2.197440	0.930860	-0.749327	-0.085266	0.642576	-1.000000	-1.000000	-1.000000	-1.000000	-1.000000	-1.000000	-1.000000	57.000000	0.000000	-1.000000	-1.000000	525099.000000	1775777774.440137
746.595000	-2617.290000	-5933.880000	19933.470000	14247.540000	3971.385000	-15663.645000	-14040.945000	-2.634862	-1.720444	-2.377430	-2.430983	-5.858629	-7.091043	-3.978782	-4.127394	-1.022420	2.197440	0.930860	-0.749327	-0.085266	0.642576	-1.000000	-1.000000	-1.000000	-1.000000	-1.000000	-1.000000	-1.000000	57.000000	0.000000	-1.000000	-1.000000	525100.000000	1775777774.440151
743.085000	-2618.865000	-5932.620000	19933.245000	14242.725000	3974.445000	-15669.765000	-14045.670000	-1.275634	0.148484	0.798874	1.508429	3.088729	3.363312	0.392084	-2.900796	-1.022420	2.197440	0.930860	-0.749327	-0.085266	0.642576	-1.000000	-1.000000	-1.000000	-1.000000	-1.000000	-1.000000	-1.000000	57.000000	0.000000	-1.000000	-1.000000	525101.000000	1775777774.440169
742.905000	-2617.470000	-5929.065000	19935.990000	14232.105000	3961.080000	-15676.920000	-14047.110000	0.835234	2.154695	3.994738	4.998346	11.116898	11.492714	3.822372	-0.721468	-1.022420	2.197440	0.930860	-0.749327	-0.085266	0.642576	-1.000000	-1.000000	-1.000000	-1.000000	-1.000000	-1.000000	-1.000000	57.000000	0.000000	-1.000000	-1.000000	525102.000000	1775777774.440180
748.395000	-2613.645000	-5925.285000	19938.960000	14236.965000	3957.255000	-15677.640000	-14042.385000	2.349316	3.085001	5.504230	6.241422	13.179771	13.299146	4.449841	0.851528	-4.623780	1.464960	-1.403920	-0.751890	-0.084167	0.641844	-1.000000	-1.000000	-1.000000	-1.000000	-1.000000	-1.000000	-1.000000	57.000000	0.000000	-1.000000	-1.000000	525103.000000	1775777774.440195
754.335000	-2609.370000	-5922.720000	19939.320000	14244.525000	3960.630000	-15673.140000	-14037.570000	3.158292	2.965095	4.940192	5.045533	9.118481	8.588297	3.038791	1.856376	-4.623780	1.464960	-1.403920	-0.751890	-0.084167	0.641844	-1.000000	-1.000000	-1.000000	-1.000000	-1.000000	-1.000000	-1.000000	57.000000	0.000000	-1.000000	-1.000000	525104.000000	1775777774.440205
754.830000	-2611.620000	-5927.040000	19934.550000	14242.185000	3964.500000	-15670.125000	-14034.690000	3.482887	2.188899	2.692563	2.145969	2.797717	1.476123	1.662120	2.763523	-4.623780	1.464960	-1.403920	-0.751890	-0.084167	0.641844	-1.000000	-1.000000	-1.000000	-1.000000	-1.000000	-1.000000	-1.000000	57.000000	0.000000	-1.000000	-1.000000	525105.000000	1775777774.448220
752.670000	-2614.140000	-5931.765000	19926.180000	14233.680000	3962.790000	-15672.735000	-14034.240000	2.947498	0.776662	-0.640117	-1.579401	-2.570122	-3.557205	1.370582	3.321168	-4.623780	1.464960	-1.403920	-0.751890	-0.084167	0.641844	-1.000000	-1.000000	-1.000000	-1.000000	-1.000000	-1.000000	-1.000000	57.000000	0.000000	-1.000000	-1.000000	525106.000000	1775777774.448247
751.995000	-2611.845000	-5926.995000	19930.680000	14236.020000	3957.255000	-15678.540000	-14035.950000	1.085438	-1.174505	-3.993389	-4.968257	-6.046211	-5.095343	1.381531	2.797173	-4.623780	1.464960	-1.403920	-0.751890	-0.084167	0.641844	-1.000000	-1.000000	-1.000000	-1.000000	-1.000000	-1.000000	-1.000000	57.000000	0.000000	-1.000000	-1.000000	525107.000000	1775777774.448277
746.010000	-2616.255000	-5925.465000	19938.060000	14245.830000	3953.880000	-15682.005000	-14042.565000	-1.736029	-2.951294	-5.719647	-6.253457	-7.137919	-4.423035	0.461591	0.832605	-4.623780	1.464960	-1.403920	-0.751890	-0.084167	0.641844	-1.000000	-1.000000	-1.000000	-1.000000	-1.000000	-1.000000	-1.000000	57.000000	0.000000	-1.000000	-1.000000	525108.000000	1775777774.448290
746.415000	-2618.235000	-5927.400000	19936.710000	14242.365000	3958.830000	-15682.680000	-14039.685000	-4.370391	-3.836892	-4.912112	-4.370463	-5.408743	-3.020757	-1.389104	-1.968142	-4.623780	1.464960	-1.403920	-0.751890	-0.084167	0.641844	-1.000000	-1.000000	-1.000000	-1.000000	-1.000000	-1.000000	-1.000000	57.000000	0.000000	-1.000000	-1.000000	525109.000000	1775777774.456230
744.120000	-2618.820000	-5930.190000	19930.995000	14227.155000	3958.560000	-15688.755000	-14042.115000	-5.543127	-3.616458	-2.456296	-0.671875	-2.247379	-1.267731	-3.027595	-4.110910	-4.623780	1.464960	-1.403920	-0.751890	-0.084167	0.641844	-1.000000	-1.000000	-1.000000	-1.000000	-1.000000	-1.000000	-1.000000	57.000000	0.000000	-1.000000	-1.000000	525110.000000	1775777774.456256
740.520000	-2619.675000	-5929.155000	19933.380000	14225.760000	3958.740000	-15691.365000	-14043.645000	-4.683677	-2.371974	0.001208	2.191394	-0.280434	0.685300	-3.531956	-4.396532	-4.623780	1.464960	-1.403920	-0.751890	-0.084167	0.641844	-1.000000	-1.000000	-1.000000	-1.000000	-1.000000	-1.000000	-1.000000	57.000000	0.000000	-1.000000	-1.000000	525111.000000	1775777774.461778
743.715000	-2616.840000	-5925.420000	19936.980000	14229.000000	3949.380000	-15693.210000	-14039.910000	-2.277162	-0.414596	1.627342	3.023544	-0.171458	2.016654	-2.764185	-2.830529	-4.623780	1.464960	-1.403920	-0.751890	-0.084167	0.641844	-1.000000	-1.000000	-1.000000	-1.000000	-1.000000	-1.000000	-1.000000	57.000000	0.000000	-1.000000	-1.000000	525112.000000	1775777774.461803
743.805000	-2617.605000	-5928.210000	19930.005000	14238.900000	3956.580000	-15692.490000	-14039.910000	0.733105	1.682123	2.464299	2.388799	-0.022541	1.987785	-1.018691	-0.216678	-3.799740	1.663340	-1.419180	-0.751524	-0.086914	0.640013	-1.000000	-1.000000	-1.000000	-1.000000	-1.000000	-1.000000	-1.000000	57.000000	0.000000	-1.000000	-1.000000	525113.000000	1775777774.461847
748.485000	-2612.700000	-5922.090000	19939.410000	14256.810000	3972.060000	-15686.640000	-14037.255000	3.428110	3.244703	2.655694	1.170158	2.040669	1.394223	1.260892	2.346235	-3.799740	1.663340	-1.419180	-0.751524	-0.086914	0.640013	-1.000000	-1.000000	-1.000000	-1.000000	-1.000000	-1.000000	-1.000000	57.000000	0.000000	-1.000000	-1.000000	525114.000000	1775777774.461860
749.790000	-2612.475000	-5920.380000	19939.770000	14234.490000	3950.235000	-15691.275000	-14037.210000	5.029218	3.816046	2.378467	0.227979	5.239076	1.361595	3.385062	3.828073	-3.799740	1.663340	-1.419180	-0.751524	-0.086914	0.640013	-1.000000	-1.000000	-1.000000	-1.000000	-1.000000	-1.000000	-1.000000	57.000000	0.000000	-1.000000	-1.000000	525115.000000	1775777774.464483
742.230000	-2617.020000	-5920.335000	19943.145000	14221.170000	3937.005000	-15699.555000	-14045.040000	4.896919	3.159554	1.810247	0.078139	5.904585	0.719158	4.148632	3.587342	-3.799740	1.663340	-1.419180	-0.751524	-0.086914	0.640013	-1.000000	-1.000000	-1.000000	-1.000000	-1.000000	-1.000000	-1.000000	57.000000	0.000000	-1.000000	-1.000000	525116.000000	1775777774.464504
745.560000	-2614.050000	-5917.545000	19946.385000	14233.230000	3958.515000	-15690.645000	-14038.515000	2.812734	1.314249	0.910070	0.402614	2.014185	-1.565624	2.846185	1.719340	-3.799740	1.663340	-1.419180	-0.751524	-0.086914	0.640013	-1.000000	-1.000000	-1.000000	-1.000000	-1.000000	-1.000000	-1.000000	57.000000	0.000000	-1.000000	-1.000000	525117.000000	1775777774.468341
744.525000	-2619.540000	-5924.745000	19934.280000	14244.210000	3980.565000	-15685.065000	-14033.790000	-0.271506	-1.026935	-0.376046	0.350094	-3.062971	-2.729242	0.709146	-0.456349	-3.799740	1.663340	-1.419180	-0.751524	-0.086914	0.640013	-1.000000	-1.000000	-1.000000	-1.000000	-1.000000	-1.000000	-1.000000	57.000000	0.000000	-1.000000	-1.000000	525118.000000	1775777774.468367
737.820000	-2624.625000	-5928.840000	19928.925000	14239.035000	3977.370000	-15686.505000	-14041.080000	-2.816792	-2.971747	-2.012619	-0.937898	-4.770191	-0.021445	-0.474427	-1.522052	-3.799740	1.663340	-1.419180	-0.751524	-0.086914	0.640013	-1.000000	-1.000000	-1.000000	-1.000000	-1.000000	-1.000000	-1.000000	57.000000	0.000000	-1.000000	-1.000000	525119.000000	1775777774.474388
737.370000	-2621.430000	-5925.780000	19932.570000	14234.760000	3974.220000	-15680.340000	-14041.395000	-4.062524	-3.918047	-3.511130	-3.098212	-2.931621	4.211371	-0.507842	-1.616043	-3.799740	1.663340	-1.419180	-0.751524	-0.086914	0.640013	-1.000000	-1.000000	-1.000000	-1.000000	-1.000000	-1.000000	-1.000000	57.000000	0.000000	-1.000000	-1.000000	525120.000000	1775777774.474415
739.710000	-2619.990000	-5927.265000	19929.465000	14227.830000	3961.575000	-15682.725000	-14037.705000	-3.843508	-3.318195	-3.796178	-4.263676	-0.619532	5.136338	-0.285766	-1.482296	-3.799740	1.663340	-1.419180	-0.751524	-0.086914	0.640013	-1.000000	-1.000000	-1.000000	-1.000000	-1.000000	-1.000000	-1.000000	57.000000	0.000000	-1.000000	-1.000000	525121.000000	1775777774.478184
740.025000	-2616.975000	-5923.890000	19931.175000	14226.435000	3945.105000	-15699.105000	-14039.325000	-2.159013	-1.111226	-2.298767	-3.143266	0.029064	0.810802	-0.856920	-1.118855	-3.799740	1.663340	-1.419180	-0.751524	-0.086914	0.640013	-1.000000	-1.000000	-1.000000	-1.000000	-1.000000	-1.000000	-1.000000	57.000000	0.000000	-1.000000	-1.000000	525122.000000	1775777774.478209
741.330000	-2613.105000	-5917.770000	19936.080000	14221.845000	3932.685000	-15701.265000	-14039.955000	0.373700	1.781955	0.444793	-0.199971	-0.700209	-6.460240	-2.861663	-0.438892	-2.121140	0.991900	-1.190280	-0.753355	-0.090515	0.638670	-1.000000	-1.000000	-1.000000	-1.000000	-1.000000	-1.000000	-1.000000	57.000000	0.000000	-1.000000	-1.000000	525123.000000	1775777774.478785
744.165000	-2608.515000	-5910.840000	19942.155000	14227.335000	3931.830000	-15700.455000	-14037.930000	2.631490	4.051507	3.382909	3.240858	-1.274514	-11.969957	-5.176140	0.251866	-2.121140	0.991900	-1.190280	-0.753355	-0.090515	0.638670	-1.000000	-1.000000	-1.000000	-1.000000	-1.000000	-1.000000	-1.000000	57.000000	0.000000	-1.000000	-1.000000	525124.000000	1775777774.478798
745.020000	-2609.010000	-5910.210000	19948.410000	14253.435000	3967.515000	-15693.795000	-14036.670000	3.738946	4.724691	5.325562	5.833653	-0.034761	-11.041186	-5.322291	0.760086	-2.121140	0.991900	-1.190280	-0.753355	-0.090515	0.638670	-1.000000	-1.000000	-1.000000	-1.000000	-1.000000	-1.000000	-1.000000	57.000000	0.000000	-1.000000	-1.000000	525125.000000	1775777774.486675
739.170000	-2617.290000	-5921.820000	19934.955000	14262.345000	4005.720000	-15687.630000	-14041.665000	3.283929	3.291422	4.966760	6.250884	3.732906	-1.525504	-2.072803	0.972704	-2.121140	0.991900	-1.190280	-0.753355	-0.090515	0.638670	-1.000000	-1.000000	-1.000000	-1.000000	-1.000000	-1.000000	-1.000000	57.000000	0.000000	-1.000000	-1.000000	525126.000000	1775777774.486708
741.555000	-2613.465000	-5918.040000	19936.485000	14257.305000	3997.845000	-15690.015000	-14040.270000	1.370789	0.065834	1.802965	3.600455	7.881410	12.750073	3.051163	0.660056	-2.121140	0.991900	-1.190280	-0.753355	-0.090515	0.638670	-1.000000	-1.000000	-1.000000	-1.000000	-1.000000	-1.000000	-1.000000	57.000000	0.000000	-1.000000	-1.000000	525127.000000	1775777774.495835
738.225000	-2612.925000	-5913.540000	19942.695000	14245.830000	3977.955000	-15699.330000	-14044.095000	-1.084633	-3.282903	-2.459110	-0.976099	8.126745	21.743847	6.680630	-0.104171	-2.121140	0.991900	-1.190280	-0.753355	-0.090515	0.638670	-1.000000	-1.000000	-1.000000	-1.000000	-1.000000	-1.000000	-1.000000	57.000000	0.000000	-1.000000	-1.000000	525128.000000	1775777774.495861
739.620000	-2607.840000	-5906.835000	19947.645000	14243.040000	3979.980000	-15697.575000	-14042.925000	-2.818840	-4.709896	-4.854480	-4.429187	2.538137	17.534974	6.350108	-0.838431	-2.121140	0.991900	-1.190280	-0.753355	-0.090515	0.638670	-1.000000	-1.000000	-1.000000	-1.000000	-1.000000	-1.000000	-1.000000	57.000000	0.000000	-1.000000	-1.000000	525129.000000	1775777774.495967
736.560000	-2611.890000	-5913.585000	19938.735000	14236.425000	3984.255000	-15693.705000	-14046.345000	-3.151187	-3.636726	-4.159395	-4.948287	-5.957942	2.829212	2.841803	-1.104970	-2.121140	0.991900	-1.190280	-0.753355	-0.090515	0.638670	-1.000000	-1.000000	-1.000000	-1.000000	-1.000000	-1.000000	-1.000000	57.000000	0.000000	-1.000000	-1.000000	525130.000000	1775777774.495982
739.530000	-2610.720000	-5913.450000	19940.715000	14238.360000	3979.665000	-15690.645000	-14040.090000	-2.206259	-1.287778	-1.869376	-3.508657	-12.140438	-12.227433	-0.827749	-0.712119	-2.121140	0.991900	-1.190280	-0.753355	-0.090515	0.638670	-1.000000	-1.000000	-1.000000	-1.000000	-1.000000	-1.000000	-1.000000	57.000000	0.000000	-1.000000	-1.000000	525131.000000	1775777774.496003
743.760000	-2607.885000	-5909.715000	19942.335000	14234.130000	3962.295000	-15687.090000	-14031.810000	-0.464389	0.778981	0.035370	-1.744070	-12.589706	-19.916026	-2.443456	0.471901	-2.121140	0.991900	-1.190280	-0.753355	-0.090515	0.638670	-1.000000	-1.000000	-1.000000	-1.000000	-1.000000	-1.000000	-1.000000	57.000000	0.000000	-1.000000	-1.000000	525132.000000	1775777774.496015
747.765000	-2604.645000	-5909.040000	19948.860000	14227.785000	3965.535000	-15689.565000	-14032.620000	1.552177	1.971415	1.030036	-0.093931	-7.715458	-19.014228	-2.015483	2.206657	-0.732480	0.488320	-1.648080	-0.754942	-0.091369	0.638731	-1.000000	-1.000000	-1.000000	-1.000000	-1.000000	-1.000000	-1.000000	57.000000	0.000000	-1.000000	-1.000000	525133.000000	1775777774.503002
747.405000	-2601.945000	-5906.475000	19947.870000	14211.675000	3967.875000	-15694.830000	-14034.555000	3.094336	2.422621	1.472149	1.524539	-1.000746	-11.810696	-1.068485	3.297580	-0.732480	0.488320	-1.648080	-0.754942	-0.091369	0.638731	-1.000000	-1.000000	-1.000000	-1.000000	-1.000000	-1.000000	-1.000000	57.000000	0.000000	-1.000000	-1.000000	525134.000000	1775777774.503027
738.180000	-2605.095000	-5904.180000	19952.145000	14217.795000	3964.545000	-15694.290000	-14042.520000	3.128800	2.192318	1.614262	2.715717	4.041005	-1.563655	-0.949750	2.373028	-0.732480	0.488320	-1.648080	-0.754942	-0.091369	0.638731	-1.000000	-1.000000	-1.000000	-1.000000	-1.000000	-1.000000	-1.000000	57.000000	0.000000	-1.000000	-1.000000	525135.000000	1775777774.503055
727.650000	-2613.915000	-5911.785000	19943.055000	14224.185000	3977.730000	-15700.950000	-14050.395000	0.951088	0.991601	1.343984	2.753282	6.691027	8.009518	-1.667501	-0.693983	-0.732480	0.488320	-1.648080	-0.754942	-0.091369	0.638731	-1.000000	-1.000000	-1.000000	-1.000000	-1.000000	-1.000000	-1.000000	57.000000	0.000000	-1.000000	-1.000000	525136.000000	1775777774.503067
733.455000	-2610.855000	-5909.535000	19947.060000	14223.465000	3978.720000	-15699.060000	-14042.610000	-2.571593	-1.128421	0.376389	1.319911	8.104859	14.046747	-2.332225	-4.211379	-0.732480	0.488320	-1.648080	-0.754942	-0.091369	0.638731	-1.000000	-1.000000	-1.000000	-1.000000	-1.000000	-1.000000	-1.000000	57.000000	0.000000	-1.000000	-1.000000	525137.000000	1775777774.507074
724.230000	-2623.275000	-5925.060000	19929.780000	14213.655000	3974.895000	-15698.745000	-14048.055000	-5.026950	-3.187146	-1.219104	-1.087017	8.302241	15.109725	-2.046973	-5.651686	-0.732480	0.488320	-1.648080	-0.754942	-0.091369	0.638731	-1.000000	-1.000000	-1.000000	-1.000000	-1.000000	-1.000000	-1.000000	57.000000	0.000000	-1.000000	-1.000000	525138.000000	1775777774.507100
721.530000	-2622.825000	-5926.230000	19924.335000	14210.865000	3964.590000	-15704.865000	-14052.105000	-4.835469	-4.120534	-2.958426	-3.633506	6.149633	10.875440	-0.640452	-4.110579	-0.732480	0.488320	-1.648080	-0.754942	-0.091369	0.638731	-1.000000	-1.000000	-1.000000	-1.000000	-1.000000	-1.000000	-1.000000	57.000000	0.000000	-1.000000	-1.000000	525139.000000	1775777774.510199
718.470000	-2623.320000	-5925.870000	19922.265000	14207.985000	3959.370000	-15710.895000	-14056.020000	-2.496705	-3.400354	-3.851091	-5.246371	1.809678	2.824703	0.931701	-1.061898	-0.732480	0.488320	-1.648080	-0.754942	-0.091369	0.638731	-1.000000	-1.000000	-1.000000	-1.000000	-1.000000	-1.000000	-1.000000	57.000000	0.000000	-1.000000	-1.000000	525140.000000	1775777774.510219
722.565000	-2618.190000	-5915.925000	19937.835000	14220.810000	3972.420000	-15707.295000	-14053.500000	0.714709	-0.931657	-2.576327	-4.309277	-2.447235	-5.260523	1.685986	1.677712	-0.732480	0.488320	-1.648080	-0.754942	-0.091369	0.638731	-1.000000	-1.000000	-1.000000	-1.000000	-1.000000	-1.000000	-1.000000	57.000000	0.000000	-1.000000	-1.000000	525141.000000	1775777774.514864
727.605000	-2612.520000	-5907.960000	19948.995000	14229.900000	3994.020000	-15701.445000	-14048.325000	3.845889	2.651542	1.195248	0.144666	-3.938114	-8.739578	1.930349	3.515049	-0.732480	0.488320	-1.648080	-0.754942	-0.091369	0.638731	-1.000000	-1.000000	-1.000000	-1.000000	-1.000000	-1.000000	-1.000000	57.000000	0.000000	-1.000000	-1.000000	525142.000000	1775777774.514890
730.305000	-2611.395000	-5909.940000	19944.090000	14212.845000	3975.210000	-15705.900000	-14045.400000	6.148117	5.892416	5.733474	6.345982	-2.447474	-6.118365	2.395504	4.643178	-0.015260	0.030520	-2.411080	-0.752867	-0.092529	0.640013	-1.000000	-1.000000	-1.000000	-1.000000	-1.000000	-1.000000	-1.000000	57.000000	0.000000	-1.000000	-1.000000	525143.000000	1775777774.518267
729.630000	-2613.600000	-5913.360000	19935.900000	14204.790000	3961.935000	-15705.945000	-14047.245000	6.739568	7.043242	7.985724	9.972119	-0.951282	-1.495879	2.727542	4.915399	-0.015260	0.030520	-2.411080	-0.752867	-0.092529	0.640013	-1.000000	-1.000000	-1.000000	-1.000000	-1.000000	-1.000000	-1.000000	57.000000	0.000000	-1.000000	-1.000000	525144.000000	1775777774.518289
735.570000	-2604.645000	-5900.580000	19952.595000	14221.485000	3979.665000	-15695.145000	-14046.120000	5.116521	5.341678	6.328948	8.255967	-1.516229	0.387878	2.313799	3.786712	-0.015260	0.030520	-2.411080	-0.752867	-0.092529	0.640013	-1.000000	-1.000000	-1.000000	-1.000000	-1.000000	-1.000000	-1.000000	57.000000	0.000000	-1.000000	-1.000000	525145.000000	1775777774.533796
732.195000	-2608.965000	-5905.890000	19946.340000	14213.205000	3971.835000	-15700.365000	-14047.830000	1.849848	1.798118	2.143228	2.923259	-2.575853	-0.271773	1.423079	1.277128	-0.015260	0.030520	-2.411080	-0.752867	-0.092529	0.640013	-1.000000	-1.000000	-1.000000	-1.000000	-1.000000	-1.000000	-1.000000	57.000000	0.000000	-1.000000	-1.000000	525146.000000	1775777774.533822
737.955000	-2604.420000	-5904.495000	19940.040000	14199.660000	3944.205000	-15699.645000	-14042.430000	-1.765127	-1.886612	-2.215615	-2.704403	-2.552998	-1.471101	0.286420	-1.600431	-0.015260	0.030520	-2.411080	-0.752867	-0.092529	0.640013	-1.000000	-1.000000	-1.000000	-1.000000	-1.000000	-1.000000	-1.000000	57.000000	0.000000	-1.000000	-1.000000	525147.000000	1775777774.533848
732.375000	-2607.255000	-5905.395000	19938.375000	14214.285000	3965.580000	-15694.875000	-14047.155000	-4.494677	-4.488304	-5.317176	-6.839101	-1.901699	-2.720529	-1.114322	-3.564582	-0.015260	0.030520	-2.411080	-0.752867	-0.092529	0.640013	-1.000000	-1.000000	-1.000000	-1.000000	-1.000000	-1.000000	-1.000000	57.000000	0.000000	-1.000000	-1.000000	525148.000000	1775777774.533860
724.365000	-2612.745000	-5905.980000	19940.490000	14217.480000	3984.345000	-15693.660000	-14054.220000	-5.888857	-5.580046	-6.493636	-8.530583	-0.570076	-2.309834	-2.222970	-4.252884	-0.015260	0.030520	-2.411080	-0.752867	-0.092529	0.640013	-1.000000	-1.000000	-1.000000	-1.000000	-1.000000	-1.000000	-1.000000	57.000000	0.000000	-1.000000	-1.000000	525149.000000	1775777774.533875
723.195000	-2611.710000	-5901.885000	19948.140000	14212.620000	3972.150000	-15702.480000	-14059.530000	-6.193035	-5.388729	-5.618842	-7.037677	1.702299	1.449107	-2.649920	-4.255582	-0.015260	0.030520	-2.411080	-0.752867	-0.092529	0.640013	-1.000000	-1.000000	-1.000000	-1.000000	-1.000000	-1.000000	-1.000000	57.000000	0.000000	-1.000000	-1.000000	525150.000000	1775777774.533885
728.505000	-2606.985000	-5897.475000	19950.480000	14214.015000	3980.745000	-15704.235000	-14056.605000	-5.224407	-4.005731	-3.056452	-2.742091	3.554244	6.076503	-2.855131	-3.787568	-0.015260	0.030520	-2.411080	-0.752867	-0.092529	0.640013	-1.000000	-1.000000	-1.000000	-1.000000	-1.000000	-1.000000	-1.000000	57.000000	0.000000	-1.000000	-1.000000	525151.000000	1775777774.546668
729.045000	-2609.415000	-5904.585000	19939.995000	14216.175000	3985.830000	-15708.015000	-14054.895000	-2.482768	-1.441150	0.154945	2.144371	3.612601	7.802975	-3.098535	-2.254735	-0.015260	0.030520	-2.411080	-0.752867	-0.092529	0.640013	-1.000000	-1.000000	-1.000000	-1.000000	-1.000000	-1.000000	-1.000000	57.000000	0.000000	-1.000000	-1.000000	525152.000000	1775777774.546692
729.045000	-2609.415000	-5904.585000	19939.995000	14216.175000	3985.830000	-15708.015000	-14054.895000	1.406040	1.460241	2.370446	4.718939	2.122028	5.839974	-2.840336	0.509540	-0.015260	0.030520	-2.411080	-0.752867	-0.092529	0.640013	-1.000000	-1.000000	-1.000000	-1.000000	-1.000000	-1.000000	-1.000000	57.000000	0.000000	-1.000000	-1.000000	525153.000000	1775777774.546784
729.045000	-2609.415000	-5904.585000	19939.995000	14216.175000	3985.830000	-15708.015000	-14054.895000	4.641153	3.400136	2.700403	4.037788	0.128558	1.588586	-1.518277	3.427878	-0.015260	0.030520	-2.411080	-0.752867	-0.092529	0.640013	-1.000000	-1.000000	-1.000000	-1.000000	-1.000000	-1.000000	-1.000000	57.000000	0.000000	-1.000000	-1.000000	525154.000000	1775777774.546803
729.045000	-2609.415000	-5904.585000	19939.995000	14216.175000	3985.830000	-15708.015000	-14054.895000	5.757373	3.773611	1.785034	1.709928	-1.522177	-3.050933	0.712652	5.028416	-0.015260	0.030520	-2.411080	-0.752867	-0.092529	0.640013	-1.000000	-1.000000	-1.000000	-1.000000	-1.000000	-1.000000	-1.000000	57.000000	0.000000	-1.000000	-1.000000	525155.000000	1775777774.546815
726.435000	-2608.965000	-5899.230000	19949.850000	14225.625000	3975.570000	-15715.395000	-14061.960000	4.560402	2.877177	0.859674	-0.043196	-2.216808	-6.485138	2.845855	4.524375	-0.198380	0.503580	-0.991900	-0.750608	-0.093750	0.641356	-1.000000	-1.000000	-1.000000	-1.000000	-1.000000	-1.000000	-1.000000	57.000000	0.000000	-1.000000	-1.000000	525157.000000	1775777774.546844
725.670000	-2607.435000	-5894.865000	19954.710000	14228.955000	3982.500000	-15713.370000	-14061.150000	1.898587	1.449717	0.764178	0.026313	-1.550288	-7.848503	3.709378	2.159796	-0.198380	0.503580	-0.991900	-0.750608	-0.093750	0.641356	-1.000000	-1.000000	-1.000000	-1.000000	-1.000000	-1.000000	-1.000000	57.000000	0.000000	-1.000000	-1.000000	525158.000000	1775777774.546858
728.505000	-2606.130000	-5895.900000	19948.725000	14210.325000	3971.610000	-15717.555000	-14057.100000	-0.846561	0.211879	1.399310	1.343618	-0.309943	-6.832927	3.069074	-0.682370	-0.198380	0.503580	-0.991900	-0.750608	-0.093750	0.641356	-1.000000	-1.000000	-1.000000	-1.000000	-1.000000	-1.000000	-1.000000	57.000000	0.000000	-1.000000	-1.000000	525159.000000	1775777774.551264
729.630000	-2603.790000	-5893.200000	19951.695000	14210.370000	3968.595000	-15720.705000	-14057.415000	-2.378772	-0.454143	1.819657	1.990261	-0.368972	-4.035472	1.580092	-2.275314	-0.198380	0.503580	-0.991900	-0.750608	-0.093750	0.641356	-1.000000	-1.000000	-1.000000	-1.000000	-1.000000	-1.000000	-1.000000	57.000000	0.000000	-1.000000	-1.000000	525160.000000	1775777774.551288
725.670000	-2606.715000	-5893.515000	19952.955000	14218.515000	3979.980000	-15714.945000	-14061.825000	-2.366378	-0.644483	1.282724	0.956290	-1.852882	-0.527740	0.121228	-2.170986	-0.198380	0.503580	-0.991900	-0.750608	-0.093750	0.641356	-1.000000	-1.000000	-1.000000	-1.000000	-1.000000	-1.000000	-1.000000	57.000000	0.000000	-1.000000	-1.000000	525161.000000	1775777774.555407
717.930000	-2614.050000	-5899.365000	19949.220000	14217.885000	3976.650000	-15718.545000	-14069.700000	-1.715446	-0.917850	-0.197123	-1.024946	-2.522142	3.150788	-0.528275	-1.480352	-0.198380	0.503580	-0.991900	-0.750608	-0.093750	0.641356	-1.000000	-1.000000	-1.000000	-1.000000	-1.000000	-1.000000	-1.000000	57.000000	0.000000	-1.000000	-1.000000	525162.000000	1775777774.555434
719.730000	-2614.275000	-5903.415000	19940.850000	14208.795000	3964.950000	-15722.460000	-14066.955000	-1.425014	-1.702601	-2.190644	-2.953806	-1.257579	5.917030	-0.400776	-1.268587	-0.671440	1.388660	-0.717220	-0.751646	-0.092102	0.642149	-1.000000	-1.000000	-1.000000	-1.000000	-1.000000	-1.000000	-1.000000	57.000000	0.000000	-1.000000	-1.000000	525163.000000	1775777774.563552
726.435000	-2608.515000	-5898.240000	19943.910000	14201.550000	3957.435000	-15719.805000	-14060.295000	-1.212285	-2.381002	-3.782114	-4.217946	0.444328	5.909538	-0.231306	-1.137411	-0.671440	1.388660	-0.717220	-0.751646	-0.092102	0.642149	-1.000000	-1.000000	-1.000000	-1.000000	-1.000000	-1.000000	-1.000000	57.000000	0.000000	-1.000000	-1.000000	525164.000000	1775777774.563574
731.880000	-2601.045000	-5890.050000	19951.650000	14205.690000	3964.185000	-15715.665000	-14058.720000	-0.021402	-1.657655	-3.585268	-3.928559	1.069914	3.080798	-0.189688	-0.039214	-0.671440	1.388660	-0.717220	-0.751646	-0.092102	0.642149	-1.000000	-1.000000	-1.000000	-1.000000	-1.000000	-1.000000	-1.000000	57.000000	0.000000	-1.000000	-1.000000	525165.000000	1775777774.567631
725.670000	-2609.415000	-5899.095000	19942.425000	14207.805000	3977.055000	-15719.715000	-14064.525000	2.024877	0.564967	-1.249551	-1.647120	1.075692	0.193069	0.037988	1.739541	-0.671440	1.388660	-0.717220	-0.751646	-0.092102	0.642149	-1.000000	-1.000000	-1.000000	-1.000000	-1.000000	-1.000000	-1.000000	57.000000	0.000000	-1.000000	-1.000000	525166.000000	1775777774.567656
722.700000	-2611.980000	-5900.175000	19942.020000	14215.095000	3993.480000	-15715.440000	-14064.165000	3.210033	2.458438	1.464050	1.267404	1.693003	0.150391	0.312549	2.636376	-0.671440	1.388660	-0.717220	-0.751646	-0.092102	0.642149	-1.000000	-1.000000	-1.000000	-1.000000	-1.000000	-1.000000	-1.000000	57.000000	0.000000	-1.000000	-1.000000	525167.000000	1775777774.567683
718.830000	-2616.930000	-5903.280000	19942.245000	14209.020000	3978.180000	-15718.230000	-14066.415000	2.213458	2.287309	2.531985	2.972717	2.950069	2.581052	0.292401	1.819545	-0.671440	1.388660	-0.717220	-0.751646	-0.092102	0.642149	-1.000000	-1.000000	-1.000000	-1.000000	-1.000000	-1.000000	-1.000000	57.000000	0.000000	-1.000000	-1.000000	525168.000000	1775777774.567694
721.035000	-2616.615000	-5904.180000	19943.325000	14205.690000	3970.710000	-15718.995000	-14065.065000	-0.291623	0.350326	1.756741	3.114510	3.441131	3.708368	-0.121441	0.015053	-0.671440	1.388660	-0.717220	-0.751646	-0.092102	0.642149	-1.000000	-1.000000	-1.000000	-1.000000	-1.000000	-1.000000	-1.000000	57.000000	0.000000	-1.000000	-1.000000	525169.000000	1775777774.573789
729.360000	-2607.390000	-5896.350000	19950.345000	14213.385000	3967.245000	-15725.655000	-14059.890000	-2.229134	-1.426657	0.481776	2.539453	2.193932	0.780822	-0.917921	-1.372112	-0.671440	1.388660	-0.717220	-0.751646	-0.092102	0.642149	-1.000000	-1.000000	-1.000000	-1.000000	-1.000000	-1.000000	-1.000000	57.000000	0.000000	-1.000000	-1.000000	525170.000000	1775777774.573817
728.370000	-2606.760000	-5894.055000	19952.595000	14214.510000	3969.315000	-15723.990000	-14060.205000	-2.050484	-1.309672	0.185831	2.116558	0.124630	-4.441353	-1.854359	-1.420968	-0.671440	1.388660	-0.717220	-0.751646	-0.092102	0.642149	-1.000000	-1.000000	-1.000000	-1.000000	-1.000000	-1.000000	-1.000000	57.000000	0.000000	-1.000000	-1.000000	525171.000000	1775777774.575247
729.495000	-2605.680000	-5894.190000	19946.745000	14206.005000	3970.170000	-15719.940000	-14057.640000	-0.236355	0.518339	1.061601	1.794326	-1.491891	-7.845325	-2.179592	-0.400460	-0.671440	1.388660	-0.717220	-0.751646	-0.092102	0.642149	-1.000000	-1.000000	-1.000000	-1.000000	-1.000000	-1.000000	-1.000000	57.000000	0.000000	-1.000000	-1.000000	525172.000000	1775777774.575266
728.910000	-2607.255000	-5898.600000	19937.925000	14204.205000	3969.360000	-15723.135000	-14058.270000	1.414785	2.231419	1.819887	0.588856	-2.630610	-7.113914	-1.258475	0.653309	-1.342880	0.946120	-0.686700	-0.752134	-0.091125	0.642760	-1.000000	-1.000000	-1.000000	-1.000000	-1.000000	-1.000000	-1.000000	57.000000	0.000000	-1.000000	-1.000000	525173.000000	1775777774.578273
727.470000	-2605.005000	-5893.380000	19948.005000	14228.775000	3994.425000	-15716.520000	-14058.450000	1.656023	2.370399	1.316136	-1.700885	-3.017556	-2.692445	0.534565	0.923091	-1.342880	0.946120	-0.686700	-0.752134	-0.091125	0.642760	-1.000000	-1.000000	-1.000000	-1.000000	-1.000000	-1.000000	-1.000000	57.000000	0.000000	-1.000000	-1.000000	525174.000000	1775777774.578292
723.015000	-2606.940000	-5891.895000	19950.390000	14233.860000	4011.750000	-15712.605000	-14060.745000	0.451454	0.970095	-0.084437	-3.395516	-1.315086	3.840152	2.319358	0.250581	-1.342880	0.946120	-0.686700	-0.752134	-0.091125	0.642760	-1.000000	-1.000000	-1.000000	-1.000000	-1.000000	-1.000000	-1.000000	57.000000	0.000000	-1.000000	-1.000000	525175.000000	1775777774.582938
722.340000	-2606.805000	-5889.330000	19951.065000	14224.545000	3997.935000	-15719.760000	-14061.645000	-1.392912	-0.979806	-1.208209	-2.930176	1.957981	9.609390	3.257668	-0.932487	-1.342880	0.946120	-0.686700	-0.752134	-0.091125	0.642760	-1.000000	-1.000000	-1.000000	-1.000000	-1.000000	-1.000000	-1.000000	57.000000	0.000000	-1.000000	-1.000000	525176.000000	1775777774.582960
716.580000	-2611.260000	-5891.940000	19949.535000	14215.185000	3980.385000	-15728.850000	-14067.855000	-2.804248	-2.517390	-1.535875	-0.908327	3.444247	10.121702	2.374691	-1.997976	-1.342880	0.946120	-0.686700	-0.752134	-0.091125	0.642760	-1.000000	-1.000000	-1.000000	-1.000000	-1.000000	-1.000000	-1.000000	57.000000	0.000000	-1.000000	-1.000000	525177.000000	1775777774.586263
715.680000	-2608.470000	-5887.755000	19952.055000	14216.220000	3974.310000	-15732.045000	-14071.815000	-3.083473	-3.102252	-1.353641	0.935447	1.070138	3.342326	-0.498413	-2.567750	-1.342880	0.946120	-0.686700	-0.752134	-0.091125	0.642760	-1.000000	-1.000000	-1.000000	-1.000000	-1.000000	-1.000000	-1.000000	57.000000	0.000000	-1.000000	-1.000000	525178.000000	1775777774.586285
714.510000	-2608.425000	-5887.350000	19954.305000	14225.535000	3986.820000	-15727.545000	-14073.750000	-2.114871	-2.501844	-0.961222	1.663483	-3.025652	-6.506380	-3.618928	-2.462715	-1.342880	0.946120	-0.686700	-0.752134	-0.091125	0.642760	-1.000000	-1.000000	-1.000000	-1.000000	-1.000000	-1.000000	-1.000000	57.000000	0.000000	-1.000000	-1.000000	525179.000000	1775777774.593395
715.230000	-2608.920000	-5889.465000	19949.355000	14215.545000	3987.585000	-15727.050000	-14071.950000	-0.214187	-0.921811	-0.515696	1.335577	-5.179084	-12.171410	-4.531990	-1.449136	-1.342880	0.946120	-0.686700	-0.752134	-0.091125	0.642760	-1.000000	-1.000000	-1.000000	-1.000000	-1.000000	-1.000000	-1.000000	57.000000	0.000000	-1.000000	-1.000000	525180.000000	1775777774.593421
714.060000	-2608.515000	-5890.815000	19945.035000	14191.020000	3963.960000	-15729.030000	-14072.310000	1.919941	0.868260	-0.307832	0.185213	-4.744506	-10.675658	-2.550781	0.480958	-1.342880	0.946120	-0.686700	-0.752134	-0.091125	0.642760	-1.000000	-1.000000	-1.000000	-1.000000	-1.000000	-1.000000	-1.000000	57.000000	0.000000	-1.000000	-1.000000	525181.000000	1775777774.594084
709.425000	-2612.700000	-5895.450000	19941.975000	14196.195000	3960.360000	-15728.490000	-14075.595000	3.328407	1.984110	-0.531327	-1.428397	-3.702475	-5.334579	0.722911	2.609964	-1.342880	0.946120	-0.686700	-0.752134	-0.091125	0.642760	-1.000000	-1.000000	-1.000000	-1.000000	-1.000000	-1.000000	-1.000000	57.000000	0.000000	-1.000000	-1.000000	525182.000000	1775777774.594104
716.670000	-2604.825000	-5886.720000	19949.445000	14197.140000	3941.010000	-15735.105000	-14070.330000	3.440914	2.106743	-0.828675	-2.513081	-2.445567	-0.624251	3.104081	3.892562	-1.403920	0.946120	0.366240	-0.750853	-0.092163	0.643492	-1.000000	-1.000000	-1.000000	-1.000000	-1.000000	-1.000000	-1.000000	57.000000	0.000000	-1.000000	-1.000000	525183.000000	1775777774.613239
710.820000	-2611.440000	-5891.130000	19949.670000	14210.370000	3962.160000	-15732.855000	-14073.615000	2.571054	1.621096	-0.486275	-1.933710	0.524138	2.263464	3.439485	3.884793	-1.403920	0.946120	0.366240	-0.750853	-0.092163	0.643492	-1.000000	-1.000000	-1.000000	-1.000000	-1.000000	-1.000000	-1.000000	57.000000	0.000000	-1.000000	-1.000000	525184.000000	1775777774.613266
703.665000	-2619.450000	-5895.765000	19951.560000	14233.320000	4024.395000	-15719.715000	-14076.630000	1.106161	0.705500	0.424340	0.225303	5.714446	6.088460	2.407129	2.678518	-1.403920	0.946120	0.366240	-0.750853	-0.092163	0.643492	-1.000000	-1.000000	-1.000000	-1.000000	-1.000000	-1.000000	-1.000000	57.000000	0.000000	-1.000000	-1.000000	525185.000000	1775777774.613292
702.810000	-2621.835000	-5898.330000	19945.485000	14217.075000	4005.045000	-15726.465000	-14079.240000	-0.863737	-0.828050	0.920017	2.396345	11.000679	13.036798	1.565667	0.557979	-1.403920	0.946120	0.366240	-0.750853	-0.092163	0.643492	-1.000000	-1.000000	-1.000000	-1.000000	-1.000000	-1.000000	-1.000000	57.000000	0.000000	-1.000000	-1.000000	525186.000000	1775777774.613305
708.885000	-2616.300000	-5894.460000	19943.055000	14215.590000	3992.895000	-15723.270000	-14075.820000	-2.510744	-2.267766	0.656202	2.908949	12.137556	18.123889	1.175894	-1.652665	-1.403920	0.946120	0.366240	-0.750853	-0.092163	0.643492	-1.000000	-1.000000	-1.000000	-1.000000	-1.000000	-1.000000	-1.000000	57.000000	0.000000	-1.000000	-1.000000	525187.000000	1775777774.613320
712.035000	-2612.610000	-5891.175000	19945.125000	14212.080000	3981.330000	-15727.185000	-14076.090000	-2.487430	-2.144627	0.434614	1.545184	6.847911	13.680198	0.369309	-2.790424	-1.403920	0.946120	0.366240	-0.750853	-0.092163	0.643492	-1.000000	-1.000000	-1.000000	-1.000000	-1.000000	-1.000000	-1.000000	57.000000	0.000000	-1.000000	-1.000000	525188.000000	1775777774.613331
715.005000	-2608.200000	-5885.235000	19949.805000	14219.505000	3982.005000	-15733.080000	-14077.935000	-0.598546	-0.033931	1.015002	-0.260269	-1.961724	0.029516	-1.236064	-2.432049	-1.403920	0.946120	0.366240	-0.750853	-0.092163	0.643492	-1.000000	-1.000000	-1.000000	-1.000000	-1.000000	-1.000000	-1.000000	57.000000	0.000000	-1.000000	-1.000000	525189.000000	1775777774.613344
715.230000	-2607.795000	-5885.775000	19944.855000	14218.605000	3986.640000	-15733.620000	-14078.880000	1.761170	2.736173	2.121116	-1.057106	-8.914123	-14.275730	-3.162866	-1.262779	-1.403920	0.946120	0.366240	-0.750853	-0.092163	0.643492	-1.000000	-1.000000	-1.000000	-1.000000	-1.000000	-1.000000	-1.000000	57.000000	0.000000	-1.000000	-1.000000	525190.000000	1775777774.613355
711.270000	-2610.540000	-5888.025000	19940.805000	14211.720000	3982.635000	-15738.750000	-14082.615000	2.811186	4.164193	2.592528	-0.929751	-10.963421	-20.804167	-4.383943	-0.256569	-1.403920	0.946120	0.366240	-0.750853	-0.092163	0.643492	-1.000000	-1.000000	-1.000000	-1.000000	-1.000000	-1.000000	-1.000000	57.000000	0.000000	-1.000000	-1.000000	525191.000000	1775777774.621426
717.570000	-2599.560000	-5873.670000	19955.295000	14223.330000	3984.030000	-15742.215000	-14081.715000	1.864151	3.342664	1.775748	-0.537725	-8.613220	-17.425153	-4.130088	0.132617	-1.403920	0.946120	0.366240	-0.750853	-0.092163	0.643492	-1.000000	-1.000000	-1.000000	-1.000000	-1.000000	-1.000000	-1.000000	57.000000	0.000000	-1.000000	-1.000000	525192.000000	1775777774.621451
714.915000	-2597.715000	-5868.135000	19964.835000	14238.180000	3996.675000	-15738.165000	-14086.035000	-0.172539	1.254341	0.552579	0.480856	-3.494465	-7.617739	-2.385761	0.069775	-2.273740	1.709120	1.297100	-0.749937	-0.093078	0.642393	-1.000000	-1.000000	-1.000000	-1.000000	-1.000000	-1.000000	-1.000000	57.000000	0.000000	-1.000000	-1.000000	525193.000000	1775777774.621479
710.820000	-2604.645000	-5875.155000	19958.805000	14221.530000	3980.970000	-15740.055000	-14086.755000	-2.024124	-0.808848	-0.239196	2.215317	2.361386	3.205154	0.376477	-0.099248	-2.273740	1.709120	1.297100	-0.749937	-0.093078	0.642393	-1.000000	-1.000000	-1.000000	-1.000000	-1.000000	-1.000000	-1.000000	57.000000	0.000000	-1.000000	-1.000000	525194.000000	1775777774.621491
717.930000	-2602.755000	-5877.990000	19957.185000	14209.425000	3964.410000	-15738.660000	-14077.620000	-3.015951	-2.630593	-1.285414	2.991174	5.526860	9.704514	3.183653	0.045139	-2.273740	1.709120	1.297100	-0.749937	-0.093078	0.642393	-1.000000	-1.000000	-1.000000	-1.000000	-1.000000	-1.000000	-1.000000	57.000000	0.000000	-1.000000	-1.000000	525195.000000	1775777774.622832
714.600000	-2609.145000	-5886.045000	19951.245000	14219.910000	3979.755000	-15739.605000	-14080.140000	-2.761304	-4.140576	-3.285197	1.280271	4.033530	9.547798	4.834339	0.895528	-2.273740	1.709120	1.297100	-0.749937	-0.093078	0.642393	-1.000000	-1.000000	-1.000000	-1.000000	-1.000000	-1.000000	-1.000000	57.000000	0.000000	-1.000000	-1.000000	525196.000000	1775777774.622853
712.395000	-2614.545000	-5892.165000	19944.135000	14230.710000	4008.420000	-15727.635000	-14079.105000	-1.494350	-4.900710	-5.539984	-2.325181	0.535701	6.177921	4.897797	2.002175	-2.273740	1.709120	1.297100	-0.749937	-0.093078	0.642393	-1.000000	-1.000000	-1.000000	-1.000000	-1.000000	-1.000000	-1.000000	57.000000	0.000000	-1.000000	-1.000000	525197.000000	1775777774.626864
711.765000	-2617.110000	-5896.530000	19933.920000	14218.785000	4003.830000	-15723.180000	-14078.160000	-0.165675	-4.594061	-6.586200	-5.876604	-1.147006	4.677739	4.036750	2.315041	-2.273740	1.709120	1.297100	-0.749937	-0.093078	0.642393	-1.000000	-1.000000	-1.000000	-1.000000	-1.000000	-1.000000	-1.000000	57.000000	0.000000	-1.000000	-1.000000	525198.000000	1775777774.626889
705.105000	-2619.045000	-5894.415000	19938.105000	14213.835000	3999.105000	-15729.390000	-14087.970000	0.501225	-3.063432	-5.253503	-7.390482	-0.818921	5.093949	2.718462	1.281989	-2.273740	1.709120	1.297100	-0.749937	-0.093078	0.642393	-1.000000	-1.000000	-1.000000	-1.000000	-1.000000	-1.000000	-1.000000	57.000000	0.000000	-1.000000	-1.000000	525199.000000	1775777774.630238
711.405000	-2607.795000	-5879.655000	19954.845000	14218.785000	3992.265000	-15730.605000	-14085.135000	0.532122	-0.255866	-1.187745	-5.272417	-0.365765	3.661949	0.457871	-0.837323	-2.273740	1.709120	1.297100	-0.749937	-0.093078	0.642393	-1.000000	-1.000000	-1.000000	-1.000000	-1.000000	-1.000000	-1.000000	57.000000	0.000000	-1.000000	-1.000000	525200.000000	1775777774.630260
710.055000	-2606.445000	-5876.865000	19956.735000	14219.370000	3999.195000	-15732.945000	-14088.105000	0.589736	3.474791	4.694593	0.570697	-0.208721	-0.993252	-2.755476	-2.904775	-2.273740	1.709120	1.297100	-0.749937	-0.093078	0.642393	-1.000000	-1.000000	-1.000000	-1.000000	-1.000000	-1.000000	-1.000000	57.000000	0.000000	-1.000000	-1.000000	525201.000000	1775777774.637152
701.955000	-2615.625000	-5884.245000	19948.410000	14222.430000	3998.700000	-15740.190000	-14095.665000	0.969308	6.575972	9.606214	7.105375	0.313418	-6.167969	-5.703993	-3.733918	-2.273740	1.709120	1.297100	-0.749937	-0.093078	0.642393	-1.000000	-1.000000	-1.000000	-1.000000	-1.000000	-1.000000	-1.000000	57.000000	0.000000	-1.000000	-1.000000	525202.000000	1775777774.637180
702.990000	-2614.455000	-5882.805000	19948.185000	14229.945000	4000.725000	-15739.200000	-14092.290000	1.064420	6.872241	10.302036	9.868258	1.369843	-8.542425	-7.015072	-3.126574	-1.922760	2.029580	0.335720	-0.748533	-0.095093	0.642271	-1.000000	-1.000000	-1.000000	-1.000000	-1.000000	-1.000000	-1.000000	57.000000	0.000000	-1.000000	-1.000000	525203.000000	1775777774.641186
706.230000	-2611.395000	-5882.985000	19947.105000	14224.320000	3999.060000	-15734.880000	-14084.370000	0.680083	4.084713	6.253469	7.256286	2.404653	-7.227885	-5.842439	-1.235860	-1.922760	2.029580	0.335720	-0.748533	-0.095093	0.642271	-1.000000	-1.000000	-1.000000	-1.000000	-1.000000	-1.000000	-1.000000	57.000000	0.000000	-1.000000	-1.000000	525204.000000	1775777774.641212
710.145000	-2603.340000	-5876.550000	19954.215000	14219.010000	3983.670000	-15735.375000	-14078.925000	0.558923	0.435506	0.226862	1.730452	2.288396	-3.923914	-2.281648	1.769876	-1.922760	2.029580	0.335720	-0.748533	-0.095093	0.642271	-1.000000	-1.000000	-1.000000	-1.000000	-1.000000	-1.000000	-1.000000	57.000000	0.000000	-1.000000	-1.000000	525205.000000	1775777774.649813
702.990000	-2605.995000	-5876.145000	19953.315000	14221.395000	3980.565000	-15736.950000	-14085.180000	0.976692	-1.810911	-4.344530	-2.965114	0.447804	-1.168388	2.101665	4.674530	-1.922760	2.029580	0.335720	-0.748533	-0.095093	0.642271	-1.000000	-1.000000	-1.000000	-1.000000	-1.000000	-1.000000	-1.000000	57.000000	0.000000	-1.000000	-1.000000	525206.000000	1775777774.649839
693.900000	-2612.880000	-5879.790000	19949.805000	14218.695000	3981.555000	-15739.155000	-14094.945000	0.953201	-2.492709	-5.954912	-4.930834	-2.029616	0.143730	5.077811	5.269285	-1.922760	2.029580	0.335720	-0.748533	-0.095093	0.642271	-1.000000	-1.000000	-1.000000	-1.000000	-1.000000	-1.000000	-1.000000	57.000000	0.000000	-1.000000	-1.000000	525207.000000	1775777774.670287
699.480000	-2605.545000	-5870.565000	19960.425000	14218.785000	3981.645000	-15741.450000	-14093.415000	-0.259055	-2.704302	-5.163863	-4.480403	-3.483311	1.162059	5.407507	2.559675	-1.922760	2.029580	0.335720	-0.748533	-0.095093	0.642271	-1.000000	-1.000000	-1.000000	-1.000000	-1.000000	-1.000000	-1.000000	57.000000	0.000000	-1.000000	-1.000000	525208.000000	1775777774.670313
699.165000	-2610.585000	-5880.015000	19945.935000	14210.505000	3967.830000	-15754.275000	-14095.665000	-1.657269	-2.757196	-3.166439	-2.758489	-3.344656	2.611311	3.292228	-1.671660	-1.922760	2.029580	0.335720	-0.748533	-0.095093	0.642271	-1.000000	-1.000000	-1.000000	-1.000000	-1.000000	-1.000000	-1.000000	57.000000	0.000000	-1.000000	-1.000000	525209.000000	1775777774.670344
688.500000	-2620.845000	-5889.240000	19936.710000	14226.660000	4008.825000	-15739.650000	-14106.015000	-1.982042	-2.548768	-1.423057	-1.413252	-1.923730	4.337268	0.131047	-4.716525	-1.922760	2.029580	0.335720	-0.748533	-0.095093	0.642271	-1.000000	-1.000000	-1.000000	-1.000000	-1.000000	-1.000000	-1.000000	57.000000	0.000000	-1.000000	-1.000000	525210.000000	1775777774.670356
692.010000	-2620.485000	-5891.085000	19930.320000	14225.175000	4004.685000	-15739.920000	-14101.785000	-1.424864	-2.394579	-1.053601	-1.646701	0.551379	6.754378	-1.782733	-5.341124	-1.922760	2.029580	0.335720	-0.748533	-0.095093	0.642271	-1.000000	-1.000000	-1.000000	-1.000000	-1.000000	-1.000000	-1.000000	57.000000	0.000000	-1.000000	-1.000000	525211.000000	1775777774.670545
702.360000	-2612.340000	-5886.630000	19932.660000	14226.300000	3991.095000	-15748.380000	-14093.865000	-0.328346	-1.916323	-1.376900	-2.556336	3.280479	8.624976	-1.390682	-3.435985	-1.922760	2.029580	0.335720	-0.748533	-0.095093	0.642271	-1.000000	-1.000000	-1.000000	-1.000000	-1.000000	-1.000000	-1.000000	57.000000	0.000000	-1.000000	-1.000000	525212.000000	1775777774.670561
701.550000	-2611.080000	-5885.730000	19935.360000	14230.665000	4000.635000	-15736.680000	-14094.630000	1.519325	-0.115530	-0.662394	-2.024960	4.674714	6.749605	0.039372	0.425959	-0.610400	1.510740	0.946120	-0.748289	-0.097717	0.642576	-1.000000	-1.000000	-1.000000	-1.000000	-1.000000	-1.000000	-1.000000	57.000000	0.000000	-1.000000	-1.000000	525213.000000	1775777774.670581
