Channel1	Channel2	Channel3	Channel4	Channel5	Channel6	Channel7	Channel8	FilteredChannel1	FilteredChannel2	FilteredChannel3	FilteredChannel4	FilteredChannel5	FilteredChannel6	FilteredChannel7	FilteredChannel8	GyroX	GyroY	GyroZ	AccX	AccY	AccZ	PPG1	PPG2	rawPPG1	rawPPG2	rawPPG3	Hr	Hrv	Battery	Trigger	PhysicalTrigger	AutoTrigger	NumMeasurements	Timestamp
-13230.855000	-36034.155000	40883.130000	34050.825000	48463.290000	14997.780000	-20397.780000	-54185.175000	-4.171139	-6.443042	-5.527976	-4.818195	-1.905286	-14.106903	-7.011267	-11.351644	-2.975700	1.388660	1.144500	-0.840696	-0.092773	0.521666	-1.000000	-1.000000	-1.000000	-1.000000	-1.000000	-1.000000	-1.000000	61.000000	0.000000	-1.000000	-1.000000	526175.000000	1775765926.340766
-13248.765000	-36053.505000	40868.010000	34038.180000	48453.345000	15022.665000	-20402.865000	-54187.515000	3.894276	4.468913	4.911673	6.387926	10.087598	-5.845512	-1.119669	-4.531998	-2.975700	1.388660	1.144500	-0.840696	-0.092773	0.521666	-1.000000	-1.000000	-1.000000	-1.000000	-1.000000	-1.000000	-1.000000	61.000000	0.000000	-1.000000	-1.000000	526176.000000	1775765926.350848
-13253.085000	-36062.865000	40860.540000	34030.890000	48440.385000	15012.225000	-20401.515000	-54185.040000	8.939347	11.682150	11.688487	13.745420	16.967759	9.461086	6.830838	5.507170	-2.975700	1.388660	1.144500	-0.840696	-0.092773	0.521666	-1.000000	-1.000000	-1.000000	-1.000000	-1.000000	-1.000000	-1.000000	61.000000	0.000000	-1.000000	-1.000000	526177.000000	1775765926.350872
-13251.015000	-36068.805000	40851.855000	34015.320000	48417.210000	15021.495000	-20401.110000	-54181.215000	7.150935	10.019999	9.614127	11.349541	12.239472	19.537206	10.831361	11.989735	-2.975700	1.388660	1.144500	-0.840696	-0.092773	0.521666	-1.000000	-1.000000	-1.000000	-1.000000	-1.000000	-1.000000	-1.000000	61.000000	0.000000	-1.000000	-1.000000	526178.000000	1775765926.350895
-13249.395000	-36059.715000	40865.805000	34031.250000	48439.440000	15030.045000	-20396.340000	-54184.455000	1.057118	2.175737	1.225312	1.466796	-1.138672	16.948920	8.812817	11.621841	-2.975700	1.388660	1.144500	-0.840696	-0.092773	0.521666	-1.000000	-1.000000	-1.000000	-1.000000	-1.000000	-1.000000	-1.000000	61.000000	0.000000	-1.000000	-1.000000	526179.000000	1775765926.350907
-13261.905000	-36072.270000	40858.155000	34025.130000	48433.635000	15005.520000	-20397.510000	-54193.545000	-4.535626	-5.246888	-6.566213	-8.190352	-13.283766	4.264373	2.996805	5.533912	-0.061040	0.350980	0.259420	-0.841001	-0.096069	0.522093	-1.000000	-1.000000	-1.000000	-1.000000	-1.000000	-1.000000	-1.000000	61.000000	0.000000	-1.000000	-1.000000	526180.000000	1775765926.355029
-13254.840000	-36067.410000	40866.030000	34035.120000	48445.425000	15021.135000	-20385.315000	-54185.535000	-7.000447	-8.133899	-9.095308	-11.596151	-16.455602	-10.962931	-2.920475	-2.622537	-0.061040	0.350980	0.259420	-0.841001	-0.096069	0.522093	-1.000000	-1.000000	-1.000000	-1.000000	-1.000000	-1.000000	-1.000000	61.000000	0.000000	-1.000000	-1.000000	526181.000000	1775765926.355066
-13251.195000	-36068.220000	40867.065000	34037.325000	48443.985000	15006.780000	-20386.980000	-54180.045000	-5.846535	-6.369621	-6.361153	-8.206016	-10.577690	-21.113009	-6.161420	-8.359250	-0.061040	0.350980	0.259420	-0.841001	-0.096069	0.522093	-1.000000	-1.000000	-1.000000	-1.000000	-1.000000	-1.000000	-1.000000	61.000000	0.000000	-1.000000	-1.000000	526182.000000	1775765926.362665
-13253.355000	-36069.255000	40868.550000	34039.350000	48447.855000	15015.600000	-20397.465000	-54184.500000	-1.942242	-1.981503	-1.127361	-1.428171	-0.922263	-21.931560	-6.478622	-9.043948	-0.061040	0.350980	0.259420	-0.841001	-0.096069	0.522093	-1.000000	-1.000000	-1.000000	-1.000000	-1.000000	-1.000000	-1.000000	61.000000	0.000000	-1.000000	-1.000000	526183.000000	1775765926.362692
-13250.205000	-36066.690000	40873.860000	34042.590000	48449.610000	15021.810000	-20412.630000	-54182.700000	2.455258	2.410639	3.455091	4.453714	6.761199	-14.147337	-5.899256	-5.745493	-0.061040	0.350980	0.259420	-0.841001	-0.096069	0.522093	-1.000000	-1.000000	-1.000000	-1.000000	-1.000000	-1.000000	-1.000000	61.000000	0.000000	-1.000000	-1.000000	526184.000000	1775765926.529643
-13242.870000	-36061.830000	40876.785000	34042.410000	48440.385000	15000.660000	-20416.455000	-54174.915000	5.232838	5.028104	5.583116	6.804393	9.318130	-2.320716	-5.962955	-1.250774	-0.061040	0.350980	0.259420	-0.841001	-0.096069	0.522093	-1.000000	-1.000000	-1.000000	-1.000000	-1.000000	-1.000000	-1.000000	61.000000	0.000000	-1.000000	-1.000000	526185.000000	1775765926.529672
-13235.715000	-36053.640000	40884.705000	34044.300000	48430.485000	14993.505000	-20432.250000	-54174.015000	5.898851	5.634730	5.232416	5.480124	6.541785	7.239709	-6.031972	2.520207	-0.061040	0.350980	0.259420	-0.841001	-0.096069	0.522093	-1.000000	-1.000000	-1.000000	-1.000000	-1.000000	-1.000000	-1.000000	61.000000	0.000000	-1.000000	-1.000000	526186.000000	1775765926.529699
-13244.940000	-36066.105000	40875.210000	34031.925000	48416.355000	14963.940000	-20437.515000	-54182.205000	4.730690	4.538688	3.159902	1.833363	0.422585	10.232868	-4.747501	4.398425	-0.061040	0.350980	0.259420	-0.841001	-0.096069	0.522093	-1.000000	-1.000000	-1.000000	-1.000000	-1.000000	-1.000000	-1.000000	61.000000	0.000000	-1.000000	-1.000000	526187.000000	1775765926.529707
-13266.270000	-36096.030000	40844.205000	34003.845000	48406.455000	14961.555000	-20422.260000	-54194.805000	1.398402	1.168168	-0.576133	-2.954913	-5.777771	7.092465	-1.234050	3.426854	-0.061040	0.350980	0.259420	-0.841001	-0.096069	0.522093	-1.000000	-1.000000	-1.000000	-1.000000	-1.000000	-1.000000	-1.000000	61.000000	0.000000	-1.000000	-1.000000	526188.000000	1775765926.529954
-13273.245000	-36103.905000	40839.210000	34004.745000	48422.160000	14993.550000	-20426.805000	-54200.835000	-4.065646	-4.763703	-6.002792	-7.783105	-8.553323	2.788258	4.522239	-0.122419	-0.061040	0.350980	0.259420	-0.841001	-0.096069	0.522093	-1.000000	-1.000000	-1.000000	-1.000000	-1.000000	-1.000000	-1.000000	61.000000	0.000000	-1.000000	-1.000000	526189.000000	1775765926.529976
-13276.170000	-36104.805000	40843.710000	34013.475000	48425.895000	15004.395000	-20427.840000	-54203.220000	-9.221159	-10.419528	-10.485622	-9.849757	-5.592537	3.203450	10.337498	-3.994715	0.671440	0.503580	0.213640	-0.841001	-0.096863	0.520568	-1.000000	-1.000000	-1.000000	-1.000000	-1.000000	-1.000000	-1.000000	61.000000	0.000000	-1.000000	-1.000000	526190.000000	1775765926.530000
-13270.500000	-36099.945000	40850.370000	34017.930000	48425.400000	14994.495000	-20419.155000	-54197.955000	-10.288975	-11.128150	-9.746194	-6.239954	1.802333	8.471892	12.935007	-5.269539	0.671440	0.503580	0.213640	-0.841001	-0.096863	0.520568	-1.000000	-1.000000	-1.000000	-1.000000	-1.000000	-1.000000	-1.000000	61.000000	0.000000	-1.000000	-1.000000	526191.000000	1775765926.530013
-13261.410000	-36088.875000	40865.985000	34032.555000	48437.550000	15005.025000	-20413.035000	-54192.465000	-5.557383	-5.027060	-2.522505	2.246338	9.043006	12.503847	11.254453	-2.600700	0.671440	0.503580	0.213640	-0.841001	-0.096863	0.520568	-1.000000	-1.000000	-1.000000	-1.000000	-1.000000	-1.000000	-1.000000	61.000000	0.000000	-1.000000	-1.000000	526192.000000	1775765926.530028
-13260.600000	-36087.480000	40871.475000	34037.505000	48440.835000	15002.640000	-20423.835000	-54194.670000	2.883276	5.004497	7.779693	11.212996	12.261445	10.538857	6.433731	2.583829	0.671440	0.503580	0.213640	-0.841001	-0.096863	0.520568	-1.000000	-1.000000	-1.000000	-1.000000	-1.000000	-1.000000	-1.000000	61.000000	0.000000	-1.000000	-1.000000	526193.000000	1775765926.530039
-13251.465000	-36086.355000	40871.835000	34034.535000	48439.485000	14992.695000	-20423.835000	-54184.815000	10.488649	13.328538	15.387769	15.716122	10.375111	3.048040	-0.111974	7.129292	0.671440	0.503580	0.213640	-0.841001	-0.096863	0.520568	-1.000000	-1.000000	-1.000000	-1.000000	-1.000000	-1.000000	-1.000000	61.000000	0.000000	-1.000000	-1.000000	526194.000000	1775765926.530053
-13244.715000	-36084.510000	40872.195000	34032.420000	48437.595000	14996.745000	-20421.405000	-54175.770000	13.574753	15.441449	15.899466	13.046839	4.388854	-6.353032	-6.445493	8.843539	0.671440	0.503580	0.213640	-0.841001	-0.096863	0.520568	-1.000000	-1.000000	-1.000000	-1.000000	-1.000000	-1.000000	-1.000000	61.000000	0.000000	-1.000000	-1.000000	526195.000000	1775765926.530064
-13249.980000	-36088.335000	40873.770000	34033.005000	48433.905000	15020.055000	-20424.870000	-54181.170000	11.194984	10.756792	9.230191	4.540230	-3.231513	-12.754775	-10.106323	7.411981	0.671440	0.503580	0.213640	-0.841001	-0.096863	0.520568	-1.000000	-1.000000	-1.000000	-1.000000	-1.000000	-1.000000	-1.000000	61.000000	0.000000	-1.000000	-1.000000	526196.000000	1775765926.530078
-13249.755000	-36088.335000	40872.690000	34035.210000	48427.065000	15014.160000	-20429.055000	-54182.520000	4.574448	2.160743	-0.734884	-5.192703	-9.515710	-12.583918	-10.033519	3.257188	0.671440	0.503580	0.213640	-0.841001	-0.096863	0.520568	-1.000000	-1.000000	-1.000000	-1.000000	-1.000000	-1.000000	-1.000000	61.000000	0.000000	-1.000000	-1.000000	526197.000000	1775765926.530089
-13253.220000	-36095.625000	40863.285000	34028.055000	48420.990000	14969.475000	-20436.840000	-54185.985000	-3.554605	-6.283685	-9.348817	-11.612651	-12.399653	-7.940081	-7.287815	-2.464936	0.671440	0.503580	0.213640	-0.841001	-0.096863	0.520568	-1.000000	-1.000000	-1.000000	-1.000000	-1.000000	-1.000000	-1.000000	61.000000	0.000000	-1.000000	-1.000000	526198.000000	1775765926.530102
-13256.955000	-36102.015000	40858.380000	34020.045000	48409.785000	14968.530000	-20440.395000	-54191.970000	-9.919710	-11.544999	-13.883912	-13.096409	-11.454197	-4.791803	-3.698680	-7.614790	0.671440	0.503580	0.213640	-0.841001	-0.096863	0.520568	-1.000000	-1.000000	-1.000000	-1.000000	-1.000000	-1.000000	-1.000000	61.000000	0.000000	-1.000000	-1.000000	526199.000000	1775765926.530113
-13257.585000	-36106.875000	40851.630000	34013.880000	48394.935000	14978.610000	-20437.830000	-54196.515000	-12.311707	-12.546463	-13.770919	-10.743557	-7.816607	-4.607706	-0.352636	-10.225109	-1.907500	1.739640	0.061040	-0.839842	-0.094177	0.520262	-1.000000	-1.000000	-1.000000	-1.000000	-1.000000	-1.000000	-1.000000	61.000000	0.000000	-1.000000	-1.000000	526200.000000	1775765926.530127
-13259.835000	-36101.565000	40860.855000	34025.895000	48405.915000	14989.635000	-20427.930000	-54194.580000	-10.363870	-9.578129	-9.580835	-6.067282	-2.941408	-2.951583	2.804741	-9.395956	-1.907500	1.739640	0.061040	-0.839842	-0.094177	0.520262	-1.000000	-1.000000	-1.000000	-1.000000	-1.000000	-1.000000	-1.000000	61.000000	0.000000	-1.000000	-1.000000	526201.000000	1775765926.530138
-13256.820000	-36091.980000	40874.895000	34039.350000	48426.480000	14962.185000	-20430.630000	-54185.940000	-5.329776	-3.565424	-2.303583	0.298353	3.044650	2.434359	5.833536	-5.239719	-1.907500	1.739640	0.061040	-0.839842	-0.094177	0.520262	-1.000000	-1.000000	-1.000000	-1.000000	-1.000000	-1.000000	-1.000000	61.000000	0.000000	-1.000000	-1.000000	526202.000000	1775765926.530152
-13244.940000	-36076.590000	40893.210000	34055.910000	48451.590000	14953.680000	-20446.830000	-54175.410000	0.886761	3.925561	6.422858	7.505196	10.421203	7.730934	7.323652	1.147067	-1.907500	1.739640	0.061040	-0.839842	-0.094177	0.520262	-1.000000	-1.000000	-1.000000	-1.000000	-1.000000	-1.000000	-1.000000	61.000000	0.000000	-1.000000	-1.000000	526203.000000	1775765926.530163
-13238.190000	-36075.015000	40894.110000	34053.030000	48452.535000	14979.870000	-20455.020000	-54167.985000	6.583992	10.378383	13.602851	13.041021	17.057631	9.241190	5.329518	7.567792	-1.907500	1.739640	0.061040	-0.839842	-0.094177	0.520262	-1.000000	-1.000000	-1.000000	-1.000000	-1.000000	-1.000000	-1.000000	61.000000	0.000000	-1.000000	-1.000000	526204.000000	1775765926.530176
-13258.800000	-36108.270000	40852.395000	34010.235000	48415.590000	15034.770000	-20424.645000	-54173.745000	9.671187	12.183444	14.815677	12.819053	17.759547	9.306440	0.911175	11.111941	-1.907500	1.739640	0.061040	-0.839842	-0.094177	0.520262	-1.000000	-1.000000	-1.000000	-1.000000	-1.000000	-1.000000	-1.000000	61.000000	0.000000	-1.000000	-1.000000	526205.000000	1775765926.530186
-13269.780000	-36114.750000	40833.270000	33998.535000	48395.790000	15029.055000	-20399.760000	-54169.695000	7.800105	6.727324	6.928725	4.322908	8.401735	11.572465	-1.260575	9.717050	-1.907500	1.739640	0.061040	-0.839842	-0.094177	0.520262	-1.000000	-1.000000	-1.000000	-1.000000	-1.000000	-1.000000	-1.000000	61.000000	0.000000	-1.000000	-1.000000	526206.000000	1775765926.530200
-13278.285000	-36124.965000	40847.220000	34015.455000	48420.720000	15006.330000	-20421.765000	-54186.885000	1.224567	-3.593564	-6.500130	-8.208160	-7.342142	12.884388	1.004042	3.798832	-1.907500	1.739640	0.061040	-0.839842	-0.094177	0.520262	-1.000000	-1.000000	-1.000000	-1.000000	-1.000000	-1.000000	-1.000000	61.000000	0.000000	-1.000000	-1.000000	526207.000000	1775765926.530210
-13283.280000	-36135.585000	40842.900000	34010.595000	48415.815000	15002.235000	-20444.895000	-54196.245000	-6.036763	-12.225386	-15.868426	-15.485822	-18.789939	6.717802	3.098681	-4.156803	-1.907500	1.739640	0.061040	-0.839842	-0.094177	0.520262	-1.000000	-1.000000	-1.000000	-1.000000	-1.000000	-1.000000	-1.000000	61.000000	0.000000	-1.000000	-1.000000	526208.000000	1775765926.530224
-13276.170000	-36132.255000	40846.500000	34011.675000	48415.095000	15011.010000	-20462.940000	-54201.555000	-9.257982	-14.071565	-14.765306	-12.633558	-18.881680	-6.353691	-0.448392	-10.796163	-1.907500	1.739640	0.061040	-0.839842	-0.094177	0.520262	-1.000000	-1.000000	-1.000000	-1.000000	-1.000000	-1.000000	-1.000000	61.000000	0.000000	-1.000000	-1.000000	526209.000000	1775765926.530234
-13241.385000	-36095.445000	40887.135000	34049.970000	48449.655000	15036.705000	-20433.195000	-54179.685000	-5.848551	-7.791455	-4.495781	-2.319003	-9.337915	-17.636246	-7.770586	-12.513793	-1.159760	2.212700	-1.312360	-0.838621	-0.093261	0.523131	-1.000000	-1.000000	-1.000000	-1.000000	-1.000000	-1.000000	-1.000000	61.000000	0.000000	-1.000000	-1.000000	526210.000000	1775765926.530248
-13243.140000	-36098.505000	40885.515000	34046.370000	48440.745000	15005.205000	-20443.680000	-54183.195000	3.118132	4.316705	9.285440	9.833584	3.777047	-19.939935	-11.421171	-7.501606	-1.159760	2.212700	-1.312360	-0.838621	-0.093261	0.523131	-1.000000	-1.000000	-1.000000	-1.000000	-1.000000	-1.000000	-1.000000	61.000000	0.000000	-1.000000	-1.000000	526211.000000	1775765926.530258
-13251.780000	-36109.080000	40874.670000	34038.225000	48433.995000	14979.195000	-20450.070000	-54191.655000	11.832343	15.485864	18.862806	17.392767	13.303467	-15.033823	-7.842677	1.376073	-1.159760	2.212700	-1.312360	-0.838621	-0.093261	0.523131	-1.000000	-1.000000	-1.000000	-1.000000	-1.000000	-1.000000	-1.000000	61.000000	0.000000	-1.000000	-1.000000	526212.000000	1775765926.530271
-13257.495000	-36114.345000	40868.910000	34029.585000	48424.815000	14983.065000	-20444.895000	-54197.055000	13.410951	18.075846	17.836371	15.375358	13.893011	-9.043054	-0.476088	8.123098	-1.159760	2.212700	-1.312360	-0.838621	-0.093261	0.523131	-1.000000	-1.000000	-1.000000	-1.000000	-1.000000	-1.000000	-1.000000	61.000000	0.000000	-1.000000	-1.000000	526213.000000	1775765926.530282
-13267.620000	-36127.305000	40856.625000	34010.280000	48407.580000	14989.455000	-20433.825000	-54191.745000	6.326907	10.397380	6.595077	4.460553	5.930091	-3.723972	6.131199	9.274774	-1.159760	2.212700	-1.312360	-0.838621	-0.093261	0.523131	-1.000000	-1.000000	-1.000000	-1.000000	-1.000000	-1.000000	-1.000000	61.000000	0.000000	-1.000000	-1.000000	526214.000000	1775765926.530295
-13272.975000	-36131.445000	40854.645000	34009.470000	48415.680000	15003.180000	-20429.550000	-54190.080000	-4.738047	-2.368808	-7.928381	-9.174743	-4.934807	2.953283	9.990289	6.235392	-1.159760	2.212700	-1.312360	-0.838621	-0.093261	0.523131	-1.000000	-1.000000	-1.000000	-1.000000	-1.000000	-1.000000	-1.000000	61.000000	0.000000	-1.000000	-1.000000	526215.000000	1775765926.530306
-13263.480000	-36127.215000	40857.885000	34012.080000	48410.820000	14999.760000	-20436.930000	-54183.330000	-13.012206	-12.682048	-17.585371	-17.879654	-11.809988	10.932502	10.308899	2.418564	-1.159760	2.212700	-1.312360	-0.838621	-0.093261	0.523131	-1.000000	-1.000000	-1.000000	-1.000000	-1.000000	-1.000000	-1.000000	61.000000	0.000000	-1.000000	-1.000000	526216.000000	1775765926.530319
-13255.695000	-36123.075000	40865.625000	34020.720000	48415.185000	14993.370000	-20443.590000	-54178.875000	-13.782926	-15.264339	-17.762303	-16.978945	-11.136589	16.489417	6.622716	0.077715	-1.159760	2.212700	-1.312360	-0.838621	-0.093261	0.523131	-1.000000	-1.000000	-1.000000	-1.000000	-1.000000	-1.000000	-1.000000	61.000000	0.000000	-1.000000	-1.000000	526217.000000	1775765926.530329
-13255.740000	-36117.720000	40877.280000	34033.545000	48430.170000	15002.010000	-20443.545000	-54178.965000	-7.226032	-9.832171	-9.327207	-7.415136	-4.252820	16.035683	0.077093	-0.610189	-1.159760	2.212700	-1.312360	-0.838621	-0.093261	0.523131	-1.000000	-1.000000	-1.000000	-1.000000	-1.000000	-1.000000	-1.000000	61.000000	0.000000	-1.000000	-1.000000	526218.000000	1775765926.530343
-13258.980000	-36121.140000	40877.865000	34034.940000	48432.555000	15004.260000	-20448.630000	-54178.155000	1.828293	-0.622214	2.544582	5.257193	4.790435	10.085497	-6.219902	-0.808445	-1.159760	2.212700	-1.312360	-0.838621	-0.093261	0.523131	-1.000000	-1.000000	-1.000000	-1.000000	-1.000000	-1.000000	-1.000000	61.000000	0.000000	-1.000000	-1.000000	526219.000000	1775765926.530353
-13262.535000	-36122.985000	40879.665000	34037.010000	48434.040000	15013.890000	-20452.905000	-54184.680000	7.790735	6.787220	11.495860	14.280001	11.345785	2.369056	-9.389125	-1.630800	0.839300	1.403920	0.091560	-0.837217	-0.095031	0.526061	-1.000000	-1.000000	-1.000000	-1.000000	-1.000000	-1.000000	-1.000000	61.000000	0.000000	-1.000000	-1.000000	526220.000000	1775765926.530366
-13253.805000	-36117.720000	40882.770000	34036.920000	48427.335000	14984.820000	-20456.280000	-54185.895000	8.425155	9.147215	13.638096	15.561271	12.038883	-4.194101	-8.650894	-3.229909	0.839300	1.403920	0.091560	-0.837217	-0.095031	0.526061	-1.000000	-1.000000	-1.000000	-1.000000	-1.000000	-1.000000	-1.000000	61.000000	0.000000	-1.000000	-1.000000	526221.000000	1775765926.530377
-13248.630000	-36118.620000	40876.965000	34026.435000	48413.970000	14977.845000	-20450.970000	-54182.430000	5.545019	6.974859	9.298603	9.507036	6.523046	-9.333066	-4.919967	-4.616109	0.839300	1.403920	0.091560	-0.837217	-0.095031	0.526061	-1.000000	-1.000000	-1.000000	-1.000000	-1.000000	-1.000000	-1.000000	61.000000	0.000000	-1.000000	-1.000000	526222.000000	1775765926.530390
-13259.250000	-36133.065000	40862.925000	34012.485000	48405.510000	15026.535000	-20441.745000	-54185.220000	1.947690	2.499808	1.408367	-0.422619	-2.456208	-11.922852	0.403113	-4.452455	0.839300	1.403920	0.091560	-0.837217	-0.095031	0.526061	-1.000000	-1.000000	-1.000000	-1.000000	-1.000000	-1.000000	-1.000000	61.000000	0.000000	-1.000000	-1.000000	526223.000000	1775765926.530401
-13253.805000	-36129.780000	40869.315000	34019.280000	48411.045000	14981.445000	-20437.290000	-54176.355000	-1.181037	-2.389855	-6.416986	-9.589360	-10.191568	-9.331367	5.728526	-2.361135	0.839300	1.403920	0.091560	-0.837217	-0.095031	0.526061	-1.000000	-1.000000	-1.000000	-1.000000	-1.000000	-1.000000	-1.000000	61.000000	0.000000	-1.000000	-1.000000	526224.000000	1775765926.530414
-13255.065000	-36132.795000	40870.350000	34022.250000	48417.570000	14953.905000	-20451.015000	-54177.165000	-3.389325	-5.817323	-10.536899	-13.491473	-12.247895	-3.993577	8.791253	0.857675	0.839300	1.403920	0.091560	-0.837217	-0.095031	0.526061	-1.000000	-1.000000	-1.000000	-1.000000	-1.000000	-1.000000	-1.000000	61.000000	0.000000	-1.000000	-1.000000	526225.000000	1775765926.530425
-13257.810000	-36136.035000	40870.080000	34023.375000	48420.630000	14952.870000	-20457.720000	-54182.115000	-4.145756	-6.308224	-9.117838	-10.367888	-7.536718	-1.606658	7.409625	3.589734	0.839300	1.403920	0.091560	-0.837217	-0.095031	0.526061	-1.000000	-1.000000	-1.000000	-1.000000	-1.000000	-1.000000	-1.000000	61.000000	0.000000	-1.000000	-1.000000	526226.000000	1775765926.530439
-13261.230000	-36138.645000	40870.620000	34026.390000	48427.335000	14996.610000	-20462.490000	-54186.480000	-3.600019	-4.123477	-3.712923	-2.717504	0.792050	-1.359853	1.904640	4.148947	0.839300	1.403920	0.091560	-0.837217	-0.095031	0.526061	-1.000000	-1.000000	-1.000000	-1.000000	-1.000000	-1.000000	-1.000000	61.000000	0.000000	-1.000000	-1.000000	526227.000000	1775765926.530449
-13265.100000	-36146.070000	40864.725000	34018.290000	48418.470000	14999.805000	-20458.305000	-54186.570000	-2.459088	-0.910925	2.152830	4.744648	7.759212	2.453608	-4.242262	2.296823	0.839300	1.403920	0.091560	-0.837217	-0.095031	0.526061	-1.000000	-1.000000	-1.000000	-1.000000	-1.000000	-1.000000	-1.000000	61.000000	0.000000	-1.000000	-1.000000	526228.000000	1775765926.530463
-13259.430000	-36142.695000	40871.385000	34023.780000	48422.835000	15012.450000	-20448.405000	-54180.225000	-1.105177	1.738432	5.665936	8.370439	9.782443	10.364833	-6.952886	-0.270296	0.839300	1.403920	0.091560	-0.837217	-0.095031	0.526061	-1.000000	-1.000000	-1.000000	-1.000000	-1.000000	-1.000000	-1.000000	61.000000	0.000000	-1.000000	-1.000000	526229.000000	1775765926.530473
-13254.840000	-36136.980000	40882.095000	34037.325000	48433.095000	15016.005000	-20448.090000	-54175.905000	0.668310	3.413630	6.440597	7.848954	6.954033	16.404986	-4.732588	-1.412662	-0.106820	1.312360	0.442540	-0.836241	-0.093506	0.528746	-1.000000	-1.000000	-1.000000	-1.000000	-1.000000	-1.000000	-1.000000	61.000000	0.000000	-1.000000	-1.000000	526230.000000	1775765926.530486
-13264.200000	-36145.890000	40875.975000	34033.860000	48430.980000	14994.855000	-20454.660000	-54185.625000	2.645317	4.339581	5.628637	5.381400	2.299882	14.867080	0.101473	-0.704711	-0.106820	1.312360	0.442540	-0.836241	-0.093506	0.528746	-1.000000	-1.000000	-1.000000	-1.000000	-1.000000	-1.000000	-1.000000	61.000000	0.000000	-1.000000	-1.000000	526231.000000	1775765926.530496
-13272.750000	-36157.815000	40863.330000	34019.595000	48420.900000	15017.940000	-20452.410000	-54192.555000	3.406305	3.896449	3.467387	2.242942	-1.806276	5.356256	3.630949	0.144154	-0.106820	1.312360	0.442540	-0.836241	-0.093506	0.528746	-1.000000	-1.000000	-1.000000	-1.000000	-1.000000	-1.000000	-1.000000	61.000000	0.000000	-1.000000	-1.000000	526232.000000	1775765926.530509
-13276.620000	-36164.205000	40856.895000	34011.360000	48407.580000	14985.900000	-20456.730000	-54195.435000	1.901849	1.354618	-0.487333	-1.925091	-5.170765	-7.013163	3.898040	-0.405689	-0.106820	1.312360	0.442540	-0.836241	-0.093506	0.528746	-1.000000	-1.000000	-1.000000	-1.000000	-1.000000	-1.000000	-1.000000	61.000000	0.000000	-1.000000	-1.000000	526233.000000	1775765926.530519
-13268.340000	-36160.020000	40859.685000	34012.845000	48404.520000	14923.170000	-20461.680000	-54189.090000	-0.647537	-2.090329	-4.963691	-6.363371	-7.835303	-17.511962	1.606866	-1.667221	-0.106820	1.312360	0.442540	-0.836241	-0.093506	0.528746	-1.000000	-1.000000	-1.000000	-1.000000	-1.000000	-1.000000	-1.000000	61.000000	0.000000	-1.000000	-1.000000	526234.000000	1775765926.530532
-13263.390000	-36158.220000	40861.935000	34013.970000	48409.695000	14943.330000	-20461.095000	-54185.580000	-1.686451	-3.796571	-7.091073	-8.463300	-8.442435	-24.238497	-1.396466	-1.696278	-0.106820	1.312360	0.442540	-0.836241	-0.093506	0.528746	-1.000000	-1.000000	-1.000000	-1.000000	-1.000000	-1.000000	-1.000000	61.000000	0.000000	-1.000000	-1.000000	526235.000000	1775765926.530543
-13262.670000	-36157.365000	40865.760000	34017.525000	48415.500000	14989.095000	-20461.365000	-54186.345000	-0.173812	-2.420210	-5.210459	-6.413357	-5.393311	-22.460448	-3.249468	0.179977	-0.106820	1.312360	0.442540	-0.836241	-0.093506	0.528746	-1.000000	-1.000000	-1.000000	-1.000000	-1.000000	-1.000000	-1.000000	61.000000	0.000000	-1.000000	-1.000000	526236.000000	1775765926.530556
-13260.465000	-36153.000000	40873.095000	34025.535000	48422.475000	15006.780000	-20467.215000	-54186.345000	2.361122	0.870675	-0.378773	-1.044070	0.848600	-7.448654	-3.097173	2.552918	-0.106820	1.312360	0.442540	-0.836241	-0.093506	0.528746	-1.000000	-1.000000	-1.000000	-1.000000	-1.000000	-1.000000	-1.000000	61.000000	0.000000	-1.000000	-1.000000	526237.000000	1775765926.530567
-13254.840000	-36147.690000	40881.285000	34034.265000	48426.120000	14978.160000	-20470.545000	-54180.315000	3.772503	3.903639	4.813434	5.059033	7.423434	14.603891	-1.624214	3.695126	-0.106820	1.312360	0.442540	-0.836241	-0.093506	0.528746	-1.000000	-1.000000	-1.000000	-1.000000	-1.000000	-1.000000	-1.000000	61.000000	0.000000	-1.000000	-1.000000	526238.000000	1775765926.530580
-13252.365000	-36146.430000	40884.750000	34038.045000	48425.985000	14974.020000	-20466.810000	-54179.010000	3.275223	5.143106	7.939078	9.166742	10.940436	28.741599	0.060081	3.218246	-0.106820	1.312360	0.442540	-0.836241	-0.093506	0.528746	-1.000000	-1.000000	-1.000000	-1.000000	-1.000000	-1.000000	-1.000000	61.000000	0.000000	-1.000000	-1.000000	526239.000000	1775765926.530590
-13256.865000	-36148.995000	40885.605000	34040.475000	48434.265000	15019.245000	-20447.100000	-54179.505000	1.242629	4.000652	7.601829	9.465140	9.774224	27.031928	1.907154	1.663154	-5.615680	2.289000	0.579880	-0.837461	-0.092407	0.526183	-1.000000	-1.000000	-1.000000	-1.000000	-1.000000	-1.000000	-1.000000	61.000000	0.000000	-1.000000	-1.000000	526240.000000	1775765926.530603
-13255.380000	-36150.525000	40885.425000	34039.395000	48437.505000	15037.920000	-20449.035000	-54177.165000	-1.604224	0.815519	3.907334	5.799721	5.082107	15.544746	4.296272	-0.355041	-5.615680	2.289000	0.579880	-0.837461	-0.092407	0.526183	-1.000000	-1.000000	-1.000000	-1.000000	-1.000000	-1.000000	-1.000000	61.000000	0.000000	-1.000000	-1.000000	526241.000000	1775765926.530614
-13263.030000	-36162.585000	40872.060000	34022.745000	48420.855000	14988.330000	-20464.380000	-54184.590000	-4.296568	-3.260920	-1.714730	-0.486630	-0.848260	2.937762	5.762305	-2.299751	-5.615680	2.289000	0.579880	-0.837461	-0.092407	0.526183	-1.000000	-1.000000	-1.000000	-1.000000	-1.000000	-1.000000	-1.000000	61.000000	0.000000	-1.000000	-1.000000	526242.000000	1775765926.530626
-13274.595000	-36171.810000	40867.515000	34021.890000	48422.970000	14990.265000	-20472.750000	-54193.320000	-6.057135	-6.881047	-7.308300	-7.243048	-6.435167	-9.032382	3.691465	-3.942982	-5.615680	2.289000	0.579880	-0.837461	-0.092407	0.526183	-1.000000	-1.000000	-1.000000	-1.000000	-1.000000	-1.000000	-1.000000	61.000000	0.000000	-1.000000	-1.000000	526243.000000	1775765926.530636
-13278.195000	-36176.805000	40866.345000	34021.710000	48415.140000	14983.200000	-20472.120000	-54190.035000	-6.589550	-8.773030	-10.676967	-11.600338	-10.170827	-19.563568	-1.748412	-5.019718	-5.615680	2.289000	0.579880	-0.837461	-0.092407	0.526183	-1.000000	-1.000000	-1.000000	-1.000000	-1.000000	-1.000000	-1.000000	61.000000	0.000000	-1.000000	-1.000000	526244.000000	1775765926.530650
-13281.840000	-36184.590000	40859.910000	34015.095000	48415.230000	14968.935000	-20483.685000	-54190.125000	-5.499756	-7.902561	-10.098210	-11.246292	-10.516886	-24.446415	-7.019501	-4.612982	-5.615680	2.289000	0.579880	-0.837461	-0.092407	0.526183	-1.000000	-1.000000	-1.000000	-1.000000	-1.000000	-1.000000	-1.000000	61.000000	0.000000	-1.000000	-1.000000	526245.000000	1775765926.530660
-13281.840000	-36194.490000	40846.005000	33999.705000	48398.895000	14972.355000	-20491.965000	-54193.905000	-2.476848	-4.397030	-6.008839	-6.789179	-7.489766	-20.952256	-9.038035	-2.231235	-5.615680	2.289000	0.579880	-0.837461	-0.092407	0.526183	-1.000000	-1.000000	-1.000000	-1.000000	-1.000000	-1.000000	-1.000000	61.000000	0.000000	-1.000000	-1.000000	526246.000000	1775765926.530673
-13260.735000	-36169.110000	40873.005000	34025.760000	48427.650000	15027.120000	-20467.080000	-54189.765000	2.236605	0.781160	-0.283459	-0.698965	-2.352833	-9.428670	-6.816637	1.147129	-5.615680	2.289000	0.579880	-0.837461	-0.092407	0.526183	-1.000000	-1.000000	-1.000000	-1.000000	-1.000000	-1.000000	-1.000000	61.000000	0.000000	-1.000000	-1.000000	526247.000000	1775765926.530684
-13260.735000	-36169.110000	40873.005000	34025.760000	48427.650000	15027.120000	-20467.080000	-54189.765000	7.692090	6.887752	5.975477	5.622918	3.998957	7.501605	-0.621099	4.043804	-5.615680	2.289000	0.579880	-0.837461	-0.092407	0.526183	-1.000000	-1.000000	-1.000000	-1.000000	-1.000000	-1.000000	-1.000000	61.000000	0.000000	-1.000000	-1.000000	526248.000000	1775765926.537849
-13260.735000	-36169.110000	40873.005000	34025.760000	48427.650000	15027.120000	-20467.080000	-54189.765000	11.487247	12.035487	11.242246	10.823009	9.872129	22.573948	6.914235	5.452643	-5.615680	2.289000	0.579880	-0.837461	-0.092407	0.526183	-1.000000	-1.000000	-1.000000	-1.000000	-1.000000	-1.000000	-1.000000	61.000000	0.000000	-1.000000	-1.000000	526249.000000	1775765926.537874
-13260.735000	-36169.110000	40873.005000	34025.760000	48427.650000	15027.120000	-20467.080000	-54189.765000	10.854291	13.064266	12.681937	12.358789	12.108507	26.882731	11.256391	4.966406	-5.615680	2.289000	0.579880	-0.837461	-0.092407	0.526183	-1.000000	-1.000000	-1.000000	-1.000000	-1.000000	-1.000000	-1.000000	61.000000	0.000000	-1.000000	-1.000000	526250.000000	1775765926.537885
-13260.735000	-36169.110000	40873.005000	34025.760000	48427.650000	15027.120000	-20467.080000	-54189.765000	5.551863	8.778454	9.047758	9.055255	9.156636	18.122708	9.921102	2.933066	-5.615680	2.289000	0.579880	-0.837461	-0.092407	0.526183	-1.000000	-1.000000	-1.000000	-1.000000	-1.000000	-1.000000	-1.000000	61.000000	0.000000	-1.000000	-1.000000	526251.000000	1775765926.537893
-13260.735000	-36169.110000	40873.005000	34025.760000	48427.650000	15027.120000	-20467.080000	-54189.765000	-1.737149	1.299238	2.204903	2.619043	2.740571	2.174243	4.240106	0.313101	-5.615680	2.289000	0.579880	-0.837461	-0.092407	0.526183	-1.000000	-1.000000	-1.000000	-1.000000	-1.000000	-1.000000	-1.000000	61.000000	0.000000	-1.000000	-1.000000	526252.000000	1775765926.537902
-13260.735000	-36169.110000	40873.005000	34025.760000	48427.650000	15027.120000	-20467.080000	-54189.765000	-7.590999	-5.808806	-4.527567	-3.842290	-3.821662	-12.347598	-2.403987	-1.869142	-5.615680	2.289000	0.579880	-0.837461	-0.092407	0.526183	-1.000000	-1.000000	-1.000000	-1.000000	-1.000000	-1.000000	-1.000000	61.000000	0.000000	-1.000000	-1.000000	526253.000000	1775765926.537910
-13260.735000	-36169.110000	40873.005000	34025.760000	48427.650000	15027.120000	-20467.080000	-54189.765000	-9.875898	-9.788239	-8.496305	-7.790929	-7.808705	-19.464496	-6.965542	-2.983179	-5.615680	2.289000	0.579880	-0.837461	-0.092407	0.526183	-1.000000	-1.000000	-1.000000	-1.000000	-1.000000	-1.000000	-1.000000	61.000000	0.000000	-1.000000	-1.000000	526254.000000	1775765926.537918
-13260.735000	-36169.110000	40873.005000	34025.760000	48427.650000	15027.120000	-20467.080000	-54189.765000	-8.454624	-9.811802	-8.819670	-8.322745	-8.258679	-17.990602	-8.108522	-2.943507	-5.615680	2.289000	0.579880	-0.837461	-0.092407	0.526183	-1.000000	-1.000000	-1.000000	-1.000000	-1.000000	-1.000000	-1.000000	61.000000	0.000000	-1.000000	-1.000000	526255.000000	1775765926.537926
-13260.735000	-36169.110000	40873.005000	34025.760000	48427.650000	15027.120000	-20467.080000	-54189.765000	-4.698150	-6.813079	-6.279232	-6.103659	-5.888167	-10.618969	-6.272482	-2.085683	-5.615680	2.289000	0.579880	-0.837461	-0.092407	0.526183	-1.000000	-1.000000	-1.000000	-1.000000	-1.000000	-1.000000	-1.000000	61.000000	0.000000	-1.000000	-1.000000	526256.000000	1775765926.537935
-13260.735000	-36169.110000	40873.005000	34025.760000	48427.650000	15027.120000	-20467.080000	-54189.765000	-0.480000	-2.587869	-2.504201	-2.629642	-2.282583	-1.571841	-2.920399	-0.915846	-5.615680	2.289000	0.579880	-0.837461	-0.092407	0.526183	-1.000000	-1.000000	-1.000000	-1.000000	-1.000000	-1.000000	-1.000000	61.000000	0.000000	-1.000000	-1.000000	526257.000000	1775765926.537943
-13260.735000	-36169.110000	40873.005000	34025.760000	48427.650000	15027.120000	-20467.080000	-54189.765000	2.704770	1.162677	0.922761	0.608333	1.001447	5.575531	0.376211	0.120100	-5.615680	2.289000	0.579880	-0.837461	-0.092407	0.526183	-1.000000	-1.000000	-1.000000	-1.000000	-1.000000	-1.000000	-1.000000	61.000000	0.000000	-1.000000	-1.000000	526258.000000	1775765926.537951
-13260.735000	-36169.110000	40873.005000	34025.760000	48427.650000	15027.120000	-20467.080000	-54189.765000	4.170173	3.423943	3.032606	2.668748	3.007895	9.038434	2.565959	0.765950	-5.615680	2.289000	0.579880	-0.837461	-0.092407	0.526183	-1.000000	-1.000000	-1.000000	-1.000000	-1.000000	-1.000000	-1.000000	61.000000	0.000000	-1.000000	-1.000000	526259.000000	1775765926.537959
-13260.735000	-36169.110000	40873.005000	34025.760000	48427.650000	15027.120000	-20467.080000	-54189.765000	4.014158	3.994859	3.605712	3.305348	3.520466	8.865423	3.318238	0.972867	-5.615680	2.289000	0.579880	-0.837461	-0.092407	0.526183	-1.000000	-1.000000	-1.000000	-1.000000	-1.000000	-1.000000	-1.000000	61.000000	0.000000	-1.000000	-1.000000	526260.000000	1775765926.537966
-13260.735000	-36169.110000	40873.005000	34025.760000	48427.650000	15027.120000	-20467.080000	-54189.765000	2.817914	3.276210	2.987360	2.809343	2.880330	6.286143	2.884689	0.840801	-5.615680	2.289000	0.579880	-0.837461	-0.092407	0.526183	-1.000000	-1.000000	-1.000000	-1.000000	-1.000000	-1.000000	-1.000000	61.000000	0.000000	-1.000000	-1.000000	526261.000000	1775765926.537975
-13260.735000	-36169.110000	40873.005000	34025.760000	48427.650000	15027.120000	-20467.080000	-54189.765000	1.284675	1.926390	1.772954	1.721800	1.673591	2.876528	1.805245	0.532873	-5.615680	2.289000	0.579880	-0.837461	-0.092407	0.526183	-1.000000	-1.000000	-1.000000	-1.000000	-1.000000	-1.000000	-1.000000	61.000000	0.000000	-1.000000	-1.000000	526262.000000	1775765926.537983
-13260.735000	-36169.110000	40873.005000	34025.760000	48427.650000	15027.120000	-20467.080000	-54189.765000	-0.029978	0.557627	0.525380	0.568575	0.451329	-0.085044	0.625643	0.201906	-5.615680	2.289000	0.579880	-0.837461	-0.092407	0.526183	-1.000000	-1.000000	-1.000000	-1.000000	-1.000000	-1.000000	-1.000000	61.000000	0.000000	-1.000000	-1.000000	526263.000000	1775765926.537991
-13260.735000	-36169.110000	40873.005000	34025.760000	48427.650000	15027.120000	-20467.080000	-54189.765000	-0.838085	-0.438178	-0.390064	-0.299331	-0.432664	-1.918373	-0.279140	-0.051512	-5.615680	2.289000	0.579880	-0.837461	-0.092407	0.526183	-1.000000	-1.000000	-1.000000	-1.000000	-1.000000	-1.000000	-1.000000	61.000000	0.000000	-1.000000	-1.000000	526264.000000	1775765926.537999
-13260.735000	-36169.110000	40873.005000	34025.760000	48427.650000	15027.120000	-20467.080000	-54189.765000	-1.107334	-0.926159	-0.843524	-0.747583	-0.857510	-2.530559	-0.757274	-0.188422	-5.615680	2.289000	0.579880	-0.837461	-0.092407	0.526183	-1.000000	-1.000000	-1.000000	-1.000000	-1.000000	-1.000000	-1.000000	61.000000	0.000000	-1.000000	-1.000000	526265.000000	1775765926.538007
-13260.735000	-36169.110000	40873.005000	34025.760000	48427.650000	15027.120000	-20467.080000	-54189.765000	-0.972984	-0.969981	-0.889161	-0.815472	-0.882640	-2.220634	-0.840446	-0.218417	-5.615680	2.289000	0.579880	-0.837461	-0.092407	0.526183	-1.000000	-1.000000	-1.000000	-1.000000	-1.000000	-1.000000	-1.000000	61.000000	0.000000	-1.000000	-1.000000	526266.000000	1775765926.538016
-13260.735000	-36169.110000	40873.005000	34025.760000	48427.650000	15027.120000	-20467.080000	-54189.765000	-0.632356	-0.735000	-0.676796	-0.635936	-0.659438	-1.437360	-0.662244	-0.177265	-5.615680	2.289000	0.579880	-0.837461	-0.092407	0.526183	-1.000000	-1.000000	-1.000000	-1.000000	-1.000000	-1.000000	-1.000000	61.000000	0.000000	-1.000000	-1.000000	526267.000000	1775765926.538024
-13260.735000	-36169.110000	40873.005000	34025.760000	48427.650000	15027.120000	-20467.080000	-54189.765000	-0.262342	-0.399170	-0.369609	-0.358977	-0.349837	-0.586876	-0.377778	-0.105897	-5.615680	2.289000	0.579880	-0.837461	-0.092407	0.526183	-1.000000	-1.000000	-1.000000	-1.000000	-1.000000	-1.000000	-1.000000	61.000000	0.000000	-1.000000	-1.000000	526268.000000	1775765926.538032
-13260.735000	-36169.110000	40873.005000	34025.760000	48427.650000	15027.120000	-20467.080000	-54189.765000	0.023709	-0.096250	-0.091141	-0.100985	-0.074608	0.069352	-0.109361	-0.036570	-5.615680	2.289000	0.579880	-0.837461	-0.092407	0.526183	-1.000000	-1.000000	-1.000000	-1.000000	-1.000000	-1.000000	-1.000000	61.000000	0.000000	-1.000000	-1.000000	526269.000000	1775765926.538039
-13260.735000	-36169.110000	40873.005000	34025.760000	48427.650000	15027.120000	-20467.080000	-54189.765000	0.182631	0.104565	0.094160	0.075105	0.104859	0.431602	0.075655	0.012665	-5.615680	2.289000	0.579880	-0.837461	-0.092407	0.526183	-1.000000	-1.000000	-1.000000	-1.000000	-1.000000	-1.000000	-1.000000	61.000000	0.000000	-1.000000	-1.000000	526270.000000	1775765926.538047
-13260.735000	-36169.110000	40873.005000	34025.760000	48427.650000	15027.120000	-20467.080000	-54189.765000	0.224698	0.191576	0.174874	0.155638	0.179627	0.523921	0.161507	0.037041	-5.615680	2.289000	0.579880	-0.837461	-0.092407	0.526183	-1.000000	-1.000000	-1.000000	-1.000000	-1.000000	-1.000000	-1.000000	61.000000	0.000000	-1.000000	-1.000000	526271.000000	1775765926.538055
-13260.735000	-36169.110000	40873.005000	34025.760000	48427.650000	15027.120000	-20467.080000	-54189.765000	0.188301	0.189704	0.173579	0.159405	0.173787	0.435592	0.166875	0.040727	-5.615680	2.289000	0.579880	-0.837461	-0.092407	0.526183	-1.000000	-1.000000	-1.000000	-1.000000	-1.000000	-1.000000	-1.000000	61.000000	0.000000	-1.000000	-1.000000	526272.000000	1775765926.538063
-13236.840000	-36187.155000	40897.980000	34037.370000	48431.970000	15017.760000	-20486.070000	-54148.590000	0.538009	-0.179944	0.565863	0.322983	0.199692	0.103364	-0.209515	0.756969	3.952340	2.533160	-1.068200	-0.838499	-0.099304	0.524108	-1.000000	-1.000000	-1.000000	-1.000000	-1.000000	-1.000000	-1.000000	61.000000	0.000000	-1.000000	-1.000000	526274.000000	1775765926.541856
-13255.425000	-36204.795000	40886.145000	34026.930000	48430.035000	15006.555000	-20483.460000	-54165.510000	1.644225	-1.692988	1.869650	0.815387	0.376141	-0.849989	-1.416749	3.038660	3.952340	2.533160	-1.068200	-0.838499	-0.099304	0.524108	-1.000000	-1.000000	-1.000000	-1.000000	-1.000000	-1.000000	-1.000000	61.000000	0.000000	-1.000000	-1.000000	526275.000000	1775765926.541881
-13258.980000	-36208.620000	40888.170000	34031.250000	48441.195000	15015.645000	-20484.495000	-54166.005000	2.081100	-4.227591	2.908338	1.022872	0.711038	-2.190748	-2.689290	4.919322	3.952340	2.533160	-1.068200	-0.838499	-0.099304	0.524108	-1.000000	-1.000000	-1.000000	-1.000000	-1.000000	-1.000000	-1.000000	61.000000	0.000000	-1.000000	-1.000000	526276.000000	1775765926.544863
-13264.695000	-36218.790000	40879.620000	34024.275000	48438.630000	15002.235000	-20480.040000	-54166.995000	0.125611	-5.754167	1.723698	0.260481	1.150143	-2.620390	-2.310229	3.187306	3.952340	2.533160	-1.068200	-0.838499	-0.099304	0.524108	-1.000000	-1.000000	-1.000000	-1.000000	-1.000000	-1.000000	-1.000000	61.000000	0.000000	-1.000000	-1.000000	526277.000000	1775765926.544890
-13258.215000	-36213.660000	40883.310000	34024.410000	48437.595000	15001.920000	-20481.120000	-54164.610000	-3.125845	-4.171512	-1.568219	-1.195425	1.251101	-1.548673	0.177897	-1.767317	3.952340	2.533160	-1.068200	-0.838499	-0.099304	0.524108	-1.000000	-1.000000	-1.000000	-1.000000	-1.000000	-1.000000	-1.000000	61.000000	0.000000	-1.000000	-1.000000	526278.000000	1775765926.558580
-13252.680000	-36212.130000	40880.970000	34027.110000	48437.685000	15000.210000	-20483.595000	-54160.650000	-4.683044	0.680908	-4.725405	-2.340228	0.398600	0.299146	3.249149	-6.403303	3.952340	2.533160	-1.068200	-0.838499	-0.099304	0.524108	-1.000000	-1.000000	-1.000000	-1.000000	-1.000000	-1.000000	-1.000000	61.000000	0.000000	-1.000000	-1.000000	526279.000000	1775765926.558606
-13247.955000	-36207.630000	40887.630000	34032.060000	48438.450000	14993.235000	-20482.830000	-54158.355000	-2.911943	6.841489	-5.530160	-2.112342	-1.169910	2.050402	4.862424	-7.774968	0.656180	2.350040	0.457800	-0.838560	-0.093689	0.522399	-1.000000	-1.000000	-1.000000	-1.000000	-1.000000	-1.000000	-1.000000	61.000000	0.000000	-1.000000	-1.000000	526280.000000	1775765926.558663
-13247.685000	-36205.470000	40892.400000	34032.690000	48435.435000	14973.210000	-20487.510000	-54158.445000	0.970135	11.297300	-3.352274	-0.342360	-2.506700	2.668570	4.149972	-5.557313	0.656180	2.350040	0.457800	-0.838560	-0.093689	0.522399	-1.000000	-1.000000	-1.000000	-1.000000	-1.000000	-1.000000	-1.000000	61.000000	0.000000	-1.000000	-1.000000	526281.000000	1775765926.558681
-13240.215000	-36200.880000	40897.440000	34036.560000	48438.540000	14965.830000	-20490.795000	-54154.215000	4.293615	11.840363	0.657842	1.892594	-2.897578	1.288394	1.649138	-1.556579	0.656180	2.350040	0.457800	-0.838560	-0.093689	0.522399	-1.000000	-1.000000	-1.000000	-1.000000	-1.000000	-1.000000	-1.000000	61.000000	0.000000	-1.000000	-1.000000	526282.000000	1775765926.558704
-13241.610000	-36202.275000	40897.170000	34034.580000	48438.675000	15016.635000	-20495.790000	-54158.175000	5.264920	8.258602	4.281639	3.173265	-2.130153	-0.226790	-1.407443	2.027842	0.656180	2.350040	0.457800	-0.838560	-0.093689	0.522399	-1.000000	-1.000000	-1.000000	-1.000000	-1.000000	-1.000000	-1.000000	61.000000	0.000000	-1.000000	-1.000000	526283.000000	1775765926.558716
-13240.800000	-36203.310000	40898.700000	34034.535000	48437.145000	15029.685000	-20491.335000	-54156.150000	3.665611	2.039023	5.546250	2.724725	-0.562382	2.259164	-3.575948	3.770142	0.656180	2.350040	0.457800	-0.838560	-0.093689	0.522399	-1.000000	-1.000000	-1.000000	-1.000000	-1.000000	-1.000000	-1.000000	61.000000	0.000000	-1.000000	-1.000000	526284.000000	1775765926.571983
-13239.855000	-36204.570000	40891.590000	34024.770000	48413.655000	14998.095000	-20492.010000	-54149.400000	0.458646	-4.510969	3.863145	0.660508	0.543451	8.006118	-3.731162	3.634762	0.656180	2.350040	0.457800	-0.838560	-0.093689	0.522399	-1.000000	-1.000000	-1.000000	-1.000000	-1.000000	-1.000000	-1.000000	61.000000	0.000000	-1.000000	-1.000000	526285.000000	1775765926.572009
-13244.805000	-36211.230000	40887.135000	34019.370000	48407.760000	14964.750000	-20489.895000	-54154.080000	-2.821561	-9.222092	0.103766	-2.257752	-0.239585	9.177040	-1.891908	2.611910	0.656180	2.350040	0.457800	-0.838560	-0.093689	0.522399	-1.000000	-1.000000	-1.000000	-1.000000	-1.000000	-1.000000	-1.000000	61.000000	0.000000	-1.000000	-1.000000	526286.000000	1775765926.572036
-13247.595000	-36218.295000	40886.280000	34024.095000	48436.335000	14991.390000	-20476.710000	-54157.455000	-4.988263	-11.009455	-3.851432	-4.597072	-1.783983	1.427818	0.927254	1.276120	0.656180	2.350040	0.457800	-0.838560	-0.093689	0.522399	-1.000000	-1.000000	-1.000000	-1.000000	-1.000000	-1.000000	-1.000000	61.000000	0.000000	-1.000000	-1.000000	526287.000000	1775765926.572047
-13247.865000	-36221.130000	40888.755000	34034.265000	48468.195000	15033.645000	-20474.505000	-54155.655000	-5.490198	-9.930534	-5.831207	-4.471895	-0.053872	-8.112787	3.636558	-0.306696	0.656180	2.350040	0.457800	-0.838560	-0.093689	0.522399	-1.000000	-1.000000	-1.000000	-1.000000	-1.000000	-1.000000	-1.000000	61.000000	0.000000	-1.000000	-1.000000	526288.000000	1775765926.572061
-13249.620000	-36225.405000	40883.400000	34022.430000	48448.530000	15028.965000	-20486.520000	-54159.030000	-4.200298	-6.573134	-4.795810	-1.439608	6.019033	-9.591615	4.795167	-1.641713	0.656180	2.350040	0.457800	-0.838560	-0.093689	0.522399	-1.000000	-1.000000	-1.000000	-1.000000	-1.000000	-1.000000	-1.000000	61.000000	0.000000	-1.000000	-1.000000	526289.000000	1775765926.572071
-13250.880000	-36227.700000	40881.150000	34015.095000	48435.480000	14996.880000	-20489.040000	-54162.090000	-1.601992	-1.918562	-1.743397	2.089988	10.652624	-3.682246	2.890110	-2.175425	-4.730600	2.670500	-0.747740	-0.840879	-0.088257	0.521971	-1.000000	-1.000000	-1.000000	-1.000000	-1.000000	-1.000000	-1.000000	61.000000	0.000000	-1.000000	-1.000000	526290.000000	1775765926.585802
-13252.455000	-36227.565000	40883.535000	34016.805000	48434.580000	14990.670000	-20489.310000	-54161.955000	1.246620	2.726742	1.438161	3.362588	7.853180	0.627303	-1.491681	-1.869125	-4.730600	2.670500	-0.747740	-0.840879	-0.088257	0.521971	-1.000000	-1.000000	-1.000000	-1.000000	-1.000000	-1.000000	-1.000000	61.000000	0.000000	-1.000000	-1.000000	526291.000000	1775765926.585829
-13261.815000	-36237.870000	40876.515000	34009.200000	48426.525000	15011.055000	-20493.990000	-54165.600000	3.154269	6.009508	3.491729	2.256627	-1.070662	-0.811132	-5.529794	-0.953014	-4.730600	2.670500	-0.747740	-0.840879	-0.088257	0.521971	-1.000000	-1.000000	-1.000000	-1.000000	-1.000000	-1.000000	-1.000000	61.000000	0.000000	-1.000000	-1.000000	526292.000000	1775765926.585855
-13270.860000	-36247.095000	40868.505000	34001.280000	48417.300000	14997.915000	-20507.310000	-54173.430000	3.224946	6.743413	3.775169	0.260121	-9.952711	-3.840633	-7.079265	0.072935	-4.730600	2.670500	-0.747740	-0.840879	-0.088257	0.521971	-1.000000	-1.000000	-1.000000	-1.000000	-1.000000	-1.000000	-1.000000	61.000000	0.000000	-1.000000	-1.000000	526293.000000	1775765926.585868
-13263.345000	-36241.290000	40875.210000	34008.750000	48424.725000	14955.750000	-20518.065000	-54175.905000	1.771408	4.940150	2.432888	-1.249428	-13.715075	-4.949601	-6.289624	0.579770	-4.730600	2.670500	-0.747740	-0.840879	-0.088257	0.521971	-1.000000	-1.000000	-1.000000	-1.000000	-1.000000	-1.000000	-1.000000	61.000000	0.000000	-1.000000	-1.000000	526294.000000	1775765926.586007
-13236.975000	-36212.805000	40906.035000	34039.755000	48456.450000	14998.320000	-20493.090000	-54165.465000	1.038934	2.951309	1.420419	-0.576665	-10.096855	-4.547964	-3.694794	0.770520	-4.730600	2.670500	-0.747740	-0.840879	-0.088257	0.521971	-1.000000	-1.000000	-1.000000	-1.000000	-1.000000	-1.000000	-1.000000	61.000000	0.000000	-1.000000	-1.000000	526295.000000	1775765926.586025
-13224.915000	-36201.960000	40917.960000	34049.700000	48459.915000	15036.255000	-20478.195000	-54152.730000	3.255233	3.593633	3.094927	3.394671	-0.155866	-0.957826	1.414152	1.840564	-4.730600	2.670500	-0.747740	-0.840879	-0.088257	0.521971	-1.000000	-1.000000	-1.000000	-1.000000	-1.000000	-1.000000	-1.000000	61.000000	0.000000	-1.000000	-1.000000	526296.000000	1775765926.586047
-13228.515000	-36207.990000	40913.235000	34043.130000	48442.905000	15003.495000	-20490.885000	-54151.380000	7.072450	6.079307	6.371998	8.238114	10.297198	7.111549	8.096411	4.150213	-4.730600	2.670500	-0.747740	-0.840879	-0.088257	0.521971	-1.000000	-1.000000	-1.000000	-1.000000	-1.000000	-1.000000	-1.000000	61.000000	0.000000	-1.000000	-1.000000	526297.000000	1775765926.586060
-13230.900000	-36215.325000	40905.360000	34032.870000	48431.340000	14970.420000	-20500.020000	-54152.685000	8.039424	6.076133	6.744684	8.793365	13.648238	13.102553	11.745133	5.884689	-4.730600	2.670500	-0.747740	-0.840879	-0.088257	0.521971	-1.000000	-1.000000	-1.000000	-1.000000	-1.000000	-1.000000	-1.000000	61.000000	0.000000	-1.000000	-1.000000	526298.000000	1775765926.590137
-13233.285000	-36221.760000	40899.735000	34029.045000	48432.420000	14978.925000	-20490.390000	-54151.065000	3.574176	0.915217	1.511230	2.692230	7.696001	9.597543	8.980693	4.825913	-4.730600	2.670500	-0.747740	-0.840879	-0.088257	0.521971	-1.000000	-1.000000	-1.000000	-1.000000	-1.000000	-1.000000	-1.000000	61.000000	0.000000	-1.000000	-1.000000	526299.000000	1775765926.590163
-13238.865000	-36230.985000	40894.245000	34029.225000	48438.000000	14967.405000	-20493.360000	-54152.685000	-4.332858	-7.299382	-6.985811	-6.690364	-2.181820	-0.862508	1.993213	0.906072	-3.799740	2.136400	0.137340	-0.839903	-0.091247	0.520873	-1.000000	-1.000000	-1.000000	-1.000000	-1.000000	-1.000000	-1.000000	61.000000	0.000000	-1.000000	-1.000000	526300.000000	1775765926.681794
-13241.430000	-36234.270000	40889.250000	34025.580000	48436.695000	14950.485000	-20499.030000	-54154.485000	-11.299070	-13.848797	-13.673787	-13.412436	-8.728938	-9.978996	-4.611974	-3.877502	-3.799740	2.136400	0.137340	-0.839903	-0.091247	0.520873	-1.000000	-1.000000	-1.000000	-1.000000	-1.000000	-1.000000	-1.000000	61.000000	0.000000	-1.000000	-1.000000	526301.000000	1775765926.681812
-13254.705000	-36248.085000	40877.010000	34013.880000	48429.495000	15001.470000	-20492.595000	-54163.080000	-14.019592	-15.213507	-15.002197	-14.102861	-9.053788	-11.913402	-8.058930	-7.373601	-3.799740	2.136400	0.137340	-0.839903	-0.091247	0.520873	-1.000000	-1.000000	-1.000000	-1.000000	-1.000000	-1.000000	-1.000000	61.000000	0.000000	-1.000000	-1.000000	526302.000000	1775765926.681833
-13256.145000	-36252.360000	40877.550000	34015.320000	48436.515000	15029.010000	-20481.525000	-54165.735000	-11.903816	-11.131551	-10.831929	-9.572169	-5.063856	-4.404761	-7.472611	-8.503268	-3.799740	2.136400	0.137340	-0.839903	-0.091247	0.520873	-1.000000	-1.000000	-1.000000	-1.000000	-1.000000	-1.000000	-1.000000	61.000000	0.000000	-1.000000	-1.000000	526303.000000	1775765926.681843
-13247.955000	-36243.495000	40888.080000	34025.805000	48452.085000	15035.400000	-20486.160000	-54161.055000	-6.083836	-3.563748	-3.042380	-2.309587	0.398448	9.210672	-3.557943	-6.987980	-3.799740	2.136400	0.137340	-0.839903	-0.091247	0.520873	-1.000000	-1.000000	-1.000000	-1.000000	-1.000000	-1.000000	-1.000000	61.000000	0.000000	-1.000000	-1.000000	526304.000000	1775765926.681854
-13254.930000	-36252.855000	40880.925000	34017.030000	48446.460000	15025.095000	-20501.370000	-54165.825000	1.621825	4.952251	5.783272	5.266938	5.386886	19.210944	0.735325	-3.135708	-3.799740	2.136400	0.137340	-0.839903	-0.091247	0.520873	-1.000000	-1.000000	-1.000000	-1.000000	-1.000000	-1.000000	-1.000000	61.000000	0.000000	-1.000000	-1.000000	526305.000000	1775765926.681864
-13254.390000	-36251.370000	40883.805000	34017.435000	48434.580000	15018.210000	-20501.595000	-54165.420000	8.391953	11.412830	12.312478	10.394019	7.610512	17.182938	2.168973	1.607097	-3.799740	2.136400	0.137340	-0.839903	-0.091247	0.520873	-1.000000	-1.000000	-1.000000	-1.000000	-1.000000	-1.000000	-1.000000	61.000000	0.000000	-1.000000	-1.000000	526306.000000	1775765926.682061
-13247.415000	-36243.945000	40893.885000	34027.335000	48431.115000	15008.445000	-20501.955000	-54161.775000	11.694091	13.632204	14.165314	11.305764	5.284266	3.652124	0.638442	5.317808	-3.799740	2.136400	0.137340	-0.839903	-0.091247	0.520873	-1.000000	-1.000000	-1.000000	-1.000000	-1.000000	-1.000000	-1.000000	61.000000	0.000000	-1.000000	-1.000000	526307.000000	1775765926.682080
-13245.345000	-36246.420000	40892.985000	34027.155000	48432.060000	14979.285000	-20503.215000	-54156.870000	11.177439	11.764220	11.656817	8.825463	-0.186947	-13.490144	-1.224883	7.056725	-3.799740	2.136400	0.137340	-0.839903	-0.091247	0.520873	-1.000000	-1.000000	-1.000000	-1.000000	-1.000000	-1.000000	-1.000000	61.000000	0.000000	-1.000000	-1.000000	526308.000000	1775765926.682102
-13246.920000	-36252.585000	40887.495000	34022.205000	48431.610000	14960.610000	-20511.180000	-54156.825000	7.930507	7.096922	6.370029	4.682090	-4.933024	-25.830890	-1.510292	6.856206	-3.799740	2.136400	0.137340	-0.839903	-0.091247	0.520873	-1.000000	-1.000000	-1.000000	-1.000000	-1.000000	-1.000000	-1.000000	61.000000	0.000000	-1.000000	-1.000000	526309.000000	1775765926.682114
-13244.805000	-36251.640000	40889.295000	34023.150000	48430.260000	14988.330000	-20514.555000	-54157.320000	3.182999	1.004520	-0.144003	-0.042665	-6.174826	-27.711521	-0.484971	4.942165	-0.579880	1.724380	-0.289940	-0.839842	-0.098266	0.521056	-1.000000	-1.000000	-1.000000	-1.000000	-1.000000	-1.000000	-1.000000	61.000000	0.000000	-1.000000	-1.000000	526310.000000	1775765926.682129
-13252.680000	-36258.570000	40884.615000	34020.855000	48433.185000	15021.810000	-20511.270000	-54162.540000	-1.804759	-4.677857	-5.953658	-4.237944	-3.948354	-16.431846	0.876346	1.661642	-0.579880	1.724380	-0.289940	-0.839842	-0.098266	0.521056	-1.000000	-1.000000	-1.000000	-1.000000	-1.000000	-1.000000	-1.000000	61.000000	0.000000	-1.000000	-1.000000	526311.000000	1775765926.682141
-13251.690000	-36254.970000	40892.445000	34032.285000	48447.810000	15025.770000	-20505.240000	-54159.345000	-5.824671	-8.100950	-9.071887	-6.434077	0.164477	4.559128	2.330331	-2.078590	-0.579880	1.724380	-0.289940	-0.839842	-0.098266	0.521056	-1.000000	-1.000000	-1.000000	-1.000000	-1.000000	-1.000000	-1.000000	61.000000	0.000000	-1.000000	-1.000000	526312.000000	1775765926.682155
-13255.155000	-36256.905000	40893.435000	34034.580000	48443.670000	15007.905000	-20508.480000	-54159.525000	-7.848001	-8.298853	-8.484670	-5.658403	4.353777	23.926164	3.793544	-4.777825	-0.579880	1.724380	-0.289940	-0.839842	-0.098266	0.521056	-1.000000	-1.000000	-1.000000	-1.000000	-1.000000	-1.000000	-1.000000	61.000000	0.000000	-1.000000	-1.000000	526313.000000	1775765926.682166
-13268.430000	-36268.785000	40884.345000	34026.300000	48433.950000	15000.885000	-20504.565000	-54172.890000	-7.560399	-5.880528	-5.090962	-2.765257	6.355627	29.810475	4.475845	-5.551009	-0.579880	1.724380	-0.289940	-0.839842	-0.098266	0.521056	-1.000000	-1.000000	-1.000000	-1.000000	-1.000000	-1.000000	-1.000000	61.000000	0.000000	-1.000000	-1.000000	526314.000000	1775765926.682180
-13264.605000	-36266.040000	40887.180000	34023.195000	48430.035000	14992.695000	-20507.445000	-54182.880000	-5.635881	-2.707246	-1.320328	-0.260208	4.427321	19.815389	3.608210	-5.110831	-0.579880	1.724380	-0.289940	-0.839842	-0.098266	0.521056	-1.000000	-1.000000	-1.000000	-1.000000	-1.000000	-1.000000	-1.000000	61.000000	0.000000	-1.000000	-1.000000	526315.000000	1775765926.682191
-13260.825000	-36261.495000	40890.960000	34022.070000	48429.045000	15012.855000	-20512.170000	-54186.345000	-2.563398	0.075825	1.214838	0.252489	-0.409188	2.272052	1.225898	-4.395923	-0.579880	1.724380	-0.289940	-0.839842	-0.098266	0.521056	-1.000000	-1.000000	-1.000000	-1.000000	-1.000000	-1.000000	-1.000000	61.000000	0.000000	-1.000000	-1.000000	526316.000000	1775765926.682205
-13251.195000	-36255.555000	40893.705000	34016.490000	48433.815000	15001.605000	-20519.100000	-54172.170000	1.623325	2.655360	2.669894	-0.616202	-4.753939	-11.543635	-2.006236	-2.788545	-0.579880	1.724380	-0.289940	-0.839842	-0.098266	0.521056	-1.000000	-1.000000	-1.000000	-1.000000	-1.000000	-1.000000	-1.000000	61.000000	0.000000	-1.000000	-1.000000	526317.000000	1775765926.682216
-13238.820000	-36247.770000	40905.945000	34032.285000	48446.865000	14959.035000	-20521.800000	-54156.735000	6.233828	5.082829	3.686639	-1.139438	-5.557806	-16.842150	-4.945575	1.139894	-0.579880	1.724380	-0.289940	-0.839842	-0.098266	0.521056	-1.000000	-1.000000	-1.000000	-1.000000	-1.000000	-1.000000	-1.000000	61.000000	0.000000	-1.000000	-1.000000	526318.000000	1775765926.682231
-13231.395000	-36246.735000	40910.580000	34045.785000	48457.080000	14970.015000	-20519.325000	-54140.940000	9.677820	6.537132	4.505630	0.348359	-2.181440	-16.193157	-6.146988	7.157806	-0.579880	1.724380	-0.289940	-0.839842	-0.098266	0.521056	-1.000000	-1.000000	-1.000000	-1.000000	-1.000000	-1.000000	-1.000000	61.000000	0.000000	-1.000000	-1.000000	526319.000000	1775765926.682242
-13249.620000	-36271.890000	40886.460000	34021.755000	48432.195000	14976.135000	-20510.415000	-54147.825000	9.762476	5.439166	4.174672	3.372106	2.625360	-11.819498	-4.535968	12.127695	2.273740	1.892240	-0.473060	-0.840635	-0.099121	0.521910	-1.000000	-1.000000	-1.000000	-1.000000	-1.000000	-1.000000	-1.000000	61.000000	0.000000	-1.000000	-1.000000	526320.000000	1775765926.682257
-13252.905000	-36280.890000	40875.075000	34004.295000	48415.095000	14973.570000	-20496.150000	-54151.110000	4.903829	0.591060	0.868752	4.282919	4.036419	-3.664772	-0.201859	11.886704	2.273740	1.892240	-0.473060	-0.840635	-0.099121	0.521910	-1.000000	-1.000000	-1.000000	-1.000000	-1.000000	-1.000000	-1.000000	61.000000	0.000000	-1.000000	-1.000000	526321.000000	1775765926.682268
-13254.660000	-36282.195000	40876.920000	34007.625000	48418.920000	14968.980000	-20496.690000	-54160.065000	-3.297922	-6.226065	-4.852561	0.757733	0.211959	5.953434	5.060356	5.092658	2.273740	1.892240	-0.473060	-0.840635	-0.099121	0.521910	-1.000000	-1.000000	-1.000000	-1.000000	-1.000000	-1.000000	-1.000000	61.000000	0.000000	-1.000000	-1.000000	526322.000000	1775765926.682281
-13263.120000	-36283.140000	40883.040000	34017.705000	48424.995000	14979.015000	-20504.790000	-54170.190000	-10.335336	-10.445954	-8.822965	-4.054732	-4.839904	12.756813	8.000617	-5.195882	2.273740	1.892240	-0.473060	-0.840635	-0.099121	0.521910	-1.000000	-1.000000	-1.000000	-1.000000	-1.000000	-1.000000	-1.000000	61.000000	0.000000	-1.000000	-1.000000	526323.000000	1775765926.682293
-13271.040000	-36285.705000	40881.555000	34015.275000	48422.565000	14987.835000	-20521.530000	-54177.570000	-12.757851	-9.008597	-7.476898	-5.247555	-5.929225	14.644678	5.895741	-13.847578	2.273740	1.892240	-0.473060	-0.840635	-0.099121	0.521910	-1.000000	-1.000000	-1.000000	-1.000000	-1.000000	-1.000000	-1.000000	61.000000	0.000000	-1.000000	-1.000000	526324.000000	1775765926.682307
-13266.945000	-36281.565000	40886.460000	34019.280000	48430.080000	15013.755000	-20517.390000	-54173.970000	-10.117545	-2.901402	-1.566428	-1.905176	-2.144643	12.700497	-0.625108	-16.694520	2.273740	1.892240	-0.473060	-0.840635	-0.099121	0.521910	-1.000000	-1.000000	-1.000000	-1.000000	-1.000000	-1.000000	-1.000000	61.000000	0.000000	-1.000000	-1.000000	526325.000000	1775765926.682318
-13257.495000	-36278.055000	40894.785000	34030.620000	48445.470000	15033.690000	-20509.965000	-54162.315000	-3.686701	4.465974	5.261648	3.178784	3.847697	9.306273	-7.053436	-12.179409	2.273740	1.892240	-0.473060	-0.840635	-0.099121	0.521910	-1.000000	-1.000000	-1.000000	-1.000000	-1.000000	-1.000000	-1.000000	61.000000	0.000000	-1.000000	-1.000000	526326.000000	1775765926.682333
-13245.075000	-36272.655000	40902.210000	34038.630000	48449.745000	15029.640000	-20509.155000	-54145.755000	4.487292	9.798378	9.776220	7.106460	8.917424	5.473314	-8.711780	-1.929651	2.273740	1.892240	-0.473060	-0.840635	-0.099121	0.521910	-1.000000	-1.000000	-1.000000	-1.000000	-1.000000	-1.000000	-1.000000	61.000000	0.000000	-1.000000	-1.000000	526327.000000	1775765926.682344
-13246.965000	-36279.495000	40893.705000	34023.465000	48423.330000	14986.305000	-20517.570000	-54146.475000	11.402035	11.080527	10.250451	7.920933	10.036239	-0.740639	-5.208681	9.479123	2.273740	1.892240	-0.473060	-0.840635	-0.099121	0.521910	-1.000000	-1.000000	-1.000000	-1.000000	-1.000000	-1.000000	-1.000000	61.000000	0.000000	-1.000000	-1.000000	526328.000000	1775765926.682369
-13251.870000	-36284.445000	40893.480000	34024.500000	48423.870000	14981.715000	-20520.630000	-54149.805000	13.660584	7.820026	6.329796	4.528743	5.220243	-11.063093	-0.119303	16.206547	2.273740	1.892240	-0.473060	-0.840635	-0.099121	0.521910	-1.000000	-1.000000	-1.000000	-1.000000	-1.000000	-1.000000	-1.000000	61.000000	0.000000	-1.000000	-1.000000	526329.000000	1775765926.682380
-13247.595000	-36278.280000	40904.280000	34039.395000	48440.925000	14987.205000	-20522.790000	-54149.895000	9.853980	1.589106	-0.117286	-1.439237	-3.012948	-21.442168	3.139587	14.771368	1.693860	1.678600	0.076300	-0.840452	-0.095520	0.521605	-1.000000	-1.000000	-1.000000	-1.000000	-1.000000	-1.000000	-1.000000	61.000000	0.000000	-1.000000	-1.000000	526330.000000	1775765926.682395
-13244.265000	-36276.120000	40907.385000	34039.440000	48441.375000	15000.120000	-20517.795000	-54147.285000	2.333185	-4.218597	-5.399298	-5.899325	-8.546980	-23.838215	3.901148	6.759875	1.693860	1.678600	0.076300	-0.840452	-0.095520	0.521605	-1.000000	-1.000000	-1.000000	-1.000000	-1.000000	-1.000000	-1.000000	61.000000	0.000000	-1.000000	-1.000000	526331.000000	1775765926.682405
-13250.160000	-36278.820000	40908.645000	34040.835000	48441.465000	15009.570000	-20514.870000	-54152.595000	-4.775456	-6.892282	-7.093168	-6.514762	-8.171797	-14.641382	3.478734	-2.834636	1.693860	1.678600	0.076300	-0.840452	-0.095520	0.521605	-1.000000	-1.000000	-1.000000	-1.000000	-1.000000	-1.000000	-1.000000	61.000000	0.000000	-1.000000	-1.000000	526332.000000	1775765926.682419
-13257.720000	-36289.485000	40897.260000	34027.020000	48422.835000	15011.550000	-20518.335000	-54159.255000	-8.987309	-6.535017	-5.953792	-4.673174	-4.315029	1.471562	2.977494	-9.675281	1.693860	1.678600	0.076300	-0.840452	-0.095520	0.521605	-1.000000	-1.000000	-1.000000	-1.000000	-1.000000	-1.000000	-1.000000	61.000000	0.000000	-1.000000	-1.000000	526333.000000	1775765926.682430
-13251.465000	-36290.970000	40892.535000	34022.790000	48422.745000	15026.220000	-20523.015000	-54153.405000	-9.863460	-4.992562	-4.364415	-3.090517	-1.236723	15.759893	2.183842	-11.883640	1.693860	1.678600	0.076300	-0.840452	-0.095520	0.521605	-1.000000	-1.000000	-1.000000	-1.000000	-1.000000	-1.000000	-1.000000	61.000000	0.000000	-1.000000	-1.000000	526334.000000	1775765926.682443
-13255.695000	-36295.650000	40889.340000	34021.170000	48422.880000	15007.185000	-20519.145000	-54156.240000	-7.636460	-3.421616	-3.577368	-2.747293	-0.418561	21.563512	0.641537	-9.455831	1.693860	1.678600	0.076300	-0.840452	-0.095520	0.521605	-1.000000	-1.000000	-1.000000	-1.000000	-1.000000	-1.000000	-1.000000	61.000000	0.000000	-1.000000	-1.000000	526335.000000	1775765926.682454
-13269.150000	-36309.915000	40875.030000	34009.875000	48416.085000	14990.940000	-20509.425000	-54161.145000	-3.540254	-1.972408	-3.116752	-2.600189	-0.365002	16.764384	-0.889378	-4.103492	1.693860	1.678600	0.076300	-0.840452	-0.095520	0.521605	-1.000000	-1.000000	-1.000000	-1.000000	-1.000000	-1.000000	-1.000000	61.000000	0.000000	-1.000000	-1.000000	526336.000000	1775765926.682468
-13255.290000	-36299.565000	40888.845000	34021.755000	48427.110000	14994.585000	-20505.420000	-54145.530000	0.434989	-0.546037	-1.977834	-1.400337	0.512409	4.436787	-1.102712	1.605895	1.693860	1.678600	0.076300	-0.840452	-0.095520	0.521605	-1.000000	-1.000000	-1.000000	-1.000000	-1.000000	-1.000000	-1.000000	61.000000	0.000000	-1.000000	-1.000000	526337.000000	1775765926.682479
-13262.625000	-36314.910000	40878.810000	34011.990000	48416.580000	14977.080000	-20517.390000	-54144.990000	3.436165	1.167552	0.592471	1.248255	2.425144	-8.221465	-0.252282	6.085179	1.693860	1.678600	0.076300	-0.840452	-0.095520	0.521605	-1.000000	-1.000000	-1.000000	-1.000000	-1.000000	-1.000000	-1.000000	61.000000	0.000000	-1.000000	-1.000000	526338.000000	1775765926.682492
-13266.720000	-36319.140000	40876.470000	34004.295000	48402.990000	14962.410000	-20529.495000	-54151.065000	5.247804	2.840898	3.941956	4.187183	3.917567	-15.168747	-0.375943	8.307060	1.693860	1.678600	0.076300	-0.840452	-0.095520	0.521605	-1.000000	-1.000000	-1.000000	-1.000000	-1.000000	-1.000000	-1.000000	61.000000	0.000000	-1.000000	-1.000000	526339.000000	1775765926.682503
-13267.800000	-36322.290000	40873.905000	33999.345000	48398.400000	14963.220000	-20529.270000	-54157.230000	5.262116	3.551408	6.126007	5.353905	3.145460	-14.845999	-2.528939	7.074786	-1.968540	2.823100	-0.305200	-0.840757	-0.091858	0.520995	-1.000000	-1.000000	-1.000000	-1.000000	-1.000000	-1.000000	-1.000000	61.000000	0.000000	-1.000000	-1.000000	526340.000000	1775765926.682516
-13226.850000	-36273.330000	40924.035000	34049.115000	48451.320000	15005.565000	-20491.245000	-54130.950000	4.358096	4.161709	6.973862	5.076180	1.454097	-7.767478	-4.225842	3.128590	-1.968540	2.823100	-0.305200	-0.840757	-0.091858	0.520995	-1.000000	-1.000000	-1.000000	-1.000000	-1.000000	-1.000000	-1.000000	61.000000	0.000000	-1.000000	-1.000000	526341.000000	1775765926.682527
-13193.235000	-36242.730000	40956.030000	34084.980000	48485.115000	15023.385000	-20464.290000	-54094.950000	5.430573	7.337088	8.987351	6.788417	3.338221	4.739002	-1.320600	0.352421	-1.968540	2.823100	-0.305200	-0.840757	-0.091858	0.520995	-1.000000	-1.000000	-1.000000	-1.000000	-1.000000	-1.000000	-1.000000	61.000000	0.000000	-1.000000	-1.000000	526342.000000	1775765926.682540
-13232.430000	-36289.710000	40906.080000	34038.315000	48435.210000	14988.510000	-20514.240000	-54132.660000	8.261357	11.717790	11.485023	10.424515	8.584799	17.018105	5.190110	0.946466	-1.968540	2.823100	-0.305200	-0.840757	-0.091858	0.520995	-1.000000	-1.000000	-1.000000	-1.000000	-1.000000	-1.000000	-1.000000	61.000000	0.000000	-1.000000	-1.000000	526343.000000	1775765926.682551
-13249.530000	-36308.745000	40890.555000	34022.925000	48430.395000	15037.695000	-20532.915000	-54147.735000	6.761329	9.809584	7.866801	8.933049	9.152218	20.968928	7.383926	0.893777	-1.968540	2.823100	-0.305200	-0.840757	-0.091858	0.520995	-1.000000	-1.000000	-1.000000	-1.000000	-1.000000	-1.000000	-1.000000	61.000000	0.000000	-1.000000	-1.000000	526344.000000	1775765926.682564
-13251.690000	-36311.985000	40891.050000	34023.285000	48428.280000	14999.985000	-20527.425000	-54146.880000	-2.711163	-1.925126	-4.569486	-1.746395	0.358788	14.493259	0.813198	-3.878449	-1.968540	2.823100	-0.305200	-0.840757	-0.091858	0.520995	-1.000000	-1.000000	-1.000000	-1.000000	-1.000000	-1.000000	-1.000000	61.000000	0.000000	-1.000000	-1.000000	526345.000000	1775765926.682589
-13254.075000	-36314.505000	40890.420000	34023.330000	48429.090000	14980.005000	-20521.080000	-54147.645000	-14.578624	-16.221211	-18.150974	-15.080039	-11.799069	1.269671	-8.447491	-10.351356	-1.968540	2.823100	-0.305200	-0.840757	-0.091858	0.520995	-1.000000	-1.000000	-1.000000	-1.000000	-1.000000	-1.000000	-1.000000	61.000000	0.000000	-1.000000	-1.000000	526346.000000	1775765926.684941
-13253.310000	-36313.380000	40894.335000	34028.280000	48438.045000	14993.955000	-20520.585000	-54147.780000	-20.109105	-22.789631	-23.082631	-21.280255	-18.128517	-13.260505	-11.663307	-12.532170	-1.968540	2.823100	-0.305200	-0.840757	-0.091858	0.520995	-1.000000	-1.000000	-1.000000	-1.000000	-1.000000	-1.000000	-1.000000	61.000000	0.000000	-1.000000	-1.000000	526347.000000	1775765926.684970
-13251.780000	-36313.110000	40896.270000	34029.315000	48435.390000	15007.455000	-20520.945000	-54149.040000	-15.751922	-17.788195	-16.551090	-16.655576	-14.842719	-21.501336	-6.757059	-8.319748	-1.968540	2.823100	-0.305200	-0.840757	-0.091858	0.520995	-1.000000	-1.000000	-1.000000	-1.000000	-1.000000	-1.000000	-1.000000	61.000000	0.000000	-1.000000	-1.000000	526348.000000	1775765926.689897
-13246.515000	-36311.265000	40898.160000	34029.540000	48431.745000	15046.380000	-20516.895000	-54145.395000	-4.446229	-5.024537	-3.166219	-4.913985	-5.125126	-17.704971	1.949890	-0.255589	-1.968540	2.823100	-0.305200	-0.840757	-0.091858	0.520995	-1.000000	-1.000000	-1.000000	-1.000000	-1.000000	-1.000000	-1.000000	61.000000	0.000000	-1.000000	-1.000000	526349.000000	1775765926.689918
-13242.555000	-36310.005000	40899.915000	34030.485000	48432.105000	15006.150000	-20516.670000	-54142.020000	7.782615	8.295281	9.651987	7.001141	4.673143	-4.517212	8.979778	7.511589	-3.570840	2.227960	0.167860	-0.840391	-0.091797	0.523375	-1.000000	-1.000000	-1.000000	-1.000000	-1.000000	-1.000000	-1.000000	61.000000	0.000000	-1.000000	-1.000000	526350.000000	1775765926.691923
-13245.570000	-36315.585000	40895.775000	34026.525000	48436.245000	15010.920000	-20520.495000	-54144.090000	15.520639	16.184293	16.339278	13.684962	10.181962	7.779648	11.149450	11.797303	-3.570840	2.227960	0.167860	-0.840391	-0.091797	0.523375	-1.000000	-1.000000	-1.000000	-1.000000	-1.000000	-1.000000	-1.000000	61.000000	0.000000	-1.000000	-1.000000	526351.000000	1775765926.691944
-13245.030000	-36316.395000	40896.045000	34025.085000	48436.155000	15020.910000	-20534.040000	-54144.585000	16.158290	16.318191	15.350206	13.509210	10.774920	11.399312	8.016768	11.315017	-3.570840	2.227960	0.167860	-0.840391	-0.091797	0.523375	-1.000000	-1.000000	-1.000000	-1.000000	-1.000000	-1.000000	-1.000000	61.000000	0.000000	-1.000000	-1.000000	526352.000000	1775765926.696862
-13251.690000	-36321.165000	40892.985000	34019.415000	48418.335000	14964.165000	-20537.775000	-54150.480000	10.559293	10.287600	8.873260	8.237478	7.639725	6.778727	1.387520	6.805589	-3.570840	2.227960	0.167860	-0.840391	-0.091797	0.523375	-1.000000	-1.000000	-1.000000	-1.000000	-1.000000	-1.000000	-1.000000	61.000000	0.000000	-1.000000	-1.000000	526353.000000	1775765926.696888
-13254.705000	-36319.815000	40898.610000	34023.195000	48408.120000	14956.785000	-20537.865000	-54152.370000	2.027973	2.033365	0.998411	1.377086	2.006205	-2.420969	-5.210816	0.509653	-3.570840	2.227960	0.167860	-0.840391	-0.091797	0.523375	-1.000000	-1.000000	-1.000000	-1.000000	-1.000000	-1.000000	-1.000000	61.000000	0.000000	-1.000000	-1.000000	526354.000000	1775765926.702317
-13250.925000	-36315.180000	40904.640000	34027.605000	48412.845000	15011.730000	-20529.180000	-54146.025000	-5.468933	-4.428277	-4.500884	-3.603523	-3.996659	-10.072929	-8.092347	-4.734685	-3.570840	2.227960	0.167860	-0.840391	-0.091797	0.523375	-1.000000	-1.000000	-1.000000	-1.000000	-1.000000	-1.000000	-1.000000	61.000000	0.000000	-1.000000	-1.000000	526355.000000	1775765926.702340
-13255.245000	-36322.335000	40898.250000	34021.800000	48422.205000	15043.005000	-20528.370000	-54146.790000	-9.006141	-6.977272	-6.085456	-5.038261	-6.888815	-7.721155	-5.860702	-6.706499	-3.570840	2.227960	0.167860	-0.840391	-0.091797	0.523375	-1.000000	-1.000000	-1.000000	-1.000000	-1.000000	-1.000000	-1.000000	61.000000	0.000000	-1.000000	-1.000000	526356.000000	1775765926.704797
-13261.095000	-36331.110000	40891.005000	34020.270000	48439.125000	14998.635000	-20531.925000	-54151.605000	-8.240287	-6.364448	-5.119655	-3.876578	-4.377475	4.682993	-0.593719	-5.345478	-3.570840	2.227960	0.167860	-0.840391	-0.091797	0.523375	-1.000000	-1.000000	-1.000000	-1.000000	-1.000000	-1.000000	-1.000000	61.000000	0.000000	-1.000000	-1.000000	526357.000000	1775765926.704814
-13250.790000	-36324.315000	40898.790000	34030.125000	48451.725000	14987.520000	-20522.340000	-54140.265000	-4.850375	-4.569945	-3.728975	-1.915329	2.296056	14.991352	4.045964	-2.395411	-3.570840	2.227960	0.167860	-0.840391	-0.091797	0.523375	-1.000000	-1.000000	-1.000000	-1.000000	-1.000000	-1.000000	-1.000000	61.000000	0.000000	-1.000000	-1.000000	526358.000000	1775765926.708838
-13249.665000	-36325.980000	40900.005000	34029.675000	48435.120000	14982.210000	-20531.520000	-54139.995000	-0.475456	-2.404593	-2.336405	0.081469	8.527616	13.172268	5.767134	0.644631	-3.570840	2.227960	0.167860	-0.840391	-0.091797	0.523375	-1.000000	-1.000000	-1.000000	-1.000000	-1.000000	-1.000000	-1.000000	61.000000	0.000000	-1.000000	-1.000000	526359.000000	1775765926.708858
-13256.685000	-36329.895000	40898.340000	34027.875000	48433.365000	14984.865000	-20536.470000	-54154.170000	3.367000	-0.017324	-0.535701	1.649689	9.190118	2.106207	4.156445	2.582753	-0.747740	3.097780	-0.595140	-0.837095	-0.097351	0.524657	-1.000000	-1.000000	-1.000000	-1.000000	-1.000000	-1.000000	-1.000000	61.000000	0.000000	-1.000000	-1.000000	526360.000000	1775765926.713023
-13263.930000	-36336.825000	40891.590000	34018.155000	48425.625000	14988.510000	-20545.965000	-54166.770000	4.796454	1.735779	1.087290	1.813053	3.177605	-8.378213	0.086207	1.931147	-0.747740	3.097780	-0.595140	-0.837095	-0.097351	0.524657	-1.000000	-1.000000	-1.000000	-1.000000	-1.000000	-1.000000	-1.000000	61.000000	0.000000	-1.000000	-1.000000	526361.000000	1775765926.713043
-13264.290000	-36335.745000	40894.245000	34021.485000	48433.320000	15012.765000	-20539.260000	-54165.465000	3.149869	2.078289	1.585721	0.212760	-5.314291	-11.153071	-4.195079	-1.219974	-0.747740	3.097780	-0.595140	-0.837095	-0.097351	0.524657	-1.000000	-1.000000	-1.000000	-1.000000	-1.000000	-1.000000	-1.000000	61.000000	0.000000	-1.000000	-1.000000	526362.000000	1775765926.716229
-13265.100000	-36339.120000	40892.175000	34019.370000	48429.720000	15008.445000	-20537.370000	-54164.610000	0.065008	1.394912	1.076470	-1.906649	-10.655134	-5.665642	-5.909253	-4.105048	-0.747740	3.097780	-0.595140	-0.837095	-0.097351	0.524657	-1.000000	-1.000000	-1.000000	-1.000000	-1.000000	-1.000000	-1.000000	61.000000	0.000000	-1.000000	-1.000000	526363.000000	1775765926.716254
-13260.915000	-36337.905000	40894.425000	34020.765000	48428.685000	14996.925000	-20538.855000	-54161.010000	-1.994491	0.673509	0.470322	-2.805075	-10.288941	2.530435	-3.980532	-3.868248	-0.747740	3.097780	-0.595140	-0.837095	-0.097351	0.524657	-1.000000	-1.000000	-1.000000	-1.000000	-1.000000	-1.000000	-1.000000	61.000000	0.000000	-1.000000	-1.000000	526364.000000	1775765926.721045
-13253.400000	-36335.655000	40896.945000	34022.790000	48426.885000	14991.570000	-20540.835000	-54147.645000	-1.658374	0.561027	0.429419	-1.862332	-5.691715	6.511401	-0.099988	-0.145685	-0.747740	3.097780	-0.595140	-0.837095	-0.097351	0.524657	-1.000000	-1.000000	-1.000000	-1.000000	-1.000000	-1.000000	-1.000000	61.000000	0.000000	-1.000000	-1.000000	526365.000000	1775765926.721066
-13254.345000	-36334.890000	40901.400000	34028.730000	48431.205000	15002.235000	-20541.015000	-54145.665000	0.604106	1.089080	1.034501	0.350371	0.060504	4.333102	3.048101	5.065936	-0.747740	3.097780	-0.595140	-0.837095	-0.097351	0.524657	-1.000000	-1.000000	-1.000000	-1.000000	-1.000000	-1.000000	-1.000000	61.000000	0.000000	-1.000000	-1.000000	526366.000000	1775765926.726835
-13246.740000	-36327.600000	40911.030000	34038.945000	48435.705000	14987.430000	-20550.150000	-54141.435000	2.969192	1.831473	1.993983	2.875554	4.691776	-0.567756	3.880804	8.690106	-0.747740	3.097780	-0.595140	-0.837095	-0.097351	0.524657	-1.000000	-1.000000	-1.000000	-1.000000	-1.000000	-1.000000	-1.000000	61.000000	0.000000	-1.000000	-1.000000	526367.000000	1775765926.726862
-13239.495000	-36323.235000	40914.810000	34039.485000	48427.830000	14947.065000	-20560.680000	-54138.645000	3.926000	2.352242	2.851266	4.718812	6.995864	-5.165157	2.205496	8.441951	-0.747740	3.097780	-0.595140	-0.837095	-0.097351	0.524657	-1.000000	-1.000000	-1.000000	-1.000000	-1.000000	-1.000000	-1.000000	61.000000	0.000000	-1.000000	-1.000000	526368.000000	1775765926.739403
-13244.940000	-36329.940000	40907.880000	34031.385000	48425.625000	14972.175000	-20556.540000	-54140.490000	3.091615	2.150598	2.754051	4.628452	6.315955	-8.542702	-0.819370	4.357020	-0.747740	3.097780	-0.595140	-0.837095	-0.097351	0.524657	-1.000000	-1.000000	-1.000000	-1.000000	-1.000000	-1.000000	-1.000000	61.000000	0.000000	-1.000000	-1.000000	526369.000000	1775765926.739429
-13257.180000	-36342.855000	40897.440000	34023.420000	48421.305000	15037.110000	-20547.315000	-54149.850000	0.365601	0.367768	0.624358	1.676861	3.074036	-7.156369	-2.710960	-1.755173	2.945180	2.624720	-0.900340	-0.837644	-0.097961	0.525267	-1.000000	-1.000000	-1.000000	-1.000000	-1.000000	-1.000000	-1.000000	61.000000	0.000000	-1.000000	-1.000000	526370.000000	1775765926.868597
-13243.365000	-36330.345000	40911.795000	34033.860000	48424.680000	15010.785000	-20551.140000	-54140.580000	-3.564668	-2.854809	-3.086373	-2.996361	-0.835081	2.190979	-1.659221	-7.375451	2.945180	2.624720	-0.900340	-0.837644	-0.097961	0.525267	-1.000000	-1.000000	-1.000000	-1.000000	-1.000000	-1.000000	-1.000000	61.000000	0.000000	-1.000000	-1.000000	526371.000000	1775765926.868625
-13242.240000	-36333.180000	40906.395000	34029.810000	48423.195000	14908.320000	-20560.005000	-54136.215000	-6.209589	-5.272956	-5.758962	-6.278307	-3.228384	11.655247	1.117048	-9.783418	2.945180	2.624720	-0.900340	-0.837644	-0.097961	0.525267	-1.000000	-1.000000	-1.000000	-1.000000	-1.000000	-1.000000	-1.000000	61.000000	0.000000	-1.000000	-1.000000	526372.000000	1775765926.868654
-13253.760000	-36350.730000	40893.435000	34022.610000	48424.725000	14896.710000	-20559.240000	-54146.070000	-5.770664	-5.232538	-5.722870	-6.287362	-3.207988	8.081190	2.752983	-7.933001	2.945180	2.624720	-0.900340	-0.837644	-0.097961	0.525267	-1.000000	-1.000000	-1.000000	-1.000000	-1.000000	-1.000000	-1.000000	61.000000	0.000000	-1.000000	-1.000000	526373.000000	1775765926.868667
-13265.190000	-36364.995000	40881.330000	34010.955000	48426.210000	15003.360000	-20556.495000	-54152.505000	-3.621056	-4.011198	-4.255613	-4.170947	-1.449928	-5.447539	2.211180	-3.883761	2.945180	2.624720	-0.900340	-0.837644	-0.097961	0.525267	-1.000000	-1.000000	-1.000000	-1.000000	-1.000000	-1.000000	-1.000000	61.000000	0.000000	-1.000000	-1.000000	526374.000000	1775765926.868682
-13264.650000	-36359.595000	40890.330000	34015.095000	48417.570000	15014.205000	-20553.795000	-54155.160000	-1.947948	-3.096175	-2.781069	-1.860844	0.537649	-10.059416	0.799682	-0.504778	2.945180	2.624720	-0.900340	-0.837644	-0.097961	0.525267	-1.000000	-1.000000	-1.000000	-1.000000	-1.000000	-1.000000	-1.000000	61.000000	0.000000	-1.000000	-1.000000	526375.000000	1775765926.868694
-13262.535000	-36357.975000	40892.850000	34013.655000	48410.550000	15010.200000	-20556.855000	-54153.720000	-0.765817	-1.572076	-0.624411	0.251565	1.205263	1.731520	-0.117745	1.360746	2.945180	2.624720	-0.900340	-0.837644	-0.097961	0.525267	-1.000000	-1.000000	-1.000000	-1.000000	-1.000000	-1.000000	-1.000000	61.000000	0.000000	-1.000000	-1.000000	526376.000000	1775765926.868708
-13265.910000	-36367.920000	40882.815000	34004.250000	48409.065000	14975.415000	-20565.225000	-54154.215000	1.054469	1.570224	2.724983	2.371482	0.124806	16.125661	-0.608800	2.539994	2.945180	2.624720	-0.900340	-0.837644	-0.097961	0.525267	-1.000000	-1.000000	-1.000000	-1.000000	-1.000000	-1.000000	-1.000000	61.000000	0.000000	-1.000000	-1.000000	526377.000000	1775765926.868720
-13260.825000	-36365.940000	40884.345000	34005.915000	48412.755000	14990.085000	-20565.225000	-54149.850000	3.535116	5.023266	5.633104	3.879912	-1.349345	17.611957	-1.384589	3.740051	2.945180	2.624720	-0.900340	-0.837644	-0.097961	0.525267	-1.000000	-1.000000	-1.000000	-1.000000	-1.000000	-1.000000	-1.000000	61.000000	0.000000	-1.000000	-1.000000	526378.000000	1775765926.868735
-13272.840000	-36376.470000	40876.830000	34001.910000	48410.595000	15028.110000	-20571.615000	-54156.465000	5.429646	6.695542	6.255512	4.207259	-1.471664	6.358124	-2.372434	4.699353	2.945180	2.624720	-0.900340	-0.837644	-0.097961	0.525267	-1.000000	-1.000000	-1.000000	-1.000000	-1.000000	-1.000000	-1.000000	61.000000	0.000000	-1.000000	-1.000000	526379.000000	1775765926.868747
-13281.705000	-36385.155000	40871.475000	34000.020000	48407.715000	14976.720000	-20576.835000	-54161.010000	5.176651	5.607268	4.376203	3.532012	-0.061172	-6.920421	-2.893109	4.437260	1.068200	2.670500	-0.427280	-0.839475	-0.092285	0.522948	-1.000000	-1.000000	-1.000000	-1.000000	-1.000000	-1.000000	-1.000000	61.000000	0.000000	-1.000000	-1.000000	526380.000000	1775765926.868760
-13279.365000	-36386.955000	40869.450000	33995.430000	48394.845000	14932.395000	-20590.425000	-54166.770000	2.473597	2.334425	1.131074	2.226227	1.374285	-16.546515	-2.741080	2.380677	1.068200	2.670500	-0.427280	-0.839475	-0.092285	0.522948	-1.000000	-1.000000	-1.000000	-1.000000	-1.000000	-1.000000	-1.000000	61.000000	0.000000	-1.000000	-1.000000	526381.000000	1775765926.868771
-13248.135000	-36357.570000	40896.765000	34017.705000	48410.460000	14956.020000	-20569.950000	-54158.400000	-0.212876	-0.568058	-1.200656	1.076920	1.648143	-22.449061	-1.778828	-0.492526	1.068200	2.670500	-0.427280	-0.839475	-0.092285	0.522948	-1.000000	-1.000000	-1.000000	-1.000000	-1.000000	-1.000000	-1.000000	61.000000	0.000000	-1.000000	-1.000000	526382.000000	1775765926.868784
-13244.940000	-36360.090000	40894.155000	34017.525000	48417.930000	14987.475000	-20549.970000	-54156.375000	0.314257	-0.270725	-0.502648	1.256016	1.629399	-20.809976	1.122994	-2.151267	1.068200	2.670500	-0.427280	-0.839475	-0.092285	0.522948	-1.000000	-1.000000	-1.000000	-1.000000	-1.000000	-1.000000	-1.000000	61.000000	0.000000	-1.000000	-1.000000	526383.000000	1775765926.868794
-13256.505000	-36371.655000	40884.930000	34011.180000	48417.210000	15017.760000	-20550.780000	-54163.125000	3.242258	2.300171	2.080383	2.292069	2.507758	-7.421163	6.119479	-1.738126	1.068200	2.670500	-0.427280	-0.839475	-0.092285	0.522948	-1.000000	-1.000000	-1.000000	-1.000000	-1.000000	-1.000000	-1.000000	61.000000	0.000000	-1.000000	-1.000000	526384.000000	1775765926.868807
-13259.430000	-36368.820000	40891.410000	34017.705000	48418.875000	15025.950000	-20558.070000	-54161.955000	4.035533	3.073255	2.929075	2.021340	3.407716	13.019955	9.854833	-0.492347	1.068200	2.670500	-0.427280	-0.839475	-0.092285	0.522948	-1.000000	-1.000000	-1.000000	-1.000000	-1.000000	-1.000000	-1.000000	61.000000	0.000000	-1.000000	-1.000000	526385.000000	1775765926.868818
-13259.295000	-36367.245000	40894.875000	34019.280000	48411.135000	14998.500000	-20562.435000	-54153.585000	0.432841	0.397464	0.800601	-0.227470	2.574801	27.946766	8.279554	0.324678	1.068200	2.670500	-0.427280	-0.839475	-0.092285	0.522948	-1.000000	-1.000000	-1.000000	-1.000000	-1.000000	-1.000000	-1.000000	61.000000	0.000000	-1.000000	-1.000000	526386.000000	1775765926.868833
-13257.945000	-36367.515000	40896.135000	34020.360000	48411.765000	14986.890000	-20565.315000	-54148.365000	-5.032928	-3.513959	-2.315869	-2.970354	-0.381814	26.875115	1.400940	0.891524	1.068200	2.670500	-0.427280	-0.839475	-0.092285	0.522948	-1.000000	-1.000000	-1.000000	-1.000000	-1.000000	-1.000000	-1.000000	61.000000	0.000000	-1.000000	-1.000000	526387.000000	1775765926.868844
-13253.490000	-36366.390000	40899.060000	34022.070000	48411.585000	14980.950000	-20569.185000	-54144.180000	-8.330707	-5.931493	-4.298936	-4.677882	-3.952972	10.554031	-6.706251	1.595395	1.068200	2.670500	-0.427280	-0.839475	-0.092285	0.522948	-1.000000	-1.000000	-1.000000	-1.000000	-1.000000	-1.000000	-1.000000	61.000000	0.000000	-1.000000	-1.000000	526388.000000	1775765926.868858
-13257.945000	-36366.075000	40903.155000	34027.605000	48419.460000	14993.820000	-20566.575000	-54145.305000	-7.583238	-5.791639	-4.397129	-4.699641	-5.804060	-9.570695	-11.502032	1.918913	1.068200	2.670500	-0.427280	-0.839475	-0.092285	0.522948	-1.000000	-1.000000	-1.000000	-1.000000	-1.000000	-1.000000	-1.000000	61.000000	0.000000	-1.000000	-1.000000	526389.000000	1775765926.868869
-13246.830000	-36356.760000	40913.235000	34036.110000	48424.545000	15002.640000	-20561.355000	-54136.620000	-3.756329	-3.488183	-2.809219	-3.029563	-4.581372	-20.942004	-10.751404	1.203459	-2.578940	2.655240	-0.274680	-0.841062	-0.090576	0.522154	-1.000000	-1.000000	-1.000000	-1.000000	-1.000000	-1.000000	-1.000000	61.000000	0.000000	-1.000000	-1.000000	526390.000000	1775765926.868882
-13243.185000	-36360.765000	40907.070000	34028.955000	48409.695000	14999.895000	-20565.765000	-54135.405000	1.083584	-0.179949	-0.428865	-0.478492	-1.321347	-18.990585	-5.396958	-0.277466	-2.578940	2.655240	-0.274680	-0.841062	-0.090576	0.522154	-1.000000	-1.000000	-1.000000	-1.000000	-1.000000	-1.000000	-1.000000	61.000000	0.000000	-1.000000	-1.000000	526391.000000	1775765926.868893
-13253.805000	-36375.210000	40894.740000	34020.045000	48401.730000	14969.880000	-20565.270000	-54141.885000	4.775196	2.206975	0.965104	1.129314	1.023515	-9.006875	1.187746	-1.885017	-2.578940	2.655240	-0.274680	-0.841062	-0.090576	0.522154	-1.000000	-1.000000	-1.000000	-1.000000	-1.000000	-1.000000	-1.000000	61.000000	0.000000	-1.000000	-1.000000	526392.000000	1775765926.868907
-13267.035000	-36391.590000	40880.520000	34010.370000	48405.735000	15004.395000	-20564.955000	-54149.040000	5.150919	1.687488	-0.236185	0.327639	0.790489	0.652767	5.679381	-3.562261	-2.578940	2.655240	-0.274680	-0.841062	-0.090576	0.522154	-1.000000	-1.000000	-1.000000	-1.000000	-1.000000	-1.000000	-1.000000	61.000000	0.000000	-1.000000	-1.000000	526393.000000	1775765926.868919
-13266.315000	-36390.330000	40882.995000	34011.135000	48406.770000	15003.720000	-20573.595000	-54149.265000	1.839515	-1.492681	-3.316419	-2.133129	-0.476854	6.736429	6.689813	-5.113572	-2.578940	2.655240	-0.274680	-0.841062	-0.090576	0.522154	-1.000000	-1.000000	-1.000000	-1.000000	-1.000000	-1.000000	-1.000000	61.000000	0.000000	-1.000000	-1.000000	526394.000000	1775765926.868933
-13258.350000	-36379.620000	40896.765000	34021.935000	48405.150000	14975.820000	-20574.540000	-54145.305000	-2.293978	-4.006740	-4.937375	-3.498180	-0.529292	9.410858	4.623490	-5.380138	-2.578940	2.655240	-0.274680	-0.841062	-0.090576	0.522154	-1.000000	-1.000000	-1.000000	-1.000000	-1.000000	-1.000000	-1.000000	61.000000	0.000000	-1.000000	-1.000000	526395.000000	1775765926.868944
-13261.455000	-36383.265000	40895.820000	34022.970000	48410.505000	14973.435000	-20574.945000	-54146.250000	-3.652161	-2.637620	-2.323739	-1.574243	0.990068	7.611487	1.188851	-3.323014	-2.578940	2.655240	-0.274680	-0.841062	-0.090576	0.522154	-1.000000	-1.000000	-1.000000	-1.000000	-1.000000	-1.000000	-1.000000	61.000000	0.000000	-1.000000	-1.000000	526396.000000	1775765926.868957
-13258.305000	-36383.715000	40895.595000	34021.800000	48407.985000	14953.320000	-20569.680000	-54140.490000	-1.549733	1.961177	3.288805	2.745633	2.950193	1.674496	-1.353948	0.531661	-2.578940	2.655240	-0.274680	-0.841062	-0.090576	0.522154	-1.000000	-1.000000	-1.000000	-1.000000	-1.000000	-1.000000	-1.000000	61.000000	0.000000	-1.000000	-1.000000	526397.000000	1775765926.868968
-13249.440000	-36378.765000	40899.195000	34020.900000	48402.630000	14980.410000	-20569.365000	-54133.470000	2.039246	6.326776	7.894866	6.248901	3.854455	-4.305629	-1.682163	4.538671	-2.578940	2.655240	-0.274680	-0.841062	-0.090576	0.522154	-1.000000	-1.000000	-1.000000	-1.000000	-1.000000	-1.000000	-1.000000	61.000000	0.000000	-1.000000	-1.000000	526398.000000	1775765926.868982
-13244.895000	-36370.125000	40911.885000	34032.195000	48418.650000	15034.905000	-20577.690000	-54132.390000	5.023991	8.066640	8.988940	6.793234	3.079528	-4.489321	-0.447325	7.113671	-2.578940	2.655240	-0.274680	-0.841062	-0.090576	0.522154	-1.000000	-1.000000	-1.000000	-1.000000	-1.000000	-1.000000	-1.000000	61.000000	0.000000	-1.000000	-1.000000	526399.000000	1775765926.868993
-13242.735000	-36365.985000	40919.490000	34040.115000	48423.060000	15000.480000	-20591.010000	-54130.500000	6.073013	7.087805	7.096994	5.007153	1.761180	2.844476	0.270276	7.165816	-3.448760	2.655240	-1.007160	-0.839720	-0.093261	0.521788	-1.000000	-1.000000	-1.000000	-1.000000	-1.000000	-1.000000	-1.000000	61.000000	0.000000	-1.000000	-1.000000	526400.000000	1775765926.869007
-13249.530000	-36375.570000	40912.245000	34033.320000	48410.730000	14947.335000	-20582.730000	-54131.715000	4.452411	4.029195	3.626064	2.420691	0.826842	9.561414	-0.654747	4.537229	-3.448760	2.655240	-1.007160	-0.839720	-0.093261	0.521788	-1.000000	-1.000000	-1.000000	-1.000000	-1.000000	-1.000000	-1.000000	61.000000	0.000000	-1.000000	-1.000000	526401.000000	1775765926.869018
-13256.280000	-36384.165000	40905.450000	34032.645000	48413.295000	14962.410000	-20574.405000	-54134.730000	0.323222	-0.760229	-0.969267	-0.584377	-0.555850	6.039997	-1.673102	0.252257	-3.448760	2.655240	-1.007160	-0.839720	-0.093261	0.521788	-1.000000	-1.000000	-1.000000	-1.000000	-1.000000	-1.000000	-1.000000	61.000000	0.000000	-1.000000	-1.000000	526402.000000	1775765926.869031
-13265.190000	-36395.505000	40889.790000	34023.510000	48413.385000	14998.635000	-20575.350000	-54140.805000	-4.885799	-6.370053	-6.349979	-4.004271	-2.740647	-4.397181	-0.713177	-4.075012	-3.448760	2.655240	-1.007160	-0.839720	-0.093261	0.521788	-1.000000	-1.000000	-1.000000	-1.000000	-1.000000	-1.000000	-1.000000	61.000000	0.000000	-1.000000	-1.000000	526403.000000	1775765926.869041
-13261.995000	-36392.175000	40891.320000	34016.895000	48412.800000	14988.285000	-20578.365000	-54136.530000	-8.712391	-10.528589	-10.891457	-7.060149	-4.415883	-10.056124	1.683939	-6.840167	-3.448760	2.655240	-1.007160	-0.839720	-0.093261	0.521788	-1.000000	-1.000000	-1.000000	-1.000000	-1.000000	-1.000000	-1.000000	61.000000	0.000000	-1.000000	-1.000000	526404.000000	1775765926.869054
-13263.165000	-36395.955000	40892.445000	34014.735000	48406.410000	14978.340000	-20595.330000	-54140.760000	-8.873152	-10.710534	-11.942085	-8.455880	-4.525069	-6.948323	2.885278	-6.899383	-3.448760	2.655240	-1.007160	-0.839720	-0.093261	0.521788	-1.000000	-1.000000	-1.000000	-1.000000	-1.000000	-1.000000	-1.000000	61.000000	0.000000	-1.000000	-1.000000	526405.000000	1775765926.869065
-13257.450000	-36392.265000	40897.485000	34024.275000	48419.505000	14997.960000	-20591.955000	-54134.730000	-4.933931	-6.334479	-7.931720	-6.911707	-3.073324	-0.380246	1.259793	-4.277601	-3.448760	2.655240	-1.007160	-0.839720	-0.093261	0.521788	-1.000000	-1.000000	-1.000000	-1.000000	-1.000000	-1.000000	-1.000000	61.000000	0.000000	-1.000000	-1.000000	526406.000000	1775765926.869078
-13257.405000	-36395.955000	40894.740000	34020.945000	48415.995000	15030.000000	-20584.890000	-54133.830000	1.205111	0.492870	-0.351698	-2.227272	-0.405961	5.203817	-1.663275	-0.191728	-3.448760	2.655240	-1.007160	-0.839720	-0.093261	0.521788	-1.000000	-1.000000	-1.000000	-1.000000	-1.000000	-1.000000	-1.000000	61.000000	0.000000	-1.000000	-1.000000	526407.000000	1775765926.869089
-13252.365000	-36392.985000	40896.720000	34019.730000	48405.510000	15006.465000	-20587.050000	-54135.180000	6.582284	6.492971	6.976394	3.584626	2.278040	8.638097	-2.865137	3.578220	-3.448760	2.655240	-1.007160	-0.839720	-0.093261	0.521788	-1.000000	-1.000000	-1.000000	-1.000000	-1.000000	-1.000000	-1.000000	61.000000	0.000000	-1.000000	-1.000000	526408.000000	1775765926.869102
-13251.780000	-36388.845000	40902.435000	34025.895000	48411.360000	14990.310000	-20592.270000	-54138.645000	8.956710	9.401831	10.816099	7.582598	3.218900	7.605834	-1.578660	5.334596	-3.448760	2.655240	-1.007160	-0.839720	-0.093261	0.521788	-1.000000	-1.000000	-1.000000	-1.000000	-1.000000	-1.000000	-1.000000	61.000000	0.000000	-1.000000	-1.000000	526409.000000	1775765926.869113
-13250.790000	-36382.095000	40911.660000	34034.760000	48416.310000	14966.505000	-20598.840000	-54137.790000	7.755008	9.012470	10.563126	8.544039	2.411837	0.214668	0.300844	4.470237	-0.595140	3.265640	-1.159760	-0.840269	-0.096130	0.521788	-1.000000	-1.000000	-1.000000	-1.000000	-1.000000	-1.000000	-1.000000	61.000000	0.000000	-1.000000	-1.000000	526410.000000	1775765926.869126
-13247.640000	-36377.820000	40920.030000	34044.030000	48419.460000	14935.230000	-20600.190000	-54132.165000	3.988061	6.456504	7.680128	7.275470	1.495035	-10.791506	0.968564	2.073238	-0.595140	3.265640	-1.159760	-0.840269	-0.096130	0.521788	-1.000000	-1.000000	-1.000000	-1.000000	-1.000000	-1.000000	-1.000000	61.000000	0.000000	-1.000000	-1.000000	526411.000000	1775765926.869137
-13249.710000	-36385.605000	40915.170000	34042.365000	48426.930000	14987.340000	-20586.690000	-54127.125000	-0.476512	2.766565	3.686909	4.805655	1.424850	-18.237230	0.696900	0.058447	-0.595140	3.265640	-1.159760	-0.840269	-0.096130	0.521788	-1.000000	-1.000000	-1.000000	-1.000000	-1.000000	-1.000000	-1.000000	61.000000	0.000000	-1.000000	-1.000000	526412.000000	1775765926.869150
-13261.995000	-36405.315000	40894.560000	34020.630000	48415.635000	15026.670000	-20578.230000	-54128.790000	-4.220125	-1.912194	-1.213176	0.978331	1.616779	-14.004036	1.186603	-0.582430	-0.595140	3.265640	-1.159760	-0.840269	-0.096130	0.521788	-1.000000	-1.000000	-1.000000	-1.000000	-1.000000	-1.000000	-1.000000	61.000000	0.000000	-1.000000	-1.000000	526413.000000	1775765926.869161
-13266.945000	-36411.435000	40887.900000	34013.970000	48411.810000	14992.560000	-20576.970000	-54132.795000	-6.819894	-7.301271	-7.110134	-4.651173	0.670595	2.001277	2.966183	-0.541439	-0.595140	3.265640	-1.159760	-0.840269	-0.096130	0.521788	-1.000000	-1.000000	-1.000000	-1.000000	-1.000000	-1.000000	-1.000000	61.000000	0.000000	-1.000000	-1.000000	526414.000000	1775765926.869175
-13257.900000	-36401.670000	40901.040000	34027.335000	48425.760000	14998.635000	-20578.680000	-54132.885000	-7.633798	-11.092624	-11.812275	-10.038619	-1.527113	17.759337	4.271801	-0.972611	-0.595140	3.265640	-1.159760	-0.840269	-0.096130	0.521788	-1.000000	-1.000000	-1.000000	-1.000000	-1.000000	-1.000000	-1.000000	61.000000	0.000000	-1.000000	-1.000000	526415.000000	1775765926.869185
-13249.440000	-36394.920000	40907.880000	34030.665000	48424.680000	15012.270000	-20580.030000	-54126.720000	-5.377843	-9.952317	-11.482590	-11.047885	-2.993853	21.860272	3.121082	-1.832535	-0.595140	3.265640	-1.159760	-0.840269	-0.096130	0.521788	-1.000000	-1.000000	-1.000000	-1.000000	-1.000000	-1.000000	-1.000000	61.000000	0.000000	-1.000000	-1.000000	526416.000000	1775765926.869199
-13253.625000	-36404.280000	40898.430000	34017.885000	48408.030000	14999.220000	-20582.505000	-54126.855000	-0.260865	-3.614211	-5.359132	-6.439559	-2.715400	14.231418	-0.448205	-2.064832	-0.595140	3.265640	-1.159760	-0.840269	-0.096130	0.521788	-1.000000	-1.000000	-1.000000	-1.000000	-1.000000	-1.000000	-1.000000	61.000000	0.000000	-1.000000	-1.000000	526417.000000	1775765926.869209
-13250.340000	-36403.155000	40901.265000	34020.855000	48414.420000	14990.805000	-20582.145000	-54122.760000	4.919804	3.904906	2.535753	0.275501	-2.019754	1.256458	-4.490106	-1.167617	-0.595140	3.265640	-1.159760	-0.840269	-0.096130	0.521788	-1.000000	-1.000000	-1.000000	-1.000000	-1.000000	-1.000000	-1.000000	61.000000	0.000000	-1.000000	-1.000000	526418.000000	1775765926.869222
-13247.460000	-36401.445000	40903.920000	34022.655000	48411.765000	14960.250000	-20590.020000	-54118.350000	7.292047	8.329406	7.687290	5.154606	-1.660447	-11.216165	-6.891359	0.355756	-0.595140	3.265640	-1.159760	-0.840269	-0.096130	0.521788	-1.000000	-1.000000	-1.000000	-1.000000	-1.000000	-1.000000	-1.000000	61.000000	0.000000	-1.000000	-1.000000	526419.000000	1775765926.869232
-13240.845000	-36394.695000	40913.640000	34035.930000	48425.085000	14966.235000	-20589.390000	-54109.845000	6.370457	8.623010	8.837085	7.232898	-0.708333	-19.070092	-6.792711	1.817399	2.044840	1.983800	-1.052940	-0.840940	-0.097717	0.521544	-1.000000	-1.000000	-1.000000	-1.000000	-1.000000	-1.000000	-1.000000	61.000000	0.000000	-1.000000	-1.000000	526420.000000	1775765926.869245
-13243.005000	-36399.780000	40909.635000	34035.030000	48428.415000	15028.515000	-20585.835000	-54110.880000	3.474464	6.149523	7.131238	7.394731	1.566026	-18.117810	-4.409243	2.671713	2.044840	1.983800	-1.052940	-0.840940	-0.097717	0.521544	-1.000000	-1.000000	-1.000000	-1.000000	-1.000000	-1.000000	-1.000000	61.000000	0.000000	-1.000000	-1.000000	526421.000000	1775765926.869256
-13258.845000	-36416.655000	40895.325000	34020.855000	48413.790000	15008.625000	-20584.845000	-54121.050000	-0.277514	2.120969	3.554083	5.818238	4.002708	-6.433026	-0.482209	2.128339	2.044840	1.983800	-1.052940	-0.840940	-0.097717	0.521544	-1.000000	-1.000000	-1.000000	-1.000000	-1.000000	-1.000000	-1.000000	61.000000	0.000000	-1.000000	-1.000000	526422.000000	1775765926.869269
-13268.520000	-36425.610000	40888.260000	34011.810000	48406.590000	14986.935000	-20583.000000	-54129.420000	-4.523590	-2.923399	-1.493859	1.788501	4.034580	8.916860	3.585103	-0.456558	2.044840	1.983800	-1.052940	-0.840940	-0.097717	0.521544	-1.000000	-1.000000	-1.000000	-1.000000	-1.000000	-1.000000	-1.000000	61.000000	0.000000	-1.000000	-1.000000	526423.000000	1775765926.869280
-13271.040000	-36427.410000	40887.810000	34009.650000	48404.115000	14993.865000	-20587.230000	-54138.645000	-8.173507	-7.468187	-6.462207	-3.862868	0.836152	16.355304	6.053925	-4.319096	2.044840	1.983800	-1.052940	-0.840940	-0.097717	0.521544	-1.000000	-1.000000	-1.000000	-1.000000	-1.000000	-1.000000	-1.000000	61.000000	0.000000	-1.000000	-1.000000	526424.000000	1775765926.869293
-13275.765000	-36433.170000	40882.680000	34003.035000	48397.185000	14982.705000	-20602.980000	-54146.925000	-9.080389	-9.013356	-8.712544	-8.168647	-3.300273	12.360613	5.590550	-7.317040	2.044840	1.983800	-1.052940	-0.840940	-0.097717	0.521544	-1.000000	-1.000000	-1.000000	-1.000000	-1.000000	-1.000000	-1.000000	61.000000	0.000000	-1.000000	-1.000000	526425.000000	1775765926.869304
-13280.895000	-36440.100000	40876.830000	33995.835000	48387.240000	14972.985000	-20615.895000	-54150.210000	-6.193546	-6.553219	-7.043903	-8.765393	-5.636543	2.295665	1.941848	-7.484396	2.044840	1.983800	-1.052940	-0.840940	-0.097717	0.521544	-1.000000	-1.000000	-1.000000	-1.000000	-1.000000	-1.000000	-1.000000	61.000000	0.000000	-1.000000	-1.000000	526426.000000	1775765926.869317
-13275.405000	-36439.695000	40876.965000	33996.060000	48385.080000	14972.580000	-20619.315000	-54146.025000	-0.674809	-1.543092	-2.674789	-5.699308	-5.228813	-6.912055	-3.164781	-4.159317	2.044840	1.983800	-1.052940	-0.840940	-0.097717	0.521544	-1.000000	-1.000000	-1.000000	-1.000000	-1.000000	-1.000000	-1.000000	61.000000	0.000000	-1.000000	-1.000000	526427.000000	1775765926.869328
-13245.030000	-36405.540000	40912.470000	34030.485000	48417.210000	14998.770000	-20595.375000	-54128.205000	5.807276	4.320051	2.894244	0.041396	-1.921452	-10.213099	-5.972522	2.002285	2.044840	1.983800	-1.052940	-0.840940	-0.097717	0.521544	-1.000000	-1.000000	-1.000000	-1.000000	-1.000000	-1.000000	-1.000000	61.000000	0.000000	-1.000000	-1.000000	526428.000000	1775765926.869341
-13231.350000	-36393.165000	40928.760000	34047.225000	48437.370000	15009.165000	-20581.290000	-54112.455000	12.126039	10.414034	9.199829	7.689918	4.513577	-5.744850	-3.172460	9.292728	2.044840	1.983800	-1.052940	-0.840940	-0.097717	0.521544	-1.000000	-1.000000	-1.000000	-1.000000	-1.000000	-1.000000	-1.000000	61.000000	0.000000	-1.000000	-1.000000	526429.000000	1775765926.869351
-13238.010000	-36404.235000	40916.970000	34032.645000	48415.545000	14991.615000	-20593.755000	-54113.355000	15.855286	14.619189	14.134907	14.317852	11.535785	2.966593	3.926628	14.718069	2.182180	2.350040	-1.861720	-0.840391	-0.097229	0.521056	-1.000000	-1.000000	-1.000000	-1.000000	-1.000000	-1.000000	-1.000000	61.000000	0.000000	-1.000000	-1.000000	526430.000000	1775765926.869365
-13245.120000	-36412.065000	40911.075000	34027.830000	48406.545000	14999.670000	-20592.855000	-54114.705000	13.286125	12.780915	13.175607	14.586583	13.111784	8.837599	9.347890	14.730926	2.182180	2.350040	-1.861720	-0.840391	-0.097229	0.521056	-1.000000	-1.000000	-1.000000	-1.000000	-1.000000	-1.000000	-1.000000	61.000000	0.000000	-1.000000	-1.000000	526431.000000	1775765926.869375
-13242.915000	-36410.085000	40914.855000	34030.845000	48414.285000	15003.405000	-20593.395000	-54113.265000	3.780579	3.805010	4.751845	6.591471	6.378154	8.152897	8.611237	8.165424	2.182180	2.350040	-1.861720	-0.840391	-0.097229	0.521056	-1.000000	-1.000000	-1.000000	-1.000000	-1.000000	-1.000000	-1.000000	61.000000	0.000000	-1.000000	-1.000000	526432.000000	1775765926.869388
-13248.900000	-36411.300000	40912.470000	34030.395000	48425.535000	15006.015000	-20597.580000	-54119.700000	-8.128988	-7.637624	-6.650431	-4.994387	-3.872977	3.108846	2.702421	-2.116601	2.182180	2.350040	-1.861720	-0.840391	-0.097229	0.521056	-1.000000	-1.000000	-1.000000	-1.000000	-1.000000	-1.000000	-1.000000	61.000000	0.000000	-1.000000	-1.000000	526433.000000	1775765926.869399
-13249.980000	-36408.555000	40921.110000	34042.230000	48439.350000	14998.050000	-20598.345000	-54125.370000	-16.416408	-15.167678	-14.523743	-13.250497	-10.215468	-2.442881	-4.312425	-11.440174	2.182180	2.350040	-1.861720	-0.840391	-0.097229	0.521056	-1.000000	-1.000000	-1.000000	-1.000000	-1.000000	-1.000000	-1.000000	61.000000	0.000000	-1.000000	-1.000000	526434.000000	1775765926.869412
-13244.580000	-36410.445000	40921.200000	34041.285000	48434.535000	15008.670000	-20600.820000	-54118.530000	-17.645339	-15.612143	-15.292690	-14.329720	-9.677471	-6.120379	-8.785341	-16.052298	2.182180	2.350040	-1.861720	-0.840391	-0.097229	0.521056	-1.000000	-1.000000	-1.000000	-1.000000	-1.000000	-1.000000	-1.000000	61.000000	0.000000	-1.000000	-1.000000	526435.000000	1775765926.869423
-13245.885000	-36421.425000	40908.105000	34028.730000	48426.075000	15033.645000	-20611.080000	-54116.415000	-12.066755	-10.360043	-10.144927	-9.548883	-5.257921	-6.354776	-9.313349	-14.268392	2.182180	2.350040	-1.861720	-0.840391	-0.097229	0.521056	-1.000000	-1.000000	-1.000000	-1.000000	-1.000000	-1.000000	-1.000000	61.000000	0.000000	-1.000000	-1.000000	526436.000000	1775765926.869437
-13252.905000	-36432.765000	40895.955000	34015.140000	48403.215000	14991.120000	-20615.895000	-54126.045000	-3.142762	-3.546951	-3.580686	-3.658203	-2.106085	-3.406613	-6.878393	-7.494349	2.182180	2.350040	-1.861720	-0.840391	-0.097229	0.521056	-1.000000	-1.000000	-1.000000	-1.000000	-1.000000	-1.000000	-1.000000	61.000000	0.000000	-1.000000	-1.000000	526437.000000	1775765926.869448
-13258.845000	-36439.290000	40888.350000	34007.805000	48397.860000	14951.385000	-20613.330000	-54138.555000	4.446961	1.331876	0.623047	-0.355580	-2.690439	-1.763266	-3.120834	0.035343	2.182180	2.350040	-1.861720	-0.840391	-0.097229	0.521056	-1.000000	-1.000000	-1.000000	-1.000000	-1.000000	-1.000000	-1.000000	61.000000	0.000000	-1.000000	-1.000000	526438.000000	1775765926.870479
-13255.290000	-36432.135000	40896.495000	34014.555000	48411.270000	14975.685000	-20612.520000	-54135.765000	7.966603	3.769804	2.314616	0.590055	-4.675586	-4.663676	1.049721	4.584877	2.182180	2.350040	-1.861720	-0.840391	-0.097229	0.521056	-1.000000	-1.000000	-1.000000	-1.000000	-1.000000	-1.000000	-1.000000	61.000000	0.000000	-1.000000	-1.000000	526439.000000	1775765926.870499
-13254.030000	-36419.130000	40914.810000	34030.800000	48419.325000	14957.595000	-20622.015000	-54128.700000	7.933838	5.630556	4.072409	2.080218	-3.493271	-7.849362	4.724738	5.976689	-0.946120	1.648080	-0.747740	-0.840879	-0.093872	0.520934	-1.000000	-1.000000	-1.000000	-1.000000	-1.000000	-1.000000	-1.000000	61.000000	0.000000	-1.000000	-1.000000	526440.000000	1775765926.884215
-13251.690000	-36415.440000	40919.805000	34036.830000	48427.785000	14945.580000	-20624.535000	-54116.415000	6.349079	8.250481	7.646802	5.943092	2.350015	-6.056708	6.447194	6.487519	-0.946120	1.648080	-0.747740	-0.840879	-0.093872	0.520934	-1.000000	-1.000000	-1.000000	-1.000000	-1.000000	-1.000000	-1.000000	61.000000	0.000000	-1.000000	-1.000000	526441.000000	1775765926.884250
-13253.490000	-36423.855000	40911.165000	34026.975000	48420.225000	14996.385000	-20608.875000	-54109.395000	4.490585	10.203808	11.126508	10.201855	9.352516	0.957415	5.899199	7.536802	-0.946120	1.648080	-0.747740	-0.840879	-0.093872	0.520934	-1.000000	-1.000000	-1.000000	-1.000000	-1.000000	-1.000000	-1.000000	61.000000	0.000000	-1.000000	-1.000000	526442.000000	1775765926.884277
-13253.445000	-36428.850000	40907.385000	34022.070000	48415.635000	15024.420000	-20602.800000	-54109.575000	2.535221	8.670401	10.613784	10.709026	12.309214	11.617249	4.728495	8.182670	-0.946120	1.648080	-0.747740	-0.840879	-0.093872	0.520934	-1.000000	-1.000000	-1.000000	-1.000000	-1.000000	-1.000000	-1.000000	61.000000	0.000000	-1.000000	-1.000000	526443.000000	1775765926.884289
-13243.320000	-36415.800000	40921.920000	34034.535000	48422.205000	14992.425000	-20618.235000	-54114.705000	0.606381	3.315990	5.173775	6.084239	9.113076	21.555455	3.815018	6.358727	-0.946120	1.648080	-0.747740	-0.840879	-0.093872	0.520934	-1.000000	-1.000000	-1.000000	-1.000000	-1.000000	-1.000000	-1.000000	61.000000	0.000000	-1.000000	-1.000000	526444.000000	1775765926.884304
-13232.835000	-36403.155000	40934.970000	34043.625000	48421.755000	14965.245000	-20627.055000	-54113.580000	-0.506955	-2.435411	-1.502798	-0.358536	2.354937	22.033148	1.650542	1.395261	-0.946120	1.648080	-0.747740	-0.840879	-0.093872	0.520934	-1.000000	-1.000000	-1.000000	-1.000000	-1.000000	-1.000000	-1.000000	61.000000	0.000000	-1.000000	-1.000000	526445.000000	1775765926.884315
-13236.390000	-36408.780000	40931.370000	34044.120000	48427.830000	14981.985000	-20622.150000	-54112.365000	-0.441248	-5.177505	-5.360135	-4.512988	-3.688043	9.314464	-2.479657	-4.715256	-0.946120	1.648080	-0.747740	-0.840879	-0.093872	0.520934	-1.000000	-1.000000	-1.000000	-1.000000	-1.000000	-1.000000	-1.000000	61.000000	0.000000	-1.000000	-1.000000	526446.000000	1775765926.897468
-13245.480000	-36424.440000	40918.005000	34038.180000	48428.460000	14979.330000	-20599.470000	-54105.345000	-0.497715	-5.375202	-6.288345	-5.577619	-6.457203	-8.499210	-5.808809	-8.730701	-0.946120	1.648080	-0.747740	-0.840879	-0.093872	0.520934	-1.000000	-1.000000	-1.000000	-1.000000	-1.000000	-1.000000	-1.000000	61.000000	0.000000	-1.000000	-1.000000	526447.000000	1775765926.897497
-13257.855000	-36444.735000	40899.330000	34023.735000	48408.885000	14974.245000	-20587.725000	-54109.440000	-2.373124	-5.974973	-6.972532	-5.562727	-6.315211	-19.968399	-4.799066	-8.801285	-0.946120	1.648080	-0.747740	-0.840879	-0.093872	0.520934	-1.000000	-1.000000	-1.000000	-1.000000	-1.000000	-1.000000	-1.000000	61.000000	0.000000	-1.000000	-1.000000	526448.000000	1775765926.897567
-13243.455000	-36431.280000	40914.360000	34037.730000	48426.030000	15024.555000	-20595.375000	-54108.855000	-5.467876	-7.742758	-8.337937	-5.851434	-5.134527	-19.753948	0.037530	-5.759092	-0.946120	1.648080	-0.747740	-0.840879	-0.093872	0.520934	-1.000000	-1.000000	-1.000000	-1.000000	-1.000000	-1.000000	-1.000000	61.000000	0.000000	-1.000000	-1.000000	526449.000000	1775765926.897585
-13248.045000	-36431.145000	40915.800000	34035.300000	48419.730000	15009.885000	-20611.395000	-54121.320000	-6.808929	-7.757451	-7.859222	-5.331267	-3.469229	-9.322502	3.765774	-2.073935	-4.928980	1.129240	0.122080	-0.841612	-0.090759	0.520445	-1.000000	-1.000000	-1.000000	-1.000000	-1.000000	-1.000000	-1.000000	61.000000	0.000000	-1.000000	-1.000000	526450.000000	1775765926.897610
-13264.470000	-36442.710000	40908.375000	34029.720000	48421.755000	15014.970000	-20629.845000	-54135.405000	-4.942630	-3.836928	-3.615668	-2.849304	-1.001431	3.948137	2.059253	-0.034088	-4.928980	1.129240	0.122080	-0.841612	-0.090759	0.520445	-1.000000	-1.000000	-1.000000	-1.000000	-1.000000	-1.000000	-1.000000	61.000000	0.000000	-1.000000	-1.000000	526451.000000	1775765926.897623
-13260.735000	-36440.505000	40913.415000	34036.650000	48430.305000	15016.320000	-20620.080000	-54126.000000	-1.676798	2.063811	2.472108	0.612847	1.729092	11.369182	-4.026380	-0.015591	-4.928980	1.129240	0.122080	-0.841612	-0.090759	0.520445	-1.000000	-1.000000	-1.000000	-1.000000	-1.000000	-1.000000	-1.000000	61.000000	0.000000	-1.000000	-1.000000	526452.000000	1775765926.897637
-13258.215000	-36439.740000	40914.630000	34038.630000	48431.565000	15022.035000	-20616.390000	-54120.150000	1.244407	6.707739	7.214499	3.600048	3.961844	10.156710	-8.747244	0.122784	-4.928980	1.129240	0.122080	-0.841612	-0.090759	0.520445	-1.000000	-1.000000	-1.000000	-1.000000	-1.000000	-1.000000	-1.000000	61.000000	0.000000	-1.000000	-1.000000	526453.000000	1775765926.897649
-13257.765000	-36435.465000	40917.510000	34037.685000	48425.445000	15012.855000	-20610.180000	-54115.425000	3.737408	8.720031	9.025552	5.333419	4.871472	3.492907	-7.445476	2.402187	-4.928980	1.129240	0.122080	-0.841612	-0.090759	0.520445	-1.000000	-1.000000	-1.000000	-1.000000	-1.000000	-1.000000	-1.000000	61.000000	0.000000	-1.000000	-1.000000	526454.000000	1775765926.902336
-13266.945000	-36437.715000	40917.330000	34037.415000	48428.955000	15017.805000	-20610.540000	-54121.230000	5.453278	8.204273	7.868371	5.261809	3.675775	-3.950498	-0.879850	5.820364	-4.928980	1.129240	0.122080	-0.841612	-0.090759	0.520445	-1.000000	-1.000000	-1.000000	-1.000000	-1.000000	-1.000000	-1.000000	61.000000	0.000000	-1.000000	-1.000000	526455.000000	1775765926.902765
-13260.015000	-36444.420000	40908.195000	34027.470000	48422.565000	15022.080000	-20610.180000	-54117.270000	5.477504	5.546859	4.425111	3.230213	0.804465	-8.413298	6.289912	7.513168	-4.928980	1.129240	0.122080	-0.841612	-0.090759	0.520445	-1.000000	-1.000000	-1.000000	-1.000000	-1.000000	-1.000000	-1.000000	61.000000	0.000000	-1.000000	-1.000000	526456.000000	1775765926.905794
-13234.545000	-36428.265000	40922.550000	34037.775000	48426.930000	15025.680000	-20601.360000	-54097.965000	4.397286	1.663917	0.017006	0.055809	-2.197605	-8.106646	9.936165	6.360361	-4.928980	1.129240	0.122080	-0.841612	-0.090759	0.520445	-1.000000	-1.000000	-1.000000	-1.000000	-1.000000	-1.000000	-1.000000	61.000000	0.000000	-1.000000	-1.000000	526457.000000	1775765926.905821
-13233.420000	-36424.485000	40929.300000	34044.030000	48427.470000	14994.315000	-20612.385000	-54095.400000	4.020353	-1.442554	-3.103788	-2.281871	-3.764020	-4.582257	8.898120	3.891465	-4.928980	1.129240	0.122080	-0.841612	-0.090759	0.520445	-1.000000	-1.000000	-1.000000	-1.000000	-1.000000	-1.000000	-1.000000	61.000000	0.000000	-1.000000	-1.000000	526458.000000	1775765926.908629
-13239.630000	-36426.330000	40929.885000	34043.760000	48422.835000	14976.765000	-20621.880000	-54103.500000	4.013148	-2.492743	-3.419979	-2.255379	-3.334658	-1.924477	4.053614	1.254351	-4.928980	1.129240	0.122080	-0.841612	-0.090759	0.520445	-1.000000	-1.000000	-1.000000	-1.000000	-1.000000	-1.000000	-1.000000	61.000000	0.000000	-1.000000	-1.000000	526459.000000	1775765926.908658
-13245.345000	-36434.565000	40924.215000	34038.540000	48420.405000	14999.625000	-20611.530000	-54103.635000	1.873594	-2.579890	-2.063339	-0.717416	-1.782223	-1.687913	-2.339993	-2.080374	-4.867940	2.777320	-0.427280	-0.841367	-0.094543	0.520384	-1.000000	-1.000000	-1.000000	-1.000000	-1.000000	-1.000000	-1.000000	61.000000	0.000000	-1.000000	-1.000000	526460.000000	1775765926.915181
-13245.930000	-36436.770000	40911.660000	34026.030000	48406.275000	14959.575000	-20602.845000	-54095.805000	-3.069670	-3.381729	-1.540944	0.013875	-0.561770	-1.309389	-6.572155	-5.769913	-4.867940	2.777320	-0.427280	-0.841367	-0.094543	0.520384	-1.000000	-1.000000	-1.000000	-1.000000	-1.000000	-1.000000	-1.000000	61.000000	0.000000	-1.000000	-1.000000	526461.000000	1775765926.915209
-13250.070000	-36438.030000	40897.485000	34019.280000	48409.515000	14999.535000	-20599.515000	-54089.010000	-8.288909	-4.816935	-3.181503	-1.344255	-0.394975	1.194986	-6.102286	-7.660895	-4.867940	2.777320	-0.427280	-0.841367	-0.094543	0.520384	-1.000000	-1.000000	-1.000000	-1.000000	-1.000000	-1.000000	-1.000000	61.000000	0.000000	-1.000000	-1.000000	526462.000000	1775765926.918103
-13253.355000	-36448.515000	40908.015000	34027.020000	48418.695000	15006.240000	-20611.395000	-54104.130000	-10.698310	-5.529528	-5.668680	-3.538586	-0.348997	6.060456	-2.375573	-6.606771	-4.867940	2.777320	-0.427280	-0.841367	-0.094543	0.520384	-1.000000	-1.000000	-1.000000	-1.000000	-1.000000	-1.000000	-1.000000	61.000000	0.000000	-1.000000	-1.000000	526463.000000	1775765926.918126
-13244.535000	-36442.260000	40916.610000	34031.430000	48415.320000	14987.745000	-20617.290000	-54099.405000	-8.933831	-4.603078	-5.672056	-3.769119	1.032425	11.588401	0.662062	-4.056002	-4.867940	2.777320	-0.427280	-0.841367	-0.094543	0.520384	-1.000000	-1.000000	-1.000000	-1.000000	-1.000000	-1.000000	-1.000000	61.000000	0.000000	-1.000000	-1.000000	526464.000000	1775765926.989817
-13243.770000	-36439.380000	40920.120000	34036.155000	48420.720000	14989.230000	-20620.575000	-54098.235000	-3.601462	-1.818563	-1.345283	-0.751545	3.408537	13.175119	0.716297	-1.623165	-4.867940	2.777320	-0.427280	-0.841367	-0.094543	0.520384	-1.000000	-1.000000	-1.000000	-1.000000	-1.000000	-1.000000	-1.000000	61.000000	0.000000	-1.000000	-1.000000	526465.000000	1775765926.989843
-13248.090000	-36442.620000	40911.615000	34030.530000	48416.355000	14973.795000	-20612.295000	-54095.940000	2.842550	2.170616	4.926085	3.666342	4.958710	8.104848	-0.931487	0.582938	-4.867940	2.777320	-0.427280	-0.841367	-0.094543	0.520384	-1.000000	-1.000000	-1.000000	-1.000000	-1.000000	-1.000000	-1.000000	61.000000	0.000000	-1.000000	-1.000000	526466.000000	1775765926.989871
-13250.025000	-36447.255000	40916.295000	34037.145000	48430.620000	15017.670000	-20608.695000	-54099.090000	7.126373	5.415206	8.731648	6.373432	4.601606	-0.300478	-1.444350	2.588533	-4.867940	2.777320	-0.427280	-0.841367	-0.094543	0.520384	-1.000000	-1.000000	-1.000000	-1.000000	-1.000000	-1.000000	-1.000000	61.000000	0.000000	-1.000000	-1.000000	526467.000000	1775765926.989883
-13254.525000	-36450.495000	40919.445000	34039.710000	48428.325000	14995.620000	-20620.260000	-54100.080000	7.477932	6.044564	8.091358	5.985633	2.851744	-5.961701	0.101404	3.745685	-4.867940	2.777320	-0.427280	-0.841367	-0.094543	0.520384	-1.000000	-1.000000	-1.000000	-1.000000	-1.000000	-1.000000	-1.000000	61.000000	0.000000	-1.000000	-1.000000	526468.000000	1775765926.989983
-13263.705000	-36462.555000	40906.710000	34022.340000	48407.985000	14989.005000	-20628.765000	-54106.110000	4.497097	3.824607	4.197381	3.054295	0.220272	-7.044739	1.749359	3.467540	-4.867940	2.777320	-0.427280	-0.841367	-0.094543	0.520384	-1.000000	-1.000000	-1.000000	-1.000000	-1.000000	-1.000000	-1.000000	61.000000	0.000000	-1.000000	-1.000000	526469.000000	1775765926.990004
-13269.780000	-36476.865000	40889.790000	34002.630000	48387.690000	14985.585000	-20635.605000	-54111.915000	0.101240	-0.162533	-1.227143	-1.773590	-3.883495	-6.523005	1.441705	1.822423	1.693860	3.784480	-0.289940	-0.837888	-0.100586	0.523436	-1.000000	-1.000000	-1.000000	-1.000000	-1.000000	-1.000000	-1.000000	61.000000	0.000000	-1.000000	-1.000000	526470.000000	1775765926.990029
-13244.220000	-36444.960000	40924.935000	34039.035000	48422.205000	15014.835000	-20610.000000	-54103.770000	-3.000282	-3.530514	-5.946647	-6.586197	-8.193896	-5.708550	0.045402	-0.209408	1.693860	3.784480	-0.289940	-0.837888	-0.100586	0.523436	-1.000000	-1.000000	-1.000000	-1.000000	-1.000000	-1.000000	-1.000000	61.000000	0.000000	-1.000000	-1.000000	526471.000000	1775765926.990041
-13226.715000	-36427.815000	40942.935000	34056.495000	48442.635000	14983.920000	-20594.745000	-54085.140000	-1.980540	-2.762771	-6.133959	-6.909925	-7.991036	-3.462908	0.656960	-0.735474	1.693860	3.784480	-0.289940	-0.837888	-0.100586	0.523436	-1.000000	-1.000000	-1.000000	-1.000000	-1.000000	-1.000000	-1.000000	61.000000	0.000000	-1.000000	-1.000000	526472.000000	1775765926.990057
-13238.640000	-36443.070000	40927.410000	34038.810000	48432.330000	14988.780000	-20606.400000	-54091.755000	2.787573	2.482695	-0.868509	-1.228586	-1.240132	-0.738171	3.990818	1.222844	1.693860	3.784480	-0.289940	-0.837888	-0.100586	0.523436	-1.000000	-1.000000	-1.000000	-1.000000	-1.000000	-1.000000	-1.000000	61.000000	0.000000	-1.000000	-1.000000	526473.000000	1775765926.990068
-13241.475000	-36443.880000	40929.750000	34039.035000	48434.985000	15017.355000	-20607.795000	-54094.770000	6.451816	7.004414	4.702886	5.120722	6.865042	1.035592	6.317854	3.635200	1.693860	3.784480	-0.289940	-0.837888	-0.100586	0.523436	-1.000000	-1.000000	-1.000000	-1.000000	-1.000000	-1.000000	-1.000000	61.000000	0.000000	-1.000000	-1.000000	526474.000000	1775765926.990083
-13236.120000	-36438.570000	40936.455000	34047.765000	48436.695000	14995.080000	-20611.215000	-54094.455000	5.014562	6.162519	5.529318	6.595368	9.847480	2.671164	4.195490	3.523688	1.693860	3.784480	-0.289940	-0.837888	-0.100586	0.523436	-1.000000	-1.000000	-1.000000	-1.000000	-1.000000	-1.000000	-1.000000	61.000000	0.000000	-1.000000	-1.000000	526475.000000	1775765926.990094
-13227.030000	-36429.435000	40948.155000	34062.345000	48446.010000	14991.885000	-20622.555000	-54089.730000	-0.118348	1.155988	2.233595	3.724263	6.675493	3.700364	-1.585206	0.669900	1.693860	3.784480	-0.289940	-0.837888	-0.100586	0.523436	-1.000000	-1.000000	-1.000000	-1.000000	-1.000000	-1.000000	-1.000000	61.000000	0.000000	-1.000000	-1.000000	526476.000000	1775765926.990107
-13233.240000	-36435.105000	40944.195000	34061.445000	48431.475000	14988.870000	-20630.070000	-54092.790000	-4.832828	-3.866741	-1.611507	0.258575	0.535693	2.326299	-7.710211	-2.670647	1.693860	3.784480	-0.289940	-0.837888	-0.100586	0.523436	-1.000000	-1.000000	-1.000000	-1.000000	-1.000000	-1.000000	-1.000000	61.000000	0.000000	-1.000000	-1.000000	526477.000000	1775765926.990119
-13237.515000	-36444.195000	40928.085000	34048.440000	48414.465000	14973.075000	-20621.070000	-54090.990000	-6.997137	-6.700236	-4.296563	-2.137587	-5.682242	-0.997555	-10.788759	-4.540535	1.693860	3.784480	-0.289940	-0.837888	-0.100586	0.523436	-1.000000	-1.000000	-1.000000	-1.000000	-1.000000	-1.000000	-1.000000	61.000000	0.000000	-1.000000	-1.000000	526478.000000	1775765926.990132
-13237.740000	-36445.140000	40929.525000	34050.285000	48422.295000	14970.510000	-20617.200000	-54087.750000	-6.915387	-7.567160	-6.252843	-4.236280	-10.212325	-4.245397	-8.648674	-4.371308	1.693860	3.784480	-0.289940	-0.837888	-0.100586	0.523436	-1.000000	-1.000000	-1.000000	-1.000000	-1.000000	-1.000000	-1.000000	61.000000	0.000000	-1.000000	-1.000000	526479.000000	1775765926.990143
-13244.985000	-36452.430000	40926.825000	34049.790000	48432.195000	15035.085000	-20612.340000	-54091.305000	-5.367943	-6.906920	-7.191843	-6.039097	-10.672441	-4.303749	-1.982179	-2.631779	3.219860	3.128300	-1.251320	-0.838133	-0.100464	0.524535	-1.000000	-1.000000	-1.000000	-1.000000	-1.000000	-1.000000	-1.000000	61.000000	0.000000	-1.000000	-1.000000	526480.000000	1775765926.990157
-13244.130000	-36454.005000	40927.140000	34051.230000	48433.455000	15020.460000	-20615.895000	-54087.705000	-2.960025	-4.785883	-5.842585	-6.123864	-5.685825	1.513824	5.509465	-0.433963	3.219860	3.128300	-1.251320	-0.838133	-0.100464	0.524535	-1.000000	-1.000000	-1.000000	-1.000000	-1.000000	-1.000000	-1.000000	61.000000	0.000000	-1.000000	-1.000000	526481.000000	1775765926.990168
-13238.595000	-36449.595000	40932.855000	34058.070000	48436.335000	14969.475000	-20628.630000	-54086.715000	-0.048418	-1.411155	-1.949285	-3.671911	2.338202	8.774471	9.462493	1.271755	3.219860	3.128300	-1.251320	-0.838133	-0.100464	0.524535	-1.000000	-1.000000	-1.000000	-1.000000	-1.000000	-1.000000	-1.000000	61.000000	0.000000	-1.000000	-1.000000	526482.000000	1775765926.990181
-13236.255000	-36449.280000	40932.585000	34054.335000	48428.055000	14984.190000	-20635.605000	-54087.300000	3.175404	2.683170	3.165343	0.471981	8.652822	8.522983	7.725040	2.144348	3.219860	3.128300	-1.251320	-0.838133	-0.100464	0.524535	-1.000000	-1.000000	-1.000000	-1.000000	-1.000000	-1.000000	-1.000000	61.000000	0.000000	-1.000000	-1.000000	526483.000000	1775765926.990192
-13234.140000	-36454.275000	40924.530000	34042.815000	48411.225000	15011.595000	-20620.305000	-54081.810000	5.953695	6.199320	7.120164	3.981662	9.613891	0.723947	2.263890	2.214506	3.219860	3.128300	-1.251320	-0.838133	-0.100464	0.524535	-1.000000	-1.000000	-1.000000	-1.000000	-1.000000	-1.000000	-1.000000	61.000000	0.000000	-1.000000	-1.000000	526484.000000	1775765926.990205
-13225.860000	-36450.225000	40927.005000	34042.005000	48410.910000	15004.845000	-20609.865000	-54072.765000	7.177563	7.546560	7.848154	4.671599	4.997088	-5.773837	-2.045213	1.956451	3.219860	3.128300	-1.251320	-0.838133	-0.100464	0.524535	-1.000000	-1.000000	-1.000000	-1.000000	-1.000000	-1.000000	-1.000000	61.000000	0.000000	-1.000000	-1.000000	526485.000000	1775765926.990216
-13231.755000	-36450.630000	40930.875000	34048.620000	48422.520000	14996.385000	-20614.770000	-54075.690000	6.280125	6.352284	5.513976	2.874114	-1.356555	-6.286707	-2.245226	1.829104	3.219860	3.128300	-1.251320	-0.838133	-0.100464	0.524535	-1.000000	-1.000000	-1.000000	-1.000000	-1.000000	-1.000000	-1.000000	61.000000	0.000000	-1.000000	-1.000000	526486.000000	1775765926.990229
-13249.485000	-36465.750000	40920.255000	34042.005000	48423.870000	14996.115000	-20621.520000	-54086.355000	2.997121	3.322007	2.006959	0.891654	-4.461031	-3.599212	-0.163356	1.220073	3.219860	3.128300	-1.251320	-0.838133	-0.100464	0.524535	-1.000000	-1.000000	-1.000000	-1.000000	-1.000000	-1.000000	-1.000000	61.000000	0.000000	-1.000000	-1.000000	526487.000000	1775765926.990240
