Channel1	Channel2	Channel3	Channel4	Channel5	Channel6	Channel7	Channel8	FilteredChannel1	FilteredChannel2	FilteredChannel3	FilteredChannel4	FilteredChannel5	FilteredChannel6	FilteredChannel7	FilteredChannel8	GyroX	GyroY	GyroZ	AccX	AccY	AccZ	PPG1	PPG2	rawPPG1	rawPPG2	rawPPG3	Hr	Hrv	Battery	Trigger	PhysicalTrigger	AutoTrigger	NumMeasurements	Timestamp
-14026.590000	-20470.365000	27294.750000	25282.530000	35208.855000	8864.055000	11753.730000	-38544.570000	1.471012	2.656555	2.897770	3.631165	2.365253	-14.627770	-5.894600	-1.246016	-5.005280	1.449700	1.251320	-0.655089	-0.089294	0.739378	-1.000000	-1.000000	-1.000000	-1.000000	-1.000000	-1.000000	-1.000000	61.000000	0.000000	-1.000000	-1.000000	347113.000000	1775765568.087666
-14030.865000	-20478.555000	27282.960000	25271.685000	35198.325000	8875.935000	11750.670000	-38536.695000	2.007698	2.506358	2.428564	3.090993	2.528634	-0.700717	-0.018483	-1.975764	-5.005280	1.449700	1.251320	-0.655089	-0.089294	0.739378	-1.000000	-1.000000	-1.000000	-1.000000	-1.000000	-1.000000	-1.000000	61.000000	0.000000	-1.000000	-1.000000	347114.000000	1775765568.087693
-14029.155000	-20480.130000	27283.545000	25271.370000	35196.210000	8869.320000	11746.395000	-38529.720000	2.249980	1.793114	1.173359	1.226008	0.815525	11.468837	4.115054	-0.799037	-5.005280	1.449700	1.251320	-0.655089	-0.089294	0.739378	-1.000000	-1.000000	-1.000000	-1.000000	-1.000000	-1.000000	-1.000000	61.000000	0.000000	-1.000000	-1.000000	347115.000000	1775765568.096555
-14032.620000	-20485.350000	27278.865000	25265.295000	35190.270000	8879.085000	11742.210000	-38532.105000	2.169950	0.555341	-0.426070	-1.129266	-1.995641	16.553961	5.173444	2.727953	-5.005280	1.449700	1.251320	-0.655089	-0.089294	0.739378	-1.000000	-1.000000	-1.000000	-1.000000	-1.000000	-1.000000	-1.000000	61.000000	0.000000	-1.000000	-1.000000	347116.000000	1775765568.096581
-14032.530000	-20488.275000	27274.950000	25261.335000	35185.905000	8878.815000	11745.135000	-38533.320000	1.679872	-0.778745	-1.561361	-2.837290	-4.272883	13.638941	3.713975	6.108398	-5.005280	1.449700	1.251320	-0.655089	-0.089294	0.739378	-1.000000	-1.000000	-1.000000	-1.000000	-1.000000	-1.000000	-1.000000	61.000000	0.000000	-1.000000	-1.000000	347117.000000	1775765568.116808
-14018.310000	-20473.785000	27289.080000	25273.035000	35187.570000	8834.310000	11760.750000	-38520.855000	1.111303	-1.285590	-1.456513	-2.905456	-4.629954	5.104514	1.862144	6.856098	-5.005280	1.449700	1.251320	-0.655089	-0.089294	0.739378	-1.000000	-1.000000	-1.000000	-1.000000	-1.000000	-1.000000	-1.000000	61.000000	0.000000	-1.000000	-1.000000	347118.000000	1775765568.116836
-14002.020000	-20453.265000	27310.905000	25295.310000	35207.370000	8822.970000	11777.805000	-38505.645000	1.460908	0.285605	0.721055	-0.451817	-2.308899	-6.246636	1.865059	5.233356	-5.310480	2.990960	0.976640	-0.660765	-0.087402	0.734373	-1.000000	-1.000000	-1.000000	-1.000000	-1.000000	-1.000000	-1.000000	61.000000	0.000000	-1.000000	-1.000000	347119.000000	1775765568.116912
-14014.350000	-20463.300000	27302.985000	25287.255000	35201.610000	8844.435000	11768.625000	-38520.180000	2.726111	3.702101	4.561750	4.037296	2.302648	-15.508185	3.664211	2.711821	-5.310480	2.990960	0.976640	-0.660765	-0.087402	0.734373	-1.000000	-1.000000	-1.000000	-1.000000	-1.000000	-1.000000	-1.000000	61.000000	0.000000	-1.000000	-1.000000	347120.000000	1775765568.116927
-14016.555000	-20465.775000	27299.970000	25282.440000	35195.220000	8864.190000	11774.880000	-38521.035000	2.669922	5.821727	6.924544	7.228220	6.483794	-15.779000	4.438898	-0.692534	-5.310480	2.990960	0.976640	-0.660765	-0.087402	0.734373	-1.000000	-1.000000	-1.000000	-1.000000	-1.000000	-1.000000	-1.000000	61.000000	0.000000	-1.000000	-1.000000	347121.000000	1775765568.128960
-14016.330000	-20468.475000	27296.145000	25277.760000	35190.270000	8873.775000	11776.635000	-38518.245000	-0.330056	3.732307	4.764634	5.721082	6.856376	-5.196344	2.118990	-4.940115	-5.310480	2.990960	0.976640	-0.660765	-0.087402	0.734373	-1.000000	-1.000000	-1.000000	-1.000000	-1.000000	-1.000000	-1.000000	61.000000	0.000000	-1.000000	-1.000000	347122.000000	1775765568.128987
-14023.305000	-20474.370000	27290.655000	25276.320000	35189.595000	8846.055000	11778.435000	-38519.325000	-4.783002	-1.737019	-1.224622	0.023572	3.026326	8.973553	-2.206484	-8.117330	-5.310480	2.990960	0.976640	-0.660765	-0.087402	0.734373	-1.000000	-1.000000	-1.000000	-1.000000	-1.000000	-1.000000	-1.000000	61.000000	0.000000	-1.000000	-1.000000	347123.000000	1775765568.129220
-14018.445000	-20464.470000	27300.330000	25286.985000	35196.885000	8836.335000	11766.780000	-38518.425000	-7.825839	-6.985898	-7.241473	-5.858327	-1.982788	16.079573	-6.247039	-8.343107	-5.310480	2.990960	0.976640	-0.660765	-0.087402	0.734373	-1.000000	-1.000000	-1.000000	-1.000000	-1.000000	-1.000000	-1.000000	61.000000	0.000000	-1.000000	-1.000000	347124.000000	1775765568.129245
-14023.980000	-20468.655000	27299.970000	25284.735000	35193.960000	8862.120000	11758.905000	-38532.870000	-7.654372	-8.679613	-9.467084	-8.031704	-4.739401	12.428142	-8.753236	-5.884207	-5.310480	2.990960	0.976640	-0.660765	-0.087402	0.734373	-1.000000	-1.000000	-1.000000	-1.000000	-1.000000	-1.000000	-1.000000	61.000000	0.000000	-1.000000	-1.000000	347125.000000	1775765568.129272
-14036.580000	-20485.710000	27282.735000	25268.535000	35182.935000	8878.230000	11762.775000	-38539.170000	-4.735081	-6.533507	-7.249117	-6.152664	-4.479231	4.228331	-9.117535	-2.743214	-5.310480	2.990960	0.976640	-0.660765	-0.087402	0.734373	-1.000000	-1.000000	-1.000000	-1.000000	-1.000000	-1.000000	-1.000000	61.000000	0.000000	-1.000000	-1.000000	347126.000000	1775765568.129284
-14030.775000	-20481.345000	27285.930000	25271.595000	35188.065000	8886.510000	11774.295000	-38534.040000	-1.084388	-3.060677	-3.275173	-3.007555	-2.855489	-0.890034	-6.397861	-0.311108	-5.310480	2.990960	0.976640	-0.660765	-0.087402	0.734373	-1.000000	-1.000000	-1.000000	-1.000000	-1.000000	-1.000000	-1.000000	61.000000	0.000000	-1.000000	-1.000000	347127.000000	1775765568.129300
-14027.805000	-20483.145000	27283.725000	25269.885000	35186.805000	8893.530000	11778.120000	-38526.660000	2.160346	-0.037835	0.095071	-0.583012	-1.125008	-1.476251	-0.469756	2.006678	-5.310480	2.990960	0.976640	-0.660765	-0.087402	0.734373	-1.000000	-1.000000	-1.000000	-1.000000	-1.000000	-1.000000	-1.000000	61.000000	0.000000	-1.000000	-1.000000	347128.000000	1775765568.129312
-14020.920000	-20476.305000	27289.080000	25272.990000	35184.735000	8894.745000	11768.490000	-38523.600000	5.068201	2.651185	2.646547	1.308824	0.523666	-0.703995	6.144479	5.005575	-3.677660	3.082520	0.412020	-0.661619	-0.091064	0.731749	-1.000000	-1.000000	-1.000000	-1.000000	-1.000000	-1.000000	-1.000000	61.000000	0.000000	-1.000000	-1.000000	347129.000000	1775765568.129326
-14019.345000	-20472.705000	27292.950000	25276.680000	35184.510000	8864.955000	11759.445000	-38523.510000	7.290123	5.232530	4.792789	3.205895	1.802722	-2.084404	9.361100	7.704985	-3.677660	3.082520	0.412020	-0.661619	-0.091064	0.731749	-1.000000	-1.000000	-1.000000	-1.000000	-1.000000	-1.000000	-1.000000	61.000000	0.000000	-1.000000	-1.000000	347130.000000	1775765568.129337
-14017.230000	-20469.915000	27296.460000	25279.875000	35182.665000	8841.960000	11763.450000	-38522.655000	7.761409	7.073701	6.352641	4.911552	2.323685	-7.268456	7.381909	8.174546	-3.677660	3.082520	0.412020	-0.661619	-0.091064	0.731749	-1.000000	-1.000000	-1.000000	-1.000000	-1.000000	-1.000000	-1.000000	61.000000	0.000000	-1.000000	-1.000000	347131.000000	1775765568.129351
-14017.455000	-20466.945000	27300.060000	25282.485000	35182.755000	8843.580000	11767.185000	-38522.205000	5.771716	7.136036	6.619455	5.681794	2.054442	-13.991502	2.589279	5.639269	-3.677660	3.082520	0.412020	-0.661619	-0.091064	0.731749	-1.000000	-1.000000	-1.000000	-1.000000	-1.000000	-1.000000	-1.000000	61.000000	0.000000	-1.000000	-1.000000	347132.000000	1775765568.129362
-14021.595000	-20472.165000	27290.745000	25273.665000	35175.240000	8832.330000	11765.160000	-38522.205000	1.739979	4.877490	4.906164	4.687460	1.174995	-16.640018	-1.248657	1.185206	-3.677660	3.082520	0.412020	-0.661619	-0.091064	0.731749	-1.000000	-1.000000	-1.000000	-1.000000	-1.000000	-1.000000	-1.000000	61.000000	0.000000	-1.000000	-1.000000	347133.000000	1775765568.129376
-14019.165000	-20468.880000	27292.455000	25275.735000	35179.020000	8823.105000	11764.890000	-38521.035000	-2.876110	0.818066	1.188008	1.701193	-0.025061	-11.797222	-2.533515	-3.178982	-3.677660	3.082520	0.412020	-0.661619	-0.091064	0.731749	-1.000000	-1.000000	-1.000000	-1.000000	-1.000000	-1.000000	-1.000000	61.000000	0.000000	-1.000000	-1.000000	347134.000000	1775765568.129387
-14028.705000	-20478.465000	27286.470000	25271.460000	35184.870000	8824.005000	11778.120000	-38530.215000	-6.329875	-3.576978	-3.278683	-2.172141	-0.797425	-1.478292	-1.750095	-5.941426	-3.677660	3.082520	0.412020	-0.661619	-0.091064	0.731749	-1.000000	-1.000000	-1.000000	-1.000000	-1.000000	-1.000000	-1.000000	61.000000	0.000000	-1.000000	-1.000000	347135.000000	1775765568.129401
-14026.275000	-20480.265000	27284.670000	25270.245000	35190.090000	8844.660000	11803.905000	-38525.310000	-7.558331	-6.771884	-6.514084	-5.062097	-0.298720	9.972633	0.653268	-6.688587	-3.677660	3.082520	0.412020	-0.661619	-0.091064	0.731749	-1.000000	-1.000000	-1.000000	-1.000000	-1.000000	-1.000000	-1.000000	61.000000	0.000000	-1.000000	-1.000000	347136.000000	1775765568.129413
-14013.045000	-20464.830000	27300.870000	25283.970000	35199.765000	8893.800000	11821.365000	-38512.170000	-6.091376	-7.457339	-6.883415	-5.499388	1.364953	19.800327	4.396734	-5.227563	-3.677660	3.082520	0.412020	-0.661619	-0.091064	0.731749	-1.000000	-1.000000	-1.000000	-1.000000	-1.000000	-1.000000	-1.000000	61.000000	0.000000	-1.000000	-1.000000	347137.000000	1775765568.129427
-14003.190000	-20452.455000	27315.630000	25301.115000	35216.820000	8893.620000	11800.890000	-38504.970000	-1.833544	-4.539766	-3.528754	-2.735474	3.325494	26.234723	7.181104	-1.426116	-3.677660	3.082520	0.412020	-0.661619	-0.091064	0.731749	-1.000000	-1.000000	-1.000000	-1.000000	-1.000000	-1.000000	-1.000000	61.000000	0.000000	-1.000000	-1.000000	347138.000000	1775765568.129439
-14006.205000	-20455.740000	27312.660000	25298.370000	35212.590000	8865.630000	11762.730000	-38510.730000	3.645796	1.075675	2.282705	2.236421	4.480546	25.101441	4.473498	3.188233	0.869820	1.846460	-1.205540	-0.662291	-0.097046	0.730101	-1.000000	-1.000000	-1.000000	-1.000000	-1.000000	-1.000000	-1.000000	61.000000	0.000000	-1.000000	-1.000000	347139.000000	1775765568.139237
-14021.415000	-20470.095000	27298.125000	25281.630000	35196.480000	8879.445000	11754.360000	-38526.075000	6.807225	5.523872	6.469993	5.763405	3.112406	12.857529	-5.400651	5.343838	0.869820	1.846460	-1.205540	-0.662291	-0.097046	0.730101	-1.000000	-1.000000	-1.000000	-1.000000	-1.000000	-1.000000	-1.000000	61.000000	0.000000	-1.000000	-1.000000	347140.000000	1775765568.139266
-14017.320000	-20464.965000	27304.020000	25286.580000	35201.295000	8894.205000	11764.890000	-38524.680000	5.138847	5.336398	5.555150	4.463768	-1.660020	-5.797313	-16.477141	3.093418	0.869820	1.846460	-1.205540	-0.662291	-0.097046	0.730101	-1.000000	-1.000000	-1.000000	-1.000000	-1.000000	-1.000000	-1.000000	61.000000	0.000000	-1.000000	-1.000000	347141.000000	1775765568.139294
-14015.745000	-20463.615000	27306.720000	25290.045000	35203.635000	8873.100000	11771.685000	-38522.295000	0.219737	1.341237	0.679336	-0.557432	-7.360386	-20.763441	-19.428095	-1.575525	0.869820	1.846460	-1.205540	-0.662291	-0.097046	0.730101	-1.000000	-1.000000	-1.000000	-1.000000	-1.000000	-1.000000	-1.000000	61.000000	0.000000	-1.000000	-1.000000	347142.000000	1775765568.139307
-14022.945000	-20470.995000	27298.170000	25284.240000	35199.810000	8855.910000	11775.510000	-38524.995000	-4.038456	-2.812898	-4.082963	-5.058987	-9.989304	-26.745723	-10.919588	-4.703122	0.869820	1.846460	-1.205540	-0.662291	-0.097046	0.730101	-1.000000	-1.000000	-1.000000	-1.000000	-1.000000	-1.000000	-1.000000	61.000000	0.000000	-1.000000	-1.000000	347143.000000	1775765568.144022
-14017.725000	-20469.015000	27300.330000	25287.705000	35204.130000	8864.550000	11788.425000	-38518.065000	-5.330780	-4.715960	-6.158695	-6.340302	-8.051966	-24.530473	3.851488	-4.244458	0.869820	1.846460	-1.205540	-0.662291	-0.097046	0.730101	-1.000000	-1.000000	-1.000000	-1.000000	-1.000000	-1.000000	-1.000000	61.000000	0.000000	-1.000000	-1.000000	347144.000000	1775765568.144049
-14025.420000	-20477.790000	27294.255000	25282.080000	35199.180000	8885.520000	11795.985000	-38524.770000	-3.798664	-4.182813	-5.390126	-4.550061	-3.092934	-15.579491	16.652792	-1.070212	0.869820	1.846460	-1.205540	-0.662291	-0.097046	0.730101	-1.000000	-1.000000	-1.000000	-1.000000	-1.000000	-1.000000	-1.000000	61.000000	0.000000	-1.000000	-1.000000	347145.000000	1775765568.145708
-14033.565000	-20483.370000	27289.710000	25279.560000	35197.920000	8878.500000	11790.450000	-38536.515000	-1.112012	-2.314067	-2.889735	-1.389587	2.089331	-1.865418	21.560143	2.137470	0.869820	1.846460	-1.205540	-0.662291	-0.097046	0.730101	-1.000000	-1.000000	-1.000000	-1.000000	-1.000000	-1.000000	-1.000000	61.000000	0.000000	-1.000000	-1.000000	347146.000000	1775765568.145733
-14029.695000	-20475.315000	27294.345000	25282.755000	35197.695000	8870.715000	11781.720000	-38539.215000	0.938900	-0.206135	-0.009067	1.417428	5.265174	11.200379	16.787784	2.953735	0.869820	1.846460	-1.205540	-0.662291	-0.097046	0.730101	-1.000000	-1.000000	-1.000000	-1.000000	-1.000000	-1.000000	-1.000000	61.000000	0.000000	-1.000000	-1.000000	347147.000000	1775765568.150207
-14037.390000	-20481.570000	27288.810000	25275.285000	35194.410000	8878.185000	11780.055000	-38547.225000	1.919698	1.901291	2.480232	3.085832	5.846387	17.600740	5.089690	1.334884	0.869820	1.846460	-1.205540	-0.662291	-0.097046	0.730101	-1.000000	-1.000000	-1.000000	-1.000000	-1.000000	-1.000000	-1.000000	61.000000	0.000000	-1.000000	-1.000000	347148.000000	1775765568.150238
-14036.040000	-20482.875000	27288.225000	25273.755000	35192.745000	8879.175000	11784.285000	-38540.745000	2.255746	3.648118	4.060095	3.398109	4.481655	16.086974	-7.315924	-0.681299	3.723440	0.763000	-2.945180	-0.667174	-0.099487	0.726439	-1.000000	-1.000000	-1.000000	-1.000000	-1.000000	-1.000000	-1.000000	61.000000	0.000000	-1.000000	-1.000000	347149.000000	1775765568.171811
-14021.640000	-20475.180000	27295.245000	25279.785000	35199.810000	8878.005000	11789.775000	-38521.755000	2.571751	4.357334	4.439797	2.664679	2.411531	9.797212	-14.281738	-0.668421	3.723440	0.763000	-2.945180	-0.667174	-0.099487	0.726439	-1.000000	-1.000000	-1.000000	-1.000000	-1.000000	-1.000000	-1.000000	61.000000	0.000000	-1.000000	-1.000000	347150.000000	1775765568.171840
-14014.215000	-20468.430000	27301.455000	25285.455000	35205.480000	8878.770000	11790.945000	-38514.015000	3.643920	4.210897	4.129667	1.983737	1.062674	2.484926	-13.509574	2.409819	3.723440	0.763000	-2.945180	-0.667174	-0.099487	0.726439	-1.000000	-1.000000	-1.000000	-1.000000	-1.000000	-1.000000	-1.000000	61.000000	0.000000	-1.000000	-1.000000	347151.000000	1775765568.171870
-14026.680000	-20472.795000	27299.610000	25285.230000	35204.895000	8860.815000	11780.055000	-38533.635000	4.862953	3.640153	3.620124	2.055823	0.966360	-3.555738	-7.540356	6.195225	3.723440	0.763000	-2.945180	-0.667174	-0.099487	0.726439	-1.000000	-1.000000	-1.000000	-1.000000	-1.000000	-1.000000	-1.000000	61.000000	0.000000	-1.000000	-1.000000	347152.000000	1775765568.171884
-14030.910000	-20474.055000	27299.880000	25286.310000	35204.985000	8842.590000	11775.195000	-38539.935000	3.927573	2.205300	2.487594	2.232316	1.184799	-7.905405	-1.235157	6.206187	3.723440	0.763000	-2.945180	-0.667174	-0.099487	0.726439	-1.000000	-1.000000	-1.000000	-1.000000	-1.000000	-1.000000	-1.000000	61.000000	0.000000	-1.000000	-1.000000	347153.000000	1775765568.172061
-14034.240000	-20479.455000	27294.255000	25280.730000	35201.835000	8860.050000	11777.355000	-38536.830000	-0.080884	-0.505910	0.205327	1.403591	0.481839	-10.177472	2.292628	1.141884	3.723440	0.763000	-2.945180	-0.667174	-0.099487	0.726439	-1.000000	-1.000000	-1.000000	-1.000000	-1.000000	-1.000000	-1.000000	61.000000	0.000000	-1.000000	-1.000000	347154.000000	1775765568.172081
-14033.520000	-20481.480000	27288.720000	25274.655000	35196.120000	8882.955000	11773.080000	-38528.865000	-4.949648	-3.748779	-2.902138	-0.815822	-1.416620	-8.077906	3.234486	-5.063069	3.723440	0.763000	-2.945180	-0.667174	-0.099487	0.726439	-1.000000	-1.000000	-1.000000	-1.000000	-1.000000	-1.000000	-1.000000	61.000000	0.000000	-1.000000	-1.000000	347155.000000	1775765568.172104
-14036.670000	-20489.895000	27279.855000	25265.160000	35185.230000	8862.390000	11776.590000	-38522.745000	-7.572404	-6.106241	-5.789257	-3.791912	-3.877941	-0.911522	3.156646	-7.559682	3.723440	0.763000	-2.945180	-0.667174	-0.099487	0.726439	-1.000000	-1.000000	-1.000000	-1.000000	-1.000000	-1.000000	-1.000000	61.000000	0.000000	-1.000000	-1.000000	347156.000000	1775765568.172116
-14038.920000	-20491.920000	27277.515000	25264.575000	35184.915000	8835.570000	11767.905000	-38540.025000	-6.708382	-6.577654	-7.218823	-6.105103	-5.780945	6.190862	2.970296	-5.490070	3.723440	0.763000	-2.945180	-0.667174	-0.099487	0.726439	-1.000000	-1.000000	-1.000000	-1.000000	-1.000000	-1.000000	-1.000000	61.000000	0.000000	-1.000000	-1.000000	347157.000000	1775765568.172150
-14017.320000	-20463.795000	27308.745000	25294.410000	35215.110000	8861.130000	11774.070000	-38546.190000	-2.959531	-4.406439	-5.669490	-5.637923	-5.214066	7.559875	2.684207	-2.126288	3.723440	0.763000	-2.945180	-0.667174	-0.099487	0.726439	-1.000000	-1.000000	-1.000000	-1.000000	-1.000000	-1.000000	-1.000000	61.000000	0.000000	-1.000000	-1.000000	347158.000000	1775765568.172163
-14018.130000	-20464.740000	27307.935000	25292.070000	35211.240000	8865.585000	11800.350000	-38540.475000	2.415185	0.768765	-0.210975	-1.005563	-0.711225	4.550238	2.733023	-0.354649	1.938020	-0.930860	-2.441600	-0.666929	-0.096374	0.723814	-1.000000	-1.000000	-1.000000	-1.000000	-1.000000	-1.000000	-1.000000	61.000000	0.000000	-1.000000	-1.000000	347159.000000	1775765568.190804
-14027.895000	-20470.365000	27302.940000	25288.785000	35210.835000	8860.635000	11789.640000	-38543.130000	6.875101	6.628037	6.639616	5.417249	5.539822	1.919352	3.812851	0.224858	1.938020	-0.930860	-2.441600	-0.666929	-0.096374	0.723814	-1.000000	-1.000000	-1.000000	-1.000000	-1.000000	-1.000000	-1.000000	61.000000	0.000000	-1.000000	-1.000000	347160.000000	1775765568.190832
-14026.230000	-20465.865000	27304.830000	25289.775000	35204.400000	8829.855000	11770.605000	-38531.655000	7.346163	8.966619	9.882878	8.708248	8.691056	0.354485	4.167925	1.254305	1.938020	-0.930860	-2.441600	-0.666929	-0.096374	0.723814	-1.000000	-1.000000	-1.000000	-1.000000	-1.000000	-1.000000	-1.000000	61.000000	0.000000	-1.000000	-1.000000	347161.000000	1775765568.190878
-14031.270000	-20474.730000	27299.160000	25285.140000	35203.815000	8811.720000	11771.370000	-38527.830000	3.505545	6.137080	7.251649	6.560754	6.330275	-2.693672	1.012909	3.274151	1.938020	-0.930860	-2.441600	-0.666929	-0.096374	0.723814	-1.000000	-1.000000	-1.000000	-1.000000	-1.000000	-1.000000	-1.000000	61.000000	0.000000	-1.000000	-1.000000	347162.000000	1775765568.190897
-14025.375000	-20474.280000	27300.645000	25283.880000	35204.355000	8854.245000	11769.885000	-38525.535000	-1.766405	0.137664	0.868892	0.798667	0.451093	-6.516615	-4.602005	5.332559	1.938020	-0.930860	-2.441600	-0.666929	-0.096374	0.723814	-1.000000	-1.000000	-1.000000	-1.000000	-1.000000	-1.000000	-1.000000	61.000000	0.000000	-1.000000	-1.000000	347163.000000	1775765568.190934
-14019.480000	-20462.220000	27314.685000	25298.505000	35220.645000	8897.220000	11783.385000	-38524.770000	-5.015194	-5.311606	-5.010681	-4.694659	-4.648337	-5.264176	-8.237553	5.727978	1.938020	-0.930860	-2.441600	-0.666929	-0.096374	0.723814	-1.000000	-1.000000	-1.000000	-1.000000	-1.000000	-1.000000	-1.000000	61.000000	0.000000	-1.000000	-1.000000	347164.000000	1775765568.190948
-14031.495000	-20475.180000	27299.700000	25289.190000	35217.720000	8903.295000	11789.730000	-38531.700000	-4.876939	-7.225362	-7.179716	-6.710663	-5.772002	4.014936	-6.740574	3.478325	1.938020	-0.930860	-2.441600	-0.666929	-0.096374	0.723814	-1.000000	-1.000000	-1.000000	-1.000000	-1.000000	-1.000000	-1.000000	61.000000	0.000000	-1.000000	-1.000000	347165.000000	1775765568.190965
-14028.795000	-20475.315000	27301.050000	25291.080000	35225.280000	8897.580000	11798.640000	-38527.515000	-2.829648	-5.728367	-5.933867	-5.173165	-3.225587	14.589642	-0.941936	-0.736929	1.938020	-0.930860	-2.441600	-0.666929	-0.096374	0.723814	-1.000000	-1.000000	-1.000000	-1.000000	-1.000000	-1.000000	-1.000000	61.000000	0.000000	-1.000000	-1.000000	347166.000000	1775765568.190977
-14031.090000	-20476.440000	27300.645000	25290.405000	35222.355000	8878.185000	11786.580000	-38531.835000	-0.865251	-2.953712	-3.476263	-2.302832	0.190120	16.151340	5.057889	-4.829893	1.938020	-0.930860	-2.441600	-0.666929	-0.096374	0.723814	-1.000000	-1.000000	-1.000000	-1.000000	-1.000000	-1.000000	-1.000000	61.000000	0.000000	-1.000000	-1.000000	347167.000000	1775765568.190992
-14038.560000	-20485.755000	27289.350000	25277.805000	35209.710000	8885.295000	11776.770000	-38538.720000	0.285280	-0.464766	-1.223824	-0.089852	1.738224	5.731348	6.839650	-6.936003	1.938020	-0.930860	-2.441600	-0.666929	-0.096374	0.723814	-1.000000	-1.000000	-1.000000	-1.000000	-1.000000	-1.000000	-1.000000	61.000000	0.000000	-1.000000	-1.000000	347168.000000	1775765568.191004
-14039.325000	-20487.330000	27284.940000	25270.605000	35204.085000	8877.735000	11775.330000	-38536.605000	0.590656	1.034900	0.125171	0.400756	0.258985	-9.728499	3.212241	-6.615200	0.915600	-1.632820	-2.182180	-0.667418	-0.091186	0.724241	-1.000000	-1.000000	-1.000000	-1.000000	-1.000000	-1.000000	-1.000000	61.000000	0.000000	-1.000000	-1.000000	347169.000000	1775765568.196159
-14036.130000	-20478.285000	27299.295000	25285.545000	35221.095000	8875.170000	11773.260000	-38539.350000	0.555831	1.792957	0.835288	-0.238428	-2.601022	-20.483293	-2.690397	-4.274506	0.915600	-1.632820	-2.182180	-0.667418	-0.091186	0.724241	-1.000000	-1.000000	-1.000000	-1.000000	-1.000000	-1.000000	-1.000000	61.000000	0.000000	-1.000000	-1.000000	347170.000000	1775765568.196187
-14037.120000	-20476.260000	27303.975000	25289.595000	35221.725000	8863.785000	11760.840000	-38544.525000	0.995414	2.849713	2.325932	0.236246	-3.376776	-21.686727	-6.674073	-0.861977	0.915600	-1.632820	-2.182180	-0.667418	-0.091186	0.724241	-1.000000	-1.000000	-1.000000	-1.000000	-1.000000	-1.000000	-1.000000	61.000000	0.000000	-1.000000	-1.000000	347171.000000	1775765568.202323
-14043.465000	-20484.360000	27295.110000	25281.000000	35209.530000	8861.535000	11762.865000	-38549.025000	1.852989	4.193230	4.711814	2.596856	-1.033790	-14.689648	-6.945640	2.126594	0.915600	-1.632820	-2.182180	-0.667418	-0.091186	0.724241	-1.000000	-1.000000	-1.000000	-1.000000	-1.000000	-1.000000	-1.000000	61.000000	0.000000	-1.000000	-1.000000	347172.000000	1775765568.202351
-14046.930000	-20489.715000	27289.170000	25276.410000	35205.570000	8865.090000	11771.775000	-38549.610000	2.122509	4.235018	5.703408	4.562962	1.715012	-3.780519	-3.771401	3.642775	0.915600	-1.632820	-2.182180	-0.667418	-0.091186	0.724241	-1.000000	-1.000000	-1.000000	-1.000000	-1.000000	-1.000000	-1.000000	61.000000	0.000000	-1.000000	-1.000000	347173.000000	1775765568.202376
-14035.680000	-20481.705000	27295.335000	25282.890000	35212.005000	8865.045000	11783.160000	-38537.910000	1.498549	2.230231	3.730787	4.047200	2.515147	6.862838	1.829236	4.022696	0.915600	-1.632820	-2.182180	-0.667418	-0.091186	0.724241	-1.000000	-1.000000	-1.000000	-1.000000	-1.000000	-1.000000	-1.000000	61.000000	0.000000	-1.000000	-1.000000	347174.000000	1775765568.202387
-14027.580000	-20475.090000	27301.410000	25291.035000	35223.525000	8876.475000	11795.985000	-38527.920000	1.143075	-0.198445	0.341187	1.924500	2.172603	14.270655	7.929997	4.504222	0.915600	-1.632820	-2.182180	-0.667418	-0.091186	0.724241	-1.000000	-1.000000	-1.000000	-1.000000	-1.000000	-1.000000	-1.000000	61.000000	0.000000	-1.000000	-1.000000	347175.000000	1775765568.213882
-14034.105000	-20481.795000	27291.510000	25278.705000	35212.545000	8877.915000	11786.265000	-38530.530000	1.732927	-1.252734	-2.047943	0.078451	2.266707	16.990979	11.567385	5.355192	0.915600	-1.632820	-2.182180	-0.667418	-0.091186	0.724241	-1.000000	-1.000000	-1.000000	-1.000000	-1.000000	-1.000000	-1.000000	61.000000	0.000000	-1.000000	-1.000000	347176.000000	1775765568.213916
-14040.360000	-20487.015000	27288.360000	25273.080000	35209.440000	8874.630000	11776.545000	-38538.855000	1.893656	-1.324800	-3.048170	-1.383165	2.279501	14.797962	9.859127	4.922933	0.915600	-1.632820	-2.182180	-0.667418	-0.091186	0.724241	-1.000000	-1.000000	-1.000000	-1.000000	-1.000000	-1.000000	-1.000000	61.000000	0.000000	-1.000000	-1.000000	347177.000000	1775765568.213947
-14041.980000	-20487.600000	27289.755000	25275.690000	35215.965000	8870.850000	11779.110000	-38541.240000	0.136218	-1.737928	-3.393559	-3.001979	1.096973	8.389749	2.711689	1.658787	0.915600	-1.632820	-2.182180	-0.667418	-0.091186	0.724241	-1.000000	-1.000000	-1.000000	-1.000000	-1.000000	-1.000000	-1.000000	61.000000	0.000000	-1.000000	-1.000000	347178.000000	1775765568.213960
-14042.295000	-20487.375000	27290.385000	25275.555000	35215.110000	8866.710000	11774.430000	-38543.490000	-2.808920	-2.503559	-3.034728	-3.954959	-0.613989	-0.151974	-5.951990	-3.431881	-0.473060	-0.595140	-1.800680	-0.669371	-0.090454	0.724730	-1.000000	-1.000000	-1.000000	-1.000000	-1.000000	-1.000000	-1.000000	61.000000	0.000000	-1.000000	-1.000000	347179.000000	1775765568.213978
-14038.830000	-20484.855000	27293.310000	25277.130000	35215.020000	8865.135000	11768.580000	-38542.230000	-4.730100	-2.570116	-1.598988	-3.138589	-1.592713	-7.670812	-11.428225	-7.409825	-0.473060	-0.595140	-1.800680	-0.669371	-0.090454	0.724730	-1.000000	-1.000000	-1.000000	-1.000000	-1.000000	-1.000000	-1.000000	61.000000	0.000000	-1.000000	-1.000000	347180.000000	1775765568.213989
-14036.670000	-20485.890000	27292.410000	25275.645000	35216.505000	8862.255000	11774.115000	-38538.540000	-4.137936	-1.377594	0.546997	-0.819044	-1.603834	-11.477726	-11.627306	-7.928914	-0.473060	-0.595140	-1.800680	-0.669371	-0.090454	0.724730	-1.000000	-1.000000	-1.000000	-1.000000	-1.000000	-1.000000	-1.000000	61.000000	0.000000	-1.000000	-1.000000	347181.000000	1775765568.217766
-14040.855000	-20493.180000	27282.780000	25267.185000	35211.420000	8855.685000	11778.795000	-38539.530000	-1.505873	0.359648	2.184258	1.490844	-1.141835	-10.820312	-7.065411	-4.868074	-0.473060	-0.595140	-1.800680	-0.669371	-0.090454	0.724730	-1.000000	-1.000000	-1.000000	-1.000000	-1.000000	-1.000000	-1.000000	61.000000	0.000000	-1.000000	-1.000000	347182.000000	1775765568.217794
-14033.205000	-20485.530000	27290.655000	25276.275000	35222.175000	8878.410000	11795.760000	-38530.890000	1.389828	1.485042	2.276990	2.470485	-0.619892	-6.566012	0.251403	-0.075921	-0.473060	-0.595140	-1.800680	-0.669371	-0.090454	0.724730	-1.000000	-1.000000	-1.000000	-1.000000	-1.000000	-1.000000	-1.000000	61.000000	0.000000	-1.000000	-1.000000	347183.000000	1775765568.234639
-14032.800000	-20480.805000	27297.810000	25283.070000	35228.970000	8915.850000	11810.115000	-38531.880000	3.232225	1.920211	1.437446	2.450839	0.222660	0.623521	7.674054	4.140132	-0.473060	-0.595140	-1.800680	-0.669371	-0.090454	0.724730	-1.000000	-1.000000	-1.000000	-1.000000	-1.000000	-1.000000	-1.000000	61.000000	0.000000	-1.000000	-1.000000	347184.000000	1775765568.234666
-14033.565000	-20474.280000	27307.170000	25293.420000	35235.585000	8898.885000	11796.480000	-38540.970000	3.620885	2.380736	1.258378	2.690405	1.684098	9.034910	12.107731	5.900221	-0.473060	-0.595140	-1.800680	-0.669371	-0.090454	0.724730	-1.000000	-1.000000	-1.000000	-1.000000	-1.000000	-1.000000	-1.000000	61.000000	0.000000	-1.000000	-1.000000	347185.000000	1775765568.234696
-14044.365000	-20479.635000	27303.255000	25290.810000	35230.950000	8833.050000	11774.835000	-38555.955000	2.352436	2.781062	2.008061	3.305646	2.911436	12.369757	10.304730	4.064450	-0.473060	-0.595140	-1.800680	-0.669371	-0.090454	0.724730	-1.000000	-1.000000	-1.000000	-1.000000	-1.000000	-1.000000	-1.000000	61.000000	0.000000	-1.000000	-1.000000	347186.000000	1775765568.234710
-14050.980000	-20483.415000	27299.385000	25286.175000	35229.555000	8853.570000	11780.415000	-38559.690000	-0.487486	2.049348	2.136855	2.884273	2.406606	5.005083	1.986424	-0.658958	-0.473060	-0.595140	-1.800680	-0.669371	-0.090454	0.724730	-1.000000	-1.000000	-1.000000	-1.000000	-1.000000	-1.000000	-1.000000	61.000000	0.000000	-1.000000	-1.000000	347187.000000	1775765568.234724
-14041.035000	-20477.160000	27300.915000	25286.130000	35223.570000	8839.485000	11782.485000	-38545.515000	-3.528041	-0.180015	0.372232	0.340768	-0.251909	-8.184168	-7.698881	-4.985704	-0.473060	-0.595140	-1.800680	-0.669371	-0.090454	0.724730	-1.000000	-1.000000	-1.000000	-1.000000	-1.000000	-1.000000	-1.000000	61.000000	0.000000	-1.000000	-1.000000	347188.000000	1775765568.234736
-14026.455000	-20471.985000	27304.110000	25289.460000	35224.965000	8817.750000	11784.285000	-38527.155000	-4.144394	-2.458685	-2.433065	-3.295899	-3.698256	-16.597024	-12.246892	-4.914609	0.961380	0.671440	-2.121140	-0.667052	-0.091919	0.726805	-1.000000	-1.000000	-1.000000	-1.000000	-1.000000	-1.000000	-1.000000	61.000000	0.000000	-1.000000	-1.000000	347189.000000	1775765568.237177
-14028.120000	-20476.215000	27304.110000	25287.795000	35222.670000	8790.480000	11776.995000	-38527.065000	-1.104958	-3.177902	-4.261194	-5.724768	-5.784211	-16.043536	-9.765237	0.299406	0.961380	0.671440	-2.121140	-0.667052	-0.091919	0.726805	-1.000000	-1.000000	-1.000000	-1.000000	-1.000000	-1.000000	-1.000000	61.000000	0.000000	-1.000000	-1.000000	347190.000000	1775765568.237200
-14037.480000	-20480.535000	27300.870000	25283.565000	35222.130000	8837.595000	11779.065000	-38534.445000	3.115514	-2.557994	-4.148718	-5.745942	-5.254136	-8.340382	-3.326293	6.451897	0.961380	0.671440	-2.121140	-0.667052	-0.091919	0.726805	-1.000000	-1.000000	-1.000000	-1.000000	-1.000000	-1.000000	-1.000000	61.000000	0.000000	-1.000000	-1.000000	347191.000000	1775765568.237227
-14049.315000	-20493.810000	27288.720000	25272.045000	35218.395000	8907.570000	11779.920000	-38545.740000	4.430930	-2.050506	-2.908410	-4.132050	-2.579560	5.653596	2.968395	8.038795	0.961380	0.671440	-2.121140	-0.667052	-0.091919	0.726805	-1.000000	-1.000000	-1.000000	-1.000000	-1.000000	-1.000000	-1.000000	61.000000	0.000000	-1.000000	-1.000000	347192.000000	1775765568.237241
-14049.180000	-20496.330000	27287.010000	25273.530000	35221.905000	8908.695000	11781.900000	-38545.200000	1.512494	-2.459495	-1.900602	-2.281270	0.755830	23.596064	6.781382	3.535102	0.961380	0.671440	-2.121140	-0.667052	-0.091919	0.726805	-1.000000	-1.000000	-1.000000	-1.000000	-1.000000	-1.000000	-1.000000	61.000000	0.000000	-1.000000	-1.000000	347193.000000	1775765568.243325
-14051.655000	-20500.965000	27280.485000	25266.060000	35212.500000	8913.420000	11790.720000	-38544.660000	-2.970531	-3.017573	-1.410029	-0.656366	3.325211	35.673733	7.748801	-3.461989	0.961380	0.671440	-2.121140	-0.667052	-0.091919	0.726805	-1.000000	-1.000000	-1.000000	-1.000000	-1.000000	-1.000000	-1.000000	61.000000	0.000000	-1.000000	-1.000000	347194.000000	1775765568.243351
-14046.840000	-20499.345000	27281.340000	25266.285000	35208.405000	8898.300000	11794.905000	-38536.965000	-5.260687	-2.270703	-0.670756	0.976197	4.102858	31.120948	6.706456	-7.814078	0.961380	0.671440	-2.121140	-0.667052	-0.091919	0.726805	-1.000000	-1.000000	-1.000000	-1.000000	-1.000000	-1.000000	-1.000000	61.000000	0.000000	-1.000000	-1.000000	347195.000000	1775765568.244680
-14049.765000	-20500.560000	27281.520000	25266.510000	35206.110000	8854.560000	11789.145000	-38540.205000	-3.808560	0.290828	0.953006	2.693849	2.975668	9.030436	4.416719	-7.081903	0.961380	0.671440	-2.121140	-0.667052	-0.091919	0.726805	-1.000000	-1.000000	-1.000000	-1.000000	-1.000000	-1.000000	-1.000000	61.000000	0.000000	-1.000000	-1.000000	347196.000000	1775765568.244704
-14051.970000	-20496.600000	27286.380000	25272.855000	35217.450000	8852.670000	11780.955000	-38547.720000	-0.048782	3.730836	3.320824	4.376875	1.306215	-20.553117	0.871567	-2.934138	0.961380	0.671440	-2.121140	-0.667052	-0.091919	0.726805	-1.000000	-1.000000	-1.000000	-1.000000	-1.000000	-1.000000	-1.000000	61.000000	0.000000	-1.000000	-1.000000	347197.000000	1775765568.251119
-14050.980000	-20491.785000	27292.725000	25276.185000	35218.620000	8851.455000	11776.725000	-38551.635000	3.340669	6.523590	5.639508	5.721296	0.881441	-42.205074	-3.617574	1.003415	0.961380	0.671440	-2.121140	-0.667052	-0.091919	0.726805	-1.000000	-1.000000	-1.000000	-1.000000	-1.000000	-1.000000	-1.000000	61.000000	0.000000	-1.000000	-1.000000	347198.000000	1775765568.251148
-14048.820000	-20489.220000	27297.630000	25279.245000	35217.405000	8839.755000	11774.880000	-38548.755000	4.761648	7.527107	6.923927	6.105506	1.830705	-44.637030	-7.382508	2.664595	1.022420	1.220800	-1.220800	-0.665648	-0.093078	0.728575	-1.000000	-1.000000	-1.000000	-1.000000	-1.000000	-1.000000	-1.000000	61.000000	0.000000	-1.000000	-1.000000	347199.000000	1775765568.257865
-14054.760000	-20495.880000	27292.500000	25277.355000	35222.220000	8840.070000	11760.885000	-38551.860000	4.151077	6.132852	6.238944	4.836728	2.600920	-28.428506	-8.598700	2.563992	1.022420	1.220800	-1.220800	-0.665648	-0.093078	0.728575	-1.000000	-1.000000	-1.000000	-1.000000	-1.000000	-1.000000	-1.000000	61.000000	0.000000	-1.000000	-1.000000	347200.000000	1775765568.257892
-14058.090000	-20499.615000	27287.595000	25271.235000	35217.000000	8849.070000	11752.965000	-38556.495000	2.026748	2.330599	3.019409	1.686294	1.955859	-3.359621	-7.098099	1.886949	1.022420	1.220800	-1.220800	-0.665648	-0.093078	0.728575	-1.000000	-1.000000	-1.000000	-1.000000	-1.000000	-1.000000	-1.000000	61.000000	0.000000	-1.000000	-1.000000	347201.000000	1775765568.257921
-14056.740000	-20492.190000	27294.255000	25276.815000	35221.005000	8834.535000	11732.985000	-38571.120000	-0.701005	-2.508985	-1.862107	-2.491390	-0.053485	19.138034	-4.207461	0.877361	1.022420	1.220800	-1.220800	-0.665648	-0.093078	0.728575	-1.000000	-1.000000	-1.000000	-1.000000	-1.000000	-1.000000	-1.000000	61.000000	0.000000	-1.000000	-1.000000	347202.000000	1775765568.257933
-14051.835000	-20483.280000	27304.110000	25284.780000	35221.680000	8819.280000	11748.960000	-38573.415000	-2.570651	-5.688355	-5.734110	-5.586970	-2.350841	30.466503	-0.920448	-0.661696	1.022420	1.220800	-1.220800	-0.665648	-0.093078	0.728575	-1.000000	-1.000000	-1.000000	-1.000000	-1.000000	-1.000000	-1.000000	61.000000	0.000000	-1.000000	-1.000000	347203.000000	1775765568.260706
-14034.915000	-20465.820000	27322.020000	25303.725000	35240.940000	8868.015000	11797.065000	-38540.880000	-2.227745	-5.133272	-5.985616	-5.458834	-3.329157	28.877395	4.001529	-1.425149	1.022420	1.220800	-1.220800	-0.665648	-0.093078	0.728575	-1.000000	-1.000000	-1.000000	-1.000000	-1.000000	-1.000000	-1.000000	61.000000	0.000000	-1.000000	-1.000000	347204.000000	1775765568.260733
-14030.775000	-20460.375000	27328.770000	25311.510000	35246.160000	8858.790000	11796.885000	-38529.270000	0.435766	-1.288080	-2.460416	-1.882044	-1.927231	20.244514	11.754720	1.061824	1.022420	1.220800	-1.220800	-0.665648	-0.093078	0.728575	-1.000000	-1.000000	-1.000000	-1.000000	-1.000000	-1.000000	-1.000000	61.000000	0.000000	-1.000000	-1.000000	347205.000000	1775765568.266296
-14030.145000	-20464.470000	27324.765000	25308.000000	35244.945000	8892.135000	11799.945000	-38525.940000	3.499971	2.783405	1.944824	2.558331	0.863203	11.034979	18.437095	6.267695	1.022420	1.220800	-1.220800	-0.665648	-0.093078	0.728575	-1.000000	-1.000000	-1.000000	-1.000000	-1.000000	-1.000000	-1.000000	61.000000	0.000000	-1.000000	-1.000000	347206.000000	1775765568.266325
-14034.780000	-20479.860000	27309.510000	25296.435000	35242.695000	8920.890000	11790.405000	-38526.795000	4.146314	3.367881	3.214195	3.986111	2.349138	3.986969	17.394311	9.584280	1.022420	1.220800	-1.220800	-0.665648	-0.093078	0.728575	-1.000000	-1.000000	-1.000000	-1.000000	-1.000000	-1.000000	-1.000000	61.000000	0.000000	-1.000000	-1.000000	347207.000000	1775765568.269936
-14050.395000	-20499.480000	27290.610000	25281.315000	35240.355000	8919.900000	11793.780000	-38538.585000	1.013385	-0.999740	-0.561901	0.477726	0.906479	-0.714623	6.980466	7.018514	1.022420	1.220800	-1.220800	-0.665648	-0.093078	0.728575	-1.000000	-1.000000	-1.000000	-1.000000	-1.000000	-1.000000	-1.000000	61.000000	0.000000	-1.000000	-1.000000	347208.000000	1775765568.269961
-14057.145000	-20506.050000	27283.410000	25274.430000	35234.460000	8888.760000	11791.575000	-38547.720000	-4.717314	-7.974012	-7.294710	-6.037701	-2.540234	-5.779800	-7.434190	-1.132035	0.518840	2.975700	-0.579880	-0.665281	-0.092468	0.728941	-1.000000	-1.000000	-1.000000	-1.000000	-1.000000	-1.000000	-1.000000	61.000000	0.000000	-1.000000	-1.000000	347209.000000	1775765568.284823
-14053.410000	-20497.320000	27290.970000	25278.795000	35234.055000	8878.680000	11782.305000	-38547.720000	-9.633797	-12.378288	-11.847886	-10.872191	-5.680210	-14.165756	-18.402214	-10.537057	0.518840	2.975700	-0.579880	-0.665281	-0.092468	0.728941	-1.000000	-1.000000	-1.000000	-1.000000	-1.000000	-1.000000	-1.000000	61.000000	0.000000	-1.000000	-1.000000	347210.000000	1775765568.284850
-14052.420000	-20494.845000	27293.175000	25277.535000	35229.960000	8863.110000	11780.685000	-38546.145000	-10.071395	-9.921913	-9.819880	-10.029544	-6.535583	-23.673326	-21.695972	-15.635310	0.518840	2.975700	-0.579880	-0.665281	-0.092468	0.728941	-1.000000	-1.000000	-1.000000	-1.000000	-1.000000	-1.000000	-1.000000	61.000000	0.000000	-1.000000	-1.000000	347211.000000	1775765568.284882
-14057.280000	-20497.185000	27291.555000	25276.590000	35230.185000	8860.005000	11781.180000	-38550.600000	-5.315883	-1.239126	-1.562741	-3.529508	-4.564799	-27.900344	-17.284042	-13.582556	0.518840	2.975700	-0.579880	-0.665281	-0.092468	0.728941	-1.000000	-1.000000	-1.000000	-1.000000	-1.000000	-1.000000	-1.000000	61.000000	0.000000	-1.000000	-1.000000	347212.000000	1775765568.284895
-14064.300000	-20503.845000	27285.075000	25269.840000	35227.395000	8912.880000	11778.435000	-38558.025000	1.571919	8.333057	7.899338	4.703809	-0.757346	-21.388187	-7.872250	-6.223709	0.518840	2.975700	-0.579880	-0.665281	-0.092468	0.728941	-1.000000	-1.000000	-1.000000	-1.000000	-1.000000	-1.000000	-1.000000	61.000000	0.000000	-1.000000	-1.000000	347213.000000	1775765568.284910
-14061.780000	-20502.990000	27285.435000	25270.470000	35226.990000	8907.255000	11776.455000	-38555.775000	6.690859	13.365969	13.190551	10.200750	3.149102	-3.858153	2.425968	2.043815	0.518840	2.975700	-0.579880	-0.665281	-0.092468	0.728941	-1.000000	-1.000000	-1.000000	-1.000000	-1.000000	-1.000000	-1.000000	61.000000	0.000000	-1.000000	-1.000000	347214.000000	1775765568.284921
-14063.040000	-20502.000000	27287.595000	25273.080000	35225.730000	8877.555000	11771.100000	-38557.485000	8.385299	12.306373	12.532151	11.104193	5.654776	16.118781	9.775522	7.870771	0.518840	2.975700	-0.579880	-0.665281	-0.092468	0.728941	-1.000000	-1.000000	-1.000000	-1.000000	-1.000000	-1.000000	-1.000000	61.000000	0.000000	-1.000000	-1.000000	347215.000000	1775765568.286514
-14065.020000	-20502.180000	27288.945000	25277.130000	35231.040000	8873.460000	11769.615000	-38558.295000	7.235304	7.301563	7.864241	8.539218	6.236292	25.871017	12.265959	10.132359	0.518840	2.975700	-0.579880	-0.665281	-0.092468	0.728941	-1.000000	-1.000000	-1.000000	-1.000000	-1.000000	-1.000000	-1.000000	61.000000	0.000000	-1.000000	-1.000000	347216.000000	1775765568.286537
-14059.620000	-20501.415000	27287.505000	25276.545000	35229.645000	8868.060000	11772.135000	-38551.860000	4.593221	1.501070	2.215591	4.641392	5.314777	20.939082	10.496838	9.272112	0.518840	2.975700	-0.579880	-0.665281	-0.092468	0.728941	-1.000000	-1.000000	-1.000000	-1.000000	-1.000000	-1.000000	-1.000000	61.000000	0.000000	-1.000000	-1.000000	347217.000000	1775765568.289555
-14063.310000	-20508.660000	27278.775000	25263.675000	35210.880000	8860.410000	11771.325000	-38553.165000	1.787185	-3.008947	-2.512216	0.593010	3.138560	7.757722	6.673776	6.594899	0.518840	2.975700	-0.579880	-0.665281	-0.092468	0.728941	-1.000000	-1.000000	-1.000000	-1.000000	-1.000000	-1.000000	-1.000000	61.000000	0.000000	-1.000000	-1.000000	347218.000000	1775765568.289581
-14066.730000	-20508.930000	27278.595000	25260.480000	35203.365000	8853.840000	11762.190000	-38557.215000	-0.548258	-5.603298	-5.720776	-3.429701	-0.544350	-4.528708	2.658552	3.196604	-2.090620	3.555580	-0.793520	-0.665098	-0.090698	0.728636	-1.000000	-1.000000	-1.000000	-1.000000	-1.000000	-1.000000	-1.000000	61.000000	0.000000	-1.000000	-1.000000	347219.000000	1775765568.297680
-14065.695000	-20504.880000	27283.860000	25266.555000	35209.620000	8862.885000	11761.380000	-38558.250000	-2.401189	-6.201147	-6.926644	-6.568796	-4.602871	-10.278144	-0.881428	-0.434727	-2.090620	3.555580	-0.793520	-0.665098	-0.090698	0.728636	-1.000000	-1.000000	-1.000000	-1.000000	-1.000000	-1.000000	-1.000000	61.000000	0.000000	-1.000000	-1.000000	347220.000000	1775765568.297709
-14049.315000	-20485.755000	27303.390000	25286.850000	35234.415000	8882.595000	11778.300000	-38548.080000	-3.222462	-4.421064	-5.251532	-6.705136	-5.767766	-8.086445	-3.155497	-3.431852	-2.090620	3.555580	-0.793520	-0.665098	-0.090698	0.728636	-1.000000	-1.000000	-1.000000	-1.000000	-1.000000	-1.000000	-1.000000	61.000000	0.000000	-1.000000	-1.000000	347221.000000	1775765568.299040
-14053.095000	-20489.445000	27300.510000	25286.580000	35239.410000	8883.180000	11776.410000	-38550.105000	-2.216622	-0.482086	-0.838484	-2.829915	-1.855237	-0.314304	-2.963614	-4.531598	-2.090620	3.555580	-0.793520	-0.665098	-0.090698	0.728636	-1.000000	-1.000000	-1.000000	-1.000000	-1.000000	-1.000000	-1.000000	61.000000	0.000000	-1.000000	-1.000000	347222.000000	1775765568.299065
-14047.065000	-20480.895000	27311.580000	25297.335000	35247.015000	8887.680000	11779.515000	-38545.065000	-0.091900	3.532948	3.905879	2.789056	4.829084	7.607676	-0.781698	-3.568800	-2.090620	3.555580	-0.793520	-0.665098	-0.090698	0.728636	-1.000000	-1.000000	-1.000000	-1.000000	-1.000000	-1.000000	-1.000000	61.000000	0.000000	-1.000000	-1.000000	347223.000000	1775765568.301687
-14063.040000	-20498.940000	27290.295000	25275.330000	35221.095000	8859.735000	11770.785000	-38554.020000	1.059111	4.769082	5.680091	5.983418	8.704246	10.006859	0.996172	-1.860725	-2.090620	3.555580	-0.793520	-0.665098	-0.090698	0.728636	-1.000000	-1.000000	-1.000000	-1.000000	-1.000000	-1.000000	-1.000000	61.000000	0.000000	-1.000000	-1.000000	347224.000000	1775765568.301714
-14067.720000	-20504.880000	27285.030000	25272.495000	35222.220000	8858.340000	11760.705000	-38559.735000	-0.287599	1.857028	2.715196	3.958386	5.795258	4.756360	0.353136	-1.054488	-2.090620	3.555580	-0.793520	-0.665098	-0.090698	0.728636	-1.000000	-1.000000	-1.000000	-1.000000	-1.000000	-1.000000	-1.000000	61.000000	0.000000	-1.000000	-1.000000	347225.000000	1775765568.305442
-14063.535000	-20502.270000	27288.540000	25273.710000	35223.705000	8863.875000	11746.665000	-38560.365000	-3.307059	-3.545732	-3.315209	-2.014267	-2.127112	-4.486677	-2.787374	-1.665396	-2.090620	3.555580	-0.793520	-0.665098	-0.090698	0.728636	-1.000000	-1.000000	-1.000000	-1.000000	-1.000000	-1.000000	-1.000000	61.000000	0.000000	-1.000000	-1.000000	347226.000000	1775765568.305470
-14056.515000	-20493.900000	27298.125000	25281.675000	35224.920000	8845.245000	11752.110000	-38555.460000	-5.018878	-7.286526	-7.723983	-7.120462	-9.020008	-11.181860	-6.304843	-2.427172	-2.090620	3.555580	-0.793520	-0.665098	-0.090698	0.728636	-1.000000	-1.000000	-1.000000	-1.000000	-1.000000	-1.000000	-1.000000	61.000000	0.000000	-1.000000	-1.000000	347227.000000	1775765568.308908
-14045.985000	-20484.090000	27308.385000	25289.820000	35225.775000	8829.630000	11761.155000	-38543.670000	-3.140712	-6.136646	-6.802828	-7.310314	-10.438173	-12.265340	-6.882190	-1.487568	-2.090620	3.555580	-0.793520	-0.665098	-0.090698	0.728636	-1.000000	-1.000000	-1.000000	-1.000000	-1.000000	-1.000000	-1.000000	61.000000	0.000000	-1.000000	-1.000000	347228.000000	1775765568.308934
-14053.365000	-20489.445000	27304.020000	25288.920000	35231.580000	8855.775000	11766.105000	-38550.465000	1.414721	-0.831515	-1.269992	-2.695674	-6.418503	-8.565402	-2.782587	1.416979	1.022420	4.974760	-1.815940	-0.661558	-0.092346	0.730284	-1.000000	-1.000000	-1.000000	-1.000000	-1.000000	-1.000000	-1.000000	61.000000	0.000000	-1.000000	-1.000000	347229.000000	1775765568.316774
-14061.645000	-20493.945000	27301.995000	25290.630000	35240.130000	8911.935000	11779.380000	-38557.665000	5.047634	4.517721	4.512785	3.092116	0.205228	-0.179540	4.185498	4.066422	1.022420	4.974760	-1.815940	-0.661558	-0.092346	0.730284	-1.000000	-1.000000	-1.000000	-1.000000	-1.000000	-1.000000	-1.000000	61.000000	0.000000	-1.000000	-1.000000	347230.000000	1775765568.316802
-14067.720000	-20494.575000	27304.020000	25289.325000	35237.070000	8928.900000	11771.145000	-38570.580000	4.761690	6.205450	6.642348	6.264732	6.035299	12.399546	9.934531	3.772683	1.022420	4.974760	-1.815940	-0.661558	-0.092346	0.730284	-1.000000	-1.000000	-1.000000	-1.000000	-1.000000	-1.000000	-1.000000	61.000000	0.000000	-1.000000	-1.000000	347231.000000	1775765568.318285
-14074.965000	-20504.430000	27291.510000	25274.160000	35221.320000	8894.385000	11769.795000	-38578.185000	0.938665	3.824429	4.511521	5.275070	8.082680	22.519530	10.790959	0.240715	1.022420	4.974760	-1.815940	-0.661558	-0.092346	0.730284	-1.000000	-1.000000	-1.000000	-1.000000	-1.000000	-1.000000	-1.000000	61.000000	0.000000	-1.000000	-1.000000	347232.000000	1775765568.318305
-14071.005000	-20501.145000	27293.220000	25274.520000	35219.565000	8863.155000	11773.215000	-38571.615000	-3.334136	-0.392602	0.017587	0.976741	5.117974	19.947157	6.132523	-3.876005	1.022420	4.974760	-1.815940	-0.661558	-0.092346	0.730284	-1.000000	-1.000000	-1.000000	-1.000000	-1.000000	-1.000000	-1.000000	61.000000	0.000000	-1.000000	-1.000000	347233.000000	1775765568.323228
-14060.385000	-20494.170000	27300.150000	25279.830000	35221.815000	8858.790000	11770.830000	-38561.715000	-4.719970	-3.399837	-3.853773	-3.661270	-0.631467	2.686062	-1.003573	-4.929273	1.022420	4.974760	-1.815940	-0.661558	-0.092346	0.730284	-1.000000	-1.000000	-1.000000	-1.000000	-1.000000	-1.000000	-1.000000	61.000000	0.000000	-1.000000	-1.000000	347234.000000	1775765568.323255
-14048.280000	-20491.020000	27301.995000	25279.650000	35217.000000	8832.195000	11768.985000	-38547.405000	-1.814010	-3.162125	-4.540496	-5.306429	-4.991335	-18.839030	-6.746291	-1.306817	1.022420	4.974760	-1.815940	-0.661558	-0.092346	0.730284	-1.000000	-1.000000	-1.000000	-1.000000	-1.000000	-1.000000	-1.000000	61.000000	0.000000	-1.000000	-1.000000	347235.000000	1775765568.326942
-14046.435000	-20486.475000	27306.630000	25284.285000	35220.150000	8816.670000	11761.470000	-38545.290000	3.641834	-0.190740	-1.914482	-3.114746	-5.561393	-31.662409	-9.147755	4.928668	1.022420	4.974760	-1.815940	-0.661558	-0.092346	0.730284	-1.000000	-1.000000	-1.000000	-1.000000	-1.000000	-1.000000	-1.000000	61.000000	0.000000	-1.000000	-1.000000	347236.000000	1775765568.326971
-14057.640000	-20492.775000	27302.985000	25284.330000	35222.850000	8830.530000	11755.485000	-38555.055000	7.530708	2.965478	1.752323	0.985336	-2.781891	-29.520446	-8.427447	9.203836	1.022420	4.974760	-1.815940	-0.661558	-0.092346	0.730284	-1.000000	-1.000000	-1.000000	-1.000000	-1.000000	-1.000000	-1.000000	61.000000	0.000000	-1.000000	-1.000000	347237.000000	1775765568.329908
-14072.895000	-20509.875000	27286.155000	25270.785000	35217.495000	8892.900000	11758.545000	-38568.195000	6.230343	3.540326	3.538403	4.036654	1.258066	-12.759674	-5.650623	7.686763	1.022420	4.974760	-1.815940	-0.661558	-0.092346	0.730284	-1.000000	-1.000000	-1.000000	-1.000000	-1.000000	-1.000000	-1.000000	61.000000	0.000000	-1.000000	-1.000000	347238.000000	1775765568.329935
-14076.045000	-20513.970000	27283.005000	25265.790000	35212.320000	8896.815000	11761.110000	-38574.090000	-0.157113	0.529708	1.860892	3.845855	3.994294	12.682155	-1.582196	0.559144	1.312360	3.372460	-3.067260	-0.660826	-0.093261	0.731321	-1.000000	-1.000000	-1.000000	-1.000000	-1.000000	-1.000000	-1.000000	61.000000	0.000000	-1.000000	-1.000000	347239.000000	1775765568.333658
-14065.695000	-20503.035000	27294.525000	25276.860000	35219.160000	8883.360000	11779.110000	-38564.730000	-7.139468	-3.729846	-1.640794	0.997627	4.120901	34.065020	3.257731	-7.536504	1.312360	3.372460	-3.067260	-0.660826	-0.093261	0.731321	-1.000000	-1.000000	-1.000000	-1.000000	-1.000000	-1.000000	-1.000000	61.000000	0.000000	-1.000000	-1.000000	347240.000000	1775765568.333685
-14069.475000	-20508.750000	27287.235000	25268.625000	35210.880000	8878.995000	11782.260000	-38560.905000	-9.516130	-5.334100	-3.423853	-1.569635	2.435743	38.227389	7.924997	-10.962341	1.312360	3.372460	-3.067260	-0.660826	-0.093261	0.731321	-1.000000	-1.000000	-1.000000	-1.000000	-1.000000	-1.000000	-1.000000	61.000000	0.000000	-1.000000	-1.000000	347241.000000	1775765568.347379
-14076.495000	-20518.470000	27275.805000	25253.685000	35196.300000	8875.260000	11768.130000	-38566.575000	-6.273283	-3.234801	-2.358058	-2.339276	0.054304	23.074520	10.224592	-7.909316	1.312360	3.372460	-3.067260	-0.660826	-0.093261	0.731321	-1.000000	-1.000000	-1.000000	-1.000000	-1.000000	-1.000000	-1.000000	61.000000	0.000000	-1.000000	-1.000000	347242.000000	1775765568.347406
-14083.470000	-20526.165000	27267.885000	25245.585000	35188.560000	8884.485000	11756.160000	-38577.285000	-0.820520	0.019835	-0.519596	-2.432913	-2.685724	-0.971720	7.575282	-1.690919	1.312360	3.372460	-3.067260	-0.660826	-0.093261	0.731321	-1.000000	-1.000000	-1.000000	-1.000000	-1.000000	-1.000000	-1.000000	61.000000	0.000000	-1.000000	-1.000000	347243.000000	1775765568.347434
-14079.240000	-20516.580000	27278.280000	25255.980000	35196.795000	8886.555000	11745.270000	-38583.495000	3.245108	2.129712	0.524053	-2.449020	-4.712603	-20.187167	0.151639	2.936482	1.312360	3.372460	-3.067260	-0.660826	-0.093261	0.731321	-1.000000	-1.000000	-1.000000	-1.000000	-1.000000	-1.000000	-1.000000	61.000000	0.000000	-1.000000	-1.000000	347244.000000	1775765568.347446
-14066.595000	-20500.155000	27298.035000	25277.310000	35213.580000	8832.555000	11768.895000	-38571.660000	5.206457	3.545434	1.842737	-0.769156	-3.774820	-27.747522	-7.575680	4.234605	1.312360	3.372460	-3.067260	-0.660826	-0.093261	0.731321	-1.000000	-1.000000	-1.000000	-1.000000	-1.000000	-1.000000	-1.000000	61.000000	0.000000	-1.000000	-1.000000	347245.000000	1775765568.347966
-14065.110000	-20500.380000	27297.045000	25279.020000	35221.860000	8834.220000	11780.730000	-38571.435000	6.177595	5.451465	4.664866	3.660326	1.034368	-25.961633	-9.712581	3.946086	1.312360	3.372460	-3.067260	-0.660826	-0.093261	0.731321	-1.000000	-1.000000	-1.000000	-1.000000	-1.000000	-1.000000	-1.000000	61.000000	0.000000	-1.000000	-1.000000	347246.000000	1775765568.347982
-14069.430000	-20503.530000	27292.140000	25273.305000	35218.485000	8852.445000	11768.895000	-38578.905000	6.280066	6.790429	7.221906	8.246362	7.018975	-18.367309	-4.839920	3.726675	1.312360	3.372460	-3.067260	-0.660826	-0.093261	0.731321	-1.000000	-1.000000	-1.000000	-1.000000	-1.000000	-1.000000	-1.000000	61.000000	0.000000	-1.000000	-1.000000	347247.000000	1775765568.357148
-14074.695000	-20505.915000	27290.925000	25271.100000	35214.525000	8834.085000	11760.030000	-38586.960000	4.346459	5.287425	6.352048	8.730290	9.538037	-5.943229	1.944722	2.989116	1.312360	3.372460	-3.067260	-0.660826	-0.093261	0.731321	-1.000000	-1.000000	-1.000000	-1.000000	-1.000000	-1.000000	-1.000000	61.000000	0.000000	-1.000000	-1.000000	347248.000000	1775765568.357173
-14073.345000	-20503.575000	27296.055000	25274.610000	35216.370000	8871.120000	11761.155000	-38590.470000	0.237327	0.748097	1.689638	4.028934	6.356095	8.546345	4.884761	0.836680	-0.518840	2.945180	-2.426340	-0.661619	-0.090088	0.730589	-1.000000	-1.000000	-1.000000	-1.000000	-1.000000	-1.000000	-1.000000	61.000000	0.000000	-1.000000	-1.000000	347249.000000	1775765568.365022
-14065.290000	-20500.290000	27296.820000	25274.250000	35215.155000	8905.635000	11761.335000	-38579.130000	-3.981038	-4.338250	-3.834692	-2.765345	-0.407399	21.099697	3.255285	-1.696464	-0.518840	2.945180	-2.426340	-0.661619	-0.090088	0.730589	-1.000000	-1.000000	-1.000000	-1.000000	-1.000000	-1.000000	-1.000000	61.000000	0.000000	-1.000000	-1.000000	347250.000000	1775765568.365050
-14067.315000	-20506.635000	27290.835000	25270.470000	35216.730000	8883.360000	11767.590000	-38573.010000	-5.796729	-7.280905	-7.254637	-7.780527	-6.596610	28.124149	0.207090	-2.351879	-0.518840	2.945180	-2.426340	-0.661619	-0.090088	0.730589	-1.000000	-1.000000	-1.000000	-1.000000	-1.000000	-1.000000	-1.000000	61.000000	0.000000	-1.000000	-1.000000	347251.000000	1775765568.365081
-14071.770000	-20511.135000	27287.955000	25267.995000	35215.020000	8873.055000	11776.905000	-38572.155000	-4.827561	-7.427108	-7.833365	-9.264569	-9.276236	24.974072	-1.154432	-0.418159	-0.518840	2.945180	-2.426340	-0.661619	-0.090088	0.730589	-1.000000	-1.000000	-1.000000	-1.000000	-1.000000	-1.000000	-1.000000	61.000000	0.000000	-1.000000	-1.000000	347252.000000	1775765568.365094
-14077.665000	-20516.445000	27283.500000	25265.070000	35214.165000	8859.645000	11773.980000	-38581.380000	-2.835255	-5.782403	-6.362304	-7.605121	-8.047777	10.308146	-0.095171	2.023433	-0.518840	2.945180	-2.426340	-0.661619	-0.090088	0.730589	-1.000000	-1.000000	-1.000000	-1.000000	-1.000000	-1.000000	-1.000000	61.000000	0.000000	-1.000000	-1.000000	347253.000000	1775765568.365108
-14081.445000	-20517.930000	27280.485000	25261.920000	35212.230000	8851.680000	11761.785000	-38592.045000	-1.489757	-3.381110	-3.801373	-4.155942	-4.428316	-9.435963	1.419910	2.111659	-0.518840	2.945180	-2.426340	-0.661619	-0.090088	0.730589	-1.000000	-1.000000	-1.000000	-1.000000	-1.000000	-1.000000	-1.000000	61.000000	0.000000	-1.000000	-1.000000	347254.000000	1775765568.365120
-14083.470000	-20514.780000	27283.185000	25263.495000	35212.455000	8857.080000	11763.000000	-38591.460000	-0.983184	-0.598597	-0.797490	-0.323184	-0.409624	-24.068365	0.973649	-0.767078	-0.518840	2.945180	-2.426340	-0.661619	-0.090088	0.730589	-1.000000	-1.000000	-1.000000	-1.000000	-1.000000	-1.000000	-1.000000	61.000000	0.000000	-1.000000	-1.000000	347255.000000	1775765568.375908
-14091.615000	-20517.210000	27283.320000	25263.945000	35215.380000	8880.255000	11763.585000	-38596.365000	-0.632114	2.371290	2.258163	2.952986	2.684765	-26.256245	-1.302150	-4.282764	-0.518840	2.945180	-2.426340	-0.661619	-0.090088	0.730589	-1.000000	-1.000000	-1.000000	-1.000000	-1.000000	-1.000000	-1.000000	61.000000	0.000000	-1.000000	-1.000000	347256.000000	1775765568.375933
-14089.320000	-20514.735000	27287.055000	25265.205000	35214.120000	8880.885000	11763.585000	-38590.290000	0.055204	4.848920	4.853481	5.135224	4.395291	-15.651326	-3.143884	-5.515493	-0.518840	2.945180	-2.426340	-0.661619	-0.090088	0.730589	-1.000000	-1.000000	-1.000000	-1.000000	-1.000000	-1.000000	-1.000000	61.000000	0.000000	-1.000000	-1.000000	347257.000000	1775765568.384831
-14082.480000	-20516.445000	27285.345000	25263.540000	35214.120000	8859.600000	11765.205000	-38584.125000	1.390916	5.934298	6.229031	5.819271	4.643366	0.212940	-2.963965	-3.275979	-0.518840	2.945180	-2.426340	-0.661619	-0.090088	0.730589	-1.000000	-1.000000	-1.000000	-1.000000	-1.000000	-1.000000	-1.000000	61.000000	0.000000	-1.000000	-1.000000	347258.000000	1775765568.384859
-14083.155000	-20520.180000	27281.655000	25262.235000	35214.345000	8860.005000	11775.060000	-38580.975000	3.411826	5.151085	5.693940	4.827161	3.583063	11.145807	-0.834687	1.353593	-4.410140	1.068200	-2.289000	-0.665098	-0.088196	0.728514	-1.000000	-1.000000	-1.000000	-1.000000	-1.000000	-1.000000	-1.000000	61.000000	0.000000	-1.000000	-1.000000	347259.000000	1775765568.384889
-14075.910000	-20515.230000	27285.840000	25264.935000	35211.960000	8863.335000	11780.955000	-38576.745000	5.256054	2.832039	3.289217	2.586304	1.730928	12.779642	2.267667	5.734847	-4.410140	1.068200	-2.289000	-0.665098	-0.088196	0.728514	-1.000000	-1.000000	-1.000000	-1.000000	-1.000000	-1.000000	-1.000000	61.000000	0.000000	-1.000000	-1.000000	347260.000000	1775765568.384902
-14069.205000	-20505.015000	27296.460000	25275.015000	35220.060000	8865.945000	11771.325000	-38575.755000	5.836218	0.378399	0.403210	0.322825	-0.092188	8.338408	4.641964	7.434862	-4.410140	1.068200	-2.289000	-0.665098	-0.088196	0.728514	-1.000000	-1.000000	-1.000000	-1.000000	-1.000000	-1.000000	-1.000000	61.000000	0.000000	-1.000000	-1.000000	347261.000000	1775765568.384964
-14075.055000	-20508.165000	27292.680000	25270.200000	35214.705000	8857.710000	11759.400000	-38583.945000	4.638832	-0.808118	-1.291945	-0.837908	-1.116377	2.901924	4.151196	5.543525	-4.410140	1.068200	-2.289000	-0.665098	-0.088196	0.728514	-1.000000	-1.000000	-1.000000	-1.000000	-1.000000	-1.000000	-1.000000	61.000000	0.000000	-1.000000	-1.000000	347262.000000	1775765568.384977
-14073.660000	-20505.015000	27296.640000	25276.095000	35219.340000	8864.100000	11762.730000	-38581.245000	1.586871	-0.904129	-1.659535	-1.047111	-1.270505	-0.860708	0.367168	0.906614	-4.410140	1.068200	-2.289000	-0.665098	-0.088196	0.728514	-1.000000	-1.000000	-1.000000	-1.000000	-1.000000	-1.000000	-1.000000	61.000000	0.000000	-1.000000	-1.000000	347263.000000	1775765568.384992
-14071.995000	-20504.880000	27297.990000	25277.355000	35217.135000	8858.835000	11757.645000	-38579.130000	-2.455229	-1.016014	-1.636420	-1.090053	-1.039571	-2.408765	-4.135303	-4.015151	-4.410140	1.068200	-2.289000	-0.665098	-0.088196	0.728514	-1.000000	-1.000000	-1.000000	-1.000000	-1.000000	-1.000000	-1.000000	61.000000	0.000000	-1.000000	-1.000000	347264.000000	1775765568.385006
-14074.830000	-20508.390000	27294.390000	25273.530000	35212.005000	8844.570000	11754.090000	-38579.625000	-5.695686	-1.688172	-1.822535	-1.370061	-0.917012	-2.530578	-6.268456	-6.576482	-4.410140	1.068200	-2.289000	-0.665098	-0.088196	0.728514	-1.000000	-1.000000	-1.000000	-1.000000	-1.000000	-1.000000	-1.000000	61.000000	0.000000	-1.000000	-1.000000	347265.000000	1775765568.386402
-14075.730000	-20506.275000	27296.010000	25275.690000	35214.030000	8851.860000	11746.080000	-38585.070000	-6.864462	-2.689322	-2.294855	-1.970508	-1.169685	-2.474460	-5.256306	-6.054615	-4.410140	1.068200	-2.289000	-0.665098	-0.088196	0.728514	-1.000000	-1.000000	-1.000000	-1.000000	-1.000000	-1.000000	-1.000000	61.000000	0.000000	-1.000000	-1.000000	347266.000000	1775765568.386426
-14085.405000	-20517.885000	27285.210000	25266.780000	35205.795000	8868.780000	11740.005000	-38594.340000	-6.042426	-3.482841	-2.850450	-2.693188	-1.580034	-1.862040	-2.433122	-3.874839	-4.410140	1.068200	-2.289000	-0.665098	-0.088196	0.728514	-1.000000	-1.000000	-1.000000	-1.000000	-1.000000	-1.000000	-1.000000	61.000000	0.000000	-1.000000	-1.000000	347267.000000	1775765568.389064
-14091.615000	-20526.435000	27277.785000	25260.570000	35200.530000	8864.595000	11744.370000	-38596.815000	-4.238036	-3.895959	-3.353630	-3.287070	-1.845633	0.528896	0.651637	-1.829405	-4.410140	1.068200	-2.289000	-0.665098	-0.088196	0.728514	-1.000000	-1.000000	-1.000000	-1.000000	-1.000000	-1.000000	-1.000000	61.000000	0.000000	-1.000000	-1.000000	347268.000000	1775765568.389091
-14097.015000	-20534.310000	27268.155000	25248.555000	35186.490000	8839.440000	11750.490000	-38597.355000	-2.348038	-3.987085	-3.694898	-3.659137	-2.041552	3.154309	3.498239	-0.399825	-2.960440	2.456860	-2.838360	-0.666624	-0.093017	0.725462	-1.000000	-1.000000	-1.000000	-1.000000	-1.000000	-1.000000	-1.000000	61.000000	0.000000	-1.000000	-1.000000	347269.000000	1775765568.432886
-14083.380000	-20521.080000	27280.035000	25256.880000	35192.475000	8838.630000	11766.150000	-38584.845000	-0.197986	-3.032736	-3.093647	-3.322674	-2.034344	2.653643	6.242558	1.254903	-2.960440	2.456860	-2.838360	-0.666624	-0.093017	0.725462	-1.000000	-1.000000	-1.000000	-1.000000	-1.000000	-1.000000	-1.000000	61.000000	0.000000	-1.000000	-1.000000	347270.000000	1775765568.432914
-14057.235000	-20493.225000	27307.260000	25282.395000	35216.280000	8817.165000	11772.675000	-38562.930000	3.394661	0.559360	0.057546	-0.846679	-0.536481	-1.387969	8.516225	4.191383	-2.960440	2.456860	-2.838360	-0.666624	-0.093017	0.725462	-1.000000	-1.000000	-1.000000	-1.000000	-1.000000	-1.000000	-1.000000	61.000000	0.000000	-1.000000	-1.000000	347271.000000	1775765568.432945
-14060.745000	-20493.135000	27309.780000	25287.570000	35225.460000	8818.470000	11755.665000	-38574.450000	8.448681	6.903509	6.121656	4.567440	3.725540	-5.867016	8.605232	7.830099	-2.960440	2.456860	-2.838360	-0.666624	-0.093017	0.725462	-1.000000	-1.000000	-1.000000	-1.000000	-1.000000	-1.000000	-1.000000	61.000000	0.000000	-1.000000	-1.000000	347272.000000	1775765568.432959
-14064.795000	-20494.620000	27309.870000	25288.920000	35228.880000	8854.245000	11760.885000	-38578.185000	11.716847	12.293283	11.752418	10.348611	9.038690	-6.537503	4.635737	9.022550	-2.960440	2.456860	-2.838360	-0.666624	-0.093017	0.725462	-1.000000	-1.000000	-1.000000	-1.000000	-1.000000	-1.000000	-1.000000	61.000000	0.000000	-1.000000	-1.000000	347273.000000	1775765568.432974
-14074.695000	-20507.490000	27295.470000	25272.495000	35211.375000	8881.830000	11796.435000	-38581.875000	9.307207	11.774383	11.957604	11.664510	10.878467	-0.381211	-1.654236	5.252271	-2.960440	2.456860	-2.838360	-0.666624	-0.093017	0.725462	-1.000000	-1.000000	-1.000000	-1.000000	-1.000000	-1.000000	-1.000000	61.000000	0.000000	-1.000000	-1.000000	347274.000000	1775765568.432986
-14084.190000	-20516.400000	27284.130000	25264.395000	35206.830000	8905.635000	11783.385000	-38588.265000	1.194194	4.180380	4.959412	6.026354	6.164043	10.702448	-5.606507	-1.973379	-2.960440	2.456860	-2.838360	-0.666624	-0.093017	0.725462	-1.000000	-1.000000	-1.000000	-1.000000	-1.000000	-1.000000	-1.000000	61.000000	0.000000	-1.000000	-1.000000	347275.000000	1775765568.433000
-14089.680000	-20522.295000	27278.550000	25261.470000	35207.505000	8943.705000	11770.785000	-38589.570000	-8.442907	-6.562496	-5.867261	-3.892941	-3.083029	20.079706	-6.152873	-8.581423	-2.960440	2.456860	-2.838360	-0.666624	-0.093017	0.725462	-1.000000	-1.000000	-1.000000	-1.000000	-1.000000	-1.000000	-1.000000	61.000000	0.000000	-1.000000	-1.000000	347276.000000	1775765568.433012
-14092.110000	-20520.720000	27287.325000	25271.640000	35216.100000	8910.180000	11768.130000	-38596.140000	-14.376081	-14.318651	-14.103629	-11.872058	-10.879613	20.961227	-6.308267	-11.272730	-2.960440	2.456860	-2.838360	-0.666624	-0.093017	0.725462	-1.000000	-1.000000	-1.000000	-1.000000	-1.000000	-1.000000	-1.000000	61.000000	0.000000	-1.000000	-1.000000	347277.000000	1775765568.433026
-14086.305000	-20511.720000	27295.605000	25277.220000	35216.370000	8889.075000	11769.705000	-38598.390000	-13.551952	-14.758016	-14.633545	-12.870187	-12.426124	9.576948	-7.217615	-9.308412	-2.960440	2.456860	-2.838360	-0.666624	-0.093017	0.725462	-1.000000	-1.000000	-1.000000	-1.000000	-1.000000	-1.000000	-1.000000	61.000000	0.000000	-1.000000	-1.000000	347278.000000	1775765568.433036
-14090.940000	-20514.015000	27292.185000	25271.055000	35206.470000	8872.695000	11773.305000	-38607.840000	-6.688783	-7.964528	-7.468806	-6.991564	-7.978678	-11.182951	-6.900510	-4.361960	0.091560	1.113980	-3.036740	-0.666990	-0.097412	0.725218	-1.000000	-1.000000	-1.000000	-1.000000	-1.000000	-1.000000	-1.000000	61.000000	0.000000	-1.000000	-1.000000	347279.000000	1775765568.433050
-14096.565000	-20516.715000	27290.610000	25272.270000	35215.830000	8887.680000	11778.030000	-38612.025000	2.179508	1.674947	2.296443	1.043369	-1.504436	-30.300821	-3.719042	0.918500	0.091560	1.113980	-3.036740	-0.666990	-0.097412	0.725218	-1.000000	-1.000000	-1.000000	-1.000000	-1.000000	-1.000000	-1.000000	61.000000	0.000000	-1.000000	-1.000000	347280.000000	1775765568.433061
-14096.790000	-20520.585000	27285.705000	25268.310000	35215.020000	8881.650000	11783.655000	-38603.790000	8.451575	8.658528	8.788756	6.351860	3.631644	-35.968485	1.613624	4.791430	0.091560	1.113980	-3.036740	-0.666990	-0.097412	0.725218	-1.000000	-1.000000	-1.000000	-1.000000	-1.000000	-1.000000	-1.000000	61.000000	0.000000	-1.000000	-1.000000	347281.000000	1775765568.433075
-14093.280000	-20526.390000	27277.560000	25259.220000	35203.230000	8859.465000	11780.910000	-38594.835000	10.165806	10.095680	9.369028	7.014817	6.001566	-25.713748	6.593393	7.303674	0.091560	1.113980	-3.036740	-0.666990	-0.097412	0.725218	-1.000000	-1.000000	-1.000000	-1.000000	-1.000000	-1.000000	-1.000000	61.000000	0.000000	-1.000000	-1.000000	347282.000000	1775765568.433087
-14092.335000	-20532.555000	27270.090000	25251.660000	35195.400000	8855.460000	11775.330000	-38586.870000	8.361707	6.666712	5.131721	3.842693	5.026142	-7.385951	8.534522	8.971719	0.091560	1.113980	-3.036740	-0.666990	-0.097412	0.725218	-1.000000	-1.000000	-1.000000	-1.000000	-1.000000	-1.000000	-1.000000	61.000000	0.000000	-1.000000	-1.000000	347283.000000	1775765568.433102
-14095.395000	-20533.320000	27269.730000	25250.580000	35192.745000	8850.105000	11753.370000	-38589.930000	4.942459	1.265385	-0.615738	-0.675207	1.534740	9.329070	6.042552	9.164647	0.091560	1.113980	-3.036740	-0.666990	-0.097412	0.725218	-1.000000	-1.000000	-1.000000	-1.000000	-1.000000	-1.000000	-1.000000	61.000000	0.000000	-1.000000	-1.000000	347284.000000	1775765568.433114
-14085.090000	-20518.785000	27284.625000	25263.180000	35202.510000	8858.565000	11739.780000	-38589.930000	1.376546	-2.630175	-4.084253	-3.380600	-1.742832	19.519345	-0.136020	6.601644	0.091560	1.113980	-3.036740	-0.666990	-0.097412	0.725218	-1.000000	-1.000000	-1.000000	-1.000000	-1.000000	-1.000000	-1.000000	61.000000	0.000000	-1.000000	-1.000000	347285.000000	1775765568.433129
-14071.545000	-20502.855000	27301.545000	25278.435000	35213.130000	8873.190000	11772.135000	-38579.985000	-0.948037	-2.517531	-2.834086	-2.054391	-1.982559	23.075244	-6.157484	1.491524	0.091560	1.113980	-3.036740	-0.666990	-0.097412	0.725218	-1.000000	-1.000000	-1.000000	-1.000000	-1.000000	-1.000000	-1.000000	61.000000	0.000000	-1.000000	-1.000000	347286.000000	1775765568.433141
-14070.465000	-20500.965000	27304.335000	25282.395000	35213.850000	8869.590000	11790.630000	-38577.105000	-1.271244	1.220630	2.270339	2.677851	1.114069	21.671027	-6.377993	-3.781828	0.091560	1.113980	-3.036740	-0.666990	-0.097412	0.725218	-1.000000	-1.000000	-1.000000	-1.000000	-1.000000	-1.000000	-1.000000	61.000000	0.000000	-1.000000	-1.000000	347287.000000	1775765568.433156
-14078.340000	-20505.735000	27297.630000	25279.245000	35215.560000	8845.560000	11779.830000	-38582.370000	-0.842516	4.914648	6.904324	7.091799	4.783609	15.738880	0.370797	-7.002200	0.091560	1.113980	-3.036740	-0.666990	-0.097412	0.725218	-1.000000	-1.000000	-1.000000	-1.000000	-1.000000	-1.000000	-1.000000	61.000000	0.000000	-1.000000	-1.000000	347288.000000	1775765568.433167
-14077.350000	-20503.980000	27298.620000	25280.505000	35217.360000	8828.730000	11769.345000	-38580.795000	-1.751771	4.776400	6.782346	7.325948	5.860711	5.017868	7.772366	-7.908609	0.534100	1.419180	-2.533160	-0.669493	-0.100464	0.723204	-1.000000	-1.000000	-1.000000	-1.000000	-1.000000	-1.000000	-1.000000	61.000000	0.000000	-1.000000	-1.000000	347289.000000	1775765568.433182
-14079.195000	-20506.815000	27298.305000	25283.205000	35224.335000	8860.410000	11774.655000	-38584.755000	-4.157859	0.501828	1.676567	2.916798	3.631066	-7.197836	9.037333	-7.176333	0.534100	1.419180	-2.533160	-0.669493	-0.100464	0.723204	-1.000000	-1.000000	-1.000000	-1.000000	-1.000000	-1.000000	-1.000000	61.000000	0.000000	-1.000000	-1.000000	347290.000000	1775765568.433192
-14088.915000	-20518.875000	27287.280000	25271.055000	35215.920000	8909.010000	11786.535000	-38594.880000	-6.367207	-5.232553	-5.055125	-3.417800	-0.364993	-13.110071	4.222505	-5.504301	0.534100	1.419180	-2.533160	-0.669493	-0.100464	0.723204	-1.000000	-1.000000	-1.000000	-1.000000	-1.000000	-1.000000	-1.000000	61.000000	0.000000	-1.000000	-1.000000	347291.000000	1775765568.439256
-14100.480000	-20530.440000	27277.200000	25261.245000	35209.170000	8949.330000	11784.600000	-38601.945000	-7.142861	-9.691419	-10.055423	-8.797882	-4.462938	-7.335912	-1.713086	-3.679101	0.534100	1.419180	-2.533160	-0.669493	-0.100464	0.723204	-1.000000	-1.000000	-1.000000	-1.000000	-1.000000	-1.000000	-1.000000	61.000000	0.000000	-1.000000	-1.000000	347292.000000	1775765568.439282
-14089.815000	-20520.225000	27287.415000	25270.785000	35213.760000	8920.080000	11780.235000	-38587.410000	-6.032123	-10.955202	-11.359233	-11.228695	-7.414172	5.139518	-5.232665	-1.695875	0.534100	1.419180	-2.533160	-0.669493	-0.100464	0.723204	-1.000000	-1.000000	-1.000000	-1.000000	-1.000000	-1.000000	-1.000000	61.000000	0.000000	-1.000000	-1.000000	347293.000000	1775765568.523784
-14079.825000	-20512.620000	27295.110000	25277.175000	35213.625000	8846.955000	11769.210000	-38579.445000	-2.346534	-7.586412	-7.883876	-9.111979	-7.808608	10.454125	-6.372307	1.561089	0.534100	1.419180	-2.533160	-0.669493	-0.100464	0.723204	-1.000000	-1.000000	-1.000000	-1.000000	-1.000000	-1.000000	-1.000000	61.000000	0.000000	-1.000000	-1.000000	347294.000000	1775765568.523812
-14075.550000	-20508.930000	27299.745000	25281.990000	35214.030000	8821.530000	11764.530000	-38577.420000	3.670810	-0.139658	-0.477215	-2.660695	-5.125101	-0.857898	-6.450106	6.091956	0.534100	1.419180	-2.533160	-0.669493	-0.100464	0.723204	-1.000000	-1.000000	-1.000000	-1.000000	-1.000000	-1.000000	-1.000000	61.000000	0.000000	-1.000000	-1.000000	347295.000000	1775765568.523842
-14090.580000	-20522.070000	27289.710000	25273.710000	35208.405000	8896.005000	11762.775000	-38590.470000	9.070824	7.567211	7.108672	4.831362	-0.801655	-20.286347	-5.785523	9.241249	0.534100	1.419180	-2.533160	-0.669493	-0.100464	0.723204	-1.000000	-1.000000	-1.000000	-1.000000	-1.000000	-1.000000	-1.000000	61.000000	0.000000	-1.000000	-1.000000	347296.000000	1775765568.523856
-14092.290000	-20515.365000	27300.960000	25285.950000	35218.485000	8909.460000	11768.760000	-38597.130000	10.001970	11.022409	10.692333	9.283819	3.025302	-27.561078	-3.616885	7.968281	0.534100	1.419180	-2.533160	-0.669493	-0.100464	0.723204	-1.000000	-1.000000	-1.000000	-1.000000	-1.000000	-1.000000	-1.000000	61.000000	0.000000	-1.000000	-1.000000	347297.000000	1775765568.523932
-14096.340000	-20516.445000	27299.970000	25285.635000	35220.915000	8889.345000	11769.120000	-38602.755000	5.736529	9.100078	9.266574	9.280965	5.359018	-14.467470	0.384356	2.321442	0.534100	1.419180	-2.533160	-0.669493	-0.100464	0.723204	-1.000000	-1.000000	-1.000000	-1.000000	-1.000000	-1.000000	-1.000000	61.000000	0.000000	-1.000000	-1.000000	347298.000000	1775765568.523950
-14102.505000	-20524.410000	27286.245000	25270.965000	35214.480000	8878.905000	11763.945000	-38603.295000	-0.690810	4.075210	4.576197	5.816503	5.992954	6.541415	4.824483	-4.218660	1.876980	0.747740	-3.341940	-0.669188	-0.101501	0.724730	-1.000000	-1.000000	-1.000000	-1.000000	-1.000000	-1.000000	-1.000000	61.000000	0.000000	-1.000000	-1.000000	347299.000000	1775765568.523973
-14101.740000	-20520.315000	27287.460000	25266.780000	35207.325000	8877.465000	11757.330000	-38605.275000	-5.542909	-1.242320	-1.325945	0.241324	4.444577	19.200066	7.209887	-7.736215	1.876980	0.747740	-3.341940	-0.669188	-0.101501	0.724730	-1.000000	-1.000000	-1.000000	-1.000000	-1.000000	-1.000000	-1.000000	61.000000	0.000000	-1.000000	-1.000000	347300.000000	1775765568.523986
-14097.780000	-20516.715000	27294.120000	25275.330000	35213.310000	8876.745000	11769.075000	-38594.250000	-6.631697	-4.608714	-6.013251	-5.192387	1.015471	18.565966	6.422804	-6.541809	1.876980	0.747740	-3.341940	-0.669188	-0.101501	0.724730	-1.000000	-1.000000	-1.000000	-1.000000	-1.000000	-1.000000	-1.000000	61.000000	0.000000	-1.000000	-1.000000	347301.000000	1775765568.524000
-14091.525000	-20521.800000	27286.785000	25267.140000	35200.755000	8859.915000	11770.830000	-38580.255000	-3.836531	-4.959428	-7.218058	-7.541051	-2.502480	9.524824	3.951001	-1.391331	1.876980	0.747740	-3.341940	-0.669188	-0.101501	0.724730	-1.000000	-1.000000	-1.000000	-1.000000	-1.000000	-1.000000	-1.000000	61.000000	0.000000	-1.000000	-1.000000	347302.000000	1775765568.524012
-14087.790000	-20518.920000	27286.920000	25264.890000	35197.965000	8868.420000	11773.575000	-38575.395000	1.030161	-3.164586	-5.052579	-6.021224	-4.581930	-0.777217	1.783583	5.162475	1.876980	0.747740	-3.341940	-0.669188	-0.101501	0.724730	-1.000000	-1.000000	-1.000000	-1.000000	-1.000000	-1.000000	-1.000000	61.000000	0.000000	-1.000000	-1.000000	347303.000000	1775765568.524026
-14079.780000	-20507.040000	27299.475000	25278.615000	35215.695000	8889.030000	11757.780000	-38576.655000	5.290811	-0.661790	-1.322435	-2.173844	-4.471087	-6.552086	0.061370	9.445369	1.876980	0.747740	-3.341940	-0.669188	-0.101501	0.724730	-1.000000	-1.000000	-1.000000	-1.000000	-1.000000	-1.000000	-1.000000	61.000000	0.000000	-1.000000	-1.000000	347304.000000	1775765568.524037
-14078.250000	-20502.225000	27303.390000	25283.070000	35217.180000	8863.335000	11745.045000	-38580.570000	6.939368	1.902365	2.626598	2.442442	-1.607807	-5.719233	-2.438529	8.607385	1.876980	0.747740	-3.341940	-0.669188	-0.101501	0.724730	-1.000000	-1.000000	-1.000000	-1.000000	-1.000000	-1.000000	-1.000000	61.000000	0.000000	-1.000000	-1.000000	347305.000000	1775765568.524050
-14090.265000	-20512.575000	27292.275000	25273.755000	35212.995000	8868.735000	11757.870000	-38583.990000	5.152436	3.624443	5.395526	6.116781	2.767647	-1.651045	-5.553920	2.830411	1.876980	0.747740	-3.341940	-0.669188	-0.101501	0.724730	-1.000000	-1.000000	-1.000000	-1.000000	-1.000000	-1.000000	-1.000000	61.000000	0.000000	-1.000000	-1.000000	347306.000000	1775765568.524061
-14088.690000	-20511.045000	27289.035000	25268.850000	35208.720000	8889.885000	11760.615000	-38575.440000	0.378095	3.026053	5.127813	6.572540	5.425260	1.551842	-6.629678	-4.505958	1.876980	0.747740	-3.341940	-0.669188	-0.101501	0.724730	-1.000000	-1.000000	-1.000000	-1.000000	-1.000000	-1.000000	-1.000000	61.000000	0.000000	-1.000000	-1.000000	347307.000000	1775765568.524075
-14089.095000	-20511.945000	27289.080000	25268.355000	35206.965000	8882.550000	11757.555000	-38577.105000	-5.076430	0.120615	1.707596	3.243053	4.368306	3.347419	-3.912756	-9.141765	1.876980	0.747740	-3.341940	-0.669188	-0.101501	0.724730	-1.000000	-1.000000	-1.000000	-1.000000	-1.000000	-1.000000	-1.000000	61.000000	0.000000	-1.000000	-1.000000	347308.000000	1775765568.524086
-14087.655000	-20509.695000	27297.810000	25278.570000	35218.935000	8875.845000	11755.260000	-38580.210000	-8.099014	-3.028162	-2.256155	-1.355459	0.899938	3.718325	0.738315	-9.188435	3.296160	1.358140	-1.754900	-0.663084	-0.101684	0.727720	-1.000000	-1.000000	-1.000000	-1.000000	-1.000000	-1.000000	-1.000000	61.000000	0.000000	-1.000000	-1.000000	347309.000000	1775765568.524099
-14095.575000	-20517.885000	27292.905000	25275.240000	35220.285000	8864.685000	11748.735000	-38589.075000	-7.385281	-4.512514	-3.929091	-3.919074	-1.895903	1.541338	4.021115	-6.099351	3.296160	1.358140	-1.754900	-0.663084	-0.101684	0.727720	-1.000000	-1.000000	-1.000000	-1.000000	-1.000000	-1.000000	-1.000000	61.000000	0.000000	-1.000000	-1.000000	347310.000000	1775765568.524110
-14101.605000	-20521.395000	27290.520000	25274.295000	35218.845000	8857.170000	11728.620000	-38600.280000	-4.263209	-4.161477	-2.995718	-3.544008	-2.418600	-2.876555	3.941716	-2.653617	3.296160	1.358140	-1.754900	-0.663084	-0.101684	0.727720	-1.000000	-1.000000	-1.000000	-1.000000	-1.000000	-1.000000	-1.000000	61.000000	0.000000	-1.000000	-1.000000	347311.000000	1775765568.524124
-14107.815000	-20524.545000	27289.845000	25275.420000	35221.005000	8858.070000	11717.685000	-38607.885000	-0.973119	-2.802090	-1.155164	-1.736951	-1.571882	-6.972382	0.561665	-0.603840	3.296160	1.358140	-1.754900	-0.663084	-0.101684	0.727720	-1.000000	-1.000000	-1.000000	-1.000000	-1.000000	-1.000000	-1.000000	61.000000	0.000000	-1.000000	-1.000000	347312.000000	1775765568.524135
-14107.275000	-20526.975000	27287.415000	25271.415000	35218.305000	8873.775000	11731.590000	-38603.655000	1.324880	-1.030736	0.182731	-0.164332	-0.836037	-7.521765	-3.477096	0.382267	3.296160	1.358140	-1.754900	-0.663084	-0.101684	0.727720	-1.000000	-1.000000	-1.000000	-1.000000	-1.000000	-1.000000	-1.000000	61.000000	0.000000	-1.000000	-1.000000	347313.000000	1775765568.524149
-14091.615000	-20514.915000	27296.775000	25277.490000	35223.570000	8888.490000	11766.420000	-38587.230000	3.136400	1.102854	0.883378	0.548178	-0.727305	-2.948712	-3.602722	2.158415	3.296160	1.358140	-1.754900	-0.663084	-0.101684	0.727720	-1.000000	-1.000000	-1.000000	-1.000000	-1.000000	-1.000000	-1.000000	61.000000	0.000000	-1.000000	-1.000000	347314.000000	1775765568.524160
-14077.395000	-20504.475000	27306.045000	25285.320000	35229.330000	8863.785000	11805.750000	-38564.415000	5.634907	3.854653	1.714830	0.882930	-0.725576	4.262361	3.005888	6.161014	3.296160	1.358140	-1.754900	-0.663084	-0.101684	0.727720	-1.000000	-1.000000	-1.000000	-1.000000	-1.000000	-1.000000	-1.000000	61.000000	0.000000	-1.000000	-1.000000	347315.000000	1775765568.524174
-14083.020000	-20510.190000	27296.190000	25272.315000	35210.970000	8821.800000	11787.210000	-38568.375000	8.397592	6.583547	2.853880	1.296042	-0.513495	7.693540	12.858537	11.110451	3.296160	1.358140	-1.754900	-0.663084	-0.101684	0.727720	-1.000000	-1.000000	-1.000000	-1.000000	-1.000000	-1.000000	-1.000000	61.000000	0.000000	-1.000000	-1.000000	347316.000000	1775765568.524186
-14088.915000	-20509.605000	27296.325000	25273.440000	35213.535000	8822.430000	11754.855000	-38583.765000	8.672025	7.213115	2.957260	1.073906	-0.839453	3.166024	16.480546	12.641740	3.296160	1.358140	-1.754900	-0.663084	-0.101684	0.727720	-1.000000	-1.000000	-1.000000	-1.000000	-1.000000	-1.000000	-1.000000	61.000000	0.000000	-1.000000	-1.000000	347317.000000	1775765568.524199
-14098.095000	-20512.890000	27294.885000	25274.070000	35217.270000	8858.970000	11761.020000	-38596.635000	4.340864	4.409107	1.072349	-0.216921	-1.716780	-4.540423	7.609463	7.107178	3.296160	1.358140	-1.754900	-0.663084	-0.101684	0.727720	-1.000000	-1.000000	-1.000000	-1.000000	-1.000000	-1.000000	-1.000000	61.000000	0.000000	-1.000000	-1.000000	347318.000000	1775765568.524211
-14108.085000	-20519.550000	27297.045000	25280.055000	35231.445000	8914.680000	11764.710000	-38606.760000	-3.287776	-0.753508	-1.710282	-1.428133	-1.444157	-5.230946	-8.433888	-3.899552	1.693860	0.488320	-1.144500	-0.661436	-0.098449	0.729429	-1.000000	-1.000000	-1.000000	-1.000000	-1.000000	-1.000000	-1.000000	61.000000	0.000000	-1.000000	-1.000000	347319.000000	1775765568.524226
-14115.240000	-20530.980000	27284.400000	25269.030000	35224.830000	8914.860000	11777.355000	-38601.900000	-10.381399	-5.978093	-3.723395	-1.490478	0.900340	4.713874	-19.852399	-14.032426	1.693860	0.488320	-1.144500	-0.661436	-0.098449	0.729429	-1.000000	-1.000000	-1.000000	-1.000000	-1.000000	-1.000000	-1.000000	61.000000	0.000000	-1.000000	-1.000000	347320.000000	1775765568.524236
-14098.995000	-20520.855000	27292.680000	25275.465000	35226.000000	8891.595000	11778.030000	-38582.730000	-12.936145	-8.989875	-4.269098	-0.785479	3.614518	16.273041	-19.741737	-16.754395	1.693860	0.488320	-1.144500	-0.661436	-0.098449	0.729429	-1.000000	-1.000000	-1.000000	-1.000000	-1.000000	-1.000000	-1.000000	61.000000	0.000000	-1.000000	-1.000000	347321.000000	1775765568.524250
-14090.040000	-20516.715000	27296.325000	25275.105000	35219.700000	8868.780000	11773.305000	-38572.110000	-8.791125	-7.932274	-3.055386	0.024201	4.213439	16.576581	-10.370403	-9.925173	1.693860	0.488320	-1.144500	-0.661436	-0.098449	0.729429	-1.000000	-1.000000	-1.000000	-1.000000	-1.000000	-1.000000	-1.000000	61.000000	0.000000	-1.000000	-1.000000	347322.000000	1775765568.524261
-14086.530000	-20505.960000	27307.890000	25283.520000	35221.950000	8838.180000	11771.595000	-38575.035000	0.304781	-2.711206	0.004583	0.954934	2.132536	2.335282	0.867983	2.153412	1.693860	0.488320	-1.144500	-0.661436	-0.098449	0.729429	-1.000000	-1.000000	-1.000000	-1.000000	-1.000000	-1.000000	-1.000000	61.000000	0.000000	-1.000000	-1.000000	347323.000000	1775765568.524275
-14077.665000	-20491.020000	27324.135000	25297.380000	35226.045000	8803.485000	11760.480000	-38576.970000	9.178074	4.350695	4.108298	2.266151	-0.920491	-18.066470	7.792936	11.611154	1.693860	0.488320	-1.144500	-0.661436	-0.098449	0.729429	-1.000000	-1.000000	-1.000000	-1.000000	-1.000000	-1.000000	-1.000000	61.000000	0.000000	-1.000000	-1.000000	347324.000000	1775765568.524285
-14088.870000	-20502.090000	27312.840000	25285.860000	35213.265000	8871.210000	11748.060000	-38587.725000	12.921345	9.649795	7.289917	3.541770	-2.954935	-30.997315	8.404706	13.018620	1.693860	0.488320	-1.144500	-0.661436	-0.098449	0.729429	-1.000000	-1.000000	-1.000000	-1.000000	-1.000000	-1.000000	-1.000000	61.000000	0.000000	-1.000000	-1.000000	347325.000000	1775765568.524300
-14109.930000	-20521.305000	27296.820000	25279.110000	35223.390000	8917.785000	11751.795000	-38599.830000	9.414479	9.578964	6.674061	3.092927	-3.397159	-24.826447	4.600391	6.570242	1.693860	0.488320	-1.144500	-0.661436	-0.098449	0.729429	-1.000000	-1.000000	-1.000000	-1.000000	-1.000000	-1.000000	-1.000000	61.000000	0.000000	-1.000000	-1.000000	347326.000000	1775765568.524310
-14121.540000	-20532.015000	27276.030000	25265.970000	35221.410000	8931.690000	11745.855000	-38598.030000	0.097378	3.000268	0.738154	-0.319157	-2.399583	-0.165065	0.409779	-3.056837	1.693860	0.488320	-1.144500	-0.661436	-0.098449	0.729429	-1.000000	-1.000000	-1.000000	-1.000000	-1.000000	-1.000000	-1.000000	61.000000	0.000000	-1.000000	-1.000000	347327.000000	1775765568.524324
-14118.795000	-20537.055000	27277.155000	25264.845000	35219.880000	8908.470000	11750.445000	-38597.355000	-9.813789	-6.467562	-7.862562	-5.267123	-0.402195	26.342676	-1.091448	-9.814289	1.693860	0.488320	-1.144500	-0.661436	-0.098449	0.729429	-1.000000	-1.000000	-1.000000	-1.000000	-1.000000	-1.000000	-1.000000	61.000000	0.000000	-1.000000	-1.000000	347328.000000	1775765568.524335
-14115.825000	-20537.415000	27280.440000	25263.585000	35212.590000	8877.420000	11753.820000	-38599.380000	-14.026224	-12.648929	-13.236455	-8.403786	1.330930	35.101663	0.477299	-10.168752	-2.777320	0.625660	0.289940	-0.664549	-0.092224	0.728331	-1.000000	-1.000000	-1.000000	-1.000000	-1.000000	-1.000000	-1.000000	61.000000	0.000000	-1.000000	-1.000000	347329.000000	1775765568.533010
-14112.675000	-20535.615000	27280.980000	25262.190000	35208.225000	8871.795000	11779.155000	-38589.795000	-9.973506	-11.670618	-11.149115	-7.315716	1.591761	20.527685	3.912251	-4.952259	-2.777320	0.625660	0.289940	-0.664549	-0.092224	0.728331	-1.000000	-1.000000	-1.000000	-1.000000	-1.000000	-1.000000	-1.000000	61.000000	0.000000	-1.000000	-1.000000	347330.000000	1775765568.533038
-14104.440000	-20526.075000	27289.530000	25271.415000	35216.325000	8882.685000	11792.610000	-38576.610000	-0.482779	-4.264341	-2.645534	-2.326031	0.653777	-5.293523	7.779619	2.587625	-2.777320	0.625660	0.289940	-0.664549	-0.092224	0.728331	-1.000000	-1.000000	-1.000000	-1.000000	-1.000000	-1.000000	-1.000000	61.000000	0.000000	-1.000000	-1.000000	347331.000000	1775765568.533069
-14113.440000	-20534.445000	27283.860000	25264.620000	35212.005000	8883.495000	11767.410000	-38593.080000	8.777044	5.285402	7.245580	4.028992	-0.005587	-24.243888	9.532830	8.707408	-2.777320	0.625660	0.289940	-0.664549	-0.092224	0.728331	-1.000000	-1.000000	-1.000000	-1.000000	-1.000000	-1.000000	-1.000000	61.000000	0.000000	-1.000000	-1.000000	347332.000000	1775765568.533082
-14103.405000	-20518.470000	27302.580000	25282.980000	35229.960000	8889.255000	11752.515000	-38594.430000	13.028603	12.000568	13.508419	8.759972	0.657493	-26.643860	5.598667	9.941264	-2.777320	0.625660	0.289940	-0.664549	-0.092224	0.728331	-1.000000	-1.000000	-1.000000	-1.000000	-1.000000	-1.000000	-1.000000	61.000000	0.000000	-1.000000	-1.000000	347333.000000	1775765568.534660
-14101.740000	-20513.520000	27308.565000	25287.885000	35231.355000	8853.840000	11754.945000	-38590.875000	11.225536	13.502990	14.303604	10.386998	2.527117	-15.882600	-3.965919	5.706412	-2.777320	0.625660	0.289940	-0.664549	-0.092224	0.728331	-1.000000	-1.000000	-1.000000	-1.000000	-1.000000	-1.000000	-1.000000	61.000000	0.000000	-1.000000	-1.000000	347334.000000	1775765568.534680
-14104.665000	-20511.630000	27312.705000	25293.735000	35232.795000	8832.780000	11754.180000	-38595.195000	5.626576	10.447452	10.650316	9.028744	4.273626	-2.727487	-13.265266	-0.683843	-2.777320	0.625660	0.289940	-0.664549	-0.092224	0.728331	-1.000000	-1.000000	-1.000000	-1.000000	-1.000000	-1.000000	-1.000000	61.000000	0.000000	-1.000000	-1.000000	347335.000000	1775765568.534703
-14117.895000	-20524.455000	27300.420000	25283.835000	35229.960000	8866.305000	11759.895000	-38606.400000	-1.139669	4.272939	4.020545	4.974858	3.981442	5.428949	-15.930707	-5.595923	-2.777320	0.625660	0.289940	-0.664549	-0.092224	0.728331	-1.000000	-1.000000	-1.000000	-1.000000	-1.000000	-1.000000	-1.000000	61.000000	0.000000	-1.000000	-1.000000	347336.000000	1775765568.534716
-14121.135000	-20533.095000	27289.755000	25275.195000	35230.635000	8900.865000	11766.240000	-38606.940000	-7.220726	-3.586086	-4.278901	-1.355311	1.043065	10.373021	-10.522421	-7.670614	-2.777320	0.625660	0.289940	-0.664549	-0.092224	0.728331	-1.000000	-1.000000	-1.000000	-1.000000	-1.000000	-1.000000	-1.000000	61.000000	0.000000	-1.000000	-1.000000	347337.000000	1775765568.534731
-14110.560000	-20527.515000	27292.545000	25274.835000	35230.680000	8889.165000	11760.705000	-38602.710000	-10.541229	-10.599547	-11.881536	-8.206421	-3.048775	15.792617	-0.728975	-6.760949	-2.777320	0.625660	0.289940	-0.664549	-0.092224	0.728331	-1.000000	-1.000000	-1.000000	-1.000000	-1.000000	-1.000000	-1.000000	61.000000	0.000000	-1.000000	-1.000000	347338.000000	1775765568.534742
-14108.715000	-20525.445000	27293.850000	25271.820000	35221.545000	8857.035000	11748.960000	-38605.680000	-9.182322	-13.347297	-15.291133	-12.467372	-6.170103	18.341492	7.465878	-3.225422	-4.211760	0.091560	1.678600	-0.666929	-0.095093	0.726194	-1.000000	-1.000000	-1.000000	-1.000000	-1.000000	-1.000000	-1.000000	61.000000	0.000000	-1.000000	-1.000000	347339.000000	1775765568.534755
-14114.115000	-20530.395000	27290.070000	25265.115000	35207.955000	8835.210000	11745.585000	-38605.140000	-3.827162	-10.386469	-12.585014	-11.989813	-7.437913	11.841033	9.819981	1.378303	-4.211760	0.091560	1.678600	-0.666929	-0.095093	0.726194	-1.000000	-1.000000	-1.000000	-1.000000	-1.000000	-1.000000	-1.000000	61.000000	0.000000	-1.000000	-1.000000	347340.000000	1775765568.534766
-14127.165000	-20542.095000	27279.900000	25256.880000	35206.740000	8850.555000	11752.695000	-38609.505000	1.801443	-4.113601	-5.650398	-7.501778	-7.064715	-2.304067	6.824932	4.812007	-4.211760	0.091560	1.678600	-0.666929	-0.095093	0.726194	-1.000000	-1.000000	-1.000000	-1.000000	-1.000000	-1.000000	-1.000000	61.000000	0.000000	-1.000000	-1.000000	347341.000000	1775765568.657462
-14120.235000	-20532.915000	27287.685000	25266.510000	35222.535000	8882.190000	11761.155000	-38603.970000	4.376324	1.695628	1.644458	-1.351673	-4.643932	-13.930322	2.577899	5.790848	-4.211760	0.091560	1.678600	-0.666929	-0.095093	0.726194	-1.000000	-1.000000	-1.000000	-1.000000	-1.000000	-1.000000	-1.000000	61.000000	0.000000	-1.000000	-1.000000	347342.000000	1775765568.657490
-14110.065000	-20522.025000	27300.915000	25278.885000	35235.630000	8881.200000	11764.710000	-38600.145000	4.166895	5.548138	7.062012	4.854445	0.683441	-14.326939	0.544060	4.757659	-4.211760	0.091560	1.678600	-0.666929	-0.095093	0.726194	-1.000000	-1.000000	-1.000000	-1.000000	-1.000000	-1.000000	-1.000000	61.000000	0.000000	-1.000000	-1.000000	347343.000000	1775765568.657665
-14112.180000	-20526.390000	27297.135000	25274.745000	35229.060000	8865.900000	11768.805000	-38599.065000	3.542826	7.836685	10.277895	9.992111	7.533443	-5.513315	0.915806	2.975932	-4.211760	0.091560	1.678600	-0.666929	-0.095093	0.726194	-1.000000	-1.000000	-1.000000	-1.000000	-1.000000	-1.000000	-1.000000	61.000000	0.000000	-1.000000	-1.000000	347344.000000	1775765568.657683
-14113.080000	-20527.425000	27296.100000	25273.980000	35223.840000	8847.720000	11768.895000	-38597.040000	3.297560	8.165362	10.633948	12.036755	11.656625	2.854950	1.695726	1.176307	-4.211760	0.091560	1.678600	-0.666929	-0.095093	0.726194	-1.000000	-1.000000	-1.000000	-1.000000	-1.000000	-1.000000	-1.000000	61.000000	0.000000	-1.000000	-1.000000	347345.000000	1775765568.657708
-14105.790000	-20516.175000	27308.475000	25286.895000	35233.020000	8827.650000	11776.545000	-38588.760000	2.608665	5.982182	7.684584	9.746529	10.041291	3.848772	1.249735	-0.382466	-4.211760	0.091560	1.678600	-0.666929	-0.095093	0.726194	-1.000000	-1.000000	-1.000000	-1.000000	-1.000000	-1.000000	-1.000000	61.000000	0.000000	-1.000000	-1.000000	347346.000000	1775765568.657721
-14099.400000	-20507.670000	27317.070000	25294.320000	35239.995000	8811.675000	11765.205000	-38587.365000	1.334001	2.555349	3.081194	4.775719	4.332975	-1.733567	-0.635655	-1.380104	-4.211760	0.091560	1.678600	-0.666929	-0.095093	0.726194	-1.000000	-1.000000	-1.000000	-1.000000	-1.000000	-1.000000	-1.000000	61.000000	0.000000	-1.000000	-1.000000	347347.000000	1775765568.657737
-14103.045000	-20512.215000	27313.470000	25293.735000	35246.565000	8853.345000	11755.035000	-38593.395000	0.008856	-0.366899	-0.939665	-0.171176	-1.354594	-7.191460	-3.574136	-1.951529	-4.211760	0.091560	1.678600	-0.666929	-0.095093	0.726194	-1.000000	-1.000000	-1.000000	-1.000000	-1.000000	-1.000000	-1.000000	61.000000	0.000000	-1.000000	-1.000000	347348.000000	1775765568.657748
-14112.765000	-20523.915000	27297.720000	25277.445000	35232.165000	8893.485000	11757.105000	-38597.580000	-1.542724	-2.801008	-4.121679	-4.233671	-4.767321	-4.750157	-6.639569	-2.830229	-1.876980	0.610400	-0.335720	-0.665831	-0.100158	0.725218	-1.000000	-1.000000	-1.000000	-1.000000	-1.000000	-1.000000	-1.000000	61.000000	0.000000	-1.000000	-1.000000	347349.000000	1775765568.657762
-14119.155000	-20531.655000	27292.320000	25272.630000	35228.970000	8900.550000	11769.210000	-38600.910000	-3.812148	-5.639154	-7.342721	-7.945326	-6.535727	6.839121	-7.605767	-4.170732	-1.876980	0.610400	-0.335720	-0.665831	-0.100158	0.725218	-1.000000	-1.000000	-1.000000	-1.000000	-1.000000	-1.000000	-1.000000	61.000000	0.000000	-1.000000	-1.000000	347350.000000	1775765568.657772
-14121.990000	-20536.560000	27287.460000	25265.700000	35218.845000	8901.945000	11784.510000	-38601.315000	-6.112417	-8.352566	-9.986982	-10.782176	-7.681645	18.948009	-4.374243	-4.988195	-1.876980	0.610400	-0.335720	-0.665831	-0.100158	0.725218	-1.000000	-1.000000	-1.000000	-1.000000	-1.000000	-1.000000	-1.000000	61.000000	0.000000	-1.000000	-1.000000	347351.000000	1775765568.657786
-14127.030000	-20537.415000	27287.280000	25265.025000	35213.535000	8871.435000	11766.915000	-38612.970000	-6.770588	-8.978239	-9.975235	-10.906288	-7.893088	20.530761	1.905789	-4.347213	-1.876980	0.610400	-0.335720	-0.665831	-0.100158	0.725218	-1.000000	-1.000000	-1.000000	-1.000000	-1.000000	-1.000000	-1.000000	61.000000	0.000000	-1.000000	-1.000000	347352.000000	1775765568.657796
-14129.775000	-20535.480000	27286.830000	25266.960000	35216.370000	8858.970000	11747.925000	-38615.310000	-4.861651	-6.122575	-6.183540	-7.187245	-6.187979	8.053390	6.331640	-2.479562	-1.876980	0.610400	-0.335720	-0.665831	-0.100158	0.725218	-1.000000	-1.000000	-1.000000	-1.000000	-1.000000	-1.000000	-1.000000	61.000000	0.000000	-1.000000	-1.000000	347353.000000	1775765568.657812
-14116.005000	-20524.365000	27300.105000	25279.920000	35231.265000	8864.460000	11759.220000	-38600.235000	-0.751620	-0.244854	0.424627	-0.333104	-1.833970	-11.295755	5.291341	0.174516	-1.876980	0.610400	-0.335720	-0.665831	-0.100158	0.725218	-1.000000	-1.000000	-1.000000	-1.000000	-1.000000	-1.000000	-1.000000	61.000000	0.000000	-1.000000	-1.000000	347354.000000	1775765568.657823
-14094.900000	-20503.890000	27319.680000	25299.720000	35253.405000	8903.205000	11780.010000	-38581.695000	4.821945	6.846583	7.818150	7.657849	4.949152	-24.363937	1.346472	4.030574	-1.876980	0.610400	-0.335720	-0.665831	-0.100158	0.725218	-1.000000	-1.000000	-1.000000	-1.000000	-1.000000	-1.000000	-1.000000	61.000000	0.000000	-1.000000	-1.000000	347355.000000	1775765568.657836
-14109.390000	-20522.880000	27302.850000	25281.675000	35238.645000	8914.095000	11780.460000	-38592.900000	10.120494	12.283464	13.240168	13.668796	11.679008	-22.157394	-0.289279	8.430611	-1.876980	0.610400	-0.335720	-0.665831	-0.100158	0.725218	-1.000000	-1.000000	-1.000000	-1.000000	-1.000000	-1.000000	-1.000000	61.000000	0.000000	-1.000000	-1.000000	347356.000000	1775765568.657847
-14123.385000	-20537.505000	27288.135000	25262.640000	35214.120000	8888.985000	11770.200000	-38609.955000	11.385858	12.231627	13.032586	13.603057	13.394571	-7.958594	1.199310	9.897394	-1.876980	0.610400	-0.335720	-0.665831	-0.100158	0.725218	-1.000000	-1.000000	-1.000000	-1.000000	-1.000000	-1.000000	-1.000000	61.000000	0.000000	-1.000000	-1.000000	347357.000000	1775765568.657861
-14123.835000	-20536.425000	27287.820000	25263.450000	35214.030000	8853.120000	11768.040000	-38608.065000	6.229817	5.344792	5.887663	6.025858	7.081531	5.369810	2.280305	5.641118	-1.876980	0.610400	-0.335720	-0.665831	-0.100158	0.725218	-1.000000	-1.000000	-1.000000	-1.000000	-1.000000	-1.000000	-1.000000	61.000000	0.000000	-1.000000	-1.000000	347358.000000	1775765568.657872
-14130.675000	-20538.945000	27286.020000	25263.225000	35216.325000	8858.070000	11776.680000	-38607.840000	-2.577932	-4.238074	-4.123261	-4.520013	-3.509359	8.227530	0.829585	-2.055787	1.342880	-0.213640	0.122080	-0.665281	-0.100708	0.724730	-1.000000	-1.000000	-1.000000	-1.000000	-1.000000	-1.000000	-1.000000	61.000000	0.000000	-1.000000	-1.000000	347359.000000	1775765568.657886
-14124.555000	-20526.795000	27298.620000	25272.360000	35220.105000	8870.940000	11774.610000	-38599.065000	-9.428270	-10.228131	-10.605082	-11.047925	-10.872227	3.127135	-1.662449	-7.754186	1.342880	-0.213640	0.122080	-0.665281	-0.100708	0.724730	-1.000000	-1.000000	-1.000000	-1.000000	-1.000000	-1.000000	-1.000000	61.000000	0.000000	-1.000000	-1.000000	347360.000000	1775765568.657897
-14117.310000	-20520.270000	27307.890000	25283.655000	35238.375000	8882.955000	11777.085000	-38591.595000	-10.447163	-9.332533	-9.948558	-9.967922	-10.529883	-0.733203	-3.057609	-7.962857	1.342880	-0.213640	0.122080	-0.665281	-0.100708	0.724730	-1.000000	-1.000000	-1.000000	-1.000000	-1.000000	-1.000000	-1.000000	61.000000	0.000000	-1.000000	-1.000000	347361.000000	1775765568.657910
-14116.410000	-20526.570000	27300.240000	25276.905000	35234.010000	8898.930000	11767.185000	-38592.855000	-5.672240	-3.239987	-3.679509	-3.148592	-3.666416	1.725473	-2.997661	-3.473883	1.342880	-0.213640	0.122080	-0.665281	-0.100708	0.724730	-1.000000	-1.000000	-1.000000	-1.000000	-1.000000	-1.000000	-1.000000	61.000000	0.000000	-1.000000	-1.000000	347362.000000	1775765568.657920
-14122.620000	-20533.050000	27292.680000	25271.100000	35226.000000	8891.730000	11768.805000	-38597.445000	1.208469	2.955147	2.842272	3.862997	4.219869	7.935143	-2.370905	1.788630	1.342880	-0.213640	0.122080	-0.665281	-0.100708	0.724730	-1.000000	-1.000000	-1.000000	-1.000000	-1.000000	-1.000000	-1.000000	61.000000	0.000000	-1.000000	-1.000000	347363.000000	1775765568.657934
-14125.635000	-20538.900000	27289.260000	25270.695000	35224.695000	8878.995000	11770.695000	-38597.535000	5.649590	5.059982	5.067052	6.407576	7.559058	11.397669	-1.638723	4.150845	1.342880	-0.213640	0.122080	-0.665281	-0.100708	0.724730	-1.000000	-1.000000	-1.000000	-1.000000	-1.000000	-1.000000	-1.000000	61.000000	0.000000	-1.000000	-1.000000	347364.000000	1775765568.657945
-14122.935000	-20534.040000	27294.705000	25276.275000	35226.990000	8878.005000	11768.130000	-38598.660000	5.758469	2.969694	2.942316	4.306032	5.254829	7.906411	-0.515200	2.931685	1.342880	-0.213640	0.122080	-0.665281	-0.100708	0.724730	-1.000000	-1.000000	-1.000000	-1.000000	-1.000000	-1.000000	-1.000000	61.000000	0.000000	-1.000000	-1.000000	347365.000000	1775765568.657959
-14123.070000	-20529.765000	27298.575000	25277.220000	35223.660000	8865.900000	11770.335000	-38603.250000	3.034384	-0.187904	-0.188654	0.690243	0.418844	-0.775176	0.958883	-0.048337	1.342880	-0.213640	0.122080	-0.665281	-0.100708	0.724730	-1.000000	-1.000000	-1.000000	-1.000000	-1.000000	-1.000000	-1.000000	61.000000	0.000000	-1.000000	-1.000000	347366.000000	1775765568.657969
-14128.650000	-20530.935000	27298.305000	25275.555000	35221.185000	8860.230000	11762.010000	-38611.395000	-0.039082	-1.529429	-1.464405	-1.721832	-3.484238	-9.342445	2.099138	-2.776447	1.342880	-0.213640	0.122080	-0.665281	-0.100708	0.724730	-1.000000	-1.000000	-1.000000	-1.000000	-1.000000	-1.000000	-1.000000	61.000000	0.000000	-1.000000	-1.000000	347367.000000	1775765568.657983
-14142.015000	-20542.995000	27283.905000	25260.570000	35211.690000	8861.805000	11752.335000	-38621.520000	-2.347802	-0.994092	-0.968426	-2.652095	-5.050544	-13.272033	2.020614	-4.327559	1.342880	-0.213640	0.122080	-0.665281	-0.100708	0.724730	-1.000000	-1.000000	-1.000000	-1.000000	-1.000000	-1.000000	-1.000000	61.000000	0.000000	-1.000000	-1.000000	347368.000000	1775765568.657995
-14147.100000	-20549.520000	27275.535000	25249.320000	35200.935000	8866.305000	11732.445000	-38627.550000	-3.983988	-0.529638	-0.757754	-3.402517	-4.796131	-10.787085	0.174800	-4.547643	0.839300	-0.335720	0.076300	-0.668211	-0.097595	0.724302	-1.000000	-1.000000	-1.000000	-1.000000	-1.000000	-1.000000	-1.000000	61.000000	0.000000	-1.000000	-1.000000	347369.000000	1775765568.658009
-14130.540000	-20533.365000	27294.120000	25270.560000	35222.625000	8888.895000	11754.180000	-38610.450000	-4.331763	-0.869613	-1.456253	-4.046670	-3.267557	-3.005959	-2.347837	-2.990132	0.839300	-0.335720	0.076300	-0.668211	-0.097595	0.724302	-1.000000	-1.000000	-1.000000	-1.000000	-1.000000	-1.000000	-1.000000	61.000000	0.000000	-1.000000	-1.000000	347370.000000	1775765568.658020
-14110.605000	-20511.900000	27315.585000	25294.095000	35247.645000	8906.175000	11781.180000	-38588.265000	-1.648084	-0.118322	-0.761088	-2.164517	0.507712	6.972846	-2.145362	1.329963	0.839300	-0.335720	0.076300	-0.668211	-0.097595	0.724302	-1.000000	-1.000000	-1.000000	-1.000000	-1.000000	-1.000000	-1.000000	61.000000	0.000000	-1.000000	-1.000000	347371.000000	1775765568.658034
-14122.530000	-20521.350000	27307.575000	25286.805000	35235.675000	8849.880000	11776.905000	-38598.390000	3.852247	2.941699	2.782196	3.301421	6.406861	13.790248	2.727142	7.566135	0.839300	-0.335720	0.076300	-0.668211	-0.097595	0.724302	-1.000000	-1.000000	-1.000000	-1.000000	-1.000000	-1.000000	-1.000000	61.000000	0.000000	-1.000000	-1.000000	347372.000000	1775765568.658045
-14125.725000	-20523.375000	27307.710000	25289.460000	35238.105000	8840.610000	11766.825000	-38604.465000	8.080407	5.694110	6.326411	8.619696	10.461060	11.317756	8.432491	11.393401	0.839300	-0.335720	0.076300	-0.668211	-0.097595	0.724302	-1.000000	-1.000000	-1.000000	-1.000000	-1.000000	-1.000000	-1.000000	61.000000	0.000000	-1.000000	-1.000000	347373.000000	1775765568.658058
-14125.905000	-20526.570000	27301.320000	25282.980000	35231.940000	8865.810000	11769.345000	-38602.170000	7.179588	4.696462	5.930138	9.015393	8.701366	0.503863	9.064976	9.038996	0.839300	-0.335720	0.076300	-0.668211	-0.097595	0.724302	-1.000000	-1.000000	-1.000000	-1.000000	-1.000000	-1.000000	-1.000000	61.000000	0.000000	-1.000000	-1.000000	347374.000000	1775765568.658069
-14132.565000	-20536.110000	27289.125000	25269.210000	35217.045000	8908.155000	11766.960000	-38604.240000	1.765728	-0.100124	1.002326	3.557854	1.525498	-8.245570	3.580802	1.787335	0.839300	-0.335720	0.076300	-0.668211	-0.097595	0.724302	-1.000000	-1.000000	-1.000000	-1.000000	-1.000000	-1.000000	-1.000000	61.000000	0.000000	-1.000000	-1.000000	347375.000000	1775765568.658081
-14130.045000	-20533.365000	27290.295000	25269.480000	35213.985000	8897.670000	11767.545000	-38599.470000	-4.458577	-5.744725	-5.638101	-4.710476	-7.270522	-6.704314	-4.024404	-5.657935	0.839300	-0.335720	0.076300	-0.668211	-0.097595	0.724302	-1.000000	-1.000000	-1.000000	-1.000000	-1.000000	-1.000000	-1.000000	61.000000	0.000000	-1.000000	-1.000000	347376.000000	1775765568.658092
-14126.715000	-20530.755000	27294.120000	25272.450000	35213.625000	8879.940000	11763.900000	-38598.615000	-7.894831	-8.709963	-9.821720	-10.873203	-12.997769	1.246971	-9.258611	-9.384913	0.839300	-0.335720	0.076300	-0.668211	-0.097595	0.724302	-1.000000	-1.000000	-1.000000	-1.000000	-1.000000	-1.000000	-1.000000	61.000000	0.000000	-1.000000	-1.000000	347377.000000	1775765568.658106
-14125.950000	-20529.585000	27292.410000	25270.695000	35214.930000	8877.195000	11757.735000	-38599.965000	-7.011293	-7.171127	-8.841874	-11.292069	-12.520754	5.669703	-10.206231	-8.487443	0.839300	-0.335720	0.076300	-0.668211	-0.097595	0.724302	-1.000000	-1.000000	-1.000000	-1.000000	-1.000000	-1.000000	-1.000000	61.000000	0.000000	-1.000000	-1.000000	347378.000000	1775765568.658116
-14130.990000	-20531.295000	27293.040000	25271.595000	35218.800000	8873.865000	11750.085000	-38609.730000	-3.113692	-2.323497	-3.581169	-6.262002	-6.237491	2.587802	-7.721460	-4.925675	-1.510740	-0.717220	0.549360	-0.668577	-0.096740	0.724546	-1.000000	-1.000000	-1.000000	-1.000000	-1.000000	-1.000000	-1.000000	61.000000	0.000000	-1.000000	-1.000000	347379.000000	1775765568.658130
-14125.140000	-20521.305000	27303.885000	25282.755000	35227.710000	8861.130000	11741.580000	-38607.300000	1.044261	2.959483	2.813768	1.034423	2.549029	-4.221060	-3.877158	-1.426241	-1.510740	-0.717220	0.549360	-0.668577	-0.096740	0.724546	-1.000000	-1.000000	-1.000000	-1.000000	-1.000000	-1.000000	-1.000000	61.000000	0.000000	-1.000000	-1.000000	347380.000000	1775765568.658140
-14115.510000	-20513.835000	27311.310000	25288.380000	35230.545000	8855.685000	11735.235000	-38597.445000	3.815199	6.613042	7.736700	7.397569	9.890682	-9.427129	-0.350964	1.012157	-1.510740	-0.717220	0.549360	-0.668577	-0.096740	0.724546	-1.000000	-1.000000	-1.000000	-1.000000	-1.000000	-1.000000	-1.000000	61.000000	0.000000	-1.000000	-1.000000	347381.000000	1775765568.658154
-14122.395000	-20523.645000	27301.050000	25277.130000	35215.785000	8848.845000	11740.455000	-38598.570000	4.994166	7.679714	9.577119	10.421821	12.582486	-10.125325	2.401680	3.026855	-1.510740	-0.717220	0.549360	-0.668577	-0.096740	0.724546	-1.000000	-1.000000	-1.000000	-1.000000	-1.000000	-1.000000	-1.000000	61.000000	0.000000	-1.000000	-1.000000	347382.000000	1775765568.658166
-14145.165000	-20551.230000	27272.610000	25252.110000	35197.290000	8864.055000	11770.335000	-38611.080000	3.932484	5.053895	6.812281	8.179963	8.943679	-5.945403	5.364576	4.402973	-1.510740	-0.717220	0.549360	-0.668577	-0.096740	0.724546	-1.000000	-1.000000	-1.000000	-1.000000	-1.000000	-1.000000	-1.000000	61.000000	0.000000	-1.000000	-1.000000	347383.000000	1775765568.658180
-14134.725000	-20536.560000	27290.160000	25272.720000	35226.495000	8914.230000	11780.190000	-38611.305000	0.194891	-1.043942	-0.160472	1.329226	1.026624	2.521826	9.529176	3.803623	-1.510740	-0.717220	0.549360	-0.668577	-0.096740	0.724546	-1.000000	-1.000000	-1.000000	-1.000000	-1.000000	-1.000000	-1.000000	61.000000	0.000000	-1.000000	-1.000000	347384.000000	1775765568.658191
-14125.455000	-20522.430000	27305.370000	25288.605000	35240.040000	8927.415000	11767.545000	-38610.045000	-3.707215	-6.469704	-6.539620	-4.968904	-4.993916	13.566858	12.880820	1.323546	-1.510740	-0.717220	0.549360	-0.668577	-0.096740	0.724546	-1.000000	-1.000000	-1.000000	-1.000000	-1.000000	-1.000000	-1.000000	61.000000	0.000000	-1.000000	-1.000000	347385.000000	1775765568.658204
-14140.530000	-20542.770000	27279.585000	25258.410000	35202.060000	8876.070000	11758.365000	-38612.790000	-4.479202	-6.878417	-7.561548	-6.164667	-5.458144	20.894142	10.993935	-1.111496	-1.510740	-0.717220	0.549360	-0.668577	-0.096740	0.724546	-1.000000	-1.000000	-1.000000	-1.000000	-1.000000	-1.000000	-1.000000	61.000000	0.000000	-1.000000	-1.000000	347386.000000	1775765568.658216
-14138.865000	-20544.165000	27280.305000	25257.555000	35201.205000	8850.870000	11765.835000	-38605.230000	-2.394049	-3.335413	-4.444735	-3.973072	-3.742143	15.831929	2.722100	-1.886735	-1.510740	-0.717220	0.549360	-0.668577	-0.096740	0.724546	-1.000000	-1.000000	-1.000000	-1.000000	-1.000000	-1.000000	-1.000000	61.000000	0.000000	-1.000000	-1.000000	347387.000000	1775765568.658229
-14126.310000	-20533.410000	27290.880000	25267.860000	35213.760000	8876.385000	11768.355000	-38594.205000	0.382577	0.476835	-0.908845	-1.969312	-3.424802	-1.189004	-7.238648	-0.580509	-1.510740	-0.717220	0.549360	-0.668577	-0.096740	0.724546	-1.000000	-1.000000	-1.000000	-1.000000	-1.000000	-1.000000	-1.000000	61.000000	0.000000	-1.000000	-1.000000	347388.000000	1775765568.658239
-14129.640000	-20536.290000	27287.145000	25263.135000	35205.705000	8865.585000	11760.480000	-38597.985000	2.912197	3.162064	1.922420	-0.371532	-3.179671	-17.803026	-13.149021	1.990623	-2.365300	-0.991900	1.571780	-0.664488	-0.099548	0.726133	-1.000000	-1.000000	-1.000000	-1.000000	-1.000000	-1.000000	-1.000000	61.000000	0.000000	-1.000000	-1.000000	347389.000000	1775765568.658252
-14134.140000	-20534.175000	27291.330000	25268.220000	35211.015000	8868.915000	11758.230000	-38603.115000	4.398990	4.641524	4.014503	1.578904	-1.213146	-22.848900	-13.229544	3.634377	-2.365300	-0.991900	1.571780	-0.664488	-0.099548	0.726133	-1.000000	-1.000000	-1.000000	-1.000000	-1.000000	-1.000000	-1.000000	61.000000	0.000000	-1.000000	-1.000000	347390.000000	1775765568.658262
-14128.740000	-20528.145000	27296.505000	25271.145000	35211.060000	8839.485000	11755.530000	-38599.245000	3.815629	4.675605	4.881535	3.420811	1.801019	-16.193237	-9.167777	2.578579	-2.365300	-0.991900	1.571780	-0.664488	-0.099548	0.726133	-1.000000	-1.000000	-1.000000	-1.000000	-1.000000	-1.000000	-1.000000	61.000000	0.000000	-1.000000	-1.000000	347391.000000	1775765568.658274
-14134.905000	-20533.545000	27295.335000	25272.045000	35211.465000	8814.420000	11747.880000	-38606.985000	1.475108	3.374239	4.337595	4.350928	4.273802	-5.544187	-3.554739	-0.577439	-2.365300	-0.991900	1.571780	-0.664488	-0.099548	0.726133	-1.000000	-1.000000	-1.000000	-1.000000	-1.000000	-1.000000	-1.000000	61.000000	0.000000	-1.000000	-1.000000	347392.000000	1775765568.658284
-14126.805000	-20522.565000	27309.060000	25288.020000	35230.545000	8840.340000	11742.030000	-38605.905000	-1.166410	1.250999	2.743483	4.091221	5.321783	2.581504	1.316817	-3.811323	-2.365300	-0.991900	1.571780	-0.664488	-0.099548	0.726133	-1.000000	-1.000000	-1.000000	-1.000000	-1.000000	-1.000000	-1.000000	61.000000	0.000000	-1.000000	-1.000000	347393.000000	1775765568.658297
-14126.850000	-20523.015000	27309.645000	25287.795000	35231.130000	8868.015000	11745.270000	-38605.815000	-2.677791	-0.804704	0.911865	3.091229	5.250672	8.558952	4.303579	-5.362721	-2.365300	-0.991900	1.571780	-0.664488	-0.099548	0.726133	-1.000000	-1.000000	-1.000000	-1.000000	-1.000000	-1.000000	-1.000000	61.000000	0.000000	-1.000000	-1.000000	347394.000000	1775765568.658307
-14136.345000	-20530.440000	27302.445000	25279.380000	35222.445000	8852.760000	11751.165000	-38611.080000	-2.722832	-2.231698	-0.810762	1.399250	4.024156	14.657387	5.856505	-4.562483	-2.365300	-0.991900	1.571780	-0.664488	-0.099548	0.726133	-1.000000	-1.000000	-1.000000	-1.000000	-1.000000	-1.000000	-1.000000	61.000000	0.000000	-1.000000	-1.000000	347395.000000	1775765568.658320
-14142.015000	-20538.405000	27292.770000	25270.695000	35220.060000	8867.610000	11750.130000	-38612.070000	-2.388258	-3.507009	-3.061691	-1.705996	0.770489	18.369059	6.789585	-2.184893	-2.365300	-0.991900	1.571780	-0.664488	-0.099548	0.726133	-1.000000	-1.000000	-1.000000	-1.000000	-1.000000	-1.000000	-1.000000	61.000000	0.000000	-1.000000	-1.000000	347396.000000	1775765568.658330
-14134.275000	-20531.700000	27296.910000	25274.205000	35228.115000	8910.810000	11737.260000	-38607.750000	-2.348008	-4.749053	-5.773175	-5.720133	-3.797481	16.754807	6.626944	0.512347	-2.365300	-0.991900	1.571780	-0.664488	-0.099548	0.726133	-1.000000	-1.000000	-1.000000	-1.000000	-1.000000	-1.000000	-1.000000	61.000000	0.000000	-1.000000	-1.000000	347397.000000	1775765568.658343
-14136.120000	-20536.200000	27291.330000	25269.120000	35220.870000	8877.285000	11737.305000	-38608.695000	-1.755022	-4.803199	-7.244283	-8.283837	-7.065900	10.730537	4.262542	2.806498	-2.365300	-0.991900	1.571780	-0.664488	-0.099548	0.726133	-1.000000	-1.000000	-1.000000	-1.000000	-1.000000	-1.000000	-1.000000	61.000000	0.000000	-1.000000	-1.000000	347398.000000	1775765568.658353
-14119.065000	-20520.855000	27307.080000	25285.725000	35233.965000	8842.860000	11765.385000	-38591.010000	0.272308	-2.670115	-5.757409	-7.255058	-7.182856	0.598901	0.769517	4.492333	-1.938020	-1.510740	2.090620	-0.661253	-0.100647	0.729734	-1.000000	-1.000000	-1.000000	-1.000000	-1.000000	-1.000000	-1.000000	61.000000	0.000000	-1.000000	-1.000000	347399.000000	1775765568.658366
-14129.820000	-20529.090000	27301.905000	25283.025000	35234.370000	8852.085000	11756.160000	-38599.965000	3.178325	1.130079	-1.314269	-2.540608	-4.212353	-13.106756	-0.958493	5.428499	-1.938020	-1.510740	2.090620	-0.661253	-0.100647	0.729734	-1.000000	-1.000000	-1.000000	-1.000000	-1.000000	-1.000000	-1.000000	61.000000	0.000000	-1.000000	-1.000000	347400.000000	1775765568.658376
-14141.205000	-20539.980000	27291.285000	25273.170000	35222.130000	8864.730000	11758.230000	-38606.760000	4.694070	4.268246	3.641378	3.211128	-0.049099	-23.846387	-0.517785	4.677589	-1.938020	-1.510740	2.090620	-0.661253	-0.100647	0.729734	-1.000000	-1.000000	-1.000000	-1.000000	-1.000000	-1.000000	-1.000000	61.000000	0.000000	-1.000000	-1.000000	347401.000000	1775765568.658389
-14146.335000	-20548.125000	27281.835000	25261.560000	35210.610000	8886.195000	11776.905000	-38603.835000	2.782467	4.209579	5.668248	6.041122	2.274359	-23.425919	0.086052	1.465547	-1.938020	-1.510740	2.090620	-0.661253	-0.100647	0.729734	-1.000000	-1.000000	-1.000000	-1.000000	-1.000000	-1.000000	-1.000000	61.000000	0.000000	-1.000000	-1.000000	347402.000000	1775765568.658399
-14147.280000	-20548.440000	27276.660000	25256.520000	35207.865000	8925.660000	11771.685000	-38602.080000	-1.524785	1.093063	3.670863	4.282474	1.345520	-10.504021	0.001375	-2.721311	-1.938020	-1.510740	2.090620	-0.661253	-0.100647	0.729734	-1.000000	-1.000000	-1.000000	-1.000000	-1.000000	-1.000000	-1.000000	61.000000	0.000000	-1.000000	-1.000000	347403.000000	1775765568.661620
-14147.595000	-20540.340000	27291.375000	25270.965000	35218.980000	8908.470000	11767.095000	-38615.985000	-4.878377	-2.055337	0.176070	0.373280	-0.802950	7.747183	-0.936193	-5.511057	-1.938020	-1.510740	2.090620	-0.661253	-0.100647	0.729734	-1.000000	-1.000000	-1.000000	-1.000000	-1.000000	-1.000000	-1.000000	61.000000	0.000000	-1.000000	-1.000000	347404.000000	1775765568.661646
-14142.555000	-20536.020000	27293.760000	25270.380000	35213.670000	8898.885000	11766.870000	-38616.120000	-4.838141	-2.281221	-1.125699	-1.594620	-1.035039	19.710041	-3.059731	-6.192224	-1.938020	-1.510740	2.090620	-0.661253	-0.100647	0.729734	-1.000000	-1.000000	-1.000000	-1.000000	-1.000000	-1.000000	-1.000000	61.000000	0.000000	-1.000000	-1.000000	347405.000000	1775765568.665670
-14141.205000	-20538.765000	27288.945000	25263.405000	35202.780000	8888.445000	11762.595000	-38609.595000	-1.522165	0.464280	0.695279	-0.321185	0.985940	17.838419	-5.524049	-4.946838	-1.938020	-1.510740	2.090620	-0.661253	-0.100647	0.729734	-1.000000	-1.000000	-1.000000	-1.000000	-1.000000	-1.000000	-1.000000	61.000000	0.000000	-1.000000	-1.000000	347406.000000	1775765568.665699
-14136.525000	-20537.775000	27289.485000	25264.980000	35202.870000	8887.230000	11764.710000	-38600.910000	2.927307	3.531068	3.106291	1.896638	2.876049	4.974584	-6.619243	-1.646053	-1.938020	-1.510740	2.090620	-0.661253	-0.100647	0.729734	-1.000000	-1.000000	-1.000000	-1.000000	-1.000000	-1.000000	-1.000000	61.000000	0.000000	-1.000000	-1.000000	347407.000000	1775765568.684593
-14138.415000	-20540.340000	27287.685000	25264.305000	35201.835000	8859.105000	11750.850000	-38602.395000	5.940862	4.401961	3.523122	2.729741	3.114778	-9.614575	-5.521338	2.950585	-1.938020	-1.510740	2.090620	-0.661253	-0.100647	0.729734	-1.000000	-1.000000	-1.000000	-1.000000	-1.000000	-1.000000	-1.000000	61.000000	0.000000	-1.000000	-1.000000	347408.000000	1775765568.684619
-14137.740000	-20537.820000	27291.060000	25267.905000	35201.745000	8838.270000	11745.630000	-38605.365000	5.987987	2.687320	1.739614	1.975481	2.269758	-18.635108	-3.050699	6.435415	-0.564620	-0.991900	3.769220	-0.661192	-0.103454	0.731382	-1.000000	-1.000000	-1.000000	-1.000000	-1.000000	-1.000000	-1.000000	61.000000	0.000000	-1.000000	-1.000000	347409.000000	1775765568.684650
-14144.985000	-20539.845000	27291.285000	25270.065000	35205.120000	8854.470000	11743.830000	-38619.315000	3.154281	-0.230251	-0.739913	0.674912	1.438594	-19.139740	-0.437010	6.362110	-0.564620	-0.991900	3.769220	-0.661192	-0.103454	0.731382	-1.000000	-1.000000	-1.000000	-1.000000	-1.000000	-1.000000	-1.000000	61.000000	0.000000	-1.000000	-1.000000	347410.000000	1775765568.684664
-14144.940000	-20530.215000	27302.400000	25280.865000	35215.110000	8894.970000	11750.760000	-38631.870000	-1.127759	-2.510737	-2.243268	-0.107448	1.311425	-10.032541	2.160579	2.244721	-0.564620	-0.991900	3.769220	-0.661192	-0.103454	0.731382	-1.000000	-1.000000	-1.000000	-1.000000	-1.000000	-1.000000	-1.000000	61.000000	0.000000	-1.000000	-1.000000	347411.000000	1775765568.684680
-14158.170000	-20535.975000	27301.095000	25282.215000	35217.225000	8899.650000	11754.090000	-38640.105000	-4.961286	-3.056568	-2.019915	0.049222	1.939972	6.637059	5.072735	-3.802542	-0.564620	-0.991900	3.769220	-0.661192	-0.103454	0.731382	-1.000000	-1.000000	-1.000000	-1.000000	-1.000000	-1.000000	-1.000000	61.000000	0.000000	-1.000000	-1.000000	347412.000000	1775765568.684692
-14148.630000	-20527.785000	27308.475000	25286.850000	35219.880000	8889.480000	11744.505000	-38625.390000	-6.794358	-2.135777	-0.688342	0.582399	2.463747	22.435740	7.493033	-7.824249	-0.564620	-0.991900	3.769220	-0.661192	-0.103454	0.731382	-1.000000	-1.000000	-1.000000	-1.000000	-1.000000	-1.000000	-1.000000	61.000000	0.000000	-1.000000	-1.000000	347413.000000	1775765568.684707
-14147.775000	-20538.405000	27295.155000	25272.180000	35204.715000	8880.480000	11738.970000	-38618.280000	-5.610501	-0.889071	0.241039	0.226243	1.469132	27.062113	7.493425	-6.406843	-0.564620	-0.991900	3.769220	-0.661192	-0.103454	0.731382	-1.000000	-1.000000	-1.000000	-1.000000	-1.000000	-1.000000	-1.000000	61.000000	0.000000	-1.000000	-1.000000	347414.000000	1775765568.684718
-14153.670000	-20551.590000	27281.385000	25260.525000	35192.610000	8873.280000	11745.720000	-38615.040000	-1.809838	-0.655438	-0.722914	-2.077878	-1.924295	17.501912	4.466745	0.099440	-0.564620	-0.991900	3.769220	-0.661192	-0.103454	0.731382	-1.000000	-1.000000	-1.000000	-1.000000	-1.000000	-1.000000	-1.000000	61.000000	0.000000	-1.000000	-1.000000	347415.000000	1775765568.685176
-14151.555000	-20545.830000	27288.000000	25265.160000	35191.935000	8852.085000	11754.360000	-38611.080000	2.336240	-1.879497	-3.475807	-5.596704	-6.598584	-0.106517	0.571793	7.344499	-0.564620	-0.991900	3.769220	-0.661192	-0.103454	0.731382	-1.000000	-1.000000	-1.000000	-1.000000	-1.000000	-1.000000	-1.000000	61.000000	0.000000	-1.000000	-1.000000	347416.000000	1775765568.685194
-14124.015000	-20518.605000	27314.055000	25287.570000	35210.880000	8866.890000	11774.160000	-38587.230000	5.187835	-2.478490	-4.974765	-7.046090	-9.025910	-15.952811	-1.240789	11.134771	-0.564620	-0.991900	3.769220	-0.661192	-0.103454	0.731382	-1.000000	-1.000000	-1.000000	-1.000000	-1.000000	-1.000000	-1.000000	61.000000	0.000000	-1.000000	-1.000000	347417.000000	1775765568.699915
-14127.390000	-20522.160000	27310.410000	25285.500000	35210.295000	8880.435000	11766.555000	-38587.725000	6.997624	0.139973	-2.138298	-3.650024	-6.166636	-21.880997	-0.287053	10.489475	-0.564620	-0.991900	3.769220	-0.661192	-0.103454	0.731382	-1.000000	-1.000000	-1.000000	-1.000000	-1.000000	-1.000000	-1.000000	61.000000	0.000000	-1.000000	-1.000000	347418.000000	1775765568.699944
-14146.875000	-20543.580000	27292.185000	25268.220000	35194.770000	8860.410000	11751.435000	-38608.065000	6.962248	4.287106	3.158410	2.504744	0.403346	-16.073004	0.726746	5.803799	0.686700	-0.274680	4.211760	-0.661070	-0.102905	0.731749	-1.000000	-1.000000	-1.000000	-1.000000	-1.000000	-1.000000	-1.000000	61.000000	0.000000	-1.000000	-1.000000	347419.000000	1775765568.699974
-14160.195000	-20555.235000	27280.980000	25259.445000	35193.060000	8870.895000	11747.385000	-38623.320000	2.831345	4.997942	5.461199	5.950957	5.493685	-4.405379	-1.334802	-2.621879	0.686700	-0.274680	4.211760	-0.661070	-0.102905	0.731749	-1.000000	-1.000000	-1.000000	-1.000000	-1.000000	-1.000000	-1.000000	61.000000	0.000000	-1.000000	-1.000000	347420.000000	1775765568.699987
-14159.430000	-20547.765000	27290.655000	25270.605000	35206.110000	8879.445000	11747.520000	-38631.870000	-4.681953	0.832007	2.703877	4.387749	6.304100	5.841635	-5.797764	-12.343345	0.686700	-0.274680	4.211760	-0.661070	-0.102905	0.731749	-1.000000	-1.000000	-1.000000	-1.000000	-1.000000	-1.000000	-1.000000	61.000000	0.000000	-1.000000	-1.000000	347421.000000	1775765568.700002
-14145.930000	-20531.835000	27306.000000	25282.035000	35212.185000	8868.420000	11751.255000	-38625.345000	-10.523216	-3.794085	-1.293148	1.054744	4.708053	11.160535	-8.754169	-18.173953	0.686700	-0.274680	4.211760	-0.661070	-0.102905	0.731749	-1.000000	-1.000000	-1.000000	-1.000000	-1.000000	-1.000000	-1.000000	61.000000	0.000000	-1.000000	-1.000000	347422.000000	1775765568.700014
-14132.925000	-20515.995000	27320.085000	25294.230000	35226.270000	8872.920000	11771.370000	-38610.090000	-9.782681	-3.776405	-1.724344	0.157725	3.528673	10.836573	-7.016812	-15.666746	0.686700	-0.274680	4.211760	-0.661070	-0.102905	0.731749	-1.000000	-1.000000	-1.000000	-1.000000	-1.000000	-1.000000	-1.000000	61.000000	0.000000	-1.000000	-1.000000	347423.000000	1775765568.713376
-14136.435000	-20518.695000	27314.910000	25287.930000	35217.765000	8853.255000	11774.610000	-38603.655000	-2.659276	1.074645	1.732039	2.083519	3.194954	5.941059	-0.656889	-5.021517	0.686700	-0.274680	4.211760	-0.661070	-0.102905	0.731749	-1.000000	-1.000000	-1.000000	-1.000000	-1.000000	-1.000000	-1.000000	61.000000	0.000000	-1.000000	-1.000000	347424.000000	1775765568.713402
-14142.330000	-20529.090000	27305.280000	25278.930000	35208.045000	8844.840000	11776.410000	-38599.425000	5.410382	5.891316	4.840639	3.528913	1.840026	-1.113658	6.671852	8.227617	0.686700	-0.274680	4.211760	-0.661070	-0.102905	0.731749	-1.000000	-1.000000	-1.000000	-1.000000	-1.000000	-1.000000	-1.000000	61.000000	0.000000	-1.000000	-1.000000	347425.000000	1775765568.713454
