Channel1	Channel2	Channel3	Channel4	Channel5	Channel6	Channel7	Channel8	FilteredChannel1	FilteredChannel2	FilteredChannel3	FilteredChannel4	FilteredChannel5	FilteredChannel6	FilteredChannel7	FilteredChannel8	GyroX	GyroY	GyroZ	AccX	AccY	AccZ	PPG1	PPG2	rawPPG1	rawPPG2	rawPPG3	Hr	Hrv	Battery	Trigger	PhysicalTrigger	AutoTrigger	NumMeasurements	Timestamp
20746.170000	-7650.135000	17276.535000	22549.410000	30466.305000	10555.245000	13339.755000	-22742.910000	0.442711	0.187954	0.176252	0.376455	1.842822	13.605488	7.832193	4.976268	-0.717220	1.037680	-0.625660	-0.730528	-0.052795	0.664915	-1.000000	-1.000000	-1.000000	-1.000000	-1.000000	-1.000000	-1.000000	62.000000	0.000000	-1.000000	-1.000000	251555.000000	1775765376.979606
20749.005000	-7644.915000	17281.485000	22552.155000	30464.235000	10512.675000	13328.370000	-22743.900000	2.198464	2.852983	2.758302	2.389311	0.602521	-1.974448	1.628600	4.812447	-0.717220	1.037680	-0.625660	-0.730528	-0.052795	0.664915	-1.000000	-1.000000	-1.000000	-1.000000	-1.000000	-1.000000	-1.000000	62.000000	0.000000	-1.000000	-1.000000	251556.000000	1775765376.979631
20750.085000	-7643.295000	17285.535000	22554.405000	30469.860000	10539.720000	13339.755000	-22743.405000	4.240660	5.321562	5.179714	4.062238	-1.140440	-23.176564	-5.355517	3.678741	-0.717220	1.037680	-0.625660	-0.730528	-0.052795	0.664915	-1.000000	-1.000000	-1.000000	-1.000000	-1.000000	-1.000000	-1.000000	62.000000	0.000000	-1.000000	-1.000000	251557.000000	1775765376.987491
20738.745000	-7652.790000	17276.085000	22545.945000	30465.765000	10595.115000	13359.600000	-22745.565000	5.001473	5.950222	5.832310	3.962279	-2.924147	-35.472895	-8.947164	1.833926	-0.717220	1.037680	-0.625660	-0.730528	-0.052795	0.664915	-1.000000	-1.000000	-1.000000	-1.000000	-1.000000	-1.000000	-1.000000	62.000000	0.000000	-1.000000	-1.000000	251558.000000	1775765376.987519
20735.595000	-7656.795000	17271.090000	22539.645000	30458.970000	10586.880000	13353.030000	-22742.505000	3.259626	3.689243	3.633260	1.488394	-4.114816	-27.776707	-6.708393	-0.196135	-0.045780	0.976640	-0.076300	-0.728758	-0.055664	0.666807	-1.000000	-1.000000	-1.000000	-1.000000	-1.000000	-1.000000	-1.000000	62.000000	0.000000	-1.000000	-1.000000	251559.000000	1775765376.987545
20747.295000	-7647.525000	17275.320000	22544.505000	30456.630000	10563.885000	13341.960000	-22735.890000	-0.146964	-0.460856	-0.675963	-2.315799	-4.617336	-6.199493	-1.343171	-1.574193	-0.045780	0.976640	-0.076300	-0.728758	-0.055664	0.666807	-1.000000	-1.000000	-1.000000	-1.000000	-1.000000	-1.000000	-1.000000	62.000000	0.000000	-1.000000	-1.000000	251560.000000	1775765376.987558
20754.045000	-7637.940000	17278.515000	22552.830000	30469.230000	10573.425000	13353.255000	-22732.245000	-2.423091	-3.499752	-4.372873	-4.815522	-3.995289	12.573023	2.268625	-1.625140	-0.045780	0.976640	-0.076300	-0.728758	-0.055664	0.666807	-1.000000	-1.000000	-1.000000	-1.000000	-1.000000	-1.000000	-1.000000	62.000000	0.000000	-1.000000	-1.000000	251561.000000	1775765376.987638
20746.890000	-7647.390000	17268.345000	22540.320000	30457.035000	10565.370000	13354.650000	-22737.915000	-2.045574	-3.515872	-5.353039	-4.280476	-1.697740	18.713493	2.667759	-0.765650	-0.045780	0.976640	-0.076300	-0.728758	-0.055664	0.666807	-1.000000	-1.000000	-1.000000	-1.000000	-1.000000	-1.000000	-1.000000	62.000000	0.000000	-1.000000	-1.000000	251562.000000	1775765376.987653
20743.380000	-7650.855000	17269.155000	22542.345000	30458.385000	10566.990000	13348.260000	-22742.325000	-0.605017	-1.882880	-4.058011	-1.877466	1.282401	13.957496	1.423426	-0.420348	-0.045780	0.976640	-0.076300	-0.728758	-0.055664	0.666807	-1.000000	-1.000000	-1.000000	-1.000000	-1.000000	-1.000000	-1.000000	62.000000	0.000000	-1.000000	-1.000000	251563.000000	1775765376.992124
20737.755000	-7659.315000	17264.475000	22538.160000	30454.695000	10586.115000	13336.695000	-22749.255000	-0.377274	-1.098191	-2.033755	0.227591	3.148812	5.403894	-0.428742	-1.483658	-0.045780	0.976640	-0.076300	-0.728758	-0.055664	0.666807	-1.000000	-1.000000	-1.000000	-1.000000	-1.000000	-1.000000	-1.000000	62.000000	0.000000	-1.000000	-1.000000	251564.000000	1775765376.992151
20742.120000	-7656.165000	17266.815000	22536.450000	30450.870000	10585.350000	13330.665000	-22748.220000	-1.563990	-1.734847	-0.145072	1.179910	3.260965	-0.465778	-2.673027	-3.235308	-0.045780	0.976640	-0.076300	-0.728758	-0.055664	0.666807	-1.000000	-1.000000	-1.000000	-1.000000	-1.000000	-1.000000	-1.000000	62.000000	0.000000	-1.000000	-1.000000	251565.000000	1775765376.997833
20746.080000	-7650.630000	17271.720000	22542.210000	30451.635000	10529.235000	13332.870000	-22751.730000	-2.471612	-2.236013	1.539108	1.371051	2.176556	-2.800633	-4.314445	-4.017476	-0.045780	0.976640	-0.076300	-0.728758	-0.055664	0.666807	-1.000000	-1.000000	-1.000000	-1.000000	-1.000000	-1.000000	-1.000000	62.000000	0.000000	-1.000000	-1.000000	251566.000000	1775765376.997859
20741.355000	-7648.920000	17276.355000	22550.580000	30465.180000	10535.445000	13343.220000	-22762.845000	-1.772096	-1.001503	3.173673	1.758509	1.187862	-5.459720	-3.583009	-3.048797	-0.045780	0.976640	-0.076300	-0.728758	-0.055664	0.666807	-1.000000	-1.000000	-1.000000	-1.000000	-1.000000	-1.000000	-1.000000	62.000000	0.000000	-1.000000	-1.000000	251567.000000	1775765376.999632
20736.720000	-7649.910000	17275.545000	22549.680000	30463.695000	10556.595000	13339.035000	-22767.480000	-0.111678	1.624305	4.391625	2.776174	1.458970	-8.457562	0.070296	-1.161734	-0.045780	0.976640	-0.076300	-0.728758	-0.055664	0.666807	-1.000000	-1.000000	-1.000000	-1.000000	-1.000000	-1.000000	-1.000000	62.000000	0.000000	-1.000000	-1.000000	251568.000000	1775765376.999654
20728.665000	-7653.195000	17272.755000	22547.970000	30456.900000	10525.995000	13331.880000	-22768.155000	0.859461	3.693295	4.229146	3.450691	2.349885	-7.389291	4.431942	0.638753	0.610400	2.487380	-0.045780	-0.729490	-0.053833	0.667052	-1.000000	-1.000000	-1.000000	-1.000000	-1.000000	-1.000000	-1.000000	62.000000	0.000000	-1.000000	-1.000000	251569.000000	1775765377.003075
20726.100000	-7653.105000	17272.935000	22549.140000	30462.570000	10554.120000	13340.520000	-22762.620000	0.431565	3.695058	2.187809	2.518103	2.059894	-1.501474	6.484721	2.371437	0.610400	2.487380	-0.045780	-0.729490	-0.053833	0.667052	-1.000000	-1.000000	-1.000000	-1.000000	-1.000000	-1.000000	-1.000000	62.000000	0.000000	-1.000000	-1.000000	251570.000000	1775765377.003104
20733.705000	-7661.745000	17261.370000	22537.305000	30455.145000	10565.235000	13333.455000	-22755.510000	-0.426109	1.691793	-1.094704	-0.107868	0.135370	6.273739	5.469185	4.428505	0.610400	2.487380	-0.045780	-0.729490	-0.053833	0.667052	-1.000000	-1.000000	-1.000000	-1.000000	-1.000000	-1.000000	-1.000000	62.000000	0.000000	-1.000000	-1.000000	251571.000000	1775765377.006375
20734.785000	-7666.380000	17254.080000	22529.160000	30445.380000	10535.625000	13312.935000	-22755.735000	-0.099140	-1.226067	-4.465367	-3.566461	-2.531786	12.331233	2.192264	6.378379	0.610400	2.487380	-0.045780	-0.729490	-0.053833	0.667052	-1.000000	-1.000000	-1.000000	-1.000000	-1.000000	-1.000000	-1.000000	62.000000	0.000000	-1.000000	-1.000000	251572.000000	1775765377.006401
20727.990000	-7668.720000	17253.495000	22526.685000	30437.910000	10501.560000	13309.830000	-22766.580000	1.542500	-3.648762	-6.622262	-6.443627	-5.018541	11.813450	-2.456437	6.615654	0.610400	2.487380	-0.045780	-0.729490	-0.053833	0.667052	-1.000000	-1.000000	-1.000000	-1.000000	-1.000000	-1.000000	-1.000000	62.000000	0.000000	-1.000000	-1.000000	251573.000000	1775765377.017893
20715.345000	-7675.335000	17249.625000	22525.830000	30443.355000	10532.925000	13323.285000	-22784.445000	2.608716	-4.380753	-6.279839	-6.980249	-6.128471	3.599812	-6.177051	3.487606	0.610400	2.487380	-0.045780	-0.729490	-0.053833	0.667052	-1.000000	-1.000000	-1.000000	-1.000000	-1.000000	-1.000000	-1.000000	62.000000	0.000000	-1.000000	-1.000000	251574.000000	1775765377.017920
20743.155000	-7642.080000	17282.070000	22558.635000	30475.890000	10553.040000	13355.595000	-22759.965000	2.009872	-2.572021	-2.669912	-3.760033	-3.964754	-5.055375	-5.299745	-2.074642	0.610400	2.487380	-0.045780	-0.729490	-0.053833	0.667052	-1.000000	-1.000000	-1.000000	-1.000000	-1.000000	-1.000000	-1.000000	62.000000	0.000000	-1.000000	-1.000000	251575.000000	1775765377.017966
20748.915000	-7632.810000	17287.695000	22562.595000	30474.225000	10532.655000	13342.365000	-22745.025000	1.512022	2.255374	3.897111	3.142933	2.173538	-6.714988	0.960079	-5.651867	0.610400	2.487380	-0.045780	-0.729490	-0.053833	0.667052	-1.000000	-1.000000	-1.000000	-1.000000	-1.000000	-1.000000	-1.000000	62.000000	0.000000	-1.000000	-1.000000	251576.000000	1775765377.017978
20737.035000	-7644.330000	17273.610000	22549.275000	30460.995000	10528.335000	13334.670000	-22742.820000	2.315764	7.971983	10.253495	10.144117	8.711043	-2.946559	7.537295	-3.973863	0.610400	2.487380	-0.045780	-0.729490	-0.053833	0.667052	-1.000000	-1.000000	-1.000000	-1.000000	-1.000000	-1.000000	-1.000000	62.000000	0.000000	-1.000000	-1.000000	251577.000000	1775765377.017996
20736.270000	-7657.200000	17266.590000	22543.605000	30459.600000	10556.955000	13346.325000	-22747.185000	2.365104	9.506977	11.201317	11.591755	9.982973	0.770685	8.541796	0.666127	0.610400	2.487380	-0.045780	-0.729490	-0.053833	0.667052	-1.000000	-1.000000	-1.000000	-1.000000	-1.000000	-1.000000	-1.000000	62.000000	0.000000	-1.000000	-1.000000	251578.000000	1775765377.018008
20735.460000	-7655.265000	17269.335000	22546.260000	30461.355000	10555.875000	13345.515000	-22749.030000	-0.061501	4.285050	5.148643	5.801783	4.714759	2.882799	3.891149	3.306597	0.244160	2.823100	-0.305200	-0.729185	-0.051575	0.666929	-1.000000	-1.000000	-1.000000	-1.000000	-1.000000	-1.000000	-1.000000	62.000000	0.000000	-1.000000	-1.000000	251579.000000	1775765377.021869
20738.205000	-7648.245000	17277.615000	22555.350000	30469.635000	10548.855000	13337.415000	-22751.640000	-3.550188	-4.089298	-3.489759	-2.783100	-2.739527	3.604883	-2.451757	1.712337	0.244160	2.823100	-0.305200	-0.729185	-0.051575	0.666929	-1.000000	-1.000000	-1.000000	-1.000000	-1.000000	-1.000000	-1.000000	62.000000	0.000000	-1.000000	-1.000000	251580.000000	1775765377.021894
20745.765000	-7642.215000	17281.305000	22556.745000	30466.395000	10517.985000	13341.645000	-22746.915000	-5.417316	-9.443706	-8.779508	-8.262742	-7.317448	1.425084	-7.244632	-2.328526	0.244160	2.823100	-0.305200	-0.729185	-0.051575	0.666929	-1.000000	-1.000000	-1.000000	-1.000000	-1.000000	-1.000000	-1.000000	62.000000	0.000000	-1.000000	-1.000000	251581.000000	1775765377.025185
20743.650000	-7644.240000	17276.670000	22549.185000	30457.845000	10507.365000	13338.270000	-22753.035000	-4.367294	-8.857017	-8.513364	-8.502291	-7.573739	-4.494109	-8.850322	-5.527778	0.244160	2.823100	-0.305200	-0.729185	-0.051575	0.666929	-1.000000	-1.000000	-1.000000	-1.000000	-1.000000	-1.000000	-1.000000	62.000000	0.000000	-1.000000	-1.000000	251582.000000	1775765377.025207
20732.760000	-7652.925000	17269.470000	22545.405000	30460.860000	10520.325000	13333.905000	-22768.515000	-1.675247	-4.384623	-4.956852	-5.613098	-5.300547	-10.802635	-7.158923	-6.334499	0.244160	2.823100	-0.305200	-0.729185	-0.051575	0.666929	-1.000000	-1.000000	-1.000000	-1.000000	-1.000000	-1.000000	-1.000000	62.000000	0.000000	-1.000000	-1.000000	251583.000000	1775765377.031174
20719.485000	-7664.490000	17259.300000	22535.730000	30454.650000	10576.125000	13328.055000	-22777.605000	-0.030043	-0.242672	-1.702946	-2.638774	-2.460869	-10.757973	-3.661453	-5.557372	0.244160	2.823100	-0.305200	-0.729185	-0.051575	0.666929	-1.000000	-1.000000	-1.000000	-1.000000	-1.000000	-1.000000	-1.000000	62.000000	0.000000	-1.000000	-1.000000	251584.000000	1775765377.031202
20727.135000	-7656.795000	17267.175000	22541.535000	30453.480000	10560.420000	13328.010000	-22764.510000	-0.494931	1.272279	-0.297692	-0.821079	0.000914	-1.190131	-0.154851	-3.797585	0.244160	2.823100	-0.305200	-0.729185	-0.051575	0.666929	-1.000000	-1.000000	-1.000000	-1.000000	-1.000000	-1.000000	-1.000000	62.000000	0.000000	-1.000000	-1.000000	251585.000000	1775765377.035492
20737.845000	-7648.020000	17274.870000	22549.050000	30455.820000	10527.390000	13327.965000	-22753.035000	-1.040967	1.435776	0.553123	0.704242	1.794190	10.812702	2.527941	-0.067775	0.244160	2.823100	-0.305200	-0.729185	-0.051575	0.666929	-1.000000	-1.000000	-1.000000	-1.000000	-1.000000	-1.000000	-1.000000	62.000000	0.000000	-1.000000	-1.000000	251586.000000	1775765377.035517
20740.230000	-7648.020000	17272.395000	22547.340000	30458.025000	10525.365000	13333.365000	-22749.615000	0.730316	2.483574	2.435031	2.987197	3.118959	14.049441	4.424085	5.711934	0.244160	2.823100	-0.305200	-0.729185	-0.051575	0.666929	-1.000000	-1.000000	-1.000000	-1.000000	-1.000000	-1.000000	-1.000000	62.000000	0.000000	-1.000000	-1.000000	251587.000000	1775765377.037113
20736.675000	-7650.495000	17269.830000	22546.755000	30460.320000	10538.055000	13331.745000	-22753.710000	4.114394	4.276573	4.613326	5.257946	4.117660	6.618244	5.607170	10.653527	0.244160	2.823100	-0.305200	-0.729185	-0.051575	0.666929	-1.000000	-1.000000	-1.000000	-1.000000	-1.000000	-1.000000	-1.000000	62.000000	0.000000	-1.000000	-1.000000	251588.000000	1775765377.037137
20738.430000	-7644.150000	17278.290000	22556.070000	30471.165000	10555.020000	13324.680000	-22754.700000	6.148154	4.994822	5.295480	5.961060	4.637550	-3.012451	5.539962	11.159529	-0.640920	3.357200	-0.763000	-0.729185	-0.050537	0.667540	-1.000000	-1.000000	-1.000000	-1.000000	-1.000000	-1.000000	-1.000000	62.000000	0.000000	-1.000000	-1.000000	251589.000000	1775765377.047473
20743.380000	-7636.365000	17287.110000	22564.485000	30476.070000	10528.245000	13318.605000	-22752.045000	5.193604	3.975739	4.294332	4.959999	4.594945	-7.293908	3.508883	6.585283	-0.640920	3.357200	-0.763000	-0.729185	-0.050537	0.667540	-1.000000	-1.000000	-1.000000	-1.000000	-1.000000	-1.000000	-1.000000	62.000000	0.000000	-1.000000	-1.000000	251590.000000	1775765377.047497
20737.755000	-7643.835000	17279.280000	22555.215000	30458.610000	10477.170000	13325.400000	-22753.800000	2.073455	1.917359	2.526582	2.966001	3.430812	-7.399240	0.099918	-0.303750	-0.640920	3.357200	-0.763000	-0.729185	-0.050537	0.667540	-1.000000	-1.000000	-1.000000	-1.000000	-1.000000	-1.000000	-1.000000	62.000000	0.000000	-1.000000	-1.000000	251591.000000	1775765377.047522
20737.980000	-7639.515000	17284.860000	22564.350000	30469.050000	10472.805000	13330.395000	-22755.960000	-1.588059	-0.628192	0.272783	0.203225	0.339638	-8.469867	-2.504667	-6.026720	-0.640920	3.357200	-0.763000	-0.729185	-0.050537	0.667540	-1.000000	-1.000000	-1.000000	-1.000000	-1.000000	-1.000000	-1.000000	62.000000	0.000000	-1.000000	-1.000000	251592.000000	1775765377.047534
20734.965000	-7643.565000	17280.585000	22562.370000	30472.830000	10530.945000	13343.670000	-22756.995000	-4.455800	-3.160658	-2.288873	-2.766587	-3.522867	-9.143386	-2.430522	-8.637571	-0.640920	3.357200	-0.763000	-0.729185	-0.050537	0.667540	-1.000000	-1.000000	-1.000000	-1.000000	-1.000000	-1.000000	-1.000000	62.000000	0.000000	-1.000000	-1.000000	251593.000000	1775765377.051105
20729.700000	-7650.135000	17272.260000	22552.110000	30464.955000	10604.295000	13350.285000	-22760.325000	-5.692318	-4.962387	-4.533578	-4.998832	-5.716217	-1.502211	0.153237	-7.992992	-0.640920	3.357200	-0.763000	-0.729185	-0.050537	0.667540	-1.000000	-1.000000	-1.000000	-1.000000	-1.000000	-1.000000	-1.000000	62.000000	0.000000	-1.000000	-1.000000	251594.000000	1775765377.051130
20718.900000	-7661.385000	17262.855000	22548.150000	30469.995000	10656.900000	13360.545000	-22767.480000	-5.360720	-5.787787	-6.069759	-6.269331	-5.500603	16.898493	3.246369	-5.253656	-0.640920	3.357200	-0.763000	-0.729185	-0.050537	0.667540	-1.000000	-1.000000	-1.000000	-1.000000	-1.000000	-1.000000	-1.000000	62.000000	0.000000	-1.000000	-1.000000	251595.000000	1775765377.053111
20720.070000	-7659.495000	17268.075000	22555.710000	30470.850000	10592.505000	13356.630000	-22766.445000	-4.042149	-5.588026	-6.396298	-6.264348	-3.612279	34.256474	4.445004	-1.989781	-0.640920	3.357200	-0.763000	-0.729185	-0.050537	0.667540	-1.000000	-1.000000	-1.000000	-1.000000	-1.000000	-1.000000	-1.000000	62.000000	0.000000	-1.000000	-1.000000	251596.000000	1775765377.053131
20727.855000	-7653.915000	17272.125000	22559.670000	30474.630000	10531.395000	13342.230000	-22761.630000	-1.732021	-3.731116	-4.480446	-4.035892	-0.877181	31.633262	2.145392	0.996485	-0.640920	3.357200	-0.763000	-0.729185	-0.050537	0.667540	-1.000000	-1.000000	-1.000000	-1.000000	-1.000000	-1.000000	-1.000000	62.000000	0.000000	-1.000000	-1.000000	251597.000000	1775765377.057176
20729.205000	-7654.590000	17267.850000	22550.355000	30466.485000	10559.835000	13330.935000	-22763.565000	1.816821	0.132706	-0.244639	0.098628	1.613713	4.027357	-3.514555	3.596464	-0.640920	3.357200	-0.763000	-0.729185	-0.050537	0.667540	-1.000000	-1.000000	-1.000000	-1.000000	-1.000000	-1.000000	-1.000000	62.000000	0.000000	-1.000000	-1.000000	251598.000000	1775765377.057202
20729.655000	-7651.215000	17269.335000	22545.540000	30466.485000	10582.110000	13332.420000	-22764.375000	5.568463	4.687627	4.339546	3.707013	2.637040	-29.422784	-9.748990	5.292940	-1.815940	2.243220	-0.946120	-0.730528	-0.048950	0.667479	-1.000000	-1.000000	-1.000000	-1.000000	-1.000000	-1.000000	-1.000000	62.000000	0.000000	-1.000000	-1.000000	251599.000000	1775765377.061152
20718.855000	-7661.385000	17261.955000	22537.170000	30455.595000	10540.260000	13337.550000	-22770.720000	7.284903	7.506735	6.791496	4.563618	1.784324	-45.154117	-12.207314	5.198322	-1.815940	2.243220	-0.946120	-0.730528	-0.048950	0.667479	-1.000000	-1.000000	-1.000000	-1.000000	-1.000000	-1.000000	-1.000000	62.000000	0.000000	-1.000000	-1.000000	251600.000000	1775765377.061172
20722.185000	-7659.450000	17266.500000	22548.555000	30468.060000	10552.680000	13345.425000	-22767.930000	5.576735	6.934442	6.160964	3.013135	0.041325	-37.743426	-8.389739	3.193530	-1.815940	2.243220	-0.946120	-0.730528	-0.048950	0.667479	-1.000000	-1.000000	-1.000000	-1.000000	-1.000000	-1.000000	-1.000000	62.000000	0.000000	-1.000000	-1.000000	251601.000000	1775765377.065816
20721.510000	-7658.820000	17266.050000	22548.870000	30468.510000	10569.870000	13339.755000	-22774.410000	1.556999	3.565993	3.504374	1.421756	-0.717211	-16.353450	-0.099627	0.339776	-1.815940	2.243220	-0.946120	-0.730528	-0.048950	0.667479	-1.000000	-1.000000	-1.000000	-1.000000	-1.000000	-1.000000	-1.000000	62.000000	0.000000	-1.000000	-1.000000	251602.000000	1775765377.065837
20723.310000	-7653.780000	17268.615000	22548.285000	30456.630000	10531.620000	13336.155000	-22778.280000	-2.135821	-0.188434	0.714474	1.319674	0.157812	7.210104	7.682488	-2.091294	-1.815940	2.243220	-0.946120	-0.730528	-0.048950	0.667479	-1.000000	-1.000000	-1.000000	-1.000000	-1.000000	-1.000000	-1.000000	62.000000	0.000000	-1.000000	-1.000000	251603.000000	1775765377.080325
20719.350000	-7654.320000	17268.255000	22547.115000	30453.345000	10526.220000	13337.415000	-22775.445000	-3.795686	-2.293054	-1.041068	1.943365	1.070171	22.303309	10.804709	-3.324316	-1.815940	2.243220	-0.946120	-0.730528	-0.048950	0.667479	-1.000000	-1.000000	-1.000000	-1.000000	-1.000000	-1.000000	-1.000000	62.000000	0.000000	-1.000000	-1.000000	251604.000000	1775765377.080349
20710.800000	-7658.640000	17265.960000	22546.755000	30455.505000	10530.630000	13336.110000	-22771.845000	-3.676928	-2.585541	-1.749242	1.854947	0.729233	24.378250	8.848881	-2.847615	-1.815940	2.243220	-0.946120	-0.730528	-0.048950	0.667479	-1.000000	-1.000000	-1.000000	-1.000000	-1.000000	-1.000000	-1.000000	62.000000	0.000000	-1.000000	-1.000000	251605.000000	1775765377.080376
20707.515000	-7663.995000	17260.920000	22543.605000	30459.060000	10517.895000	13332.375000	-22766.040000	-3.008577	-2.293847	-2.057672	0.603891	-0.030522	17.512066	4.145901	-0.682420	-1.815940	2.243220	-0.946120	-0.730528	-0.048950	0.667479	-1.000000	-1.000000	-1.000000	-1.000000	-1.000000	-1.000000	-1.000000	62.000000	0.000000	-1.000000	-1.000000	251606.000000	1775765377.080385
20721.285000	-7654.230000	17268.120000	22548.645000	30458.700000	10513.800000	13326.165000	-22757.400000	-2.093985	-2.180122	-2.303337	-1.153807	0.081627	8.263055	-0.767912	2.256773	-1.815940	2.243220	-0.946120	-0.730528	-0.048950	0.667479	-1.000000	-1.000000	-1.000000	-1.000000	-1.000000	-1.000000	-1.000000	62.000000	0.000000	-1.000000	-1.000000	251607.000000	1775765377.080396
20722.545000	-7650.090000	17272.935000	22557.195000	30469.860000	10546.650000	13328.325000	-22765.140000	-0.083153	-1.583307	-1.913982	-2.120658	1.211427	1.399457	-4.192503	4.372434	-1.815940	2.243220	-0.946120	-0.730528	-0.048950	0.667479	-1.000000	-1.000000	-1.000000	-1.000000	-1.000000	-1.000000	-1.000000	62.000000	0.000000	-1.000000	-1.000000	251608.000000	1775765377.080406
20729.295000	-7646.940000	17276.490000	22559.580000	30469.905000	10538.235000	13332.870000	-22764.870000	2.948164	0.105847	-0.383104	-1.430986	2.648726	-0.477130	-5.060580	4.027936	-1.815940	2.990960	-0.656180	-0.729612	-0.050171	0.664610	-1.000000	-1.000000	-1.000000	-1.000000	-1.000000	-1.000000	-1.000000	62.000000	0.000000	-1.000000	-1.000000	251609.000000	1775765377.081438
20732.580000	-7645.590000	17276.670000	22562.055000	30479.805000	10575.900000	13349.610000	-22759.515000	5.354932	2.057768	1.560400	0.270094	3.444050	1.718166	-2.948466	1.156553	-1.815940	2.990960	-0.656180	-0.729612	-0.050171	0.664610	-1.000000	-1.000000	-1.000000	-1.000000	-1.000000	-1.000000	-1.000000	62.000000	0.000000	-1.000000	-1.000000	251610.000000	1775765377.081465
20727.180000	-7654.590000	17265.690000	22549.455000	30467.835000	10547.910000	13347.090000	-22759.380000	5.438409	2.692269	2.312607	1.178627	2.715744	4.173832	1.204271	-2.238289	-1.815940	2.990960	-0.656180	-0.729612	-0.050171	0.664610	-1.000000	-1.000000	-1.000000	-1.000000	-1.000000	-1.000000	-1.000000	62.000000	0.000000	-1.000000	-1.000000	251611.000000	1775765377.089062
20721.645000	-7663.095000	17255.475000	22535.910000	30449.970000	10510.425000	13338.900000	-22762.710000	2.572432	1.002206	0.681248	-0.268497	-0.284597	2.042208	4.558737	-4.227667	-1.815940	2.990960	-0.656180	-0.729612	-0.050171	0.664610	-1.000000	-1.000000	-1.000000	-1.000000	-1.000000	-1.000000	-1.000000	62.000000	0.000000	-1.000000	-1.000000	251612.000000	1775765377.089089
20723.985000	-7654.770000	17265.870000	22549.275000	30466.980000	10564.155000	13343.220000	-22762.890000	-2.117910	-2.185333	-2.501889	-3.461060	-4.861172	-5.785536	4.353157	-4.481163	-1.815940	2.990960	-0.656180	-0.729612	-0.050171	0.664610	-1.000000	-1.000000	-1.000000	-1.000000	-1.000000	-1.000000	-1.000000	62.000000	0.000000	-1.000000	-1.000000	251613.000000	1775765377.095238
20718.765000	-7656.930000	17265.825000	22551.885000	30469.410000	10557.630000	13341.555000	-22766.445000	-6.079815	-4.300884	-4.364274	-5.208283	-7.658676	-12.563704	0.898589	-3.572072	-1.815940	2.990960	-0.656180	-0.729612	-0.050171	0.664610	-1.000000	-1.000000	-1.000000	-1.000000	-1.000000	-1.000000	-1.000000	62.000000	0.000000	-1.000000	-1.000000	251614.000000	1775765377.095255
20721.780000	-7652.655000	17269.695000	22550.670000	30458.160000	10518.435000	13332.285000	-22763.835000	-7.243141	-3.557113	-2.977988	-3.257369	-6.179655	-12.645863	-3.225624	-2.055268	-1.815940	2.990960	-0.656180	-0.729612	-0.050171	0.664610	-1.000000	-1.000000	-1.000000	-1.000000	-1.000000	-1.000000	-1.000000	62.000000	0.000000	-1.000000	-1.000000	251615.000000	1775765377.095277
20722.860000	-7648.560000	17274.330000	22552.740000	30451.995000	10474.155000	13338.225000	-22760.865000	-5.255221	-0.518661	0.703875	0.990940	-2.213431	-9.839702	-5.846513	-0.178726	-1.815940	2.990960	-0.656180	-0.729612	-0.050171	0.664610	-1.000000	-1.000000	-1.000000	-1.000000	-1.000000	-1.000000	-1.000000	62.000000	0.000000	-1.000000	-1.000000	251616.000000	1775765377.095288
20729.520000	-7641.990000	17281.350000	22562.460000	30463.785000	10472.940000	13338.315000	-22755.195000	-1.176435	3.009869	4.363180	4.708381	1.241286	-9.308608	-5.771665	1.925034	-1.815940	2.990960	-0.656180	-0.729612	-0.050171	0.664610	-1.000000	-1.000000	-1.000000	-1.000000	-1.000000	-1.000000	-1.000000	62.000000	0.000000	-1.000000	-1.000000	251617.000000	1775765377.097746
20733.435000	-7636.590000	17287.335000	22571.235000	30481.155000	10534.905000	13327.695000	-22755.870000	3.238222	5.372763	6.243563	6.497247	3.836638	-7.786306	-3.230665	3.749102	-1.815940	2.990960	-0.656180	-0.729612	-0.050171	0.664610	-1.000000	-1.000000	-1.000000	-1.000000	-1.000000	-1.000000	-1.000000	62.000000	0.000000	-1.000000	-1.000000	251618.000000	1775765377.097762
20710.710000	-7663.995000	17260.155000	22548.150000	30468.555000	10583.505000	13335.210000	-22771.980000	5.759593	5.097416	5.166199	5.824008	6.162562	2.429898	0.022526	4.078030	0.839300	2.823100	-0.976640	-0.732786	-0.053406	0.664732	-1.000000	-1.000000	-1.000000	-1.000000	-1.000000	-1.000000	-1.000000	62.000000	0.000000	-1.000000	-1.000000	251619.000000	1775765377.101940
20707.830000	-7670.565000	17252.685000	22543.110000	30468.915000	10586.160000	13354.695000	-22770.270000	4.437990	1.109040	0.417611	1.959879	6.794292	20.601112	2.953547	1.931980	0.839300	2.823100	-0.976640	-0.732786	-0.053406	0.664732	-1.000000	-1.000000	-1.000000	-1.000000	-1.000000	-1.000000	-1.000000	62.000000	0.000000	-1.000000	-1.000000	251620.000000	1775765377.101966
20719.395000	-7657.740000	17264.925000	22552.470000	30469.860000	10556.685000	13349.295000	-22761.675000	0.263810	-4.766766	-5.966056	-3.823628	4.244210	33.555800	5.671959	-1.397110	0.839300	2.823100	-0.976640	-0.732786	-0.053406	0.664732	-1.000000	-1.000000	-1.000000	-1.000000	-1.000000	-1.000000	-1.000000	62.000000	0.000000	-1.000000	-1.000000	251621.000000	1775765377.107833
20717.505000	-7656.570000	17265.420000	22553.055000	30467.385000	10544.490000	13344.840000	-22763.520000	-2.842449	-7.766228	-9.143494	-7.528553	-0.301731	28.249982	6.982857	-3.057424	0.839300	2.823100	-0.976640	-0.732786	-0.053406	0.664732	-1.000000	-1.000000	-1.000000	-1.000000	-1.000000	-1.000000	-1.000000	62.000000	0.000000	-1.000000	-1.000000	251622.000000	1775765377.107858
20710.035000	-7661.250000	17261.730000	22550.760000	30467.970000	10563.120000	13346.235000	-22771.035000	-2.687095	-5.431515	-6.610798	-6.616596	-4.302890	6.195457	5.083105	-2.169417	0.839300	2.823100	-0.976640	-0.732786	-0.053406	0.664732	-1.000000	-1.000000	-1.000000	-1.000000	-1.000000	-1.000000	-1.000000	62.000000	0.000000	-1.000000	-1.000000	251623.000000	1775765377.113907
20708.460000	-7661.970000	17260.020000	22549.320000	30465.315000	10559.070000	13346.505000	-22778.415000	-0.745041	-0.169983	-0.795689	-2.512693	-6.051914	-17.887244	0.570744	-0.570779	0.839300	2.823100	-0.976640	-0.732786	-0.053406	0.664732	-1.000000	-1.000000	-1.000000	-1.000000	-1.000000	-1.000000	-1.000000	62.000000	0.000000	-1.000000	-1.000000	251624.000000	1775765377.113933
20706.345000	-7666.155000	17255.970000	22543.470000	30457.035000	10545.930000	13337.010000	-22785.120000	0.809564	4.110093	4.191041	1.607317	-5.450815	-30.641169	-4.062777	-0.112504	0.839300	2.823100	-0.976640	-0.732786	-0.053406	0.664732	-1.000000	-1.000000	-1.000000	-1.000000	-1.000000	-1.000000	-1.000000	62.000000	0.000000	-1.000000	-1.000000	251625.000000	1775765377.113959
20709.585000	-7662.330000	17259.480000	22546.170000	30457.485000	10543.590000	13326.480000	-22785.255000	1.378617	5.456584	6.102669	3.647019	-3.556627	-29.260932	-7.080467	-0.748265	0.839300	2.823100	-0.976640	-0.732786	-0.053406	0.664732	-1.000000	-1.000000	-1.000000	-1.000000	-1.000000	-1.000000	-1.000000	62.000000	0.000000	-1.000000	-1.000000	251626.000000	1775765377.113971
20711.430000	-7658.235000	17265.555000	22552.380000	30463.920000	10545.885000	13324.185000	-22777.065000	1.527999	4.441663	5.374054	3.704019	-1.125341	-18.250456	-7.964698	-0.918381	0.839300	2.823100	-0.976640	-0.732786	-0.053406	0.664732	-1.000000	-1.000000	-1.000000	-1.000000	-1.000000	-1.000000	-1.000000	62.000000	0.000000	-1.000000	-1.000000	251627.000000	1775765377.119961
20711.475000	-7659.990000	17262.945000	22549.050000	30458.520000	10524.105000	13321.080000	-22768.605000	1.728141	2.642085	3.626300	3.040170	1.625447	-4.074009	-6.438369	0.793528	0.839300	2.823100	-0.976640	-0.732786	-0.053406	0.664732	-1.000000	-1.000000	-1.000000	-1.000000	-1.000000	-1.000000	-1.000000	62.000000	0.000000	-1.000000	-1.000000	251628.000000	1775765377.119988
20711.385000	-7657.965000	17264.295000	22549.545000	30456.270000	10508.670000	13313.745000	-22770.450000	1.759401	0.943730	1.751197	2.217587	3.840404	6.997237	-2.766324	3.909249	0.885080	4.181240	-2.334780	-0.733580	-0.052063	0.662047	-1.000000	-1.000000	-1.000000	-1.000000	-1.000000	-1.000000	-1.000000	62.000000	0.000000	-1.000000	-1.000000	251629.000000	1775765377.120550
20722.455000	-7640.460000	17282.925000	22568.760000	30473.910000	10526.760000	13329.540000	-22758.750000	1.393340	-0.195368	0.192285	1.395117	4.710571	11.986435	1.956090	6.239946	0.885080	4.181240	-2.334780	-0.733580	-0.052063	0.662047	-1.000000	-1.000000	-1.000000	-1.000000	-1.000000	-1.000000	-1.000000	62.000000	0.000000	-1.000000	-1.000000	251630.000000	1775765377.120571
20734.920000	-7630.920000	17293.635000	22580.640000	30485.115000	10545.840000	13342.005000	-22746.240000	1.175578	-0.047941	-0.126549	1.419615	4.928375	13.274427	6.828152	6.335029	0.885080	4.181240	-2.334780	-0.733580	-0.052063	0.662047	-1.000000	-1.000000	-1.000000	-1.000000	-1.000000	-1.000000	-1.000000	62.000000	0.000000	-1.000000	-1.000000	251631.000000	1775765377.125099
20724.345000	-7642.665000	17282.205000	22572.045000	30480.030000	10553.130000	13332.330000	-22762.890000	1.331474	0.918092	0.597700	2.228534	5.047830	14.366375	10.586235	4.130396	0.885080	4.181240	-2.334780	-0.733580	-0.052063	0.662047	-1.000000	-1.000000	-1.000000	-1.000000	-1.000000	-1.000000	-1.000000	62.000000	0.000000	-1.000000	-1.000000	251632.000000	1775765377.125121
20707.200000	-7660.080000	17262.945000	22555.620000	30471.795000	10611.630000	13348.305000	-22779.765000	0.323178	0.198951	-0.148187	1.468830	3.665391	15.843122	11.031774	-0.645250	0.885080	4.181240	-2.334780	-0.733580	-0.052063	0.662047	-1.000000	-1.000000	-1.000000	-1.000000	-1.000000	-1.000000	-1.000000	62.000000	0.000000	-1.000000	-1.000000	251633.000000	1775765377.143935
20708.280000	-7659.405000	17260.740000	22551.480000	30463.920000	10581.255000	13352.445000	-22778.595000	-3.123143	-3.626047	-4.074914	-2.638628	-0.550932	15.813670	7.567978	-7.294873	0.885080	4.181240	-2.334780	-0.733580	-0.052063	0.662047	-1.000000	-1.000000	-1.000000	-1.000000	-1.000000	-1.000000	-1.000000	62.000000	0.000000	-1.000000	-1.000000	251634.000000	1775765377.143962
20712.420000	-7652.250000	17268.480000	22558.050000	30462.885000	10503.945000	13343.625000	-22772.205000	-6.978917	-7.902784	-8.672193	-7.912739	-6.221135	9.056848	1.831876	-12.136613	0.885080	4.181240	-2.334780	-0.733580	-0.052063	0.662047	-1.000000	-1.000000	-1.000000	-1.000000	-1.000000	-1.000000	-1.000000	62.000000	0.000000	-1.000000	-1.000000	251635.000000	1775765377.143989
20718.630000	-7642.305000	17280.270000	22571.505000	30476.295000	10501.155000	13342.770000	-22760.280000	-7.549483	-8.252729	-9.220909	-9.682944	-9.712526	-8.236560	-4.459247	-11.090669	0.885080	4.181240	-2.334780	-0.733580	-0.052063	0.662047	-1.000000	-1.000000	-1.000000	-1.000000	-1.000000	-1.000000	-1.000000	62.000000	0.000000	-1.000000	-1.000000	251636.000000	1775765377.144001
20722.050000	-7640.505000	17279.955000	22571.865000	30477.825000	10524.465000	13349.520000	-22746.105000	-3.623403	-3.390647	-4.023018	-5.649347	-8.157521	-27.759562	-9.449904	-3.763802	0.885080	4.181240	-2.334780	-0.733580	-0.052063	0.662047	-1.000000	-1.000000	-1.000000	-1.000000	-1.000000	-1.000000	-1.000000	62.000000	0.000000	-1.000000	-1.000000	251637.000000	1775765377.144016
20715.255000	-7645.365000	17274.195000	22563.765000	30466.710000	10565.370000	13348.620000	-22751.190000	2.294787	3.480180	3.553647	1.453324	-2.584016	-33.288214	-10.978170	5.806883	0.885080	4.181240	-2.334780	-0.733580	-0.052063	0.662047	-1.000000	-1.000000	-1.000000	-1.000000	-1.000000	-1.000000	-1.000000	62.000000	0.000000	-1.000000	-1.000000	251638.000000	1775765377.144028
20711.655000	-7649.595000	17273.340000	22565.655000	30472.110000	10587.645000	13340.880000	-22763.340000	6.240255	7.670671	8.365973	6.557705	2.887805	-17.965143	-8.671834	11.577054	-0.412020	3.464020	-0.228900	-0.732542	-0.048218	0.662413	-1.000000	-1.000000	-1.000000	-1.000000	-1.000000	-1.000000	-1.000000	62.000000	0.000000	-1.000000	-1.000000	251639.000000	1775765377.144041
20717.910000	-7645.140000	17278.380000	22572.540000	30480.570000	10556.280000	13331.430000	-22760.190000	6.259069	7.090046	8.200282	7.255345	5.566107	7.772058	-4.644295	9.995845	-0.412020	3.464020	-0.228900	-0.732542	-0.048218	0.662413	-1.000000	-1.000000	-1.000000	-1.000000	-1.000000	-1.000000	-1.000000	62.000000	0.000000	-1.000000	-1.000000	251640.000000	1775765377.144052
20717.100000	-7649.235000	17272.035000	22564.260000	30470.760000	10528.065000	13335.210000	-22759.245000	3.652757	3.329055	4.607147	4.785340	5.636147	24.919660	-1.132053	3.123578	-0.412020	3.464020	-0.228900	-0.732542	-0.048218	0.662413	-1.000000	-1.000000	-1.000000	-1.000000	-1.000000	-1.000000	-1.000000	62.000000	0.000000	-1.000000	-1.000000	251641.000000	1775765377.157162
20699.730000	-7663.140000	17260.830000	22557.870000	30470.220000	10553.130000	13339.980000	-22776.480000	0.449252	-0.995987	0.008729	1.085366	3.801269	23.233542	1.594282	-4.078042	-0.412020	3.464020	-0.228900	-0.732542	-0.048218	0.662413	-1.000000	-1.000000	-1.000000	-1.000000	-1.000000	-1.000000	-1.000000	62.000000	0.000000	-1.000000	-1.000000	251642.000000	1775765377.157187
20698.920000	-7665.930000	17258.220000	22552.380000	30459.825000	10554.030000	13343.220000	-22780.485000	-2.618382	-4.417493	-4.041386	-2.607419	0.613099	9.252706	4.272848	-8.462301	-0.412020	3.464020	-0.228900	-0.732542	-0.048218	0.662413	-1.000000	-1.000000	-1.000000	-1.000000	-1.000000	-1.000000	-1.000000	62.000000	0.000000	-1.000000	-1.000000	251643.000000	1775765377.157213
20704.230000	-7661.880000	17259.165000	22549.500000	30457.080000	10578.645000	13347.045000	-22768.605000	-4.676461	-5.860386	-6.166568	-5.075238	-2.786664	-3.683254	6.694553	-8.895086	-0.412020	3.464020	-0.228900	-0.732542	-0.048218	0.662413	-1.000000	-1.000000	-1.000000	-1.000000	-1.000000	-1.000000	-1.000000	62.000000	0.000000	-1.000000	-1.000000	251644.000000	1775765377.157225
20705.760000	-7657.380000	17263.215000	22552.155000	30461.310000	10583.550000	13337.730000	-22760.190000	-4.167441	-4.246738	-5.190450	-5.174529	-4.752045	-8.079359	7.507869	-4.871503	-0.412020	3.464020	-0.228900	-0.732542	-0.048218	0.662413	-1.000000	-1.000000	-1.000000	-1.000000	-1.000000	-1.000000	-1.000000	62.000000	0.000000	-1.000000	-1.000000	251645.000000	1775765377.157240
20709.630000	-7650.090000	17270.595000	22557.060000	30456.450000	10500.705000	13329.180000	-22759.515000	-0.951727	0.122146	-1.293722	-2.587402	-4.066308	-6.673769	5.382110	2.154498	-0.412020	3.464020	-0.228900	-0.732542	-0.048218	0.662413	-1.000000	-1.000000	-1.000000	-1.000000	-1.000000	-1.000000	-1.000000	62.000000	0.000000	-1.000000	-1.000000	251646.000000	1775765377.157251
20719.845000	-7641.585000	17277.210000	22562.910000	30452.445000	10465.830000	13329.000000	-22759.650000	3.218515	5.207112	3.756030	1.734788	-1.293071	-8.258260	0.669194	8.275513	-0.412020	3.464020	-0.228900	-0.732542	-0.048218	0.662413	-1.000000	-1.000000	-1.000000	-1.000000	-1.000000	-1.000000	-1.000000	62.000000	0.000000	-1.000000	-1.000000	251647.000000	1775765377.157797
20727.945000	-7635.735000	17279.730000	22573.395000	30467.925000	10483.245000	13344.210000	-22755.015000	6.383228	8.531218	7.484386	5.936264	1.916133	-14.887005	-3.781672	10.064087	-0.412020	3.464020	-0.228900	-0.732542	-0.048218	0.662413	-1.000000	-1.000000	-1.000000	-1.000000	-1.000000	-1.000000	-1.000000	62.000000	0.000000	-1.000000	-1.000000	251648.000000	1775765377.157815
20707.380000	-7647.120000	17272.035000	22570.065000	30477.015000	10555.110000	13346.100000	-22765.455000	6.840584	8.219798	7.790902	8.088492	4.797127	-16.097895	-4.748871	7.011873	-3.311420	1.754900	-0.228900	-0.736753	-0.048950	0.661436	-1.000000	-1.000000	-1.000000	-1.000000	-1.000000	-1.000000	-1.000000	62.000000	0.000000	-1.000000	-1.000000	251649.000000	1775765377.161215
20685.375000	-7663.725000	17260.515000	22561.155000	30477.195000	10610.010000	13358.205000	-22781.790000	2.946213	3.455894	3.917628	6.686806	6.869062	-1.517066	-1.863401	0.698264	-3.311420	1.754900	-0.228900	-0.736753	-0.048950	0.661436	-1.000000	-1.000000	-1.000000	-1.000000	-1.000000	-1.000000	-1.000000	62.000000	0.000000	-1.000000	-1.000000	251650.000000	1775765377.161236
20697.210000	-7660.215000	17264.205000	22564.800000	30473.280000	10558.440000	13339.080000	-22774.545000	-4.383233	-4.231486	-2.542540	1.749474	6.661197	22.958483	1.935245	-6.186721	-3.311420	1.754900	-0.228900	-0.736753	-0.048950	0.661436	-1.000000	-1.000000	-1.000000	-1.000000	-1.000000	-1.000000	-1.000000	62.000000	0.000000	-1.000000	-1.000000	251651.000000	1775765377.166922
20701.080000	-7661.700000	17260.695000	22558.995000	30463.110000	10533.645000	13341.915000	-22768.965000	-10.040281	-10.515329	-7.911977	-4.274216	3.008182	36.858653	2.997298	-9.884287	-3.311420	1.754900	-0.228900	-0.736753	-0.048950	0.661436	-1.000000	-1.000000	-1.000000	-1.000000	-1.000000	-1.000000	-1.000000	62.000000	0.000000	-1.000000	-1.000000	251652.000000	1775765377.166946
20699.685000	-7662.015000	17258.760000	22555.080000	30460.005000	10544.130000	13343.040000	-22770.450000	-9.450101	-11.476340	-9.200135	-8.291494	-3.104051	27.017428	0.547996	-8.013431	-3.311420	1.754900	-0.228900	-0.736753	-0.048950	0.661436	-1.000000	-1.000000	-1.000000	-1.000000	-1.000000	-1.000000	-1.000000	62.000000	0.000000	-1.000000	-1.000000	251653.000000	1775765377.169725
20698.695000	-7658.955000	17260.920000	22557.240000	30460.860000	10561.275000	13344.030000	-22767.660000	-3.471005	-6.903733	-6.280381	-8.772879	-8.561254	1.986161	-2.761988	-2.141864	-3.311420	1.754900	-0.228900	-0.736753	-0.048950	0.661436	-1.000000	-1.000000	-1.000000	-1.000000	-1.000000	-1.000000	-1.000000	62.000000	0.000000	-1.000000	-1.000000	251654.000000	1775765377.169745
20705.985000	-7652.565000	17265.555000	22561.470000	30465.540000	10562.895000	13349.430000	-22762.260000	3.540282	0.386180	-1.045053	-5.806112	-10.103054	-19.496632	-4.099000	3.954486	-3.311420	1.754900	-0.228900	-0.736753	-0.048950	0.661436	-1.000000	-1.000000	-1.000000	-1.000000	-1.000000	-1.000000	-1.000000	62.000000	0.000000	-1.000000	-1.000000	251655.000000	1775765377.174316
20706.345000	-7652.250000	17267.580000	22563.945000	30467.430000	10551.060000	13349.475000	-22764.195000	8.051567	6.895900	4.159279	-0.692292	-6.773228	-26.838588	-2.759944	7.398406	-3.311420	1.754900	-0.228900	-0.736753	-0.048950	0.661436	-1.000000	-1.000000	-1.000000	-1.000000	-1.000000	-1.000000	-1.000000	62.000000	0.000000	-1.000000	-1.000000	251656.000000	1775765377.174343
20704.590000	-7655.085000	17264.655000	22562.685000	30463.830000	10538.370000	13347.810000	-22763.745000	8.679761	9.875579	7.233172	4.271907	-0.705203	-22.039775	-0.074086	7.152849	-3.311420	1.754900	-0.228900	-0.736753	-0.048950	0.661436	-1.000000	-1.000000	-1.000000	-1.000000	-1.000000	-1.000000	-1.000000	62.000000	0.000000	-1.000000	-1.000000	251657.000000	1775765377.177025
20703.420000	-7659.630000	17257.905000	22556.970000	30457.665000	10517.805000	13344.120000	-22763.790000	5.731050	8.254936	6.874946	6.728591	4.420271	-12.688504	1.894896	3.917984	-3.311420	1.754900	-0.228900	-0.736753	-0.048950	0.661436	-1.000000	-1.000000	-1.000000	-1.000000	-1.000000	-1.000000	-1.000000	62.000000	0.000000	-1.000000	-1.000000	251658.000000	1775765377.177044
20704.185000	-7658.820000	17260.290000	22559.535000	30460.275000	10515.735000	13339.035000	-22764.060000	0.916782	3.262033	3.433829	5.746252	6.145390	-4.474065	1.946857	-0.368064	-1.724380	1.800680	-1.266580	-0.736082	-0.053161	0.660338	-1.000000	-1.000000	-1.000000	-1.000000	-1.000000	-1.000000	-1.000000	62.000000	0.000000	-1.000000	-1.000000	251659.000000	1775765377.181118
20703.060000	-7657.425000	17263.395000	22563.810000	30468.015000	10546.380000	13342.005000	-22768.470000	-3.419108	-2.167761	-0.848552	2.637727	4.952103	2.036604	0.501749	-3.785545	-1.724380	1.800680	-1.266580	-0.736082	-0.053161	0.660338	-1.000000	-1.000000	-1.000000	-1.000000	-1.000000	-1.000000	-1.000000	62.000000	0.000000	-1.000000	-1.000000	251660.000000	1775765377.181134
20700.405000	-7655.760000	17267.085000	22567.725000	30472.110000	10554.120000	13337.910000	-22780.755000	-5.670265	-5.290751	-3.375357	-0.192145	3.089697	9.163394	-0.954288	-5.582814	-1.724380	1.800680	-1.266580	-0.736082	-0.053161	0.660338	-1.000000	-1.000000	-1.000000	-1.000000	-1.000000	-1.000000	-1.000000	62.000000	0.000000	-1.000000	-1.000000	251661.000000	1775765377.185157
20696.355000	-7654.860000	17268.255000	22567.365000	30471.030000	10557.495000	13328.865000	-22787.415000	-5.660895	-5.216466	-3.222287	-1.392636	1.900451	16.380076	-1.486256	-6.073478	-1.724380	1.800680	-1.266580	-0.736082	-0.053161	0.660338	-1.000000	-1.000000	-1.000000	-1.000000	-1.000000	-1.000000	-1.000000	62.000000	0.000000	-1.000000	-1.000000	251662.000000	1775765377.185179
20694.645000	-7651.530000	17271.360000	22569.480000	30472.380000	10559.430000	13326.570000	-22782.555000	-4.156998	-2.909579	-1.394315	-1.327883	0.993253	19.357079	-1.370411	-5.294030	-1.724380	1.800680	-1.266580	-0.736082	-0.053161	0.660338	-1.000000	-1.000000	-1.000000	-1.000000	-1.000000	-1.000000	-1.000000	62.000000	0.000000	-1.000000	-1.000000	251663.000000	1775765377.189046
20694.735000	-7650.360000	17272.710000	22570.380000	30470.310000	10551.105000	13333.500000	-22773.645000	-1.969857	-0.041355	0.483538	-0.971814	-0.363055	14.933118	-0.786368	-2.465417	-1.724380	1.800680	-1.266580	-0.736082	-0.053161	0.660338	-1.000000	-1.000000	-1.000000	-1.000000	-1.000000	-1.000000	-1.000000	62.000000	0.000000	-1.000000	-1.000000	251664.000000	1775765377.189064
20688.615000	-7666.650000	17256.330000	22559.490000	30462.480000	10550.655000	13352.085000	-22766.490000	0.273921	1.675636	1.023765	-1.074991	-2.257745	4.392156	1.021725	2.497737	-1.724380	1.800680	-1.266580	-0.736082	-0.053161	0.660338	-1.000000	-1.000000	-1.000000	-1.000000	-1.000000	-1.000000	-1.000000	62.000000	0.000000	-1.000000	-1.000000	251665.000000	1775765377.193072
20689.065000	-7673.355000	17249.490000	22557.285000	30461.805000	10544.850000	13346.235000	-22766.265000	1.944811	0.951508	-0.595098	-2.025327	-4.192307	-7.440389	4.171044	7.617471	-1.724380	1.800680	-1.266580	-0.736082	-0.053161	0.660338	-1.000000	-1.000000	-1.000000	-1.000000	-1.000000	-1.000000	-1.000000	62.000000	0.000000	-1.000000	-1.000000	251666.000000	1775765377.193095
20693.070000	-7664.940000	17258.265000	22564.530000	30468.195000	10541.655000	13332.150000	-22771.080000	2.827635	-1.480420	-3.318400	-3.116994	-5.021257	-15.369125	6.248871	9.792529	-1.724380	1.800680	-1.266580	-0.736082	-0.053161	0.660338	-1.000000	-1.000000	-1.000000	-1.000000	-1.000000	-1.000000	-1.000000	62.000000	0.000000	-1.000000	-1.000000	251667.000000	1775765377.197032
20687.805000	-7667.010000	17254.035000	22554.180000	30463.020000	10534.950000	13325.220000	-22779.585000	3.167960	-2.842728	-4.370454	-2.930887	-3.713606	-16.819010	4.253317	7.187498	-1.724380	1.800680	-1.266580	-0.736082	-0.053161	0.660338	-1.000000	-1.000000	-1.000000	-1.000000	-1.000000	-1.000000	-1.000000	62.000000	0.000000	-1.000000	-1.000000	251668.000000	1775765377.197051
20691.720000	-7658.865000	17263.215000	22558.725000	30466.755000	10520.145000	13333.230000	-22774.815000	2.975029	-1.362778	-2.249452	-1.253125	-0.762817	-12.712374	-1.175423	0.995012	0.824040	2.014320	-0.869820	-0.733946	-0.055115	0.660032	-1.000000	-1.000000	-1.000000	-1.000000	-1.000000	-1.000000	-1.000000	62.000000	0.000000	-1.000000	-1.000000	251669.000000	1775765377.201138
20700.315000	-7648.335000	17276.670000	22576.095000	30477.060000	10520.820000	13340.430000	-22768.155000	2.355739	2.241073	2.127987	1.291101	2.425253	-6.006156	-5.697055	-4.960461	0.824040	2.014320	-0.869820	-0.733946	-0.055115	0.660032	-1.000000	-1.000000	-1.000000	-1.000000	-1.000000	-1.000000	-1.000000	62.000000	0.000000	-1.000000	-1.000000	251670.000000	1775765377.201154
20705.085000	-7646.535000	17277.885000	22577.130000	30478.320000	10543.230000	13340.205000	-22763.565000	1.891617	5.905458	6.639346	4.340536	4.882288	1.256154	-5.915655	-7.126529	0.824040	2.014320	-0.869820	-0.733946	-0.055115	0.660032	-1.000000	-1.000000	-1.000000	-1.000000	-1.000000	-1.000000	-1.000000	62.000000	0.000000	-1.000000	-1.000000	251671.000000	1775765377.204927
20690.325000	-7666.200000	17255.835000	22554.720000	30460.185000	10586.430000	13339.485000	-22771.845000	1.385451	6.948554	8.288293	6.212418	5.439130	9.251879	-2.556514	-5.239640	0.824040	2.014320	-0.869820	-0.733946	-0.055115	0.660032	-1.000000	-1.000000	-1.000000	-1.000000	-1.000000	-1.000000	-1.000000	62.000000	0.000000	-1.000000	-1.000000	251672.000000	1775765377.204942
20686.320000	-7672.545000	17248.410000	22548.015000	30454.425000	10559.700000	13346.550000	-22770.765000	-0.425712	3.423593	4.659511	4.183346	2.772482	16.877051	1.314081	-1.990538	0.824040	2.014320	-0.869820	-0.733946	-0.055115	0.660032	-1.000000	-1.000000	-1.000000	-1.000000	-1.000000	-1.000000	-1.000000	62.000000	0.000000	-1.000000	-1.000000	251673.000000	1775765377.209086
20688.705000	-7664.490000	17258.895000	22558.635000	30456.450000	10484.010000	13350.960000	-22769.145000	-3.533345	-3.073398	-2.586141	-1.256653	-2.159730	17.512368	3.608855	0.210457	0.824040	2.014320	-0.869820	-0.733946	-0.055115	0.660032	-1.000000	-1.000000	-1.000000	-1.000000	-1.000000	-1.000000	-1.000000	62.000000	0.000000	-1.000000	-1.000000	251674.000000	1775765377.209105
20692.215000	-7658.190000	17264.835000	22564.485000	30464.235000	10515.870000	13347.045000	-22769.640000	-5.681269	-7.688619	-7.932643	-5.557972	-5.724801	5.887607	3.835582	1.017525	0.824040	2.014320	-0.869820	-0.733946	-0.055115	0.660032	-1.000000	-1.000000	-1.000000	-1.000000	-1.000000	-1.000000	-1.000000	62.000000	0.000000	-1.000000	-1.000000	251675.000000	1775765377.213036
20690.685000	-7658.370000	17264.205000	22563.675000	30466.260000	10545.930000	13329.180000	-22779.090000	-4.931398	-7.088046	-7.567957	-5.263982	-5.071437	-10.101302	1.819337	0.913789	0.824040	2.014320	-0.869820	-0.733946	-0.055115	0.660032	-1.000000	-1.000000	-1.000000	-1.000000	-1.000000	-1.000000	-1.000000	62.000000	0.000000	-1.000000	-1.000000	251676.000000	1775765377.213052
20681.325000	-7667.460000	17256.330000	22558.455000	30465.360000	10565.775000	13334.670000	-22787.910000	-1.974192	-2.668558	-2.973986	-1.567017	-0.942776	-15.961759	-2.040293	-0.022091	0.824040	2.014320	-0.869820	-0.733946	-0.055115	0.660032	-1.000000	-1.000000	-1.000000	-1.000000	-1.000000	-1.000000	-1.000000	62.000000	0.000000	-1.000000	-1.000000	251677.000000	1775765377.217855
20685.870000	-7661.745000	17261.055000	22561.875000	30462.885000	10546.920000	13330.530000	-22783.590000	0.930752	1.695024	1.682449	1.994018	3.337181	-8.293016	-5.534077	-1.390166	0.824040	2.014320	-0.869820	-0.733946	-0.055115	0.660032	-1.000000	-1.000000	-1.000000	-1.000000	-1.000000	-1.000000	-1.000000	62.000000	0.000000	-1.000000	-1.000000	251678.000000	1775765377.217878
20687.805000	-7662.105000	17259.795000	22559.985000	30462.930000	10550.880000	13341.420000	-22778.865000	2.594205	3.748871	3.893799	3.322979	4.987137	3.293224	-5.940782	-1.732126	1.571780	0.976640	-0.381500	-0.734800	-0.054260	0.661925	-1.000000	-1.000000	-1.000000	-1.000000	-1.000000	-1.000000	-1.000000	62.000000	0.000000	-1.000000	-1.000000	251679.000000	1775765377.221066
20693.790000	-7659.855000	17261.100000	22559.805000	30458.025000	10533.330000	13328.370000	-22772.565000	3.396375	3.717733	3.745353	2.553858	3.572595	8.633946	-2.827328	0.112093	1.571780	0.976640	-0.381500	-0.734800	-0.054260	0.661925	-1.000000	-1.000000	-1.000000	-1.000000	-1.000000	-1.000000	-1.000000	62.000000	0.000000	-1.000000	-1.000000	251680.000000	1775765377.221083
20684.970000	-7664.355000	17261.640000	22564.980000	30467.160000	10518.705000	13320.315000	-22779.855000	3.622717	2.526602	2.353626	0.896385	0.651749	5.104753	1.241611	3.202895	1.571780	0.976640	-0.381500	-0.734800	-0.054260	0.661925	-1.000000	-1.000000	-1.000000	-1.000000	-1.000000	-1.000000	-1.000000	62.000000	0.000000	-1.000000	-1.000000	251681.000000	1775765377.225105
20669.535000	-7680.105000	17244.810000	22548.825000	30453.300000	10504.080000	13322.385000	-22795.290000	2.470277	0.518330	0.459096	-0.641578	-1.800749	-3.480388	3.374351	4.761309	1.571780	0.976640	-0.381500	-0.734800	-0.054260	0.661925	-1.000000	-1.000000	-1.000000	-1.000000	-1.000000	-1.000000	-1.000000	62.000000	0.000000	-1.000000	-1.000000	251682.000000	1775765377.225118
20652.885000	-7695.090000	17228.700000	22532.670000	30437.370000	10517.445000	13329.180000	-22812.345000	-0.880618	-2.433033	-2.105740	-2.309906	-3.353302	-10.536508	3.433009	2.556006	1.571780	0.976640	-0.381500	-0.734800	-0.054260	0.661925	-1.000000	-1.000000	-1.000000	-1.000000	-1.000000	-1.000000	-1.000000	62.000000	0.000000	-1.000000	-1.000000	251683.000000	1775765377.228975
20658.915000	-7681.815000	17243.640000	22550.085000	30458.205000	10562.220000	13347.045000	-22804.560000	-5.127274	-5.266318	-4.760243	-4.106862	-4.250266	-9.845566	3.455934	-2.351424	1.571780	0.976640	-0.381500	-0.734800	-0.054260	0.661925	-1.000000	-1.000000	-1.000000	-1.000000	-1.000000	-1.000000	-1.000000	62.000000	0.000000	-1.000000	-1.000000	251684.000000	1775765377.228987
20677.230000	-7665.210000	17259.435000	22567.635000	30476.610000	10566.270000	13374.090000	-22778.370000	-6.554185	-5.004381	-4.719937	-3.682978	-2.887716	0.165918	5.119272	-5.345784	1.571780	0.976640	-0.381500	-0.734800	-0.054260	0.661925	-1.000000	-1.000000	-1.000000	-1.000000	-1.000000	-1.000000	-1.000000	62.000000	0.000000	-1.000000	-1.000000	251685.000000	1775765377.233045
20686.635000	-7662.240000	17261.280000	22567.140000	30470.940000	10537.065000	13365.450000	-22767.210000	-2.428911	-0.033891	-0.193831	0.681659	1.758237	12.523299	7.657034	-2.426245	1.571780	0.976640	-0.381500	-0.734800	-0.054260	0.661925	-1.000000	-1.000000	-1.000000	-1.000000	-1.000000	-1.000000	-1.000000	62.000000	0.000000	-1.000000	-1.000000	251686.000000	1775765377.233058
20683.935000	-7666.605000	17257.590000	22565.160000	30471.570000	10558.305000	13352.400000	-22771.530000	5.163215	6.625280	6.022403	6.252339	6.606695	16.911868	7.350325	4.696010	1.571780	0.976640	-0.381500	-0.734800	-0.054260	0.661925	-1.000000	-1.000000	-1.000000	-1.000000	-1.000000	-1.000000	-1.000000	62.000000	0.000000	-1.000000	-1.000000	251687.000000	1775765377.239559
20669.580000	-7677.855000	17245.980000	22552.695000	30458.835000	10568.745000	13335.480000	-22789.665000	10.305189	9.603514	8.792273	8.180766	7.301605	11.017414	1.113018	9.385670	1.571780	0.976640	-0.381500	-0.734800	-0.054260	0.661925	-1.000000	-1.000000	-1.000000	-1.000000	-1.000000	-1.000000	-1.000000	62.000000	0.000000	-1.000000	-1.000000	251688.000000	1775765377.239582
20671.920000	-7676.955000	17247.330000	22553.145000	30452.400000	10535.310000	13334.985000	-22790.070000	8.749475	6.402100	5.753832	4.531029	2.742695	0.452951	-9.001140	6.787204	1.220800	1.510740	0.000000	-0.733885	-0.052612	0.662962	-1.000000	-1.000000	-1.000000	-1.000000	-1.000000	-1.000000	-1.000000	62.000000	0.000000	-1.000000	-1.000000	251689.000000	1775765377.249221
20681.190000	-7667.055000	17257.995000	22564.170000	30465.360000	10552.230000	13341.735000	-22779.180000	2.079738	-0.289753	-0.479306	-1.850616	-3.936584	-9.426364	-16.512381	-1.072715	1.220800	1.510740	0.000000	-0.733885	-0.052612	0.662962	-1.000000	-1.000000	-1.000000	-1.000000	-1.000000	-1.000000	-1.000000	62.000000	0.000000	-1.000000	-1.000000	251690.000000	1775765377.249243
20694.195000	-7652.070000	17271.765000	22575.960000	30477.555000	10566.855000	13353.075000	-22766.130000	-4.123431	-5.157613	-4.828524	-5.893698	-7.582752	-14.570638	-15.843737	-7.515335	1.220800	1.510740	0.000000	-0.733885	-0.052612	0.662962	-1.000000	-1.000000	-1.000000	-1.000000	-1.000000	-1.000000	-1.000000	62.000000	0.000000	-1.000000	-1.000000	251691.000000	1775765377.249296
20690.145000	-7654.770000	17269.650000	22574.565000	30470.040000	10492.470000	13345.425000	-22770.315000	-5.989198	-5.232097	-4.603986	-5.082548	-5.700384	-13.549946	-7.139742	-8.124958	1.220800	1.510740	0.000000	-0.733885	-0.052612	0.662962	-1.000000	-1.000000	-1.000000	-1.000000	-1.000000	-1.000000	-1.000000	62.000000	0.000000	-1.000000	-1.000000	251692.000000	1775765377.249316
20680.470000	-7661.520000	17263.755000	22570.560000	30469.230000	10523.250000	13341.960000	-22780.080000	-4.496145	-2.339641	-1.726425	-1.502734	-0.900352	-9.998020	3.795958	-4.458941	1.220800	1.510740	0.000000	-0.733885	-0.052612	0.662962	-1.000000	-1.000000	-1.000000	-1.000000	-1.000000	-1.000000	-1.000000	62.000000	0.000000	-1.000000	-1.000000	251693.000000	1775765377.250839
20673.360000	-7668.675000	17256.555000	22563.945000	30468.510000	10561.005000	13335.885000	-22784.445000	-3.084992	-0.444161	-0.014411	0.946916	2.575873	-5.192351	10.549799	-1.012630	1.220800	1.510740	0.000000	-0.733885	-0.052612	0.662962	-1.000000	-1.000000	-1.000000	-1.000000	-1.000000	-1.000000	-1.000000	62.000000	0.000000	-1.000000	-1.000000	251694.000000	1775765377.250855
20678.130000	-7665.705000	17257.905000	22564.665000	30467.430000	10547.550000	13341.015000	-22780.440000	-3.235332	-1.207771	-1.021410	0.488163	3.029739	3.560225	10.922801	-0.008387	1.220800	1.510740	0.000000	-0.733885	-0.052612	0.662962	-1.000000	-1.000000	-1.000000	-1.000000	-1.000000	-1.000000	-1.000000	62.000000	0.000000	-1.000000	-1.000000	251695.000000	1775765377.253069
20690.055000	-7653.780000	17270.460000	22576.725000	30471.345000	10533.960000	13340.160000	-22771.845000	-3.229253	-2.721401	-2.845891	-1.326902	1.495944	13.283351	7.137862	-0.084395	1.220800	1.510740	0.000000	-0.733885	-0.052612	0.662962	-1.000000	-1.000000	-1.000000	-1.000000	-1.000000	-1.000000	-1.000000	62.000000	0.000000	-1.000000	-1.000000	251696.000000	1775765377.253085
20688.435000	-7657.965000	17264.070000	22570.785000	30462.840000	10530.495000	13333.320000	-22773.600000	-1.064461	-2.344605	-2.790782	-1.881414	-0.282898	16.503759	2.497307	0.781933	1.220800	1.510740	0.000000	-0.733885	-0.052612	0.662962	-1.000000	-1.000000	-1.000000	-1.000000	-1.000000	-1.000000	-1.000000	62.000000	0.000000	-1.000000	-1.000000	251697.000000	1775765377.257708
20687.085000	-7657.335000	17264.160000	22568.355000	30458.160000	10531.980000	13323.960000	-22784.400000	2.500282	-0.013353	-0.684101	-0.704758	-1.528400	11.113369	-1.337908	2.326832	1.220800	1.510740	0.000000	-0.733885	-0.052612	0.662962	-1.000000	-1.000000	-1.000000	-1.000000	-1.000000	-1.000000	-1.000000	62.000000	0.000000	-1.000000	-1.000000	251698.000000	1775765377.257730
20680.245000	-7658.865000	17266.905000	22576.230000	30474.135000	10550.295000	13331.745000	-22792.365000	4.731015	2.219164	1.594707	0.802882	-1.922487	2.152310	-3.828977	2.542279	-1.159760	2.197440	1.022420	-0.734800	-0.052307	0.663145	-1.000000	-1.000000	-1.000000	-1.000000	-1.000000	-1.000000	-1.000000	62.000000	0.000000	-1.000000	-1.000000	251699.000000	1775765377.261065
20671.920000	-7668.630000	17258.085000	22568.985000	30473.055000	10546.875000	13343.670000	-22792.995000	3.848908	2.685127	2.608017	1.706721	-0.716246	-4.080931	-3.975163	0.677913	-1.159760	2.197440	1.022420	-0.734800	-0.052307	0.663145	-1.000000	-1.000000	-1.000000	-1.000000	-1.000000	-1.000000	-1.000000	62.000000	0.000000	-1.000000	-1.000000	251700.000000	1775765377.261083
20674.035000	-7668.540000	17256.870000	22565.520000	30465.945000	10502.955000	13346.370000	-22785.345000	0.564673	1.179398	1.959693	1.637735	1.616871	-6.340174	-1.225577	-1.457812	-1.159760	2.197440	1.022420	-0.734800	-0.052307	0.663145	-1.000000	-1.000000	-1.000000	-1.000000	-1.000000	-1.000000	-1.000000	62.000000	0.000000	-1.000000	-1.000000	251701.000000	1775765377.266700
20676.195000	-7664.265000	17261.325000	22567.995000	30464.325000	10479.645000	13329.900000	-22783.950000	-2.489805	-0.904695	0.356352	0.578093	2.892375	-8.388959	2.371943	-1.523964	-1.159760	2.197440	1.022420	-0.734800	-0.052307	0.663145	-1.000000	-1.000000	-1.000000	-1.000000	-1.000000	-1.000000	-1.000000	62.000000	0.000000	-1.000000	-1.000000	251702.000000	1775765377.266724
20668.905000	-7664.805000	17259.255000	22564.080000	30462.705000	10518.345000	13332.960000	-22787.280000	-3.180310	-1.632412	-0.707129	-0.645886	1.916596	-11.042763	3.423128	0.606525	-1.159760	2.197440	1.022420	-0.734800	-0.052307	0.663145	-1.000000	-1.000000	-1.000000	-1.000000	-1.000000	-1.000000	-1.000000	62.000000	0.000000	-1.000000	-1.000000	251703.000000	1775765377.273147
20656.620000	-7675.965000	17248.905000	22557.735000	30464.820000	10602.270000	13354.245000	-22790.205000	-1.948447	-0.706921	-0.702299	-1.279113	-0.235999	-7.669534	1.561431	2.797896	-1.159760	2.197440	1.022420	-0.734800	-0.052307	0.663145	-1.000000	-1.000000	-1.000000	-1.000000	-1.000000	-1.000000	-1.000000	62.000000	0.000000	-1.000000	-1.000000	251704.000000	1775765377.273170
20660.670000	-7679.790000	17245.305000	22556.115000	30464.730000	10599.705000	13351.095000	-22789.395000	-0.559547	0.323440	-0.544980	-1.368445	-1.748710	6.353012	-0.239261	3.158175	-1.159760	2.197440	1.022420	-0.734800	-0.052307	0.663145	-1.000000	-1.000000	-1.000000	-1.000000	-1.000000	-1.000000	-1.000000	62.000000	0.000000	-1.000000	-1.000000	251705.000000	1775765377.283319
20661.120000	-7681.455000	17242.470000	22553.145000	30458.655000	10552.635000	13337.460000	-22790.160000	0.504114	0.364357	-0.835663	-1.066783	-1.864786	21.701823	-0.671514	1.716659	-1.159760	2.197440	1.022420	-0.734800	-0.052307	0.663145	-1.000000	-1.000000	-1.000000	-1.000000	-1.000000	-1.000000	-1.000000	62.000000	0.000000	-1.000000	-1.000000	251706.000000	1775765377.283344
20665.620000	-7676.820000	17247.915000	22559.040000	30458.295000	10523.340000	13341.825000	-22783.680000	1.879329	0.067563	-0.893139	-0.199018	-1.184860	22.173824	-1.339861	-0.147517	-1.159760	2.197440	1.022420	-0.734800	-0.052307	0.663145	-1.000000	-1.000000	-1.000000	-1.000000	-1.000000	-1.000000	-1.000000	62.000000	0.000000	-1.000000	-1.000000	251707.000000	1775765377.283370
20671.155000	-7669.305000	17255.610000	22565.205000	30460.950000	10522.305000	13349.835000	-22778.055000	3.642442	0.711137	0.316489	1.456182	-0.394530	4.268440	-2.666706	-1.016191	-1.159760	2.197440	1.022420	-0.734800	-0.052307	0.663145	-1.000000	-1.000000	-1.000000	-1.000000	-1.000000	-1.000000	-1.000000	62.000000	0.000000	-1.000000	-1.000000	251708.000000	1775765377.283382
20683.260000	-7653.330000	17272.575000	22581.000000	30471.390000	10508.310000	13351.950000	-22771.395000	5.168421	2.788549	3.034266	3.783903	0.657405	-18.636865	-2.962557	-0.418435	-3.250380	1.754900	0.412020	-0.733397	-0.051697	0.663817	-1.000000	-1.000000	-1.000000	-1.000000	-1.000000	-1.000000	-1.000000	62.000000	0.000000	-1.000000	-1.000000	251709.000000	1775765377.288684
20686.635000	-7647.795000	17278.470000	22586.625000	30478.545000	10508.220000	13342.635000	-22771.530000	5.720021	5.471234	6.216546	6.016837	2.336418	-30.720077	-1.647034	0.828523	-3.250380	1.754900	0.412020	-0.733397	-0.051697	0.663817	-1.000000	-1.000000	-1.000000	-1.000000	-1.000000	-1.000000	-1.000000	62.000000	0.000000	-1.000000	-1.000000	251710.000000	1775765377.288707
20676.825000	-7661.250000	17262.495000	22573.440000	30477.105000	10573.965000	13348.035000	-22775.625000	4.337885	6.477702	7.370330	6.367967	4.013770	-24.840287	-0.105166	1.202930	-3.250380	1.754900	0.412020	-0.733397	-0.051697	0.663817	-1.000000	-1.000000	-1.000000	-1.000000	-1.000000	-1.000000	-1.000000	62.000000	0.000000	-1.000000	-1.000000	251711.000000	1775765377.288726
20667.195000	-7671.915000	17250.120000	22560.705000	30464.955000	10590.030000	13355.730000	-22780.980000	0.196533	3.358252	3.876553	2.826255	3.895005	-3.553134	0.803568	-0.284361	-3.250380	1.754900	0.412020	-0.733397	-0.051697	0.663817	-1.000000	-1.000000	-1.000000	-1.000000	-1.000000	-1.000000	-1.000000	62.000000	0.000000	-1.000000	-1.000000	251712.000000	1775765377.288734
20665.305000	-7672.590000	17250.930000	22560.210000	30462.030000	10539.810000	13348.665000	-22783.590000	-5.739702	-3.455456	-3.671076	-4.088155	0.785251	20.397146	1.412452	-3.086964	-3.250380	1.754900	0.412020	-0.733397	-0.051697	0.663817	-1.000000	-1.000000	-1.000000	-1.000000	-1.000000	-1.000000	-1.000000	62.000000	0.000000	-1.000000	-1.000000	251713.000000	1775765377.289780
20668.860000	-7666.695000	17259.030000	22567.680000	30469.995000	10539.045000	13349.430000	-22781.925000	-10.235584	-9.754518	-10.462949	-10.208012	-3.770263	30.117726	1.592420	-5.326555	-3.250380	1.754900	0.412020	-0.733397	-0.051697	0.663817	-1.000000	-1.000000	-1.000000	-1.000000	-1.000000	-1.000000	-1.000000	62.000000	0.000000	-1.000000	-1.000000	251714.000000	1775765377.289799
20668.995000	-7662.195000	17266.230000	22574.745000	30479.085000	10561.095000	13348.260000	-22783.995000	-10.244268	-11.057854	-11.504966	-11.013107	-6.205708	20.630203	0.923393	-5.268138	-3.250380	1.754900	0.412020	-0.733397	-0.051697	0.663817	-1.000000	-1.000000	-1.000000	-1.000000	-1.000000	-1.000000	-1.000000	62.000000	0.000000	-1.000000	-1.000000	251715.000000	1775765377.293739
20681.775000	-7647.570000	17280.585000	22588.290000	30479.490000	10524.870000	13330.980000	-22776.570000	-5.450279	-6.353185	-5.942699	-5.612018	-4.527142	2.175669	-0.515930	-2.644518	-3.250380	1.754900	0.412020	-0.733397	-0.051697	0.663817	-1.000000	-1.000000	-1.000000	-1.000000	-1.000000	-1.000000	-1.000000	62.000000	0.000000	-1.000000	-1.000000	251716.000000	1775765377.293760
20687.760000	-7644.420000	17282.745000	22599.360000	30486.105000	10507.860000	13324.680000	-22771.080000	1.860479	1.606120	2.714034	2.925041	-0.242827	-13.796393	-2.532966	1.470618	-3.250380	1.754900	0.412020	-0.733397	-0.051697	0.663817	-1.000000	-1.000000	-1.000000	-1.000000	-1.000000	-1.000000	-1.000000	62.000000	0.000000	-1.000000	-1.000000	251717.000000	1775765377.302838
20680.110000	-7659.315000	17264.700000	22580.910000	30473.370000	10522.755000	13341.285000	-22773.600000	8.037025	7.988930	8.928604	9.543094	3.326920	-21.640703	-3.946700	5.253338	-3.250380	1.754900	0.412020	-0.733397	-0.051697	0.663817	-1.000000	-1.000000	-1.000000	-1.000000	-1.000000	-1.000000	-1.000000	62.000000	0.000000	-1.000000	-1.000000	251718.000000	1775765377.302862
20659.050000	-7688.925000	17229.825000	22546.080000	30451.410000	10560.105000	13362.345000	-22792.275000	9.333605	8.226893	8.017491	9.313411	3.306969	-18.286363	-2.200527	6.383097	-0.915600	2.365300	0.824040	-0.732664	-0.054565	0.663939	-1.000000	-1.000000	-1.000000	-1.000000	-1.000000	-1.000000	-1.000000	62.000000	0.000000	-1.000000	-1.000000	251719.000000	1775765377.302889
20650.590000	-7695.540000	17222.310000	22541.580000	30453.435000	10571.445000	13358.790000	-22804.965000	4.454041	1.556017	-0.208541	1.215172	-0.672070	-4.311859	3.274762	3.330867	-0.915600	2.365300	0.824040	-0.732664	-0.054565	0.663939	-1.000000	-1.000000	-1.000000	-1.000000	-1.000000	-1.000000	-1.000000	62.000000	0.000000	-1.000000	-1.000000	251720.000000	1775765377.302901
20654.280000	-7679.295000	17241.885000	22563.180000	30473.325000	10559.790000	13357.800000	-22802.490000	-3.303479	-6.771802	-9.400486	-8.665806	-4.864701	12.436471	8.627481	-2.394206	-0.915600	2.365300	0.824040	-0.732664	-0.054565	0.663939	-1.000000	-1.000000	-1.000000	-1.000000	-1.000000	-1.000000	-1.000000	62.000000	0.000000	-1.000000	-1.000000	251721.000000	1775765377.307411
20651.985000	-7670.655000	17253.225000	22574.115000	30477.780000	10528.020000	13347.945000	-22799.340000	-8.205441	-9.259932	-11.124864	-11.451459	-4.399008	20.452786	9.052893	-6.464189	-0.915600	2.365300	0.824040	-0.732664	-0.054565	0.663939	-1.000000	-1.000000	-1.000000	-1.000000	-1.000000	-1.000000	-1.000000	62.000000	0.000000	-1.000000	-1.000000	251722.000000	1775765377.307427
20656.620000	-7666.020000	17255.700000	22573.800000	30471.660000	10520.550000	13354.335000	-22785.255000	-7.094661	-3.509281	-3.229318	-4.594603	0.882202	14.094561	3.763661	-5.403543	-0.915600	2.365300	0.824040	-0.732664	-0.054565	0.663939	-1.000000	-1.000000	-1.000000	-1.000000	-1.000000	-1.000000	-1.000000	62.000000	0.000000	-1.000000	-1.000000	251723.000000	1775765377.309857
20662.695000	-7671.780000	17248.185000	22566.555000	30467.970000	10554.255000	13358.385000	-22776.210000	-1.266102	5.672135	8.001669	5.803404	6.139202	-0.537003	-3.424918	0.498154	-0.915600	2.365300	0.824040	-0.732664	-0.054565	0.663939	-1.000000	-1.000000	-1.000000	-1.000000	-1.000000	-1.000000	-1.000000	62.000000	0.000000	-1.000000	-1.000000	251724.000000	1775765377.309873
20667.870000	-7669.890000	17249.220000	22568.760000	30470.400000	10558.530000	13360.230000	-22773.195000	5.590859	11.382654	14.300473	11.795301	7.195230	-11.002509	-7.838562	7.490878	-0.915600	2.365300	0.824040	-0.732664	-0.054565	0.663939	-1.000000	-1.000000	-1.000000	-1.000000	-1.000000	-1.000000	-1.000000	62.000000	0.000000	-1.000000	-1.000000	251725.000000	1775765377.317847
20678.265000	-7659.135000	17260.245000	22578.255000	30475.125000	10537.695000	13358.115000	-22768.920000	10.012901	10.654922	12.604341	10.634405	4.236073	-11.260168	-7.797106	11.017687	-0.915600	2.365300	0.824040	-0.732664	-0.054565	0.663939	-1.000000	-1.000000	-1.000000	-1.000000	-1.000000	-1.000000	-1.000000	62.000000	0.000000	-1.000000	-1.000000	251726.000000	1775765377.317871
20673.990000	-7659.540000	17262.180000	22580.910000	30477.105000	10545.210000	13349.610000	-22776.075000	10.207193	5.528363	5.933613	5.172792	0.207842	-5.608627	-4.982734	8.786998	-0.915600	2.365300	0.824040	-0.732664	-0.054565	0.663939	-1.000000	-1.000000	-1.000000	-1.000000	-1.000000	-1.000000	-1.000000	62.000000	0.000000	-1.000000	-1.000000	251727.000000	1775765377.325218
20662.605000	-7667.955000	17253.630000	22575.060000	30471.570000	10555.470000	13344.975000	-22784.040000	5.948484	-0.662357	-1.321971	-0.691746	-2.606267	-0.053910	-2.098428	1.763622	-0.915600	2.365300	0.824040	-0.732664	-0.054565	0.663939	-1.000000	-1.000000	-1.000000	-1.000000	-1.000000	-1.000000	-1.000000	62.000000	0.000000	-1.000000	-1.000000	251728.000000	1775765377.325248
20658.645000	-7672.725000	17249.310000	22573.215000	30466.260000	10543.230000	13346.100000	-22786.065000	-1.462872	-6.032341	-6.937521	-5.100382	-3.967708	3.268751	-0.430538	-6.692559	2.319520	2.121140	-0.198380	-0.733641	-0.056335	0.662779	-1.000000	-1.000000	-1.000000	-1.000000	-1.000000	-1.000000	-1.000000	62.000000	0.000000	-1.000000	-1.000000	251729.000000	1775765377.325271
20665.845000	-7664.220000	17256.960000	22581.630000	30473.550000	10552.545000	13353.840000	-22778.460000	-8.615605	-9.269066	-9.949874	-7.372299	-4.318848	4.080183	0.755907	-12.234428	2.319520	2.121140	-0.198380	-0.733641	-0.056335	0.662779	-1.000000	-1.000000	-1.000000	-1.000000	-1.000000	-1.000000	-1.000000	62.000000	0.000000	-1.000000	-1.000000	251730.000000	1775765377.325282
20667.600000	-7662.645000	17257.590000	22579.695000	30477.555000	10589.535000	13347.135000	-22777.380000	-11.483770	-8.935561	-9.412427	-6.931255	-3.358164	3.619787	2.438404	-11.894209	2.319520	2.121140	-0.198380	-0.733641	-0.056335	0.662779	-1.000000	-1.000000	-1.000000	-1.000000	-1.000000	-1.000000	-1.000000	62.000000	0.000000	-1.000000	-1.000000	251731.000000	1775765377.326486
20667.510000	-7661.970000	17254.800000	22569.030000	30466.530000	10527.840000	13334.940000	-22779.720000	-8.771605	-5.077935	-5.643539	-4.423518	-1.141332	3.186632	3.834170	-6.357061	2.319520	2.121140	-0.198380	-0.733641	-0.056335	0.662779	-1.000000	-1.000000	-1.000000	-1.000000	-1.000000	-1.000000	-1.000000	62.000000	0.000000	-1.000000	-1.000000	251732.000000	1775765377.326507
20659.725000	-7668.045000	17251.695000	22565.835000	30458.520000	10508.715000	13334.400000	-22787.055000	-2.982619	-0.039100	-0.884358	-1.870180	0.699816	0.212605	3.365771	0.536922	2.319520	2.121140	-0.198380	-0.733641	-0.056335	0.662779	-1.000000	-1.000000	-1.000000	-1.000000	-1.000000	-1.000000	-1.000000	62.000000	0.000000	-1.000000	-1.000000	251733.000000	1775765377.333956
20650.725000	-7677.945000	17242.785000	22560.660000	30453.930000	10536.075000	13336.695000	-22799.430000	1.915148	3.196096	2.361901	-0.527447	0.700293	-6.358518	1.329696	4.777069	2.319520	2.121140	-0.198380	-0.733641	-0.056335	0.662779	-1.000000	-1.000000	-1.000000	-1.000000	-1.000000	-1.000000	-1.000000	62.000000	0.000000	-1.000000	-1.000000	251734.000000	1775765377.333984
20666.295000	-7654.995000	17267.445000	22584.195000	30475.845000	10586.160000	13348.980000	-22793.670000	3.935805	3.704610	3.520221	0.485567	-0.095634	-9.517554	-0.070759	5.021914	2.319520	2.121140	-0.198380	-0.733641	-0.056335	0.662779	-1.000000	-1.000000	-1.000000	-1.000000	-1.000000	-1.000000	-1.000000	62.000000	0.000000	-1.000000	-1.000000	251735.000000	1775765377.334010
20675.835000	-7640.865000	17284.860000	22605.075000	30503.295000	10588.185000	13355.505000	-22781.475000	4.419776	3.632623	4.500961	3.224208	1.271639	-2.694838	0.786725	3.404231	2.319520	2.121140	-0.198380	-0.733641	-0.056335	0.662779	-1.000000	-1.000000	-1.000000	-1.000000	-1.000000	-1.000000	-1.000000	62.000000	0.000000	-1.000000	-1.000000	251736.000000	1775765377.334022
20671.560000	-7653.105000	17268.705000	22589.370000	30483.135000	10472.895000	13345.110000	-22776.480000	5.107201	4.638686	6.306732	7.506878	5.387779	7.574474	2.912901	2.996869	2.319520	2.121140	-0.198380	-0.733641	-0.056335	0.662779	-1.000000	-1.000000	-1.000000	-1.000000	-1.000000	-1.000000	-1.000000	62.000000	0.000000	-1.000000	-1.000000	251737.000000	1775765377.337584
20664.135000	-7662.600000	17256.465000	22576.005000	30470.535000	10516.410000	13335.930000	-22784.040000	5.129506	4.685929	6.179977	9.129851	7.789387	7.972956	3.307232	4.102332	2.319520	2.121140	-0.198380	-0.733641	-0.056335	0.662779	-1.000000	-1.000000	-1.000000	-1.000000	-1.000000	-1.000000	-1.000000	62.000000	0.000000	-1.000000	-1.000000	251738.000000	1775765377.337606
20663.730000	-7660.125000	17259.840000	22577.805000	30470.985000	10523.385000	13353.705000	-22789.215000	2.809940	1.469311	1.697588	4.751434	4.250247	-1.491344	0.706069	4.227265	1.617560	1.983800	-0.061040	-0.733763	-0.051208	0.660826	-1.000000	-1.000000	-1.000000	-1.000000	-1.000000	-1.000000	-1.000000	62.000000	0.000000	-1.000000	-1.000000	251739.000000	1775765377.347996
20661.210000	-7658.280000	17262.045000	22581.585000	30474.720000	10532.790000	13354.110000	-22792.590000	-1.293883	-3.451738	-4.699567	-3.072298	-3.162229	-8.055386	-2.434243	1.632092	1.617560	1.983800	-0.061040	-0.733763	-0.051208	0.660826	-1.000000	-1.000000	-1.000000	-1.000000	-1.000000	-1.000000	-1.000000	62.000000	0.000000	-1.000000	-1.000000	251740.000000	1775765377.348020
20654.505000	-7661.385000	17259.705000	22583.205000	30480.300000	10561.095000	13354.155000	-22795.740000	-4.933963	-6.570564	-8.433949	-8.650663	-8.605840	-4.434508	-3.465140	-2.570022	1.617560	1.983800	-0.061040	-0.733763	-0.051208	0.660826	-1.000000	-1.000000	-1.000000	-1.000000	-1.000000	-1.000000	-1.000000	62.000000	0.000000	-1.000000	-1.000000	251741.000000	1775765377.348045
20647.620000	-7667.865000	17255.970000	22584.285000	30490.605000	10617.300000	13378.410000	-22796.325000	-6.526162	-6.387269	-7.673710	-8.876546	-8.417878	6.849823	-2.179358	-5.782972	1.617560	1.983800	-0.061040	-0.733763	-0.051208	0.660826	-1.000000	-1.000000	-1.000000	-1.000000	-1.000000	-1.000000	-1.000000	62.000000	0.000000	-1.000000	-1.000000	251742.000000	1775765377.348056
20655.360000	-7666.425000	17255.610000	22581.360000	30485.970000	10571.355000	13382.055000	-22780.935000	-5.657414	-3.898036	-3.899528	-4.885634	-3.474809	18.068271	0.591920	-5.913060	1.617560	1.983800	-0.061040	-0.733763	-0.051208	0.660826	-1.000000	-1.000000	-1.000000	-1.000000	-1.000000	-1.000000	-1.000000	62.000000	0.000000	-1.000000	-1.000000	251743.000000	1775765377.357955
20654.010000	-7669.710000	17249.580000	22574.295000	30475.215000	10553.040000	13366.350000	-22777.830000	-2.475946	-0.672785	0.364094	-0.047737	2.011860	18.934584	2.910934	-2.467605	1.617560	1.983800	-0.061040	-0.733763	-0.051208	0.660826	-1.000000	-1.000000	-1.000000	-1.000000	-1.000000	-1.000000	-1.000000	62.000000	0.000000	-1.000000	-1.000000	251744.000000	1775765377.357978
20654.730000	-7670.295000	17246.340000	22569.615000	30468.420000	10546.380000	13345.605000	-22780.755000	1.880590	2.144524	3.204467	2.760062	3.993439	5.300861	1.646286	2.536167	1.617560	1.983800	-0.061040	-0.733763	-0.051208	0.660826	-1.000000	-1.000000	-1.000000	-1.000000	-1.000000	-1.000000	-1.000000	62.000000	0.000000	-1.000000	-1.000000	251745.000000	1775765377.358003
20651.805000	-7676.730000	17238.330000	22559.310000	30454.425000	10523.880000	13349.835000	-22782.330000	5.286728	3.747692	3.886643	2.736463	1.741698	-14.715951	-3.743032	5.569984	1.617560	1.983800	-0.061040	-0.733763	-0.051208	0.660826	-1.000000	-1.000000	-1.000000	-1.000000	-1.000000	-1.000000	-1.000000	62.000000	0.000000	-1.000000	-1.000000	251746.000000	1775765377.358011
20645.145000	-7679.745000	17237.295000	22562.010000	30464.955000	10548.360000	13355.730000	-22790.385000	6.014072	3.740579	2.869970	1.060411	-2.057978	-28.051874	-8.947257	4.593204	1.617560	1.983800	-0.061040	-0.733763	-0.051208	0.660826	-1.000000	-1.000000	-1.000000	-1.000000	-1.000000	-1.000000	-1.000000	62.000000	0.000000	-1.000000	-1.000000	251747.000000	1775765377.358021
20654.910000	-7668.630000	17247.960000	22572.945000	30476.115000	10565.280000	13363.020000	-22782.510000	4.077947	2.692325	1.618739	0.014726	-3.417955	-26.285930	-8.856948	0.655426	1.617560	1.983800	-0.061040	-0.733763	-0.051208	0.660826	-1.000000	-1.000000	-1.000000	-1.000000	-1.000000	-1.000000	-1.000000	62.000000	0.000000	-1.000000	-1.000000	251748.000000	1775765377.358029
20649.105000	-7674.120000	17242.965000	22566.780000	30465.720000	10547.685000	13355.505000	-22787.820000	1.217573	1.878220	1.563264	1.128781	-0.612887	-10.865615	-2.999125	-3.238125	-0.045780	0.793520	0.656180	-0.735106	-0.048523	0.660887	-1.000000	-1.000000	-1.000000	-1.000000	-1.000000	-1.000000	-1.000000	62.000000	0.000000	-1.000000	-1.000000	251749.000000	1775765377.361094
20651.670000	-7668.090000	17250.255000	22574.565000	30471.255000	10550.430000	13359.420000	-22787.145000	-0.925401	1.724179	2.541235	3.470798	3.849550	7.592716	4.399377	-4.809394	-0.045780	0.793520	0.656180	-0.735106	-0.048523	0.660887	-1.000000	-1.000000	-1.000000	-1.000000	-1.000000	-1.000000	-1.000000	62.000000	0.000000	-1.000000	-1.000000	251750.000000	1775765377.361111
20654.325000	-7663.365000	17254.485000	22577.985000	30471.885000	10544.580000	13357.485000	-22785.930000	-1.874915	1.697887	3.312843	4.999892	6.396380	18.454850	8.884898	-3.857063	-0.045780	0.793520	0.656180	-0.735106	-0.048523	0.660887	-1.000000	-1.000000	-1.000000	-1.000000	-1.000000	-1.000000	-1.000000	62.000000	0.000000	-1.000000	-1.000000	251751.000000	1775765377.380746
20654.730000	-7662.915000	17254.935000	22577.445000	30469.590000	10536.795000	13350.510000	-22788.675000	-1.753205	1.380514	3.043234	4.636063	5.764527	18.457609	8.790901	-1.454034	-0.045780	0.793520	0.656180	-0.735106	-0.048523	0.660887	-1.000000	-1.000000	-1.000000	-1.000000	-1.000000	-1.000000	-1.000000	62.000000	0.000000	-1.000000	-1.000000	251752.000000	1775765377.380771
20661.030000	-7659.225000	17256.780000	22580.190000	30476.205000	10562.265000	13351.995000	-22783.635000	-0.956950	0.546133	1.484978	2.385742	2.824089	11.262658	5.045315	1.056465	-0.045780	0.793520	0.656180	-0.735106	-0.048523	0.660887	-1.000000	-1.000000	-1.000000	-1.000000	-1.000000	-1.000000	-1.000000	62.000000	0.000000	-1.000000	-1.000000	251753.000000	1775765377.380796
20665.665000	-7653.420000	17262.540000	22582.305000	30470.310000	10543.590000	13331.745000	-22782.195000	0.076544	-0.693381	-0.902657	-0.838522	-0.665390	3.130508	-0.158665	2.807436	-0.045780	0.793520	0.656180	-0.735106	-0.048523	0.660887	-1.000000	-1.000000	-1.000000	-1.000000	-1.000000	-1.000000	-1.000000	62.000000	0.000000	-1.000000	-1.000000	251754.000000	1775765377.380807
20658.645000	-7657.200000	17262.090000	22583.880000	30467.520000	10497.285000	13327.425000	-22786.020000	0.791381	-1.875622	-3.031674	-3.608147	-3.399421	-3.284721	-4.842725	3.424425	-0.045780	0.793520	0.656180	-0.735106	-0.048523	0.660887	-1.000000	-1.000000	-1.000000	-1.000000	-1.000000	-1.000000	-1.000000	62.000000	0.000000	-1.000000	-1.000000	251755.000000	1775765377.380820
20651.085000	-7667.595000	17250.975000	22576.500000	30463.785000	10482.345000	13339.845000	-22787.685000	0.255633	-3.019751	-4.355348	-5.070735	-4.988681	-9.566768	-7.130782	2.634406	-0.045780	0.793520	0.656180	-0.735106	-0.048523	0.660887	-1.000000	-1.000000	-1.000000	-1.000000	-1.000000	-1.000000	-1.000000	62.000000	0.000000	-1.000000	-1.000000	251756.000000	1775765377.380830
20651.580000	-7667.955000	17248.095000	22573.710000	30470.940000	10548.000000	13362.930000	-22789.620000	-1.748668	-4.391527	-5.230777	-5.389575	-5.112149	-13.605768	-4.852936	0.681867	-0.045780	0.793520	0.656180	-0.735106	-0.048523	0.660887	-1.000000	-1.000000	-1.000000	-1.000000	-1.000000	-1.000000	-1.000000	62.000000	0.000000	-1.000000	-1.000000	251757.000000	1775765377.380841
20648.520000	-7668.945000	17248.725000	22573.845000	30470.220000	10551.420000	13368.780000	-22799.295000	-3.803384	-5.264638	-5.552581	-4.862739	-3.395100	-8.794014	2.002458	-1.583199	-0.045780	0.793520	0.656180	-0.735106	-0.048523	0.660887	-1.000000	-1.000000	-1.000000	-1.000000	-1.000000	-1.000000	-1.000000	62.000000	0.000000	-1.000000	-1.000000	251758.000000	1775765377.380852
20648.745000	-7661.160000	17259.795000	22586.355000	30481.065000	10556.505000	13363.650000	-22805.100000	-4.162705	-4.231008	-4.175380	-3.083924	-0.210982	4.653712	9.191578	-3.412160	-0.213640	1.403920	-0.412020	-0.735045	-0.049255	0.661680	-1.000000	-1.000000	-1.000000	-1.000000	-1.000000	-1.000000	-1.000000	62.000000	0.000000	-1.000000	-1.000000	251759.000000	1775765377.387447
20647.710000	-7659.630000	17260.605000	22584.960000	30475.305000	10548.630000	13365.000000	-22802.040000	-2.393537	-0.858149	-0.472161	0.260342	3.080781	16.658546	11.184790	-4.113923	-0.213640	1.403920	-0.412020	-0.735045	-0.049255	0.661680	-1.000000	-1.000000	-1.000000	-1.000000	-1.000000	-1.000000	-1.000000	62.000000	0.000000	-1.000000	-1.000000	251760.000000	1775765377.387472
20660.220000	-7652.385000	17265.195000	22588.605000	30476.160000	10535.310000	13373.460000	-22783.140000	0.775722	3.545515	4.168016	3.984484	4.694795	17.907510	6.552292	-2.575092	-0.213640	1.403920	-0.412020	-0.735045	-0.049255	0.661680	-1.000000	-1.000000	-1.000000	-1.000000	-1.000000	-1.000000	-1.000000	62.000000	0.000000	-1.000000	-1.000000	251761.000000	1775765377.387491
20654.325000	-7663.725000	17253.945000	22579.695000	30473.775000	10529.685000	13372.065000	-22783.995000	4.129601	6.592209	6.997033	5.861544	3.677604	7.764420	-1.177691	1.576319	-0.213640	1.403920	-0.412020	-0.735045	-0.049255	0.661680	-1.000000	-1.000000	-1.000000	-1.000000	-1.000000	-1.000000	-1.000000	62.000000	0.000000	-1.000000	-1.000000	251762.000000	1775765377.387502
20639.970000	-7673.985000	17243.010000	22570.605000	30466.485000	10511.910000	13361.445000	-22797.225000	5.719611	6.116503	5.890565	4.430808	0.692675	-6.985832	-7.767978	5.907055	-0.213640	1.403920	-0.412020	-0.735045	-0.049255	0.661680	-1.000000	-1.000000	-1.000000	-1.000000	-1.000000	-1.000000	-1.000000	62.000000	0.000000	-1.000000	-1.000000	251763.000000	1775765377.391228
20624.355000	-7681.680000	17234.775000	22562.640000	30458.250000	10524.105000	13345.965000	-22806.765000	3.649296	1.887666	1.095274	0.202633	-2.794123	-17.743141	-11.509009	6.481484	-0.213640	1.403920	-0.412020	-0.735045	-0.049255	0.661680	-1.000000	-1.000000	-1.000000	-1.000000	-1.000000	-1.000000	-1.000000	62.000000	0.000000	-1.000000	-1.000000	251764.000000	1775765377.391256
20629.440000	-7681.095000	17234.235000	22562.730000	30461.355000	10574.280000	13350.015000	-22804.245000	-1.308082	-3.498777	-4.429199	-4.317451	-5.215505	-18.060541	-12.234653	2.362606	-0.213640	1.403920	-0.412020	-0.735045	-0.049255	0.661680	-1.000000	-1.000000	-1.000000	-1.000000	-1.000000	-1.000000	-1.000000	62.000000	0.000000	-1.000000	-1.000000	251765.000000	1775765377.393647
20641.365000	-7670.970000	17243.370000	22569.570000	30460.635000	10544.580000	13352.175000	-22797.180000	-5.106807	-6.206255	-6.848985	-6.044021	-5.142783	-7.316617	-9.406317	-2.940660	-0.213640	1.403920	-0.412020	-0.735045	-0.049255	0.661680	-1.000000	-1.000000	-1.000000	-1.000000	-1.000000	-1.000000	-1.000000	62.000000	0.000000	-1.000000	-1.000000	251766.000000	1775765377.393667
20644.020000	-7668.720000	17246.070000	22571.145000	30457.395000	10503.540000	13351.680000	-22795.020000	-4.164876	-4.174948	-4.306463	-3.579764	-2.414128	5.578006	-3.078761	-5.193543	-0.213640	1.403920	-0.412020	-0.735045	-0.049255	0.661680	-1.000000	-1.000000	-1.000000	-1.000000	-1.000000	-1.000000	-1.000000	62.000000	0.000000	-1.000000	-1.000000	251767.000000	1775765377.410921
20643.885000	-7667.055000	17249.985000	22576.860000	30467.925000	10530.720000	13354.920000	-22796.055000	0.721069	1.057854	1.522170	1.575349	1.548125	9.992022	4.525477	-3.449378	-0.213640	1.403920	-0.412020	-0.735045	-0.049255	0.661680	-1.000000	-1.000000	-1.000000	-1.000000	-1.000000	-1.000000	-1.000000	62.000000	0.000000	-1.000000	-1.000000	251768.000000	1775765377.410947
20638.485000	-7668.540000	17249.760000	22578.030000	30473.910000	10577.790000	13354.470000	-22798.620000	5.323589	5.683971	6.770205	6.253909	5.181951	6.879598	10.187385	-0.072610	0.030520	2.166920	-0.869820	-0.732054	-0.050720	0.662230	-1.000000	-1.000000	-1.000000	-1.000000	-1.000000	-1.000000	-1.000000	62.000000	0.000000	-1.000000	-1.000000	251769.000000	1775765377.410971
20634.300000	-7670.250000	17249.265000	22578.570000	30473.280000	10582.245000	13351.455000	-22799.745000	6.114164	6.781946	8.336803	7.889907	7.295748	5.047017	11.735041	2.132674	0.030520	2.166920	-0.869820	-0.732054	-0.050720	0.662230	-1.000000	-1.000000	-1.000000	-1.000000	-1.000000	-1.000000	-1.000000	62.000000	0.000000	-1.000000	-1.000000	251770.000000	1775765377.410983
20636.685000	-7662.825000	17259.390000	22589.370000	30483.270000	10593.315000	13349.970000	-22799.160000	2.947722	4.266407	5.882610	6.022739	6.936941	7.165651	8.948263	2.162887	0.030520	2.166920	-0.869820	-0.732054	-0.050720	0.662230	-1.000000	-1.000000	-1.000000	-1.000000	-1.000000	-1.000000	-1.000000	62.000000	0.000000	-1.000000	-1.000000	251771.000000	1775765377.410998
20637.450000	-7662.870000	17254.080000	22580.280000	30469.095000	10583.010000	13342.410000	-22796.685000	-1.449490	0.373584	1.461534	2.102141	3.973173	8.156158	3.425830	0.885334	0.030520	2.166920	-0.869820	-0.732054	-0.050720	0.662230	-1.000000	-1.000000	-1.000000	-1.000000	-1.000000	-1.000000	-1.000000	62.000000	0.000000	-1.000000	-1.000000	251772.000000	1775765377.411009
20640.960000	-7660.305000	17250.705000	22574.880000	30458.070000	10531.530000	13337.865000	-22788.360000	-4.128897	-2.608756	-2.814995	-2.343918	-1.080211	2.634118	-2.445562	-0.160202	0.030520	2.166920	-0.869820	-0.732054	-0.050720	0.662230	-1.000000	-1.000000	-1.000000	-1.000000	-1.000000	-1.000000	-1.000000	62.000000	0.000000	-1.000000	-1.000000	251773.000000	1775765377.411022
20640.060000	-7660.890000	17253.180000	22582.035000	30467.970000	10497.285000	13337.595000	-22791.240000	-4.046671	-3.864617	-5.852222	-6.113408	-6.615646	-10.269029	-6.467355	-0.124388	0.030520	2.166920	-0.869820	-0.732054	-0.050720	0.662230	-1.000000	-1.000000	-1.000000	-1.000000	-1.000000	-1.000000	-1.000000	62.000000	0.000000	-1.000000	-1.000000	251774.000000	1775765377.411032
20634.345000	-7674.480000	17242.605000	22576.905000	30472.470000	10538.235000	13351.860000	-22794.705000	-2.268914	-3.982810	-7.032886	-7.653450	-9.381199	-23.611743	-6.977296	0.354325	0.030520	2.166920	-0.869820	-0.732054	-0.050720	0.662230	-1.000000	-1.000000	-1.000000	-1.000000	-1.000000	-1.000000	-1.000000	62.000000	0.000000	-1.000000	-1.000000	251775.000000	1775765377.419900
20627.775000	-7680.825000	17237.610000	22573.575000	30475.170000	10576.170000	13358.160000	-22797.360000	-0.734363	-4.127338	-6.443767	-6.370049	-7.234914	-24.949372	-3.534816	0.034098	0.030520	2.166920	-0.869820	-0.732054	-0.050720	0.662230	-1.000000	-1.000000	-1.000000	-1.000000	-1.000000	-1.000000	-1.000000	62.000000	0.000000	-1.000000	-1.000000	251776.000000	1775765377.419926
20631.555000	-7677.900000	17239.185000	22571.685000	30466.890000	10566.180000	13355.595000	-22796.235000	-0.394412	-4.402091	-4.606232	-3.406383	-1.864426	-9.312454	1.887304	-1.224566	0.030520	2.166920	-0.869820	-0.732054	-0.050720	0.662230	-1.000000	-1.000000	-1.000000	-1.000000	-1.000000	-1.000000	-1.000000	62.000000	0.000000	-1.000000	-1.000000	251777.000000	1775765377.420058
20645.190000	-7658.550000	17256.645000	22586.085000	30467.430000	10471.320000	13333.185000	-22801.185000	-0.238608	-3.110319	-1.372095	0.033822	2.880090	11.231663	5.205536	-2.408442	0.030520	2.166920	-0.869820	-0.732054	-0.050720	0.662230	-1.000000	-1.000000	-1.000000	-1.000000	-1.000000	-1.000000	-1.000000	62.000000	0.000000	-1.000000	-1.000000	251778.000000	1775765377.420072
20625.390000	-7675.515000	17240.580000	22572.090000	30461.445000	10506.645000	13332.960000	-22825.350000	0.836110	0.743342	3.072427	3.288832	4.542781	19.374359	3.486884	-3.080951	-0.183120	1.785420	0.335720	-0.732603	-0.049133	0.664732	-1.000000	-1.000000	-1.000000	-1.000000	-1.000000	-1.000000	-1.000000	62.000000	0.000000	-1.000000	-1.000000	251779.000000	1775765377.421889
20608.155000	-7688.340000	17230.185000	22564.215000	30459.645000	10549.575000	13342.815000	-22833.810000	1.441559	4.623597	6.286847	4.939944	3.323210	13.898976	-1.501239	-3.892636	-0.183120	1.785420	0.335720	-0.732603	-0.049133	0.664732	-1.000000	-1.000000	-1.000000	-1.000000	-1.000000	-1.000000	-1.000000	62.000000	0.000000	-1.000000	-1.000000	251780.000000	1775765377.421906
20611.620000	-7682.985000	17237.070000	22574.430000	30475.935000	10560.600000	13361.805000	-22817.115000	-0.179580	5.174001	5.839917	3.945021	1.266754	7.826282	-4.517008	-4.212774	-0.183120	1.785420	0.335720	-0.732603	-0.049133	0.664732	-1.000000	-1.000000	-1.000000	-1.000000	-1.000000	-1.000000	-1.000000	62.000000	0.000000	-1.000000	-1.000000	251781.000000	1775765377.425057
20625.930000	-7667.865000	17248.635000	22583.295000	30484.260000	10558.710000	13359.330000	-22799.160000	-2.250837	3.084252	3.040972	1.924579	0.820302	7.956856	-2.504564	-1.392976	-0.183120	1.785420	0.335720	-0.732603	-0.049133	0.664732	-1.000000	-1.000000	-1.000000	-1.000000	-1.000000	-1.000000	-1.000000	62.000000	0.000000	-1.000000	-1.000000	251782.000000	1775765377.425074
20633.400000	-7667.910000	17247.015000	22579.785000	30475.485000	10543.860000	13349.925000	-22795.335000	-1.325450	1.674264	1.082932	1.125415	2.281827	9.137108	2.036975	5.258729	-0.183120	1.785420	0.335720	-0.732603	-0.049133	0.664732	-1.000000	-1.000000	-1.000000	-1.000000	-1.000000	-1.000000	-1.000000	62.000000	0.000000	-1.000000	-1.000000	251783.000000	1775765377.435552
20634.750000	-7670.070000	17242.920000	22577.580000	30471.885000	10536.705000	13350.960000	-22805.100000	2.831199	1.943726	0.732119	1.305861	3.090604	4.776734	4.269606	11.655868	-0.183120	1.785420	0.335720	-0.732603	-0.049133	0.664732	-1.000000	-1.000000	-1.000000	-1.000000	-1.000000	-1.000000	-1.000000	62.000000	0.000000	-1.000000	-1.000000	251784.000000	1775765377.435578
20630.835000	-7673.130000	17240.490000	22577.265000	30474.540000	10524.195000	13352.310000	-22810.095000	6.693820	2.037397	0.370023	0.841865	1.268141	-5.188797	2.513974	12.346940	-0.183120	1.785420	0.335720	-0.732603	-0.049133	0.664732	-1.000000	-1.000000	-1.000000	-1.000000	-1.000000	-1.000000	-1.000000	62.000000	0.000000	-1.000000	-1.000000	251785.000000	1775765377.435609
20642.670000	-7658.955000	17254.575000	22588.470000	30480.435000	10521.585000	13347.180000	-22795.380000	6.996277	0.727582	-0.778061	-0.506222	-1.953662	-15.187219	-1.113622	6.393464	-0.183120	1.785420	0.335720	-0.732603	-0.049133	0.664732	-1.000000	-1.000000	-1.000000	-1.000000	-1.000000	-1.000000	-1.000000	62.000000	0.000000	-1.000000	-1.000000	251786.000000	1775765377.435620
20638.305000	-7664.940000	17247.825000	22578.435000	30468.420000	10512.585000	13328.280000	-22793.310000	3.747154	-1.083657	-1.719568	-1.652783	-4.176920	-19.368938	-4.292513	-1.694332	-0.183120	1.785420	0.335720	-0.732603	-0.049133	0.664732	-1.000000	-1.000000	-1.000000	-1.000000	-1.000000	-1.000000	-1.000000	62.000000	0.000000	-1.000000	-1.000000	251787.000000	1775765377.440061
20624.445000	-7680.015000	17234.460000	22565.745000	30459.150000	10525.455000	13328.145000	-22801.005000	-1.231963	-2.669158	-2.132221	-2.453636	-4.856249	-15.460627	-6.187721	-7.197561	-0.183120	1.785420	0.335720	-0.732603	-0.049133	0.664732	-1.000000	-1.000000	-1.000000	-1.000000	-1.000000	-1.000000	-1.000000	62.000000	0.000000	-1.000000	-1.000000	251788.000000	1775765377.440084
20616.255000	-7684.110000	17231.355000	22562.505000	30454.605000	10563.030000	13326.210000	-22814.820000	-6.451844	-4.511671	-2.996253	-3.660028	-4.777556	-4.594909	-6.092089	-9.298297	-1.617560	1.846460	-0.610400	-0.733702	-0.050659	0.663817	-1.000000	-1.000000	-1.000000	-1.000000	-1.000000	-1.000000	-1.000000	62.000000	0.000000	-1.000000	-1.000000	251789.000000	1775765377.440657
20615.220000	-7679.295000	17232.255000	22572.495000	30467.295000	10560.285000	13341.825000	-22820.715000	-10.168694	-6.047228	-4.143603	-4.525986	-3.711054	9.433779	-3.013134	-9.479951	-1.617560	1.846460	-0.610400	-0.733702	-0.050659	0.663817	-1.000000	-1.000000	-1.000000	-1.000000	-1.000000	-1.000000	-1.000000	62.000000	0.000000	-1.000000	-1.000000	251790.000000	1775765377.440674
20629.665000	-7661.565000	17250.975000	22595.310000	30491.595000	10575.630000	13369.995000	-22813.290000	-9.980121	-5.029987	-3.589245	-2.724092	-0.210722	20.013748	3.225670	-8.159025	-1.617560	1.846460	-0.610400	-0.733702	-0.050659	0.663817	-1.000000	-1.000000	-1.000000	-1.000000	-1.000000	-1.000000	-1.000000	62.000000	0.000000	-1.000000	-1.000000	251791.000000	1775765377.444976
20622.870000	-7668.765000	17244.180000	22585.725000	30480.885000	10561.680000	13361.805000	-22814.370000	-4.949413	-0.506828	-0.125548	2.315978	5.568757	21.131096	10.558222	-4.484500	-1.617560	1.846460	-0.610400	-0.733702	-0.050659	0.663817	-1.000000	-1.000000	-1.000000	-1.000000	-1.000000	-1.000000	-1.000000	62.000000	0.000000	-1.000000	-1.000000	251792.000000	1775765377.444996
20631.780000	-7666.920000	17241.930000	22580.595000	30474.585000	10553.805000	13360.005000	-22799.745000	2.505092	4.929320	4.283767	7.113987	9.798146	11.823716	14.224318	1.412696	-1.617560	1.846460	-0.610400	-0.733702	-0.050659	0.663817	-1.000000	-1.000000	-1.000000	-1.000000	-1.000000	-1.000000	-1.000000	62.000000	0.000000	-1.000000	-1.000000	251793.000000	1775765377.461034
20639.205000	-7661.340000	17247.060000	22586.175000	30479.985000	10559.790000	13364.550000	-22791.105000	8.543730	7.645455	6.345863	7.581696	8.616326	-3.015192	10.692267	7.734780	-1.617560	1.846460	-0.610400	-0.733702	-0.050659	0.663817	-1.000000	-1.000000	-1.000000	-1.000000	-1.000000	-1.000000	-1.000000	62.000000	0.000000	-1.000000	-1.000000	251794.000000	1775765377.461065
20629.485000	-7670.970000	17236.530000	22575.015000	30467.160000	10544.445000	13353.030000	-22797.495000	10.669469	6.426112	4.927547	3.535482	2.638536	-15.576643	1.589322	11.763628	-1.617560	1.846460	-0.610400	-0.733702	-0.050659	0.663817	-1.000000	-1.000000	-1.000000	-1.000000	-1.000000	-1.000000	-1.000000	62.000000	0.000000	-1.000000	-1.000000	251795.000000	1775765377.461094
20627.730000	-7668.630000	17238.330000	22576.905000	30465.180000	10540.575000	13347.495000	-22797.360000	8.075739	2.347039	1.181879	-2.169178	-4.485108	-20.540097	-8.346961	10.985637	-1.617560	1.846460	-0.610400	-0.733702	-0.050659	0.663817	-1.000000	-1.000000	-1.000000	-1.000000	-1.000000	-1.000000	-1.000000	62.000000	0.000000	-1.000000	-1.000000	251796.000000	1775765377.461107
20632.905000	-7665.840000	17241.570000	22581.405000	30471.975000	10540.620000	13349.295000	-22796.280000	2.175378	-2.278909	-2.659153	-6.268782	-9.079876	-17.359706	-14.694451	5.368469	-1.617560	1.846460	-0.610400	-0.733702	-0.050659	0.663817	-1.000000	-1.000000	-1.000000	-1.000000	-1.000000	-1.000000	-1.000000	62.000000	0.000000	-1.000000	-1.000000	251797.000000	1775765377.461121
20633.265000	-7667.190000	17240.535000	22584.330000	30476.700000	10533.960000	13354.785000	-22796.055000	-3.571208	-4.989824	-4.418584	-6.602132	-8.782187	-8.602129	-14.735988	-2.016009	-1.617560	1.846460	-0.610400	-0.733702	-0.050659	0.663817	-1.000000	-1.000000	-1.000000	-1.000000	-1.000000	-1.000000	-1.000000	62.000000	0.000000	-1.000000	-1.000000	251798.000000	1775765377.461133
20629.035000	-7667.910000	17241.705000	22589.685000	30481.200000	10534.455000	13358.835000	-22798.755000	-6.452207	-4.938942	-3.578907	-3.370510	-3.957101	1.650902	-8.620724	-7.545723	1.052940	2.670500	-0.579880	-0.732786	-0.053711	0.663695	-1.000000	-1.000000	-1.000000	-1.000000	-1.000000	-1.000000	-1.000000	62.000000	0.000000	-1.000000	-1.000000	251799.000000	1775765377.473276
20627.730000	-7664.670000	17246.970000	22595.220000	30483.855000	10521.315000	13347.135000	-22803.030000	-6.304781	-2.994185	-1.222105	1.246711	2.350962	9.367383	0.169970	-9.477259	1.052940	2.670500	-0.579880	-0.732786	-0.053711	0.663695	-1.000000	-1.000000	-1.000000	-1.000000	-1.000000	-1.000000	-1.000000	62.000000	0.000000	-1.000000	-1.000000	251800.000000	1775765377.473301
20626.830000	-7663.950000	17247.555000	22594.635000	30486.375000	10528.740000	13346.505000	-22804.470000	-4.377411	-0.425959	1.284224	4.726238	6.675120	12.355553	6.785998	-8.127560	1.052940	2.670500	-0.579880	-0.732786	-0.053711	0.663695	-1.000000	-1.000000	-1.000000	-1.000000	-1.000000	-1.000000	-1.000000	62.000000	0.000000	-1.000000	-1.000000	251801.000000	1775765377.473324
20619.720000	-7673.355000	17234.505000	22573.890000	30470.895000	10524.960000	13354.290000	-22810.590000	-1.951863	1.536434	2.579322	5.029226	6.951459	11.135297	8.780116	-4.837586	1.052940	2.670500	-0.579880	-0.732786	-0.053711	0.663695	-1.000000	-1.000000	-1.000000	-1.000000	-1.000000	-1.000000	-1.000000	62.000000	0.000000	-1.000000	-1.000000	251802.000000	1775765377.473335
20630.295000	-7662.420000	17247.420000	22583.970000	30472.920000	10523.520000	13359.735000	-22803.570000	0.209379	2.084998	1.878253	1.682732	3.181326	7.695086	7.479417	-0.961222	1.052940	2.670500	-0.579880	-0.732786	-0.053711	0.663695	-1.000000	-1.000000	-1.000000	-1.000000	-1.000000	-1.000000	-1.000000	62.000000	0.000000	-1.000000	-1.000000	251803.000000	1775765377.473349
20632.005000	-7662.240000	17246.250000	22586.760000	30478.005000	10566.900000	13359.645000	-22800.645000	2.177219	1.733846	0.232031	-2.731447	-2.069571	4.417618	5.230746	2.751945	1.052940	2.670500	-0.579880	-0.732786	-0.053711	0.663695	-1.000000	-1.000000	-1.000000	-1.000000	-1.000000	-1.000000	-1.000000	62.000000	0.000000	-1.000000	-1.000000	251804.000000	1775765377.473360
20628.630000	-7664.625000	17243.820000	22584.645000	30477.105000	10581.615000	13352.220000	-22804.740000	3.898385	1.406846	-0.744911	-4.650995	-5.170655	3.823462	2.772691	5.646197	1.052940	2.670500	-0.579880	-0.732786	-0.053711	0.663695	-1.000000	-1.000000	-1.000000	-1.000000	-1.000000	-1.000000	-1.000000	62.000000	0.000000	-1.000000	-1.000000	251805.000000	1775765377.476373
20616.570000	-7677.540000	17230.635000	22571.685000	30462.570000	10536.795000	13342.230000	-22814.055000	4.190557	0.795315	-1.130521	-3.527874	-4.915055	4.653002	-0.397014	6.448547	1.052940	2.670500	-0.579880	-0.732786	-0.053711	0.663695	-1.000000	-1.000000	-1.000000	-1.000000	-1.000000	-1.000000	-1.000000	62.000000	0.000000	-1.000000	-1.000000	251806.000000	1775765377.476396
20617.425000	-7675.380000	17235.495000	22579.155000	30475.620000	10542.105000	13350.150000	-22810.185000	2.142923	-0.766259	-1.780951	-1.376806	-2.818631	1.400796	-3.948994	4.477160	1.052940	2.670500	-0.579880	-0.732786	-0.053711	0.663695	-1.000000	-1.000000	-1.000000	-1.000000	-1.000000	-1.000000	-1.000000	62.000000	0.000000	-1.000000	-1.000000	251807.000000	1775765377.477006
20618.955000	-7673.265000	17237.610000	22581.405000	30475.260000	10531.755000	13344.300000	-22808.880000	-1.024681	-2.455718	-2.236960	0.588536	-0.144927	-7.208477	-6.034521	1.125368	1.052940	2.670500	-0.579880	-0.732786	-0.053711	0.663695	-1.000000	-1.000000	-1.000000	-1.000000	-1.000000	-1.000000	-1.000000	62.000000	0.000000	-1.000000	-1.000000	251808.000000	1775765377.477026
20624.220000	-7669.080000	17239.770000	22582.800000	30474.675000	10535.895000	13342.230000	-22804.560000	-2.823868	-2.542000	-1.315695	2.429216	2.560849	-15.319261	-5.403708	-1.265985	-0.503580	3.219860	-0.701960	-0.731077	-0.051514	0.663267	-1.000000	-1.000000	-1.000000	-1.000000	-1.000000	-1.000000	-1.000000	62.000000	0.000000	-1.000000	-1.000000	251809.000000	1775765377.482557
20624.715000	-7668.630000	17240.670000	22583.745000	30476.025000	10556.730000	13350.780000	-22802.580000	-2.020719	-0.559092	0.914059	3.834455	4.253872	-16.496352	-2.621506	-1.601746	-0.503580	3.219860	-0.701960	-0.731077	-0.051514	0.663267	-1.000000	-1.000000	-1.000000	-1.000000	-1.000000	-1.000000	-1.000000	62.000000	0.000000	-1.000000	-1.000000	251810.000000	1775765377.482580
20622.690000	-7670.880000	17238.420000	22583.385000	30476.070000	10556.730000	13355.415000	-22803.390000	0.325084	2.070284	3.016627	4.043232	4.138514	-9.101344	1.161551	-0.573126	-0.503580	3.219860	-0.701960	-0.731077	-0.051514	0.663267	-1.000000	-1.000000	-1.000000	-1.000000	-1.000000	-1.000000	-1.000000	62.000000	0.000000	-1.000000	-1.000000	251811.000000	1775765377.486631
20623.320000	-7668.045000	17242.110000	22586.670000	30478.725000	10556.730000	13353.480000	-22804.380000	2.135996	3.489259	3.653495	2.830369	2.528524	2.418802	4.566773	0.329572	-0.503580	3.219860	-0.701960	-0.731077	-0.051514	0.663267	-1.000000	-1.000000	-1.000000	-1.000000	-1.000000	-1.000000	-1.000000	62.000000	0.000000	-1.000000	-1.000000	251812.000000	1775765377.486645
20618.640000	-7663.140000	17242.560000	22586.805000	30478.275000	10564.650000	13348.350000	-22798.710000	2.173669	3.132621	2.695593	0.809060	0.400598	11.133502	5.798000	0.270467	-0.503580	3.219860	-0.701960	-0.731077	-0.051514	0.663267	-1.000000	-1.000000	-1.000000	-1.000000	-1.000000	-1.000000	-1.000000	62.000000	0.000000	-1.000000	-1.000000	251813.000000	1775765377.489043
20611.305000	-7664.130000	17236.530000	22581.225000	30471.030000	10550.115000	13340.070000	-22795.875000	0.509828	1.749833	0.831639	-1.240199	-1.507068	13.013361	3.819384	-0.314450	-0.503580	3.219860	-0.701960	-0.731077	-0.051514	0.663267	-1.000000	-1.000000	-1.000000	-1.000000	-1.000000	-1.000000	-1.000000	62.000000	0.000000	-1.000000	-1.000000	251814.000000	1775765377.489061
20611.935000	-7666.920000	17232.255000	22577.130000	30462.255000	10488.240000	13337.460000	-22796.145000	-1.871296	0.061593	-1.379714	-2.997222	-3.153212	7.189108	-0.453677	-0.690309	-0.503580	3.219860	-0.701960	-0.731077	-0.051514	0.663267	-1.000000	-1.000000	-1.000000	-1.000000	-1.000000	-1.000000	-1.000000	62.000000	0.000000	-1.000000	-1.000000	251815.000000	1775765377.492923
20616.120000	-7669.395000	17235.045000	22578.435000	30464.010000	10492.155000	13333.320000	-22807.170000	-3.329881	-1.702102	-3.278658	-4.145229	-4.416202	-4.519876	-4.540150	-1.014984	-0.503580	3.219860	-0.701960	-0.731077	-0.051514	0.663267	-1.000000	-1.000000	-1.000000	-1.000000	-1.000000	-1.000000	-1.000000	62.000000	0.000000	-1.000000	-1.000000	251816.000000	1775765377.492936
20632.860000	-7655.850000	17251.335000	22592.565000	30472.785000	10505.655000	13331.115000	-22805.640000	-2.315193	-2.933552	-3.525748	-3.748655	-4.222418	-14.798433	-6.159856	-1.884312	-0.503580	3.219860	-0.701960	-0.731077	-0.051514	0.663267	-1.000000	-1.000000	-1.000000	-1.000000	-1.000000	-1.000000	-1.000000	62.000000	0.000000	-1.000000	-1.000000	251817.000000	1775765377.498359
20633.085000	-7655.040000	17254.125000	22595.895000	30474.855000	10531.755000	13340.250000	-22802.715000	1.198493	-2.558935	-1.153926	-1.073603	-1.602378	-14.393149	-4.517075	-2.819050	-0.503580	3.219860	-0.701960	-0.731077	-0.051514	0.663267	-1.000000	-1.000000	-1.000000	-1.000000	-1.000000	-1.000000	-1.000000	62.000000	0.000000	-1.000000	-1.000000	251818.000000	1775765377.498376
20629.080000	-7660.080000	17250.075000	22592.475000	30469.950000	10505.835000	13339.080000	-22800.555000	4.806602	-0.750894	2.466159	2.670894	2.358600	-2.373295	-0.374231	-2.473269	-0.167860	3.250380	0.488320	-0.732603	-0.050659	0.661680	-1.000000	-1.000000	-1.000000	-1.000000	-1.000000	-1.000000	-1.000000	62.000000	0.000000	-1.000000	-1.000000	251819.000000	1775765377.501072
20616.300000	-7673.670000	17237.025000	22585.410000	30475.035000	10491.165000	13346.370000	-22805.415000	5.197908	0.464287	4.079004	4.629288	5.089680	11.498777	4.224971	-0.585005	-0.167860	3.250380	0.488320	-0.732603	-0.050659	0.661680	-1.000000	-1.000000	-1.000000	-1.000000	-1.000000	-1.000000	-1.000000	62.000000	0.000000	-1.000000	-1.000000	251820.000000	1775765377.501091
20602.620000	-7682.085000	17227.080000	22578.660000	30481.875000	10559.160000	13359.915000	-22814.820000	1.151087	-0.598155	1.682438	3.027263	5.299523	18.113979	7.235433	1.368440	-0.167860	3.250380	0.488320	-0.732603	-0.050659	0.661680	-1.000000	-1.000000	-1.000000	-1.000000	-1.000000	-1.000000	-1.000000	62.000000	0.000000	-1.000000	-1.000000	251821.000000	1775765377.506237
20594.430000	-7683.255000	17222.940000	22569.660000	30469.275000	10562.490000	13357.035000	-22827.465000	-5.214153	-3.128478	-3.308505	-1.183925	3.489356	18.100293	7.746711	1.615359	-0.167860	3.250380	0.488320	-0.732603	-0.050659	0.661680	-1.000000	-1.000000	-1.000000	-1.000000	-1.000000	-1.000000	-1.000000	62.000000	0.000000	-1.000000	-1.000000	251822.000000	1775765377.506258
20593.035000	-7688.745000	17221.545000	22572.765000	30480.165000	10583.595000	13380.120000	-22831.155000	-9.790306	-4.549005	-7.146756	-5.173971	0.535661	15.185477	5.842973	-0.070000	-0.167860	3.250380	0.488320	-0.732603	-0.050659	0.661680	-1.000000	-1.000000	-1.000000	-1.000000	-1.000000	-1.000000	-1.000000	62.000000	0.000000	-1.000000	-1.000000	251823.000000	1775765377.509057
20595.690000	-7681.230000	17231.940000	22587.345000	30494.745000	10572.480000	13381.830000	-22830.345000	-9.277301	-3.051684	-6.716095	-5.902925	-1.972381	9.065780	2.601642	-1.899021	-0.167860	3.250380	0.488320	-0.732603	-0.050659	0.661680	-1.000000	-1.000000	-1.000000	-1.000000	-1.000000	-1.000000	-1.000000	62.000000	0.000000	-1.000000	-1.000000	251824.000000	1775765377.509076
20602.710000	-7675.650000	17235.540000	22588.695000	30487.995000	10552.860000	13356.900000	-22823.505000	-3.421465	1.182007	-1.691708	-2.189107	-2.388249	-1.692762	-1.345245	-1.606828	-0.167860	3.250380	0.488320	-0.732603	-0.050659	0.661680	-1.000000	-1.000000	-1.000000	-1.000000	-1.000000	-1.000000	-1.000000	62.000000	0.000000	-1.000000	-1.000000	251825.000000	1775765377.513663
20605.995000	-7677.270000	17232.885000	22586.175000	30485.340000	10563.345000	13349.430000	-22818.240000	4.893737	6.168503	5.069155	3.624113	-1.456473	-15.079867	-6.663283	1.428851	-0.167860	3.250380	0.488320	-0.732603	-0.050659	0.661680	-1.000000	-1.000000	-1.000000	-1.000000	-1.000000	-1.000000	-1.000000	62.000000	0.000000	-1.000000	-1.000000	251826.000000	1775765377.513682
20612.385000	-7673.895000	17233.740000	22584.960000	30481.695000	10557.630000	13357.620000	-22808.565000	11.498618	9.072713	9.382179	7.314580	-1.289164	-24.887916	-12.051977	5.625818	-0.167860	3.250380	0.488320	-0.732603	-0.050659	0.661680	-1.000000	-1.000000	-1.000000	-1.000000	-1.000000	-1.000000	-1.000000	62.000000	0.000000	-1.000000	-1.000000	251827.000000	1775765377.517605
20614.950000	-7672.860000	17233.785000	22587.615000	30487.905000	10558.080000	13367.700000	-22798.305000	13.395457	8.251981	8.971518	6.669209	-2.273063	-25.596251	-13.275135	8.574970	-0.167860	3.250380	0.488320	-0.732603	-0.050659	0.661680	-1.000000	-1.000000	-1.000000	-1.000000	-1.000000	-1.000000	-1.000000	62.000000	0.000000	-1.000000	-1.000000	251828.000000	1775765377.517621
20616.525000	-7669.575000	17235.135000	22588.020000	30486.555000	10539.495000	13348.935000	-22801.725000	10.118400	4.384176	4.777558	2.870210	-2.954650	-17.504725	-8.311122	8.476359	-0.015260	1.846460	0.457800	-0.736326	-0.051575	0.661803	-1.000000	-1.000000	-1.000000	-1.000000	-1.000000	-1.000000	-1.000000	62.000000	0.000000	-1.000000	-1.000000	251829.000000	1775765377.520938
20611.845000	-7669.845000	17236.935000	22590.180000	30486.870000	10537.425000	13345.875000	-22815.630000	3.355175	-0.483195	-0.474257	-1.375616	-2.249939	-5.655398	-0.536318	4.426837	-0.015260	1.846460	0.457800	-0.736326	-0.051575	0.661803	-1.000000	-1.000000	-1.000000	-1.000000	-1.000000	-1.000000	-1.000000	62.000000	0.000000	-1.000000	-1.000000	251830.000000	1775765377.520959
20610.045000	-7669.305000	17238.240000	22591.035000	30486.645000	10547.685000	13350.060000	-22821.255000	-4.194197	-4.428752	-4.294660	-4.011736	-0.530265	5.145328	5.425363	-2.923200	-0.015260	1.846460	0.457800	-0.736326	-0.051575	0.661803	-1.000000	-1.000000	-1.000000	-1.000000	-1.000000	-1.000000	-1.000000	62.000000	0.000000	-1.000000	-1.000000	251831.000000	1775765377.524860
20602.260000	-7671.780000	17235.540000	22587.210000	30480.435000	10558.755000	13350.735000	-22822.065000	-9.902642	-6.465198	-5.667574	-4.531270	1.081456	13.150097	8.169752	-10.404251	-0.015260	1.846460	0.457800	-0.736326	-0.051575	0.661803	-1.000000	-1.000000	-1.000000	-1.000000	-1.000000	-1.000000	-1.000000	62.000000	0.000000	-1.000000	-1.000000	251832.000000	1775765377.524877
20600.910000	-7664.580000	17237.565000	22587.795000	30477.105000	10554.165000	13340.970000	-22813.110000	-12.089041	-6.397414	-5.026005	-3.656576	1.629067	17.780430	8.312976	-13.660245	-0.015260	1.846460	0.457800	-0.736326	-0.051575	0.661803	-1.000000	-1.000000	-1.000000	-1.000000	-1.000000	-1.000000	-1.000000	62.000000	0.000000	-1.000000	-1.000000	251833.000000	1775765377.530341
20603.520000	-7673.850000	17232.255000	22586.085000	30479.895000	10547.685000	13347.315000	-22816.755000	-10.284535	-4.606411	-3.380308	-2.279423	1.113135	17.561453	6.428612	-10.568328	-0.015260	1.846460	0.457800	-0.736326	-0.051575	0.661803	-1.000000	-1.000000	-1.000000	-1.000000	-1.000000	-1.000000	-1.000000	62.000000	0.000000	-1.000000	-1.000000	251834.000000	1775765377.530356
20608.605000	-7672.545000	17234.325000	22589.370000	30482.100000	10532.745000	13353.345000	-22813.740000	-5.131592	-2.195781	-1.624651	-0.804848	0.582984	11.555154	3.653703	-3.146649	-0.015260	1.846460	0.457800	-0.736326	-0.051575	0.661803	-1.000000	-1.000000	-1.000000	-1.000000	-1.000000	-1.000000	-1.000000	62.000000	0.000000	-1.000000	-1.000000	251835.000000	1775765377.532962
20608.470000	-7675.875000	17227.980000	22581.990000	30474.180000	10524.600000	13344.705000	-22810.320000	1.483568	-0.273331	-0.256120	0.540279	0.745975	1.544715	1.346327	4.393188	-0.015260	1.846460	0.457800	-0.736326	-0.051575	0.661803	-1.000000	-1.000000	-1.000000	-1.000000	-1.000000	-1.000000	-1.000000	62.000000	0.000000	-1.000000	-1.000000	251836.000000	1775765377.532979
20619.855000	-7664.895000	17238.150000	22590.810000	30486.510000	10546.515000	13351.455000	-22808.115000	7.014890	1.101974	0.752435	1.470602	1.278715	-7.650347	-0.317727	8.885876	-0.015260	1.846460	0.457800	-0.736326	-0.051575	0.661803	-1.000000	-1.000000	-1.000000	-1.000000	-1.000000	-1.000000	-1.000000	62.000000	0.000000	-1.000000	-1.000000	251837.000000	1775765377.537639
20606.760000	-7679.250000	17225.460000	22579.740000	30480.300000	10581.030000	13359.510000	-22824.405000	9.425878	2.270578	1.610416	1.866100	1.785513	-10.199645	-1.440185	9.030642	-0.015260	1.846460	0.457800	-0.736326	-0.051575	0.661803	-1.000000	-1.000000	-1.000000	-1.000000	-1.000000	-1.000000	-1.000000	62.000000	0.000000	-1.000000	-1.000000	251838.000000	1775765377.538204
20594.970000	-7684.650000	17222.085000	22577.625000	30475.710000	10550.475000	13356.945000	-22836.690000	7.518670	2.602953	1.900599	1.531193	1.799657	-4.839533	-1.682793	4.843065	-1.754900	2.227960	0.030520	-0.736326	-0.051819	0.659361	-1.000000	-1.000000	-1.000000	-1.000000	-1.000000	-1.000000	-1.000000	62.000000	0.000000	-1.000000	-1.000000	251839.000000	1775765377.541576
20602.170000	-7671.465000	17235.675000	22590.630000	30483.180000	10526.805000	13356.945000	-22823.865000	2.006652	1.681670	1.402506	0.682390	0.858317	1.661428	-1.434729	-1.461098	-1.754900	2.227960	0.030520	-0.736326	-0.051819	0.659361	-1.000000	-1.000000	-1.000000	-1.000000	-1.000000	-1.000000	-1.000000	62.000000	0.000000	-1.000000	-1.000000	251840.000000	1775765377.541599
20614.095000	-7660.620000	17244.495000	22597.785000	30485.115000	10522.845000	13357.485000	-22805.370000	-3.388182	1.061860	1.367837	0.627138	-0.368434	1.812710	-1.558540	-5.253761	-1.754900	2.227960	0.030520	-0.736326	-0.051819	0.659361	-1.000000	-1.000000	-1.000000	-1.000000	-1.000000	-1.000000	-1.000000	62.000000	0.000000	-1.000000	-1.000000	251841.000000	1775765377.545816
20611.710000	-7665.525000	17240.355000	22597.785000	30489.885000	10527.750000	13350.510000	-22805.325000	-4.906677	2.042936	2.554266	1.947832	-0.782174	-3.461841	-2.252419	-3.451893	-1.754900	2.227960	0.030520	-0.736326	-0.051819	0.659361	-1.000000	-1.000000	-1.000000	-1.000000	-1.000000	-1.000000	-1.000000	62.000000	0.000000	-1.000000	-1.000000	251842.000000	1775765377.545833
20603.970000	-7675.020000	17231.760000	22591.215000	30485.565000	10533.555000	13343.670000	-22817.565000	-2.809124	3.055463	3.275548	3.019715	-0.404295	-7.307875	-3.238110	1.521516	-1.754900	2.227960	0.030520	-0.736326	-0.051819	0.659361	-1.000000	-1.000000	-1.000000	-1.000000	-1.000000	-1.000000	-1.000000	62.000000	0.000000	-1.000000	-1.000000	251843.000000	1775765377.549682
20585.430000	-7690.005000	17216.280000	22576.455000	30474.135000	10536.165000	13329.045000	-22841.460000	-0.641416	1.513014	1.303202	1.660351	-0.397603	-5.340740	-4.222999	3.917933	-1.754900	2.227960	0.030520	-0.736326	-0.051819	0.659361	-1.000000	-1.000000	-1.000000	-1.000000	-1.000000	-1.000000	-1.000000	62.000000	0.000000	-1.000000	-1.000000	251844.000000	1775765377.549704
20578.590000	-7695.315000	17209.260000	22568.805000	30464.235000	10537.335000	13336.110000	-22845.600000	-1.087229	-2.785300	-3.285835	-2.437528	-1.836901	0.999531	-4.550085	0.759637	-1.754900	2.227960	0.030520	-0.736326	-0.051819	0.659361	-1.000000	-1.000000	-1.000000	-1.000000	-1.000000	-1.000000	-1.000000	62.000000	0.000000	-1.000000	-1.000000	251845.000000	1775765377.552933
20583.990000	-7685.730000	17218.080000	22577.130000	30469.140000	10538.505000	13350.780000	-22831.830000	-3.158039	-6.799800	-7.460734	-6.717947	-4.052884	7.130928	-2.723625	-4.797310	-1.754900	2.227960	0.030520	-0.736326	-0.051819	0.659361	-1.000000	-1.000000	-1.000000	-1.000000	-1.000000	-1.000000	-1.000000	62.000000	0.000000	-1.000000	-1.000000	251846.000000	1775765377.552950
20609.550000	-7661.790000	17244.000000	22604.040000	30495.555000	10549.035000	13375.215000	-22803.840000	-3.107649	-6.427111	-7.098201	-7.053564	-4.248893	9.633268	2.454534	-6.334891	-1.754900	2.227960	0.030520	-0.736326	-0.051819	0.659361	-1.000000	-1.000000	-1.000000	-1.000000	-1.000000	-1.000000	-1.000000	62.000000	0.000000	-1.000000	-1.000000	251847.000000	1775765377.561045
20613.195000	-7662.060000	17242.155000	22601.925000	30496.770000	10558.530000	13375.350000	-22796.370000	1.414475	-0.490557	-0.887366	-1.637893	-0.270157	8.297756	9.425368	-0.831925	-1.754900	2.227960	0.030520	-0.736326	-0.051819	0.659361	-1.000000	-1.000000	-1.000000	-1.000000	-1.000000	-1.000000	-1.000000	62.000000	0.000000	-1.000000	-1.000000	251848.000000	1775765377.561064
20602.755000	-7671.645000	17232.480000	22592.295000	30486.510000	10549.935000	13360.725000	-22807.395000	7.710030	6.878234	6.960313	5.809645	5.608153	4.628988	13.327689	7.536727	-1.297100	2.105880	0.213640	-0.735350	-0.051330	0.659971	-1.000000	-1.000000	-1.000000	-1.000000	-1.000000	-1.000000	-1.000000	62.000000	0.000000	-1.000000	-1.000000	251849.000000	1775765377.561622
20605.230000	-7668.720000	17235.900000	22596.840000	30487.005000	10524.960000	13354.785000	-22809.195000	10.214024	9.732673	10.219383	9.216075	8.219693	-0.743205	9.824193	11.255641	-1.297100	2.105880	0.213640	-0.735350	-0.051330	0.659971	-1.000000	-1.000000	-1.000000	-1.000000	-1.000000	-1.000000	-1.000000	62.000000	0.000000	-1.000000	-1.000000	251850.000000	1775765377.561638
20603.385000	-7672.500000	17230.410000	22589.235000	30475.665000	10500.975000	13354.020000	-22810.545000	6.623045	6.275980	6.920945	6.443823	5.196171	-7.811122	0.050183	7.104059	-1.297100	2.105880	0.213640	-0.735350	-0.051330	0.659971	-1.000000	-1.000000	-1.000000	-1.000000	-1.000000	-1.000000	-1.000000	62.000000	0.000000	-1.000000	-1.000000	251851.000000	1775765377.566020
20595.510000	-7681.410000	17222.580000	22581.495000	30467.655000	10502.055000	13352.130000	-22816.755000	-0.518732	-0.591844	-0.052603	0.009379	-1.385519	-14.408065	-9.911378	-1.642235	-1.297100	2.105880	0.213640	-0.735350	-0.051330	0.659971	-1.000000	-1.000000	-1.000000	-1.000000	-1.000000	-1.000000	-1.000000	62.000000	0.000000	-1.000000	-1.000000	251852.000000	1775765377.566043
20589.120000	-7686.270000	17219.295000	22581.540000	30475.755000	10569.465000	13357.530000	-22822.785000	-7.263006	-6.928354	-6.600261	-6.183391	-7.339768	-14.755488	-14.318435	-9.481293	-1.297100	2.105880	0.213640	-0.735350	-0.051330	0.659971	-1.000000	-1.000000	-1.000000	-1.000000	-1.000000	-1.000000	-1.000000	62.000000	0.000000	-1.000000	-1.000000	251853.000000	1775765377.581851
20587.725000	-7687.575000	17217.855000	22582.035000	30479.220000	10561.185000	13359.105000	-22823.280000	-10.758184	-9.923210	-9.684815	-8.927944	-8.842988	-4.455221	-11.512327	-12.701468	-1.297100	2.105880	0.213640	-0.735350	-0.051330	0.659971	-1.000000	-1.000000	-1.000000	-1.000000	-1.000000	-1.000000	-1.000000	62.000000	0.000000	-1.000000	-1.000000	251854.000000	1775765377.581877
20587.860000	-7686.315000	17218.305000	22581.945000	30478.635000	10568.520000	13359.465000	-22821.615000	-9.783803	-8.457364	-8.216118	-7.075452	-5.076159	11.346936	-4.035709	-10.372057	-1.297100	2.105880	0.213640	-0.735350	-0.051330	0.659971	-1.000000	-1.000000	-1.000000	-1.000000	-1.000000	-1.000000	-1.000000	62.000000	0.000000	-1.000000	-1.000000	251855.000000	1775765377.581904
20588.130000	-7681.140000	17224.245000	22587.660000	30483.090000	10594.485000	13357.440000	-22819.590000	-5.008863	-3.346011	-3.221193	-2.005893	1.146814	21.561140	3.588141	-3.991402	-1.297100	2.105880	0.213640	-0.735350	-0.051330	0.659971	-1.000000	-1.000000	-1.000000	-1.000000	-1.000000	-1.000000	-1.000000	62.000000	0.000000	-1.000000	-1.000000	251856.000000	1775765377.581915
20588.310000	-7678.215000	17227.035000	22590.630000	30476.700000	10547.955000	13349.115000	-22821.075000	1.259552	3.085680	2.943880	3.638640	5.964351	19.810594	7.662351	3.335895	-1.297100	2.105880	0.213640	-0.735350	-0.051330	0.659971	-1.000000	-1.000000	-1.000000	-1.000000	-1.000000	-1.000000	-1.000000	62.000000	0.000000	-1.000000	-1.000000	251857.000000	1775765377.581930
20597.310000	-7675.200000	17230.410000	22590.630000	30470.985000	10482.570000	13351.455000	-22816.530000	6.449553	8.054464	7.660043	7.387890	6.929041	5.550975	7.132534	8.471010	-1.297100	2.105880	0.213640	-0.735350	-0.051330	0.659971	-1.000000	-1.000000	-1.000000	-1.000000	-1.000000	-1.000000	-1.000000	62.000000	0.000000	-1.000000	-1.000000	251858.000000	1775765377.581941
20593.260000	-7680.195000	17225.730000	22586.445000	30470.580000	10475.280000	13345.155000	-22819.545000	8.974403	9.474550	8.985041	7.708578	4.069596	-16.286692	3.672641	9.811431	-0.289940	1.205540	1.052940	-0.736570	-0.051941	0.658873	-1.000000	-1.000000	-1.000000	-1.000000	-1.000000	-1.000000	-1.000000	62.000000	0.000000	-1.000000	-1.000000	251859.000000	1775765377.581954
20602.935000	-7671.330000	17229.105000	22591.755000	30486.465000	10514.835000	13353.435000	-22812.030000	8.391513	7.025629	6.528657	4.748365	0.031868	-32.444771	0.079486	7.697994	-0.289940	1.205540	1.052940	-0.736570	-0.051941	0.658873	-1.000000	-1.000000	-1.000000	-1.000000	-1.000000	-1.000000	-1.000000	62.000000	0.000000	-1.000000	-1.000000	251860.000000	1775765377.581965
20601.630000	-7671.960000	17230.680000	22592.430000	30485.970000	10521.360000	13350.105000	-22811.580000	5.380516	2.467845	1.854186	0.464311	-1.942765	-29.411268	-1.619326	3.823306	-0.289940	1.205540	1.052940	-0.736570	-0.051941	0.658873	-1.000000	-1.000000	-1.000000	-1.000000	-1.000000	-1.000000	-1.000000	62.000000	0.000000	-1.000000	-1.000000	251861.000000	1775765377.587613
20596.455000	-7677.315000	17226.585000	22590.900000	30481.605000	10528.245000	13335.750000	-22818.015000	1.177454	-1.946229	-2.620380	-2.909876	-1.284608	-7.736122	-1.504878	-0.138234	-0.289940	1.205540	1.052940	-0.736570	-0.051941	0.658873	-1.000000	-1.000000	-1.000000	-1.000000	-1.000000	-1.000000	-1.000000	62.000000	0.000000	-1.000000	-1.000000	251862.000000	1775765377.587639
20593.485000	-7683.300000	17218.170000	22582.395000	30477.240000	10555.920000	13339.080000	-22821.795000	-3.199046	-5.181016	-5.503377	-4.587427	-0.236140	18.466264	-1.197040	-3.513650	-0.289940	1.205540	1.052940	-0.736570	-0.051941	0.658873	-1.000000	-1.000000	-1.000000	-1.000000	-1.000000	-1.000000	-1.000000	62.000000	0.000000	-1.000000	-1.000000	251863.000000	1775765377.588965
20589.210000	-7682.895000	17221.635000	22588.740000	30491.415000	10583.865000	13355.055000	-22829.175000	-6.664179	-6.912052	-6.566403	-4.879551	-0.362458	35.254208	-0.984354	-6.009026	-0.289940	1.205540	1.052940	-0.736570	-0.051941	0.658873	-1.000000	-1.000000	-1.000000	-1.000000	-1.000000	-1.000000	-1.000000	62.000000	0.000000	-1.000000	-1.000000	251864.000000	1775765377.588986
20595.375000	-7673.400000	17232.480000	22599.495000	30497.130000	10569.510000	13381.515000	-22821.975000	-7.895665	-6.448369	-5.442135	-3.658906	-0.722112	36.493034	0.900102	-6.875587	-0.289940	1.205540	1.052940	-0.736570	-0.051941	0.658873	-1.000000	-1.000000	-1.000000	-1.000000	-1.000000	-1.000000	-1.000000	62.000000	0.000000	-1.000000	-1.000000	251865.000000	1775765377.593518
20593.935000	-7671.420000	17234.550000	22599.495000	30494.205000	10571.085000	13378.545000	-22818.420000	-6.126323	-3.327336	-1.893537	-0.704179	-0.200567	22.683141	4.896423	-5.180921	-0.289940	1.205540	1.052940	-0.736570	-0.051941	0.658873	-1.000000	-1.000000	-1.000000	-1.000000	-1.000000	-1.000000	-1.000000	62.000000	0.000000	-1.000000	-1.000000	251866.000000	1775765377.593538
20594.160000	-7664.850000	17238.645000	22603.320000	30502.395000	10580.625000	13368.015000	-22814.820000	-2.140535	1.352900	2.690545	2.733439	0.589561	0.374762	7.632244	-1.086156	-0.289940	1.205540	1.052940	-0.736570	-0.051941	0.658873	-1.000000	-1.000000	-1.000000	-1.000000	-1.000000	-1.000000	-1.000000	62.000000	0.000000	-1.000000	-1.000000	251867.000000	1775765377.599435
20599.965000	-7661.835000	17241.525000	22606.335000	30501.945000	10518.660000	13346.460000	-22813.065000	2.099300	5.296194	5.838750	4.642059	0.704447	-20.883969	4.811714	3.508979	-0.289940	1.205540	1.052940	-0.736570	-0.051941	0.658873	-1.000000	-1.000000	-1.000000	-1.000000	-1.000000	-1.000000	-1.000000	62.000000	0.000000	-1.000000	-1.000000	251868.000000	1775765377.599460
