Channel1	Channel2	Channel3	Channel4	Channel5	Channel6	Channel7	Channel8	FilteredChannel1	FilteredChannel2	FilteredChannel3	FilteredChannel4	FilteredChannel5	FilteredChannel6	FilteredChannel7	FilteredChannel8	GyroX	GyroY	GyroZ	AccX	AccY	AccZ	PPG1	PPG2	rawPPG1	rawPPG2	rawPPG3	Hr	Hrv	Battery	Trigger	PhysicalTrigger	AutoTrigger	NumMeasurements	Timestamp
-11790.990000	-7701.930000	-3768.570000	12124.620000	2718.855000	3934.440000	-20725.065000	-25572.915000	12.274408	7.823128	-4.516279	-13.064848	-8.634611	4.575760	3.679947	5.590518	-6.805960	2.395820	-0.885080	-0.827390	0.101684	0.540038	-1.000000	-1.000000	-1.000000	-1.000000	-1.000000	-1.000000	-1.000000	56.000000	0.000000	-1.000000	-1.000000	2251573.000000	1776580906.474587
-11796.210000	-7710.300000	-3775.860000	12118.365000	2713.140000	3930.660000	-20724.030000	-25574.130000	11.779593	11.502020	2.112856	-0.870172	-4.457914	-2.685340	1.189967	5.257547	-6.805960	2.395820	-0.885080	-0.827390	0.101684	0.540038	-1.000000	-1.000000	-1.000000	-1.000000	-1.000000	-1.000000	-1.000000	56.000000	0.000000	-1.000000	-1.000000	2251574.000000	1776580906.478446
-11793.285000	-7705.170000	-3778.785000	12104.820000	2701.890000	3932.190000	-20727.495000	-25573.500000	6.936085	11.546998	8.075170	10.586930	-0.265909	-11.319657	-1.765016	3.442355	-6.805960	2.395820	-0.885080	-0.827390	0.101684	0.540038	-1.000000	-1.000000	-1.000000	-1.000000	-1.000000	-1.000000	-1.000000	56.000000	0.000000	-1.000000	-1.000000	2251575.000000	1776580906.478456
-11790.315000	-7698.285000	-3768.975000	12118.905000	2716.650000	3951.810000	-20723.265000	-25573.230000	0.830668	8.689172	9.927294	14.414547	2.055849	-14.564646	-3.571027	0.938895	-6.805960	2.395820	-0.885080	-0.827390	0.101684	0.540038	-1.000000	-1.000000	-1.000000	-1.000000	-1.000000	-1.000000	-1.000000	56.000000	0.000000	-1.000000	-1.000000	2251576.000000	1776580906.482543
-11786.220000	-7693.965000	-3763.845000	12119.760000	2707.560000	3957.930000	-20722.590000	-25574.355000	-3.460617	4.845166	7.833558	10.581126	2.778846	-9.158400	-3.389568	-1.325415	-6.805960	2.395820	-0.885080	-0.827390	0.101684	0.540038	-1.000000	-1.000000	-1.000000	-1.000000	-1.000000	-1.000000	-1.000000	56.000000	0.000000	-1.000000	-1.000000	2251577.000000	1776580906.482553
-11779.830000	-7693.830000	-3769.110000	12110.940000	2701.215000	3938.985000	-20724.660000	-25569.225000	-4.600875	1.431339	3.963636	3.534411	2.726322	1.240722	-1.616358	-2.634424	-6.805960	2.395820	-0.885080	-0.827390	0.101684	0.540038	-1.000000	-1.000000	-1.000000	-1.000000	-1.000000	-1.000000	-1.000000	56.000000	0.000000	-1.000000	-1.000000	2251578.000000	1776580906.486577
-11783.520000	-7696.485000	-3766.455000	12120.120000	2711.250000	3938.850000	-20725.065000	-25568.190000	-3.335345	-1.457277	-0.221797	-2.926896	2.022736	9.002186	0.391349	-2.630291	-6.805960	2.395820	-0.885080	-0.827390	0.101684	0.540038	-1.000000	-1.000000	-1.000000	-1.000000	-1.000000	-1.000000	-1.000000	56.000000	0.000000	-1.000000	-1.000000	2251579.000000	1776580906.486587
-11787.615000	-7702.920000	-3772.845000	12111.345000	2701.305000	3939.795000	-20718.270000	-25565.265000	-1.693612	-4.185248	-3.930291	-6.712442	1.188300	9.839849	1.605316	-1.547854	-6.805960	2.395820	-0.885080	-0.827390	0.101684	0.540038	-1.000000	-1.000000	-1.000000	-1.000000	-1.000000	-1.000000	-1.000000	56.000000	0.000000	-1.000000	-1.000000	2251580.000000	1776580906.490481
-11793.600000	-7708.995000	-3778.740000	12107.475000	2704.095000	3949.965000	-20718.225000	-25569.990000	-1.383162	-6.639941	-6.492836	-7.423809	0.649743	5.833831	2.045249	-0.282682	-6.805960	2.395820	-0.885080	-0.827390	0.101684	0.540038	-1.000000	-1.000000	-1.000000	-1.000000	-1.000000	-1.000000	-1.000000	56.000000	0.000000	-1.000000	-1.000000	2251581.000000	1776580906.490497
-11804.580000	-7722.900000	-3784.590000	12113.910000	2720.925000	3959.325000	-20722.815000	-25578.045000	-2.582360	-8.195281	-7.517962	-5.933732	0.588513	1.645346	1.860943	0.053315	-5.875100	2.655240	-1.526000	-0.829099	0.097656	0.539855	-1.000000	-1.000000	-1.000000	-1.000000	-1.000000	-1.000000	-1.000000	56.000000	0.000000	-1.000000	-1.000000	2251582.000000	1776580906.494534
-11796.435000	-7719.030000	-3781.305000	12116.160000	2718.495000	3944.970000	-20723.130000	-25570.035000	-3.960819	-8.048027	-6.659841	-2.936259	1.465121	-0.355675	0.823513	-0.787751	-5.875100	2.655240	-1.526000	-0.829099	0.097656	0.539855	-1.000000	-1.000000	-1.000000	-1.000000	-1.000000	-1.000000	-1.000000	56.000000	0.000000	-1.000000	-1.000000	2251583.000000	1776580906.494543
-11786.625000	-7702.695000	-3768.345000	12122.055000	2713.770000	3936.150000	-20722.005000	-25566.705000	-3.356456	-5.087103	-3.457123	0.911296	2.511738	-1.472928	-0.789324	-1.493954	-5.875100	2.655240	-1.526000	-0.829099	0.097656	0.539855	-1.000000	-1.000000	-1.000000	-1.000000	-1.000000	-1.000000	-1.000000	56.000000	0.000000	-1.000000	-1.000000	2251584.000000	1776580906.498441
-11792.115000	-7694.325000	-3764.610000	12119.670000	2707.155000	3930.930000	-20726.145000	-25575.390000	0.108616	1.151762	1.806588	4.235825	1.791622	-3.535520	-2.061643	-0.913444	-5.875100	2.655240	-1.526000	-0.829099	0.097656	0.539855	-1.000000	-1.000000	-1.000000	-1.000000	-1.000000	-1.000000	-1.000000	56.000000	0.000000	-1.000000	-1.000000	2251585.000000	1776580906.498458
-11800.440000	-7697.790000	-3764.070000	12114.675000	2704.635000	3941.955000	-20724.390000	-25580.970000	4.177128	8.329939	7.002619	5.398553	-1.179820	-5.600887	-2.387570	0.137090	-5.875100	2.655240	-1.526000	-0.829099	0.097656	0.539855	-1.000000	-1.000000	-1.000000	-1.000000	-1.000000	-1.000000	-1.000000	56.000000	0.000000	-1.000000	-1.000000	2251586.000000	1776580906.502735
-11794.455000	-7695.900000	-3764.340000	12114.090000	2699.820000	3945.060000	-20721.330000	-25576.380000	5.743864	12.091115	9.149178	3.720785	-4.644619	-5.088054	-1.667729	0.447673	-5.875100	2.655240	-1.526000	-0.829099	0.097656	0.539855	-1.000000	-1.000000	-1.000000	-1.000000	-1.000000	-1.000000	-1.000000	56.000000	0.000000	-1.000000	-1.000000	2251587.000000	1776580906.502749
-11787.660000	-7694.055000	-3766.005000	12113.280000	2695.410000	3935.880000	-20722.410000	-25574.040000	4.508863	10.088370	6.952168	0.349873	-6.402130	-1.537360	-0.149120	0.391449	-5.875100	2.655240	-1.526000	-0.829099	0.097656	0.539855	-1.000000	-1.000000	-1.000000	-1.000000	-1.000000	-1.000000	-1.000000	56.000000	0.000000	-1.000000	-1.000000	2251588.000000	1776580906.506634
-11786.445000	-7695.045000	-3765.375000	12116.745000	2699.640000	3927.870000	-20723.265000	-25572.060000	2.447495	3.865280	1.784242	-2.510956	-5.393658	2.274325	1.384186	0.919330	-5.875100	2.655240	-1.526000	-0.829099	0.097656	0.539855	-1.000000	-1.000000	-1.000000	-1.000000	-1.000000	-1.000000	-1.000000	56.000000	0.000000	-1.000000	-1.000000	2251589.000000	1776580906.506663
-11786.445000	-7696.305000	-3765.690000	12122.280000	2710.395000	3927.285000	-20728.125000	-25573.680000	0.840470	-3.110026	-3.519069	-3.210098	-1.727016	3.567556	1.964251	1.902923	-5.875100	2.655240	-1.526000	-0.829099	0.097656	0.539855	-1.000000	-1.000000	-1.000000	-1.000000	-1.000000	-1.000000	-1.000000	56.000000	0.000000	-1.000000	-1.000000	2251590.000000	1776580906.510613
-11794.545000	-7707.375000	-3774.015000	12122.235000	2716.965000	3928.725000	-20732.670000	-25577.775000	-0.590417	-8.084583	-6.706228	-1.662205	3.493463	2.472046	1.178471	2.292708	-5.875100	2.655240	-1.526000	-0.829099	0.097656	0.539855	-1.000000	-1.000000	-1.000000	-1.000000	-1.000000	-1.000000	-1.000000	56.000000	0.000000	-1.000000	-1.000000	2251591.000000	1776580906.510626
-11796.660000	-7711.200000	-3776.130000	12119.085000	2714.940000	3931.110000	-20733.750000	-25578.675000	-2.426614	-10.049583	-7.259576	0.607726	7.915082	1.045653	-0.459071	1.363096	-5.203660	3.082520	-2.426340	-0.828428	0.091614	0.541319	-1.000000	-1.000000	-1.000000	-1.000000	-1.000000	-1.000000	-1.000000	56.000000	0.000000	-1.000000	-1.000000	2251592.000000	1776580906.514578
-11800.395000	-7707.915000	-3772.395000	12118.905000	2711.070000	3930.120000	-20738.610000	-25588.665000	-4.304531	-8.942367	-5.608010	1.742354	8.819074	0.695829	-1.829555	-0.607290	-5.203660	3.082520	-2.426340	-0.828428	0.091614	0.541319	-1.000000	-1.000000	-1.000000	-1.000000	-1.000000	-1.000000	-1.000000	56.000000	0.000000	-1.000000	-1.000000	2251593.000000	1776580906.514588
-11797.965000	-7694.550000	-3760.200000	12134.205000	2726.685000	3946.455000	-20733.120000	-25590.465000	-5.011705	-4.753957	-2.046679	1.457139	5.607782	1.468157	-1.994043	-2.715537	-5.203660	3.082520	-2.426340	-0.828428	0.091614	0.541319	-1.000000	-1.000000	-1.000000	-1.000000	-1.000000	-1.000000	-1.000000	56.000000	0.000000	-1.000000	-1.000000	2251594.000000	1776580906.518697
-11800.440000	-7701.480000	-3764.925000	12139.470000	2733.885000	3930.390000	-20732.265000	-25585.740000	-3.714202	1.534966	2.630257	1.143560	0.852204	2.537975	-0.652883	-3.736154	-5.203660	3.082520	-2.426340	-0.828428	0.091614	0.541319	-1.000000	-1.000000	-1.000000	-1.000000	-1.000000	-1.000000	-1.000000	56.000000	0.000000	-1.000000	-1.000000	2251595.000000	1776580906.518716
-11799.585000	-7708.950000	-3775.140000	12130.560000	2726.730000	3910.725000	-20736.315000	-25577.685000	-0.863498	6.855212	6.062246	1.380849	-2.657619	1.948113	1.494174	-2.487577	-5.203660	3.082520	-2.426340	-0.828428	0.091614	0.541319	-1.000000	-1.000000	-1.000000	-1.000000	-1.000000	-1.000000	-1.000000	56.000000	0.000000	-1.000000	-1.000000	2251596.000000	1776580906.522658
-11795.040000	-7705.980000	-3769.470000	12116.340000	2707.695000	3930.075000	-20729.160000	-25572.060000	2.248609	8.173220	5.988220	0.617322	-4.985724	-1.289688	3.073615	0.971310	-5.203660	3.082520	-2.426340	-0.828428	0.091614	0.541319	-1.000000	-1.000000	-1.000000	-1.000000	-1.000000	-1.000000	-1.000000	56.000000	0.000000	-1.000000	-1.000000	2251597.000000	1776580906.522675
-11806.290000	-7719.615000	-3775.905000	12112.830000	2707.470000	3943.395000	-20728.170000	-25578.225000	4.283172	5.367149	2.899067	-2.342302	-7.395003	-4.178196	3.392594	4.628430	-5.203660	3.082520	-2.426340	-0.828428	0.091614	0.541319	-1.000000	-1.000000	-1.000000	-1.000000	-1.000000	-1.000000	-1.000000	56.000000	0.000000	-1.000000	-1.000000	2251598.000000	1776580906.526597
-11791.440000	-7701.390000	-3763.530000	12119.985000	2707.110000	3950.145000	-20726.775000	-25569.090000	4.453052	0.940079	-0.582822	-5.709873	-9.019493	-3.053422	2.651525	5.943162	-5.203660	3.082520	-2.426340	-0.828428	0.091614	0.541319	-1.000000	-1.000000	-1.000000	-1.000000	-1.000000	-1.000000	-1.000000	56.000000	0.000000	-1.000000	-1.000000	2251599.000000	1776580906.526607
-11770.155000	-7674.165000	-3738.780000	12137.940000	2713.095000	3927.105000	-20731.815000	-25555.500000	3.726288	-1.399592	-1.701580	-5.901598	-7.516405	0.837301	1.075373	4.509168	-5.203660	3.082520	-2.426340	-0.828428	0.091614	0.541319	-1.000000	-1.000000	-1.000000	-1.000000	-1.000000	-1.000000	-1.000000	56.000000	0.000000	-1.000000	-1.000000	2251600.000000	1776580906.530577
-11764.080000	-7670.205000	-3741.480000	12134.970000	2702.430000	3897.315000	-20726.280000	-25550.145000	3.880396	0.567358	0.518419	-1.494786	-2.508114	2.215351	-1.014434	2.126137	-5.203660	3.082520	-2.426340	-0.828428	0.091614	0.541319	-1.000000	-1.000000	-1.000000	-1.000000	-1.000000	-1.000000	-1.000000	56.000000	0.000000	-1.000000	-1.000000	2251601.000000	1776580906.530585
-11791.755000	-7692.570000	-3773.250000	12101.535000	2687.220000	3938.805000	-20712.870000	-25573.095000	3.911569	4.012787	2.977777	3.984458	3.106922	-0.997421	-2.484289	-0.360463	-4.578000	2.899400	-1.739640	-0.828001	0.088745	0.540465	-1.000000	-1.000000	-1.000000	-1.000000	-1.000000	-1.000000	-1.000000	56.000000	0.000000	-1.000000	-1.000000	2251602.000000	1776580906.534612
-11818.170000	-7722.360000	-3797.280000	12082.905000	2687.805000	3953.655000	-20728.755000	-25594.245000	0.206635	2.957986	0.641180	4.780387	5.934161	-3.666149	-2.410869	-4.248124	-4.578000	2.899400	-1.739640	-0.828001	0.088745	0.540465	-1.000000	-1.000000	-1.000000	-1.000000	-1.000000	-1.000000	-1.000000	56.000000	0.000000	-1.000000	-1.000000	2251603.000000	1776580906.534625
-11819.295000	-7725.240000	-3800.115000	12080.160000	2687.130000	3955.680000	-20737.530000	-25593.615000	-7.776951	-4.524410	-6.792800	-0.243090	5.611091	-0.821160	-1.952159	-9.540570	-4.578000	2.899400	-1.739640	-0.828001	0.088745	0.540465	-1.000000	-1.000000	-1.000000	-1.000000	-1.000000	-1.000000	-1.000000	56.000000	0.000000	-1.000000	-1.000000	2251604.000000	1776580906.538711
-11817.225000	-7720.155000	-3791.745000	12091.635000	2694.510000	3946.455000	-20736.090000	-25591.455000	-14.601819	-12.891368	-13.013895	-5.614487	4.366185	4.803710	-2.628971	-12.580857	-4.578000	2.899400	-1.739640	-0.828001	0.088745	0.540465	-1.000000	-1.000000	-1.000000	-1.000000	-1.000000	-1.000000	-1.000000	56.000000	0.000000	-1.000000	-1.000000	2251605.000000	1776580906.538728
-11817.810000	-7719.255000	-3787.020000	12100.095000	2688.435000	3899.925000	-20748.015000	-25593.660000	-14.125217	-14.579703	-11.486774	-5.212964	3.870567	6.181357	-3.771720	-9.714762	-4.578000	2.899400	-1.739640	-0.828001	0.088745	0.540465	-1.000000	-1.000000	-1.000000	-1.000000	-1.000000	-1.000000	-1.000000	56.000000	0.000000	-1.000000	-1.000000	2251606.000000	1776580906.542584
-11818.170000	-7717.230000	-3778.875000	12118.590000	2704.185000	3892.635000	-20760.525000	-25596.990000	-5.866705	-7.597329	-1.972329	1.764623	3.987715	-0.244817	-4.061249	-1.765101	-4.578000	2.899400	-1.739640	-0.828001	0.088745	0.540465	-1.000000	-1.000000	-1.000000	-1.000000	-1.000000	-1.000000	-1.000000	56.000000	0.000000	-1.000000	-1.000000	2251607.000000	1776580906.542595
-11797.425000	-7694.910000	-3750.705000	12154.905000	2745.225000	3918.510000	-20748.555000	-25582.545000	5.591076	3.938495	10.265127	11.332087	4.714433	-9.603814	-2.929558	7.105366	-4.578000	2.899400	-1.739640	-0.828001	0.088745	0.540465	-1.000000	-1.000000	-1.000000	-1.000000	-1.000000	-1.000000	-1.000000	56.000000	0.000000	-1.000000	-1.000000	2251608.000000	1776580906.546526
-11785.005000	-7687.440000	-3750.030000	12144.240000	2741.940000	3942.540000	-20737.305000	-25572.420000	15.222313	14.375171	19.188944	18.042237	6.415627	-12.050818	0.349399	13.403325	-4.578000	2.899400	-1.739640	-0.828001	0.088745	0.540465	-1.000000	-1.000000	-1.000000	-1.000000	-1.000000	-1.000000	-1.000000	56.000000	0.000000	-1.000000	-1.000000	2251609.000000	1776580906.546535
-11792.745000	-7698.645000	-3766.815000	12128.040000	2731.140000	3940.470000	-20735.460000	-25577.190000	19.359856	18.968482	20.106348	16.556612	6.658316	-3.688450	5.579826	15.343742	-4.578000	2.899400	-1.739640	-0.828001	0.088745	0.540465	-1.000000	-1.000000	-1.000000	-1.000000	-1.000000	-1.000000	-1.000000	56.000000	0.000000	-1.000000	-1.000000	2251610.000000	1776580906.550576
-11785.725000	-7693.065000	-3752.730000	12160.035000	2757.285000	3947.580000	-20711.520000	-25562.970000	15.922291	15.154079	11.624548	5.743321	2.296531	8.954557	10.459672	12.281871	-4.578000	2.899400	-1.739640	-0.828001	0.088745	0.540465	-1.000000	-1.000000	-1.000000	-1.000000	-1.000000	-1.000000	-1.000000	56.000000	0.000000	-1.000000	-1.000000	2251611.000000	1776580906.550583
-11792.790000	-7704.360000	-3769.020000	12118.365000	2708.505000	3969.900000	-20704.905000	-25564.365000	6.181854	4.734453	-2.022889	-8.662032	-5.834997	16.775802	12.540936	5.531966	-4.639040	2.746800	-1.175020	-0.829893	0.089294	0.537779	-1.000000	-1.000000	-1.000000	-1.000000	-1.000000	-1.000000	-1.000000	56.000000	0.000000	-1.000000	-1.000000	2251612.000000	1776580906.554809
-11810.295000	-7717.095000	-3792.960000	12072.285000	2669.760000	3960.945000	-20717.235000	-25578.990000	-5.698142	-7.229521	-14.427248	-20.770239	-15.388893	16.039513	10.278783	-2.429433	-4.639040	2.746800	-1.175020	-0.829893	0.089294	0.537779	-1.000000	-1.000000	-1.000000	-1.000000	-1.000000	-1.000000	-1.000000	56.000000	0.000000	-1.000000	-1.000000	2251613.000000	1776580906.554827
-11808.180000	-7708.680000	-3782.565000	12097.305000	2698.200000	3958.470000	-20716.695000	-25580.205000	-15.273757	-15.629122	-21.274427	-27.645316	-23.085231	7.950249	3.138577	-9.658695	-4.639040	2.746800	-1.175020	-0.829893	0.089294	0.537779	-1.000000	-1.000000	-1.000000	-1.000000	-1.000000	-1.000000	-1.000000	56.000000	0.000000	-1.000000	-1.000000	2251614.000000	1776580906.558735
-11796.255000	-7695.270000	-3769.830000	12110.895000	2705.625000	3960.225000	-20709.720000	-25574.400000	-18.653758	-16.701706	-19.769462	-24.846825	-22.241359	-3.661231	-6.399231	-13.979126	-4.639040	2.746800	-1.175020	-0.829893	0.089294	0.537779	-1.000000	-1.000000	-1.000000	-1.000000	-1.000000	-1.000000	-1.000000	56.000000	0.000000	-1.000000	-1.000000	2251615.000000	1776580906.558748
-11799.990000	-7703.955000	-3776.310000	12105.720000	2699.235000	3951.270000	-20709.585000	-25572.915000	-14.074373	-10.091336	-9.892587	-10.348949	-9.666016	-13.554089	-13.354210	-13.178622	-4.639040	2.746800	-1.175020	-0.829893	0.089294	0.537779	-1.000000	-1.000000	-1.000000	-1.000000	-1.000000	-1.000000	-1.000000	56.000000	0.000000	-1.000000	-1.000000	2251616.000000	1776580906.563986
-11798.820000	-7710.480000	-3775.005000	12115.080000	2703.690000	3936.420000	-20712.915000	-25571.160000	-4.286138	-0.396539	3.241107	9.244500	8.184584	-18.073101	-14.559765	-7.458596	-4.639040	2.746800	-1.175020	-0.829893	0.089294	0.537779	-1.000000	-1.000000	-1.000000	-1.000000	-1.000000	-1.000000	-1.000000	56.000000	0.000000	-1.000000	-1.000000	2251617.000000	1776580906.563997
-11798.055000	-7714.440000	-3776.940000	12117.285000	2703.105000	3926.385000	-20716.425000	-25570.980000	5.226346	6.394573	12.776140	23.789317	21.412897	-16.889182	-10.795277	0.152957	-4.639040	2.746800	-1.175020	-0.829893	0.089294	0.537779	-1.000000	-1.000000	-1.000000	-1.000000	-1.000000	-1.000000	-1.000000	56.000000	0.000000	-1.000000	-1.000000	2251618.000000	1776580906.566727
-11783.970000	-7700.400000	-3765.420000	12120.480000	2703.195000	3925.710000	-20713.410000	-25561.215000	10.688765	8.127665	15.429730	27.459965	24.597742	-11.374450	-4.824633	6.246001	-4.639040	2.746800	-1.175020	-0.829893	0.089294	0.537779	-1.000000	-1.000000	-1.000000	-1.000000	-1.000000	-1.000000	-1.000000	56.000000	0.000000	-1.000000	-1.000000	2251619.000000	1776580906.566738
-11780.775000	-7701.165000	-3768.345000	12118.770000	2710.980000	3945.735000	-20709.945000	-25558.065000	11.665500	6.830346	12.349804	20.590195	18.500056	-2.713919	1.084104	9.138171	-4.639040	2.746800	-1.175020	-0.829893	0.089294	0.537779	-1.000000	-1.000000	-1.000000	-1.000000	-1.000000	-1.000000	-1.000000	56.000000	0.000000	-1.000000	-1.000000	2251620.000000	1776580906.570631
-11790.315000	-7698.015000	-3778.920000	12103.110000	2702.385000	3957.840000	-20713.590000	-25567.020000	9.070268	4.893939	6.161507	7.472567	7.707446	7.817673	5.565409	8.549555	-4.639040	2.746800	-1.175020	-0.829893	0.089294	0.537779	-1.000000	-1.000000	-1.000000	-1.000000	-1.000000	-1.000000	-1.000000	56.000000	0.000000	-1.000000	-1.000000	2251621.000000	1776580906.570648
-11794.365000	-7695.225000	-3773.565000	12106.215000	2701.305000	3942.090000	-20722.545000	-25572.330000	3.613630	2.962629	-0.904829	-6.358948	-3.022345	16.791758	7.450266	4.702531	-5.585160	-0.015260	1.907500	-0.834043	0.089844	0.536315	-1.000000	-1.000000	-1.000000	-1.000000	-1.000000	-1.000000	-1.000000	56.000000	0.000000	-1.000000	-1.000000	2251622.000000	1776580906.574895
-11789.100000	-7688.385000	-3762.630000	12122.235000	2710.035000	3936.600000	-20724.120000	-25571.655000	-2.973725	1.033371	-6.200022	-15.348382	-10.360628	19.092698	6.200496	-0.942978	-5.585160	-0.015260	1.907500	-0.834043	0.089844	0.536315	-1.000000	-1.000000	-1.000000	-1.000000	-1.000000	-1.000000	-1.000000	56.000000	0.000000	-1.000000	-1.000000	2251623.000000	1776580906.574918
-11790.855000	-7691.085000	-3762.225000	12124.530000	2698.560000	3930.705000	-20729.565000	-25577.010000	-7.610381	-0.724646	-7.400032	-15.894785	-12.614999	12.787815	2.901748	-5.603953	-5.585160	-0.015260	1.907500	-0.834043	0.089844	0.536315	-1.000000	-1.000000	-1.000000	-1.000000	-1.000000	-1.000000	-1.000000	56.000000	0.000000	-1.000000	-1.000000	2251624.000000	1776580906.578736
-11801.565000	-7704.945000	-3778.875000	12108.600000	2693.295000	3934.845000	-20735.235000	-25585.245000	-8.507630	-2.556525	-5.236556	-9.651467	-10.677192	1.818641	-0.427850	-7.300240	-5.585160	-0.015260	1.907500	-0.834043	0.089844	0.536315	-1.000000	-1.000000	-1.000000	-1.000000	-1.000000	-1.000000	-1.000000	56.000000	0.000000	-1.000000	-1.000000	2251625.000000	1776580906.578770
-11800.485000	-7706.340000	-3784.815000	12097.980000	2692.350000	3931.200000	-20732.580000	-25582.905000	-6.503019	-4.856941	-3.004152	-2.588833	-6.959375	-7.436056	-2.245360	-6.005864	-5.585160	-0.015260	1.907500	-0.834043	0.089844	0.536315	-1.000000	-1.000000	-1.000000	-1.000000	-1.000000	-1.000000	-1.000000	56.000000	0.000000	-1.000000	-1.000000	2251626.000000	1776580906.582821
-11804.220000	-7708.815000	-3777.165000	12117.600000	2708.730000	3925.755000	-20734.470000	-25585.740000	-3.220176	-6.753686	-2.385393	1.219887	-2.656913	-11.168042	-1.939419	-2.670795	-5.585160	-0.015260	1.907500	-0.834043	0.089844	0.536315	-1.000000	-1.000000	-1.000000	-1.000000	-1.000000	-1.000000	-1.000000	56.000000	0.000000	-1.000000	-1.000000	2251627.000000	1776580906.582846
-11801.025000	-7707.870000	-3774.870000	12124.395000	2711.835000	3927.510000	-20732.175000	-25581.645000	0.327408	-6.474944	-1.836680	2.921568	2.288283	-9.610761	0.011304	1.466487	-5.585160	-0.015260	1.907500	-0.834043	0.089844	0.536315	-1.000000	-1.000000	-1.000000	-1.000000	-1.000000	-1.000000	-1.000000	56.000000	0.000000	-1.000000	-1.000000	2251628.000000	1776580906.587643
-11792.250000	-7696.845000	-3765.870000	12126.465000	2715.840000	3948.930000	-20724.840000	-25572.060000	3.628726	-3.194936	0.407141	4.832489	6.927741	-4.651538	2.416456	5.178378	-5.585160	-0.015260	1.907500	-0.834043	0.089844	0.536315	-1.000000	-1.000000	-1.000000	-1.000000	-1.000000	-1.000000	-1.000000	56.000000	0.000000	-1.000000	-1.000000	2251629.000000	1776580906.587676
-11786.175000	-7682.805000	-3757.095000	12123.675000	2706.480000	3928.680000	-20722.770000	-25564.140000	6.349177	2.381601	4.004462	6.368462	8.871202	1.517791	4.207242	7.671724	-5.585160	-0.015260	1.907500	-0.834043	0.089844	0.536315	-1.000000	-1.000000	-1.000000	-1.000000	-1.000000	-1.000000	-1.000000	56.000000	0.000000	-1.000000	-1.000000	2251630.000000	1776580906.595302
-11770.110000	-7669.350000	-3743.910000	12134.430000	2716.605000	3915.900000	-20716.290000	-25551.675000	8.013397	8.313815	7.245330	5.785743	6.703430	5.370649	4.653043	8.461666	-5.585160	-0.015260	1.907500	-0.834043	0.089844	0.536315	-1.000000	-1.000000	-1.000000	-1.000000	-1.000000	-1.000000	-1.000000	56.000000	0.000000	-1.000000	-1.000000	2251631.000000	1776580906.595328
-11791.260000	-7695.810000	-3762.180000	12127.455000	2720.520000	3919.905000	-20731.095000	-25570.395000	7.602130	11.333805	8.016185	2.992291	1.983284	4.373959	3.181972	6.802394	-6.012440	-0.228900	0.488320	-0.835020	0.090027	0.536925	-1.000000	-1.000000	-1.000000	-1.000000	-1.000000	-1.000000	-1.000000	56.000000	0.000000	-1.000000	-1.000000	2251632.000000	1776580906.595432
-11806.515000	-7711.065000	-3775.815000	12121.335000	2720.880000	3943.620000	-20735.685000	-25583.085000	3.518953	7.994564	4.373588	-0.966326	-2.277041	0.893832	-0.454944	1.696794	-6.012440	-0.228900	0.488320	-0.835020	0.090027	0.536925	-1.000000	-1.000000	-1.000000	-1.000000	-1.000000	-1.000000	-1.000000	56.000000	0.000000	-1.000000	-1.000000	2251633.000000	1776580906.595442
-11815.380000	-7716.780000	-3782.340000	12113.370000	2715.345000	3965.535000	-20726.415000	-25592.040000	-4.105434	-1.339786	-3.225011	-5.030214	-4.595550	-0.017224	-4.911227	-6.102228	-6.012440	-0.228900	0.488320	-0.835020	0.090027	0.536925	-1.000000	-1.000000	-1.000000	-1.000000	-1.000000	-1.000000	-1.000000	56.000000	0.000000	-1.000000	-1.000000	2251634.000000	1776580906.598814
-11827.170000	-7727.670000	-3797.235000	12092.625000	2689.830000	3951.720000	-20726.145000	-25600.635000	-11.588883	-11.081382	-10.839631	-8.168525	-5.766550	2.921161	-7.200516	-12.898553	-6.012440	-0.228900	0.488320	-0.835020	0.090027	0.536925	-1.000000	-1.000000	-1.000000	-1.000000	-1.000000	-1.000000	-1.000000	56.000000	0.000000	-1.000000	-1.000000	2251635.000000	1776580906.598823
-11822.445000	-7721.055000	-3794.625000	12089.745000	2681.055000	3936.105000	-20723.805000	-25591.815000	-14.274733	-15.017080	-13.971546	-9.463647	-7.149460	5.150795	-5.682606	-14.477674	-6.012440	-0.228900	0.488320	-0.835020	0.090027	0.536925	-1.000000	-1.000000	-1.000000	-1.000000	-1.000000	-1.000000	-1.000000	56.000000	0.000000	-1.000000	-1.000000	2251636.000000	1776580906.602870
-11817.630000	-7710.210000	-3779.145000	12111.930000	2705.130000	3941.235000	-20729.295000	-25589.700000	-9.999265	-10.671373	-10.330647	-7.456002	-7.683831	2.257396	-1.807113	-9.210135	-6.012440	-0.228900	0.488320	-0.835020	0.090027	0.536925	-1.000000	-1.000000	-1.000000	-1.000000	-1.000000	-1.000000	-1.000000	56.000000	0.000000	-1.000000	-1.000000	2251637.000000	1776580906.602898
-11805.930000	-7704.135000	-3771.045000	12121.335000	2712.195000	3948.660000	-20730.330000	-25584.435000	-0.335415	-0.231867	-0.784002	-0.784334	-4.125840	-3.986656	1.630316	0.608246	-6.012440	-0.228900	0.488320	-0.835020	0.090027	0.536925	-1.000000	-1.000000	-1.000000	-1.000000	-1.000000	-1.000000	-1.000000	56.000000	0.000000	-1.000000	-1.000000	2251638.000000	1776580906.606807
-11793.015000	-7701.525000	-3771.945000	12122.370000	2708.235000	3932.190000	-20730.330000	-25573.860000	10.344174	10.648173	10.142745	8.532583	3.640887	-8.502582	2.976020	10.169737	-6.012440	-0.228900	0.488320	-0.835020	0.090027	0.536925	-1.000000	-1.000000	-1.000000	-1.000000	-1.000000	-1.000000	-1.000000	56.000000	0.000000	-1.000000	-1.000000	2251639.000000	1776580906.606834
-11792.205000	-7703.055000	-3776.220000	12119.355000	2699.865000	3911.715000	-20739.600000	-25574.715000	17.167534	16.173454	16.326492	14.949087	10.590177	-9.396502	2.353299	15.281412	-6.012440	-0.228900	0.488320	-0.835020	0.090027	0.536925	-1.000000	-1.000000	-1.000000	-1.000000	-1.000000	-1.000000	-1.000000	56.000000	0.000000	-1.000000	-1.000000	2251640.000000	1776580906.610735
-11800.485000	-7698.555000	-3759.930000	12138.210000	2706.030000	3932.370000	-20744.595000	-25584.975000	16.742885	14.036424	14.764204	14.550078	11.868682	-7.658703	0.590185	13.913979	-6.012440	-0.228900	0.488320	-0.835020	0.090027	0.536925	-1.000000	-1.000000	-1.000000	-1.000000	-1.000000	-1.000000	-1.000000	56.000000	0.000000	-1.000000	-1.000000	2251641.000000	1776580906.610748
-11823.705000	-7710.030000	-3752.865000	12153.105000	2712.735000	3952.800000	-20741.670000	-25600.185000	8.503060	6.176135	7.861435	8.778823	7.664195	-2.940259	-1.199974	6.425831	-3.616620	-1.098720	0.167860	-0.833311	0.088012	0.540465	-1.000000	-1.000000	-1.000000	-1.000000	-1.000000	-1.000000	-1.000000	56.000000	0.000000	-1.000000	-1.000000	2251642.000000	1776580906.614709
-11833.110000	-7731.810000	-3790.080000	12094.020000	2711.025000	3969.585000	-20726.460000	-25593.255000	-4.442548	-3.753434	-0.493047	0.709140	1.702628	5.217708	-1.391616	-3.832099	-3.616620	-1.098720	0.167860	-0.833311	0.088012	0.540465	-1.000000	-1.000000	-1.000000	-1.000000	-1.000000	-1.000000	-1.000000	56.000000	0.000000	-1.000000	-1.000000	2251643.000000	1776580906.614722
-11811.555000	-7709.490000	-3788.505000	12083.535000	2689.830000	3948.120000	-20720.160000	-25578.990000	-15.429705	-11.888853	-8.694058	-9.189348	-3.380914	13.155151	1.012777	-11.106823	-3.616620	-1.098720	0.167860	-0.833311	0.088012	0.540465	-1.000000	-1.000000	-1.000000	-1.000000	-1.000000	-1.000000	-1.000000	56.000000	0.000000	-1.000000	-1.000000	2251644.000000	1776580906.618963
-11805.930000	-7709.490000	-3789.765000	12087.495000	2677.905000	3930.975000	-20720.205000	-25578.720000	-17.593527	-14.109353	-14.783360	-18.639413	-7.466827	14.407099	4.628347	-11.194651	-3.616620	-1.098720	0.167860	-0.833311	0.088012	0.540465	-1.000000	-1.000000	-1.000000	-1.000000	-1.000000	-1.000000	-1.000000	56.000000	0.000000	-1.000000	-1.000000	2251645.000000	1776580906.618986
-11801.970000	-7705.575000	-3785.265000	12094.380000	2687.490000	3931.695000	-20715.570000	-25579.440000	-9.880485	-9.100436	-15.262629	-21.095993	-10.074011	6.618242	6.446916	-5.344180	-3.616620	-1.098720	0.167860	-0.833311	0.088012	0.540465	-1.000000	-1.000000	-1.000000	-1.000000	-1.000000	-1.000000	-1.000000	56.000000	0.000000	-1.000000	-1.000000	2251646.000000	1776580906.622846
-11803.635000	-7710.300000	-3786.345000	12097.035000	2690.415000	3922.155000	-20724.615000	-25587.180000	1.745924	-0.590832	-9.132769	-12.954220	-8.969069	-5.078947	4.626653	1.243586	-3.616620	-1.098720	0.167860	-0.833311	0.088012	0.540465	-1.000000	-1.000000	-1.000000	-1.000000	-1.000000	-1.000000	-1.000000	56.000000	0.000000	-1.000000	-1.000000	2251647.000000	1776580906.622865
-11804.490000	-7712.865000	-3785.805000	12101.445000	2692.845000	3920.445000	-20735.685000	-25597.845000	9.875467	5.976257	0.381583	1.740450	-3.319687	-13.152735	-0.427404	4.133629	-3.616620	-1.098720	0.167860	-0.833311	0.088012	0.540465	-1.000000	-1.000000	-1.000000	-1.000000	-1.000000	-1.000000	-1.000000	56.000000	0.000000	-1.000000	-1.000000	2251648.000000	1776580906.626801
-11802.015000	-7704.450000	-3772.395000	12116.655000	2706.210000	3937.725000	-20738.070000	-25595.235000	11.060186	7.848467	8.704478	15.243989	4.366958	-13.404392	-6.525487	2.608787	-3.616620	-1.098720	0.167860	-0.833311	0.088012	0.540465	-1.000000	-1.000000	-1.000000	-1.000000	-1.000000	-1.000000	-1.000000	56.000000	0.000000	-1.000000	-1.000000	2251649.000000	1776580906.626812
-11797.380000	-7695.000000	-3758.895000	12132.945000	2719.350000	3941.235000	-20739.375000	-25587.315000	6.808871	6.186327	13.242577	22.083233	10.614598	-6.175200	-10.407316	-0.420216	-3.616620	-1.098720	0.167860	-0.833311	0.088012	0.540465	-1.000000	-1.000000	-1.000000	-1.000000	-1.000000	-1.000000	-1.000000	56.000000	0.000000	-1.000000	-1.000000	2251650.000000	1776580906.630778
-11795.580000	-7693.155000	-3756.105000	12136.095000	2721.825000	3942.360000	-20728.710000	-25579.305000	1.016600	3.655653	13.583818	20.910723	13.051823	4.085013	-9.499721	-1.344643	-3.616620	-1.098720	0.167860	-0.833311	0.088012	0.540465	-1.000000	-1.000000	-1.000000	-1.000000	-1.000000	-1.000000	-1.000000	56.000000	0.000000	-1.000000	-1.000000	2251651.000000	1776580906.630785
-11801.700000	-7704.810000	-3771.630000	12114.360000	2690.145000	3914.235000	-20728.800000	-25579.080000	-3.364410	1.263688	9.617669	12.567192	9.982552	10.795833	-3.835641	0.721660	-2.548420	-0.122080	2.777320	-0.829283	0.085571	0.538878	-1.000000	-1.000000	-1.000000	-1.000000	-1.000000	-1.000000	-1.000000	56.000000	0.000000	-1.000000	-1.000000	2251652.000000	1776580906.634923
-11796.390000	-7702.470000	-3772.890000	12116.790000	2699.145000	3919.365000	-20731.320000	-25575.030000	-5.462107	-1.561942	1.689100	-0.644348	1.308907	9.774144	3.502995	3.606638	-2.548420	-0.122080	2.777320	-0.829283	0.085571	0.538878	-1.000000	-1.000000	-1.000000	-1.000000	-1.000000	-1.000000	-1.000000	56.000000	0.000000	-1.000000	-1.000000	2251653.000000	1776580906.634941
-11796.705000	-7703.595000	-3773.475000	12120.345000	2714.670000	3945.060000	-20722.815000	-25570.575000	-5.385462	-4.502019	-7.409234	-13.553567	-8.514417	3.486337	8.535365	4.780204	-2.548420	-0.122080	2.777320	-0.829283	0.085571	0.538878	-1.000000	-1.000000	-1.000000	-1.000000	-1.000000	-1.000000	-1.000000	56.000000	0.000000	-1.000000	-1.000000	2251654.000000	1776580906.638838
-11800.530000	-7709.265000	-3780.630000	12114.225000	2711.745000	3943.395000	-20722.815000	-25569.270000	-3.686434	-6.093096	-13.330576	-20.137081	-12.921430	-1.416120	9.438373	3.496957	-2.548420	-0.122080	2.777320	-0.829283	0.085571	0.538878	-1.000000	-1.000000	-1.000000	-1.000000	-1.000000	-1.000000	-1.000000	56.000000	0.000000	-1.000000	-1.000000	2251655.000000	1776580906.638847
-11811.420000	-7718.670000	-3788.325000	12110.220000	2705.670000	3915.000000	-20738.340000	-25576.290000	-1.689399	-5.736759	-13.780926	-18.351883	-10.219100	-2.426968	6.553239	0.434584	-2.548420	-0.122080	2.777320	-0.829283	0.085571	0.538878	-1.000000	-1.000000	-1.000000	-1.000000	-1.000000	-1.000000	-1.000000	56.000000	0.000000	-1.000000	-1.000000	2251656.000000	1776580906.642851
-11817.090000	-7723.980000	-3787.110000	12125.205000	2715.930000	3908.205000	-20730.510000	-25583.265000	-0.718691	-4.113557	-9.573592	-10.509973	-4.056172	-2.893000	1.183666	-3.389482	-2.548420	-0.122080	2.777320	-0.829283	0.085571	0.538878	-1.000000	-1.000000	-1.000000	-1.000000	-1.000000	-1.000000	-1.000000	56.000000	0.000000	-1.000000	-1.000000	2251657.000000	1776580906.642865
-11800.305000	-7705.125000	-3775.725000	12129.840000	2700.990000	3897.855000	-20729.250000	-25582.950000	-0.421001	-1.541186	-2.657018	-0.165972	1.483144	-5.148161	-3.996852	-6.634221	-2.548420	-0.122080	2.777320	-0.829283	0.085571	0.538878	-1.000000	-1.000000	-1.000000	-1.000000	-1.000000	-1.000000	-1.000000	56.000000	0.000000	-1.000000	-1.000000	2251658.000000	1776580906.646618
-11775.195000	-7673.265000	-3763.620000	12109.545000	2675.430000	3903.435000	-20731.455000	-25569.045000	1.435450	2.971531	5.153143	8.581203	3.609884	-7.127548	-6.239078	-7.358534	-2.548420	-0.122080	2.777320	-0.829283	0.085571	0.538878	-1.000000	-1.000000	-1.000000	-1.000000	-1.000000	-1.000000	-1.000000	56.000000	0.000000	-1.000000	-1.000000	2251659.000000	1776580906.646634
-11769.390000	-7668.855000	-3756.510000	12115.755000	2688.210000	3934.710000	-20717.865000	-25555.365000	5.931040	9.409810	11.698820	11.783902	1.702005	-5.154823	-4.945966	-4.074734	-2.548420	-0.122080	2.777320	-0.829283	0.085571	0.538878	-1.000000	-1.000000	-1.000000	-1.000000	-1.000000	-1.000000	-1.000000	56.000000	0.000000	-1.000000	-1.000000	2251660.000000	1776580906.650866
-11784.240000	-7684.110000	-3762.855000	12113.505000	2708.415000	3985.155000	-20715.435000	-25564.815000	9.936567	13.788312	14.233008	9.041535	-0.708335	2.896237	-1.294172	1.966628	-2.548420	-0.122080	2.777320	-0.829283	0.085571	0.538878	-1.000000	-1.000000	-1.000000	-1.000000	-1.000000	-1.000000	-1.000000	56.000000	0.000000	-1.000000	-1.000000	2251661.000000	1776580906.650877
-11803.995000	-7708.590000	-3772.845000	12116.070000	2725.875000	4007.745000	-20712.015000	-25577.955000	8.323700	10.613549	10.768648	3.784862	1.023051	14.897547	2.648773	6.390769	0.534100	0.717220	0.717220	-0.827451	0.084289	0.539305	-1.000000	-1.000000	-1.000000	-1.000000	-1.000000	-1.000000	-1.000000	56.000000	0.000000	-1.000000	-1.000000	2251662.000000	1776580906.654889
-11791.800000	-7688.520000	-3759.120000	12134.160000	2734.200000	3978.855000	-20713.905000	-25571.295000	0.220482	-0.203936	2.523389	-0.134557	6.806900	22.866944	4.597745	5.790674	0.534100	0.717220	0.717220	-0.827451	0.084289	0.539305	-1.000000	-1.000000	-1.000000	-1.000000	-1.000000	-1.000000	-1.000000	56.000000	0.000000	-1.000000	-1.000000	2251663.000000	1776580906.654898
-11787.255000	-7685.595000	-3758.940000	12136.230000	2732.310000	3962.160000	-20712.510000	-25564.770000	-8.713663	-11.296328	-5.761556	-0.777243	11.612059	17.750274	3.525466	1.669810	0.534100	0.717220	0.717220	-0.827451	0.084289	0.539305	-1.000000	-1.000000	-1.000000	-1.000000	-1.000000	-1.000000	-1.000000	56.000000	0.000000	-1.000000	-1.000000	2251664.000000	1776580906.658858
-11798.190000	-7693.380000	-3762.495000	12125.970000	2714.085000	3957.480000	-20717.955000	-25568.730000	-12.236183	-15.276426	-9.864332	0.607779	10.215859	-0.687305	0.273800	-1.880956	0.534100	0.717220	0.717220	-0.827451	0.084289	0.539305	-1.000000	-1.000000	-1.000000	-1.000000	-1.000000	-1.000000	-1.000000	56.000000	0.000000	-1.000000	-1.000000	2251665.000000	1776580906.658873
-11787.480000	-7685.550000	-3761.730000	12127.545000	2718.045000	3959.595000	-20712.690000	-25559.010000	-9.377788	-11.478843	-9.345810	0.849209	1.802868	-21.482790	-3.213795	-2.741811	0.534100	0.717220	0.717220	-0.827451	0.084289	0.539305	-1.000000	-1.000000	-1.000000	-1.000000	-1.000000	-1.000000	-1.000000	56.000000	0.000000	-1.000000	-1.000000	2251666.000000	1776580906.667203
-11790.495000	-7696.350000	-3782.295000	12104.775000	2701.215000	3950.280000	-20710.530000	-25563.870000	-3.025043	-4.001848	-6.468806	-1.653625	-9.081489	-32.058457	-4.941958	-1.427824	0.534100	0.717220	0.717220	-0.827451	0.084289	0.539305	-1.000000	-1.000000	-1.000000	-1.000000	-1.000000	-1.000000	-1.000000	56.000000	0.000000	-1.000000	-1.000000	2251667.000000	1776580906.667221
-11788.830000	-7688.205000	-3771.630000	12109.230000	2696.670000	3942.810000	-20719.215000	-25568.955000	3.327825	2.773864	-3.578810	-5.717911	-16.451330	-28.041307	-4.211990	0.238624	0.534100	0.717220	0.717220	-0.827451	0.084289	0.539305	-1.000000	-1.000000	-1.000000	-1.000000	-1.000000	-1.000000	-1.000000	56.000000	0.000000	-1.000000	-1.000000	2251668.000000	1776580906.667237
-11781.135000	-7673.895000	-3754.710000	12128.085000	2713.320000	3934.440000	-20723.040000	-25564.545000	7.146000	6.835390	-0.725154	-7.948797	-16.632867	-13.980461	-2.256557	0.684283	0.534100	0.717220	0.717220	-0.827451	0.084289	0.539305	-1.000000	-1.000000	-1.000000	-1.000000	-1.000000	-1.000000	-1.000000	56.000000	0.000000	-1.000000	-1.000000	2251669.000000	1776580906.667242
-11783.970000	-7679.340000	-3759.390000	12124.530000	2712.690000	3932.730000	-20718.360000	-25560.180000	7.748828	8.440929	3.258387	-5.270503	-9.225420	2.231600	-0.506768	0.139038	0.534100	0.717220	0.717220	-0.827451	0.084289	0.539305	-1.000000	-1.000000	-1.000000	-1.000000	-1.000000	-1.000000	-1.000000	56.000000	0.000000	-1.000000	-1.000000	2251670.000000	1776580906.670751
-11789.730000	-7687.440000	-3766.995000	12118.545000	2697.210000	3917.250000	-20718.990000	-25562.160000	5.578085	7.531643	7.010498	0.978145	1.815320	14.215022	0.953298	-0.177452	0.534100	0.717220	0.717220	-0.827451	0.084289	0.539305	-1.000000	-1.000000	-1.000000	-1.000000	-1.000000	-1.000000	-1.000000	56.000000	0.000000	-1.000000	-1.000000	2251671.000000	1776580906.670770
-11787.795000	-7683.930000	-3759.795000	12134.655000	2713.320000	3919.950000	-20722.320000	-25562.970000	1.564469	3.783330	7.670826	6.333672	10.268478	18.991628	2.327985	0.022946	2.182180	0.442540	0.839300	-0.829954	0.086242	0.541564	-1.000000	-1.000000	-1.000000	-1.000000	-1.000000	-1.000000	-1.000000	56.000000	0.000000	-1.000000	-1.000000	2251672.000000	1776580906.674820
-11789.145000	-7686.270000	-3758.670000	12145.455000	2727.495000	3915.765000	-20732.670000	-25564.545000	-2.500217	-1.242832	4.970214	8.503486	13.368530	17.303445	2.944833	0.155142	2.182180	0.442540	0.839300	-0.829954	0.086242	0.541564	-1.000000	-1.000000	-1.000000	-1.000000	-1.000000	-1.000000	-1.000000	56.000000	0.000000	-1.000000	-1.000000	2251673.000000	1776580906.674829
-11806.470000	-7708.050000	-3784.275000	12109.950000	2690.145000	3936.510000	-20720.925000	-25574.040000	-5.070116	-5.305059	0.634116	7.281002	11.763358	12.486773	2.318712	-0.271351	2.182180	0.442540	0.839300	-0.829954	0.086242	0.541564	-1.000000	-1.000000	-1.000000	-1.000000	-1.000000	-1.000000	-1.000000	56.000000	0.000000	-1.000000	-1.000000	2251674.000000	1776580906.678716
-11807.055000	-7712.820000	-3795.255000	12089.970000	2678.580000	3962.205000	-20712.600000	-25575.975000	-6.013665	-7.653211	-4.332896	1.777637	5.527000	8.382433	1.559366	-1.291067	2.182180	0.442540	0.839300	-0.829954	0.086242	0.541564	-1.000000	-1.000000	-1.000000	-1.000000	-1.000000	-1.000000	-1.000000	56.000000	0.000000	-1.000000	-1.000000	2251675.000000	1776580906.678724
-11790.990000	-7685.955000	-3763.845000	12125.205000	2725.155000	3994.560000	-20701.935000	-25569.450000	-5.087415	-7.409417	-7.996747	-6.205085	-2.931030	7.174172	2.132675	-2.078860	2.182180	0.442540	0.839300	-0.829954	0.086242	0.541564	-1.000000	-1.000000	-1.000000	-1.000000	-1.000000	-1.000000	-1.000000	56.000000	0.000000	-1.000000	-1.000000	2251676.000000	1776580906.682795
-11789.370000	-7672.095000	-3749.445000	12136.770000	2734.065000	3985.290000	-20706.480000	-25568.055000	-1.423404	-2.691056	-6.460592	-9.931015	-6.810142	7.329392	3.538081	-1.349419	2.182180	0.442540	0.839300	-0.829954	0.086242	0.541564	-1.000000	-1.000000	-1.000000	-1.000000	-1.000000	-1.000000	-1.000000	56.000000	0.000000	-1.000000	-1.000000	2251677.000000	1776580906.682809
-11784.285000	-7671.600000	-3746.970000	12141.855000	2731.005000	3964.995000	-20709.990000	-25558.560000	3.987157	5.531997	0.948917	-5.321535	-3.165576	3.976291	3.526857	1.117814	2.182180	0.442540	0.839300	-0.829954	0.086242	0.541564	-1.000000	-1.000000	-1.000000	-1.000000	-1.000000	-1.000000	-1.000000	56.000000	0.000000	-1.000000	-1.000000	2251678.000000	1776580906.686967
-11787.705000	-7680.060000	-3752.865000	12143.340000	2725.020000	3958.740000	-20713.635000	-25560.090000	7.958242	11.836929	8.778660	3.503860	2.626209	-5.846403	0.693823	3.996374	2.182180	0.442540	0.839300	-0.829954	0.086242	0.541564	-1.000000	-1.000000	-1.000000	-1.000000	-1.000000	-1.000000	-1.000000	56.000000	0.000000	-1.000000	-1.000000	2251679.000000	1776580906.686979
-11781.540000	-7679.205000	-3754.260000	12146.310000	2721.285000	3948.075000	-20713.860000	-25557.165000	8.043917	11.305413	10.759330	9.391989	4.059207	-18.388302	-3.764981	5.381609	2.182180	0.442540	0.839300	-0.829954	0.086242	0.541564	-1.000000	-1.000000	-1.000000	-1.000000	-1.000000	-1.000000	-1.000000	56.000000	0.000000	-1.000000	-1.000000	2251680.000000	1776580906.691155
-11778.615000	-7678.575000	-3755.835000	12142.890000	2729.115000	3951.180000	-20713.995000	-25556.040000	4.595509	4.400288	5.712037	8.772954	0.272127	-25.932906	-7.096874	4.237098	2.182180	0.442540	0.839300	-0.829954	0.086242	0.541564	-1.000000	-1.000000	-1.000000	-1.000000	-1.000000	-1.000000	-1.000000	56.000000	0.000000	-1.000000	-1.000000	2251681.000000	1776580906.691170
-11787.435000	-7684.695000	-3760.515000	12133.710000	2723.220000	3952.620000	-20717.055000	-25565.355000	-0.256739	-4.191600	-2.542468	2.739252	-4.878375	-23.330604	-7.388668	1.000148	1.113980	0.564620	1.632820	-0.829771	0.089905	0.541441	-1.000000	-1.000000	-1.000000	-1.000000	-1.000000	-1.000000	-1.000000	56.000000	0.000000	-1.000000	-1.000000	2251682.000000	1776580906.695202
-11786.445000	-7682.715000	-3758.940000	12130.245000	2718.180000	3954.330000	-20718.135000	-25567.425000	-4.661221	-9.942737	-9.061409	-5.066291	-7.731618	-11.467127	-4.816614	-3.075615	1.113980	0.564620	1.632820	-0.829771	0.089905	0.541441	-1.000000	-1.000000	-1.000000	-1.000000	-1.000000	-1.000000	-1.000000	56.000000	0.000000	-1.000000	-1.000000	2251683.000000	1776580906.695224
-11773.890000	-7671.465000	-3748.815000	12142.215000	2723.220000	3939.435000	-20712.420000	-25555.905000	-7.053943	-10.601149	-10.644113	-10.328995	-7.261201	3.506013	-0.851440	-6.066716	1.113980	0.564620	1.632820	-0.829771	0.089905	0.541441	-1.000000	-1.000000	-1.000000	-1.000000	-1.000000	-1.000000	-1.000000	56.000000	0.000000	-1.000000	-1.000000	2251684.000000	1776580906.698734
-11775.150000	-7674.120000	-3752.730000	12138.480000	2714.895000	3929.670000	-20715.300000	-25556.625000	-6.158862	-6.407409	-6.990723	-10.082470	-4.168451	14.144783	2.984397	-5.974151	1.113980	0.564620	1.632820	-0.829771	0.089905	0.541441	-1.000000	-1.000000	-1.000000	-1.000000	-1.000000	-1.000000	-1.000000	56.000000	0.000000	-1.000000	-1.000000	2251685.000000	1776580906.698748
-11786.040000	-7686.270000	-3764.700000	12121.065000	2710.260000	3946.995000	-20717.370000	-25563.735000	-2.886888	-0.397662	-1.069827	-5.318571	-0.197102	17.009906	5.324178	-2.987906	1.113980	0.564620	1.632820	-0.829771	0.089905	0.541441	-1.000000	-1.000000	-1.000000	-1.000000	-1.000000	-1.000000	-1.000000	56.000000	0.000000	-1.000000	-1.000000	2251686.000000	1776580906.702760
-11792.160000	-7693.380000	-3772.395000	12110.355000	2709.405000	3970.710000	-20711.475000	-25566.480000	-0.152187	3.337695	2.937187	-0.314716	2.785947	14.810209	5.433476	0.311635	1.113980	0.564620	1.632820	-0.829771	0.089905	0.541441	-1.000000	-1.000000	-1.000000	-1.000000	-1.000000	-1.000000	-1.000000	56.000000	0.000000	-1.000000	-1.000000	2251687.000000	1776580906.702770
-11790.090000	-7690.005000	-3767.805000	12119.085000	2717.190000	3974.985000	-20711.115000	-25567.065000	0.437237	3.331434	3.425637	2.175430	4.342219	11.999657	3.911915	1.874827	1.113980	0.564620	1.632820	-0.829771	0.089905	0.541441	-1.000000	-1.000000	-1.000000	-1.000000	-1.000000	-1.000000	-1.000000	56.000000	0.000000	-1.000000	-1.000000	2251688.000000	1776580906.706854
-11782.395000	-7681.275000	-3760.110000	12126.510000	2720.745000	3973.590000	-20708.505000	-25560.180000	0.155597	1.777887	2.392771	3.368227	5.247401	9.276750	1.925113	1.946301	1.113980	0.564620	1.632820	-0.829771	0.089905	0.541441	-1.000000	-1.000000	-1.000000	-1.000000	-1.000000	-1.000000	-1.000000	56.000000	0.000000	-1.000000	-1.000000	2251689.000000	1776580906.706862
-11781.810000	-7679.340000	-3758.355000	12129.255000	2718.495000	3961.665000	-20705.175000	-25555.140000	0.962567	1.508559	2.419181	5.293855	5.747205	4.298006	0.207581	1.979298	1.113980	0.564620	1.632820	-0.829771	0.089905	0.541441	-1.000000	-1.000000	-1.000000	-1.000000	-1.000000	-1.000000	-1.000000	56.000000	0.000000	-1.000000	-1.000000	2251690.000000	1776580906.710706
-11778.165000	-7673.130000	-3752.640000	12134.970000	2719.440000	3956.355000	-20703.780000	-25552.215000	2.954943	2.967210	3.781960	7.567344	5.048021	-3.797252	-0.950942	2.684933	1.113980	0.564620	1.632820	-0.829771	0.089905	0.541441	-1.000000	-1.000000	-1.000000	-1.000000	-1.000000	-1.000000	-1.000000	56.000000	0.000000	-1.000000	-1.000000	2251691.000000	1776580906.710716
-11779.785000	-7672.770000	-3751.065000	12137.535000	2719.755000	3950.505000	-20707.065000	-25554.915000	4.554844	4.482224	4.907511	8.277577	2.708308	-12.314386	-1.668924	3.278933	-1.007160	1.892240	0.717220	-0.826963	0.094665	0.541319	-1.000000	-1.000000	-1.000000	-1.000000	-1.000000	-1.000000	-1.000000	56.000000	0.000000	-1.000000	-1.000000	2251692.000000	1776580906.715070
-11781.990000	-7677.675000	-3758.400000	12130.245000	2718.045000	3946.185000	-20709.450000	-25558.605000	4.280026	4.197692	4.184082	6.094895	-0.518402	-17.029818	-2.343968	2.464014	-1.007160	1.892240	0.717220	-0.826963	0.094665	0.541319	-1.000000	-1.000000	-1.000000	-1.000000	-1.000000	-1.000000	-1.000000	56.000000	0.000000	-1.000000	-1.000000	2251693.000000	1776580906.715094
-11779.470000	-7674.705000	-3753.720000	12139.245000	2725.245000	3945.285000	-20711.745000	-25561.980000	1.999183	1.545042	1.191918	1.337844	-3.238725	-15.522952	-3.068033	-0.071284	-1.007160	1.892240	0.717220	-0.826963	0.094665	0.541319	-1.000000	-1.000000	-1.000000	-1.000000	-1.000000	-1.000000	-1.000000	56.000000	0.000000	-1.000000	-1.000000	2251694.000000	1776580906.719141
-11783.880000	-7679.430000	-3755.745000	12141.585000	2727.945000	3939.120000	-20717.010000	-25568.775000	-1.050827	-2.246096	-2.690168	-3.757019	-4.205567	-8.674408	-3.452532	-3.251942	-1.007160	1.892240	0.717220	-0.826963	0.094665	0.541319	-1.000000	-1.000000	-1.000000	-1.000000	-1.000000	-1.000000	-1.000000	56.000000	0.000000	-1.000000	-1.000000	2251695.000000	1776580906.719165
-11779.920000	-7672.770000	-3746.340000	12155.760000	2744.460000	3961.305000	-20708.820000	-25564.005000	-3.343357	-5.102987	-5.206861	-6.458008	-2.949190	0.584304	-2.922935	-5.360363	-1.007160	1.892240	0.717220	-0.826963	0.094665	0.541319	-1.000000	-1.000000	-1.000000	-1.000000	-1.000000	-1.000000	-1.000000	56.000000	0.000000	-1.000000	-1.000000	2251696.000000	1776580906.722905
-11776.815000	-7668.630000	-3742.740000	12153.600000	2740.455000	3974.445000	-20703.915000	-25556.535000	-3.880118	-5.473172	-4.962403	-5.781203	-0.224844	9.567184	-0.947077	-4.868054	-1.007160	1.892240	0.717220	-0.826963	0.094665	0.541319	-1.000000	-1.000000	-1.000000	-1.000000	-1.000000	-1.000000	-1.000000	56.000000	0.000000	-1.000000	-1.000000	2251697.000000	1776580906.722917
-11769.615000	-7664.580000	-3743.955000	12141.720000	2724.570000	3961.935000	-20704.140000	-25547.040000	-2.441222	-3.207001	-2.461693	-3.455404	1.665484	15.592450	2.134742	-1.398415	-1.007160	1.892240	0.717220	-0.826963	0.094665	0.541319	-1.000000	-1.000000	-1.000000	-1.000000	-1.000000	-1.000000	-1.000000	56.000000	0.000000	-1.000000	-1.000000	2251698.000000	1776580906.726809
-11767.185000	-7661.430000	-3739.275000	12149.550000	2724.390000	3947.040000	-20705.760000	-25544.520000	0.197794	0.260311	0.340359	-2.075642	0.470193	15.189066	4.611667	3.459553	-1.007160	1.892240	0.717220	-0.826963	0.094665	0.541319	-1.000000	-1.000000	-1.000000	-1.000000	-1.000000	-1.000000	-1.000000	56.000000	0.000000	-1.000000	-1.000000	2251699.000000	1776580906.726819
-11754.090000	-7643.340000	-3717.585000	12174.930000	2742.930000	3937.905000	-20709.675000	-25536.150000	2.707768	3.231108	2.230623	-1.556873	-2.649443	7.249067	4.750628	6.957193	-1.007160	1.892240	0.717220	-0.826963	0.094665	0.541319	-1.000000	-1.000000	-1.000000	-1.000000	-1.000000	-1.000000	-1.000000	56.000000	0.000000	-1.000000	-1.000000	2251700.000000	1776580906.730706
-11754.495000	-7646.130000	-3718.575000	12179.610000	2748.870000	3907.170000	-20716.920000	-25533.720000	4.031959	4.859862	3.474059	0.349594	-3.761460	-4.641672	2.294092	7.232426	-1.007160	1.892240	0.717220	-0.826963	0.094665	0.541319	-1.000000	-1.000000	-1.000000	-1.000000	-1.000000	-1.000000	-1.000000	56.000000	0.000000	-1.000000	-1.000000	2251701.000000	1776580906.730717
-11768.940000	-7669.350000	-3749.355000	12137.850000	2715.435000	3902.535000	-20720.070000	-25541.370000	3.217094	4.056867	3.226021	2.831714	-1.827720	-14.717119	-1.458935	4.150265	-4.898460	3.143560	1.388660	-0.826109	0.095825	0.540770	-1.000000	-1.000000	-1.000000	-1.000000	-1.000000	-1.000000	-1.000000	56.000000	0.000000	-1.000000	-1.000000	2251702.000000	1776580906.734852
-11771.955000	-7671.555000	-3754.755000	12121.155000	2700.855000	3938.310000	-20703.330000	-25543.890000	-0.318537	-0.252680	-0.552613	1.479444	-0.532082	-17.315752	-4.109457	-1.175753	-4.898460	3.143560	1.388660	-0.826109	0.095825	0.540770	-1.000000	-1.000000	-1.000000	-1.000000	-1.000000	-1.000000	-1.000000	56.000000	0.000000	-1.000000	-1.000000	2251703.000000	1776580906.734868
-11778.210000	-7675.785000	-3753.945000	12129.525000	2721.735000	3977.685000	-20693.835000	-25549.740000	-5.168021	-6.231110	-6.621336	-4.392292	-1.901280	-8.687383	-3.324491	-6.612022	-4.898460	3.143560	1.388660	-0.826109	0.095825	0.540770	-1.000000	-1.000000	-1.000000	-1.000000	-1.000000	-1.000000	-1.000000	56.000000	0.000000	-1.000000	-1.000000	2251704.000000	1776580906.738933
-11784.015000	-7680.825000	-3755.745000	12133.980000	2735.955000	4001.085000	-20695.815000	-25555.095000	-8.382810	-9.724771	-10.093256	-8.846998	-2.349501	8.559378	0.655398	-9.765649	-4.898460	3.143560	1.388660	-0.826109	0.095825	0.540770	-1.000000	-1.000000	-1.000000	-1.000000	-1.000000	-1.000000	-1.000000	56.000000	0.000000	-1.000000	-1.000000	2251705.000000	1776580906.738953
-11785.590000	-7681.500000	-3755.970000	12133.980000	2730.555000	3988.395000	-20699.730000	-25556.940000	-7.987429	-8.326213	-7.815796	-6.582688	1.353935	23.990584	4.393644	-9.338732	-4.898460	3.143560	1.388660	-0.826109	0.095825	0.540770	-1.000000	-1.000000	-1.000000	-1.000000	-1.000000	-1.000000	-1.000000	56.000000	0.000000	-1.000000	-1.000000	2251706.000000	1776580906.742750
-11787.975000	-7685.190000	-3761.460000	12125.835000	2712.600000	3950.595000	-20705.085000	-25556.985000	-4.119270	-2.947746	-1.231717	1.041575	6.389233	25.690999	4.538728	-5.576045	-4.898460	3.143560	1.388660	-0.826109	0.095825	0.540770	-1.000000	-1.000000	-1.000000	-1.000000	-1.000000	-1.000000	-1.000000	56.000000	0.000000	-1.000000	-1.000000	2251707.000000	1776580906.742765
-11787.615000	-7688.925000	-3765.420000	12124.665000	2715.030000	3946.590000	-20699.865000	-25552.485000	1.443289	3.455449	5.576325	8.396651	7.595758	10.264732	1.066626	0.114962	-4.898460	3.143560	1.388660	-0.826109	0.095825	0.540770	-1.000000	-1.000000	-1.000000	-1.000000	-1.000000	-1.000000	-1.000000	56.000000	0.000000	-1.000000	-1.000000	2251708.000000	1776580906.746876
-11791.440000	-7695.180000	-3771.135000	12118.995000	2708.505000	3938.625000	-20711.115000	-25558.290000	6.300768	7.815843	9.148252	11.169761	3.949883	-12.863445	-3.283967	5.601147	-4.898460	3.143560	1.388660	-0.826109	0.095825	0.540770	-1.000000	-1.000000	-1.000000	-1.000000	-1.000000	-1.000000	-1.000000	56.000000	0.000000	-1.000000	-1.000000	2251709.000000	1776580906.746887
-11782.890000	-7679.430000	-3757.545000	12129.570000	2713.230000	3936.105000	-20719.980000	-25558.515000	8.740626	8.929136	8.842147	9.096726	-1.218110	-29.047689	-6.133921	8.652304	-4.898460	3.143560	1.388660	-0.826109	0.095825	0.540770	-1.000000	-1.000000	-1.000000	-1.000000	-1.000000	-1.000000	-1.000000	56.000000	0.000000	-1.000000	-1.000000	2251710.000000	1776580906.750921
-11772.540000	-7665.480000	-3745.440000	12140.325000	2720.745000	3956.850000	-20708.100000	-25550.055000	8.731393	8.153310	6.773148	5.046126	-4.111123	-29.540221	-6.508483	8.396977	-4.898460	3.143560	1.388660	-0.826109	0.095825	0.540770	-1.000000	-1.000000	-1.000000	-1.000000	-1.000000	-1.000000	-1.000000	56.000000	0.000000	-1.000000	-1.000000	2251711.000000	1776580906.750932
-11776.770000	-7676.640000	-3752.955000	12137.805000	2732.940000	3988.890000	-20689.155000	-25544.700000	7.122601	6.921354	4.918112	1.840718	-3.037621	-14.917764	-3.543461	6.055383	-6.073480	2.563680	-0.412020	-0.827146	0.095276	0.542479	-1.000000	-1.000000	-1.000000	-1.000000	-1.000000	-1.000000	-1.000000	56.000000	0.000000	-1.000000	-1.000000	2251712.000000	1776580906.754927
-11786.085000	-7685.415000	-3755.880000	12145.185000	2746.845000	4001.445000	-20689.155000	-25553.970000	3.920384	4.241826	2.727785	-0.112260	1.042697	6.989093	2.489114	3.119555	-6.073480	2.563680	-0.412020	-0.827146	0.095276	0.542479	-1.000000	-1.000000	-1.000000	-1.000000	-1.000000	-1.000000	-1.000000	56.000000	0.000000	-1.000000	-1.000000	2251713.000000	1776580906.754941
-11780.235000	-7670.565000	-3746.700000	12145.905000	2735.460000	3986.415000	-20699.415000	-25556.040000	-0.924748	-0.710564	-0.762830	-1.713719	5.048814	24.336997	8.099582	-0.201318	-6.073480	2.563680	-0.412020	-0.827146	0.095276	0.542479	-1.000000	-1.000000	-1.000000	-1.000000	-1.000000	-1.000000	-1.000000	56.000000	0.000000	-1.000000	-1.000000	2251714.000000	1776580906.759384
-11775.330000	-7654.545000	-3727.080000	12177.225000	2742.525000	3971.835000	-20703.735000	-25554.195000	-5.554639	-5.318913	-4.020950	-2.842473	5.569681	27.280268	8.867284	-3.663992	-6.073480	2.563680	-0.412020	-0.827146	0.095276	0.542479	-1.000000	-1.000000	-1.000000	-1.000000	-1.000000	-1.000000	-1.000000	56.000000	0.000000	-1.000000	-1.000000	2251715.000000	1776580906.759399
-11775.915000	-7661.295000	-3732.570000	12168.720000	2735.460000	3961.890000	-20700.990000	-25550.595000	-7.465415	-6.452480	-4.806233	-2.601685	1.783095	14.869920	4.164056	-5.844796	-6.073480	2.563680	-0.412020	-0.827146	0.095276	0.542479	-1.000000	-1.000000	-1.000000	-1.000000	-1.000000	-1.000000	-1.000000	56.000000	0.000000	-1.000000	-1.000000	2251716.000000	1776580906.763133
-11775.870000	-7674.030000	-3764.520000	12109.590000	2716.020000	3949.965000	-20703.150000	-25545.150000	-6.214917	-4.970717	-4.186280	-2.848943	-4.275247	-4.379928	-2.327987	-5.423809	-6.073480	2.563680	-0.412020	-0.827146	0.095276	0.542479	-1.000000	-1.000000	-1.000000	-1.000000	-1.000000	-1.000000	-1.000000	56.000000	0.000000	-1.000000	-1.000000	2251717.000000	1776580906.763163
-11766.510000	-7664.220000	-3753.045000	12124.485000	2715.390000	3947.940000	-20717.190000	-25541.370000	-3.194698	-3.833702	-5.125308	-6.965770	-9.847191	-19.264093	-6.758997	-2.621777	-6.073480	2.563680	-0.412020	-0.827146	0.095276	0.542479	-1.000000	-1.000000	-1.000000	-1.000000	-1.000000	-1.000000	-1.000000	56.000000	0.000000	-1.000000	-1.000000	2251718.000000	1776580906.769039
-11756.835000	-7654.680000	-3743.190000	12134.700000	2722.770000	3963.780000	-20717.955000	-25539.120000	0.299826	-3.373354	-6.825643	-12.244736	-11.918717	-22.577153	-7.952936	0.899383	-6.073480	2.563680	-0.412020	-0.827146	0.095276	0.542479	-1.000000	-1.000000	-1.000000	-1.000000	-1.000000	-1.000000	-1.000000	56.000000	0.000000	-1.000000	-1.000000	2251719.000000	1776580906.769046
-11761.875000	-7656.210000	-3738.555000	12151.440000	2745.945000	3967.380000	-20706.615000	-25543.845000	3.214804	-1.929388	-5.504643	-11.288148	-7.987168	-13.828675	-6.082081	3.093925	-6.073480	2.563680	-0.412020	-0.827146	0.095276	0.542479	-1.000000	-1.000000	-1.000000	-1.000000	-1.000000	-1.000000	-1.000000	56.000000	0.000000	-1.000000	-1.000000	2251720.000000	1776580906.770958
-11778.030000	-7670.700000	-3749.355000	12149.685000	2752.470000	3968.820000	-20702.655000	-25556.715000	3.832209	0.258887	-0.604353	-2.079854	1.309590	1.004223	-1.422155	2.565236	-6.073480	2.563680	-0.412020	-0.827146	0.095276	0.542479	-1.000000	-1.000000	-1.000000	-1.000000	-1.000000	-1.000000	-1.000000	56.000000	0.000000	-1.000000	-1.000000	2251721.000000	1776580906.770969
-11795.310000	-7690.860000	-3769.830000	12130.065000	2735.820000	3966.525000	-20698.335000	-25563.465000	0.771580	0.813902	3.949742	9.103953	10.776319	13.258925	4.442703	-0.606757	-6.348160	2.884140	0.213640	-0.827940	0.093872	0.541625	-1.000000	-1.000000	-1.000000	-1.000000	-1.000000	-1.000000	-1.000000	56.000000	0.000000	-1.000000	-1.000000	2251722.000000	1776580906.774971
-11789.415000	-7690.365000	-3774.825000	12115.350000	2710.755000	3958.470000	-20693.295000	-25552.755000	-4.506535	-1.273841	4.425841	13.969277	13.456575	17.091104	8.650293	-4.170672	-6.348160	2.884140	0.213640	-0.827940	0.093872	0.541625	-1.000000	-1.000000	-1.000000	-1.000000	-1.000000	-1.000000	-1.000000	56.000000	0.000000	-1.000000	-1.000000	2251723.000000	1776580906.774985
-11785.005000	-7683.795000	-3767.805000	12118.635000	2707.470000	3964.995000	-20681.865000	-25547.715000	-7.639569	-3.468235	1.595936	9.968787	6.899255	12.368394	9.338502	-4.820815	-6.348160	2.884140	0.213640	-0.827940	0.093872	0.541625	-1.000000	-1.000000	-1.000000	-1.000000	-1.000000	-1.000000	-1.000000	56.000000	0.000000	-1.000000	-1.000000	2251724.000000	1776580906.778953
-11788.110000	-7681.140000	-3763.440000	12128.085000	2717.505000	3961.800000	-20693.340000	-25557.345000	-5.487095	-2.321810	-0.432280	2.077742	-3.583616	3.588164	6.534122	-1.662471	-6.348160	2.884140	0.213640	-0.827940	0.093872	0.541625	-1.000000	-1.000000	-1.000000	-1.000000	-1.000000	-1.000000	-1.000000	56.000000	0.000000	-1.000000	-1.000000	2251725.000000	1776580906.778965
-11788.380000	-7678.575000	-3759.660000	12134.610000	2725.470000	3966.660000	-20699.370000	-25560.540000	0.537066	2.389617	0.868046	-2.892556	-9.589075	-3.958626	1.048001	2.486009	-6.348160	2.884140	0.213640	-0.827940	0.093872	0.541625	-1.000000	-1.000000	-1.000000	-1.000000	-1.000000	-1.000000	-1.000000	56.000000	0.000000	-1.000000	-1.000000	2251726.000000	1776580906.782929
-11788.875000	-7686.045000	-3756.780000	12140.280000	2732.805000	3972.780000	-20700.180000	-25557.930000	6.351885	7.395688	4.242210	-2.419287	-7.277636	-7.284095	-5.460478	4.517828	-6.348160	2.884140	0.213640	-0.827940	0.093872	0.541625	-1.000000	-1.000000	-1.000000	-1.000000	-1.000000	-1.000000	-1.000000	56.000000	0.000000	-1.000000	-1.000000	2251727.000000	1776580906.782940
-11785.005000	-7688.160000	-3751.830000	12142.980000	2736.000000	3977.100000	-20694.195000	-25548.885000	8.997199	9.049648	6.742357	1.112950	0.375461	-6.214383	-9.942860	4.210517	-6.348160	2.884140	0.213640	-0.827940	0.093872	0.541625	-1.000000	-1.000000	-1.000000	-1.000000	-1.000000	-1.000000	-1.000000	56.000000	0.000000	-1.000000	-1.000000	2251728.000000	1776580906.787130
-11778.840000	-7677.585000	-3755.835000	12135.195000	2721.960000	3958.965000	-20695.680000	-25546.050000	8.148412	6.553067	6.357362	3.639541	7.095733	-3.067095	-9.877735	3.219126	-6.348160	2.884140	0.213640	-0.827940	0.093872	0.541625	-1.000000	-1.000000	-1.000000	-1.000000	-1.000000	-1.000000	-1.000000	56.000000	0.000000	-1.000000	-1.000000	2251729.000000	1776580906.787144
-11767.860000	-7666.605000	-3756.060000	12140.460000	2720.340000	3941.730000	-20700.765000	-25543.620000	5.366374	2.468121	2.908049	2.727357	8.123350	-1.407174	-5.732748	2.478233	-6.348160	2.884140	0.213640	-0.827940	0.093872	0.541625	-1.000000	-1.000000	-1.000000	-1.000000	-1.000000	-1.000000	-1.000000	56.000000	0.000000	-1.000000	-1.000000	2251730.000000	1776580906.790946
-11767.770000	-7676.190000	-3750.075000	12159.180000	2742.660000	3948.480000	-20697.930000	-25539.075000	2.336051	-0.534127	-1.962065	-0.483777	3.927068	-2.629061	-0.362974	1.655028	-6.348160	2.884140	0.213640	-0.827940	0.093872	0.541625	-1.000000	-1.000000	-1.000000	-1.000000	-1.000000	-1.000000	-1.000000	56.000000	0.000000	-1.000000	-1.000000	2251731.000000	1776580906.790960
-11775.555000	-7667.595000	-3738.960000	12161.115000	2744.595000	3953.295000	-20700.045000	-25543.170000	-0.609049	-2.273499	-5.484379	-2.755370	-0.720141	-4.032217	3.696099	0.238116	-3.372460	3.006220	-0.503580	-0.828733	0.091491	0.540465	-1.000000	-1.000000	-1.000000	-1.000000	-1.000000	-1.000000	-1.000000	56.000000	0.000000	-1.000000	-1.000000	2251732.000000	1776580906.795057
-11777.985000	-7655.805000	-3735.675000	12155.805000	2742.930000	3953.835000	-20703.015000	-25545.015000	-3.977299	-3.268983	-5.765931	-2.883599	-2.551396	-2.343646	5.414426	-1.870565	-3.372460	3.006220	-0.503580	-0.828733	0.091491	0.540465	-1.000000	-1.000000	-1.000000	-1.000000	-1.000000	-1.000000	-1.000000	56.000000	0.000000	-1.000000	-1.000000	2251733.000000	1776580906.795065
-11772.180000	-7656.120000	-3742.830000	12153.240000	2739.780000	3955.905000	-20697.345000	-25543.755000	-7.119592	-3.211160	-3.610316	-2.571064	-2.518349	2.177055	4.982264	-4.098344	-3.372460	3.006220	-0.503580	-0.828733	0.091491	0.540465	-1.000000	-1.000000	-1.000000	-1.000000	-1.000000	-1.000000	-1.000000	56.000000	0.000000	-1.000000	-1.000000	2251734.000000	1776580906.798945
-11775.915000	-7662.870000	-3749.670000	12152.700000	2739.690000	3965.085000	-20701.980000	-25557.930000	-8.193490	-2.548243	-1.728641	-3.220353	-2.685966	6.696812	3.409015	-5.511993	-3.372460	3.006220	-0.503580	-0.828733	0.091491	0.540465	-1.000000	-1.000000	-1.000000	-1.000000	-1.000000	-1.000000	-1.000000	56.000000	0.000000	-1.000000	-1.000000	2251735.000000	1776580906.798953
-11777.175000	-7669.260000	-3752.145000	12149.865000	2739.150000	3972.780000	-20711.250000	-25568.415000	-6.434393	-2.699903	-1.807840	-4.223623	-3.438906	8.956958	1.426444	-5.898347	-3.372460	3.006220	-0.503580	-0.828733	0.091491	0.540465	-1.000000	-1.000000	-1.000000	-1.000000	-1.000000	-1.000000	-1.000000	56.000000	0.000000	-1.000000	-1.000000	2251736.000000	1776580906.804509
-11777.355000	-7668.765000	-3752.055000	12142.710000	2732.445000	3970.710000	-20711.970000	-25572.330000	-2.927575	-3.950184	-2.939065	-4.374792	-3.951833	8.176797	-0.833724	-5.437922	-3.372460	3.006220	-0.503580	-0.828733	0.091491	0.540465	-1.000000	-1.000000	-1.000000	-1.000000	-1.000000	-1.000000	-1.000000	56.000000	0.000000	-1.000000	-1.000000	2251737.000000	1776580906.804526
-11777.130000	-7669.620000	-3756.690000	12130.335000	2717.325000	3965.805000	-20707.605000	-25567.605000	0.740197	-4.794511	-3.149429	-3.461026	-3.866506	4.373325	-2.624832	-3.543593	-3.372460	3.006220	-0.503580	-0.828733	0.091491	0.540465	-1.000000	-1.000000	-1.000000	-1.000000	-1.000000	-1.000000	-1.000000	56.000000	0.000000	-1.000000	-1.000000	2251738.000000	1776580906.807030
-11765.250000	-7656.840000	-3742.965000	12142.665000	2728.710000	3979.845000	-20697.300000	-25551.630000	3.658760	-3.477297	-1.372310	-1.763512	-3.224634	-1.194611	-2.519704	0.664826	-3.372460	3.006220	-0.503580	-0.828733	0.091491	0.540465	-1.000000	-1.000000	-1.000000	-1.000000	-1.000000	-1.000000	-1.000000	56.000000	0.000000	-1.000000	-1.000000	2251739.000000	1776580906.807050
-11761.290000	-7651.170000	-3734.145000	12154.770000	2740.905000	3981.555000	-20696.940000	-25545.870000	5.694067	0.415406	2.311290	1.256939	-1.088105	-5.722461	-0.146478	6.694282	-3.372460	3.006220	-0.503580	-0.828733	0.091491	0.540465	-1.000000	-1.000000	-1.000000	-1.000000	-1.000000	-1.000000	-1.000000	56.000000	0.000000	-1.000000	-1.000000	2251740.000000	1776580906.811015
-11757.780000	-7651.170000	-3737.025000	12151.620000	2734.245000	3970.620000	-20692.980000	-25538.940000	6.593050	5.192771	6.441869	5.646914	3.060640	-7.364954	2.860446	11.870289	-3.372460	3.006220	-0.503580	-0.828733	0.091491	0.540465	-1.000000	-1.000000	-1.000000	-1.000000	-1.000000	-1.000000	-1.000000	56.000000	0.000000	-1.000000	-1.000000	2251741.000000	1776580906.811036
-11761.920000	-7658.370000	-3744.495000	12142.845000	2726.775000	3961.935000	-20690.955000	-25538.580000	5.570781	7.766955	8.169668	8.917586	6.873926	-7.071914	4.285635	12.937749	-1.602300	1.907500	0.167860	-0.828611	0.088806	0.541014	-1.000000	-1.000000	-1.000000	-1.000000	-1.000000	-1.000000	-1.000000	56.000000	0.000000	-1.000000	-1.000000	2251742.000000	1776580906.814922
-11761.155000	-7658.865000	-3746.070000	12138.390000	2716.605000	3939.345000	-20694.330000	-25536.375000	2.322259	6.171292	5.606464	8.049127	7.065817	-6.719024	3.167356	8.711305	-1.602300	1.907500	0.167860	-0.828611	0.088806	0.541014	-1.000000	-1.000000	-1.000000	-1.000000	-1.000000	-1.000000	-1.000000	56.000000	0.000000	-1.000000	-1.000000	2251743.000000	1776580906.814937
-11755.755000	-7653.060000	-3737.025000	12150.810000	2723.265000	3927.420000	-20695.320000	-25533.270000	-1.915387	1.587860	0.257825	3.350953	3.352423	-6.904552	0.058470	1.046449	-1.602300	1.907500	0.167860	-0.828611	0.088806	0.541014	-1.000000	-1.000000	-1.000000	-1.000000	-1.000000	-1.000000	-1.000000	56.000000	0.000000	-1.000000	-1.000000	2251744.000000	1776580906.819928
-11758.095000	-7651.845000	-3729.195000	12169.935000	2743.560000	3937.320000	-20697.030000	-25538.040000	-4.997052	-2.699743	-4.036409	-1.264179	-0.804283	-6.153849	-3.484605	-6.569264	-1.602300	1.907500	0.167860	-0.828611	0.088806	0.541014	-1.000000	-1.000000	-1.000000	-1.000000	-1.000000	-1.000000	-1.000000	56.000000	0.000000	-1.000000	-1.000000	2251745.000000	1776580906.819943
-11749.095000	-7639.380000	-3715.650000	12184.695000	2772.945000	3976.380000	-20689.380000	-25532.550000	-5.600176	-4.173332	-4.542869	-2.159796	-1.198820	-1.420475	-5.554637	-11.227041	-1.602300	1.907500	0.167860	-0.828611	0.088806	0.541014	-1.000000	-1.000000	-1.000000	-1.000000	-1.000000	-1.000000	-1.000000	56.000000	0.000000	-1.000000	-1.000000	2251746.000000	1776580906.822987
-11748.375000	-7634.385000	-3710.475000	12189.960000	2789.820000	3983.985000	-20694.780000	-25530.840000	-3.837046	-2.523575	-1.647558	0.373641	3.034753	8.352158	-5.036640	-11.589074	-1.602300	1.907500	0.167860	-0.828611	0.088806	0.541014	-1.000000	-1.000000	-1.000000	-1.000000	-1.000000	-1.000000	-1.000000	56.000000	0.000000	-1.000000	-1.000000	2251747.000000	1776580906.823003
-11780.730000	-7667.280000	-3743.640000	12150.855000	2733.840000	3953.160000	-20705.580000	-25552.350000	-1.542336	-0.059643	1.225838	2.006475	6.965834	17.849797	-2.790237	-8.492481	-1.602300	1.907500	0.167860	-0.828611	0.088806	0.541014	-1.000000	-1.000000	-1.000000	-1.000000	-1.000000	-1.000000	-1.000000	56.000000	0.000000	-1.000000	-1.000000	2251748.000000	1776580906.827048
-11779.110000	-7674.885000	-3756.195000	12124.080000	2707.380000	3961.305000	-20706.165000	-25554.870000	-1.328012	-0.403569	-0.036366	-2.009792	3.038658	18.759785	-0.817490	-4.657598	-1.602300	1.907500	0.167860	-0.828611	0.088806	0.541014	-1.000000	-1.000000	-1.000000	-1.000000	-1.000000	-1.000000	-1.000000	56.000000	0.000000	-1.000000	-1.000000	2251749.000000	1776580906.827062
-11771.550000	-7664.355000	-3743.145000	12142.440000	2729.790000	3992.985000	-20695.905000	-25552.305000	-2.811529	-3.748684	-5.126993	-10.593956	-8.892806	10.060916	0.340083	-1.721672	-1.602300	1.907500	0.167860	-0.828611	0.088806	0.541014	-1.000000	-1.000000	-1.000000	-1.000000	-1.000000	-1.000000	-1.000000	56.000000	0.000000	-1.000000	-1.000000	2251750.000000	1776580906.831107
-11765.520000	-7665.075000	-3751.965000	12135.870000	2731.455000	4009.455000	-20679.480000	-25545.465000	-2.462785	-5.750933	-8.634019	-15.945326	-18.523886	-0.415929	2.075619	1.200779	-1.602300	1.907500	0.167860	-0.828611	0.088806	0.541014	-1.000000	-1.000000	-1.000000	-1.000000	-1.000000	-1.000000	-1.000000	56.000000	0.000000	-1.000000	-1.000000	2251751.000000	1776580906.831123
-11768.490000	-7671.915000	-3759.705000	12131.235000	2726.640000	3991.545000	-20683.755000	-25549.515000	1.275735	-3.439823	-6.838291	-12.355386	-16.999379	-6.360322	4.985402	4.875541	-2.639980	0.869820	1.724380	-0.829283	0.087890	0.541686	-1.000000	-1.000000	-1.000000	-1.000000	-1.000000	-1.000000	-1.000000	56.000000	0.000000	-1.000000	-1.000000	2251752.000000	1776580906.835077
-11766.690000	-7672.590000	-3756.600000	12138.930000	2735.145000	3989.025000	-20682.630000	-25546.545000	5.961098	1.440985	-1.222006	-1.939074	-5.854772	-8.799449	7.045888	8.034630	-2.639980	0.869820	1.724380	-0.829283	0.087890	0.541686	-1.000000	-1.000000	-1.000000	-1.000000	-1.000000	-1.000000	-1.000000	56.000000	0.000000	-1.000000	-1.000000	2251753.000000	1776580906.835100
-11761.245000	-7669.260000	-3750.210000	12146.670000	2737.890000	3982.455000	-20681.370000	-25538.310000	8.380984	5.601436	5.008862	9.448301	7.392084	-10.786371	5.900883	9.008067	-2.639980	0.869820	1.724380	-0.829283	0.087890	0.541686	-1.000000	-1.000000	-1.000000	-1.000000	-1.000000	-1.000000	-1.000000	56.000000	0.000000	-1.000000	-1.000000	2251754.000000	1776580906.839078
-11766.780000	-7669.215000	-3750.975000	12140.775000	2723.400000	3955.905000	-20694.420000	-25544.565000	7.361700	7.371505	9.574873	16.782528	15.808251	-12.679880	1.532426	7.435130	-2.639980	0.869820	1.724380	-0.829283	0.087890	0.541686	-1.000000	-1.000000	-1.000000	-1.000000	-1.000000	-1.000000	-1.000000	56.000000	0.000000	-1.000000	-1.000000	2251755.000000	1776580906.839091
-11759.940000	-7660.665000	-3743.010000	12145.950000	2727.945000	3957.435000	-20692.980000	-25537.050000	3.694190	6.816353	11.083768	17.290920	15.979726	-13.149841	-4.111065	3.913370	-2.639980	0.869820	1.724380	-0.829283	0.087890	0.541686	-1.000000	-1.000000	-1.000000	-1.000000	-1.000000	-1.000000	-1.000000	56.000000	0.000000	-1.000000	-1.000000	2251756.000000	1776580906.843018
-11758.770000	-7650.900000	-3736.080000	12150.540000	2732.580000	3963.015000	-20699.865000	-25542.090000	-0.680381	4.982082	9.361237	11.611876	9.589483	-10.186100	-8.339841	-0.382911	-2.639980	0.869820	1.724380	-0.829283	0.087890	0.541686	-1.000000	-1.000000	-1.000000	-1.000000	-1.000000	-1.000000	-1.000000	56.000000	0.000000	-1.000000	-1.000000	2251757.000000	1776580906.843026
-11763.765000	-7657.605000	-3739.050000	12150.810000	2739.870000	3982.635000	-20696.445000	-25547.580000	-3.919509	2.767571	5.373529	3.234535	1.775461	-2.288030	-9.032873	-4.183262	-2.639980	0.869820	1.724380	-0.829283	0.087890	0.541686	-1.000000	-1.000000	-1.000000	-1.000000	-1.000000	-1.000000	-1.000000	56.000000	0.000000	-1.000000	-1.000000	2251758.000000	1776580906.846948
-11764.890000	-7661.610000	-3742.290000	12146.355000	2736.270000	3979.395000	-20692.620000	-25550.460000	-5.495062	-0.066713	0.165987	-4.341810	-3.417263	8.759243	-5.813787	-6.735832	-2.639980	0.869820	1.724380	-0.829283	0.087890	0.541686	-1.000000	-1.000000	-1.000000	-1.000000	-1.000000	-1.000000	-1.000000	56.000000	0.000000	-1.000000	-1.000000	2251759.000000	1776580906.846954
-11763.405000	-7660.260000	-3739.680000	12152.475000	2741.805000	3978.855000	-20691.180000	-25549.425000	-5.595733	-3.690560	-5.092292	-9.146769	-5.271774	17.520325	-0.151345	-7.418570	-2.639980	0.869820	1.724380	-0.829283	0.087890	0.541686	-1.000000	-1.000000	-1.000000	-1.000000	-1.000000	-1.000000	-1.000000	56.000000	0.000000	-1.000000	-1.000000	2251760.000000	1776580906.851262
-11762.055000	-7658.280000	-3738.015000	12155.490000	2747.115000	3991.455000	-20689.515000	-25547.175000	-4.271128	-6.716202	-8.611495	-10.283482	-4.867352	19.193689	5.288667	-5.717813	-2.639980	0.869820	1.724380	-0.829283	0.087890	0.541686	-1.000000	-1.000000	-1.000000	-1.000000	-1.000000	-1.000000	-1.000000	56.000000	0.000000	-1.000000	-1.000000	2251761.000000	1776580906.851274
-11755.845000	-7653.690000	-3740.040000	12151.035000	2747.745000	3996.900000	-20692.080000	-25542.540000	-1.721636	-7.282412	-9.046177	-8.071252	-3.344984	13.838214	8.021528	-1.967230	-1.144500	1.159760	-0.869820	-0.828794	0.089172	0.542845	-1.000000	-1.000000	-1.000000	-1.000000	-1.000000	-1.000000	-1.000000	56.000000	0.000000	-1.000000	-1.000000	2251762.000000	1776580906.855155
-11755.755000	-7650.630000	-3731.985000	12167.910000	2764.980000	3990.420000	-20693.565000	-25540.830000	1.307628	-4.918751	-6.560988	-4.020345	-1.480945	4.942561	7.089020	2.428851	-1.144500	1.159760	-0.869820	-0.828794	0.089172	0.542845	-1.000000	-1.000000	-1.000000	-1.000000	-1.000000	-1.000000	-1.000000	56.000000	0.000000	-1.000000	-1.000000	2251763.000000	1776580906.855170
-11755.215000	-7653.015000	-3724.110000	12195.810000	2780.100000	3941.775000	-20701.620000	-25537.140000	3.576116	-1.009381	-2.253795	0.905571	0.638696	-5.010729	3.292977	5.636358	-1.144500	1.159760	-0.869820	-0.828794	0.089172	0.542845	-1.000000	-1.000000	-1.000000	-1.000000	-1.000000	-1.000000	-1.000000	56.000000	0.000000	-1.000000	-1.000000	2251764.000000	1776580906.859105
-11766.375000	-7672.095000	-3743.595000	12167.010000	2731.815000	3910.500000	-20697.165000	-25537.590000	3.836397	1.873520	1.999233	5.588070	1.916282	-15.395029	-1.357574	6.396186	-1.144500	1.159760	-0.869820	-0.828794	0.089172	0.542845	-1.000000	-1.000000	-1.000000	-1.000000	-1.000000	-1.000000	-1.000000	56.000000	0.000000	-1.000000	-1.000000	2251765.000000	1776580906.859115
-11769.930000	-7673.580000	-3756.870000	12121.740000	2683.305000	3929.085000	-20687.130000	-25542.090000	1.691315	1.777786	3.455288	5.938739	-1.390247	-23.118755	-4.302184	4.517662	-1.144500	1.159760	-0.869820	-0.828794	0.089172	0.542845	-1.000000	-1.000000	-1.000000	-1.000000	-1.000000	-1.000000	-1.000000	56.000000	0.000000	-1.000000	-1.000000	2251766.000000	1776580906.863135
-11773.080000	-7671.600000	-3757.995000	12122.145000	2693.430000	3944.205000	-20690.640000	-25549.830000	-1.660262	-0.401327	1.119986	-1.033656	-9.988188	-21.444417	-3.971063	0.715723	-1.144500	1.159760	-0.869820	-0.828794	0.089172	0.542845	-1.000000	-1.000000	-1.000000	-1.000000	-1.000000	-1.000000	-1.000000	56.000000	0.000000	-1.000000	-1.000000	2251767.000000	1776580906.863143
-11768.670000	-7663.635000	-3748.230000	12143.880000	2721.645000	3965.400000	-20699.280000	-25554.555000	-3.889016	-1.548372	-2.109466	-10.048853	-15.935187	-7.388927	-1.572878	-3.577164	-1.144500	1.159760	-0.869820	-0.828794	0.089172	0.542845	-1.000000	-1.000000	-1.000000	-1.000000	-1.000000	-1.000000	-1.000000	56.000000	0.000000	-1.000000	-1.000000	2251768.000000	1776580906.867115
-11769.930000	-7666.065000	-3753.315000	12137.265000	2734.785000	3993.930000	-20700.585000	-25557.255000	-3.362556	0.155306	-2.441022	-11.892590	-10.222871	13.136373	0.149042	-6.493127	-1.144500	1.159760	-0.869820	-0.828794	0.089172	0.542845	-1.000000	-1.000000	-1.000000	-1.000000	-1.000000	-1.000000	-1.000000	56.000000	0.000000	-1.000000	-1.000000	2251769.000000	1776580906.867148
-11772.315000	-7668.180000	-3752.640000	12138.975000	2729.340000	3971.070000	-20702.070000	-25559.505000	-0.582499	3.337954	0.533139	-4.426533	5.542268	28.963536	0.069210	-6.606905	-1.144500	1.159760	-0.869820	-0.828794	0.089172	0.542845	-1.000000	-1.000000	-1.000000	-1.000000	-1.000000	-1.000000	-1.000000	56.000000	0.000000	-1.000000	-1.000000	2251770.000000	1776580906.871079
-11774.565000	-7669.215000	-3751.605000	12142.935000	2732.220000	3973.230000	-20701.080000	-25562.880000	2.366474	5.236816	4.200875	6.396776	20.281101	30.617642	-0.742823	-3.930064	-1.144500	1.159760	-0.869820	-0.828794	0.089172	0.542845	-1.000000	-1.000000	-1.000000	-1.000000	-1.000000	-1.000000	-1.000000	56.000000	0.000000	-1.000000	-1.000000	2251771.000000	1776580906.871091
-11775.105000	-7670.655000	-3753.675000	12138.840000	2728.980000	3978.585000	-20699.640000	-25563.465000	3.739793	4.487906	6.076337	13.724440	24.464458	17.325579	-0.852609	0.109705	0.610400	1.434440	0.183120	-0.828306	0.089660	0.542357	-1.000000	-1.000000	-1.000000	-1.000000	-1.000000	-1.000000	-1.000000	56.000000	0.000000	-1.000000	-1.000000	2251772.000000	1776580906.875067
-11767.590000	-7662.060000	-3744.090000	12152.430000	2744.145000	3985.740000	-20695.185000	-25555.860000	3.413703	1.966835	5.474894	14.519334	17.201431	-2.051051	0.228435	3.877015	0.610400	1.434440	0.183120	-0.828306	0.089660	0.542357	-1.000000	-1.000000	-1.000000	-1.000000	-1.000000	-1.000000	-1.000000	56.000000	0.000000	-1.000000	-1.000000	2251773.000000	1776580906.875082
-11761.290000	-7658.820000	-3741.480000	12154.860000	2746.890000	3989.160000	-20688.480000	-25544.565000	2.540365	-0.340051	3.393979	10.066312	4.575169	-16.818265	2.045356	6.608777	0.610400	1.434440	0.183120	-0.828306	0.089660	0.542357	-1.000000	-1.000000	-1.000000	-1.000000	-1.000000	-1.000000	-1.000000	56.000000	0.000000	-1.000000	-1.000000	2251774.000000	1776580906.879105
-11760.750000	-7660.935000	-3744.180000	12150.180000	2733.705000	3964.590000	-20691.045000	-25540.605000	1.997048	-1.313567	1.037639	3.433756	-6.793601	-22.196951	3.573692	8.041771	0.610400	1.434440	0.183120	-0.828306	0.089660	0.542357	-1.000000	-1.000000	-1.000000	-1.000000	-1.000000	-1.000000	-1.000000	56.000000	0.000000	-1.000000	-1.000000	2251775.000000	1776580906.879115
-11763.900000	-7663.995000	-3747.600000	12143.970000	2720.745000	3943.170000	-20697.795000	-25544.295000	1.353893	-1.562193	-1.362632	-3.260101	-14.164951	-20.420301	3.487000	7.409589	0.610400	1.434440	0.183120	-0.828306	0.089660	0.542357	-1.000000	-1.000000	-1.000000	-1.000000	-1.000000	-1.000000	-1.000000	56.000000	0.000000	-1.000000	-1.000000	2251776.000000	1776580906.883195
-11765.430000	-7669.170000	-3754.215000	12138.300000	2720.520000	3948.705000	-20697.975000	-25545.780000	-0.248340	-2.162325	-3.877878	-8.742569	-17.282180	-15.469122	1.163597	3.925174	0.610400	1.434440	0.183120	-0.828306	0.089660	0.542357	-1.000000	-1.000000	-1.000000	-1.000000	-1.000000	-1.000000	-1.000000	56.000000	0.000000	-1.000000	-1.000000	2251777.000000	1776580906.883205
-11763.450000	-7669.890000	-3753.405000	12148.650000	2742.210000	3979.620000	-20693.340000	-25545.240000	-2.588187	-3.221425	-5.906542	-11.437706	-15.300761	-7.791212	-2.123348	-1.600331	0.610400	1.434440	0.183120	-0.828306	0.089660	0.542357	-1.000000	-1.000000	-1.000000	-1.000000	-1.000000	-1.000000	-1.000000	56.000000	0.000000	-1.000000	-1.000000	2251778.000000	1776580906.887106
-11767.320000	-7666.875000	-3748.545000	12154.455000	2754.495000	4005.945000	-20690.145000	-25552.845000	-4.404818	-3.754991	-6.196299	-9.811831	-7.440192	3.990930	-4.026565	-6.802877	0.610400	1.434440	0.183120	-0.828306	0.089660	0.542357	-1.000000	-1.000000	-1.000000	-1.000000	-1.000000	-1.000000	-1.000000	56.000000	0.000000	-1.000000	-1.000000	2251779.000000	1776580906.887118
-11764.080000	-7654.815000	-3738.555000	12155.985000	2745.945000	3976.335000	-20699.460000	-25554.465000	-4.681988	-2.529766	-3.787286	-4.265070	3.582760	16.736715	-3.579523	-9.596443	0.610400	1.434440	0.183120	-0.828306	0.089660	0.542357	-1.000000	-1.000000	-1.000000	-1.000000	-1.000000	-1.000000	-1.000000	56.000000	0.000000	-1.000000	-1.000000	2251780.000000	1776580906.891243
-11763.045000	-7656.930000	-3739.275000	12158.055000	2744.280000	3961.665000	-20704.140000	-25552.620000	-3.255462	0.583048	0.682171	2.226793	11.598498	22.077149	-2.068314	-9.092507	0.610400	1.434440	0.183120	-0.828306	0.089660	0.542357	-1.000000	-1.000000	-1.000000	-1.000000	-1.000000	-1.000000	-1.000000	56.000000	0.000000	-1.000000	-1.000000	2251781.000000	1776580906.891256
-11761.830000	-7654.140000	-3731.805000	12176.955000	2757.780000	3956.895000	-20708.055000	-25556.220000	-0.719915	3.855142	4.897099	6.650495	12.571928	15.220980	-1.094801	-5.589010	-1.510740	2.441600	1.113980	-0.827513	0.089660	0.541503	-1.000000	-1.000000	-1.000000	-1.000000	-1.000000	-1.000000	-1.000000	56.000000	0.000000	-1.000000	-1.000000	2251782.000000	1776580906.895692
-11763.765000	-7657.110000	-3738.420000	12168.675000	2752.020000	3973.635000	-20698.605000	-25552.845000	1.746542	5.047335	6.521752	7.960921	7.931312	1.445564	-0.602892	-0.594201	-1.510740	2.441600	1.113980	-0.827513	0.089660	0.541503	-1.000000	-1.000000	-1.000000	-1.000000	-1.000000	-1.000000	-1.000000	56.000000	0.000000	-1.000000	-1.000000	2251783.000000	1776580906.895704
-11763.405000	-7662.150000	-3750.750000	12139.560000	2721.645000	3972.060000	-20695.455000	-25547.175000	3.018768	3.337979	4.493380	5.541159	0.882982	-9.249530	0.612823	4.039036	-1.510740	2.441600	1.113980	-0.827513	0.089660	0.541503	-1.000000	-1.000000	-1.000000	-1.000000	-1.000000	-1.000000	-1.000000	56.000000	0.000000	-1.000000	-1.000000	2251784.000000	1776580906.899150
-11762.460000	-7667.055000	-3746.340000	12148.695000	2726.415000	3936.420000	-20705.895000	-25545.420000	2.808234	-0.349726	-0.334093	-0.677635	-6.497691	-12.221964	2.609031	7.060139	-1.510740	2.441600	1.113980	-0.827513	0.089660	0.541503	-1.000000	-1.000000	-1.000000	-1.000000	-1.000000	-1.000000	-1.000000	56.000000	0.000000	-1.000000	-1.000000	2251785.000000	1776580906.899160
-11765.250000	-7671.285000	-3744.810000	12153.195000	2734.020000	3938.580000	-20705.715000	-25546.050000	1.647531	-4.075476	-4.925933	-7.191248	-11.165663	-10.314952	3.665566	7.707727	-1.510740	2.441600	1.113980	-0.827513	0.089660	0.541503	-1.000000	-1.000000	-1.000000	-1.000000	-1.000000	-1.000000	-1.000000	56.000000	0.000000	-1.000000	-1.000000	2251786.000000	1776580906.903264
-11761.245000	-7657.380000	-3743.730000	12139.830000	2721.330000	3963.420000	-20702.430000	-25548.210000	0.300976	-5.655692	-6.231082	-9.280096	-10.040173	-6.459822	2.765499	5.720786	-1.510740	2.441600	1.113980	-0.827513	0.089660	0.541503	-1.000000	-1.000000	-1.000000	-1.000000	-1.000000	-1.000000	-1.000000	56.000000	0.000000	-1.000000	-1.000000	2251787.000000	1776580906.903291
-11770.875000	-7662.420000	-3750.750000	12139.110000	2729.790000	4000.725000	-20693.520000	-25554.150000	-0.728376	-3.842339	-4.012895	-6.373209	-3.950982	0.420910	1.098875	1.743784	-1.510740	2.441600	1.113980	-0.827513	0.089660	0.541503	-1.000000	-1.000000	-1.000000	-1.000000	-1.000000	-1.000000	-1.000000	56.000000	0.000000	-1.000000	-1.000000	2251788.000000	1776580906.907113
-11774.250000	-7667.190000	-3750.480000	12147.435000	2734.425000	3995.910000	-20692.395000	-25552.665000	-1.515982	0.087151	-0.513378	-1.082733	3.499607	10.104973	0.302252	-2.661133	-1.510740	2.441600	1.113980	-0.827513	0.089660	0.541503	-1.000000	-1.000000	-1.000000	-1.000000	-1.000000	-1.000000	-1.000000	56.000000	0.000000	-1.000000	-1.000000	2251789.000000	1776580906.907124
-11763.315000	-7652.025000	-3729.240000	12180.780000	2739.645000	3976.245000	-20696.580000	-25548.030000	-1.955524	3.446242	2.511768	4.886092	9.233389	16.621019	0.380012	-5.452192	-1.510740	2.441600	1.113980	-0.827513	0.089660	0.541503	-1.000000	-1.000000	-1.000000	-1.000000	-1.000000	-1.000000	-1.000000	56.000000	0.000000	-1.000000	-1.000000	2251790.000000	1776580906.911072
-11760.210000	-7655.265000	-3743.370000	12156.660000	2741.940000	3981.510000	-20692.395000	-25547.490000	-1.133867	5.017074	4.777533	10.264297	11.388470	13.594096	0.142451	-5.273461	-1.510740	2.441600	1.113980	-0.827513	0.089660	0.541503	-1.000000	-1.000000	-1.000000	-1.000000	-1.000000	-1.000000	-1.000000	56.000000	0.000000	-1.000000	-1.000000	2251791.000000	1776580906.911089
-11759.400000	-7662.195000	-3761.505000	12118.905000	2730.285000	3979.260000	-20682.090000	-25538.895000	1.089311	4.648914	5.094229	11.087299	9.201627	2.283718	-0.668015	-2.513453	-1.785420	2.273740	-0.976640	-0.827085	0.089599	0.542906	-1.000000	-1.000000	-1.000000	-1.000000	-1.000000	-1.000000	-1.000000	56.000000	0.000000	-1.000000	-1.000000	2251792.000000	1776580906.915223
-11759.760000	-7658.100000	-3751.155000	12135.690000	2730.015000	3968.145000	-20689.200000	-25542.900000	3.143898	2.259188	2.134922	4.345732	3.323034	-9.938022	-1.254770	1.048192	-1.785420	2.273740	-0.976640	-0.827085	0.089599	0.542906	-1.000000	-1.000000	-1.000000	-1.000000	-1.000000	-1.000000	-1.000000	56.000000	0.000000	-1.000000	-1.000000	2251793.000000	1776580906.915240
-11761.695000	-7659.945000	-3750.300000	12138.930000	2732.850000	3964.770000	-20695.860000	-25545.600000	3.360388	-1.069531	-2.073176	-5.383393	-3.621902	-16.890023	-1.668298	3.256091	-1.785420	2.273740	-0.976640	-0.827085	0.089599	0.542906	-1.000000	-1.000000	-1.000000	-1.000000	-1.000000	-1.000000	-1.000000	56.000000	0.000000	-1.000000	-1.000000	2251794.000000	1776580906.919255
-11765.700000	-7664.940000	-3749.625000	12144.375000	2740.860000	3972.690000	-20697.525000	-25546.140000	1.454271	-3.595536	-4.009142	-10.115079	-7.948179	-16.343095	-2.601778	2.888582	-1.785420	2.273740	-0.976640	-0.827085	0.089599	0.542906	-1.000000	-1.000000	-1.000000	-1.000000	-1.000000	-1.000000	-1.000000	56.000000	0.000000	-1.000000	-1.000000	2251795.000000	1776580906.919278
-11763.720000	-7659.405000	-3742.155000	12147.525000	2742.345000	3987.270000	-20693.160000	-25545.195000	-1.437918	-4.399200	-2.669503	-7.259001	-7.646765	-8.991426	-3.534293	0.671550	-1.785420	2.273740	-0.976640	-0.827085	0.089599	0.542906	-1.000000	-1.000000	-1.000000	-1.000000	-1.000000	-1.000000	-1.000000	56.000000	0.000000	-1.000000	-1.000000	2251796.000000	1776580906.923099
-11765.655000	-7658.775000	-3741.885000	12149.010000	2742.930000	3987.135000	-20689.740000	-25546.680000	-3.576707	-3.316174	0.471202	-0.335317	-3.908278	1.907840	-3.004289	-1.555539	-1.785420	2.273740	-0.976640	-0.827085	0.089599	0.542906	-1.000000	-1.000000	-1.000000	-1.000000	-1.000000	-1.000000	-1.000000	56.000000	0.000000	-1.000000	-1.000000	2251797.000000	1776580906.923113
-11763.630000	-7664.895000	-3751.020000	12149.055000	2740.050000	3971.295000	-20696.670000	-25547.040000	-3.830791	-1.003551	2.983639	5.517745	0.196339	10.789518	-0.716517	-2.519671	-1.785420	2.273740	-0.976640	-0.827085	0.089599	0.542906	-1.000000	-1.000000	-1.000000	-1.000000	-1.000000	-1.000000	-1.000000	56.000000	0.000000	-1.000000	-1.000000	2251798.000000	1776580906.927128
-11760.345000	-7670.295000	-3747.600000	12168.810000	2766.510000	3975.660000	-20702.340000	-25542.630000	-2.242546	0.943055	2.978458	7.533804	2.725618	12.903365	1.703511	-1.999690	-1.785420	2.273740	-0.976640	-0.827085	0.089599	0.542906	-1.000000	-1.000000	-1.000000	-1.000000	-1.000000	-1.000000	-1.000000	56.000000	0.000000	-1.000000	-1.000000	2251799.000000	1776580906.927140
-11762.325000	-7668.855000	-3740.355000	12178.755000	2779.155000	3976.830000	-20704.365000	-25542.180000	0.240818	1.427163	0.922798	6.497752	4.304967	8.456204	2.531475	-0.414493	-1.785420	2.273740	-0.976640	-0.827085	0.089599	0.542906	-1.000000	-1.000000	-1.000000	-1.000000	-1.000000	-1.000000	-1.000000	56.000000	0.000000	-1.000000	-1.000000	2251800.000000	1776580906.931085
-11774.655000	-7659.405000	-3738.195000	12153.015000	2733.615000	3957.255000	-20695.410000	-25551.270000	2.019900	1.133819	-0.939667	3.716180	4.759094	1.464299	1.963398	1.193159	-1.785420	2.273740	-0.976640	-0.827085	0.089599	0.542906	-1.000000	-1.000000	-1.000000	-1.000000	-1.000000	-1.000000	-1.000000	56.000000	0.000000	-1.000000	-1.000000	2251801.000000	1776580906.931105
-11770.965000	-7650.900000	-3743.910000	12132.585000	2703.510000	3938.850000	-20699.775000	-25552.665000	1.855380	1.608273	-1.431529	-1.550661	0.786263	-4.953216	1.480596	1.533328	-1.464960	1.632820	-0.747740	-0.829160	0.090454	0.542784	-1.000000	-1.000000	-1.000000	-1.000000	-1.000000	-1.000000	-1.000000	56.000000	0.000000	-1.000000	-1.000000	2251802.000000	1776580906.935199
-11755.800000	-7642.980000	-3735.855000	12141.810000	2708.730000	3936.105000	-20703.015000	-25548.030000	0.654303	3.267557	-1.160819	-8.761317	-7.993684	-9.274132	1.557465	0.555033	-1.464960	1.632820	-0.747740	-0.829160	0.090454	0.542784	-1.000000	-1.000000	-1.000000	-1.000000	-1.000000	-1.000000	-1.000000	56.000000	0.000000	-1.000000	-1.000000	2251803.000000	1776580906.935207
-11753.730000	-7644.780000	-3733.380000	12150.810000	2723.085000	3952.980000	-20699.595000	-25548.615000	0.657128	4.720468	-0.706831	-13.172971	-14.559596	-9.436596	1.457432	-0.355306	-1.464960	1.632820	-0.747740	-0.829160	0.090454	0.542784	-1.000000	-1.000000	-1.000000	-1.000000	-1.000000	-1.000000	-1.000000	56.000000	0.000000	-1.000000	-1.000000	2251804.000000	1776580906.939233
-11761.020000	-7649.595000	-3730.590000	12165.660000	2746.620000	3966.975000	-20703.150000	-25553.205000	2.043700	3.958503	-0.071755	-10.216682	-11.277372	-3.754854	0.831292	-0.319164	-1.464960	1.632820	-0.747740	-0.829160	0.090454	0.542784	-1.000000	-1.000000	-1.000000	-1.000000	-1.000000	-1.000000	-1.000000	56.000000	0.000000	-1.000000	-1.000000	2251805.000000	1776580906.939255
-11760.660000	-7655.490000	-3743.235000	12147.705000	2737.575000	3978.405000	-20697.480000	-25549.020000	2.602818	0.267410	0.257592	-1.231948	1.276430	5.966702	0.038137	0.233168	-1.464960	1.632820	-0.747740	-0.829160	0.090454	0.542784	-1.000000	-1.000000	-1.000000	-1.000000	-1.000000	-1.000000	-1.000000	56.000000	0.000000	-1.000000	-1.000000	2251806.000000	1776580906.943251
-11761.515000	-7660.350000	-3752.055000	12135.555000	2731.185000	3986.685000	-20687.895000	-25547.760000	1.043075	-4.841178	-0.711825	7.076704	14.233311	14.422920	-0.255159	0.782479	-1.464960	1.632820	-0.747740	-0.829160	0.090454	0.542784	-1.000000	-1.000000	-1.000000	-1.000000	-1.000000	-1.000000	-1.000000	56.000000	0.000000	-1.000000	-1.000000	2251807.000000	1776580906.943260
-11753.100000	-7650.045000	-3740.175000	12146.805000	2737.620000	3987.810000	-20679.480000	-25538.040000	-1.431003	-8.378778	-2.661809	9.386468	18.834099	16.563970	0.508240	1.369524	-1.464960	1.632820	-0.747740	-0.829160	0.090454	0.542784	-1.000000	-1.000000	-1.000000	-1.000000	-1.000000	-1.000000	-1.000000	56.000000	0.000000	-1.000000	-1.000000	2251808.000000	1776580906.947313
-11747.880000	-7642.890000	-3731.940000	12155.805000	2742.210000	3985.290000	-20678.670000	-25533.810000	-2.688213	-7.723067	-3.199835	6.796466	13.869390	10.913983	1.845861	2.112290	-1.464960	1.632820	-0.747740	-0.829160	0.090454	0.542784	-1.000000	-1.000000	-1.000000	-1.000000	-1.000000	-1.000000	-1.000000	56.000000	0.000000	-1.000000	-1.000000	2251809.000000	1776580906.947324
-11747.745000	-7643.295000	-3729.195000	12162.420000	2748.195000	3987.450000	-20678.715000	-25533.540000	-1.909640	-2.901314	-0.686268	3.704488	4.398201	0.216969	2.233079	2.580379	-1.464960	1.632820	-0.747740	-0.829160	0.090454	0.542784	-1.000000	-1.000000	-1.000000	-1.000000	-1.000000	-1.000000	-1.000000	56.000000	0.000000	-1.000000	-1.000000	2251810.000000	1776580906.951256
-11749.590000	-7647.075000	-3733.560000	12157.785000	2745.405000	3989.835000	-20681.730000	-25535.205000	-0.284324	2.881382	3.213292	2.151333	-4.084311	-10.236440	0.590303	1.869190	-1.464960	1.632820	-0.747740	-0.829160	0.090454	0.542784	-1.000000	-1.000000	-1.000000	-1.000000	-1.000000	-1.000000	-1.000000	56.000000	0.000000	-1.000000	-1.000000	2251811.000000	1776580906.951265
-11752.965000	-7651.755000	-3740.265000	12145.050000	2727.045000	3978.270000	-20688.075000	-25538.490000	0.435739	5.889206	5.153999	0.824699	-9.292617	-16.000834	-2.649350	-0.387168	-0.350980	1.342880	-1.632820	-0.828123	0.091614	0.542906	-1.000000	-1.000000	-1.000000	-1.000000	-1.000000	-1.000000	-1.000000	56.000000	0.000000	-1.000000	-1.000000	2251812.000000	1776580906.955390
-11757.690000	-7655.850000	-3743.415000	12145.905000	2729.340000	3977.910000	-20690.190000	-25540.920000	-0.392789	4.821987	3.466836	-1.903159	-11.610859	-15.946723	-5.884971	-3.368268	-0.350980	1.342880	-1.632820	-0.828123	0.091614	0.542906	-1.000000	-1.000000	-1.000000	-1.000000	-1.000000	-1.000000	-1.000000	56.000000	0.000000	-1.000000	-1.000000	2251813.000000	1776580906.955401
-11756.160000	-7655.940000	-3743.370000	12149.235000	2734.335000	3979.305000	-20683.395000	-25536.105000	-1.960670	1.269444	-0.467555	-5.109710	-11.106234	-11.347806	-7.135807	-5.439200	-0.350980	1.342880	-1.632820	-0.828123	0.091614	0.542906	-1.000000	-1.000000	-1.000000	-1.000000	-1.000000	-1.000000	-1.000000	56.000000	0.000000	-1.000000	-1.000000	2251814.000000	1776580906.959366
-11758.770000	-7659.810000	-3747.330000	12145.320000	2730.600000	3972.960000	-20684.070000	-25538.220000	-2.801856	-2.029918	-3.785326	-6.347199	-7.234347	-4.261931	-5.166193	-5.228312	-0.350980	1.342880	-1.632820	-0.828123	0.091614	0.542906	-1.000000	-1.000000	-1.000000	-1.000000	-1.000000	-1.000000	-1.000000	56.000000	0.000000	-1.000000	-1.000000	2251815.000000	1776580906.959380
-11763.270000	-7664.580000	-3752.595000	12141.720000	2726.730000	3964.860000	-20686.590000	-25540.920000	-2.170332	-3.354977	-4.728265	-4.793414	-1.232072	2.613449	-0.838218	-2.883683	-0.350980	1.342880	-1.632820	-0.828123	0.091614	0.542906	-1.000000	-1.000000	-1.000000	-1.000000	-1.000000	-1.000000	-1.000000	56.000000	0.000000	-1.000000	-1.000000	2251816.000000	1776580906.963270
-11759.175000	-7659.225000	-3746.565000	12151.170000	2733.615000	3962.925000	-20690.055000	-25540.605000	-0.475148	-2.577978	-3.332730	-1.565261	4.228143	6.869344	3.281682	0.081768	-0.350980	1.342880	-1.632820	-0.828123	0.091614	0.542906	-1.000000	-1.000000	-1.000000	-1.000000	-1.000000	-1.000000	-1.000000	56.000000	0.000000	-1.000000	-1.000000	2251817.000000	1776580906.963280
-11756.475000	-7654.770000	-3740.130000	12160.035000	2740.680000	3963.510000	-20693.880000	-25541.460000	1.626849	-0.238630	-0.299085	2.191563	7.567421	8.011092	5.077821	2.295299	-0.350980	1.342880	-1.632820	-0.828123	0.091614	0.542906	-1.000000	-1.000000	-1.000000	-1.000000	-1.000000	-1.000000	-1.000000	56.000000	0.000000	-1.000000	-1.000000	2251818.000000	1776580906.967297
-11757.555000	-7654.995000	-3739.320000	12162.420000	2741.580000	3955.005000	-20698.020000	-25543.485000	3.523692	2.703900	3.322987	5.546111	8.623283	7.078140	4.234523	3.240666	-0.350980	1.342880	-1.632820	-0.828123	0.091614	0.542906	-1.000000	-1.000000	-1.000000	-1.000000	-1.000000	-1.000000	-1.000000	56.000000	0.000000	-1.000000	-1.000000	2251819.000000	1776580906.967306
-11751.795000	-7646.625000	-3730.365000	12170.430000	2749.635000	3957.435000	-20702.880000	-25542.180000	4.456807	4.833593	5.953058	7.176044	7.531840	5.121549	1.874481	3.027054	-0.350980	1.342880	-1.632820	-0.828123	0.091614	0.542906	-1.000000	-1.000000	-1.000000	-1.000000	-1.000000	-1.000000	-1.000000	56.000000	0.000000	-1.000000	-1.000000	2251820.000000	1776580906.972844
-11737.890000	-7625.070000	-3706.515000	12192.705000	2774.115000	3975.030000	-20710.530000	-25540.425000	4.289182	5.549137	6.789077	6.548290	5.111171	3.300034	-0.561243	2.203950	-0.350980	1.342880	-1.632820	-0.828123	0.091614	0.542906	-1.000000	-1.000000	-1.000000	-1.000000	-1.000000	-1.000000	-1.000000	56.000000	0.000000	-1.000000	-1.000000	2251821.000000	1776580906.972855
-11742.930000	-7630.470000	-3712.320000	12181.635000	2757.735000	3966.165000	-20700.315000	-25537.905000	3.491162	5.208566	6.150766	4.316945	2.508904	2.667682	-1.855521	1.427500	-2.563680	1.876980	-0.289940	-0.827513	0.091797	0.542113	-1.000000	-1.000000	-1.000000	-1.000000	-1.000000	-1.000000	-1.000000	56.000000	0.000000	-1.000000	-1.000000	2251822.000000	1776580906.975291
-11747.295000	-7641.765000	-3729.285000	12158.820000	2732.085000	3950.865000	-20694.555000	-25535.565000	1.789455	3.172463	3.392525	0.210425	-1.148357	2.174199	-1.011683	0.994258	-2.563680	1.876980	-0.289940	-0.827513	0.091797	0.542113	-1.000000	-1.000000	-1.000000	-1.000000	-1.000000	-1.000000	-1.000000	56.000000	0.000000	-1.000000	-1.000000	2251823.000000	1776580906.975299
-11740.230000	-7634.970000	-3723.705000	12164.085000	2734.785000	3956.895000	-20688.795000	-25529.490000	-1.180047	-1.392378	-2.329531	-6.134748	-7.093656	-0.167923	1.840305	0.830072	-2.563680	1.876980	-0.289940	-0.827513	0.091797	0.542113	-1.000000	-1.000000	-1.000000	-1.000000	-1.000000	-1.000000	-1.000000	56.000000	0.000000	-1.000000	-1.000000	2251824.000000	1776580906.979232
-11750.220000	-7643.925000	-3730.230000	12162.600000	2741.355000	3973.905000	-20687.985000	-25537.455000	-4.366140	-6.808479	-8.840146	-11.851225	-12.492753	-3.318031	4.789653	0.568694	-2.563680	1.876980	-0.289940	-0.827513	0.091797	0.542113	-1.000000	-1.000000	-1.000000	-1.000000	-1.000000	-1.000000	-1.000000	56.000000	0.000000	-1.000000	-1.000000	2251825.000000	1776580906.979241
-11759.355000	-7658.460000	-3750.615000	12137.895000	2728.260000	3976.785000	-20683.440000	-25540.785000	-6.509214	-10.347329	-12.607977	-13.191237	-12.777533	-4.094185	5.593600	-0.450472	-2.563680	1.876980	-0.289940	-0.827513	0.091797	0.542113	-1.000000	-1.000000	-1.000000	-1.000000	-1.000000	-1.000000	-1.000000	56.000000	0.000000	-1.000000	-1.000000	2251826.000000	1776580906.983280
-11761.020000	-7658.955000	-3748.680000	12141.315000	2722.545000	3955.320000	-20690.820000	-25539.930000	-7.176917	-10.802760	-12.277395	-9.879601	-7.560352	-2.260667	3.420693	-2.281880	-2.563680	1.876980	-0.289940	-0.827513	0.091797	0.542113	-1.000000	-1.000000	-1.000000	-1.000000	-1.000000	-1.000000	-1.000000	56.000000	0.000000	-1.000000	-1.000000	2251827.000000	1776580906.983289
-11761.290000	-7659.180000	-3747.915000	12143.700000	2725.560000	3968.640000	-20688.120000	-25538.580000	-5.921011	-7.936476	-8.027867	-3.639976	-0.220760	-0.785022	-0.855069	-3.707039	-2.563680	1.876980	-0.289940	-0.827513	0.091797	0.542113	-1.000000	-1.000000	-1.000000	-1.000000	-1.000000	-1.000000	-1.000000	56.000000	0.000000	-1.000000	-1.000000	2251828.000000	1776580906.987435
-11758.005000	-7657.380000	-3746.205000	12148.830000	2738.070000	3998.970000	-20682.000000	-25537.320000	-2.451857	-2.160513	-0.742919	4.015243	6.406117	-0.372970	-5.008384	-3.438771	-2.563680	1.876980	-0.289940	-0.827513	0.091797	0.542113	-1.000000	-1.000000	-1.000000	-1.000000	-1.000000	-1.000000	-1.000000	56.000000	0.000000	-1.000000	-1.000000	2251829.000000	1776580906.987452
-11758.455000	-7661.070000	-3750.975000	12146.355000	2731.410000	3987.630000	-20694.060000	-25546.410000	2.343365	4.607225	7.055358	10.877958	10.958026	1.003392	-6.916033	-1.655826	-2.563680	1.876980	-0.289940	-0.827513	0.091797	0.542113	-1.000000	-1.000000	-1.000000	-1.000000	-1.000000	-1.000000	-1.000000	56.000000	0.000000	-1.000000	-1.000000	2251830.000000	1776580906.991315
-11761.650000	-7660.305000	-3749.220000	12151.080000	2735.730000	3985.155000	-20698.245000	-25553.745000	6.421537	9.547038	12.055386	14.238735	12.155970	2.765429	-6.483729	0.077891	-2.563680	1.876980	-0.289940	-0.827513	0.091797	0.542113	-1.000000	-1.000000	-1.000000	-1.000000	-1.000000	-1.000000	-1.000000	56.000000	0.000000	-1.000000	-1.000000	2251831.000000	1776580906.991327
-11760.885000	-7657.695000	-3744.225000	12153.825000	2740.905000	3991.590000	-20691.540000	-25549.650000	7.872887	10.876955	12.598562	12.894927	9.527334	2.263903	-4.705534	0.667902	-3.479280	1.526000	1.556520	-0.828489	0.091003	0.542296	-1.000000	-1.000000	-1.000000	-1.000000	-1.000000	-1.000000	-1.000000	56.000000	0.000000	-1.000000	-1.000000	2251832.000000	1776580906.995380
-11760.930000	-7660.800000	-3746.565000	12155.985000	2741.940000	3982.545000	-20691.000000	-25546.095000	6.366166	8.760515	9.442988	7.915598	4.504020	-0.702625	-1.826559	0.821929	-3.479280	1.526000	1.556520	-0.828489	0.091003	0.542296	-1.000000	-1.000000	-1.000000	-1.000000	-1.000000	-1.000000	-1.000000	56.000000	0.000000	-1.000000	-1.000000	2251833.000000	1776580906.995392
-11753.010000	-7652.295000	-3735.180000	12169.485000	2747.295000	3960.720000	-20686.770000	-25533.630000	3.278643	4.668646	4.551481	1.752993	-0.726313	-4.577026	1.852986	1.895678	-3.479280	1.526000	1.556520	-0.828489	0.091003	0.542296	-1.000000	-1.000000	-1.000000	-1.000000	-1.000000	-1.000000	-1.000000	56.000000	0.000000	-1.000000	-1.000000	2251834.000000	1776580906.999229
-11758.140000	-7654.950000	-3740.580000	12153.870000	2729.610000	3953.610000	-20692.305000	-25536.015000	0.361892	0.466530	-0.133947	-3.396960	-4.874407	-8.120667	4.965618	3.943417	-3.479280	1.526000	1.556520	-0.828489	0.091003	0.542296	-1.000000	-1.000000	-1.000000	-1.000000	-1.000000	-1.000000	-1.000000	56.000000	0.000000	-1.000000	-1.000000	2251835.000000	1776580906.999239
-11758.950000	-7659.045000	-3747.870000	12144.870000	2732.040000	3965.805000	-20694.195000	-25541.505000	-1.709229	-2.712591	-3.783324	-7.189049	-7.802476	-9.322138	5.880810	5.171878	-3.479280	1.526000	1.556520	-0.828489	0.091003	0.542296	-1.000000	-1.000000	-1.000000	-1.000000	-1.000000	-1.000000	-1.000000	56.000000	0.000000	-1.000000	-1.000000	2251836.000000	1776580907.003340
-11753.595000	-7652.520000	-3738.375000	12157.470000	2738.295000	3956.130000	-20697.345000	-25541.055000	-3.022001	-4.673782	-6.360766	-9.745499	-8.959205	-5.991375	4.135181	3.709280	-3.479280	1.526000	1.556520	-0.828489	0.091003	0.542296	-1.000000	-1.000000	-1.000000	-1.000000	-1.000000	-1.000000	-1.000000	56.000000	0.000000	-1.000000	-1.000000	2251837.000000	1776580907.003354
-11748.285000	-7645.005000	-3733.065000	12163.815000	2739.960000	3948.885000	-20696.400000	-25535.430000	-3.271513	-5.039741	-7.067857	-9.502397	-7.103020	0.793843	0.952021	0.059787	-3.479280	1.526000	1.556520	-0.828489	0.091003	0.542296	-1.000000	-1.000000	-1.000000	-1.000000	-1.000000	-1.000000	-1.000000	56.000000	0.000000	-1.000000	-1.000000	2251838.000000	1776580907.007386
-11749.095000	-7648.200000	-3742.020000	12145.455000	2723.760000	3948.030000	-20694.600000	-25535.790000	-2.256342	-3.584902	-5.366100	-5.773191	-2.839643	7.028364	-1.693619	-3.311627	-3.479280	1.526000	1.556520	-0.828489	0.091003	0.542296	-1.000000	-1.000000	-1.000000	-1.000000	-1.000000	-1.000000	-1.000000	56.000000	0.000000	-1.000000	-1.000000	2251839.000000	1776580907.007409
-11748.690000	-7650.045000	-3740.175000	12147.705000	2729.295000	3975.210000	-20682.630000	-25531.470000	-0.776343	-1.447523	-2.616766	-1.105244	1.118559	10.380194	-2.307136	-4.570498	-3.479280	1.526000	1.556520	-0.828489	0.091003	0.542296	-1.000000	-1.000000	-1.000000	-1.000000	-1.000000	-1.000000	-1.000000	56.000000	0.000000	-1.000000	-1.000000	2251840.000000	1776580907.011291
-11759.220000	-7658.145000	-3739.995000	12154.995000	2739.465000	4000.410000	-20678.850000	-25537.545000	-0.111471	-0.343865	-0.473673	2.047742	3.358868	11.972738	-0.638720	-3.780865	-3.479280	1.526000	1.556520	-0.828489	0.091003	0.542296	-1.000000	-1.000000	-1.000000	-1.000000	-1.000000	-1.000000	-1.000000	56.000000	0.000000	-1.000000	-1.000000	2251841.000000	1776580907.011300
-11765.745000	-7658.280000	-3737.205000	12166.425000	2752.065000	3990.285000	-20691.225000	-25544.115000	-0.985235	-0.832155	0.803774	4.030664	4.909746	12.612953	1.670562	-2.364718	-4.562740	1.358140	0.946120	-0.829405	0.087768	0.542235	-1.000000	-1.000000	-1.000000	-1.000000	-1.000000	-1.000000	-1.000000	56.000000	0.000000	-1.000000	-1.000000	2251842.000000	1776580907.015266
-11755.980000	-7653.780000	-3729.735000	12183.165000	2769.165000	3972.015000	-20702.925000	-25539.930000	-2.564579	-1.761044	1.771420	6.067043	6.763262	9.642117	1.824230	-1.510487	-4.562740	1.358140	0.946120	-0.829405	0.087768	0.542235	-1.000000	-1.000000	-1.000000	-1.000000	-1.000000	-1.000000	-1.000000	56.000000	0.000000	-1.000000	-1.000000	2251843.000000	1776580907.015279
-11740.995000	-7643.745000	-3719.115000	12189.600000	2771.910000	3983.085000	-20695.005000	-25529.355000	-2.470581	-1.293443	2.937570	8.001282	8.159275	1.026119	-0.989202	-0.752190	-4.562740	1.358140	0.946120	-0.829405	0.087768	0.542235	-1.000000	-1.000000	-1.000000	-1.000000	-1.000000	-1.000000	-1.000000	56.000000	0.000000	-1.000000	-1.000000	2251844.000000	1776580907.019221
-11756.970000	-7647.525000	-3731.895000	12164.805000	2750.085000	3999.915000	-20681.640000	-25536.690000	0.347142	1.082550	3.898031	7.660629	6.720056	-9.264233	-3.853944	0.859157	-4.562740	1.358140	0.946120	-0.829405	0.087768	0.542235	-1.000000	-1.000000	-1.000000	-1.000000	-1.000000	-1.000000	-1.000000	56.000000	0.000000	-1.000000	-1.000000	2251845.000000	1776580907.019230
-11760.300000	-7656.255000	-3754.305000	12140.595000	2732.850000	3991.140000	-20684.565000	-25542.630000	3.373765	3.505668	2.766255	2.294291	0.386774	-14.722947	-3.472942	2.510864	-4.562740	1.358140	0.946120	-0.829405	0.087768	0.542235	-1.000000	-1.000000	-1.000000	-1.000000	-1.000000	-1.000000	-1.000000	56.000000	0.000000	-1.000000	-1.000000	2251846.000000	1776580907.023332
-11753.595000	-7652.115000	-3741.480000	12163.095000	2755.845000	3995.280000	-20685.735000	-25541.865000	3.799181	3.685499	-1.325519	-6.876678	-8.669349	-13.444212	-0.294051	2.587347	-4.562740	1.358140	0.946120	-0.829405	0.087768	0.542235	-1.000000	-1.000000	-1.000000	-1.000000	-1.000000	-1.000000	-1.000000	56.000000	0.000000	-1.000000	-1.000000	2251847.000000	1776580907.023346
-11749.185000	-7639.920000	-3733.020000	12159.360000	2743.380000	3997.035000	-20684.205000	-25540.155000	2.187616	1.897685	-5.280962	-13.308776	-14.171550	-8.158246	2.607792	1.182390	-4.562740	1.358140	0.946120	-0.829405	0.087768	0.542235	-1.000000	-1.000000	-1.000000	-1.000000	-1.000000	-1.000000	-1.000000	56.000000	0.000000	-1.000000	-1.000000	2251848.000000	1776580907.027402
-11750.355000	-7640.730000	-3734.415000	12154.995000	2736.000000	3977.820000	-20691.495000	-25539.840000	0.661918	0.370219	-5.174924	-12.074917	-12.567147	-2.494787	3.147530	-0.190916	-4.562740	1.358140	0.946120	-0.829405	0.087768	0.542235	-1.000000	-1.000000	-1.000000	-1.000000	-1.000000	-1.000000	-1.000000	56.000000	0.000000	-1.000000	-1.000000	2251849.000000	1776580907.027424
-11751.255000	-7650.630000	-3740.940000	12153.960000	2736.585000	3961.980000	-20696.850000	-25535.430000	-0.071513	-0.148323	-1.368028	-4.987770	-6.149775	0.546667	1.256292	-0.480426	-4.562740	1.358140	0.946120	-0.829405	0.087768	0.542235	-1.000000	-1.000000	-1.000000	-1.000000	-1.000000	-1.000000	-1.000000	56.000000	0.000000	-1.000000	-1.000000	2251850.000000	1776580907.031318
-11754.180000	-7653.960000	-3744.900000	12146.895000	2729.025000	3977.595000	-20684.385000	-25536.015000	-0.589357	-0.939978	2.437318	2.795499	1.022584	0.579543	-1.467787	0.233921	-4.562740	1.358140	0.946120	-0.829405	0.087768	0.542235	-1.000000	-1.000000	-1.000000	-1.000000	-1.000000	-1.000000	-1.000000	56.000000	0.000000	-1.000000	-1.000000	2251851.000000	1776580907.031333
-11756.790000	-7654.365000	-3748.230000	12140.505000	2723.310000	3981.060000	-20682.045000	-25539.030000	-1.367555	-2.565098	3.571484	7.332040	6.096697	0.718032	-2.562966	1.031740	-2.197440	0.808780	1.815940	-0.829954	0.085022	0.542174	-1.000000	-1.000000	-1.000000	-1.000000	-1.000000	-1.000000	-1.000000	56.000000	0.000000	-1.000000	-1.000000	2251852.000000	1776580907.035249
-11755.890000	-7650.585000	-3743.280000	12149.415000	2731.185000	3971.430000	-20689.245000	-25540.065000	-2.168613	-3.713261	2.331870	7.735564	8.058924	3.253700	-1.223672	0.932721	-2.197440	0.808780	1.815940	-0.829954	0.085022	0.542174	-1.000000	-1.000000	-1.000000	-1.000000	-1.000000	-1.000000	-1.000000	56.000000	0.000000	-1.000000	-1.000000	2251853.000000	1776580907.035280
-11753.235000	-7646.130000	-3739.320000	12155.355000	2735.010000	3965.040000	-20690.955000	-25539.480000	-2.259805	-2.883526	0.800011	5.993675	7.895612	6.308401	0.689098	-0.122936	-2.197440	0.808780	1.815940	-0.829954	0.085022	0.542174	-1.000000	-1.000000	-1.000000	-1.000000	-1.000000	-1.000000	-1.000000	56.000000	0.000000	-1.000000	-1.000000	2251854.000000	1776580907.039298
-11771.505000	-7667.730000	-3761.865000	12131.235000	2714.355000	3952.035000	-20696.715000	-25550.955000	-1.525212	-0.523720	0.079137	3.930437	6.562377	6.709943	1.176697	-1.470343	-2.197440	0.808780	1.815940	-0.829954	0.085022	0.542174	-1.000000	-1.000000	-1.000000	-1.000000	-1.000000	-1.000000	-1.000000	56.000000	0.000000	-1.000000	-1.000000	2251855.000000	1776580907.039311
-11777.760000	-7676.280000	-3765.015000	12132.090000	2713.635000	3948.750000	-20697.930000	-25553.475000	-1.070007	0.919342	-0.829697	1.153687	3.572377	3.759343	0.117456	-2.648852	-2.197440	0.808780	1.815940	-0.829954	0.085022	0.542174	-1.000000	-1.000000	-1.000000	-1.000000	-1.000000	-1.000000	-1.000000	56.000000	0.000000	-1.000000	-1.000000	2251856.000000	1776580907.043281
-11779.065000	-7678.710000	-3768.255000	12124.080000	2705.895000	3948.300000	-20699.730000	-25556.040000	-1.450958	0.116883	-2.455218	-2.443916	-0.838665	-0.362201	-1.239181	-3.223124	-2.197440	0.808780	1.815940	-0.829954	0.085022	0.542174	-1.000000	-1.000000	-1.000000	-1.000000	-1.000000	-1.000000	-1.000000	56.000000	0.000000	-1.000000	-1.000000	2251857.000000	1776580907.043290
-11774.070000	-7673.940000	-3766.140000	12124.980000	2706.795000	3948.570000	-20700.045000	-25554.420000	-1.368468	-1.152688	-3.271753	-5.066705	-4.546903	-2.716240	-1.627888	-2.499300	-2.197440	0.808780	1.815940	-0.829954	0.085022	0.542174	-1.000000	-1.000000	-1.000000	-1.000000	-1.000000	-1.000000	-1.000000	56.000000	0.000000	-1.000000	-1.000000	2251858.000000	1776580907.047306
-11755.755000	-7655.265000	-3752.505000	12139.920000	2716.830000	3950.685000	-20700.540000	-25545.060000	0.849298	-0.113056	-1.594741	-4.737436	-5.323207	-2.067353	-0.705948	-0.133809	-2.197440	0.808780	1.815940	-0.829954	0.085022	0.542174	-1.000000	-1.000000	-1.000000	-1.000000	-1.000000	-1.000000	-1.000000	56.000000	0.000000	-1.000000	-1.000000	2251859.000000	1776580907.047315
-11745.315000	-7644.735000	-3744.270000	12147.480000	2722.680000	3946.410000	-20699.595000	-25540.290000	5.278484	4.050136	2.597124	-0.915251	-2.501207	0.470597	0.942031	3.345032	-2.197440	0.808780	1.815940	-0.829954	0.085022	0.542174	-1.000000	-1.000000	-1.000000	-1.000000	-1.000000	-1.000000	-1.000000	56.000000	0.000000	-1.000000	-1.000000	2251860.000000	1776580907.051353
-11733.885000	-7629.615000	-3727.215000	12167.550000	2741.040000	3929.985000	-20710.080000	-25537.545000	9.718615	9.161312	7.425850	4.786240	2.516127	2.384485	2.217762	6.377258	-2.197440	0.808780	1.815940	-0.829954	0.085022	0.542174	-1.000000	-1.000000	-1.000000	-1.000000	-1.000000	-1.000000	-1.000000	56.000000	0.000000	-1.000000	-1.000000	2251861.000000	1776580907.051364
-11722.995000	-7614.405000	-3705.930000	12191.625000	2757.150000	3923.235000	-20711.295000	-25531.965000	11.126365	11.789449	10.484177	9.643581	7.265167	1.628722	2.102835	7.157857	1.373400	2.273740	0.213640	-0.828489	0.083008	0.540953	-1.000000	-1.000000	-1.000000	-1.000000	-1.000000	-1.000000	-1.000000	56.000000	0.000000	-1.000000	-1.000000	2251862.000000	1776580907.055412
-11731.995000	-7618.095000	-3706.200000	12186.405000	2747.655000	3943.980000	-20708.415000	-25540.155000	7.802858	9.733347	10.154349	11.200811	9.183660	-0.890423	0.779010	4.921050	1.373400	2.273740	0.213640	-0.828489	0.083008	0.540953	-1.000000	-1.000000	-1.000000	-1.000000	-1.000000	-1.000000	-1.000000	56.000000	0.000000	-1.000000	-1.000000	2251863.000000	1776580907.055425
-11747.250000	-7630.065000	-3707.730000	12205.035000	2756.070000	3960.315000	-20706.795000	-25549.290000	-0.042164	2.646126	5.527618	7.830764	6.314587	-1.517164	-0.321622	0.124644	1.373400	2.273740	0.213640	-0.828489	0.083008	0.540953	-1.000000	-1.000000	-1.000000	-1.000000	-1.000000	-1.000000	-1.000000	56.000000	0.000000	-1.000000	-1.000000	2251864.000000	1776580907.059388
-11754.315000	-7644.330000	-3723.390000	12196.845000	2748.645000	3965.220000	-20703.465000	-25550.145000	-10.045406	-7.763514	-3.011205	0.230091	-0.704655	1.610123	-0.168434	-5.567615	1.373400	2.273740	0.213640	-0.828489	0.083008	0.540953	-1.000000	-1.000000	-1.000000	-1.000000	-1.000000	-1.000000	-1.000000	56.000000	0.000000	-1.000000	-1.000000	2251865.000000	1776580907.059400
-11757.690000	-7660.170000	-3763.755000	12119.760000	2723.805000	3986.775000	-20682.675000	-25547.175000	-17.664432	-17.586360	-13.365390	-9.978842	-8.926880	6.066579	1.257692	-9.314748	1.373400	2.273740	0.213640	-0.828489	0.083008	0.540953	-1.000000	-1.000000	-1.000000	-1.000000	-1.000000	-1.000000	-1.000000	56.000000	0.000000	-1.000000	-1.000000	2251866.000000	1776580907.063290
-11767.815000	-7671.690000	-3775.140000	12109.095000	2713.860000	3989.745000	-20682.630000	-25554.105000	-18.791308	-22.361142	-22.216092	-21.689855	-15.504771	8.188759	3.389503	-8.965321	1.373400	2.273740	0.213640	-0.828489	0.083008	0.540953	-1.000000	-1.000000	-1.000000	-1.000000	-1.000000	-1.000000	-1.000000	56.000000	0.000000	-1.000000	-1.000000	2251867.000000	1776580907.063306
-11766.780000	-7668.315000	-3766.680000	12124.080000	2729.880000	4008.285000	-20685.915000	-25554.195000	-12.859238	-19.360265	-24.706748	-29.448541	-17.450351	6.271438	4.548490	-5.058427	1.373400	2.273740	0.213640	-0.828489	0.083008	0.540953	-1.000000	-1.000000	-1.000000	-1.000000	-1.000000	-1.000000	-1.000000	56.000000	0.000000	-1.000000	-1.000000	2251868.000000	1776580907.067461
-11769.120000	-7669.890000	-3763.755000	12132.945000	2741.535000	4007.520000	-20688.750000	-25553.430000	-2.705409	-8.970150	-16.782997	-24.512776	-11.902088	1.078925	2.739193	0.068962	1.373400	2.273740	0.213640	-0.828489	0.083008	0.540953	-1.000000	-1.000000	-1.000000	-1.000000	-1.000000	-1.000000	-1.000000	56.000000	0.000000	-1.000000	-1.000000	2251869.000000	1776580907.067470
-11764.980000	-7666.065000	-3760.155000	12136.005000	2735.010000	3990.960000	-20690.550000	-25549.155000	7.585222	4.958750	-0.266362	-5.701150	-0.056849	-5.646051	-1.863409	4.405161	1.373400	2.273740	0.213640	-0.828489	0.083008	0.540953	-1.000000	-1.000000	-1.000000	-1.000000	-1.000000	-1.000000	-1.000000	56.000000	0.000000	-1.000000	-1.000000	2251870.000000	1776580907.071259
-11760.390000	-7661.790000	-3758.220000	12135.870000	2729.025000	3989.025000	-20691.180000	-25547.715000	14.593549	16.830313	17.050222	17.278903	11.593096	-12.315411	-6.663679	6.916257	1.373400	2.273740	0.213640	-0.828489	0.083008	0.540953	-1.000000	-1.000000	-1.000000	-1.000000	-1.000000	-1.000000	-1.000000	56.000000	0.000000	-1.000000	-1.000000	2251871.000000	1776580907.071275
-11765.205000	-7665.615000	-3760.200000	12134.745000	2727.810000	3988.890000	-20694.870000	-25557.570000	16.508447	22.232958	26.994612	32.147612	16.558415	-16.457732	-8.933791	7.006713	4.410140	2.090620	1.037680	-0.827635	0.085266	0.542540	-1.000000	-1.000000	-1.000000	-1.000000	-1.000000	-1.000000	-1.000000	56.000000	0.000000	-1.000000	-1.000000	2251872.000000	1776580907.075636
-11768.535000	-7666.920000	-3758.985000	12136.815000	2727.900000	3984.660000	-20696.040000	-25562.250000	13.113199	19.679454	25.964871	32.759448	13.625047	-15.378427	-7.728733	4.388720	4.410140	2.090620	1.037680	-0.827635	0.085266	0.542540	-1.000000	-1.000000	-1.000000	-1.000000	-1.000000	-1.000000	-1.000000	56.000000	0.000000	-1.000000	-1.000000	2251873.000000	1776580907.075645
-11764.440000	-7662.645000	-3753.720000	12141.765000	2730.285000	3980.655000	-20691.765000	-25555.860000	6.044649	11.113454	16.167484	21.422709	6.378729	-8.997336	-3.866365	0.163611	4.410140	2.090620	1.037680	-0.827635	0.085266	0.542540	-1.000000	-1.000000	-1.000000	-1.000000	-1.000000	-1.000000	-1.000000	56.000000	0.000000	-1.000000	-1.000000	2251874.000000	1776580907.079449
-11762.865000	-7660.620000	-3749.490000	12149.370000	2732.895000	3972.195000	-20691.180000	-25552.710000	-1.398662	0.926636	3.377604	5.533874	-0.563618	-0.282856	1.070402	-3.058266	4.410140	2.090620	1.037680	-0.827635	0.085266	0.542540	-1.000000	-1.000000	-1.000000	-1.000000	-1.000000	-1.000000	-1.000000	56.000000	0.000000	-1.000000	-1.000000	2251875.000000	1776580907.079455
-11765.520000	-7660.665000	-3744.540000	12162.330000	2741.355000	3967.560000	-20690.955000	-25552.575000	-6.306393	-6.783972	-6.898927	-7.480701	-4.324008	7.022065	5.257748	-3.491019	4.410140	2.090620	1.037680	-0.827635	0.085266	0.542540	-1.000000	-1.000000	-1.000000	-1.000000	-1.000000	-1.000000	-1.000000	56.000000	0.000000	-1.000000	-1.000000	2251876.000000	1776580907.083334
-11761.515000	-7653.015000	-3738.690000	12166.290000	2754.405000	3963.870000	-20692.530000	-25546.455000	-7.813095	-10.160684	-11.924635	-13.708047	-4.294625	10.716250	7.131705	-1.685152	4.410140	2.090620	1.037680	-0.827635	0.085266	0.542540	-1.000000	-1.000000	-1.000000	-1.000000	-1.000000	-1.000000	-1.000000	56.000000	0.000000	-1.000000	-1.000000	2251877.000000	1776580907.083346
-11756.700000	-7648.425000	-3732.345000	12175.695000	2763.135000	3946.095000	-20701.845000	-25543.440000	-6.505241	-9.363687	-11.826196	-13.557620	-1.614396	10.543791	6.045823	0.677738	4.410140	2.090620	1.037680	-0.827635	0.085266	0.542540	-1.000000	-1.000000	-1.000000	-1.000000	-1.000000	-1.000000	-1.000000	56.000000	0.000000	-1.000000	-1.000000	2251878.000000	1776580907.087579
-11762.415000	-7666.515000	-3752.325000	12156.030000	2726.100000	3939.840000	-20695.950000	-25544.070000	-3.643284	-6.271799	-8.906973	-10.335679	0.674932	7.306588	2.713293	2.145738	4.410140	2.090620	1.037680	-0.827635	0.085266	0.542540	-1.000000	-1.000000	-1.000000	-1.000000	-1.000000	-1.000000	-1.000000	56.000000	0.000000	-1.000000	-1.000000	2251879.000000	1776580907.087599
-11754.540000	-7668.945000	-3760.245000	12144.645000	2727.225000	3961.440000	-20694.915000	-25537.770000	-0.836077	-3.773200	-6.425201	-7.914312	-0.936208	3.275935	-0.780441	2.019809	4.410140	2.090620	1.037680	-0.827635	0.085266	0.542540	-1.000000	-1.000000	-1.000000	-1.000000	-1.000000	-1.000000	-1.000000	56.000000	0.000000	-1.000000	-1.000000	2251880.000000	1776580907.091521
-11749.095000	-7668.405000	-3758.715000	12147.300000	2748.150000	4016.565000	-20681.595000	-25534.575000	1.072372	-3.036957	-5.674966	-7.621353	-5.464863	2.634590	-2.230292	0.725346	4.410140	2.090620	1.037680	-0.827635	0.085266	0.542540	-1.000000	-1.000000	-1.000000	-1.000000	-1.000000	-1.000000	-1.000000	56.000000	0.000000	-1.000000	-1.000000	2251881.000000	1776580907.091542
-11748.735000	-7668.045000	-3758.895000	12138.660000	2741.625000	4009.410000	-20688.480000	-25538.895000	2.171016	-2.540086	-4.793592	-7.251737	-7.501262	7.319962	-1.188691	-0.844164	0.442540	2.563680	1.297100	-0.827024	0.087646	0.543028	-1.000000	-1.000000	-1.000000	-1.000000	-1.000000	-1.000000	-1.000000	56.000000	0.000000	-1.000000	-1.000000	2251882.000000	1776580907.095401
-11743.245000	-7636.500000	-3731.535000	12149.010000	2724.120000	3942.315000	-20701.530000	-25545.285000	2.456780	-0.142278	-1.300315	-4.250954	-4.859669	11.033763	0.322056	-2.411406	0.442540	2.563680	1.297100	-0.827024	0.087646	0.543028	-1.000000	-1.000000	-1.000000	-1.000000	-1.000000	-1.000000	-1.000000	56.000000	0.000000	-1.000000	-1.000000	2251883.000000	1776580907.095409
-11741.850000	-7623.945000	-3717.000000	12158.325000	2703.645000	3882.555000	-20709.360000	-25549.110000	1.865280	4.997391	5.362279	1.753114	-1.104987	3.464904	-0.270631	-3.967201	0.442540	2.563680	1.297100	-0.827024	0.087646	0.543028	-1.000000	-1.000000	-1.000000	-1.000000	-1.000000	-1.000000	-1.000000	56.000000	0.000000	-1.000000	-1.000000	2251884.000000	1776580907.100549
-11745.045000	-7639.965000	-3729.870000	12155.805000	2714.580000	3918.555000	-20703.690000	-25545.780000	0.563959	10.353054	12.217931	8.741056	0.494849	-14.810135	-2.827544	-4.789026	0.442540	2.563680	1.297100	-0.827024	0.087646	0.543028	-1.000000	-1.000000	-1.000000	-1.000000	-1.000000	-1.000000	-1.000000	56.000000	0.000000	-1.000000	-1.000000	2251885.000000	1776580907.100569
-11748.330000	-7652.970000	-3741.345000	12158.685000	2742.345000	3989.700000	-20684.565000	-25540.830000	-1.249179	10.624565	13.733642	13.133591	1.552228	-27.245269	-4.140540	-3.695861	0.442540	2.563680	1.297100	-0.827024	0.087646	0.543028	-1.000000	-1.000000	-1.000000	-1.000000	-1.000000	-1.000000	-1.000000	56.000000	0.000000	-1.000000	-1.000000	2251886.000000	1776580907.103441
