Channel1	Channel2	Channel3	Channel4	Channel5	Channel6	Channel7	Channel8	FilteredChannel1	FilteredChannel2	FilteredChannel3	FilteredChannel4	FilteredChannel5	FilteredChannel6	FilteredChannel7	FilteredChannel8	GyroX	GyroY	GyroZ	AccX	AccY	AccZ	PPG1	PPG2	rawPPG1	rawPPG2	rawPPG3	Hr	Hrv	Battery	Trigger	PhysicalTrigger	AutoTrigger	NumMeasurements	Timestamp
4630.320000	-18034.470000	19887.255000	62901.045000	28723.005000	8112.510000	-19569.015000	89.280000	0.034551	3.261639	-4.464181	-14.641631	-23.924248	15.093754	-18.388003	-4.606067	-1.587040	3.204600	0.183120	-0.937925	0.233032	0.233642	-1.000000	-1.000000	-1.000000	-1.000000	-1.000000	-1.000000	-1.000000	62.000000	0.000000	-1.000000	-1.000000	1133411.000000	1776578667.198049
4643.055000	-18014.310000	19918.980000	62938.845000	28777.320000	8094.870000	-19658.520000	82.305000	1.391924	8.724452	12.083838	29.615433	40.258732	2.328404	-14.901910	-3.911184	-1.587040	3.204600	0.183120	-0.937925	0.233032	0.233642	-1.000000	-1.000000	-1.000000	-1.000000	-1.000000	-1.000000	-1.000000	62.000000	0.000000	-1.000000	-1.000000	1133412.000000	1776578667.198066
4612.005000	-18050.805000	19885.230000	62912.520000	28707.255000	8100.630000	-19595.700000	71.865000	4.844839	12.666205	24.646835	57.694690	77.390435	-3.452456	0.420967	2.181399	-1.587040	3.204600	0.183120	-0.937925	0.233032	0.233642	-1.000000	-1.000000	-1.000000	-1.000000	-1.000000	-1.000000	-1.000000	62.000000	0.000000	-1.000000	-1.000000	1133413.000000	1776578667.201925
4563.360000	-18105.300000	19819.485000	62839.710000	28756.845000	8134.830000	-19592.370000	35.145000	3.662405	8.597678	23.035426	54.499315	70.681501	-6.200980	17.403491	5.366119	-1.587040	3.204600	0.183120	-0.937925	0.233032	0.233642	-1.000000	-1.000000	-1.000000	-1.000000	-1.000000	-1.000000	-1.000000	62.000000	0.000000	-1.000000	-1.000000	1133414.000000	1776578667.201940
4589.685000	-18087.165000	19835.595000	62861.355000	28870.785000	8214.795000	-19599.975000	60.570000	-5.318853	-5.303484	4.551699	22.281592	34.669663	-8.109457	28.107513	1.047274	-1.587040	3.204600	0.183120	-0.937925	0.233032	0.233642	-1.000000	-1.000000	-1.000000	-1.000000	-1.000000	-1.000000	-1.000000	62.000000	0.000000	-1.000000	-1.000000	1133415.000000	1776578667.205934
4600.755000	-18078.525000	19839.150000	62856.405000	28783.395000	8150.400000	-19576.395000	76.635000	-14.678638	-19.472663	-18.498065	-17.969282	-2.341623	-7.897203	27.995080	-5.792777	-1.587040	3.204600	0.183120	-0.937925	0.233032	0.233642	-1.000000	-1.000000	-1.000000	-1.000000	-1.000000	-1.000000	-1.000000	62.000000	0.000000	-1.000000	-1.000000	1133416.000000	1776578667.205965
4589.865000	-18094.770000	19812.060000	62809.200000	28714.635000	8060.355000	-19540.305000	73.980000	-15.059390	-22.325574	-29.771130	-42.793013	-28.535387	-11.047355	18.369667	-7.554768	-1.587040	3.204600	0.183120	-0.937925	0.233032	0.233642	-1.000000	-1.000000	-1.000000	-1.000000	-1.000000	-1.000000	-1.000000	62.000000	0.000000	-1.000000	-1.000000	1133417.000000	1776578667.208378
4591.980000	-18081.225000	19821.420000	62787.195000	28576.575000	7834.185000	-19503.315000	69.885000	-6.447606	-12.606515	-24.455025	-44.773819	-50.015232	-27.582356	6.363201	-3.463469	-1.587040	3.204600	0.183120	-0.937925	0.233032	0.233642	-1.000000	-1.000000	-1.000000	-1.000000	-1.000000	-1.000000	-1.000000	62.000000	0.000000	-1.000000	-1.000000	1133418.000000	1776578667.208388
4601.655000	-18057.870000	19871.145000	62859.915000	28668.645000	7965.360000	-19635.120000	58.140000	4.459690	2.930116	-7.666628	-28.784102	-65.815125	-52.916726	-4.989934	1.390998	-1.587040	3.204600	0.183120	-0.937925	0.233032	0.233642	-1.000000	-1.000000	-1.000000	-1.000000	-1.000000	-1.000000	-1.000000	62.000000	0.000000	-1.000000	-1.000000	1133419.000000	1776578667.212520
4638.465000	-18031.230000	19887.120000	62893.035000	28787.265000	8224.920000	-19676.295000	89.280000	12.698186	17.358869	13.405884	-0.850668	-57.876261	-54.731635	-20.689726	3.432325	-1.587040	3.204600	0.183120	-0.937925	0.233032	0.233642	-1.000000	-1.000000	-1.000000	-1.000000	-1.000000	-1.000000	-1.000000	62.000000	0.000000	-1.000000	-1.000000	1133420.000000	1776578667.212534
4599.495000	-18070.785000	19856.205000	62900.370000	28795.455000	8146.305000	-19581.075000	73.035000	16.177803	24.729022	29.287508	29.457596	-14.591745	-6.908356	-37.914532	3.416738	-4.379620	3.311420	0.595140	-0.938474	0.233520	0.231933	-1.000000	-1.000000	-1.000000	-1.000000	-1.000000	-1.000000	-1.000000	62.000000	0.000000	-1.000000	-1.000000	1133421.000000	1776578667.216485
4548.555000	-18124.335000	19807.020000	62844.435000	28763.685000	8082.630000	-19515.375000	47.700000	11.789894	19.280180	29.413120	46.152904	42.768160	61.745337	-38.401372	2.131818	-4.379620	3.311420	0.595140	-0.938474	0.233520	0.231933	-1.000000	-1.000000	-1.000000	-1.000000	-1.000000	-1.000000	-1.000000	62.000000	0.000000	-1.000000	-1.000000	1133422.000000	1776578667.216496
4566.375000	-18101.880000	19829.610000	62839.080000	28635.390000	7851.735000	-19542.510000	55.845000	-1.153848	1.520828	12.102931	37.728719	73.576815	89.914523	-13.202464	-1.189442	-4.379620	3.311420	0.595140	-0.938474	0.233520	0.231933	-1.000000	-1.000000	-1.000000	-1.000000	-1.000000	-1.000000	-1.000000	62.000000	0.000000	-1.000000	-1.000000	1133423.000000	1776578667.220400
4615.470000	-18053.640000	19864.935000	62872.830000	28619.055000	7850.250000	-19636.380000	83.970000	-13.657936	-16.078219	-9.670058	10.328003	56.113516	51.013393	18.480055	-4.317319	-4.379620	3.311420	0.595140	-0.938474	0.233520	0.231933	-1.000000	-1.000000	-1.000000	-1.000000	-1.000000	-1.000000	-1.000000	62.000000	0.000000	-1.000000	-1.000000	1133424.000000	1776578667.220406
4608.270000	-18049.635000	19887.435000	62937.090000	28706.580000	8207.280000	-19602.090000	73.710000	-14.292059	-19.278162	-19.427665	-15.236988	8.858858	-14.526875	30.410238	-3.234439	-4.379620	3.311420	0.595140	-0.938474	0.233520	0.231933	-1.000000	-1.000000	-1.000000	-1.000000	-1.000000	-1.000000	-1.000000	62.000000	0.000000	-1.000000	-1.000000	1133425.000000	1776578667.225877
4614.750000	-18055.980000	19862.955000	62891.235000	28839.600000	8114.175000	-19627.965000	88.695000	-3.410106	-7.912014	-13.604873	-23.480033	-25.349454	-40.366477	19.033848	1.638746	-4.379620	3.311420	0.595140	-0.938474	0.233520	0.231933	-1.000000	-1.000000	-1.000000	-1.000000	-1.000000	-1.000000	-1.000000	62.000000	0.000000	-1.000000	-1.000000	1133426.000000	1776578667.225885
4609.170000	-18050.580000	19876.455000	62890.335000	28838.655000	8091.495000	-19645.695000	75.150000	8.379115	5.854594	-2.218108	-17.939627	-21.021745	-14.102657	-0.000867	5.921331	-4.379620	3.311420	0.595140	-0.938474	0.233520	0.231933	-1.000000	-1.000000	-1.000000	-1.000000	-1.000000	-1.000000	-1.000000	62.000000	0.000000	-1.000000	-1.000000	1133427.000000	1776578667.230165
4599.405000	-18063.000000	19862.775000	62880.885000	28693.845000	8051.805000	-19650.240000	70.650000	12.210592	11.565752	4.339981	-10.950110	4.340860	18.656164	-12.689002	6.005895	-4.379620	3.311420	0.595140	-0.938474	0.233520	0.231933	-1.000000	-1.000000	-1.000000	-1.000000	-1.000000	-1.000000	-1.000000	62.000000	0.000000	-1.000000	-1.000000	1133428.000000	1776578667.230189
4604.040000	-18065.295000	19860.390000	62898.615000	28771.605000	8119.395000	-19643.400000	76.770000	6.980348	7.424638	3.386741	-7.686608	14.798369	22.899540	-13.776376	1.816942	-4.379620	3.311420	0.595140	-0.938474	0.233520	0.231933	-1.000000	-1.000000	-1.000000	-1.000000	-1.000000	-1.000000	-1.000000	62.000000	0.000000	-1.000000	-1.000000	1133429.000000	1776578667.233839
4588.470000	-18080.100000	19846.530000	62878.905000	28752.795000	8153.730000	-19592.415000	69.480000	-2.336076	-1.961985	-2.047477	-5.821067	0.859814	4.541041	-4.018741	-3.384636	-4.379620	3.311420	0.595140	-0.938474	0.233520	0.231933	-1.000000	-1.000000	-1.000000	-1.000000	-1.000000	-1.000000	-1.000000	62.000000	0.000000	-1.000000	-1.000000	1133430.000000	1776578667.233850
4584.870000	-18084.195000	19837.575000	62843.085000	28707.750000	8119.305000	-19595.295000	71.730000	-9.876360	-10.315550	-7.409071	-3.766570	-19.959855	-14.884703	11.475160	-6.301280	-2.609460	2.395820	2.060100	-0.941892	0.230956	0.229492	-1.000000	-1.000000	-1.000000	-1.000000	-1.000000	-1.000000	-1.000000	62.000000	0.000000	-1.000000	-1.000000	1133431.000000	1776578667.236660
4598.595000	-18069.840000	19851.435000	62830.305000	28578.870000	7902.360000	-19606.005000	84.330000	-12.055265	-12.934318	-8.999134	-2.838010	-34.547407	-29.034345	23.304493	-5.668564	-2.609460	2.395820	2.060100	-0.941892	0.230956	0.229492	-1.000000	-1.000000	-1.000000	-1.000000	-1.000000	-1.000000	-1.000000	62.000000	0.000000	-1.000000	-1.000000	1133432.000000	1776578667.236672
4605.435000	-18068.805000	19843.920000	62812.035000	28649.115000	7837.425000	-19610.235000	81.900000	-7.781657	-8.239539	-5.234767	-2.947655	-39.824399	-45.840406	22.641296	-1.975549	-2.609460	2.395820	2.060100	-0.941892	0.230956	0.229492	-1.000000	-1.000000	-1.000000	-1.000000	-1.000000	-1.000000	-1.000000	62.000000	0.000000	-1.000000	-1.000000	1133433.000000	1776578667.240523
4603.410000	-18061.290000	19853.775000	62849.745000	28772.685000	8101.800000	-19579.050000	79.020000	0.629028	1.123694	2.126751	-0.840501	-27.776996	-56.156268	9.896615	2.422914	-2.609460	2.395820	2.060100	-0.941892	0.230956	0.229492	-1.000000	-1.000000	-1.000000	-1.000000	-1.000000	-1.000000	-1.000000	62.000000	0.000000	-1.000000	-1.000000	1133434.000000	1776578667.240538
4603.410000	-18062.460000	19852.785000	62888.670000	28675.170000	8051.760000	-19593.450000	88.470000	8.077267	9.748998	9.087874	7.091934	5.772608	-32.663240	-5.825687	4.802243	-2.609460	2.395820	2.060100	-0.941892	0.230956	0.229492	-1.000000	-1.000000	-1.000000	-1.000000	-1.000000	-1.000000	-1.000000	62.000000	0.000000	-1.000000	-1.000000	1133435.000000	1776578667.247205
4583.205000	-18091.710000	19849.815000	62910.810000	28742.085000	8129.880000	-19634.220000	72.540000	10.181741	12.685789	12.229339	19.913077	42.560587	24.250682	-17.268481	4.258702	-2.609460	2.395820	2.060100	-0.941892	0.230956	0.229492	-1.000000	-1.000000	-1.000000	-1.000000	-1.000000	-1.000000	-1.000000	62.000000	0.000000	-1.000000	-1.000000	1133436.000000	1776578667.247218
4604.355000	-18067.545000	19885.140000	62955.045000	28870.560000	8122.680000	-19619.145000	92.340000	6.473788	8.518099	10.909228	30.560126	61.205172	77.230385	-23.134838	1.707455	-2.609460	2.395820	2.060100	-0.941892	0.230956	0.229492	-1.000000	-1.000000	-1.000000	-1.000000	-1.000000	-1.000000	-1.000000	62.000000	0.000000	-1.000000	-1.000000	1133437.000000	1776578667.252091
4605.705000	-18077.535000	19847.475000	62862.345000	28643.760000	7936.920000	-19556.235000	111.510000	0.874714	1.119405	6.853793	29.620411	55.521998	88.784556	-21.339881	-0.376479	-2.609460	2.395820	2.060100	-0.941892	0.230956	0.229492	-1.000000	-1.000000	-1.000000	-1.000000	-1.000000	-1.000000	-1.000000	62.000000	0.000000	-1.000000	-1.000000	1133438.000000	1776578667.252106
4603.320000	-18077.085000	19830.240000	62806.455000	28560.510000	8182.440000	-19625.400000	96.480000	-2.416616	-4.275693	0.492559	10.328805	21.477736	51.835881	-10.232656	-0.129234	-2.609460	2.395820	2.060100	-0.941892	0.230956	0.229492	-1.000000	-1.000000	-1.000000	-1.000000	-1.000000	-1.000000	-1.000000	62.000000	0.000000	-1.000000	-1.000000	1133439.000000	1776578667.253868
4626.405000	-18053.280000	19847.745000	62818.110000	28592.730000	8042.220000	-19642.770000	105.885000	-2.501819	-5.423023	-7.603291	-21.929567	-32.723448	-3.089003	2.651594	0.890625	-2.609460	2.395820	2.060100	-0.941892	0.230956	0.229492	-1.000000	-1.000000	-1.000000	-1.000000	-1.000000	-1.000000	-1.000000	62.000000	0.000000	-1.000000	-1.000000	1133440.000000	1776578667.253882
4618.980000	-18052.380000	19855.845000	62842.860000	28745.595000	7880.625000	-19635.705000	95.310000	-0.567655	-2.520900	-12.712737	-46.523844	-70.443990	-45.544779	7.795222	0.203609	2.121140	2.899400	0.381500	-0.941526	0.224853	0.230956	-1.000000	-1.000000	-1.000000	-1.000000	-1.000000	-1.000000	-1.000000	62.000000	0.000000	-1.000000	-1.000000	1133441.000000	1776578667.263775
4561.155000	-18104.805000	19835.820000	62881.605000	28797.345000	7918.605000	-19645.290000	46.440000	0.178951	1.033972	-10.974294	-44.665977	-57.832667	-70.827999	5.917793	-3.218926	2.121140	2.899400	0.381500	-0.941526	0.224853	0.230956	-1.000000	-1.000000	-1.000000	-1.000000	-1.000000	-1.000000	-1.000000	62.000000	0.000000	-1.000000	-1.000000	1133442.000000	1776578667.263807
4515.615000	-18153.945000	19801.530000	62847.945000	28779.975000	8103.105000	-19587.555000	23.940000	-4.721926	-0.867643	-5.442171	-17.836137	-3.913105	-71.037722	4.360144	-9.406317	2.121140	2.899400	0.381500	-0.941526	0.224853	0.230956	-1.000000	-1.000000	-1.000000	-1.000000	-1.000000	-1.000000	-1.000000	62.000000	0.000000	-1.000000	-1.000000	1133443.000000	1776578667.263823
4563.270000	-18109.215000	19844.460000	62919.630000	28887.885000	8130.150000	-19592.595000	67.545000	-13.369478	-8.570932	-0.994823	15.424438	49.453580	-32.380377	7.985486	-14.381093	2.121140	2.899400	0.381500	-0.941526	0.224853	0.230956	-1.000000	-1.000000	-1.000000	-1.000000	-1.000000	-1.000000	-1.000000	62.000000	0.000000	-1.000000	-1.000000	1133444.000000	1776578667.263827
4580.685000	-18094.365000	19849.320000	62905.230000	28820.700000	8146.350000	-19599.975000	82.260000	-15.169229	-12.464764	2.893409	37.524675	68.948175	30.276311	13.945033	-10.585244	2.121140	2.899400	0.381500	-0.941526	0.224853	0.230956	-1.000000	-1.000000	-1.000000	-1.000000	-1.000000	-1.000000	-1.000000	62.000000	0.000000	-1.000000	-1.000000	1133445.000000	1776578667.265894
4598.235000	-18087.795000	19847.205000	62897.310000	28800.360000	8139.735000	-19624.905000	97.920000	-3.495510	-4.832473	8.050963	40.506499	47.131024	76.129842	14.163342	3.577139	2.121140	2.899400	0.381500	-0.941526	0.224853	0.230956	-1.000000	-1.000000	-1.000000	-1.000000	-1.000000	-1.000000	-1.000000	62.000000	0.000000	-1.000000	-1.000000	1133446.000000	1776578667.265905
4611.285000	-18067.950000	19874.835000	62926.785000	28754.235000	8095.770000	-19625.355000	105.705000	15.082181	9.992527	12.278497	25.525097	-2.363191	76.236706	4.968212	19.651963	2.121140	2.899400	0.381500	-0.941526	0.224853	0.230956	-1.000000	-1.000000	-1.000000	-1.000000	-1.000000	-1.000000	-1.000000	62.000000	0.000000	-1.000000	-1.000000	1133447.000000	1776578667.269946
4627.170000	-18056.745000	19868.310000	62871.930000	28567.755000	8063.235000	-19602.360000	124.515000	28.147400	21.779442	12.725202	1.661901	-55.435718	33.549936	-8.008978	27.378600	2.121140	2.899400	0.381500	-0.941526	0.224853	0.230956	-1.000000	-1.000000	-1.000000	-1.000000	-1.000000	-1.000000	-1.000000	62.000000	0.000000	-1.000000	-1.000000	1133448.000000	1776578667.269960
4615.695000	-18064.350000	19858.005000	62858.250000	28681.650000	8101.350000	-19601.145000	105.210000	27.893772	23.456577	8.257673	-20.978191	-88.950182	-23.666057	-15.362322	22.517763	2.121140	2.899400	0.381500	-0.941526	0.224853	0.230956	-1.000000	-1.000000	-1.000000	-1.000000	-1.000000	-1.000000	-1.000000	62.000000	0.000000	-1.000000	-1.000000	1133449.000000	1776578667.274035
4632.660000	-18051.660000	19857.060000	62827.650000	28675.080000	7844.580000	-19676.835000	112.320000	14.760965	14.159843	-0.542849	-35.593006	-83.195874	-66.022122	-14.622100	7.568896	2.121140	2.899400	0.381500	-0.941526	0.224853	0.230956	-1.000000	-1.000000	-1.000000	-1.000000	-1.000000	-1.000000	-1.000000	62.000000	0.000000	-1.000000	-1.000000	1133450.000000	1776578667.274048
4631.310000	-18055.215000	19873.980000	62882.190000	28799.595000	8035.065000	-19655.235000	119.835000	-3.844029	-0.957251	-9.782539	-36.562028	-33.265207	-80.678450	-11.438568	-9.999251	2.411080	3.250380	-0.854560	-0.939695	0.225158	0.233947	-1.000000	-1.000000	-1.000000	-1.000000	-1.000000	-1.000000	-1.000000	62.000000	0.000000	-1.000000	-1.000000	1133451.000000	1776578667.278024
4563.765000	-18118.080000	19833.255000	62917.560000	28719.315000	8178.840000	-19596.600000	79.470000	-20.077611	-15.592698	-14.826082	-20.616037	37.076539	-58.490271	-7.388959	-22.327212	2.411080	3.250380	-0.854560	-0.939695	0.225158	0.233947	-1.000000	-1.000000	-1.000000	-1.000000	-1.000000	-1.000000	-1.000000	62.000000	0.000000	-1.000000	-1.000000	1133452.000000	1776578667.278036
4581.720000	-18101.205000	19840.500000	62885.745000	28715.580000	8171.730000	-19604.745000	89.595000	-30.383790	-26.153112	-14.938661	6.322376	87.055585	1.311121	1.948262	-26.329038	2.411080	3.250380	-0.854560	-0.939695	0.225158	0.233947	-1.000000	-1.000000	-1.000000	-1.000000	-1.000000	-1.000000	-1.000000	62.000000	0.000000	-1.000000	-1.000000	1133453.000000	1776578667.280586
4584.735000	-18101.070000	19838.385000	62881.020000	28741.860000	7997.535000	-19552.770000	97.515000	-31.507895	-28.628391	-11.399585	28.158016	90.655544	63.436043	15.364155	-22.014490	2.411080	3.250380	-0.854560	-0.939695	0.225158	0.233947	-1.000000	-1.000000	-1.000000	-1.000000	-1.000000	-1.000000	-1.000000	62.000000	0.000000	-1.000000	-1.000000	1133454.000000	1776578667.280596
4617.675000	-18061.290000	19876.545000	62913.240000	28682.640000	7905.960000	-19645.695000	106.785000	-20.085075	-18.999022	-4.068589	32.823824	54.521875	78.035034	23.505795	-10.294536	2.411080	3.250380	-0.854560	-0.939695	0.225158	0.233947	-1.000000	-1.000000	-1.000000	-1.000000	-1.000000	-1.000000	-1.000000	62.000000	0.000000	-1.000000	-1.000000	1133455.000000	1776578667.285802
4589.685000	-18089.325000	19854.135000	62897.130000	28700.505000	7828.020000	-19684.215000	83.160000	0.404404	0.027279	6.139455	22.574937	3.757050	34.164852	16.408534	4.335888	2.411080	3.250380	-0.854560	-0.939695	0.225158	0.233947	-1.000000	-1.000000	-1.000000	-1.000000	-1.000000	-1.000000	-1.000000	62.000000	0.000000	-1.000000	-1.000000	1133456.000000	1776578667.285810
4632.480000	-18063.990000	19862.145000	62899.020000	28706.355000	8045.415000	-19685.340000	124.110000	19.673825	18.303015	14.380896	6.455257	-36.725395	-26.456768	-5.163627	15.323479	2.411080	3.250380	-0.854560	-0.939695	0.225158	0.233947	-1.000000	-1.000000	-1.000000	-1.000000	-1.000000	-1.000000	-1.000000	62.000000	0.000000	-1.000000	-1.000000	1133457.000000	1776578667.292529
4632.345000	-18061.335000	19866.060000	62898.930000	28786.410000	8194.230000	-19640.205000	133.470000	29.478652	26.835530	15.852351	-8.146456	-50.393462	-46.335507	-25.047379	20.047724	2.411080	3.250380	-0.854560	-0.939695	0.225158	0.233947	-1.000000	-1.000000	-1.000000	-1.000000	-1.000000	-1.000000	-1.000000	62.000000	0.000000	-1.000000	-1.000000	1133458.000000	1776578667.292541
4577.625000	-18104.985000	19843.740000	62881.740000	28837.980000	8140.815000	-19621.845000	85.770000	26.807171	23.099301	10.356579	-16.873541	-34.768327	-8.954645	-26.132499	18.495664	2.411080	3.250380	-0.854560	-0.939695	0.225158	0.233947	-1.000000	-1.000000	-1.000000	-1.000000	-1.000000	-1.000000	-1.000000	62.000000	0.000000	-1.000000	-1.000000	1133459.000000	1776578667.294057
4579.155000	-18104.895000	19833.345000	62834.310000	28689.750000	7989.795000	-19611.990000	88.965000	12.076903	9.271475	0.724852	-19.575101	-6.034160	41.065203	-7.650296	9.648251	2.411080	3.250380	-0.854560	-0.939695	0.225158	0.233947	-1.000000	-1.000000	-1.000000	-1.000000	-1.000000	-1.000000	-1.000000	62.000000	0.000000	-1.000000	-1.000000	1133460.000000	1776578667.294066
4562.370000	-18115.830000	19816.920000	62809.785000	28658.205000	8030.610000	-19593.360000	74.160000	-7.952679	-7.785021	-9.141679	-19.147989	8.590967	49.550115	15.952191	-3.984196	-1.327620	4.959500	0.839300	-0.937009	0.232543	0.232971	-1.000000	-1.000000	-1.000000	-1.000000	-1.000000	-1.000000	-1.000000	62.000000	0.000000	-1.000000	-1.000000	1133461.000000	1776578667.296603
4594.410000	-18078.345000	19861.335000	62899.515000	28744.875000	8110.710000	-19669.365000	86.670000	-21.541730	-18.193021	-14.103310	-14.772035	0.016004	13.983431	27.986930	-14.792413	-1.327620	4.959500	0.839300	-0.937009	0.232543	0.232971	-1.000000	-1.000000	-1.000000	-1.000000	-1.000000	-1.000000	-1.000000	62.000000	0.000000	-1.000000	-1.000000	1133462.000000	1776578667.296613
4610.520000	-18061.785000	19894.230000	62968.185000	28860.345000	8099.505000	-19683.405000	100.170000	-20.619068	-15.663048	-9.482553	-0.208171	-10.041575	-26.209308	19.858296	-16.338016	-1.327620	4.959500	0.839300	-0.937009	0.232543	0.232971	-1.000000	-1.000000	-1.000000	-1.000000	-1.000000	-1.000000	-1.000000	62.000000	0.000000	-1.000000	-1.000000	1133463.000000	1776578667.302147
4591.575000	-18083.880000	19866.555000	62921.295000	28773.990000	7930.980000	-19619.505000	94.185000	-7.381905	-3.259913	2.993701	22.886247	-1.675081	-45.147856	-1.278451	-8.432711	-1.327620	4.959500	0.839300	-0.937009	0.232543	0.232971	-1.000000	-1.000000	-1.000000	-1.000000	-1.000000	-1.000000	-1.000000	62.000000	0.000000	-1.000000	-1.000000	1133464.000000	1776578667.302159
4614.030000	-18064.575000	19877.760000	62913.465000	28585.755000	7808.580000	-19627.515000	112.410000	7.637197	8.676169	13.499924	37.701321	11.691977	-50.485489	-16.806843	3.110319	-1.327620	4.959500	0.839300	-0.937009	0.232543	0.232971	-1.000000	-1.000000	-1.000000	-1.000000	-1.000000	-1.000000	-1.000000	62.000000	0.000000	-1.000000	-1.000000	1133465.000000	1776578667.304686
4645.980000	-18046.755000	19875.195000	62874.855000	28527.795000	8008.470000	-19665.855000	140.220000	16.115038	12.997458	14.053468	29.648062	3.275651	-49.570797	-17.204885	12.112212	-1.327620	4.959500	0.839300	-0.937009	0.232543	0.232971	-1.000000	-1.000000	-1.000000	-1.000000	-1.000000	-1.000000	-1.000000	62.000000	0.000000	-1.000000	-1.000000	1133466.000000	1776578667.304692
4612.770000	-18079.245000	19862.505000	62915.985000	28801.080000	8079.255000	-19668.780000	113.940000	16.483182	9.800078	5.605930	3.562212	-20.050694	-26.876872	-9.523282	15.367503	-1.327620	4.959500	0.839300	-0.937009	0.232543	0.232971	-1.000000	-1.000000	-1.000000	-1.000000	-1.000000	-1.000000	-1.000000	62.000000	0.000000	-1.000000	-1.000000	1133467.000000	1776578667.308536
4626.045000	-18055.980000	19901.880000	62981.235000	28802.205000	7986.240000	-19691.280000	116.955000	9.465136	1.848417	-5.108388	-20.423489	-20.240941	21.916983	-3.249224	11.177418	-1.327620	4.959500	0.839300	-0.937009	0.232543	0.232971	-1.000000	-1.000000	-1.000000	-1.000000	-1.000000	-1.000000	-1.000000	62.000000	0.000000	-1.000000	-1.000000	1133468.000000	1776578667.308541
4596.165000	-18096.705000	19844.775000	62890.110000	28760.580000	8016.165000	-19642.680000	104.805000	-2.433151	-7.189558	-11.698450	-27.194050	13.391007	65.797643	0.111058	0.766818	-1.327620	4.959500	0.839300	-0.937009	0.232543	0.232971	-1.000000	-1.000000	-1.000000	-1.000000	-1.000000	-1.000000	-1.000000	62.000000	0.000000	-1.000000	-1.000000	1133469.000000	1776578667.312739
4573.845000	-18126.990000	19809.720000	62858.160000	28783.620000	8131.770000	-19614.870000	95.085000	-14.453425	-14.357998	-14.041390	-21.822522	47.240207	76.411201	4.898302	-10.650479	-1.327620	4.959500	0.839300	-0.937009	0.232543	0.232971	-1.000000	-1.000000	-1.000000	-1.000000	-1.000000	-1.000000	-1.000000	62.000000	0.000000	-1.000000	-1.000000	1133470.000000	1776578667.312747
4616.100000	-18084.060000	19854.765000	62905.005000	28771.470000	8161.335000	-19669.410000	124.650000	-21.073534	-17.368960	-14.404346	-15.896630	50.561591	58.145008	11.874443	-16.904068	-3.357200	3.021480	1.861720	-0.940183	0.235961	0.230956	-1.000000	-1.000000	-1.000000	-1.000000	-1.000000	-1.000000	-1.000000	62.000000	0.000000	-1.000000	-1.000000	1133471.000000	1776578667.316754
4615.110000	-18079.335000	19863.180000	62903.610000	28724.760000	8110.035000	-19639.980000	127.620000	-17.305461	-12.335035	-9.712911	-9.272154	22.906380	26.844045	14.498919	-14.118071	-3.357200	3.021480	1.861720	-0.940183	0.235961	0.230956	-1.000000	-1.000000	-1.000000	-1.000000	-1.000000	-1.000000	-1.000000	62.000000	0.000000	-1.000000	-1.000000	1133472.000000	1776578667.316778
4627.485000	-18067.815000	19861.470000	62869.995000	28608.840000	7779.780000	-19630.170000	138.735000	-3.948624	0.992911	2.067545	1.210344	-19.429183	-15.873687	9.413929	-3.873238	-3.357200	3.021480	1.861720	-0.940183	0.235961	0.230956	-1.000000	-1.000000	-1.000000	-1.000000	-1.000000	-1.000000	-1.000000	62.000000	0.000000	-1.000000	-1.000000	1133473.000000	1776578667.320626
4624.740000	-18072.270000	19846.035000	62842.005000	28578.285000	7705.620000	-19680.390000	120.330000	10.872953	15.253000	14.526897	10.480145	-57.796845	-72.937444	0.383723	6.911289	-3.357200	3.021480	1.861720	-0.940183	0.235961	0.230956	-1.000000	-1.000000	-1.000000	-1.000000	-1.000000	-1.000000	-1.000000	62.000000	0.000000	-1.000000	-1.000000	1133474.000000	1776578667.320638
4631.985000	-18052.020000	19891.755000	62930.610000	28797.525000	8089.515000	-19682.505000	119.250000	18.774485	22.108187	20.020911	14.179810	-70.177909	-114.819892	-9.257367	11.356049	-3.357200	3.021480	1.861720	-0.940183	0.235961	0.230956	-1.000000	-1.000000	-1.000000	-1.000000	-1.000000	-1.000000	-1.000000	62.000000	0.000000	-1.000000	-1.000000	1133475.000000	1776578667.324795
4594.140000	-18091.170000	19861.785000	62908.335000	28782.045000	8079.570000	-19583.325000	112.680000	16.331456	18.453154	17.432692	15.966781	-39.514746	-89.721837	-14.781803	7.917677	-3.357200	3.021480	1.861720	-0.940183	0.235961	0.230956	-1.000000	-1.000000	-1.000000	-1.000000	-1.000000	-1.000000	-1.000000	62.000000	0.000000	-1.000000	-1.000000	1133476.000000	1776578667.324811
4519.620000	-18166.005000	19807.830000	62925.165000	28790.010000	8118.045000	-19640.745000	56.520000	4.001325	4.846947	8.121448	17.912321	19.506245	2.141112	-9.974378	-0.365562	-3.357200	3.021480	1.861720	-0.940183	0.235961	0.230956	-1.000000	-1.000000	-1.000000	-1.000000	-1.000000	-1.000000	-1.000000	62.000000	0.000000	-1.000000	-1.000000	1133477.000000	1776578667.328640
4583.160000	-18103.095000	19872.180000	62975.160000	28768.680000	8072.190000	-19705.230000	105.705000	-12.639499	-13.567317	-5.396654	16.814089	65.132293	94.164790	0.006487	-8.779422	-3.357200	3.021480	1.861720	-0.940183	0.235961	0.230956	-1.000000	-1.000000	-1.000000	-1.000000	-1.000000	-1.000000	-1.000000	62.000000	0.000000	-1.000000	-1.000000	1133478.000000	1776578667.328659
4582.485000	-18119.160000	19834.830000	62898.615000	28717.470000	8116.380000	-19652.580000	115.290000	-21.164963	-24.520654	-15.354769	10.316762	68.053103	125.043034	3.176085	-10.780351	-3.357200	3.021480	1.861720	-0.940183	0.235961	0.230956	-1.000000	-1.000000	-1.000000	-1.000000	-1.000000	-1.000000	-1.000000	62.000000	0.000000	-1.000000	-1.000000	1133479.000000	1776578667.334065
4612.140000	-18095.715000	19849.050000	62892.360000	28713.420000	8150.220000	-19595.070000	149.850000	-13.174485	-19.241583	-15.839263	-3.015864	31.631972	88.239697	0.905141	-2.544621	-3.357200	3.021480	1.861720	-0.940183	0.235961	0.230956	-1.000000	-1.000000	-1.000000	-1.000000	-1.000000	-1.000000	-1.000000	62.000000	0.000000	-1.000000	-1.000000	1133480.000000	1776578667.334080
4620.060000	-18078.750000	19873.710000	62925.030000	28776.690000	8073.765000	-19603.215000	145.755000	5.731107	-1.939924	-8.548796	-19.582789	-15.892774	17.745341	3.279052	11.028072	-0.350980	0.625660	1.770160	-0.945310	0.232238	0.230407	-1.000000	-1.000000	-1.000000	-1.000000	-1.000000	-1.000000	-1.000000	62.000000	0.000000	-1.000000	-1.000000	1133481.000000	1776578667.342126
4614.525000	-18081.990000	19868.940000	62939.700000	28709.685000	8044.155000	-19628.235000	135.000000	22.085375	15.992185	1.944950	-28.078657	-44.571013	-49.575138	9.655698	19.627610	-0.350980	0.625660	1.770160	-0.945310	0.232238	0.230407	-1.000000	-1.000000	-1.000000	-1.000000	-1.000000	-1.000000	-1.000000	62.000000	0.000000	-1.000000	-1.000000	1133482.000000	1776578667.342134
4685.580000	-18014.940000	19911.015000	62927.145000	28667.790000	7943.985000	-19683.270000	182.385000	26.769083	25.542253	10.954301	-21.934655	-46.607814	-91.841077	9.578257	17.171698	-0.350980	0.625660	1.770160	-0.945310	0.232238	0.230407	-1.000000	-1.000000	-1.000000	-1.000000	-1.000000	-1.000000	-1.000000	62.000000	0.000000	-1.000000	-1.000000	1133483.000000	1776578667.342142
4637.745000	-18062.550000	19855.755000	62826.795000	28747.215000	7910.910000	-19682.505000	143.730000	19.986927	24.133606	14.218078	-8.884109	-31.805759	-100.899067	-1.721871	6.487006	-0.350980	0.625660	1.770160	-0.945310	0.232238	0.230407	-1.000000	-1.000000	-1.000000	-1.000000	-1.000000	-1.000000	-1.000000	62.000000	0.000000	-1.000000	-1.000000	1133484.000000	1776578667.342147
4581.585000	-18114.165000	19825.695000	62867.430000	28826.820000	8162.865000	-19657.485000	109.935000	4.334143	11.494068	8.258821	-1.280223	-6.715943	-73.249026	-15.771748	-7.253713	-0.350980	0.625660	1.770160	-0.945310	0.232238	0.230407	-1.000000	-1.000000	-1.000000	-1.000000	-1.000000	-1.000000	-1.000000	62.000000	0.000000	-1.000000	-1.000000	1133485.000000	1776578667.344733
4618.845000	-18074.340000	19874.610000	62977.320000	28846.935000	8120.340000	-19639.845000	139.995000	-16.641014	-9.490171	-4.874157	2.134652	24.190160	-10.263900	-19.256435	-19.898675	-0.350980	0.625660	1.770160	-0.945310	0.232238	0.230407	-1.000000	-1.000000	-1.000000	-1.000000	-1.000000	-1.000000	-1.000000	62.000000	0.000000	-1.000000	-1.000000	1133486.000000	1776578667.344741
4635.135000	-18069.120000	19873.755000	62927.595000	28744.605000	8020.035000	-19658.250000	156.060000	-31.739328	-26.907761	-14.595214	11.628609	45.435543	59.917633	-8.677042	-24.587110	-0.350980	0.625660	1.770160	-0.945310	0.232238	0.230407	-1.000000	-1.000000	-1.000000	-1.000000	-1.000000	-1.000000	-1.000000	62.000000	0.000000	-1.000000	-1.000000	1133487.000000	1776578667.354114
4634.055000	-18071.820000	19879.515000	62934.570000	28660.680000	7971.210000	-19621.710000	160.155000	-30.164013	-29.188535	-12.986878	24.189866	37.597255	91.059354	7.381692	-16.781876	-0.350980	0.625660	1.770160	-0.945310	0.232238	0.230407	-1.000000	-1.000000	-1.000000	-1.000000	-1.000000	-1.000000	-1.000000	62.000000	0.000000	-1.000000	-1.000000	1133488.000000	1776578667.354141
4620.780000	-18085.770000	19872.720000	62943.435000	28821.915000	8080.245000	-19629.765000	144.630000	-14.475118	-17.585691	-3.478285	26.917511	3.696685	68.774616	18.860245	-1.584538	-0.350980	0.625660	1.770160	-0.945310	0.232238	0.230407	-1.000000	-1.000000	-1.000000	-1.000000	-1.000000	-1.000000	-1.000000	62.000000	0.000000	-1.000000	-1.000000	1133489.000000	1776578667.354167
4625.775000	-18079.785000	19867.725000	62905.995000	28755.045000	8074.620000	-19658.655000	141.255000	3.486872	-1.991014	5.356195	15.649392	-26.618468	23.333308	20.218221	10.688270	-0.350980	0.625660	1.770160	-0.945310	0.232238	0.230407	-1.000000	-1.000000	-1.000000	-1.000000	-1.000000	-1.000000	-1.000000	62.000000	0.000000	-1.000000	-1.000000	1133490.000000	1776578667.354173
4674.465000	-18035.595000	19886.355000	62880.480000	28636.605000	8042.715000	-19671.930000	181.035000	15.469149	10.361908	8.548575	-4.128041	-34.681889	-11.670846	10.441537	14.788285	0.503580	2.212700	0.625660	-0.940732	0.227661	0.231262	-1.000000	-1.000000	-1.000000	-1.000000	-1.000000	-1.000000	-1.000000	62.000000	0.000000	-1.000000	-1.000000	1133491.000000	1776578667.358114
4646.565000	-18066.420000	19870.605000	62917.920000	28797.525000	8068.770000	-19649.565000	161.640000	20.389360	17.577685	6.788327	-22.444396	-27.192290	-27.269480	-4.733118	13.045191	0.503580	2.212700	0.625660	-0.940732	0.227661	0.231262	-1.000000	-1.000000	-1.000000	-1.000000	-1.000000	-1.000000	-1.000000	62.000000	0.000000	-1.000000	-1.000000	1133492.000000	1776578667.358124
4644.360000	-18071.415000	19882.260000	62960.085000	28825.020000	8177.580000	-19645.155000	157.545000	18.175157	17.934064	2.840473	-27.637508	-8.836771	-26.384200	-14.969339	8.436446	0.503580	2.212700	0.625660	-0.940732	0.227661	0.231262	-1.000000	-1.000000	-1.000000	-1.000000	-1.000000	-1.000000	-1.000000	62.000000	0.000000	-1.000000	-1.000000	1133493.000000	1776578667.365181
4670.460000	-18043.245000	19911.735000	62974.710000	28784.655000	8072.955000	-19669.950000	174.060000	9.441234	11.008762	-0.401264	-15.248286	17.325883	-13.870160	-14.959813	2.062330	0.503580	2.212700	0.625660	-0.940732	0.227661	0.231262	-1.000000	-1.000000	-1.000000	-1.000000	-1.000000	-1.000000	-1.000000	62.000000	0.000000	-1.000000	-1.000000	1133494.000000	1776578667.365195
4677.300000	-18045.990000	19895.085000	62924.310000	28719.990000	7909.965000	-19674.765000	176.940000	-0.652430	1.729743	-0.821868	4.734298	33.827904	-5.506507	-8.583918	-3.547783	0.503580	2.212700	0.625660	-0.940732	0.227661	0.231262	-1.000000	-1.000000	-1.000000	-1.000000	-1.000000	-1.000000	-1.000000	62.000000	0.000000	-1.000000	-1.000000	1133495.000000	1776578667.365207
4675.410000	-18044.100000	19906.830000	62980.695000	28731.465000	7996.590000	-19663.785000	179.955000	-6.854681	-4.624144	0.300128	16.856354	25.969388	-14.991091	-1.799947	-5.889968	0.503580	2.212700	0.625660	-0.940732	0.227661	0.231262	-1.000000	-1.000000	-1.000000	-1.000000	-1.000000	-1.000000	-1.000000	62.000000	0.000000	-1.000000	-1.000000	1133496.000000	1776578667.365212
4640.490000	-18075.420000	19872.495000	62935.830000	28779.705000	7976.835000	-19667.790000	150.660000	-9.384837	-7.753830	-0.339769	15.570918	2.402077	-29.351967	3.370010	-5.794887	0.503580	2.212700	0.625660	-0.940732	0.227661	0.231262	-1.000000	-1.000000	-1.000000	-1.000000	-1.000000	-1.000000	-1.000000	62.000000	0.000000	-1.000000	-1.000000	1133497.000000	1776578667.368915
4637.160000	-18084.870000	19856.835000	62917.695000	28804.320000	7934.895000	-19612.845000	149.940000	-11.356383	-10.063124	-4.442816	4.910388	-14.928507	-26.849339	7.761667	-5.969438	0.503580	2.212700	0.625660	-0.940732	0.227661	0.231262	-1.000000	-1.000000	-1.000000	-1.000000	-1.000000	-1.000000	-1.000000	62.000000	0.000000	-1.000000	-1.000000	1133498.000000	1776578667.368929
4664.520000	-18059.940000	19883.025000	62930.835000	28761.660000	7914.510000	-19566.315000	172.260000	-12.389428	-11.374951	-9.615789	-8.426019	-15.547306	-7.019380	13.165058	-6.376709	0.503580	2.212700	0.625660	-0.940732	0.227661	0.231262	-1.000000	-1.000000	-1.000000	-1.000000	-1.000000	-1.000000	-1.000000	62.000000	0.000000	-1.000000	-1.000000	1133499.000000	1776578667.372771
4767.930000	-17972.145000	19947.870000	62926.605000	28596.825000	7911.270000	-19660.095000	258.570000	-6.751240	-6.782361	-8.979602	-16.379598	-10.371887	16.085293	17.096249	-2.434732	0.503580	2.212700	0.625660	-0.940732	0.227661	0.231262	-1.000000	-1.000000	-1.000000	-1.000000	-1.000000	-1.000000	-1.000000	62.000000	0.000000	-1.000000	-1.000000	1133500.000000	1776578667.372784
4692.780000	-18028.395000	19943.010000	63018.720000	28838.430000	8240.670000	-19659.420000	196.785000	7.416584	5.746064	1.511149	-12.678752	-10.817432	37.641736	11.014762	7.670665	-1.297100	3.387720	1.785420	-0.937131	0.231201	0.229919	-1.000000	-1.000000	-1.000000	-1.000000	-1.000000	-1.000000	-1.000000	62.000000	0.000000	-1.000000	-1.000000	1133501.000000	1776578667.378260
4610.745000	-18118.800000	19859.265000	62992.170000	28914.615000	8226.945000	-19602.855000	140.895000	17.612089	15.344528	13.552452	2.149062	-5.135327	63.148440	-5.329395	14.445812	-1.297100	3.387720	1.785420	-0.937131	0.231201	0.229919	-1.000000	-1.000000	-1.000000	-1.000000	-1.000000	-1.000000	-1.000000	62.000000	0.000000	-1.000000	-1.000000	1133502.000000	1776578667.378278
4648.095000	-18081.270000	19893.915000	63009.000000	28876.770000	8222.355000	-19640.655000	162.945000	10.337161	9.292450	13.749233	18.085398	17.763509	81.093027	-18.901699	7.550537	-1.297100	3.387720	1.785420	-0.937131	0.231201	0.229919	-1.000000	-1.000000	-1.000000	-1.000000	-1.000000	-1.000000	-1.000000	62.000000	0.000000	-1.000000	-1.000000	1133503.000000	1776578667.380947
4669.965000	-18057.735000	19911.105000	63022.950000	28908.405000	8192.205000	-19657.755000	178.290000	-7.091176	-6.330607	2.386258	23.179736	39.719154	63.925123	-21.377621	-7.310939	-1.297100	3.387720	1.785420	-0.937131	0.231201	0.229919	-1.000000	-1.000000	-1.000000	-1.000000	-1.000000	-1.000000	-1.000000	62.000000	0.000000	-1.000000	-1.000000	1133504.000000	1776578667.380958
4683.645000	-18049.320000	19900.080000	62959.635000	28793.430000	8077.995000	-19655.865000	181.665000	-15.881237	-14.106870	-8.033097	13.912459	35.802190	4.658744	-16.023137	-15.543499	-1.297100	3.387720	1.785420	-0.937131	0.231201	0.229919	-1.000000	-1.000000	-1.000000	-1.000000	-1.000000	-1.000000	-1.000000	62.000000	0.000000	-1.000000	-1.000000	1133505.000000	1776578667.384621
4646.520000	-18087.885000	19859.715000	62902.170000	28719.720000	8004.285000	-19587.915000	156.780000	-9.951263	-8.467055	-10.999940	-6.337988	1.288023	-72.493622	-6.323681	-11.887141	-1.297100	3.387720	1.785420	-0.937131	0.231201	0.229919	-1.000000	-1.000000	-1.000000	-1.000000	-1.000000	-1.000000	-1.000000	62.000000	0.000000	-1.000000	-1.000000	1133506.000000	1776578667.384632
4636.710000	-18106.830000	19831.095000	62836.380000	28544.715000	7943.400000	-19570.320000	165.780000	1.227352	1.284117	-10.182545	-30.132496	-48.490011	-129.934654	7.658080	-2.444885	-1.297100	3.387720	1.785420	-0.937131	0.231201	0.229919	-1.000000	-1.000000	-1.000000	-1.000000	-1.000000	-1.000000	-1.000000	62.000000	0.000000	-1.000000	-1.000000	1133507.000000	1776578667.388682
4709.115000	-18045.450000	19888.245000	62855.100000	28464.930000	7878.015000	-19621.755000	223.560000	8.691442	6.746541	-8.332408	-45.127682	-88.735579	-138.740160	20.825762	6.605168	-1.297100	3.387720	1.785420	-0.937131	0.231201	0.229919	-1.000000	-1.000000	-1.000000	-1.000000	-1.000000	-1.000000	-1.000000	62.000000	0.000000	-1.000000	-1.000000	1133508.000000	1776578667.388696
4685.760000	-18051.840000	19918.530000	63035.505000	28957.230000	8110.620000	-19708.605000	185.760000	12.664391	9.291591	-1.629051	-36.045519	-86.881885	-90.643768	21.035134	13.536486	-1.297100	3.387720	1.785420	-0.937131	0.231201	0.229919	-1.000000	-1.000000	-1.000000	-1.000000	-1.000000	-1.000000	-1.000000	62.000000	0.000000	-1.000000	-1.000000	1133509.000000	1776578667.392844
4707.630000	-18031.770000	19928.880000	63037.485000	28947.780000	8063.955000	-19655.865000	204.885000	14.296796	11.790887	11.526108	3.004596	-17.460199	0.664442	4.004530	15.684170	-1.297100	3.387720	1.785420	-0.937131	0.231201	0.229919	-1.000000	-1.000000	-1.000000	-1.000000	-1.000000	-1.000000	-1.000000	62.000000	0.000000	-1.000000	-1.000000	1133510.000000	1776578667.392855
4726.170000	-18018.180000	19931.220000	62985.420000	28680.165000	7984.035000	-19682.505000	220.140000	11.836452	12.498975	23.458366	50.701904	84.329925	93.099612	-16.497248	11.004424	-0.793520	2.990960	0.320460	-0.939756	0.232177	0.231323	-1.000000	-1.000000	-1.000000	-1.000000	-1.000000	-1.000000	-1.000000	62.000000	0.000000	-1.000000	-1.000000	1133511.000000	1776578667.396883
4702.680000	-18035.145000	19930.725000	63003.690000	28786.095000	8078.805000	-19656.720000	203.535000	5.111532	8.835347	24.570494	71.032718	134.431569	136.785447	-23.437907	2.321889	-0.793520	2.990960	0.320460	-0.939756	0.232177	0.231323	-1.000000	-1.000000	-1.000000	-1.000000	-1.000000	-1.000000	-1.000000	62.000000	0.000000	-1.000000	-1.000000	1133512.000000	1776578667.396900
4668.975000	-18070.965000	19897.830000	62991.765000	28898.730000	7993.620000	-19646.415000	177.120000	-5.156849	-0.417678	12.377386	50.447157	101.226260	117.359876	-13.150333	-7.024405	-0.793520	2.990960	0.320460	-0.939756	0.232177	0.231323	-1.000000	-1.000000	-1.000000	-1.000000	-1.000000	-1.000000	-1.000000	62.000000	0.000000	-1.000000	-1.000000	1133513.000000	1776578667.400751
4685.265000	-18066.960000	19883.295000	62955.630000	28858.185000	8083.170000	-19650.645000	195.525000	-16.744844	-13.390265	-7.794585	5.740453	28.867094	58.449297	5.723088	-14.879592	-0.793520	2.990960	0.320460	-0.939756	0.232177	0.231323	-1.000000	-1.000000	-1.000000	-1.000000	-1.000000	-1.000000	-1.000000	62.000000	0.000000	-1.000000	-1.000000	1133514.000000	1776578667.400762
4716.090000	-18034.920000	19913.130000	62970.435000	28824.570000	8038.575000	-19674.990000	217.305000	-22.750072	-22.669605	-25.391615	-36.883012	-34.489257	-5.124770	20.140193	-17.122675	-0.793520	2.990960	0.320460	-0.939756	0.232177	0.231323	-1.000000	-1.000000	-1.000000	-1.000000	-1.000000	-1.000000	-1.000000	62.000000	0.000000	-1.000000	-1.000000	1133515.000000	1776578667.404714
4735.980000	-18005.355000	19953.360000	63031.005000	28735.155000	7953.390000	-19731.690000	221.850000	-16.712211	-19.905681	-29.175159	-56.574573	-73.028087	-49.953986	20.426064	-10.696069	-0.793520	2.990960	0.320460	-0.939756	0.232177	0.231323	-1.000000	-1.000000	-1.000000	-1.000000	-1.000000	-1.000000	-1.000000	62.000000	0.000000	-1.000000	-1.000000	1133516.000000	1776578667.404727
4780.530000	-17964.360000	19979.685000	63020.520000	28669.770000	7935.435000	-19668.555000	262.620000	-0.357632	-4.445628	-15.659797	-45.950328	-88.354054	-71.828086	7.768264	1.682692	-0.793520	2.990960	0.320460	-0.939756	0.232177	0.231323	-1.000000	-1.000000	-1.000000	-1.000000	-1.000000	-1.000000	-1.000000	62.000000	0.000000	-1.000000	-1.000000	1133517.000000	1776578667.408820
4735.260000	-18011.565000	19941.795000	63005.175000	28744.470000	7974.630000	-19615.275000	237.555000	16.351000	13.935587	5.557796	-16.691907	-81.077013	-71.665888	-4.386739	13.152578	-0.793520	2.990960	0.320460	-0.939756	0.232177	0.231323	-1.000000	-1.000000	-1.000000	-1.000000	-1.000000	-1.000000	-1.000000	62.000000	0.000000	-1.000000	-1.000000	1133518.000000	1776578667.408833
4656.510000	-18087.300000	19878.570000	62973.270000	28881.810000	8243.640000	-19611.945000	176.265000	20.272133	20.212287	17.500487	9.500204	-45.611023	-43.728967	-3.973545	15.587123	-0.793520	2.990960	0.320460	-0.939756	0.232177	0.231323	-1.000000	-1.000000	-1.000000	-1.000000	-1.000000	-1.000000	-1.000000	62.000000	0.000000	-1.000000	-1.000000	1133519.000000	1776578667.412910
4642.740000	-18101.295000	19863.900000	62965.170000	28881.630000	8131.095000	-19589.670000	168.480000	5.538515	7.013880	10.665226	18.959879	14.553750	9.870048	5.645579	4.858911	-0.793520	2.990960	0.320460	-0.939756	0.232177	0.231323	-1.000000	-1.000000	-1.000000	-1.000000	-1.000000	-1.000000	-1.000000	62.000000	0.000000	-1.000000	-1.000000	1133520.000000	1776578667.412921
4667.400000	-18064.665000	19915.380000	63008.505000	28717.110000	7973.190000	-19613.115000	182.160000	-16.606519	-14.550610	-6.205246	14.420625	69.019014	55.953603	11.838605	-11.699336	0.152600	0.961380	0.518840	-0.941770	0.231323	0.232360	-1.000000	-1.000000	-1.000000	-1.000000	-1.000000	-1.000000	-1.000000	62.000000	0.000000	-1.000000	-1.000000	1133521.000000	1776578667.416674
4662.720000	-18085.905000	19879.110000	62949.060000	28835.325000	7975.035000	-19617.795000	184.905000	-26.691660	-24.741467	-15.415743	6.881649	81.806422	54.330059	6.552882	-20.104934	0.152600	0.961380	0.518840	-0.941770	0.231323	0.232360	-1.000000	-1.000000	-1.000000	-1.000000	-1.000000	-1.000000	-1.000000	62.000000	0.000000	-1.000000	-1.000000	1133522.000000	1776578667.416686
4727.880000	-18020.745000	19935.450000	62984.835000	28878.390000	8121.915000	-19668.915000	232.650000	-15.808575	-15.054411	-9.354985	2.423363	53.690994	11.863753	-8.729151	-13.108990	0.152600	0.961380	0.518840	-0.941770	0.231323	0.232360	-1.000000	-1.000000	-1.000000	-1.000000	-1.000000	-1.000000	-1.000000	62.000000	0.000000	-1.000000	-1.000000	1133523.000000	1776578667.420788
4737.465000	-18008.955000	19951.155000	63044.145000	28858.995000	8218.260000	-19668.195000	243.135000	9.338423	7.882498	6.681945	2.696126	15.189809	-23.320917	-25.620470	5.166697	0.152600	0.961380	0.518840	-0.941770	0.231323	0.232360	-1.000000	-1.000000	-1.000000	-1.000000	-1.000000	-1.000000	-1.000000	62.000000	0.000000	-1.000000	-1.000000	1133524.000000	1776578667.420800
4726.800000	-18025.245000	19929.960000	63016.605000	28823.445000	8068.005000	-19650.465000	241.155000	32.578386	29.387697	21.926717	8.219955	-13.929970	-23.666249	-33.306348	22.980379	0.152600	0.961380	0.518840	-0.941770	0.231323	0.232360	-1.000000	-1.000000	-1.000000	-1.000000	-1.000000	-1.000000	-1.000000	62.000000	0.000000	-1.000000	-1.000000	1133525.000000	1776578667.424817
4666.230000	-18083.025000	19878.435000	62962.245000	28758.150000	7981.380000	-19621.440000	194.220000	37.443219	34.183220	24.699767	12.321524	-33.213656	-9.848151	-24.444678	27.751493	0.152600	0.961380	0.518840	-0.941770	0.231323	0.232360	-1.000000	-1.000000	-1.000000	-1.000000	-1.000000	-1.000000	-1.000000	62.000000	0.000000	-1.000000	-1.000000	1133526.000000	1776578667.424832
4666.860000	-18074.430000	19884.015000	62944.650000	28781.100000	7978.770000	-19584.585000	185.535000	19.121296	17.533578	10.852886	5.661469	-44.634108	-10.694305	-1.276350	14.877680	0.152600	0.961380	0.518840	-0.941770	0.231323	0.232360	-1.000000	-1.000000	-1.000000	-1.000000	-1.000000	-1.000000	-1.000000	62.000000	0.000000	-1.000000	-1.000000	1133527.000000	1776578667.428765
4730.085000	-18010.305000	19949.445000	63014.130000	28764.630000	8010.045000	-19621.800000	235.755000	-8.880952	-7.634527	-8.894304	-8.580430	-43.975339	-22.785056	23.811097	-6.531241	0.152600	0.961380	0.518840	-0.941770	0.231323	0.232360	-1.000000	-1.000000	-1.000000	-1.000000	-1.000000	-1.000000	-1.000000	62.000000	0.000000	-1.000000	-1.000000	1133528.000000	1776578667.428778
4760.145000	-17986.365000	19965.645000	63015.750000	28750.545000	7855.335000	-19661.490000	261.585000	-24.891588	-21.169880	-17.629750	-16.056152	-28.313919	-26.809146	34.814267	-19.716041	0.152600	0.961380	0.518840	-0.941770	0.231323	0.232360	-1.000000	-1.000000	-1.000000	-1.000000	-1.000000	-1.000000	-1.000000	62.000000	0.000000	-1.000000	-1.000000	1133529.000000	1776578667.432917
4760.955000	-17992.665000	19941.705000	62965.530000	28738.035000	7873.650000	-19669.950000	260.640000	-19.966266	-16.041547	-10.865032	-10.836827	-3.965866	-18.256120	24.444684	-16.466288	0.152600	0.961380	0.518840	-0.941770	0.231323	0.232360	-1.000000	-1.000000	-1.000000	-1.000000	-1.000000	-1.000000	-1.000000	62.000000	0.000000	-1.000000	-1.000000	1133530.000000	1776578667.432928
4678.785000	-18071.955000	19891.485000	62993.025000	28798.920000	8121.555000	-19606.545000	211.635000	-5.784300	-4.274551	-0.630228	-1.547301	19.422814	2.124181	2.772288	-4.821835	-0.381500	2.029580	0.305200	-0.938047	0.231628	0.229858	-1.000000	-1.000000	-1.000000	-1.000000	-1.000000	-1.000000	-1.000000	62.000000	0.000000	-1.000000	-1.000000	1133531.000000	1776578667.437443
4706.685000	-18040.680000	19936.755000	63046.845000	28687.770000	8063.685000	-19680.480000	227.250000	0.600795	-0.937814	1.331849	4.819748	34.370088	37.588889	-13.072315	1.944771	-0.381500	2.029580	0.305200	-0.938047	0.231628	0.229858	-1.000000	-1.000000	-1.000000	-1.000000	-1.000000	-1.000000	-1.000000	62.000000	0.000000	-1.000000	-1.000000	1133532.000000	1776578667.437462
4761.855000	-17991.045000	19976.580000	63075.150000	28803.780000	8188.605000	-19699.110000	272.340000	-2.590908	-5.552508	-2.112843	10.223857	35.870102	74.180981	-17.678285	1.118426	-0.381500	2.029580	0.305200	-0.938047	0.231628	0.229858	-1.000000	-1.000000	-1.000000	-1.000000	-1.000000	-1.000000	-1.000000	62.000000	0.000000	-1.000000	-1.000000	1133533.000000	1776578667.440859
4728.960000	-18024.300000	19939.230000	63036.675000	28942.110000	8142.165000	-19676.070000	245.925000	-4.426921	-6.870454	-2.138830	14.617909	30.013910	84.584682	-15.674227	-0.358044	-0.381500	2.029580	0.305200	-0.938047	0.231628	0.229858	-1.000000	-1.000000	-1.000000	-1.000000	-1.000000	-1.000000	-1.000000	62.000000	0.000000	-1.000000	-1.000000	1133534.000000	1776578667.440872
4705.155000	-18042.345000	19933.875000	63031.185000	28867.680000	8196.795000	-19657.890000	229.185000	-1.188700	-2.132853	0.919593	11.721274	27.458702	56.703860	-8.597612	0.348840	-0.381500	2.029580	0.305200	-0.938047	0.231628	0.229858	-1.000000	-1.000000	-1.000000	-1.000000	-1.000000	-1.000000	-1.000000	62.000000	0.000000	-1.000000	-1.000000	1133535.000000	1776578667.444760
4686.345000	-18072.315000	19890.720000	62966.745000	28784.250000	8118.945000	-19640.475000	229.005000	1.070167	1.690239	0.698637	-1.747210	20.680018	1.631886	3.643542	0.036936	-0.381500	2.029580	0.305200	-0.938047	0.231628	0.229858	-1.000000	-1.000000	-1.000000	-1.000000	-1.000000	-1.000000	-1.000000	62.000000	0.000000	-1.000000	-1.000000	1133536.000000	1776578667.444770
4697.685000	-18059.445000	19897.605000	62966.340000	28923.480000	8068.995000	-19653.840000	232.335000	-0.528233	0.819299	-4.408133	-20.187065	-1.936049	-57.680439	16.027898	-1.971822	-0.381500	2.029580	0.305200	-0.938047	0.231628	0.229858	-1.000000	-1.000000	-1.000000	-1.000000	-1.000000	-1.000000	-1.000000	62.000000	0.000000	-1.000000	-1.000000	1133537.000000	1776578667.448795
4704.840000	-18045.045000	19913.985000	62947.485000	28731.105000	7983.675000	-19640.340000	238.230000	-1.980459	-0.878261	-8.935956	-32.349076	-31.466092	-99.682033	21.100080	-2.720024	-0.381500	2.029580	0.305200	-0.938047	0.231628	0.229858	-1.000000	-1.000000	-1.000000	-1.000000	-1.000000	-1.000000	-1.000000	62.000000	0.000000	-1.000000	-1.000000	1133538.000000	1776578667.448806
4693.545000	-18054.225000	19898.730000	62929.890000	28635.390000	7858.260000	-19634.670000	225.045000	0.497393	1.428639	-6.740451	-29.819193	-55.876214	-111.976686	16.219178	-0.664484	-0.381500	2.029580	0.305200	-0.938047	0.231628	0.229858	-1.000000	-1.000000	-1.000000	-1.000000	-1.000000	-1.000000	-1.000000	62.000000	0.000000	-1.000000	-1.000000	1133539.000000	1776578667.452797
4716.900000	-18023.310000	19935.405000	63032.220000	28803.465000	7769.835000	-19707.030000	225.540000	5.781732	7.295509	2.067658	-11.849879	-67.226708	-94.178394	3.936384	2.423721	-0.381500	2.029580	0.305200	-0.938047	0.231628	0.229858	-1.000000	-1.000000	-1.000000	-1.000000	-1.000000	-1.000000	-1.000000	62.000000	0.000000	-1.000000	-1.000000	1133540.000000	1776578667.452809
4711.905000	-18026.550000	19944.810000	63053.055000	28869.480000	7920.495000	-19690.740000	227.430000	10.503156	12.852676	12.727051	16.711568	-48.511434	-49.972700	-11.776089	4.265011	-1.129240	2.945180	1.327620	-0.938169	0.235900	0.228393	-1.000000	-1.000000	-1.000000	-1.000000	-1.000000	-1.000000	-1.000000	62.000000	0.000000	-1.000000	-1.000000	1133541.000000	1776578667.456875
4721.490000	-18016.470000	19962.630000	63062.505000	28895.265000	8133.480000	-19592.145000	255.870000	11.987542	14.411361	20.061790	43.823439	3.841225	21.074215	-22.002412	4.980071	-1.129240	2.945180	1.327620	-0.938169	0.235900	0.228393	-1.000000	-1.000000	-1.000000	-1.000000	-1.000000	-1.000000	-1.000000	62.000000	0.000000	-1.000000	-1.000000	1133542.000000	1776578667.456889
4685.400000	-18057.420000	19918.080000	63002.475000	28753.875000	7921.080000	-19516.140000	242.820000	8.484506	9.481051	19.261442	52.028654	57.756002	102.495721	-14.756420	5.762397	-1.129240	2.945180	1.327620	-0.938169	0.235900	0.228393	-1.000000	-1.000000	-1.000000	-1.000000	-1.000000	-1.000000	-1.000000	62.000000	0.000000	-1.000000	-1.000000	1133543.000000	1776578667.460806
4673.205000	-18084.690000	19877.220000	62947.485000	28744.290000	7928.685000	-19616.895000	239.445000	-0.180416	-2.157713	7.399057	31.651628	72.877796	146.695389	6.956410	5.614729	-1.129240	2.945180	1.327620	-0.938169	0.235900	0.228393	-1.000000	-1.000000	-1.000000	-1.000000	-1.000000	-1.000000	-1.000000	62.000000	0.000000	-1.000000	-1.000000	1133544.000000	1776578667.460825
4731.930000	-18014.895000	19958.985000	63061.245000	28933.605000	8312.220000	-19700.775000	274.320000	-9.555163	-14.929211	-10.475690	-6.149097	45.803522	127.724326	19.592823	3.204299	-1.129240	2.945180	1.327620	-0.938169	0.235900	0.228393	-1.000000	-1.000000	-1.000000	-1.000000	-1.000000	-1.000000	-1.000000	62.000000	0.000000	-1.000000	-1.000000	1133545.000000	1776578667.467072
4745.835000	-17996.940000	19981.980000	63089.595000	28977.840000	8245.080000	-19692.315000	278.235000	-11.399543	-18.096209	-20.271975	-33.628050	12.137258	76.216781	6.405651	0.381305	-1.129240	2.945180	1.327620	-0.938169	0.235900	0.228393	-1.000000	-1.000000	-1.000000	-1.000000	-1.000000	-1.000000	-1.000000	62.000000	0.000000	-1.000000	-1.000000	1133546.000000	1776578667.467085
4731.390000	-18017.955000	19957.770000	63050.400000	28824.120000	8145.720000	-19659.960000	271.845000	-3.818159	-8.226716	-14.361403	-34.241007	-4.071292	21.724267	-19.398329	-1.160883	-1.129240	2.945180	1.327620	-0.938169	0.235900	0.228393	-1.000000	-1.000000	-1.000000	-1.000000	-1.000000	-1.000000	-1.000000	62.000000	0.000000	-1.000000	-1.000000	1133547.000000	1776578667.468925
4712.985000	-18028.575000	19933.875000	63000.675000	28831.230000	8022.510000	-19662.615000	246.960000	4.574971	4.562007	-2.050093	-19.339453	-14.641959	-40.202475	-31.557354	-3.272669	-1.129240	2.945180	1.327620	-0.938169	0.235900	0.228393	-1.000000	-1.000000	-1.000000	-1.000000	-1.000000	-1.000000	-1.000000	62.000000	0.000000	-1.000000	-1.000000	1133548.000000	1776578667.468938
4713.705000	-18031.905000	19939.410000	63033.300000	28840.230000	7906.635000	-19645.515000	253.305000	5.300751	9.129360	3.754810	-7.967547	-31.303223	-108.497760	-20.046099	-7.594476	-1.129240	2.945180	1.327620	-0.938169	0.235900	0.228393	-1.000000	-1.000000	-1.000000	-1.000000	-1.000000	-1.000000	-1.000000	62.000000	0.000000	-1.000000	-1.000000	1133549.000000	1776578667.472899
4725.990000	-18032.895000	19946.970000	63067.455000	28868.445000	8137.710000	-19643.580000	277.335000	-0.724671	4.479036	1.269721	-3.497405	-43.039288	-151.727688	4.726929	-11.169116	-1.129240	2.945180	1.327620	-0.938169	0.235900	0.228393	-1.000000	-1.000000	-1.000000	-1.000000	-1.000000	-1.000000	-1.000000	62.000000	0.000000	-1.000000	-1.000000	1133550.000000	1776578667.472912
4732.200000	-18031.455000	19931.175000	63005.805000	28735.785000	8108.505000	-19591.920000	285.660000	-6.342719	-2.987339	-3.175340	0.359521	-38.776014	-131.801198	26.846457	-9.106324	-3.662400	4.593260	-0.015260	-0.937559	0.236755	0.229125	-1.000000	-1.000000	-1.000000	-1.000000	-1.000000	-1.000000	-1.000000	62.000000	0.000000	-1.000000	-1.000000	1133551.000000	1776578667.476835
4754.025000	-18006.885000	19943.370000	62990.685000	28760.895000	7924.500000	-19618.740000	291.510000	-6.322270	-6.635290	-4.693980	3.578718	-24.043362	-54.395314	36.248737	-1.202596	-3.662400	4.593260	-0.015260	-0.937559	0.236755	0.229125	-1.000000	-1.000000	-1.000000	-1.000000	-1.000000	-1.000000	-1.000000	62.000000	0.000000	-1.000000	-1.000000	1133552.000000	1776578667.476848
4793.805000	-17953.020000	20005.920000	63073.395000	28810.935000	7892.865000	-19690.200000	302.805000	-0.326279	-2.914229	-1.240568	4.376616	-6.083382	25.823189	28.392472	7.453379	-3.662400	4.593260	-0.015260	-0.937559	0.236755	0.229125	-1.000000	-1.000000	-1.000000	-1.000000	-1.000000	-1.000000	-1.000000	62.000000	0.000000	-1.000000	-1.000000	1133553.000000	1776578667.480918
4715.685000	-18032.850000	19963.620000	63092.160000	28910.520000	8139.915000	-19646.280000	259.380000	6.798664	5.428242	6.624657	7.893071	17.278001	70.645455	5.438158	10.984401	-3.662400	4.593260	-0.015260	-0.937559	0.236755	0.229125	-1.000000	-1.000000	-1.000000	-1.000000	-1.000000	-1.000000	-1.000000	62.000000	0.000000	-1.000000	-1.000000	1133554.000000	1776578667.480928
4668.930000	-18094.140000	19882.980000	62943.660000	28782.000000	8157.960000	-19573.695000	237.510000	5.903163	7.650159	11.092879	13.474044	42.380065	89.980390	-17.589091	5.980417	-3.662400	4.593260	-0.015260	-0.937559	0.236755	0.229125	-1.000000	-1.000000	-1.000000	-1.000000	-1.000000	-1.000000	-1.000000	62.000000	0.000000	-1.000000	-1.000000	1133555.000000	1776578667.484830
4698.360000	-18063.270000	19907.100000	62953.785000	28735.695000	8163.405000	-19665.720000	250.875000	-5.646534	-2.498032	3.860937	9.171443	50.286253	97.409027	-24.950507	-4.806584	-3.662400	4.593260	-0.015260	-0.937559	0.236755	0.229125	-1.000000	-1.000000	-1.000000	-1.000000	-1.000000	-1.000000	-1.000000	62.000000	0.000000	-1.000000	-1.000000	1133556.000000	1776578667.484840
4710.555000	-18049.320000	19931.625000	63054.990000	28874.430000	8162.370000	-19685.160000	257.445000	-16.443531	-14.797452	-9.140241	-4.928878	31.840454	83.516594	-19.626532	-12.434213	-3.662400	4.593260	-0.015260	-0.937559	0.236755	0.229125	-1.000000	-1.000000	-1.000000	-1.000000	-1.000000	-1.000000	-1.000000	62.000000	0.000000	-1.000000	-1.000000	1133557.000000	1776578667.488847
4735.980000	-18020.880000	19953.180000	63077.175000	28897.830000	8109.765000	-19674.990000	271.215000	-13.941659	-14.650921	-13.357878	-10.482319	6.271658	40.428276	-13.486585	-10.097668	-3.662400	4.593260	-0.015260	-0.937559	0.236755	0.229125	-1.000000	-1.000000	-1.000000	-1.000000	-1.000000	-1.000000	-1.000000	62.000000	0.000000	-1.000000	-1.000000	1133558.000000	1776578667.488861
4752.765000	-17999.145000	19977.390000	63081.000000	28869.075000	8039.025000	-19692.540000	276.570000	1.573365	-0.096452	-3.670844	1.026561	-6.370516	-21.052387	-8.902087	0.530158	-3.662400	4.593260	-0.015260	-0.937559	0.236755	0.229125	-1.000000	-1.000000	-1.000000	-1.000000	-1.000000	-1.000000	-1.000000	62.000000	0.000000	-1.000000	-1.000000	1133559.000000	1776578667.492784
4739.985000	-18014.355000	19973.385000	63048.645000	28713.105000	8019.720000	-19642.185000	278.145000	18.898528	18.035922	11.828374	16.106415	-11.937677	-77.392572	-1.812377	11.892146	-3.662400	4.593260	-0.015260	-0.937559	0.236755	0.229125	-1.000000	-1.000000	-1.000000	-1.000000	-1.000000	-1.000000	-1.000000	62.000000	0.000000	-1.000000	-1.000000	1133560.000000	1776578667.492798
4741.245000	-18017.370000	19957.545000	63004.995000	28642.590000	8059.455000	-19581.345000	282.555000	25.898887	26.259307	20.646916	17.305386	-26.746491	-103.013607	10.531558	16.940128	-3.158820	3.601360	0.320460	-0.938596	0.232787	0.231323	-1.000000	-1.000000	-1.000000	-1.000000	-1.000000	-1.000000	-1.000000	62.000000	0.000000	-1.000000	-1.000000	1133561.000000	1776578667.496824
4694.310000	-18054.900000	19935.450000	63053.910000	28861.785000	8041.860000	-19585.755000	235.485000	17.840789	18.523557	15.580973	2.129222	-44.813027	-84.958594	25.577534	12.755080	-3.158820	3.601360	0.320460	-0.938596	0.232787	0.231323	-1.000000	-1.000000	-1.000000	-1.000000	-1.000000	-1.000000	-1.000000	62.000000	0.000000	-1.000000	-1.000000	1133562.000000	1776578667.496838
4702.545000	-18054.090000	19932.525000	63048.105000	28874.205000	7855.470000	-19650.015000	239.130000	-0.554550	-0.379969	-0.307460	-15.580676	-37.972875	-37.829804	32.315360	0.920713	-3.158820	3.601360	0.320460	-0.938596	0.232787	0.231323	-1.000000	-1.000000	-1.000000	-1.000000	-1.000000	-1.000000	-1.000000	62.000000	0.000000	-1.000000	-1.000000	1133563.000000	1776578667.500759
4784.535000	-17978.670000	20000.205000	63101.880000	28839.240000	7950.645000	-19681.245000	301.860000	-16.604964	-17.349966	-15.232725	-21.088522	0.526940	7.253573	19.722617	-10.824393	-3.158820	3.601360	0.320460	-0.938596	0.232787	0.231323	-1.000000	-1.000000	-1.000000	-1.000000	-1.000000	-1.000000	-1.000000	62.000000	0.000000	-1.000000	-1.000000	1133564.000000	1776578667.500767
4811.355000	-17952.165000	20023.335000	63107.865000	28886.355000	8027.460000	-19649.790000	326.205000	-17.183476	-19.164021	-17.085609	-11.625150	41.002021	37.253915	-7.635864	-12.044853	-3.158820	3.601360	0.320460	-0.938596	0.232787	0.231323	-1.000000	-1.000000	-1.000000	-1.000000	-1.000000	-1.000000	-1.000000	62.000000	0.000000	-1.000000	-1.000000	1133565.000000	1776578667.504901
4747.185000	-18037.305000	19937.655000	62988.570000	28730.520000	8110.260000	-19649.700000	291.960000	-3.796771	-7.004378	-6.777092	1.915795	52.460637	60.529446	-30.406163	-2.144117	-3.158820	3.601360	0.320460	-0.938596	0.232787	0.231323	-1.000000	-1.000000	-1.000000	-1.000000	-1.000000	-1.000000	-1.000000	62.000000	0.000000	-1.000000	-1.000000	1133566.000000	1776578667.504919
4768.155000	-18014.850000	19959.840000	63036.450000	28753.965000	8129.970000	-19672.920000	304.605000	7.418271	3.399463	1.789877	4.933639	27.684607	78.328092	-34.265030	7.474885	-3.158820	3.601360	0.320460	-0.938596	0.232787	0.231323	-1.000000	-1.000000	-1.000000	-1.000000	-1.000000	-1.000000	-1.000000	62.000000	0.000000	-1.000000	-1.000000	1133567.000000	1776578667.509182
4754.970000	-18021.330000	19957.950000	63082.800000	28963.845000	8030.340000	-19665.900000	293.175000	6.151784	2.674418	0.878322	-1.763115	-10.302028	75.735726	-21.495839	7.732563	-3.158820	3.601360	0.320460	-0.938596	0.232787	0.231323	-1.000000	-1.000000	-1.000000	-1.000000	-1.000000	-1.000000	-1.000000	62.000000	0.000000	-1.000000	-1.000000	1133568.000000	1776578667.509197
4737.555000	-18048.600000	19919.880000	63018.045000	28912.905000	8060.445000	-19640.970000	285.120000	-3.514863	-4.176361	-4.478178	-5.258363	-25.750824	40.844392	-2.341052	-0.108815	-3.158820	3.601360	0.320460	-0.938596	0.232787	0.231323	-1.000000	-1.000000	-1.000000	-1.000000	-1.000000	-1.000000	-1.000000	62.000000	0.000000	-1.000000	-1.000000	1133569.000000	1776578667.512957
4765.185000	-18014.670000	19966.590000	63057.465000	28893.915000	8186.715000	-19652.220000	296.595000	-12.335357	-8.960930	-7.372700	-1.694203	-12.600427	-11.801504	14.677458	-9.211968	-3.158820	3.601360	0.320460	-0.938596	0.232787	0.231323	-1.000000	-1.000000	-1.000000	-1.000000	-1.000000	-1.000000	-1.000000	62.000000	0.000000	-1.000000	-1.000000	1133570.000000	1776578667.512973
4758.165000	-18026.865000	19957.005000	63052.605000	28857.330000	8061.255000	-19627.065000	298.395000	-13.369829	-6.982376	-3.948582	4.306145	3.096692	-51.367228	23.930179	-13.035038	0.915600	1.617560	-1.510740	-0.942075	0.229003	0.229614	-1.000000	-1.000000	-1.000000	-1.000000	-1.000000	-1.000000	-1.000000	62.000000	0.000000	-1.000000	-1.000000	1133571.000000	1776578667.517336
4760.640000	-18015.570000	19987.155000	63108.270000	28970.055000	8066.430000	-19662.885000	292.995000	-6.072514	1.031964	5.223912	10.236357	4.044002	-65.514299	22.892071	-9.557898	0.915600	1.617560	-1.510740	-0.942075	0.229003	0.229614	-1.000000	-1.000000	-1.000000	-1.000000	-1.000000	-1.000000	-1.000000	62.000000	0.000000	-1.000000	-1.000000	1133572.000000	1776578667.517347
4773.960000	-18000.090000	19996.335000	63104.040000	28920.330000	8090.595000	-19664.505000	301.320000	4.196811	9.959997	14.886368	15.109077	-3.099889	-60.589354	12.534847	-1.969012	0.915600	1.617560	-1.510740	-0.942075	0.229003	0.229614	-1.000000	-1.000000	-1.000000	-1.000000	-1.000000	-1.000000	-1.000000	62.000000	0.000000	-1.000000	-1.000000	1133573.000000	1776578667.520922
4821.570000	-17952.345000	20010.015000	63064.395000	28789.290000	7773.300000	-19721.070000	328.635000	12.710618	16.000048	19.437999	15.230935	-11.001302	-46.991873	-3.193906	5.737211	0.915600	1.617560	-1.510740	-0.942075	0.229003	0.229614	-1.000000	-1.000000	-1.000000	-1.000000	-1.000000	-1.000000	-1.000000	62.000000	0.000000	-1.000000	-1.000000	1133574.000000	1776578667.520948
4756.230000	-18000.900000	19980.405000	63063.720000	28766.205000	7766.505000	-19658.745000	281.520000	16.701001	17.318698	15.608010	6.271079	-22.814230	-38.772083	-17.050017	10.629848	0.915600	1.617560	-1.510740	-0.942075	0.229003	0.229614	-1.000000	-1.000000	-1.000000	-1.000000	-1.000000	-1.000000	-1.000000	62.000000	0.000000	-1.000000	-1.000000	1133575.000000	1776578667.524885
4656.600000	-18100.710000	19910.295000	63053.685000	28801.125000	7901.100000	-19484.775000	223.920000	10.592689	9.304360	2.328529	-9.030840	-33.943034	-32.516543	-17.054016	8.479931	0.915600	1.617560	-1.510740	-0.942075	0.229003	0.229614	-1.000000	-1.000000	-1.000000	-1.000000	-1.000000	-1.000000	-1.000000	62.000000	0.000000	-1.000000	-1.000000	1133576.000000	1776578667.524898
4684.320000	-18086.850000	19915.830000	63047.430000	28862.865000	8112.780000	-19636.155000	243.990000	-7.579469	-10.127035	-16.944055	-21.373797	-28.008996	-0.527315	1.320700	-1.839388	0.915600	1.617560	-1.510740	-0.942075	0.229003	0.229614	-1.000000	-1.000000	-1.000000	-1.000000	-1.000000	-1.000000	-1.000000	62.000000	0.000000	-1.000000	-1.000000	1133577.000000	1776578667.531770
4811.535000	-17969.175000	20016.180000	63109.395000	28961.730000	8332.605000	-19719.180000	339.255000	-22.984247	-27.579967	-29.626637	-22.582132	2.810969	68.736885	17.689088	-10.388162	0.915600	1.617560	-1.510740	-0.942075	0.229003	0.229614	-1.000000	-1.000000	-1.000000	-1.000000	-1.000000	-1.000000	-1.000000	62.000000	0.000000	-1.000000	-1.000000	1133578.000000	1776578667.531789
4783.545000	-18003.555000	19972.755000	63041.760000	28745.415000	8192.520000	-19647.945000	325.080000	-16.438368	-24.061089	-22.755387	-11.663390	41.413865	139.939908	10.089020	-4.954932	0.915600	1.617560	-1.510740	-0.942075	0.229003	0.229614	-1.000000	-1.000000	-1.000000	-1.000000	-1.000000	-1.000000	-1.000000	62.000000	0.000000	-1.000000	-1.000000	1133579.000000	1776578667.532959
4788.270000	-17991.945000	19981.125000	63057.870000	28775.385000	8004.825000	-19646.235000	321.255000	8.077041	-1.249029	-1.010475	2.672133	55.161755	149.422735	-11.423271	10.821393	0.915600	1.617560	-1.510740	-0.942075	0.229003	0.229614	-1.000000	-1.000000	-1.000000	-1.000000	-1.000000	-1.000000	-1.000000	62.000000	0.000000	-1.000000	-1.000000	1133580.000000	1776578667.532970
4758.345000	-18024.345000	19948.410000	63037.395000	28826.370000	8050.410000	-19596.780000	301.410000	27.315207	20.105909	17.342070	10.527170	33.963491	68.325218	-21.867781	20.672441	2.334780	1.587040	-2.121140	-0.942319	0.228942	0.230407	-1.000000	-1.000000	-1.000000	-1.000000	-1.000000	-1.000000	-1.000000	62.000000	0.000000	-1.000000	-1.000000	1133581.000000	1776578667.536999
4784.535000	-17995.860000	19996.110000	63110.295000	28892.070000	8068.455000	-19662.345000	317.520000	26.325798	24.851698	21.364663	11.519184	3.500226	-55.392617	-13.718297	15.386020	2.334780	1.587040	-2.121140	-0.942319	0.228942	0.230407	-1.000000	-1.000000	-1.000000	-1.000000	-1.000000	-1.000000	-1.000000	62.000000	0.000000	-1.000000	-1.000000	1133582.000000	1776578667.537009
4773.195000	-18008.640000	19991.700000	63125.370000	28929.555000	8012.160000	-19638.270000	313.605000	9.493380	14.479201	14.645721	12.122596	-9.477668	-142.569938	1.249799	0.229981	2.334780	1.587040	-2.121140	-0.942319	0.228942	0.230407	-1.000000	-1.000000	-1.000000	-1.000000	-1.000000	-1.000000	-1.000000	62.000000	0.000000	-1.000000	-1.000000	1133583.000000	1776578667.541026
4756.455000	-18026.820000	19973.250000	63104.985000	28846.440000	8086.410000	-19628.145000	299.160000	-10.081114	-1.076098	5.162920	14.366480	-5.031900	-152.645770	10.692586	-14.042810	2.334780	1.587040	-2.121140	-0.942319	0.228942	0.230407	-1.000000	-1.000000	-1.000000	-1.000000	-1.000000	-1.000000	-1.000000	62.000000	0.000000	-1.000000	-1.000000	1133584.000000	1776578667.541034
4786.425000	-18002.565000	19969.110000	63024.120000	28777.095000	8140.410000	-19726.020000	313.695000	-22.255267	-13.229698	-3.653626	11.044112	-2.924627	-94.909971	10.892917	-20.613154	2.334780	1.587040	-2.121140	-0.942319	0.228942	0.230407	-1.000000	-1.000000	-1.000000	-1.000000	-1.000000	-1.000000	-1.000000	62.000000	0.000000	-1.000000	-1.000000	1133585.000000	1776578667.544969
4762.845000	-18026.910000	19943.595000	62950.815000	28763.685000	8084.700000	-19675.170000	303.660000	-22.823718	-17.235054	-10.949225	-5.045203	-15.875801	-7.839785	2.840234	-18.055321	2.334780	1.587040	-2.121140	-0.942319	0.228942	0.230407	-1.000000	-1.000000	-1.000000	-1.000000	-1.000000	-1.000000	-1.000000	62.000000	0.000000	-1.000000	-1.000000	1133586.000000	1776578667.544977
4767.570000	-18022.680000	19939.815000	62963.595000	28693.620000	8000.640000	-19636.245000	308.430000	-14.226356	-13.371448	-15.225795	-28.229038	-35.196276	60.113121	-5.512780	-9.117629	2.334780	1.587040	-2.121140	-0.942319	0.228942	0.230407	-1.000000	-1.000000	-1.000000	-1.000000	-1.000000	-1.000000	-1.000000	62.000000	0.000000	-1.000000	-1.000000	1133587.000000	1776578667.549074
4808.880000	-17974.440000	20005.245000	63159.795000	28826.415000	7962.120000	-19610.955000	340.065000	-2.200176	-4.833868	-13.448792	-37.207485	-41.584718	77.828920	-3.407909	1.779793	2.334780	1.587040	-2.121140	-0.942319	0.228942	0.230407	-1.000000	-1.000000	-1.000000	-1.000000	-1.000000	-1.000000	-1.000000	62.000000	0.000000	-1.000000	-1.000000	1133588.000000	1776578667.549088
4741.560000	-18037.620000	19963.125000	63120.375000	29030.895000	8009.370000	-19637.910000	282.735000	8.260655	4.894569	-3.712604	-14.559181	-18.249053	52.378033	7.954472	10.367272	2.334780	1.587040	-2.121140	-0.942319	0.228942	0.230407	-1.000000	-1.000000	-1.000000	-1.000000	-1.000000	-1.000000	-1.000000	62.000000	0.000000	-1.000000	-1.000000	1133589.000000	1776578667.553099
4749.885000	-18029.205000	19976.805000	63107.550000	29058.660000	8117.370000	-19676.700000	285.345000	11.860820	10.106029	8.579566	25.821451	33.557430	18.729019	15.438822	12.011014	2.334780	1.587040	-2.121140	-0.942319	0.228942	0.230407	-1.000000	-1.000000	-1.000000	-1.000000	-1.000000	-1.000000	-1.000000	62.000000	0.000000	-1.000000	-1.000000	1133590.000000	1776578667.553115
4759.335000	-18029.205000	19958.895000	63066.825000	28886.805000	7977.465000	-19639.440000	301.005000	7.523872	7.635993	14.581693	49.088603	78.692002	3.446283	10.214775	6.448636	-0.152600	3.418240	-1.052940	-0.938718	0.232421	0.231994	-1.000000	-1.000000	-1.000000	-1.000000	-1.000000	-1.000000	-1.000000	62.000000	0.000000	-1.000000	-1.000000	1133591.000000	1776578667.557129
4781.520000	-18005.220000	19985.940000	63115.920000	28859.445000	8073.450000	-19635.120000	321.165000	1.869677	2.145759	11.903965	38.443982	72.548314	3.089420	-2.137592	0.507993	-0.152600	3.418240	-1.052940	-0.938718	0.232421	0.231994	-1.000000	-1.000000	-1.000000	-1.000000	-1.000000	-1.000000	-1.000000	62.000000	0.000000	-1.000000	-1.000000	1133592.000000	1776578667.557147
4770.090000	-18014.895000	19980.810000	63111.330000	28928.565000	8014.860000	-19647.540000	313.605000	0.830673	-0.287696	5.079420	7.540485	13.932357	3.510075	-10.876121	-0.166924	-0.152600	3.418240	-1.052940	-0.938718	0.232421	0.231994	-1.000000	-1.000000	-1.000000	-1.000000	-1.000000	-1.000000	-1.000000	62.000000	0.000000	-1.000000	-1.000000	1133593.000000	1776578667.560980
4814.010000	-17972.730000	20013.795000	63112.815000	28932.660000	8110.125000	-19708.605000	340.695000	3.906980	1.565544	-0.362890	-20.512659	-50.590772	0.765338	-13.567953	3.176440	-0.152600	3.418240	-1.052940	-0.938718	0.232421	0.231994	-1.000000	-1.000000	-1.000000	-1.000000	-1.000000	-1.000000	-1.000000	62.000000	0.000000	-1.000000	-1.000000	1133594.000000	1776578667.560989
4831.200000	-17969.715000	19985.085000	63029.385000	28752.705000	7938.765000	-19614.330000	366.435000	8.113130	5.582016	-2.433675	-34.685723	-81.352820	-4.509346	-12.703735	6.839991	-0.152600	3.418240	-1.052940	-0.938718	0.232421	0.231994	-1.000000	-1.000000	-1.000000	-1.000000	-1.000000	-1.000000	-1.000000	62.000000	0.000000	-1.000000	-1.000000	1133595.000000	1776578667.565060
4853.880000	-17956.935000	19980.180000	62997.435000	28528.785000	7796.745000	-19575.045000	391.590000	10.871050	8.416471	-3.515934	-37.782887	-81.538260	-17.768989	-5.586645	8.916204	-0.152600	3.418240	-1.052940	-0.938718	0.232421	0.231994	-1.000000	-1.000000	-1.000000	-1.000000	-1.000000	-1.000000	-1.000000	62.000000	0.000000	-1.000000	-1.000000	1133596.000000	1776578667.565088
4806.405000	-17974.665000	20027.790000	63171.405000	28891.080000	8079.975000	-19722.960000	327.150000	8.666135	6.570251	-5.277933	-30.692148	-64.620697	-35.528075	6.555942	6.983666	-0.152600	3.418240	-1.052940	-0.938718	0.232421	0.231994	-1.000000	-1.000000	-1.000000	-1.000000	-1.000000	-1.000000	-1.000000	62.000000	0.000000	-1.000000	-1.000000	1133597.000000	1776578667.569055
4755.555000	-18023.805000	19985.760000	63142.155000	28991.745000	8252.100000	-19662.615000	303.210000	-2.199642	-1.817597	-5.681645	-7.463536	-17.596908	-28.734713	11.086116	-2.704730	-0.152600	3.418240	-1.052940	-0.938718	0.232421	0.231994	-1.000000	-1.000000	-1.000000	-1.000000	-1.000000	-1.000000	-1.000000	62.000000	0.000000	-1.000000	-1.000000	1133598.000000	1776578667.569075
4759.920000	-18024.975000	19976.895000	63111.285000	28945.980000	8247.825000	-19625.310000	319.545000	-19.530243	-14.715752	-4.775433	24.376740	60.041411	17.982770	4.556654	-17.715351	-0.152600	3.418240	-1.052940	-0.938718	0.232421	0.231994	-1.000000	-1.000000	-1.000000	-1.000000	-1.000000	-1.000000	-1.000000	62.000000	0.000000	-1.000000	-1.000000	1133599.000000	1776578667.572996
4800.510000	-17988.480000	20007.090000	63130.005000	28910.835000	8098.560000	-19668.195000	346.050000	-31.456135	-23.956771	-4.475389	42.241561	120.896477	66.778422	-1.711101	-26.520807	-0.152600	3.418240	-1.052940	-0.938718	0.232421	0.231994	-1.000000	-1.000000	-1.000000	-1.000000	-1.000000	-1.000000	-1.000000	62.000000	0.000000	-1.000000	-1.000000	1133600.000000	1776578667.573010
4816.980000	-17968.995000	20020.185000	63138.330000	28965.555000	8054.370000	-19685.790000	347.670000	-25.861047	-20.076394	-2.774343	35.602679	119.391953	65.335508	-2.843219	-20.144052	-1.632820	3.586100	-0.656180	-0.938230	0.235961	0.232910	-1.000000	-1.000000	-1.000000	-1.000000	-1.000000	-1.000000	-1.000000	62.000000	0.000000	-1.000000	-1.000000	1133601.000000	1776578667.577110
4796.010000	-17996.670000	19981.845000	63083.655000	28939.140000	8096.085000	-19639.845000	340.785000	-4.611164	-3.698386	1.605421	12.792944	60.604767	9.599944	-2.171355	-2.556214	-1.632820	3.586100	-0.656180	-0.938230	0.235961	0.232910	-1.000000	-1.000000	-1.000000	-1.000000	-1.000000	-1.000000	-1.000000	62.000000	0.000000	-1.000000	-1.000000	1133602.000000	1776578667.577140
4816.080000	-17970.615000	20008.980000	63107.010000	28729.980000	7927.245000	-19637.640000	353.520000	17.634939	13.669806	4.992768	-12.816765	-20.120749	-57.591120	0.315986	14.290899	-1.632820	3.586100	-0.656180	-0.938230	0.235961	0.232910	-1.000000	-1.000000	-1.000000	-1.000000	-1.000000	-1.000000	-1.000000	62.000000	0.000000	-1.000000	-1.000000	1133603.000000	1776578667.581024
4818.285000	-17970.120000	20005.560000	63105.570000	28794.195000	7895.790000	-19670.130000	352.350000	28.398440	22.101021	5.114640	-29.175005	-90.027460	-96.753114	4.498634	21.858349	-1.632820	3.586100	-0.656180	-0.938230	0.235961	0.232910	-1.000000	-1.000000	-1.000000	-1.000000	-1.000000	-1.000000	-1.000000	62.000000	0.000000	-1.000000	-1.000000	1133604.000000	1776578667.581039
4782.510000	-18016.290000	19958.085000	63055.260000	28806.210000	7942.905000	-19593.225000	342.945000	24.795677	19.177147	2.728765	-30.330650	-120.357610	-92.722944	7.057784	18.893976	-1.632820	3.586100	-0.656180	-0.938230	0.235961	0.232910	-1.000000	-1.000000	-1.000000	-1.000000	-1.000000	-1.000000	-1.000000	62.000000	0.000000	-1.000000	-1.000000	1133605.000000	1776578667.585068
4793.805000	-17994.780000	19995.075000	63114.840000	28926.315000	8045.055000	-19653.165000	341.370000	10.601580	7.318829	-1.468901	-19.554464	-93.121708	-45.180880	6.866117	8.801519	-1.632820	3.586100	-0.656180	-0.938230	0.235961	0.232910	-1.000000	-1.000000	-1.000000	-1.000000	-1.000000	-1.000000	-1.000000	62.000000	0.000000	-1.000000	-1.000000	1133606.000000	1776578667.585080
4786.875000	-17998.785000	19992.060000	63107.010000	28881.990000	8139.105000	-19719.270000	329.805000	-5.883344	-6.252916	-4.434307	-2.635927	-21.787622	30.250315	2.076714	-2.972426	-1.632820	3.586100	-0.656180	-0.938230	0.235961	0.232910	-1.000000	-1.000000	-1.000000	-1.000000	-1.000000	-1.000000	-1.000000	62.000000	0.000000	-1.000000	-1.000000	1133607.000000	1776578667.589086
4781.385000	-18005.670000	19965.330000	63013.275000	28683.855000	7914.690000	-19646.505000	328.635000	-16.049296	-13.477081	-3.297383	12.757427	47.926054	95.835979	-8.378104	-11.374795	-1.632820	3.586100	-0.656180	-0.938230	0.235961	0.232910	-1.000000	-1.000000	-1.000000	-1.000000	-1.000000	-1.000000	-1.000000	62.000000	0.000000	-1.000000	-1.000000	1133608.000000	1776578667.589099
4744.845000	-18045.090000	19946.655000	63025.155000	28820.430000	8009.145000	-19638.180000	306.855000	-17.396845	-13.039240	-0.722836	16.646689	73.389980	110.196355	-15.621463	-14.020547	-1.632820	3.586100	-0.656180	-0.938230	0.235961	0.232910	-1.000000	-1.000000	-1.000000	-1.000000	-1.000000	-1.000000	-1.000000	62.000000	0.000000	-1.000000	-1.000000	1133609.000000	1776578667.593006
4806.360000	-17976.285000	20035.890000	63171.495000	29037.330000	8239.230000	-19669.815000	356.580000	-12.114909	-8.017810	1.310694	11.551296	60.139726	73.474655	-11.284423	-10.698215	-1.632820	3.586100	-0.656180	-0.938230	0.235961	0.232910	-1.000000	-1.000000	-1.000000	-1.000000	-1.000000	-1.000000	-1.000000	62.000000	0.000000	-1.000000	-1.000000	1133610.000000	1776578667.593015
4796.730000	-17974.485000	20045.385000	63212.445000	28986.795000	8056.260000	-19623.330000	343.710000	-1.818735	0.805632	6.456235	13.292987	44.774033	24.569806	0.195695	-2.085206	-0.442540	1.449700	-1.495480	-0.941709	0.232238	0.231323	-1.000000	-1.000000	-1.000000	-1.000000	-1.000000	-1.000000	-1.000000	62.000000	0.000000	-1.000000	-1.000000	1133611.000000	1776578667.597694
4812.030000	-17979.705000	20006.055000	63156.105000	28931.895000	8043.750000	-19686.060000	355.230000	10.313381	11.397764	13.907609	24.456442	36.020995	-15.827324	9.545479	8.165664	-0.442540	1.449700	-1.495480	-0.941709	0.232238	0.231323	-1.000000	-1.000000	-1.000000	-1.000000	-1.000000	-1.000000	-1.000000	62.000000	0.000000	-1.000000	-1.000000	1133612.000000	1776578667.597712
4894.695000	-17903.655000	20073.285000	63186.210000	28961.145000	8078.445000	-19699.245000	429.165000	19.368060	18.305357	15.632774	27.682315	15.528051	-49.536605	10.352495	15.400026	-0.442540	1.449700	-1.495480	-0.941709	0.232238	0.231323	-1.000000	-1.000000	-1.000000	-1.000000	-1.000000	-1.000000	-1.000000	62.000000	0.000000	-1.000000	-1.000000	1133613.000000	1776578667.601031
4839.930000	-17958.375000	20025.720000	63138.015000	28874.790000	8120.610000	-19589.355000	400.230000	22.464073	18.307821	8.510754	11.369710	-20.916198	-67.939399	4.375876	18.137103	-0.442540	1.449700	-1.495480	-0.941709	0.232238	0.231323	-1.000000	-1.000000	-1.000000	-1.000000	-1.000000	-1.000000	-1.000000	62.000000	0.000000	-1.000000	-1.000000	1133614.000000	1776578667.601042
4820.400000	-17985.510000	19983.015000	63044.550000	28773.630000	8027.685000	-19601.100000	384.705000	15.819216	9.429485	-4.806249	-18.907096	-59.429372	-61.444276	2.085290	14.189027	-0.442540	1.449700	-1.495480	-0.941709	0.232238	0.231323	-1.000000	-1.000000	-1.000000	-1.000000	-1.000000	-1.000000	-1.000000	62.000000	0.000000	-1.000000	-1.000000	1133615.000000	1776578667.604977
4854.690000	-17950.905000	20020.095000	63095.895000	28819.260000	7988.310000	-19660.095000	406.530000	-1.267388	-7.185091	-19.813783	-48.251432	-82.878544	-39.246550	5.922087	1.871679	-0.442540	1.449700	-1.495480	-0.941709	0.232238	0.231323	-1.000000	-1.000000	-1.000000	-1.000000	-1.000000	-1.000000	-1.000000	62.000000	0.000000	-1.000000	-1.000000	1133616.000000	1776578667.604989
4847.355000	-17938.845000	20055.195000	63191.655000	28923.480000	8081.955000	-19720.620000	381.600000	-19.119254	-21.494324	-26.931042	-56.431283	-73.671120	-15.210986	4.370035	-13.446580	-0.442540	1.449700	-1.495480	-0.941709	0.232238	0.231323	-1.000000	-1.000000	-1.000000	-1.000000	-1.000000	-1.000000	-1.000000	62.000000	0.000000	-1.000000	-1.000000	1133617.000000	1776578667.608894
4816.035000	-17971.065000	20027.700000	63158.670000	28935.315000	8077.905000	-19664.910000	362.925000	-27.463801	-24.109662	-19.238703	-32.297230	-26.391877	8.901906	-7.847591	-24.110982	-0.442540	1.449700	-1.495480	-0.941709	0.232238	0.231323	-1.000000	-1.000000	-1.000000	-1.000000	-1.000000	-1.000000	-1.000000	62.000000	0.000000	-1.000000	-1.000000	1133618.000000	1776578667.608922
4808.205000	-17986.005000	20011.455000	63147.960000	28942.785000	8098.335000	-19621.395000	365.985000	-25.541876	-17.117620	-3.222848	8.645708	36.453713	32.546196	-18.253164	-26.491363	-0.442540	1.449700	-1.495480	-0.941709	0.232238	0.231323	-1.000000	-1.000000	-1.000000	-1.000000	-1.000000	-1.000000	-1.000000	62.000000	0.000000	-1.000000	-1.000000	1133619.000000	1776578667.613066
4818.375000	-17977.995000	20011.095000	63127.620000	28915.470000	8065.665000	-19616.130000	372.375000	-17.028728	-7.750049	8.841613	37.630188	78.088462	46.315135	-13.341079	-19.781745	-0.442540	1.449700	-1.495480	-0.941709	0.232238	0.231323	-1.000000	-1.000000	-1.000000	-1.000000	-1.000000	-1.000000	-1.000000	62.000000	0.000000	-1.000000	-1.000000	1133620.000000	1776578667.613087
4788.000000	-18012.105000	19986.435000	63100.890000	28990.620000	8168.670000	-19619.955000	362.430000	-4.993970	0.193521	11.654353	39.780589	78.806241	43.409539	3.321817	-6.051785	2.609460	3.036740	-0.946120	-0.940000	0.227783	0.229064	-1.000000	-1.000000	-1.000000	-1.000000	-1.000000	-1.000000	-1.000000	62.000000	0.000000	-1.000000	-1.000000	1133621.000000	1776578667.617090
4821.255000	-17974.620000	20030.760000	63175.050000	29022.255000	8197.110000	-19636.515000	382.005000	7.165551	6.152349	8.433492	22.195617	48.622780	29.695717	16.709733	9.160339	2.609460	3.036740	-0.946120	-0.940000	0.227783	0.229064	-1.000000	-1.000000	-1.000000	-1.000000	-1.000000	-1.000000	-1.000000	62.000000	0.000000	-1.000000	-1.000000	1133622.000000	1776578667.617103
4850.010000	-17944.605000	20048.265000	63167.760000	28951.245000	8107.110000	-19641.915000	401.040000	17.339153	11.822283	6.168740	3.421099	9.306345	12.700069	16.735657	20.543532	2.609460	3.036740	-0.946120	-0.940000	0.227783	0.229064	-1.000000	-1.000000	-1.000000	-1.000000	-1.000000	-1.000000	-1.000000	62.000000	0.000000	-1.000000	-1.000000	1133623.000000	1776578667.622429
4846.995000	-17953.380000	20032.785000	63139.770000	28929.195000	8098.605000	-19649.070000	399.420000	24.550444	18.108266	8.049292	-5.537086	-26.542038	-8.907849	5.241502	25.328042	2.609460	3.036740	-0.946120	-0.940000	0.227783	0.229064	-1.000000	-1.000000	-1.000000	-1.000000	-1.000000	-1.000000	-1.000000	62.000000	0.000000	-1.000000	-1.000000	1133624.000000	1776578667.622447
4830.795000	-17974.890000	20017.170000	63145.800000	28912.860000	8004.105000	-19620.270000	395.820000	25.245964	20.503979	9.440185	-7.893044	-52.565454	-34.722564	-7.950822	22.064047	2.609460	3.036740	-0.946120	-0.940000	0.227783	0.229064	-1.000000	-1.000000	-1.000000	-1.000000	-1.000000	-1.000000	-1.000000	62.000000	0.000000	-1.000000	-1.000000	1133625.000000	1776578667.626440
4845.060000	-17950.455000	20040.480000	63154.530000	28908.405000	8068.545000	-19671.210000	397.800000	16.439161	14.215044	5.439625	-8.900485	-60.947318	-53.709875	-14.363443	11.433562	2.609460	3.036740	-0.946120	-0.940000	0.227783	0.229064	-1.000000	-1.000000	-1.000000	-1.000000	-1.000000	-1.000000	-1.000000	62.000000	0.000000	-1.000000	-1.000000	1133626.000000	1776578667.626453
4831.830000	-17959.905000	20038.140000	63171.045000	28892.745000	8090.820000	-19658.295000	384.975000	1.435933	1.920918	-1.815518	-8.314168	-48.097020	-50.785793	-13.360927	-2.451804	2.609460	3.036740	-0.946120	-0.940000	0.227783	0.229064	-1.000000	-1.000000	-1.000000	-1.000000	-1.000000	-1.000000	-1.000000	62.000000	0.000000	-1.000000	-1.000000	1133627.000000	1776578667.630471
4840.695000	-17951.175000	20041.740000	63162.720000	28857.105000	8079.570000	-19638.540000	399.465000	-12.482203	-9.361779	-7.239363	-4.931961	-20.743118	-22.212276	-7.882194	-13.899572	2.609460	3.036740	-0.946120	-0.940000	0.227783	0.229064	-1.000000	-1.000000	-1.000000	-1.000000	-1.000000	-1.000000	-1.000000	62.000000	0.000000	-1.000000	-1.000000	1133628.000000	1776578667.630482
4844.925000	-17948.790000	20042.280000	63155.070000	28886.760000	8044.650000	-19636.605000	406.305000	-19.497405	-14.940595	-8.748208	-0.731622	8.618543	15.539326	0.704017	-18.248890	2.609460	3.036740	-0.946120	-0.940000	0.227783	0.229064	-1.000000	-1.000000	-1.000000	-1.000000	-1.000000	-1.000000	-1.000000	62.000000	0.000000	-1.000000	-1.000000	1133629.000000	1776578667.634298
4867.605000	-17929.395000	20054.430000	63161.370000	28948.635000	8017.920000	-19652.715000	417.960000	-17.492381	-13.742155	-6.983245	1.316671	32.070815	39.337291	9.369027	-14.239402	2.609460	3.036740	-0.946120	-0.940000	0.227783	0.229064	-1.000000	-1.000000	-1.000000	-1.000000	-1.000000	-1.000000	-1.000000	62.000000	0.000000	-1.000000	-1.000000	1133630.000000	1776578667.634307
4879.395000	-17919.000000	20065.410000	63171.585000	28943.460000	8032.815000	-19637.955000	430.290000	-8.361087	-7.346433	-3.158440	1.186157	47.310249	39.715528	13.257849	-4.926355	0.625660	3.265640	-1.510740	-0.938230	0.228210	0.230529	-1.000000	-1.000000	-1.000000	-1.000000	-1.000000	-1.000000	-1.000000	62.000000	0.000000	-1.000000	-1.000000	1133631.000000	1776578667.637156
4847.400000	-17949.330000	20047.410000	63176.130000	28972.395000	8089.110000	-19634.175000	412.605000	2.061980	0.011812	0.849091	1.058393	50.679018	25.823373	11.149320	4.089415	0.625660	3.265640	-1.510740	-0.938230	0.228210	0.230529	-1.000000	-1.000000	-1.000000	-1.000000	-1.000000	-1.000000	-1.000000	62.000000	0.000000	-1.000000	-1.000000	1133632.000000	1776578667.637165
4826.565000	-17973.090000	20028.375000	63164.700000	28972.665000	8195.220000	-19635.390000	400.275000	6.398373	2.655502	2.038916	1.647802	38.914618	14.746850	5.809974	7.493329	0.625660	3.265640	-1.510740	-0.938230	0.228210	0.230529	-1.000000	-1.000000	-1.000000	-1.000000	-1.000000	-1.000000	-1.000000	62.000000	0.000000	-1.000000	-1.000000	1133633.000000	1776578667.641026
4837.860000	-17963.910000	20039.400000	63167.310000	28909.125000	8097.930000	-19645.245000	402.660000	2.464826	-1.069252	-0.706731	1.587258	13.937983	13.246638	-0.135265	4.029498	0.625660	3.265640	-1.510740	-0.938230	0.228210	0.230529	-1.000000	-1.000000	-1.000000	-1.000000	-1.000000	-1.000000	-1.000000	62.000000	0.000000	-1.000000	-1.000000	1133634.000000	1776578667.641035
4842.810000	-17961.660000	20045.520000	63169.380000	28907.550000	8078.985000	-19645.470000	401.940000	-3.742856	-5.856871	-3.940762	0.240600	-17.519573	9.709390	-5.396291	-2.094491	0.625660	3.265640	-1.510740	-0.938230	0.228210	0.230529	-1.000000	-1.000000	-1.000000	-1.000000	-1.000000	-1.000000	-1.000000	62.000000	0.000000	-1.000000	-1.000000	1133635.000000	1776578667.644997
4864.455000	-17940.555000	20063.160000	63183.150000	28949.130000	8105.085000	-19652.580000	417.960000	-4.799285	-5.232988	-3.193574	-0.967449	-42.614354	-6.462191	-8.788504	-5.214848	0.625660	3.265640	-1.510740	-0.938230	0.228210	0.230529	-1.000000	-1.000000	-1.000000	-1.000000	-1.000000	-1.000000	-1.000000	62.000000	0.000000	-1.000000	-1.000000	1133636.000000	1776578667.645003
4874.175000	-17923.275000	20075.535000	63186.750000	28958.895000	8095.140000	-19668.420000	416.475000	0.999550	2.101205	2.184396	-0.447108	-47.340988	-26.891761	-9.541820	-2.963951	0.625660	3.265640	-1.510740	-0.938230	0.228210	0.230529	-1.000000	-1.000000	-1.000000	-1.000000	-1.000000	-1.000000	-1.000000	62.000000	0.000000	-1.000000	-1.000000	1133637.000000	1776578667.648950
4895.820000	-17890.920000	20087.055000	63170.235000	28888.020000	8017.830000	-19684.935000	431.280000	9.528812	12.268007	8.805351	1.113593	-31.369420	-38.205105	-8.249936	2.633061	0.625660	3.265640	-1.510740	-0.938230	0.228210	0.230529	-1.000000	-1.000000	-1.000000	-1.000000	-1.000000	-1.000000	-1.000000	62.000000	0.000000	-1.000000	-1.000000	1133638.000000	1776578667.648957
4879.080000	-17906.760000	20078.910000	63189.495000	28822.005000	7908.345000	-19656.810000	434.070000	14.618985	19.072168	11.950835	1.565508	-10.846705	-39.574908	-5.286601	7.647181	0.625660	3.265640	-1.510740	-0.938230	0.228210	0.230529	-1.000000	-1.000000	-1.000000	-1.000000	-1.000000	-1.000000	-1.000000	62.000000	0.000000	-1.000000	-1.000000	1133639.000000	1776578667.654502
4818.780000	-17968.815000	20042.955000	63193.005000	28850.535000	7967.655000	-19613.610000	397.665000	10.843448	15.920016	8.087882	0.758458	0.293856	-34.935701	1.118209	8.446919	0.625660	3.265640	-1.510740	-0.938230	0.228210	0.230529	-1.000000	-1.000000	-1.000000	-1.000000	-1.000000	-1.000000	-1.000000	62.000000	0.000000	-1.000000	-1.000000	1133640.000000	1776578667.654515
4810.635000	-17984.745000	20016.315000	63156.330000	28897.875000	7909.605000	-19679.940000	379.485000	-2.861300	0.349133	-2.971541	-0.490406	5.524669	-21.020546	10.114025	2.811148	-2.762060	4.181240	-1.571780	-0.937681	0.232055	0.230956	-1.000000	-1.000000	-1.000000	-1.000000	-1.000000	-1.000000	-1.000000	62.000000	0.000000	-1.000000	-1.000000	1133641.000000	1776578667.657316
4849.065000	-17955.270000	20025.135000	63144.450000	28995.885000	8142.885000	-19630.575000	421.515000	-18.083508	-19.215384	-15.794063	-3.246728	16.830142	7.630246	15.024060	-6.161246	-2.762060	4.181240	-1.571780	-0.937681	0.232055	0.230956	-1.000000	-1.000000	-1.000000	-1.000000	-1.000000	-1.000000	-1.000000	62.000000	0.000000	-1.000000	-1.000000	1133642.000000	1776578667.657328
4868.730000	-17925.615000	20064.735000	63187.290000	28982.745000	8130.060000	-19637.730000	434.700000	-21.541411	-27.378283	-20.672110	-6.480495	35.726889	48.496957	12.281447	-10.009469	-2.762060	4.181240	-1.571780	-0.937681	0.232055	0.230956	-1.000000	-1.000000	-1.000000	-1.000000	-1.000000	-1.000000	-1.000000	62.000000	0.000000	-1.000000	-1.000000	1133643.000000	1776578667.662617
4857.975000	-17930.160000	20060.145000	63172.620000	28864.035000	8022.735000	-19631.880000	427.905000	-9.514379	-17.150793	-11.880755	-5.487066	45.806089	80.311385	5.390191	-4.675727	-2.762060	4.181240	-1.571780	-0.937681	0.232055	0.230956	-1.000000	-1.000000	-1.000000	-1.000000	-1.000000	-1.000000	-1.000000	62.000000	0.000000	-1.000000	-1.000000	1133644.000000	1776578667.662632
4825.305000	-17952.570000	20046.600000	63179.190000	28955.745000	8179.740000	-19641.465000	404.910000	7.303018	2.468698	4.819636	0.670264	30.554015	76.065447	-1.895906	3.796881	-2.762060	4.181240	-1.571780	-0.937681	0.232055	0.230956	-1.000000	-1.000000	-1.000000	-1.000000	-1.000000	-1.000000	-1.000000	62.000000	0.000000	-1.000000	-1.000000	1133645.000000	1776578667.665098
4773.870000	-18003.960000	20008.485000	63163.080000	28999.440000	8218.935000	-19628.505000	370.530000	14.648976	15.496357	16.482006	6.876802	-0.837853	39.012623	-7.659124	6.379743	-2.762060	4.181240	-1.571780	-0.937681	0.232055	0.230956	-1.000000	-1.000000	-1.000000	-1.000000	-1.000000	-1.000000	-1.000000	62.000000	0.000000	-1.000000	-1.000000	1133646.000000	1776578667.665107
4757.580000	-18011.115000	20015.595000	63175.275000	28998.405000	8190.090000	-19632.150000	358.110000	7.678253	13.428846	15.390825	8.529790	-23.848338	-4.508702	-10.265744	0.379959	-2.762060	4.181240	-1.571780	-0.937681	0.232055	0.230956	-1.000000	-1.000000	-1.000000	-1.000000	-1.000000	-1.000000	-1.000000	62.000000	0.000000	-1.000000	-1.000000	1133647.000000	1776578667.671420
4741.200000	-18023.040000	20022.660000	63196.650000	28974.870000	8125.425000	-19640.790000	348.840000	-5.846430	1.482814	5.639068	6.169307	-29.193392	-40.074860	-9.414072	-8.605873	-2.762060	4.181240	-1.571780	-0.937681	0.232055	0.230956	-1.000000	-1.000000	-1.000000	-1.000000	-1.000000	-1.000000	-1.000000	62.000000	0.000000	-1.000000	-1.000000	1133648.000000	1776578667.671428
4756.455000	-18043.065000	20022.120000	63205.020000	28959.750000	8076.465000	-19649.250000	358.920000	-13.459975	-8.697667	-2.941055	3.539702	-25.131016	-66.462883	-6.807167	-12.248049	-2.762060	4.181240	-1.571780	-0.937681	0.232055	0.230956	-1.000000	-1.000000	-1.000000	-1.000000	-1.000000	-1.000000	-1.000000	62.000000	0.000000	-1.000000	-1.000000	1133649.000000	1776578667.674472
4798.440000	-18000.450000	20030.040000	63193.545000	28949.490000	8066.070000	-19665.945000	378.720000	-7.759536	-9.417856	-4.872593	2.138103	-20.442063	-79.587591	-4.426154	-6.295805	-2.762060	4.181240	-1.571780	-0.937681	0.232055	0.230956	-1.000000	-1.000000	-1.000000	-1.000000	-1.000000	-1.000000	-1.000000	62.000000	0.000000	-1.000000	-1.000000	1133650.000000	1776578667.674478
4815.135000	-17964.315000	20038.005000	63199.710000	28927.845000	8078.985000	-19658.340000	389.295000	9.205249	0.775205	-1.294913	0.131217	-16.729548	-70.789605	-2.667790	6.724672	-1.175020	4.944240	-0.869820	-0.937376	0.230712	0.229064	-1.000000	-1.000000	-1.000000	-1.000000	-1.000000	-1.000000	-1.000000	62.000000	0.000000	-1.000000	-1.000000	1133651.000000	1776578667.677009
4828.770000	-17951.805000	20057.760000	63202.140000	28942.155000	8107.830000	-19637.865000	399.510000	26.855057	16.933821	3.990664	-3.348016	-11.417241	-37.147187	0.123878	19.282514	-1.175020	4.944240	-0.869820	-0.937376	0.230712	0.229064	-1.000000	-1.000000	-1.000000	-1.000000	-1.000000	-1.000000	-1.000000	62.000000	0.000000	-1.000000	-1.000000	1133652.000000	1776578667.677016
4859.235000	-17929.260000	20066.130000	63185.400000	28949.220000	8080.200000	-19643.130000	431.145000	33.642985	28.701420	7.716966	-6.866974	-2.013323	10.255830	5.270178	24.414390	-1.175020	4.944240	-0.869820	-0.937376	0.230712	0.229064	-1.000000	-1.000000	-1.000000	-1.000000	-1.000000	-1.000000	-1.000000	62.000000	0.000000	-1.000000	-1.000000	1133653.000000	1776578667.681077
4891.635000	-17855.055000	20096.055000	63188.505000	28914.120000	8042.220000	-19652.220000	459.135000	26.176186	28.884152	8.312387	-9.015422	9.966930	49.541586	10.342294	20.743751	-1.175020	4.944240	-0.869820	-0.937376	0.230712	0.229064	-1.000000	-1.000000	-1.000000	-1.000000	-1.000000	-1.000000	-1.000000	62.000000	0.000000	-1.000000	-1.000000	1133654.000000	1776578667.681087
4923.540000	-17866.125000	20114.955000	63188.010000	28848.960000	7935.300000	-19674.495000	478.980000	9.894469	18.740687	6.173384	-8.773374	17.270859	61.271672	10.740059	11.447016	-1.175020	4.944240	-0.869820	-0.937376	0.230712	0.229064	-1.000000	-1.000000	-1.000000	-1.000000	-1.000000	-1.000000	-1.000000	62.000000	0.000000	-1.000000	-1.000000	1133655.000000	1776578667.686468
4903.245000	-17923.995000	20062.485000	63162.045000	28876.545000	7975.530000	-19660.680000	472.455000	-7.991207	0.967481	1.323035	-5.962074	14.540784	43.173418	5.243604	-0.256518	-1.175020	4.944240	-0.869820	-0.937376	0.230712	0.229064	-1.000000	-1.000000	-1.000000	-1.000000	-1.000000	-1.000000	-1.000000	62.000000	0.000000	-1.000000	-1.000000	1133656.000000	1776578667.686480
4898.655000	-17947.710000	20062.305000	63177.705000	28903.545000	8002.935000	-19674.495000	455.040000	-23.729134	-23.094365	-7.710422	-2.002597	7.408325	14.366894	-2.152247	-12.916818	-1.175020	4.944240	-0.869820	-0.937376	0.230712	0.229064	-1.000000	-1.000000	-1.000000	-1.000000	-1.000000	-1.000000	-1.000000	62.000000	0.000000	-1.000000	-1.000000	1133657.000000	1776578667.690365
4827.240000	-18040.365000	20033.190000	63176.760000	28972.485000	8100.585000	-19639.350000	402.795000	-36.118114	-47.269644	-18.980743	2.209944	6.932967	-0.393291	-6.110488	-25.507141	-1.175020	4.944240	-0.869820	-0.937376	0.230712	0.229064	-1.000000	-1.000000	-1.000000	-1.000000	-1.000000	-1.000000	-1.000000	62.000000	0.000000	-1.000000	-1.000000	1133658.000000	1776578667.690377
4767.300000	-18062.280000	20049.435000	63205.830000	28979.685000	8161.200000	-19629.270000	364.950000	-44.373423	-61.131780	-25.565860	7.011333	15.928668	7.862583	-3.903498	-35.737139	-1.175020	4.944240	-0.869820	-0.937376	0.230712	0.229064	-1.000000	-1.000000	-1.000000	-1.000000	-1.000000	-1.000000	-1.000000	62.000000	0.000000	-1.000000	-1.000000	1133659.000000	1776578667.693169
4746.060000	-18001.485000	20102.175000	63214.605000	28947.555000	8087.220000	-19654.920000	353.880000	-45.794912	-54.280797	-20.516526	11.981684	24.298877	25.101449	2.046265	-38.909533	-1.175020	4.944240	-0.869820	-0.937376	0.230712	0.229064	-1.000000	-1.000000	-1.000000	-1.000000	-1.000000	-1.000000	-1.000000	62.000000	0.000000	-1.000000	-1.000000	1133660.000000	1776578667.693178
4739.355000	-17945.145000	20146.455000	63227.610000	28921.725000	7982.460000	-19662.030000	370.080000	-34.910712	-21.188767	-2.105161	14.956428	18.663353	24.877763	5.118000	-29.388523	14.619080	4.776380	-4.410140	-0.941221	0.216430	0.221130	-1.000000	-1.000000	-1.000000	-1.000000	-1.000000	-1.000000	-1.000000	62.000000	0.000000	-1.000000	-1.000000	1133661.000000	1776578667.697142
4730.130000	-17948.970000	20088.630000	63220.320000	28977.705000	8122.770000	-19638.315000	377.685000	-9.707947	28.212308	20.721069	13.092622	-1.597701	-2.490296	2.205732	-6.266239	14.619080	4.776380	-4.410140	-0.941221	0.216430	0.221130	-1.000000	-1.000000	-1.000000	-1.000000	-1.000000	-1.000000	-1.000000	62.000000	0.000000	-1.000000	-1.000000	1133662.000000	1776578667.697150
4749.885000	-17975.970000	20022.030000	63192.465000	28971.180000	8147.610000	-19624.590000	381.510000	22.844845	67.796894	30.323201	4.903491	-22.102453	-33.660582	-2.336609	22.435834	14.619080	4.776380	-4.410140	-0.941221	0.216430	0.221130	-1.000000	-1.000000	-1.000000	-1.000000	-1.000000	-1.000000	-1.000000	62.000000	0.000000	-1.000000	-1.000000	1133663.000000	1776578667.702416
4791.105000	-17984.655000	20021.580000	63170.370000	28945.170000	8086.500000	-19643.400000	400.590000	51.140867	74.620153	17.177374	-8.152078	-30.507576	-43.020614	-3.800826	43.940353	14.619080	4.776380	-4.410140	-0.941221	0.216430	0.221130	-1.000000	-1.000000	-1.000000	-1.000000	-1.000000	-1.000000	-1.000000	62.000000	0.000000	-1.000000	-1.000000	1133664.000000	1776578667.702425
4798.755000	-17926.065000	20043.270000	63194.580000	28960.920000	8082.495000	-19660.005000	400.635000	65.601251	48.862945	-7.183706	-20.202664	-26.982957	-32.983064	-3.354160	49.442254	14.619080	4.776380	-4.410140	-0.941221	0.216430	0.221130	-1.000000	-1.000000	-1.000000	-1.000000	-1.000000	-1.000000	-1.000000	62.000000	0.000000	-1.000000	-1.000000	1133665.000000	1776578667.705505
4739.895000	-17849.700000	20068.965000	63213.750000	28944.540000	8053.470000	-19663.605000	370.395000	59.615750	12.560401	-21.472618	-22.850960	-17.071082	-19.243412	-4.217106	37.553641	14.619080	4.776380	-4.410140	-0.941221	0.216430	0.221130	-1.000000	-1.000000	-1.000000	-1.000000	-1.000000	-1.000000	-1.000000	62.000000	0.000000	-1.000000	-1.000000	1133666.000000	1776578667.705520
4652.055000	-17935.155000	20000.925000	63201.780000	28941.615000	8056.305000	-19677.690000	296.280000	30.457294	-13.672393	-17.114969	-13.145457	-5.565168	-9.223230	-6.207784	11.940802	14.619080	4.776380	-4.410140	-0.941221	0.216430	0.221130	-1.000000	-1.000000	-1.000000	-1.000000	-1.000000	-1.000000	-1.000000	62.000000	0.000000	-1.000000	-1.000000	1133667.000000	1776578667.713600
4659.255000	-17957.970000	20090.205000	63210.375000	28953.360000	8071.605000	-19683.990000	280.890000	-13.424581	-28.796156	-2.312090	2.208431	4.195975	-1.229663	-6.862155	-19.223393	14.619080	4.776380	-4.410140	-0.941221	0.216430	0.221130	-1.000000	-1.000000	-1.000000	-1.000000	-1.000000	-1.000000	-1.000000	62.000000	0.000000	-1.000000	-1.000000	1133668.000000	1776578667.713623
4765.050000	-17972.190000	20184.660000	63257.040000	28982.835000	8087.265000	-19658.295000	347.535000	-48.084391	-39.816995	14.846594	14.539800	11.627776	8.439256	-4.103835	-41.051714	14.619080	4.776380	-4.410140	-0.941221	0.216430	0.221130	-1.000000	-1.000000	-1.000000	-1.000000	-1.000000	-1.000000	-1.000000	62.000000	0.000000	-1.000000	-1.000000	1133669.000000	1776578667.713644
4880.745000	-17978.355000	20134.170000	63255.645000	28985.130000	8093.385000	-19622.205000	451.260000	-48.241796	-44.856179	30.337271	20.488194	17.238650	19.362659	3.296936	-37.278109	14.619080	4.776380	-4.410140	-0.941221	0.216430	0.221130	-1.000000	-1.000000	-1.000000	-1.000000	-1.000000	-1.000000	-1.000000	62.000000	0.000000	-1.000000	-1.000000	1133670.000000	1776578667.713649
4948.515000	-18000.765000	20103.795000	63227.565000	28934.010000	8047.665000	-19628.820000	511.335000	-11.909852	-38.004121	33.284413	18.710378	18.361621	25.634541	13.442000	-5.687931	36.013600	2.777320	-10.468360	-0.942136	0.196716	0.214477	-1.000000	-1.000000	-1.000000	-1.000000	-1.000000	-1.000000	-1.000000	62.000000	0.000000	-1.000000	-1.000000	1133671.000000	1776578667.718623
4940.325000	-17922.105000	20103.075000	63219.015000	28902.690000	7936.335000	-19666.935000	534.825000	33.192149	-18.234275	15.025431	7.963038	10.377928	19.208354	19.060642	34.072114	36.013600	2.777320	-10.468360	-0.942136	0.196716	0.214477	-1.000000	-1.000000	-1.000000	-1.000000	-1.000000	-1.000000	-1.000000	62.000000	0.000000	-1.000000	-1.000000	1133672.000000	1776578667.718635
4950.360000	-17838.630000	20076.075000	63206.055000	28904.445000	7892.100000	-19671.705000	540.945000	52.095613	11.595528	-15.670844	-8.097397	-5.070546	-2.144738	13.228197	54.087394	36.013600	2.777320	-10.468360	-0.942136	0.196716	0.214477	-1.000000	-1.000000	-1.000000	-1.000000	-1.000000	-1.000000	-1.000000	62.000000	0.000000	-1.000000	-1.000000	1133673.000000	1776578667.721091
4915.845000	-17852.220000	20011.995000	63134.910000	28884.645000	7978.635000	-19655.820000	503.280000	31.171371	42.711742	-41.454255	-22.218606	-18.143789	-25.088493	-1.297611	39.761476	36.013600	2.777320	-10.468360	-0.942136	0.196716	0.214477	-1.000000	-1.000000	-1.000000	-1.000000	-1.000000	-1.000000	-1.000000	62.000000	0.000000	-1.000000	-1.000000	1133674.000000	1776578667.721099
4846.365000	-17878.275000	20043.810000	63147.465000	28894.635000	8079.120000	-19651.860000	441.360000	-16.076559	57.736138	-50.622154	-29.200227	-20.109327	-26.122500	-13.646982	-2.198077	36.013600	2.777320	-10.468360	-0.942136	0.196716	0.214477	-1.000000	-1.000000	-1.000000	-1.000000	-1.000000	-1.000000	-1.000000	62.000000	0.000000	-1.000000	-1.000000	1133675.000000	1776578667.725170
4710.915000	-17902.575000	20108.925000	63192.870000	28962.810000	8144.010000	-19646.415000	342.270000	-65.298755	43.552226	-37.623969	-24.525091	-9.032119	3.759299	-16.069685	-51.494571	36.013600	2.777320	-10.468360	-0.942136	0.196716	0.214477	-1.000000	-1.000000	-1.000000	-1.000000	-1.000000	-1.000000	-1.000000	62.000000	0.000000	-1.000000	-1.000000	1133676.000000	1776578667.725175
4640.985000	-17965.530000	20119.950000	63237.735000	28976.535000	8119.260000	-19655.055000	263.385000	-95.906739	5.546895	-4.765426	-5.143487	11.064746	44.148308	-9.766354	-86.270902	36.013600	2.777320	-10.468360	-0.942136	0.196716	0.214477	-1.000000	-1.000000	-1.000000	-1.000000	-1.000000	-1.000000	-1.000000	62.000000	0.000000	-1.000000	-1.000000	1133677.000000	1776578667.729115
4654.710000	-17986.095000	20007.495000	63236.700000	28996.560000	8107.380000	-19653.480000	246.195000	-93.267555	-36.435931	30.147358	22.321699	29.872180	61.650370	-1.141240	-90.738182	36.013600	2.777320	-10.468360	-0.942136	0.196716	0.214477	-1.000000	-1.000000	-1.000000	-1.000000	-1.000000	-1.000000	-1.000000	62.000000	0.000000	-1.000000	-1.000000	1133678.000000	1776578667.729123
4719.330000	-18006.480000	19931.805000	63244.350000	28998.315000	8090.595000	-19655.325000	318.285000	-50.611244	-61.165555	41.736892	41.903226	35.421010	40.368767	4.510697	-58.181881	36.013600	2.777320	-10.468360	-0.942136	0.196716	0.214477	-1.000000	-1.000000	-1.000000	-1.000000	-1.000000	-1.000000	-1.000000	62.000000	0.000000	-1.000000	-1.000000	1133679.000000	1776578667.733092
4846.050000	-18080.595000	19925.775000	63255.645000	28962.360000	8043.930000	-19664.415000	420.570000	23.098017	-58.469939	22.581232	41.538735	22.767511	-6.964137	5.667515	5.561827	36.013600	2.777320	-10.468360	-0.942136	0.196716	0.214477	-1.000000	-1.000000	-1.000000	-1.000000	-1.000000	-1.000000	-1.000000	62.000000	0.000000	-1.000000	-1.000000	1133680.000000	1776578667.733103
4951.845000	-17944.740000	20086.155000	63269.910000	28965.375000	8045.820000	-19644.525000	506.880000	101.431628	-31.714736	-4.469340	22.880372	-2.895678	-53.088392	3.831762	78.835362	50.922620	3.555580	-17.487960	-0.943601	0.188415	0.205932	-1.000000	-1.000000	-1.000000	-1.000000	-1.000000	-1.000000	-1.000000	62.000000	0.000000	-1.000000	-1.000000	1133681.000000	1776578667.738219
5010.210000	-17825.895000	20230.200000	63244.935000	28965.150000	8069.670000	-19614.780000	580.230000	150.308489	12.337866	-6.665025	-3.005139	-28.454248	-73.950039	2.495227	129.999744	50.922620	3.555580	-17.487960	-0.943601	0.188415	0.205932	-1.000000	-1.000000	-1.000000	-1.000000	-1.000000	-1.000000	-1.000000	62.000000	0.000000	-1.000000	-1.000000	1133682.000000	1776578667.738230
4996.710000	-17865.270000	20115.945000	63210.780000	28937.745000	8047.845000	-19631.745000	553.455000	143.786315	60.568992	20.390033	-25.863878	-41.056579	-60.852537	3.762666	133.040792	50.922620	3.555580	-17.487960	-0.943601	0.188415	0.205932	-1.000000	-1.000000	-1.000000	-1.000000	-1.000000	-1.000000	-1.000000	62.000000	0.000000	-1.000000	-1.000000	1133683.000000	1776578667.741351
4940.370000	-17865.045000	20049.120000	63174.735000	28927.755000	8044.110000	-19642.005000	494.370000	78.687285	86.071872	42.036323	-40.230759	-37.187419	-24.967644	4.790084	81.311595	50.922620	3.555580	-17.487960	-0.943601	0.188415	0.205932	-1.000000	-1.000000	-1.000000	-1.000000	-1.000000	-1.000000	-1.000000	62.000000	0.000000	-1.000000	-1.000000	1133684.000000	1776578667.741362
4897.935000	-17833.275000	20086.830000	63190.260000	28932.345000	8037.945000	-19654.110000	442.710000	-20.402392	69.917115	27.279307	-42.653589	-21.626320	12.766617	1.499427	-6.636809	50.922620	3.555580	-17.487960	-0.943601	0.188415	0.205932	-1.000000	-1.000000	-1.000000	-1.000000	-1.000000	-1.000000	-1.000000	62.000000	0.000000	-1.000000	-1.000000	1133685.000000	1776578667.745299
4915.620000	-17795.295000	20170.440000	63230.805000	28930.680000	8000.505000	-19675.035000	433.980000	-110.209384	23.253963	-11.849070	-29.949282	-1.327076	36.124989	-5.730375	-92.255930	50.922620	3.555580	-17.487960	-0.943601	0.188415	0.205932	-1.000000	-1.000000	-1.000000	-1.000000	-1.000000	-1.000000	-1.000000	62.000000	0.000000	-1.000000	-1.000000	1133686.000000	1776578667.745313
4924.440000	-17820.045000	20142.495000	63218.970000	28940.580000	8030.970000	-19665.540000	457.695000	-150.669813	-26.038399	-40.861877	-4.107870	17.058854	40.142966	-12.365338	-136.091487	50.922620	3.555580	-17.487960	-0.943601	0.188415	0.205932	-1.000000	-1.000000	-1.000000	-1.000000	-1.000000	-1.000000	-1.000000	62.000000	0.000000	-1.000000	-1.000000	1133687.000000	1776578667.752521
4896.855000	-17970.255000	20046.600000	63205.965000	28963.485000	8082.630000	-19619.730000	502.740000	-129.111913	-60.605183	-45.850763	22.980321	28.646768	31.895008	-12.487857	-120.078263	50.922620	3.555580	-17.487960	-0.943601	0.188415	0.205932	-1.000000	-1.000000	-1.000000	-1.000000	-1.000000	-1.000000	-1.000000	62.000000	0.000000	-1.000000	-1.000000	1133688.000000	1776578667.752532
4864.095000	-18035.460000	19993.770000	63198.315000	28935.675000	8038.395000	-19637.640000	491.580000	-66.340817	-79.862531	-38.974193	36.839338	30.994260	21.741921	-3.579614	-57.612776	50.922620	3.555580	-17.487960	-0.943601	0.188415	0.205932	-1.000000	-1.000000	-1.000000	-1.000000	-1.000000	-1.000000	-1.000000	62.000000	0.000000	-1.000000	-1.000000	1133689.000000	1776578667.753132
4863.465000	-18031.770000	20017.440000	63174.285000	28883.655000	8004.960000	-19647.720000	481.095000	2.515555	-82.735481	-31.122362	32.211058	22.344235	11.044202	8.417984	15.368466	50.922620	3.555580	-17.487960	-0.943601	0.188415	0.205932	-1.000000	-1.000000	-1.000000	-1.000000	-1.000000	-1.000000	-1.000000	62.000000	0.000000	-1.000000	-1.000000	1133690.000000	1776578667.753141
4851.270000	-17959.815000	20106.000000	63187.695000	28929.060000	8032.455000	-19638.900000	472.905000	51.684888	-59.312175	-16.883211	15.208924	4.809046	-2.981751	14.274918	63.952670	56.416220	-2.304260	-24.324440	-0.947324	0.201599	0.203613	-1.000000	-1.000000	-1.000000	-1.000000	-1.000000	-1.000000	-1.000000	62.000000	0.000000	-1.000000	-1.000000	1133691.000000	1776578667.757221
4897.530000	-17849.475000	20148.255000	63223.335000	28984.500000	8070.255000	-19641.420000	481.365000	73.283154	-5.512893	11.597608	-1.899251	-10.405383	-15.106338	11.379075	74.420207	56.416220	-2.304260	-24.324440	-0.947324	0.201599	0.203613	-1.000000	-1.000000	-1.000000	-1.000000	-1.000000	-1.000000	-1.000000	62.000000	0.000000	-1.000000	-1.000000	1133692.000000	1776578667.757227
4921.155000	-17792.370000	20145.600000	63220.680000	28957.545000	8049.645000	-19651.320000	502.695000	72.719884	62.540116	45.834723	-9.250701	-12.581691	-17.467899	3.605866	55.763690	56.416220	-2.304260	-24.324440	-0.947324	0.201599	0.203613	-1.000000	-1.000000	-1.000000	-1.000000	-1.000000	-1.000000	-1.000000	62.000000	0.000000	-1.000000	-1.000000	1133693.000000	1776578667.761165
4927.455000	-17776.305000	20078.955000	63216.765000	28936.080000	8043.570000	-19640.655000	527.355000	58.596328	112.294490	63.111140	-7.020108	-5.575067	-11.573728	-4.136260	27.014724	56.416220	-2.304260	-24.324440	-0.947324	0.201599	0.203613	-1.000000	-1.000000	-1.000000	-1.000000	-1.000000	-1.000000	-1.000000	62.000000	0.000000	-1.000000	-1.000000	1133694.000000	1776578667.761170
4828.095000	-17825.715000	20000.520000	63206.235000	28928.880000	8029.080000	-19648.395000	487.935000	34.161713	114.560680	46.672620	-2.833448	-1.299428	-5.402437	-8.289864	2.471644	56.416220	-2.304260	-24.324440	-0.947324	0.201599	0.203613	-1.000000	-1.000000	-1.000000	-1.000000	-1.000000	-1.000000	-1.000000	62.000000	0.000000	-1.000000	-1.000000	1133695.000000	1776578667.765125
4742.640000	-17913.780000	20033.730000	63222.795000	28952.685000	8022.465000	-19659.375000	433.980000	-1.191239	63.419329	3.624094	-2.161353	-3.628423	-3.486538	-8.130679	-15.297592	56.416220	-2.304260	-24.324440	-0.947324	0.201599	0.203613	-1.000000	-1.000000	-1.000000	-1.000000	-1.000000	-1.000000	-1.000000	62.000000	0.000000	-1.000000	-1.000000	1133696.000000	1776578667.765137
4814.280000	-17951.940000	20076.615000	63232.920000	28934.460000	7987.680000	-19678.230000	434.430000	-38.846474	-18.233872	-36.644408	-3.953948	-7.248707	-5.024738	-5.920931	-28.599607	56.416220	-2.304260	-24.324440	-0.947324	0.201599	0.203613	-1.000000	-1.000000	-1.000000	-1.000000	-1.000000	-1.000000	-1.000000	62.000000	0.000000	-1.000000	-1.000000	1133697.000000	1776578667.776839
4917.060000	-18026.505000	20117.700000	63251.235000	28884.555000	7910.280000	-19695.960000	478.305000	-55.534209	-90.776725	-46.884351	-4.379206	-8.491591	-8.534380	-4.239503	-33.747110	56.416220	-2.304260	-24.324440	-0.947324	0.201599	0.203613	-1.000000	-1.000000	-1.000000	-1.000000	-1.000000	-1.000000	-1.000000	62.000000	0.000000	-1.000000	-1.000000	1133698.000000	1776578667.776864
4933.395000	-18016.335000	20125.035000	63254.925000	28943.955000	8034.930000	-19632.645000	517.095000	-35.508638	-120.810535	-25.248539	-1.997718	-7.786651	-10.620553	-2.292732	-23.629787	56.416220	-2.304260	-24.324440	-0.947324	0.201599	0.203613	-1.000000	-1.000000	-1.000000	-1.000000	-1.000000	-1.000000	-1.000000	62.000000	0.000000	-1.000000	-1.000000	1133699.000000	1776578667.776888
4917.330000	-17992.215000	20082.105000	63270.360000	28997.100000	8096.220000	-19615.545000	530.820000	6.192151	-97.254086	6.481474	1.371482	-2.422573	-1.842963	3.878102	-0.001252	56.416220	-2.304260	-24.324440	-0.947324	0.201599	0.203613	-1.000000	-1.000000	-1.000000	-1.000000	-1.000000	-1.000000	-1.000000	62.000000	0.000000	-1.000000	-1.000000	1133700.000000	1776578667.776893
4910.625000	-17881.290000	20107.800000	63242.370000	28973.835000	8062.110000	-19638.720000	519.840000	36.767892	-32.201082	24.291946	2.678896	9.490921	19.803961	13.409312	23.401775	53.898320	-7.141680	-28.154700	-0.945066	0.232971	0.210571	-1.000000	-1.000000	-1.000000	-1.000000	-1.000000	-1.000000	-1.000000	62.000000	0.000000	-1.000000	-1.000000	1133701.000000	1776578667.777302
4912.245000	-17820.135000	20045.160000	63196.155000	28969.650000	8056.845000	-19630.890000	529.335000	37.221996	46.491557	20.244777	-1.001270	19.890252	37.336618	17.991875	31.985551	53.898320	-7.141680	-28.154700	-0.945066	0.232971	0.210571	-1.000000	-1.000000	-1.000000	-1.000000	-1.000000	-1.000000	-1.000000	62.000000	0.000000	-1.000000	-1.000000	1133702.000000	1776578667.777311
4863.555000	-17838.945000	20078.280000	63174.645000	28932.435000	8023.545000	-19647.045000	498.105000	12.884431	104.153632	2.507464	-9.904494	18.117603	32.959852	12.063601	21.906670	53.898320	-7.141680	-28.154700	-0.945066	0.232971	0.210571	-1.000000	-1.000000	-1.000000	-1.000000	-1.000000	-1.000000	-1.000000	62.000000	0.000000	-1.000000	-1.000000	1133703.000000	1776578667.781178
4803.480000	-17890.650000	20104.920000	63186.165000	28914.615000	7994.880000	-19658.700000	472.635000	-19.560035	112.287521	-13.606738	-18.135250	3.121247	7.214879	-1.325452	0.101258	53.898320	-7.141680	-28.154700	-0.945066	0.232971	0.210571	-1.000000	-1.000000	-1.000000	-1.000000	-1.000000	-1.000000	-1.000000	62.000000	0.000000	-1.000000	-1.000000	1133704.000000	1776578667.781186
4793.175000	-17925.615000	20103.570000	63223.785000	28968.795000	8041.275000	-19647.720000	454.635000	-44.209997	66.610018	-16.342359	-16.466910	-14.729886	-23.238740	-14.412301	-22.014972	53.898320	-7.141680	-28.154700	-0.945066	0.232971	0.210571	-1.000000	-1.000000	-1.000000	-1.000000	-1.000000	-1.000000	-1.000000	62.000000	0.000000	-1.000000	-1.000000	1133705.000000	1776578667.785306
4789.890000	-17995.140000	20115.225000	63260.190000	28990.395000	8049.960000	-19646.505000	411.885000	-49.266989	-7.673971	-6.649646	-1.075750	-21.182160	-38.524701	-19.845472	-34.376494	53.898320	-7.141680	-28.154700	-0.945066	0.232971	0.210571	-1.000000	-1.000000	-1.000000	-1.000000	-1.000000	-1.000000	-1.000000	62.000000	0.000000	-1.000000	-1.000000	1133706.000000	1776578667.785314
4800.150000	-17990.370000	20151.315000	63277.245000	28988.145000	8040.735000	-19649.655000	390.960000	-31.214834	-72.323875	6.258179	21.145947	-11.648999	-31.191626	-15.401096	-33.031822	53.898320	-7.141680	-28.154700	-0.945066	0.232971	0.210571	-1.000000	-1.000000	-1.000000	-1.000000	-1.000000	-1.000000	-1.000000	62.000000	0.000000	-1.000000	-1.000000	1133707.000000	1776578667.789277
4857.030000	-17856.225000	20151.045000	63274.995000	28973.610000	8023.770000	-19660.140000	432.495000	2.518705	-95.213118	14.915722	36.445076	3.924619	-11.142667	-5.349088	-19.183776	53.898320	-7.141680	-28.154700	-0.945066	0.232971	0.210571	-1.000000	-1.000000	-1.000000	-1.000000	-1.000000	-1.000000	-1.000000	62.000000	0.000000	-1.000000	-1.000000	1133708.000000	1776578667.789284
4951.620000	-17801.055000	20058.345000	63264.420000	28976.400000	8028.000000	-19645.245000	531.765000	39.158139	-64.581543	13.914574	34.210944	12.538843	6.580946	4.133308	5.437997	53.898320	-7.141680	-28.154700	-0.945066	0.232971	0.210571	-1.000000	-1.000000	-1.000000	-1.000000	-1.000000	-1.000000	-1.000000	62.000000	0.000000	-1.000000	-1.000000	1133709.000000	1776578667.793297
4980.285000	-17901.765000	20066.760000	63237.105000	28944.855000	8008.110000	-19639.665000	561.420000	65.837001	-2.718181	0.448496	14.369808	9.632559	14.280575	9.978829	35.957979	53.898320	-7.141680	-28.154700	-0.945066	0.232971	0.210571	-1.000000	-1.000000	-1.000000	-1.000000	-1.000000	-1.000000	-1.000000	62.000000	0.000000	-1.000000	-1.000000	1133710.000000	1776578667.793305
4986.630000	-17829.315000	20139.255000	63227.475000	28909.755000	7985.475000	-19638.540000	551.385000	70.199154	46.528872	-16.567953	-13.124716	-1.332070	12.288179	12.013703	58.069094	40.561080	-1.922760	-37.005500	-0.930357	0.267211	0.226135	-1.000000	-1.000000	-1.000000	-1.000000	-1.000000	-1.000000	-1.000000	62.000000	0.000000	-1.000000	-1.000000	1133711.000000	1776578667.797307
4871.025000	-17876.115000	20126.430000	63253.440000	28873.080000	7888.950000	-19665.405000	462.915000	44.072180	57.192270	-20.794656	-33.865459	-13.972985	3.290042	9.980092	53.692819	40.561080	-1.922760	-37.005500	-0.930357	0.267211	0.226135	-1.000000	-1.000000	-1.000000	-1.000000	-1.000000	-1.000000	-1.000000	62.000000	0.000000	-1.000000	-1.000000	1133712.000000	1776578667.797315
4738.680000	-17986.545000	20095.245000	63300.105000	29027.430000	8004.510000	-19658.970000	403.920000	-9.857568	33.027014	-9.314010	-36.196221	-18.577108	-7.233248	3.802713	17.310185	40.561080	-1.922760	-37.005500	-0.930357	0.267211	0.226135	-1.000000	-1.000000	-1.000000	-1.000000	-1.000000	-1.000000	-1.000000	62.000000	0.000000	-1.000000	-1.000000	1133713.000000	1776578667.802733
4795.560000	-17983.890000	20080.485000	63300.015000	29030.535000	8106.930000	-19640.070000	423.405000	-70.338291	-8.424222	4.602561	-19.174338	-5.247177	-6.313492	-3.338947	-33.478119	40.561080	-1.922760	-37.005500	-0.930357	0.267211	0.226135	-1.000000	-1.000000	-1.000000	-1.000000	-1.000000	-1.000000	-1.000000	62.000000	0.000000	-1.000000	-1.000000	1133714.000000	1776578667.802747
4870.350000	-18082.980000	20167.470000	63284.220000	28982.655000	8041.320000	-19642.410000	491.760000	-100.037852	-44.398558	11.415147	4.772682	19.671124	12.178574	-6.466173	-66.098167	40.561080	-1.922760	-37.005500	-0.930357	0.267211	0.226135	-1.000000	-1.000000	-1.000000	-1.000000	-1.000000	-1.000000	-1.000000	62.000000	0.000000	-1.000000	-1.000000	1133715.000000	1776578667.805196
4835.475000	-18129.240000	20163.780000	63260.325000	28979.325000	8029.620000	-19633.140000	500.670000	-75.799462	-57.646397	14.139926	19.123596	33.473253	30.943050	-4.330195	-58.797417	40.561080	-1.922760	-37.005500	-0.930357	0.267211	0.226135	-1.000000	-1.000000	-1.000000	-1.000000	-1.000000	-1.000000	-1.000000	62.000000	0.000000	-1.000000	-1.000000	1133716.000000	1776578667.805202
4885.560000	-17941.365000	20013.210000	63166.995000	28927.260000	7994.250000	-19658.115000	509.850000	-14.243950	-41.412020	13.206936	15.255445	22.781030	28.245914	-0.445020	-19.797697	40.561080	-1.922760	-37.005500	-0.930357	0.267211	0.226135	-1.000000	-1.000000	-1.000000	-1.000000	-1.000000	-1.000000	-1.000000	62.000000	0.000000	-1.000000	-1.000000	1133717.000000	1776578667.809344
4963.905000	-17767.125000	20053.530000	63146.205000	28915.785000	7982.730000	-19663.245000	553.860000	47.678992	6.640317	1.486194	-3.461929	-4.605504	3.609054	0.798736	23.228972	40.561080	-1.922760	-37.005500	-0.930357	0.267211	0.226135	-1.000000	-1.000000	-1.000000	-1.000000	-1.000000	-1.000000	-1.000000	62.000000	0.000000	-1.000000	-1.000000	1133718.000000	1776578667.809371
4991.625000	-17820.765000	20021.985000	63219.465000	28965.645000	8023.860000	-19617.345000	608.310000	83.774758	70.824294	-17.087662	-21.458557	-29.118748	-24.549924	-0.725605	48.628455	40.561080	-1.922760	-37.005500	-0.930357	0.267211	0.226135	-1.000000	-1.000000	-1.000000	-1.000000	-1.000000	-1.000000	-1.000000	62.000000	0.000000	-1.000000	-1.000000	1133719.000000	1776578667.814646
4930.380000	-17868.960000	19985.535000	63245.880000	28975.185000	8027.730000	-19605.510000	600.660000	83.042605	108.249172	-27.593120	-20.011663	-33.530944	-36.477097	-0.352387	50.388526	40.561080	-1.922760	-37.005500	-0.930357	0.267211	0.226135	-1.000000	-1.000000	-1.000000	-1.000000	-1.000000	-1.000000	-1.000000	62.000000	0.000000	-1.000000	-1.000000	1133720.000000	1776578667.814661
4922.235000	-17856.675000	19993.320000	63243.540000	28968.570000	8014.365000	-19621.755000	565.560000	46.529509	85.667036	-22.900150	3.090668	-16.649425	-27.110627	3.549913	31.082909	22.767920	6.973820	-38.958780	-0.916624	0.277587	0.238281	-1.000000	-1.000000	-1.000000	-1.000000	-1.000000	-1.000000	-1.000000	62.000000	0.000000	-1.000000	-1.000000	1133721.000000	1776578667.817258
4910.805000	-17810.415000	20159.280000	63244.980000	28962.720000	7994.025000	-19650.735000	536.130000	-8.518380	17.035785	-3.313209	29.646380	6.703071	-7.764934	5.573184	-2.160896	22.767920	6.973820	-38.958780	-0.916624	0.277587	0.238281	-1.000000	-1.000000	-1.000000	-1.000000	-1.000000	-1.000000	-1.000000	62.000000	0.000000	-1.000000	-1.000000	1133722.000000	1776578667.817272
