Channel1	Channel2	Channel3	Channel4	Channel5	Channel6	Channel7	Channel8	FilteredChannel1	FilteredChannel2	FilteredChannel3	FilteredChannel4	FilteredChannel5	FilteredChannel6	FilteredChannel7	FilteredChannel8	GyroX	GyroY	GyroZ	AccX	AccY	AccZ	PPG1	PPG2	rawPPG1	rawPPG2	rawPPG3	Hr	Hrv	Battery	Trigger	PhysicalTrigger	AutoTrigger	NumMeasurements	Timestamp
18054.900000	-4963.590000	26640.405000	63072.855000	35754.075000	18950.850000	-19285.110000	10361.655000	5.060737	-0.251460	0.176971	1.626700	19.720782	15.718810	2.270371	6.434903	-3.158820	3.677660	0.763000	-0.707518	0.272155	0.637205	-1.000000	-1.000000	-1.000000	-1.000000	-1.000000	-1.000000	-1.000000	61.000000	0.000000	-1.000000	-1.000000	1309498.000000	1776579019.815746
18057.060000	-4962.825000	26637.390000	63065.880000	35732.745000	18940.230000	-19287.090000	10365.255000	10.544724	1.862649	0.638853	0.950374	14.227057	12.300774	-0.388936	8.405117	-3.158820	3.677660	0.763000	-0.707518	0.272155	0.637205	-1.000000	-1.000000	-1.000000	-1.000000	-1.000000	-1.000000	-1.000000	61.000000	0.000000	-1.000000	-1.000000	1309499.000000	1776579019.819488
18049.635000	-4964.490000	26633.970000	63055.620000	35723.205000	18944.685000	-19279.935000	10368.270000	10.717122	3.040729	0.195053	-0.951939	2.131205	-1.038851	-1.709837	6.120018	-3.158820	3.677660	0.763000	-0.707518	0.272155	0.637205	-1.000000	-1.000000	-1.000000	-1.000000	-1.000000	-1.000000	-1.000000	61.000000	0.000000	-1.000000	-1.000000	1309500.000000	1776579019.819496
18042.795000	-4973.670000	26626.410000	63053.505000	35730.990000	18962.055000	-19274.805000	10364.715000	4.617909	1.963166	-1.144078	-3.539361	-10.747295	-13.965699	-0.860689	1.612757	-3.158820	3.677660	0.763000	-0.707518	0.272155	0.637205	-1.000000	-1.000000	-1.000000	-1.000000	-1.000000	-1.000000	-1.000000	61.000000	0.000000	-1.000000	-1.000000	1309501.000000	1776579019.822206
18048.240000	-4965.570000	26634.960000	63059.625000	35732.385000	18976.905000	-19276.290000	10365.885000	-4.545083	-1.048042	-2.513701	-5.036980	-16.738980	-16.939506	1.388309	-2.725808	-3.158820	3.677660	0.763000	-0.707518	0.272155	0.637205	-1.000000	-1.000000	-1.000000	-1.000000	-1.000000	-1.000000	-1.000000	61.000000	0.000000	-1.000000	-1.000000	1309502.000000	1776579019.822224
18050.580000	-4968.180000	26632.845000	63054.720000	35723.745000	18952.245000	-19278.225000	10370.655000	-11.394678	-3.888751	-2.565904	-3.803311	-13.174364	-9.564077	3.049449	-5.266250	-3.082520	4.608520	0.381500	-0.707762	0.268798	0.634215	-1.000000	-1.000000	-1.000000	-1.000000	-1.000000	-1.000000	-1.000000	61.000000	0.000000	-1.000000	-1.000000	1309503.000000	1776579019.827471
18046.035000	-4975.245000	26635.545000	63062.730000	35753.805000	18954.360000	-19277.415000	10366.065000	-12.445839	-4.777655	-0.868990	-0.195089	-3.508711	0.434162	2.626756	-5.354626	-3.082520	4.608520	0.381500	-0.707762	0.268798	0.634215	-1.000000	-1.000000	-1.000000	-1.000000	-1.000000	-1.000000	-1.000000	61.000000	0.000000	-1.000000	-1.000000	1309504.000000	1776579019.827491
18052.110000	-4962.690000	26653.095000	63082.980000	35760.555000	18953.595000	-19281.240000	10366.830000	-8.291285	-3.638804	1.803003	4.214849	7.257041	6.023981	0.387926	-3.677269	-3.082520	4.608520	0.381500	-0.707762	0.268798	0.634215	-1.000000	-1.000000	-1.000000	-1.000000	-1.000000	-1.000000	-1.000000	61.000000	0.000000	-1.000000	-1.000000	1309505.000000	1776579019.830298
18050.805000	-4956.165000	26651.835000	63070.920000	35717.085000	18914.220000	-19285.920000	10369.845000	-1.881811	-0.890016	4.453196	7.773061	13.911153	5.648187	-2.332171	-1.478027	-3.082520	4.608520	0.381500	-0.707762	0.268798	0.634215	-1.000000	-1.000000	-1.000000	-1.000000	-1.000000	-1.000000	-1.000000	61.000000	0.000000	-1.000000	-1.000000	1309506.000000	1776579019.830312
18047.610000	-4957.830000	26637.435000	63058.725000	35702.955000	18921.915000	-19279.530000	10369.800000	3.690937	2.629445	5.391676	8.012462	11.394729	1.046311	-4.119903	0.516624	-3.082520	4.608520	0.381500	-0.707762	0.268798	0.634215	-1.000000	-1.000000	-1.000000	-1.000000	-1.000000	-1.000000	-1.000000	61.000000	0.000000	-1.000000	-1.000000	1309507.000000	1776579019.834074
18040.455000	-4967.775000	26617.995000	63052.245000	35741.610000	18947.835000	-19279.350000	10364.445000	6.217653	4.770788	2.511983	3.326784	1.312696	-3.172543	-3.879568	1.818311	-3.082520	4.608520	0.381500	-0.707762	0.268798	0.634215	-1.000000	-1.000000	-1.000000	-1.000000	-1.000000	-1.000000	-1.000000	61.000000	0.000000	-1.000000	-1.000000	1309508.000000	1776579019.834085
18038.925000	-4962.735000	26626.275000	63060.120000	35770.185000	18963.270000	-19277.460000	10366.830000	5.271935	3.798800	-3.598006	-3.860454	-6.436158	-1.561219	-1.644262	1.992745	-3.082520	4.608520	0.381500	-0.707762	0.268798	0.634215	-1.000000	-1.000000	-1.000000	-1.000000	-1.000000	-1.000000	-1.000000	61.000000	0.000000	-1.000000	-1.000000	1309509.000000	1776579019.837999
18035.055000	-4962.150000	26640.360000	63067.635000	35760.510000	18948.150000	-19280.340000	10362.960000	2.363018	0.661618	-8.301835	-8.425807	-4.981073	5.456910	1.142672	1.244419	-3.082520	4.608520	0.381500	-0.707762	0.268798	0.634215	-1.000000	-1.000000	-1.000000	-1.000000	-1.000000	-1.000000	-1.000000	61.000000	0.000000	-1.000000	-1.000000	1309510.000000	1776579019.838009
18033.885000	-4968.765000	26647.155000	63074.610000	35749.530000	18948.060000	-19275.615000	10362.780000	-0.339783	-2.224901	-7.100632	-7.275134	1.376980	11.021136	2.880131	0.266298	-3.082520	4.608520	0.381500	-0.707762	0.268798	0.634215	-1.000000	-1.000000	-1.000000	-1.000000	-1.000000	-1.000000	-1.000000	61.000000	0.000000	-1.000000	-1.000000	1309511.000000	1776579019.841973
18040.095000	-4965.120000	26643.510000	63069.570000	35740.035000	18959.760000	-19278.810000	10357.920000	-1.334791	-3.502717	-0.733147	-1.942896	4.020402	10.000306	3.012267	-0.447762	-3.082520	4.608520	0.381500	-0.707762	0.268798	0.634215	-1.000000	-1.000000	-1.000000	-1.000000	-1.000000	-1.000000	-1.000000	61.000000	0.000000	-1.000000	-1.000000	1309512.000000	1776579019.841980
18050.130000	-4954.950000	26649.720000	63072.180000	35716.770000	18951.795000	-19277.595000	10363.230000	-0.121995	-2.829591	5.767232	3.250569	-0.257630	3.735106	1.898682	-0.653858	-2.746800	4.059160	0.534100	-0.711363	0.270629	0.631285	-1.000000	-1.000000	-1.000000	-1.000000	-1.000000	-1.000000	-1.000000	61.000000	0.000000	-1.000000	-1.000000	1309513.000000	1776579019.846089
18055.440000	-4952.070000	26651.655000	63071.505000	35709.300000	18906.930000	-19275.120000	10365.930000	2.623730	-0.323104	8.314503	5.158845	-8.122818	-4.398217	0.315762	-0.091757	-2.746800	4.059160	0.534100	-0.711363	0.270629	0.631285	-1.000000	-1.000000	-1.000000	-1.000000	-1.000000	-1.000000	-1.000000	61.000000	0.000000	-1.000000	-1.000000	1309514.000000	1776579019.846099
18064.800000	-4948.335000	26655.120000	63076.770000	35741.880000	18885.600000	-19277.730000	10370.835000	5.131206	2.765603	6.439968	3.761275	-12.909319	-12.826533	-0.916924	1.229062	-2.746800	4.059160	0.534100	-0.711363	0.270629	0.631285	-1.000000	-1.000000	-1.000000	-1.000000	-1.000000	-1.000000	-1.000000	61.000000	0.000000	-1.000000	-1.000000	1309515.000000	1776579019.850006
18063.045000	-4949.550000	26652.555000	63073.935000	35753.445000	18947.025000	-19281.420000	10372.410000	5.557631	4.445096	2.028940	0.952251	-8.976955	-17.766023	-1.558747	2.619935	-2.746800	4.059160	0.534100	-0.711363	0.270629	0.631285	-1.000000	-1.000000	-1.000000	-1.000000	-1.000000	-1.000000	-1.000000	61.000000	0.000000	-1.000000	-1.000000	1309516.000000	1776579019.850014
18057.735000	-4954.365000	26647.605000	63069.885000	35773.335000	18994.995000	-19286.190000	10372.860000	2.975180	3.476681	-2.730785	-1.617270	2.854077	-11.824639	-1.938502	3.058971	-2.746800	4.059160	0.534100	-0.711363	0.270629	0.631285	-1.000000	-1.000000	-1.000000	-1.000000	-1.000000	-1.000000	-1.000000	61.000000	0.000000	-1.000000	-1.000000	1309517.000000	1776579019.854125
18051.435000	-4959.135000	26645.805000	63070.830000	35750.340000	18991.575000	-19285.830000	10372.905000	-2.094369	0.167672	-6.255327	-3.263282	14.675791	5.739171	-2.168279	1.981104	-2.746800	4.059160	0.534100	-0.711363	0.270629	0.631285	-1.000000	-1.000000	-1.000000	-1.000000	-1.000000	-1.000000	-1.000000	61.000000	0.000000	-1.000000	-1.000000	1309518.000000	1776579019.854146
18048.555000	-4961.115000	26642.430000	63063.135000	35722.215000	18958.455000	-19284.165000	10370.520000	-7.499322	-3.759353	-7.543102	-3.764869	17.302671	22.336798	-1.800810	-0.279418	-2.746800	4.059160	0.534100	-0.711363	0.270629	0.631285	-1.000000	-1.000000	-1.000000	-1.000000	-1.000000	-1.000000	-1.000000	61.000000	0.000000	-1.000000	-1.000000	1309519.000000	1776579019.858075
18043.695000	-4962.465000	26644.905000	63067.275000	35734.545000	18952.020000	-19281.015000	10365.345000	-10.498078	-6.110184	-6.231682	-3.134312	8.239691	23.543910	-0.406638	-2.804798	-2.746800	4.059160	0.534100	-0.711363	0.270629	0.631285	-1.000000	-1.000000	-1.000000	-1.000000	-1.000000	-1.000000	-1.000000	61.000000	0.000000	-1.000000	-1.000000	1309520.000000	1776579019.858084
18030.465000	-4968.540000	26643.420000	63066.960000	35721.405000	18982.890000	-19270.800000	10362.285000	-9.763949	-5.710407	-2.832292	-1.487467	-5.445658	8.988080	1.841900	-4.660653	-2.746800	4.059160	0.534100	-0.711363	0.270629	0.631285	-1.000000	-1.000000	-1.000000	-1.000000	-1.000000	-1.000000	-1.000000	61.000000	0.000000	-1.000000	-1.000000	1309521.000000	1776579019.862194
18041.895000	-4960.845000	26648.685000	63071.280000	35702.505000	18991.980000	-19272.645000	10365.120000	-5.881331	-2.951773	1.371997	0.892280	-14.669911	-8.277745	4.088893	-5.026222	-2.746800	4.059160	0.534100	-0.711363	0.270629	0.631285	-1.000000	-1.000000	-1.000000	-1.000000	-1.000000	-1.000000	-1.000000	61.000000	0.000000	-1.000000	-1.000000	1309522.000000	1776579019.862228
18046.530000	-4960.530000	26644.680000	63071.640000	35713.845000	18987.210000	-19270.170000	10365.705000	0.068871	1.018601	4.807920	3.233432	-15.742387	-16.707240	4.969485	-3.406056	-2.639980	0.549360	-0.824040	-0.715452	0.271972	0.633177	-1.000000	-1.000000	-1.000000	-1.000000	-1.000000	-1.000000	-1.000000	61.000000	0.000000	-1.000000	-1.000000	1309523.000000	1776579019.866105
18052.245000	-4961.160000	26639.325000	63067.455000	35766.180000	18953.820000	-19273.590000	10366.515000	6.634363	4.692774	6.073016	4.420007	-8.483178	-15.884989	3.537748	-0.279061	-2.639980	0.549360	-0.824040	-0.715452	0.271972	0.633177	-1.000000	-1.000000	-1.000000	-1.000000	-1.000000	-1.000000	-1.000000	61.000000	0.000000	-1.000000	-1.000000	1309524.000000	1776579019.866118
18054.045000	-4959.720000	26638.335000	63068.085000	35783.595000	18904.455000	-19286.010000	10366.965000	11.344239	6.457680	4.646585	3.687210	5.503373	-12.795211	0.024494	2.898706	-2.639980	0.549360	-0.824040	-0.715452	0.271972	0.633177	-1.000000	-1.000000	-1.000000	-1.000000	-1.000000	-1.000000	-1.000000	61.000000	0.000000	-1.000000	-1.000000	1309525.000000	1776579019.870299
18052.200000	-4959.945000	26638.245000	63065.520000	35775.000000	18935.190000	-19290.645000	10363.410000	11.911428	5.665706	1.605523	1.402662	19.474933	-11.647973	-4.367580	4.620140	-2.639980	0.549360	-0.824040	-0.715452	0.271972	0.633177	-1.000000	-1.000000	-1.000000	-1.000000	-1.000000	-1.000000	-1.000000	61.000000	0.000000	-1.000000	-1.000000	1309526.000000	1776579019.870315
18049.365000	-4963.860000	26638.920000	63069.660000	35780.985000	18970.110000	-19285.920000	10359.180000	7.892055	2.939183	-1.088304	-1.072029	23.760282	-8.079683	-7.494026	4.136292	-2.639980	0.549360	-0.824040	-0.715452	0.271972	0.633177	-1.000000	-1.000000	-1.000000	-1.000000	-1.000000	-1.000000	-1.000000	61.000000	0.000000	-1.000000	-1.000000	1309527.000000	1776579019.874123
18045.900000	-4983.660000	26639.550000	63073.665000	35762.085000	18955.485000	-19287.225000	10361.070000	1.061938	-0.843332	-2.144060	-2.320900	14.566316	2.906939	-7.165842	1.907756	-2.639980	0.549360	-0.824040	-0.715452	0.271972	0.633177	-1.000000	-1.000000	-1.000000	-1.000000	-1.000000	-1.000000	-1.000000	61.000000	0.000000	-1.000000	-1.000000	1309528.000000	1776579019.874137
18039.645000	-4993.245000	26646.885000	63079.425000	35734.095000	18933.795000	-19286.685000	10366.245000	-5.620832	-5.013844	-1.465313	-1.748459	-3.427561	16.171330	-3.272060	-0.450921	-2.639980	0.549360	-0.824040	-0.715452	0.271972	0.633177	-1.000000	-1.000000	-1.000000	-1.000000	-1.000000	-1.000000	-1.000000	61.000000	0.000000	-1.000000	-1.000000	1309529.000000	1776579019.878157
18038.880000	-4982.895000	26649.495000	63075.735000	35715.645000	18920.970000	-19292.940000	10363.005000	-9.596124	-7.893199	0.282645	-0.084437	-21.590541	21.319341	1.819128	-1.453929	-2.639980	0.549360	-0.824040	-0.715452	0.271972	0.633177	-1.000000	-1.000000	-1.000000	-1.000000	-1.000000	-1.000000	-1.000000	61.000000	0.000000	-1.000000	-1.000000	1309530.000000	1776579019.878172
18052.335000	-4956.255000	26642.970000	63061.605000	35734.320000	18918.135000	-19292.850000	10364.535000	-9.377523	-6.439622	1.825004	0.825639	-30.988444	15.004869	5.267510	-1.096558	-2.639980	0.549360	-0.824040	-0.715452	0.271972	0.633177	-1.000000	-1.000000	-1.000000	-1.000000	-1.000000	-1.000000	-1.000000	61.000000	0.000000	-1.000000	-1.000000	1309531.000000	1776579019.884906
18063.810000	-4929.930000	26632.620000	63056.070000	35750.745000	18909.855000	-19282.680000	10370.430000	-4.768908	0.877222	1.572610	-0.492236	-25.681436	2.997159	6.052477	-0.241423	-2.639980	0.549360	-0.824040	-0.715452	0.271972	0.633177	-1.000000	-1.000000	-1.000000	-1.000000	-1.000000	-1.000000	-1.000000	61.000000	0.000000	-1.000000	-1.000000	1309532.000000	1776579019.884921
18062.370000	-4932.540000	26639.415000	63070.560000	35779.410000	18940.860000	-19271.745000	10375.245000	2.182085	10.715701	-0.757884	-2.959004	-7.064985	-6.235452	5.382542	0.657428	-2.380560	0.335720	-0.045780	-0.712217	0.269225	0.636290	-1.000000	-1.000000	-1.000000	-1.000000	-1.000000	-1.000000	-1.000000	61.000000	0.000000	-1.000000	-1.000000	1309533.000000	1776579019.888786
18057.195000	-4943.205000	26639.190000	63065.070000	35767.260000	18977.445000	-19269.450000	10377.225000	7.334451	15.804293	-3.189111	-3.614669	15.264169	-6.836960	4.624148	1.393258	-2.380560	0.335720	-0.045780	-0.712217	0.269225	0.636290	-1.000000	-1.000000	-1.000000	-1.000000	-1.000000	-1.000000	-1.000000	61.000000	0.000000	-1.000000	-1.000000	1309534.000000	1776579019.888793
18046.710000	-4951.080000	26635.050000	63059.580000	35729.415000	18995.085000	-19271.700000	10365.795000	7.316703	11.069782	-3.645886	-1.530799	28.193477	1.076277	3.464964	1.275609	-2.380560	0.335720	-0.045780	-0.712217	0.269225	0.636290	-1.000000	-1.000000	-1.000000	-1.000000	-1.000000	-1.000000	-1.000000	61.000000	0.000000	-1.000000	-1.000000	1309535.000000	1776579019.892974
18039.645000	-4959.585000	26627.895000	63052.785000	35731.395000	18979.785000	-19274.085000	10359.045000	2.265948	-1.356782	-2.290389	1.140169	24.108217	10.156489	0.821004	-0.524183	-2.380560	0.335720	-0.045780	-0.712217	0.269225	0.636290	-1.000000	-1.000000	-1.000000	-1.000000	-1.000000	-1.000000	-1.000000	61.000000	0.000000	-1.000000	-1.000000	1309536.000000	1776579019.892980
18044.550000	-4954.950000	26634.285000	63058.410000	35755.605000	18957.645000	-19277.820000	10360.620000	-4.210532	-13.882442	-0.494747	2.407923	8.273903	10.848001	-3.192253	-3.458113	-2.380560	0.335720	-0.045780	-0.712217	0.269225	0.636290	-1.000000	-1.000000	-1.000000	-1.000000	-1.000000	-1.000000	-1.000000	61.000000	0.000000	-1.000000	-1.000000	1309537.000000	1776579019.894201
18049.860000	-4954.680000	26636.175000	63058.950000	35747.235000	18933.795000	-19276.470000	10365.615000	-7.545207	-19.265199	1.191521	2.465248	-6.323966	-0.089279	-6.883283	-5.214699	-2.380560	0.335720	-0.045780	-0.712217	0.269225	0.636290	-1.000000	-1.000000	-1.000000	-1.000000	-1.000000	-1.000000	-1.000000	61.000000	0.000000	-1.000000	-1.000000	1309538.000000	1776579019.894217
18040.095000	-4961.250000	26632.530000	63055.395000	35728.515000	18924.345000	-19265.895000	10361.880000	-5.852400	-15.435076	2.693555	2.259474	-12.298667	-16.360343	-8.050823	-3.994198	-2.380560	0.335720	-0.045780	-0.712217	0.269225	0.636290	-1.000000	-1.000000	-1.000000	-1.000000	-1.000000	-1.000000	-1.000000	61.000000	0.000000	-1.000000	-1.000000	1309539.000000	1776579019.899661
18030.240000	-4976.280000	26620.695000	63044.820000	35703.900000	18915.570000	-19274.130000	10359.720000	-1.471640	-6.237117	3.159043	1.704902	-11.872330	-27.230654	-5.760445	-0.588346	-2.380560	0.335720	-0.045780	-0.712217	0.269225	0.636290	-1.000000	-1.000000	-1.000000	-1.000000	-1.000000	-1.000000	-1.000000	61.000000	0.000000	-1.000000	-1.000000	1309540.000000	1776579019.899677
18041.445000	-4960.980000	26635.905000	63060.435000	35738.055000	18948.780000	-19277.550000	10369.530000	2.166013	2.783023	2.025670	0.545298	-9.048915	-25.034071	-1.669777	2.842063	-2.380560	0.335720	-0.045780	-0.712217	0.269225	0.636290	-1.000000	-1.000000	-1.000000	-1.000000	-1.000000	-1.000000	-1.000000	61.000000	0.000000	-1.000000	-1.000000	1309541.000000	1776579019.903542
18049.815000	-4951.800000	26641.395000	63064.305000	35746.245000	18993.600000	-19286.595000	10370.430000	4.280917	9.116181	0.672978	-0.133353	-3.707172	-8.812336	1.389636	5.037825	-2.380560	0.335720	-0.045780	-0.712217	0.269225	0.636290	-1.000000	-1.000000	-1.000000	-1.000000	-1.000000	-1.000000	-1.000000	61.000000	0.000000	-1.000000	-1.000000	1309542.000000	1776579019.903557
18051.120000	-4950.405000	26644.320000	63070.560000	35751.645000	18975.870000	-19288.485000	10370.385000	5.719466	12.729132	0.707499	0.678352	4.442414	14.224595	2.106159	5.576031	-2.151660	2.365300	1.266580	-0.705687	0.266784	0.638304	-1.000000	-1.000000	-1.000000	-1.000000	-1.000000	-1.000000	-1.000000	61.000000	0.000000	-1.000000	-1.000000	1309543.000000	1776579019.906156
18042.885000	-4960.080000	26636.220000	63061.965000	35774.055000	18962.280000	-19286.730000	10363.635000	6.033055	12.904565	1.429697	1.932588	11.955963	30.262578	1.414754	4.076785	-2.151660	2.365300	1.266580	-0.705687	0.266784	0.638304	-1.000000	-1.000000	-1.000000	-1.000000	-1.000000	-1.000000	-1.000000	61.000000	0.000000	-1.000000	-1.000000	1309544.000000	1776579019.906180
18037.080000	-4968.405000	26635.095000	63063.810000	35763.930000	18958.410000	-19289.205000	10357.515000	3.852132	8.564074	0.894454	1.638919	14.684141	28.998856	1.053490	0.661373	-2.151660	2.365300	1.266580	-0.705687	0.266784	0.638304	-1.000000	-1.000000	-1.000000	-1.000000	-1.000000	-1.000000	-1.000000	61.000000	0.000000	-1.000000	-1.000000	1309545.000000	1776579019.912976
18024.435000	-4974.795000	26631.540000	63066.555000	35763.255000	18959.355000	-19291.860000	10348.920000	-0.820316	0.777068	-1.391058	-0.556100	10.676404	12.943346	1.654671	-3.518152	-2.151660	2.365300	1.266580	-0.705687	0.266784	0.638304	-1.000000	-1.000000	-1.000000	-1.000000	-1.000000	-1.000000	-1.000000	61.000000	0.000000	-1.000000	-1.000000	1309546.000000	1776579019.913007
18023.310000	-4967.550000	26638.830000	63072.855000	35759.835000	18955.575000	-19290.600000	10346.895000	-5.929942	-6.722959	-3.823686	-2.889525	1.237182	-6.373314	2.542362	-6.604171	-2.151660	2.365300	1.266580	-0.705687	0.266784	0.638304	-1.000000	-1.000000	-1.000000	-1.000000	-1.000000	-1.000000	-1.000000	61.000000	0.000000	-1.000000	-1.000000	1309547.000000	1776579019.915623
18030.645000	-4945.770000	26648.910000	63068.355000	35721.450000	18952.560000	-19281.645000	10352.520000	-8.424491	-9.536453	-4.185051	-3.651398	-9.720791	-18.659292	3.126378	-6.825001	-2.151660	2.365300	1.266580	-0.705687	0.266784	0.638304	-1.000000	-1.000000	-1.000000	-1.000000	-1.000000	-1.000000	-1.000000	61.000000	0.000000	-1.000000	-1.000000	1309548.000000	1776579019.915637
18027.765000	-4950.405000	26636.895000	63051.570000	35708.760000	18953.910000	-19279.035000	10347.570000	-6.402997	-6.037705	-1.964374	-3.207184	-18.470278	-20.264351	3.452042	-3.685821	-2.151660	2.365300	1.266580	-0.705687	0.266784	0.638304	-1.000000	-1.000000	-1.000000	-1.000000	-1.000000	-1.000000	-1.000000	61.000000	0.000000	-1.000000	-1.000000	1309549.000000	1776579019.921001
18043.515000	-4947.615000	26647.380000	63064.935000	35732.205000	18998.370000	-19283.715000	10354.545000	-0.810017	0.529175	0.913083	-2.839075	-21.252334	-12.603856	3.244692	1.266048	-2.151660	2.365300	1.266580	-0.705687	0.266784	0.638304	-1.000000	-1.000000	-1.000000	-1.000000	-1.000000	-1.000000	-1.000000	61.000000	0.000000	-1.000000	-1.000000	1309550.000000	1776579019.921019
18074.610000	-4937.400000	26655.255000	63071.010000	35733.105000	18995.310000	-19282.185000	10378.305000	5.996255	5.180862	2.695235	-2.063911	-14.560640	0.480784	1.746224	6.002020	-2.151660	2.365300	1.266580	-0.705687	0.266784	0.638304	-1.000000	-1.000000	-1.000000	-1.000000	-1.000000	-1.000000	-1.000000	61.000000	0.000000	-1.000000	-1.000000	1309551.000000	1776579019.923621
18074.970000	-4941.405000	26649.135000	63065.205000	35731.080000	18910.755000	-19294.155000	10374.795000	11.716265	5.714434	3.205409	0.196317	-0.234628	10.835089	-1.142237	9.328048	-2.151660	2.365300	1.266580	-0.705687	0.266784	0.638304	-1.000000	-1.000000	-1.000000	-1.000000	-1.000000	-1.000000	-1.000000	61.000000	0.000000	-1.000000	-1.000000	1309552.000000	1776579019.923631
18064.710000	-4952.475000	26632.125000	63043.245000	35659.485000	18845.955000	-19292.265000	10376.550000	13.047449	2.580635	2.033964	2.465747	12.635785	8.082235	-4.433945	9.714971	-1.938020	2.533160	0.366240	-0.707945	0.266723	0.636595	-1.000000	-1.000000	-1.000000	-1.000000	-1.000000	-1.000000	-1.000000	61.000000	0.000000	-1.000000	-1.000000	1309553.000000	1776579019.930752
18050.580000	-4967.505000	26618.130000	63028.485000	35650.080000	18862.695000	-19286.820000	10375.470000	7.145362	-2.884933	-1.477147	1.942923	14.727358	-7.528175	-6.318428	5.902960	-1.938020	2.533160	0.366240	-0.707945	0.266723	0.636595	-1.000000	-1.000000	-1.000000	-1.000000	-1.000000	-1.000000	-1.000000	61.000000	0.000000	-1.000000	-1.000000	1309554.000000	1776579019.930772
18054.450000	-4958.685000	26633.610000	63049.770000	35757.720000	18941.670000	-19286.460000	10371.330000	-4.186181	-8.169072	-5.698181	-1.011917	8.526157	-19.299257	-5.252794	-0.948386	-1.938020	2.533160	0.366240	-0.707945	0.266723	0.636595	-1.000000	-1.000000	-1.000000	-1.000000	-1.000000	-1.000000	-1.000000	61.000000	0.000000	-1.000000	-1.000000	1309555.000000	1776579019.932208
18038.655000	-4970.790000	26628.660000	63051.885000	35782.470000	18963.450000	-19281.285000	10358.730000	-14.693078	-9.998182	-6.881389	-2.284062	7.411347	-10.605409	-1.616056	-7.955273	-1.938020	2.533160	0.366240	-0.707945	0.266723	0.636595	-1.000000	-1.000000	-1.000000	-1.000000	-1.000000	-1.000000	-1.000000	61.000000	0.000000	-1.000000	-1.000000	1309556.000000	1776579019.932220
18026.820000	-4970.520000	26626.545000	63051.030000	35781.390000	18972.225000	-19278.720000	10347.480000	-19.073350	-7.139198	-3.491051	0.509243	15.885625	14.896129	2.549764	-12.623082	-1.938020	2.533160	0.366240	-0.707945	0.266723	0.636595	-1.000000	-1.000000	-1.000000	-1.000000	-1.000000	-1.000000	-1.000000	61.000000	0.000000	-1.000000	-1.000000	1309557.000000	1776579019.934214
18027.000000	-4962.510000	26628.570000	63049.860000	35758.845000	18967.995000	-19280.655000	10347.030000	-16.185763	-1.186269	2.010007	4.863618	21.932115	36.645935	5.122252	-13.426007	-1.938020	2.533160	0.366240	-0.707945	0.266723	0.636595	-1.000000	-1.000000	-1.000000	-1.000000	-1.000000	-1.000000	-1.000000	61.000000	0.000000	-1.000000	-1.000000	1309558.000000	1776579019.934227
18029.115000	-4963.815000	26633.655000	63059.175000	35722.800000	18962.505000	-19283.490000	10344.510000	-7.686068	5.349422	6.385413	7.103362	13.110565	37.906241	4.898187	-9.726427	-1.938020	2.533160	0.366240	-0.707945	0.266723	0.636595	-1.000000	-1.000000	-1.000000	-1.000000	-1.000000	-1.000000	-1.000000	61.000000	0.000000	-1.000000	-1.000000	1309559.000000	1776579019.938199
18044.865000	-4968.090000	26635.185000	63064.260000	35727.255000	18938.610000	-19282.725000	10351.620000	3.541199	9.807976	8.081990	6.209422	-9.096635	17.934736	2.205905	-2.383997	-1.938020	2.533160	0.366240	-0.707945	0.266723	0.636595	-1.000000	-1.000000	-1.000000	-1.000000	-1.000000	-1.000000	-1.000000	61.000000	0.000000	-1.000000	-1.000000	1309560.000000	1776579019.938208
18052.470000	-4968.450000	26627.085000	63054.180000	35758.260000	18908.820000	-19279.305000	10362.285000	13.939553	10.170630	6.813313	3.102309	-30.142330	-11.672084	-1.142410	6.225809	-1.938020	2.533160	0.366240	-0.707945	0.266723	0.636595	-1.000000	-1.000000	-1.000000	-1.000000	-1.000000	-1.000000	-1.000000	61.000000	0.000000	-1.000000	-1.000000	1309561.000000	1776579019.946413
18043.155000	-4970.385000	26625.330000	63052.785000	35762.535000	18912.060000	-19279.260000	10361.385000	19.612918	6.632685	2.983626	-1.290177	-35.170273	-35.934386	-3.153731	13.041740	-1.938020	2.533160	0.366240	-0.707945	0.266723	0.636595	-1.000000	-1.000000	-1.000000	-1.000000	-1.000000	-1.000000	-1.000000	61.000000	0.000000	-1.000000	-1.000000	1309562.000000	1776579019.946432
18037.215000	-4966.695000	26632.935000	63064.215000	35758.710000	18919.980000	-19281.105000	10359.585000	17.563615	1.473176	-1.733071	-5.471824	-22.326171	-43.298132	-3.184726	15.150221	-1.800680	0.976640	0.793520	-0.712462	0.270568	0.634337	-1.000000	-1.000000	-1.000000	-1.000000	-1.000000	-1.000000	-1.000000	61.000000	0.000000	-1.000000	-1.000000	1309563.000000	1776579019.949488
18031.545000	-4967.325000	26629.965000	63052.830000	35733.195000	18931.230000	-19280.970000	10362.150000	8.349635	-2.692571	-4.828771	-7.336377	-2.789114	-30.891780	-2.013716	11.467508	-1.800680	0.976640	0.793520	-0.712462	0.270568	0.634337	-1.000000	-1.000000	-1.000000	-1.000000	-1.000000	-1.000000	-1.000000	61.000000	0.000000	-1.000000	-1.000000	1309564.000000	1776579019.949498
18038.565000	-4963.770000	26631.495000	63045.405000	35697.555000	18914.715000	-19281.240000	10365.300000	-3.189572	-4.468767	-5.134575	-6.580907	10.156613	-6.635379	-0.668289	4.038727	-1.800680	0.976640	0.793520	-0.712462	0.270568	0.634337	-1.000000	-1.000000	-1.000000	-1.000000	-1.000000	-1.000000	-1.000000	61.000000	0.000000	-1.000000	-1.000000	1309565.000000	1776579019.950361
18045.720000	-4957.920000	26637.075000	63058.590000	35743.680000	18975.105000	-19285.695000	10356.840000	-10.958218	-3.913844	-3.362586	-4.443211	12.032979	16.894156	0.251022	-3.550689	-1.800680	0.976640	0.793520	-0.712462	0.270568	0.634337	-1.000000	-1.000000	-1.000000	-1.000000	-1.000000	-1.000000	-1.000000	61.000000	0.000000	-1.000000	-1.000000	1309566.000000	1776579019.950370
18054.675000	-4953.870000	26635.230000	63058.500000	35752.770000	19007.595000	-19286.055000	10357.380000	-11.682420	-1.904909	-0.827853	-1.327740	9.388858	32.114423	0.518039	-8.746416	-1.800680	0.976640	0.793520	-0.712462	0.270568	0.634337	-1.000000	-1.000000	-1.000000	-1.000000	-1.000000	-1.000000	-1.000000	61.000000	0.000000	-1.000000	-1.000000	1309567.000000	1776579019.954362
18051.345000	-4960.395000	26631.495000	63059.895000	35755.470000	19008.450000	-19284.435000	10358.820000	-6.783412	0.127330	1.084251	2.388389	9.471388	36.713343	0.390616	-10.437897	-1.800680	0.976640	0.793520	-0.712462	0.270568	0.634337	-1.000000	-1.000000	-1.000000	-1.000000	-1.000000	-1.000000	-1.000000	61.000000	0.000000	-1.000000	-1.000000	1309568.000000	1776579019.954378
18038.430000	-4974.120000	26622.180000	63054.720000	35748.855000	18968.850000	-19281.015000	10353.780000	-0.966749	0.450371	1.240182	5.056108	11.326888	28.210809	0.507841	-8.617707	-1.800680	0.976640	0.793520	-0.712462	0.270568	0.634337	-1.000000	-1.000000	-1.000000	-1.000000	-1.000000	-1.000000	-1.000000	61.000000	0.000000	-1.000000	-1.000000	1309569.000000	1776579019.958258
18036.360000	-4977.495000	26617.950000	63048.285000	35745.300000	18921.375000	-19285.740000	10350.990000	1.567456	-1.603803	-0.403703	5.061517	9.980094	5.918336	1.080056	-4.653241	-1.800680	0.976640	0.793520	-0.712462	0.270568	0.634337	-1.000000	-1.000000	-1.000000	-1.000000	-1.000000	-1.000000	-1.000000	61.000000	0.000000	-1.000000	-1.000000	1309570.000000	1776579019.958271
18041.400000	-4965.255000	26632.755000	63058.995000	35745.840000	18925.695000	-19289.205000	10356.255000	0.542289	-4.131131	-2.187224	2.647149	3.786610	-22.551981	1.428263	-0.402001	-1.800680	0.976640	0.793520	-0.712462	0.270568	0.634337	-1.000000	-1.000000	-1.000000	-1.000000	-1.000000	-1.000000	-1.000000	61.000000	0.000000	-1.000000	-1.000000	1309571.000000	1776579019.965040
18053.505000	-4958.010000	26636.760000	63057.150000	35711.865000	18929.250000	-19290.780000	10367.865000	-0.883530	-3.907149	-1.731726	-0.036685	-4.874052	-41.931700	0.862391	3.286630	-1.800680	0.976640	0.793520	-0.712462	0.270568	0.634337	-1.000000	-1.000000	-1.000000	-1.000000	-1.000000	-1.000000	-1.000000	61.000000	0.000000	-1.000000	-1.000000	1309572.000000	1776579019.965062
18053.955000	-4956.345000	26639.145000	63060.525000	35716.680000	18924.255000	-19301.625000	10364.310000	-0.035892	-0.058209	1.316893	-1.195889	-12.588376	-40.723296	-0.494136	6.138785	-2.029580	1.037680	1.251320	-0.710569	0.267883	0.634459	-1.000000	-1.000000	-1.000000	-1.000000	-1.000000	-1.000000	-1.000000	61.000000	0.000000	-1.000000	-1.000000	1309573.000000	1776579019.969001
18048.105000	-4954.500000	26641.395000	63061.425000	35747.010000	18929.385000	-19297.800000	10355.895000	2.402945	4.731404	4.570950	-0.885451	-15.226682	-20.902323	-1.916626	7.001657	-2.029580	1.037680	1.251320	-0.710569	0.267883	0.634459	-1.000000	-1.000000	-1.000000	-1.000000	-1.000000	-1.000000	-1.000000	61.000000	0.000000	-1.000000	-1.000000	1309574.000000	1776579019.969016
18043.470000	-4955.895000	26641.755000	63066.600000	35796.690000	18984.465000	-19288.170000	10349.145000	3.617804	7.016321	5.487189	-0.036860	-8.661448	6.411006	-2.161118	4.595382	-2.029580	1.037680	1.251320	-0.710569	0.267883	0.634459	-1.000000	-1.000000	-1.000000	-1.000000	-1.000000	-1.000000	-1.000000	61.000000	0.000000	-1.000000	-1.000000	1309575.000000	1776579019.973319
18046.305000	-4957.065000	26639.505000	63061.605000	35778.015000	18972.855000	-19289.430000	10355.580000	2.199843	5.447387	3.417236	0.515621	5.416678	29.820481	-0.327397	-0.130014	-2.029580	1.037680	1.251320	-0.710569	0.267883	0.634459	-1.000000	-1.000000	-1.000000	-1.000000	-1.000000	-1.000000	-1.000000	61.000000	0.000000	-1.000000	-1.000000	1309576.000000	1776579019.973342
18045.270000	-4959.000000	26634.105000	63050.310000	35758.845000	18946.980000	-19288.035000	10358.010000	-0.524045	1.196841	-0.551156	-0.011243	16.759367	39.536033	2.548471	-4.006318	-2.029580	1.037680	1.251320	-0.710569	0.267883	0.634459	-1.000000	-1.000000	-1.000000	-1.000000	-1.000000	-1.000000	-1.000000	61.000000	0.000000	-1.000000	-1.000000	1309577.000000	1776579019.974228
18047.835000	-4955.445000	26639.055000	63058.095000	35737.515000	18946.710000	-19284.390000	10360.575000	-2.391927	-3.208413	-4.428535	-1.722148	15.310428	30.500754	4.322455	-4.611689	-2.029580	1.037680	1.251320	-0.710569	0.267883	0.634459	-1.000000	-1.000000	-1.000000	-1.000000	-1.000000	-1.000000	-1.000000	61.000000	0.000000	-1.000000	-1.000000	1309578.000000	1776579019.974242
18047.880000	-4953.645000	26641.125000	63058.500000	35724.735000	18954.810000	-19280.295000	10363.860000	-2.405082	-5.463375	-6.137741	-3.126929	1.608872	8.710797	4.003776	-2.267871	-2.029580	1.037680	1.251320	-0.710569	0.267883	0.634459	-1.000000	-1.000000	-1.000000	-1.000000	-1.000000	-1.000000	-1.000000	61.000000	0.000000	-1.000000	-1.000000	1309579.000000	1776579019.978294
18032.490000	-4967.685000	26630.550000	63049.680000	35700.255000	18896.760000	-19279.665000	10357.155000	-1.303357	-5.073596	-5.024107	-2.786913	-14.647835	-13.370144	2.106342	0.784606	-2.029580	1.037680	1.251320	-0.710569	0.267883	0.634459	-1.000000	-1.000000	-1.000000	-1.000000	-1.000000	-1.000000	-1.000000	61.000000	0.000000	-1.000000	-1.000000	1309580.000000	1776579019.978310
18016.605000	-4981.815000	26619.300000	63042.345000	35724.690000	18864.045000	-19276.695000	10344.555000	-0.969172	-3.733765	-2.710979	-1.357390	-22.998742	-28.027556	-0.358290	2.058370	-2.029580	1.037680	1.251320	-0.710569	0.267883	0.634459	-1.000000	-1.000000	-1.000000	-1.000000	-1.000000	-1.000000	-1.000000	61.000000	0.000000	-1.000000	-1.000000	1309581.000000	1776579019.985167
18023.085000	-4977.720000	26625.195000	63050.895000	35712.045000	18888.300000	-19275.705000	10339.110000	-2.090864	-2.976593	-1.017455	-0.081210	-18.338508	-32.373787	-2.472731	0.482954	-2.029580	1.037680	1.251320	-0.710569	0.267883	0.634459	-1.000000	-1.000000	-1.000000	-1.000000	-1.000000	-1.000000	-1.000000	61.000000	0.000000	-1.000000	-1.000000	1309582.000000	1776579019.985182
18047.295000	-4966.380000	26633.655000	63061.470000	35716.680000	18948.060000	-19273.905000	10349.910000	-2.280041	-1.829641	0.419803	1.353001	-3.870706	-22.750438	-3.624129	-2.267976	-0.061040	1.892240	0.854560	-0.708738	0.264648	0.637633	-1.000000	-1.000000	-1.000000	-1.000000	-1.000000	-1.000000	-1.000000	61.000000	0.000000	-1.000000	-1.000000	1309583.000000	1776579019.986421
18061.065000	-4959.540000	26634.375000	63059.985000	35769.825000	18978.885000	-19270.980000	10370.205000	1.380526	1.487706	2.788771	3.552805	12.535693	1.000517	-3.614854	-2.700934	-0.061040	1.892240	0.854560	-0.708738	0.264648	0.637633	-1.000000	-1.000000	-1.000000	-1.000000	-1.000000	-1.000000	-1.000000	61.000000	0.000000	-1.000000	-1.000000	1309584.000000	1776579019.986433
18043.020000	-4966.605000	26628.390000	63053.100000	35782.470000	18977.085000	-19273.455000	10368.630000	7.372539	6.105828	5.348120	5.239379	25.046698	28.089271	-2.689896	0.819890	-0.061040	1.892240	0.854560	-0.708738	0.264648	0.637633	-1.000000	-1.000000	-1.000000	-1.000000	-1.000000	-1.000000	-1.000000	61.000000	0.000000	-1.000000	-1.000000	1309585.000000	1776579019.990465
18039.555000	-4973.265000	26629.335000	63060.795000	35772.885000	18989.460000	-19279.440000	10359.675000	10.008324	8.559083	5.984198	4.545729	29.329634	42.004218	-1.588798	5.411730	-0.061040	1.892240	0.854560	-0.708738	0.264648	0.637633	-1.000000	-1.000000	-1.000000	-1.000000	-1.000000	-1.000000	-1.000000	61.000000	0.000000	-1.000000	-1.000000	1309586.000000	1776579019.990479
18051.930000	-4961.160000	26639.865000	63069.480000	35756.370000	18980.595000	-19276.785000	10360.035000	6.295452	6.759928	4.148972	1.884860	21.426945	34.361987	-0.975987	6.502611	-0.061040	1.892240	0.854560	-0.708738	0.264648	0.637633	-1.000000	-1.000000	-1.000000	-1.000000	-1.000000	-1.000000	-1.000000	61.000000	0.000000	-1.000000	-1.000000	1309587.000000	1776579019.994399
18050.940000	-4961.430000	26636.940000	63058.905000	35734.545000	18971.055000	-19282.455000	10358.055000	-0.589547	2.414037	1.416765	-0.835893	2.512595	10.283791	-0.710398	2.947203	-0.061040	1.892240	0.854560	-0.708738	0.264648	0.637633	-1.000000	-1.000000	-1.000000	-1.000000	-1.000000	-1.000000	-1.000000	61.000000	0.000000	-1.000000	-1.000000	1309588.000000	1776579019.994429
18045.405000	-4975.605000	26626.275000	63048.285000	35724.330000	18937.440000	-19285.425000	10358.730000	-6.012548	-1.784428	-1.043764	-3.096874	-19.175698	-17.812263	-0.362121	-2.427568	-0.061040	1.892240	0.854560	-0.708738	0.264648	0.637633	-1.000000	-1.000000	-1.000000	-1.000000	-1.000000	-1.000000	-1.000000	61.000000	0.000000	-1.000000	-1.000000	1309589.000000	1776579019.998604
18043.965000	-4977.585000	26626.995000	63053.010000	35750.250000	18952.020000	-19291.095000	10358.460000	-8.236017	-4.995936	-3.353411	-5.183822	-32.437230	-37.648376	0.093030	-6.120049	-0.061040	1.892240	0.854560	-0.708738	0.264648	0.637633	-1.000000	-1.000000	-1.000000	-1.000000	-1.000000	-1.000000	-1.000000	61.000000	0.000000	-1.000000	-1.000000	1309590.000000	1776579019.998625
18048.105000	-4971.465000	26634.060000	63061.245000	35765.775000	18992.835000	-19287.855000	10362.510000	-7.546612	-6.761059	-4.978251	-5.897300	-29.619712	-40.333758	0.622093	-6.398218	-0.061040	1.892240	0.854560	-0.708738	0.264648	0.637633	-1.000000	-1.000000	-1.000000	-1.000000	-1.000000	-1.000000	-1.000000	61.000000	0.000000	-1.000000	-1.000000	1309591.000000	1776579020.005172
18049.995000	-4963.005000	26633.835000	63057.285000	35757.495000	18960.885000	-19291.365000	10361.610000	-4.597956	-5.791341	-4.553040	-3.820635	-12.787982	-24.820570	1.401682	-3.713088	-0.061040	1.892240	0.854560	-0.708738	0.264648	0.637633	-1.000000	-1.000000	-1.000000	-1.000000	-1.000000	-1.000000	-1.000000	61.000000	0.000000	-1.000000	-1.000000	1309592.000000	1776579020.005190
18049.725000	-4957.290000	26631.810000	63055.755000	35747.010000	18932.895000	-19289.790000	10364.040000	-0.534353	-1.790613	-2.070386	0.053069	6.763112	-2.056118	2.357137	0.064001	0.213640	2.762060	0.610400	-0.707579	0.263366	0.639097	-1.000000	-1.000000	-1.000000	-1.000000	-1.000000	-1.000000	-1.000000	61.000000	0.000000	-1.000000	-1.000000	1309593.000000	1776579020.009378
18048.510000	-4961.745000	26624.430000	63045.585000	35721.495000	18938.520000	-19279.530000	10365.615000	2.920649	3.133897	0.628429	3.025387	17.380708	13.650576	3.219993	2.997865	0.213640	2.762060	0.610400	-0.707579	0.263366	0.639097	-1.000000	-1.000000	-1.000000	-1.000000	-1.000000	-1.000000	-1.000000	61.000000	0.000000	-1.000000	-1.000000	1309594.000000	1776579020.009394
18032.805000	-4964.400000	26627.310000	63048.240000	35730.045000	18966.645000	-19278.855000	10348.470000	4.151866	5.772645	1.832086	3.433213	15.575785	18.323166	3.892192	3.797533	0.213640	2.762060	0.610400	-0.707579	0.263366	0.639097	-1.000000	-1.000000	-1.000000	-1.000000	-1.000000	-1.000000	-1.000000	61.000000	0.000000	-1.000000	-1.000000	1309595.000000	1776579020.011783
18033.795000	-4961.970000	26634.285000	63058.095000	35747.460000	18951.210000	-19286.235000	10341.945000	2.629108	4.631802	1.706876	2.169877	7.268091	17.150659	3.766219	1.876754	0.213640	2.762060	0.610400	-0.707579	0.263366	0.639097	-1.000000	-1.000000	-1.000000	-1.000000	-1.000000	-1.000000	-1.000000	61.000000	0.000000	-1.000000	-1.000000	1309596.000000	1776579020.011806
18038.925000	-4964.940000	26618.085000	63031.545000	35722.440000	18929.655000	-19285.380000	10349.235000	-0.065464	1.067773	1.296487	0.919679	0.620829	13.569268	1.879999	-1.517710	0.213640	2.762060	0.610400	-0.707579	0.263366	0.639097	-1.000000	-1.000000	-1.000000	-1.000000	-1.000000	-1.000000	-1.000000	61.000000	0.000000	-1.000000	-1.000000	1309597.000000	1776579020.014397
18035.640000	-4969.620000	26606.295000	63017.460000	35712.810000	18928.530000	-19273.500000	10354.995000	-1.347847	-2.526568	0.369246	-0.658031	-2.109639	7.123971	-1.163699	-3.275876	0.213640	2.762060	0.610400	-0.707579	0.263366	0.639097	-1.000000	-1.000000	-1.000000	-1.000000	-1.000000	-1.000000	-1.000000	61.000000	0.000000	-1.000000	-1.000000	1309598.000000	1776579020.014431
18062.370000	-4946.715000	26640.045000	63056.655000	35687.385000	18958.680000	-19270.440000	10376.415000	0.036055	-4.184639	-0.954604	-2.481997	-3.515340	-0.255345	-3.159829	-1.191377	0.213640	2.762060	0.610400	-0.707579	0.263366	0.639097	-1.000000	-1.000000	-1.000000	-1.000000	-1.000000	-1.000000	-1.000000	61.000000	0.000000	-1.000000	-1.000000	1309599.000000	1776579020.021212
18065.700000	-4938.390000	26651.295000	63060.210000	35652.510000	18975.285000	-19277.235000	10370.790000	3.595976	-2.532415	-0.157578	-1.455882	-5.728359	-3.507092	-3.118324	3.714546	0.213640	2.762060	0.610400	-0.707579	0.263366	0.639097	-1.000000	-1.000000	-1.000000	-1.000000	-1.000000	-1.000000	-1.000000	61.000000	0.000000	-1.000000	-1.000000	1309600.000000	1776579020.021235
18056.880000	-4945.905000	26652.555000	63071.145000	35781.615000	18957.645000	-19285.065000	10359.720000	6.821899	1.477549	3.712108	3.541373	-5.940291	-1.293686	-2.463407	7.338340	0.213640	2.762060	0.610400	-0.707579	0.263366	0.639097	-1.000000	-1.000000	-1.000000	-1.000000	-1.000000	-1.000000	-1.000000	61.000000	0.000000	-1.000000	-1.000000	1309601.000000	1776579020.025034
18051.660000	-4950.270000	26651.070000	63074.025000	35847.405000	18937.575000	-19287.315000	10353.735000	6.147282	4.120788	7.081435	8.602850	3.825435	1.157135	-2.727838	5.834617	0.213640	2.762060	0.610400	-0.707579	0.263366	0.639097	-1.000000	-1.000000	-1.000000	-1.000000	-1.000000	-1.000000	-1.000000	61.000000	0.000000	-1.000000	-1.000000	1309602.000000	1776579020.025042
18039.105000	-4957.380000	26644.725000	63065.205000	35799.120000	18929.520000	-19283.850000	10347.750000	0.598240	2.673293	5.936093	9.092170	22.397161	-1.339840	-3.418400	-0.369066	0.198380	2.533160	1.861720	-0.708250	0.267394	0.636107	-1.000000	-1.000000	-1.000000	-1.000000	-1.000000	-1.000000	-1.000000	61.000000	0.000000	-1.000000	-1.000000	1309603.000000	1776579020.026343
18007.920000	-4971.915000	26639.370000	63060.120000	35762.985000	18924.930000	-19285.380000	10337.535000	-7.373456	-2.028362	0.057175	3.629045	31.483015	-7.516965	-2.918567	-7.184746	0.198380	2.533160	1.861720	-0.708250	0.267394	0.636107	-1.000000	-1.000000	-1.000000	-1.000000	-1.000000	-1.000000	-1.000000	61.000000	0.000000	-1.000000	-1.000000	1309604.000000	1776579020.026349
18002.385000	-4986.225000	26623.395000	63041.085000	35733.870000	18916.470000	-19285.020000	10338.345000	-14.109182	-7.143414	-7.428885	-5.368992	16.303771	-11.910287	-0.720825	-10.615103	0.198380	2.533160	1.861720	-0.708250	0.267394	0.636107	-1.000000	-1.000000	-1.000000	-1.000000	-1.000000	-1.000000	-1.000000	61.000000	0.000000	-1.000000	-1.000000	1309605.000000	1776579020.033035
18024.705000	-4986.495000	26617.500000	63039.915000	35727.795000	18902.385000	-19282.905000	10349.325000	-15.355434	-9.760350	-12.753800	-13.390159	-15.448631	-11.052604	2.130481	-8.729726	0.198380	2.533160	1.861720	-0.708250	0.267394	0.636107	-1.000000	-1.000000	-1.000000	-1.000000	-1.000000	-1.000000	-1.000000	61.000000	0.000000	-1.000000	-1.000000	1309606.000000	1776579020.033047
18050.895000	-4969.170000	26622.900000	63045.405000	35734.635000	18928.485000	-19264.950000	10363.185000	-7.738744	-7.531916	-13.168777	-16.036427	-41.786613	-5.181535	4.570269	-1.941876	0.198380	2.533160	1.861720	-0.708250	0.267394	0.636107	-1.000000	-1.000000	-1.000000	-1.000000	-1.000000	-1.000000	-1.000000	61.000000	0.000000	-1.000000	-1.000000	1309607.000000	1776579020.035734
18069.615000	-4961.565000	26624.295000	63040.410000	35739.405000	18962.685000	-19265.850000	10375.425000	7.007393	-0.015415	-7.803599	-11.423903	-45.942457	4.432952	6.219913	6.907733	0.198380	2.533160	1.861720	-0.708250	0.267394	0.636107	-1.000000	-1.000000	-1.000000	-1.000000	-1.000000	-1.000000	-1.000000	61.000000	0.000000	-1.000000	-1.000000	1309608.000000	1776579020.035747
18070.560000	-4949.820000	26632.215000	63043.695000	35720.190000	18921.780000	-19275.390000	10376.820000	20.971252	9.695633	1.352285	-1.957607	-27.735109	14.533373	6.137573	13.410888	0.198380	2.533160	1.861720	-0.708250	0.267394	0.636107	-1.000000	-1.000000	-1.000000	-1.000000	-1.000000	-1.000000	-1.000000	61.000000	0.000000	-1.000000	-1.000000	1309609.000000	1776579020.042543
18068.760000	-4938.525000	26644.320000	63056.700000	35700.210000	18912.510000	-19275.345000	10372.500000	25.296595	16.489910	10.354050	7.693343	-0.830945	18.010535	3.081933	13.793724	0.198380	2.533160	1.861720	-0.708250	0.267394	0.636107	-1.000000	-1.000000	-1.000000	-1.000000	-1.000000	-1.000000	-1.000000	61.000000	0.000000	-1.000000	-1.000000	1309610.000000	1776579020.042552
18064.170000	-4945.005000	26648.145000	63063.945000	35707.185000	18956.385000	-19265.445000	10374.435000	16.918147	16.668979	15.621528	14.066848	19.835327	11.706094	-1.878214	7.463936	0.198380	2.533160	1.861720	-0.708250	0.267394	0.636107	-1.000000	-1.000000	-1.000000	-1.000000	-1.000000	-1.000000	-1.000000	61.000000	0.000000	-1.000000	-1.000000	1309611.000000	1776579020.042562
18057.195000	-4958.910000	26637.750000	63052.560000	35723.160000	18995.535000	-19272.420000	10368.135000	0.476480	9.449477	14.968761	15.294121	28.501875	2.739075	-5.649182	-2.292985	0.198380	2.533160	1.861720	-0.708250	0.267394	0.636107	-1.000000	-1.000000	-1.000000	-1.000000	-1.000000	-1.000000	-1.000000	61.000000	0.000000	-1.000000	-1.000000	1309612.000000	1776579020.042566
18048.690000	-4961.430000	26633.295000	63048.960000	35788.950000	18983.835000	-19283.220000	10357.470000	-15.593681	-2.584086	8.185478	10.624892	28.864579	-1.061199	-6.721725	-10.842176	0.427280	0.839300	1.587040	-0.709715	0.268676	0.636290	-1.000000	-1.000000	-1.000000	-1.000000	-1.000000	-1.000000	-1.000000	61.000000	0.000000	-1.000000	-1.000000	1309613.000000	1776579020.046257
18053.370000	-4956.660000	26639.010000	63053.640000	35791.875000	18963.315000	-19283.130000	10360.305000	-24.172643	-13.675651	-1.776552	1.928384	26.589458	-1.573209	-5.968638	-14.942108	0.427280	0.839300	1.587040	-0.709715	0.268676	0.636290	-1.000000	-1.000000	-1.000000	-1.000000	-1.000000	-1.000000	-1.000000	61.000000	0.000000	-1.000000	-1.000000	1309614.000000	1776579020.046267
18054.585000	-4953.465000	26649.045000	63069.705000	35757.360000	18956.970000	-19276.380000	10362.780000	-22.317847	-18.046276	-9.606973	-6.002485	21.037490	-5.154763	-4.047282	-13.255541	0.427280	0.839300	1.587040	-0.709715	0.268676	0.636290	-1.000000	-1.000000	-1.000000	-1.000000	-1.000000	-1.000000	-1.000000	61.000000	0.000000	-1.000000	-1.000000	1309615.000000	1776579020.050320
18042.255000	-4961.160000	26644.185000	63070.245000	35753.580000	18957.420000	-19277.775000	10357.245000	-12.316480	-14.260706	-11.581955	-8.944160	7.312280	-12.278528	-0.800338	-6.723557	0.427280	0.839300	1.587040	-0.709715	0.268676	0.636290	-1.000000	-1.000000	-1.000000	-1.000000	-1.000000	-1.000000	-1.000000	61.000000	0.000000	-1.000000	-1.000000	1309616.000000	1776579020.050337
18036.090000	-4966.110000	26640.405000	63065.205000	35770.590000	18964.530000	-19280.655000	10358.730000	-0.279102	-5.953484	-8.498986	-6.972523	-12.473275	-17.184372	2.946799	1.363540	0.427280	0.839300	1.587040	-0.709715	0.268676	0.636290	-1.000000	-1.000000	-1.000000	-1.000000	-1.000000	-1.000000	-1.000000	61.000000	0.000000	-1.000000	-1.000000	1309617.000000	1776579020.054353
18035.820000	-4976.820000	26625.465000	63046.980000	35729.235000	18957.060000	-19283.535000	10357.875000	8.311906	1.712203	-4.122993	-3.880945	-28.530976	-15.099709	5.308017	7.474748	0.427280	0.839300	1.587040	-0.709715	0.268676	0.636290	-1.000000	-1.000000	-1.000000	-1.000000	-1.000000	-1.000000	-1.000000	61.000000	0.000000	-1.000000	-1.000000	1309618.000000	1776579020.054367
18048.240000	-4971.060000	26624.295000	63042.885000	35719.605000	18948.825000	-19279.305000	10362.240000	12.039393	5.878160	-1.427596	-2.995138	-34.218977	-7.008791	5.275367	9.956718	0.427280	0.839300	1.587040	-0.709715	0.268676	0.636290	-1.000000	-1.000000	-1.000000	-1.000000	-1.000000	-1.000000	-1.000000	61.000000	0.000000	-1.000000	-1.000000	1309619.000000	1776579020.058483
18054.720000	-4963.095000	26632.170000	63053.730000	35733.825000	18940.005000	-19278.810000	10359.810000	12.581562	7.123395	-0.318866	-3.781725	-28.949421	2.116200	3.593732	9.060537	0.427280	0.839300	1.587040	-0.709715	0.268676	0.636290	-1.000000	-1.000000	-1.000000	-1.000000	-1.000000	-1.000000	-1.000000	61.000000	0.000000	-1.000000	-1.000000	1309620.000000	1776579020.058496
18053.640000	-4956.930000	26642.070000	63068.175000	35761.680000	18957.735000	-19273.500000	10360.260000	11.377875	7.472802	1.372337	-2.815840	-14.024475	8.469075	1.677553	5.903895	0.427280	0.839300	1.587040	-0.709715	0.268676	0.636290	-1.000000	-1.000000	-1.000000	-1.000000	-1.000000	-1.000000	-1.000000	61.000000	0.000000	-1.000000	-1.000000	1309621.000000	1776579020.062429
18051.570000	-4959.000000	26636.895000	63061.155000	35769.015000	18949.905000	-19276.695000	10363.275000	8.213836	7.540954	4.495532	1.498930	6.564561	11.583326	0.307206	1.896937	0.427280	0.839300	1.587040	-0.709715	0.268676	0.636290	-1.000000	-1.000000	-1.000000	-1.000000	-1.000000	-1.000000	-1.000000	61.000000	0.000000	-1.000000	-1.000000	1309622.000000	1776579020.062439
18053.640000	-4961.205000	26635.680000	63058.905000	35750.205000	18933.345000	-19278.855000	10362.735000	2.936521	6.197380	7.057503	6.374579	24.026566	11.600392	-0.710182	-1.508747	1.144500	1.632820	1.403920	-0.708860	0.266296	0.638792	-1.000000	-1.000000	-1.000000	-1.000000	-1.000000	-1.000000	-1.000000	61.000000	0.000000	-1.000000	-1.000000	1309623.000000	1776579020.066381
18051.120000	-4965.345000	26633.160000	63057.330000	35758.395000	18941.805000	-19278.405000	10361.115000	-3.024100	2.607910	6.681555	7.926566	29.466930	8.163627	-1.791235	-3.498863	1.144500	1.632820	1.403920	-0.708860	0.266296	0.638792	-1.000000	-1.000000	-1.000000	-1.000000	-1.000000	-1.000000	-1.000000	61.000000	0.000000	-1.000000	-1.000000	1309624.000000	1776579020.066391
18050.490000	-4964.220000	26632.710000	63053.955000	35761.005000	18951.570000	-19278.360000	10361.205000	-7.532314	-2.256341	3.310564	5.277884	21.657697	3.095635	-2.699351	-4.129268	1.144500	1.632820	1.403920	-0.708860	0.266296	0.638792	-1.000000	-1.000000	-1.000000	-1.000000	-1.000000	-1.000000	-1.000000	61.000000	0.000000	-1.000000	-1.000000	1309625.000000	1776579020.070376
18045.495000	-4965.615000	26633.070000	63055.845000	35753.670000	18954.945000	-19285.155000	10352.475000	-9.278582	-6.160976	-1.020425	0.571842	7.139575	-0.295585	-2.960083	-3.894046	1.144500	1.632820	1.403920	-0.708860	0.266296	0.638792	-1.000000	-1.000000	-1.000000	-1.000000	-1.000000	-1.000000	-1.000000	61.000000	0.000000	-1.000000	-1.000000	1309626.000000	1776579020.070389
18045.135000	-4963.680000	26634.780000	63056.835000	35744.400000	18954.855000	-19282.725000	10351.215000	-8.240380	-7.334848	-4.016317	-3.262815	-6.609347	-1.017847	-2.551368	-3.354786	1.144500	1.632820	1.403920	-0.708860	0.266296	0.638792	-1.000000	-1.000000	-1.000000	-1.000000	-1.000000	-1.000000	-1.000000	61.000000	0.000000	-1.000000	-1.000000	1309627.000000	1776579020.075806
18052.245000	-4962.195000	26636.130000	63056.250000	35731.485000	18950.760000	-19278.945000	10353.285000	-5.070295	-5.567991	-4.549935	-4.487892	-15.317336	-0.823821	-1.478949	-2.555542	1.144500	1.632820	1.403920	-0.708860	0.266296	0.638792	-1.000000	-1.000000	-1.000000	-1.000000	-1.000000	-1.000000	-1.000000	61.000000	0.000000	-1.000000	-1.000000	1309628.000000	1776579020.075821
18064.485000	-4958.685000	26641.170000	63056.745000	35694.855000	18908.685000	-19275.930000	10364.220000	-0.429034	-2.007416	-2.944619	-3.316883	-18.239112	-2.295864	0.360063	-0.830219	1.144500	1.632820	1.403920	-0.708860	0.266296	0.638792	-1.000000	-1.000000	-1.000000	-1.000000	-1.000000	-1.000000	-1.000000	61.000000	0.000000	-1.000000	-1.000000	1309629.000000	1776579020.081043
18064.890000	-4961.745000	26639.415000	63049.050000	35682.345000	18842.580000	-19285.515000	10365.885000	4.551453	1.574080	-0.440060	-1.251977	-16.882026	-7.809798	2.267622	2.093564	1.144500	1.632820	1.403920	-0.708860	0.266296	0.638792	-1.000000	-1.000000	-1.000000	-1.000000	-1.000000	-1.000000	-1.000000	61.000000	0.000000	-1.000000	-1.000000	1309630.000000	1776579020.081074
18044.235000	-4973.130000	26635.365000	63054.990000	35742.285000	18892.710000	-19282.500000	10360.170000	7.347923	3.363278	1.389933	0.272599	-11.017277	-15.469549	2.889574	4.852851	1.144500	1.632820	1.403920	-0.708860	0.266296	0.638792	-1.000000	-1.000000	-1.000000	-1.000000	-1.000000	-1.000000	-1.000000	61.000000	0.000000	-1.000000	-1.000000	1309631.000000	1776579020.082387
18029.070000	-4980.330000	26627.895000	63050.625000	35791.020000	18996.030000	-19284.030000	10347.840000	5.282662	2.354670	1.376692	0.929400	2.318997	-14.682422	1.887458	5.078830	1.144500	1.632820	1.403920	-0.708860	0.266296	0.638792	-1.000000	-1.000000	-1.000000	-1.000000	-1.000000	-1.000000	-1.000000	61.000000	0.000000	-1.000000	-1.000000	1309632.000000	1776579020.082396
18037.350000	-4965.615000	26628.840000	63045.000000	35758.170000	18996.840000	-19278.900000	10352.520000	-0.846166	-0.246819	-0.305180	0.975232	20.367451	2.980238	0.383529	1.992186	-0.076300	2.746800	2.655240	-0.705504	0.269286	0.638365	-1.000000	-1.000000	-1.000000	-1.000000	-1.000000	-1.000000	-1.000000	61.000000	0.000000	-1.000000	-1.000000	1309633.000000	1776579020.086366
18043.785000	-4961.025000	26632.800000	63054.270000	35762.085000	18976.905000	-19280.070000	10353.285000	-6.005367	-1.418389	-1.989870	0.658424	30.845583	27.070244	-0.425658	-2.150162	-0.076300	2.746800	2.655240	-0.705504	0.269286	0.638365	-1.000000	-1.000000	-1.000000	-1.000000	-1.000000	-1.000000	-1.000000	61.000000	0.000000	-1.000000	-1.000000	1309634.000000	1776579020.086376
18055.845000	-4951.980000	26644.635000	63061.740000	35752.230000	18954.720000	-19283.220000	10356.210000	-5.675710	0.443161	-1.754757	0.763799	24.490791	36.073581	-0.429560	-4.223785	-0.076300	2.746800	2.655240	-0.705504	0.269286	0.638365	-1.000000	-1.000000	-1.000000	-1.000000	-1.000000	-1.000000	-1.000000	61.000000	0.000000	-1.000000	-1.000000	1309635.000000	1776579020.091665
18048.375000	-4955.715000	26643.555000	63059.535000	35717.130000	18938.205000	-19291.770000	10350.045000	-0.348494	3.658219	0.752658	1.787253	4.626713	20.881139	-0.495502	-3.326556	-0.076300	2.746800	2.655240	-0.705504	0.269286	0.638365	-1.000000	-1.000000	-1.000000	-1.000000	-1.000000	-1.000000	-1.000000	61.000000	0.000000	-1.000000	-1.000000	1309636.000000	1776579020.091681
18027.630000	-4960.215000	26643.780000	63062.730000	35725.320000	18961.065000	-19284.390000	10346.715000	4.939119	5.041894	3.635450	2.732978	-17.644153	-7.470380	-1.124714	-1.059430	-0.076300	2.746800	2.655240	-0.705504	0.269286	0.638365	-1.000000	-1.000000	-1.000000	-1.000000	-1.000000	-1.000000	-1.000000	61.000000	0.000000	-1.000000	-1.000000	1309637.000000	1776579020.094573
18024.435000	-4966.650000	26634.870000	63054.135000	35747.865000	18975.375000	-19281.690000	10338.975000	5.388689	2.814269	4.314431	2.181842	-30.233738	-29.252020	-1.471037	0.511721	-0.076300	2.746800	2.655240	-0.705504	0.269286	0.638365	-1.000000	-1.000000	-1.000000	-1.000000	-1.000000	-1.000000	-1.000000	61.000000	0.000000	-1.000000	-1.000000	1309638.000000	1776579020.094582
18037.845000	-4964.130000	26634.465000	63051.660000	35734.185000	18962.280000	-19290.735000	10339.245000	1.483890	-1.839769	1.891867	-0.216568	-26.646775	-32.660352	-0.752720	0.651503	-0.076300	2.746800	2.655240	-0.705504	0.269286	0.638365	-1.000000	-1.000000	-1.000000	-1.000000	-1.000000	-1.000000	-1.000000	61.000000	0.000000	-1.000000	-1.000000	1309639.000000	1776579020.098484
18057.735000	-4960.530000	26633.115000	63049.545000	35753.445000	18937.530000	-19288.800000	10359.765000	-1.667666	-5.695718	-2.032897	-3.347460	-10.975115	-21.319466	0.299165	0.538306	-0.076300	2.746800	2.655240	-0.705504	0.269286	0.638365	-1.000000	-1.000000	-1.000000	-1.000000	-1.000000	-1.000000	-1.000000	61.000000	0.000000	-1.000000	-1.000000	1309640.000000	1776579020.098496
18068.580000	-4965.255000	26627.760000	63051.480000	35790.795000	18946.980000	-19276.740000	10373.310000	-0.293832	-6.313033	-4.888900	-5.243860	7.359388	-6.453877	0.992410	2.154711	-0.076300	2.746800	2.655240	-0.705504	0.269286	0.638365	-1.000000	-1.000000	-1.000000	-1.000000	-1.000000	-1.000000	-1.000000	61.000000	0.000000	-1.000000	-1.000000	1309641.000000	1776579020.103757
18057.870000	-4965.930000	26630.235000	63055.080000	35770.770000	18958.005000	-19274.490000	10361.205000	3.850836	-3.975784	-5.229066	-4.526792	20.664153	5.014357	1.815760	5.174509	-0.076300	2.746800	2.655240	-0.705504	0.269286	0.638365	-1.000000	-1.000000	-1.000000	-1.000000	-1.000000	-1.000000	-1.000000	61.000000	0.000000	-1.000000	-1.000000	1309642.000000	1776579020.103772
18054.450000	-4960.305000	26636.985000	63057.420000	35757.180000	18955.305000	-19275.255000	10355.895000	5.590894	-0.552738	-3.026327	-1.434740	23.207799	12.256247	2.760694	6.104298	-1.709120	2.899400	2.792580	-0.706785	0.273559	0.635924	-1.000000	-1.000000	-1.000000	-1.000000	-1.000000	-1.000000	-1.000000	61.000000	0.000000	-1.000000	-1.000000	1309643.000000	1776579020.106478
18050.535000	-4958.505000	26637.480000	63055.395000	35748.135000	18937.755000	-19281.600000	10350.675000	2.163062	2.525597	0.783386	2.281245	13.393382	15.090296	2.579064	2.502910	-1.709120	2.899400	2.792580	-0.706785	0.273559	0.635924	-1.000000	-1.000000	-1.000000	-1.000000	-1.000000	-1.000000	-1.000000	61.000000	0.000000	-1.000000	-1.000000	1309644.000000	1776579020.106495
18052.605000	-4958.145000	26639.235000	63060.705000	35734.365000	18911.205000	-19281.780000	10356.345000	-4.156033	4.435391	4.351486	4.601925	-3.000090	12.165312	0.480218	-3.656203	-1.709120	2.899400	2.792580	-0.706785	0.273559	0.635924	-1.000000	-1.000000	-1.000000	-1.000000	-1.000000	-1.000000	-1.000000	61.000000	0.000000	-1.000000	-1.000000	1309645.000000	1776579020.110484
18045.405000	-4968.315000	26626.815000	63049.590000	35729.235000	18915.930000	-19281.105000	10358.370000	-8.978403	4.408001	5.598857	4.515680	-16.673512	4.285226	-2.520058	-7.986266	-1.709120	2.899400	2.792580	-0.706785	0.273559	0.635924	-1.000000	-1.000000	-1.000000	-1.000000	-1.000000	-1.000000	-1.000000	61.000000	0.000000	-1.000000	-1.000000	1309646.000000	1776579020.110501
18030.600000	-4979.115000	26620.380000	63049.050000	35764.020000	18965.385000	-19281.285000	10347.705000	-9.985110	1.994538	3.488017	2.156680	-20.436035	-2.753666	-4.441337	-8.034978	-1.709120	2.899400	2.792580	-0.706785	0.273559	0.635924	-1.000000	-1.000000	-1.000000	-1.000000	-1.000000	-1.000000	-1.000000	61.000000	0.000000	-1.000000	-1.000000	1309647.000000	1776579020.117474
18024.570000	-4973.760000	26628.345000	63048.015000	35762.310000	18940.770000	-19279.215000	10346.220000	-7.857818	-1.819648	-0.683664	-1.194626	-12.334865	-2.838901	-4.143928	-4.986406	-1.709120	2.899400	2.792580	-0.706785	0.273559	0.635924	-1.000000	-1.000000	-1.000000	-1.000000	-1.000000	-1.000000	-1.000000	61.000000	0.000000	-1.000000	-1.000000	1309648.000000	1776579020.117490
18028.665000	-4975.380000	26634.150000	63048.825000	35748.945000	18904.185000	-19284.435000	10348.560000	-3.931731	-4.446489	-3.625607	-3.518663	1.945369	1.553633	-2.087551	-1.222381	-1.709120	2.899400	2.792580	-0.706785	0.273559	0.635924	-1.000000	-1.000000	-1.000000	-1.000000	-1.000000	-1.000000	-1.000000	61.000000	0.000000	-1.000000	-1.000000	1309649.000000	1776579020.121502
18055.935000	-4962.420000	26633.295000	63039.465000	35719.830000	18890.370000	-19274.760000	10364.040000	1.671236	-3.771777	-3.166656	-3.732681	11.995701	2.131670	0.431345	2.320106	-1.709120	2.899400	2.792580	-0.706785	0.273559	0.635924	-1.000000	-1.000000	-1.000000	-1.000000	-1.000000	-1.000000	-1.000000	61.000000	0.000000	-1.000000	-1.000000	1309650.000000	1776579020.121512
18057.870000	-4961.250000	26623.755000	63032.445000	35723.250000	18936.720000	-19278.945000	10357.380000	8.708765	-0.021286	-0.559033	-2.579115	11.700172	-2.397348	2.448208	5.494521	-1.709120	2.899400	2.792580	-0.706785	0.273559	0.635924	-1.000000	-1.000000	-1.000000	-1.000000	-1.000000	-1.000000	-1.000000	61.000000	0.000000	-1.000000	-1.000000	1309651.000000	1776579020.122447
18067.275000	-4940.055000	26648.235000	63058.680000	35747.415000	18973.035000	-19276.335000	10365.345000	14.473036	4.683478	1.722526	-0.812133	4.713052	-4.104561	3.403662	7.250545	-1.709120	2.899400	2.792580	-0.706785	0.273559	0.635924	-1.000000	-1.000000	-1.000000	-1.000000	-1.000000	-1.000000	-1.000000	61.000000	0.000000	-1.000000	-1.000000	1309652.000000	1776579020.122462
18060.030000	-4943.745000	26648.505000	63057.105000	35745.165000	18969.795000	-19270.530000	10372.005000	15.039380	7.865214	3.129766	2.082406	-0.594027	1.991164	3.112587	6.582240	-1.068200	2.838360	1.693860	-0.709898	0.272033	0.635008	-1.000000	-1.000000	-1.000000	-1.000000	-1.000000	-1.000000	-1.000000	61.000000	0.000000	-1.000000	-1.000000	1309653.000000	1776579020.126465
18045.945000	-4962.645000	26640.045000	63060.750000	35766.270000	18964.845000	-19277.280000	10356.435000	8.718339	7.182805	3.670088	5.517529	-0.264449	10.091454	1.945814	3.659097	-1.068200	2.838360	1.693860	-0.709898	0.272033	0.635008	-1.000000	-1.000000	-1.000000	-1.000000	-1.000000	-1.000000	-1.000000	61.000000	0.000000	-1.000000	-1.000000	1309654.000000	1776579020.126481
18050.625000	-4959.180000	26642.295000	63061.425000	35764.515000	18980.775000	-19279.980000	10352.430000	-2.164404	1.639909	2.267292	6.993868	3.387734	11.460105	0.174134	-0.985765	-1.068200	2.838360	1.693860	-0.709898	0.272033	0.635008	-1.000000	-1.000000	-1.000000	-1.000000	-1.000000	-1.000000	-1.000000	61.000000	0.000000	-1.000000	-1.000000	1309655.000000	1776579020.130633
18051.840000	-4958.955000	26636.265000	63049.635000	35739.090000	18965.835000	-19283.265000	10351.710000	-11.947938	-5.954794	-1.117586	4.802607	5.341682	4.400917	-1.964826	-5.975022	-1.068200	2.838360	1.693860	-0.709898	0.272033	0.635008	-1.000000	-1.000000	-1.000000	-1.000000	-1.000000	-1.000000	-1.000000	61.000000	0.000000	-1.000000	-1.000000	1309656.000000	1776579020.130674
18053.325000	-4958.100000	26638.740000	63055.080000	35743.455000	18965.340000	-19277.595000	10356.435000	-15.485017	-10.635623	-4.615809	-0.349094	1.966089	-6.562499	-3.510197	-8.627482	-1.068200	2.838360	1.693860	-0.709898	0.272033	0.635008	-1.000000	-1.000000	-1.000000	-1.000000	-1.000000	-1.000000	-1.000000	61.000000	0.000000	-1.000000	-1.000000	1309657.000000	1776579020.134552
18061.650000	-4955.400000	26640.270000	63052.920000	35708.895000	18928.035000	-19278.225000	10362.195000	-11.811706	-9.830969	-6.113850	-5.604862	-5.611945	-16.201484	-3.313047	-7.034598	-1.068200	2.838360	1.693860	-0.709898	0.272033	0.635008	-1.000000	-1.000000	-1.000000	-1.000000	-1.000000	-1.000000	-1.000000	61.000000	0.000000	-1.000000	-1.000000	1309658.000000	1776579020.134564
18063.270000	-4953.015000	26641.935000	63052.335000	35671.680000	18879.030000	-19288.755000	10358.685000	-3.810852	-4.678568	-4.723080	-8.013934	-13.522507	-22.008989	-1.564646	-2.039298	-1.068200	2.838360	1.693860	-0.709898	0.272033	0.635008	-1.000000	-1.000000	-1.000000	-1.000000	-1.000000	-1.000000	-1.000000	61.000000	0.000000	-1.000000	-1.000000	1309659.000000	1776579020.138676
18048.105000	-4959.855000	26637.480000	63054.180000	35710.695000	18914.895000	-19287.000000	10351.485000	3.831267	1.536387	-1.416669	-6.764458	-17.463413	-22.556756	0.177952	3.102788	-1.068200	2.838360	1.693860	-0.709898	0.272033	0.635008	-1.000000	-1.000000	-1.000000	-1.000000	-1.000000	-1.000000	-1.000000	61.000000	0.000000	-1.000000	-1.000000	1309660.000000	1776579020.138693
18034.830000	-4969.215000	26631.360000	63052.335000	35795.655000	18992.115000	-19278.495000	10346.130000	6.859367	5.358242	1.632848	-3.090722	-11.114879	-13.129373	1.162047	5.237760	-1.068200	2.838360	1.693860	-0.709898	0.272033	0.635008	-1.000000	-1.000000	-1.000000	-1.000000	-1.000000	-1.000000	-1.000000	61.000000	0.000000	-1.000000	-1.000000	1309661.000000	1776579020.142649
18035.460000	-4969.980000	26632.530000	63049.230000	35779.275000	18983.160000	-19278.270000	10345.995000	4.460739	5.259695	2.843623	0.893164	7.534748	8.318640	2.061124	3.849290	-1.068200	2.838360	1.693860	-0.709898	0.272033	0.635008	-1.000000	-1.000000	-1.000000	-1.000000	-1.000000	-1.000000	-1.000000	61.000000	0.000000	-1.000000	-1.000000	1309662.000000	1776579020.142670
18041.985000	-4961.160000	26642.835000	63063.045000	35767.170000	18947.655000	-19284.030000	10349.820000	0.179618	2.807423	2.623623	3.639696	26.887857	30.366739	2.942738	1.081333	1.068200	1.983800	1.526000	-0.709837	0.269531	0.634215	-1.000000	-1.000000	-1.000000	-1.000000	-1.000000	-1.000000	-1.000000	61.000000	0.000000	-1.000000	-1.000000	1309663.000000	1776579020.146566
18053.820000	-4955.040000	26645.355000	63067.050000	35766.900000	18943.560000	-19287.315000	10351.575000	-1.425808	1.078332	2.547642	5.120290	30.919708	35.961194	2.701418	-0.527011	1.068200	1.983800	1.526000	-0.709837	0.269531	0.634215	-1.000000	-1.000000	-1.000000	-1.000000	-1.000000	-1.000000	-1.000000	61.000000	0.000000	-1.000000	-1.000000	1309664.000000	1776579020.146578
18058.635000	-4956.120000	26641.755000	63058.725000	35766.180000	18946.665000	-19286.595000	10356.930000	1.098801	1.451296	3.006487	5.452646	16.532882	21.375146	0.914650	-0.092715	1.068200	1.983800	1.526000	-0.709837	0.269531	0.634215	-1.000000	-1.000000	-1.000000	-1.000000	-1.000000	-1.000000	-1.000000	61.000000	0.000000	-1.000000	-1.000000	1309665.000000	1776579020.150739
18048.375000	-4962.240000	26637.120000	63053.910000	35744.895000	18966.960000	-19285.155000	10358.820000	5.049817	2.459399	2.714129	3.772476	-6.023120	-1.112996	-1.249097	1.494596	1.068200	1.983800	1.526000	-0.709837	0.269531	0.634215	-1.000000	-1.000000	-1.000000	-1.000000	-1.000000	-1.000000	-1.000000	61.000000	0.000000	-1.000000	-1.000000	1309666.000000	1776579020.150755
18050.850000	-4959.090000	26639.325000	63054.855000	35727.705000	18977.220000	-19279.890000	10363.320000	6.317384	2.018737	0.799431	0.032013	-24.644306	-16.574050	-2.212262	2.733630	1.068200	1.983800	1.526000	-0.709837	0.269531	0.634215	-1.000000	-1.000000	-1.000000	-1.000000	-1.000000	-1.000000	-1.000000	61.000000	0.000000	-1.000000	-1.000000	1309667.000000	1776579020.154536
18050.535000	-4963.365000	26632.980000	63048.645000	35733.150000	18952.200000	-19282.005000	10359.270000	3.529616	-0.096586	-1.897630	-3.886387	-31.981197	-19.437873	-1.473965	2.533594	1.068200	1.983800	1.526000	-0.709837	0.269531	0.634215	-1.000000	-1.000000	-1.000000	-1.000000	-1.000000	-1.000000	-1.000000	61.000000	0.000000	-1.000000	-1.000000	1309668.000000	1776579020.154546
18046.125000	-4967.190000	26628.930000	63041.085000	35731.260000	18918.180000	-19284.615000	10358.775000	-1.249438	-2.602566	-3.974156	-6.038209	-26.045011	-15.042606	-0.021690	0.648914	1.068200	1.983800	1.526000	-0.709837	0.269531	0.634215	-1.000000	-1.000000	-1.000000	-1.000000	-1.000000	-1.000000	-1.000000	61.000000	0.000000	-1.000000	-1.000000	1309669.000000	1776579020.158530
18046.080000	-4963.185000	26633.295000	63044.910000	35752.680000	18908.055000	-19290.870000	10358.370000	-5.228047	-4.148934	-4.518765	-5.774309	-10.024907	-11.070477	0.633665	-2.132202	1.068200	1.983800	1.526000	-0.709837	0.269531	0.634215	-1.000000	-1.000000	-1.000000	-1.000000	-1.000000	-1.000000	-1.000000	61.000000	0.000000	-1.000000	-1.000000	1309670.000000	1776579020.158540
18044.280000	-4966.290000	26631.000000	63044.955000	35754.930000	18914.085000	-19296.045000	10351.035000	-6.730333	-3.899696	-3.146386	-3.231472	9.027724	-8.842197	-0.161093	-4.446370	1.068200	1.983800	1.526000	-0.709837	0.269531	0.634215	-1.000000	-1.000000	-1.000000	-1.000000	-1.000000	-1.000000	-1.000000	61.000000	0.000000	-1.000000	-1.000000	1309671.000000	1776579020.162727
18039.420000	-4967.730000	26630.820000	63042.795000	35752.455000	18920.115000	-19286.595000	10348.920000	-5.593335	-2.075770	-0.428186	0.670195	22.954261	-4.441906	-1.513021	-5.391150	1.068200	1.983800	1.526000	-0.709837	0.269531	0.634215	-1.000000	-1.000000	-1.000000	-1.000000	-1.000000	-1.000000	-1.000000	61.000000	0.000000	-1.000000	-1.000000	1309672.000000	1776579020.162759
18026.910000	-4969.980000	26633.970000	63046.485000	35737.830000	18899.100000	-19282.905000	10347.345000	-3.114559	0.131506	2.273435	4.198615	25.811443	3.632522	-1.605915	-4.715424	0.534100	1.907500	0.793520	-0.710020	0.270934	0.634398	-1.000000	-1.000000	-1.000000	-1.000000	-1.000000	-1.000000	-1.000000	61.000000	0.000000	-1.000000	-1.000000	1309673.000000	1776579020.166787
18034.605000	-4966.830000	26640.990000	63056.430000	35725.680000	18904.320000	-19279.620000	10352.880000	-0.779446	1.720016	4.020458	6.139614	17.072157	11.600443	0.289411	-2.433443	0.534100	1.907500	0.793520	-0.710020	0.270934	0.634398	-1.000000	-1.000000	-1.000000	-1.000000	-1.000000	-1.000000	-1.000000	61.000000	0.000000	-1.000000	-1.000000	1309674.000000	1776579020.166804
18046.125000	-4968.540000	26635.365000	63054.720000	35748.135000	18984.555000	-19281.240000	10348.110000	1.470152	2.473350	4.501739	6.361597	2.621508	16.720630	2.775208	0.903041	0.534100	1.907500	0.793520	-0.710020	0.270934	0.634398	-1.000000	-1.000000	-1.000000	-1.000000	-1.000000	-1.000000	-1.000000	61.000000	0.000000	-1.000000	-1.000000	1309675.000000	1776579020.170797
18053.370000	-4963.005000	26630.865000	63047.610000	35767.755000	19026.090000	-19280.790000	10343.565000	4.461247	2.593177	3.324831	4.728846	-8.280958	21.266766	3.793577	3.797575	0.534100	1.907500	0.793520	-0.710020	0.270934	0.634398	-1.000000	-1.000000	-1.000000	-1.000000	-1.000000	-1.000000	-1.000000	61.000000	0.000000	-1.000000	-1.000000	1309676.000000	1776579020.170813
18050.220000	-4964.850000	26626.140000	63039.915000	35726.130000	18946.755000	-19280.340000	10345.995000	7.331609	2.297843	0.440831	0.999805	-10.830635	23.604098	2.575263	4.787696	0.534100	1.907500	0.793520	-0.710020	0.270934	0.634398	-1.000000	-1.000000	-1.000000	-1.000000	-1.000000	-1.000000	-1.000000	61.000000	0.000000	-1.000000	-1.000000	1309677.000000	1776579020.174718
18041.445000	-4970.610000	26621.415000	63034.605000	35709.030000	18887.310000	-19283.040000	10345.230000	7.552967	1.486560	-3.026283	-3.883379	-9.038629	13.589289	-0.028133	3.891784	0.534100	1.907500	0.793520	-0.710020	0.270934	0.634398	-1.000000	-1.000000	-1.000000	-1.000000	-1.000000	-1.000000	-1.000000	61.000000	0.000000	-1.000000	-1.000000	1309678.000000	1776579020.174733
18046.890000	-4968.180000	26630.370000	63045.135000	35712.855000	18886.275000	-19278.585000	10354.860000	3.882010	-0.025142	-5.134260	-7.416075	-8.243013	-11.844301	-2.494947	2.367636	0.534100	1.907500	0.793520	-0.710020	0.270934	0.634398	-1.000000	-1.000000	-1.000000	-1.000000	-1.000000	-1.000000	-1.000000	61.000000	0.000000	-1.000000	-1.000000	1309679.000000	1776579020.178636
18057.735000	-4958.550000	26645.175000	63055.935000	35681.805000	18900.045000	-19286.055000	10358.550000	-1.494348	-1.493120	-4.106124	-6.955834	-8.207703	-37.383036	-3.683868	1.447474	0.534100	1.907500	0.793520	-0.710020	0.270934	0.634398	-1.000000	-1.000000	-1.000000	-1.000000	-1.000000	-1.000000	-1.000000	61.000000	0.000000	-1.000000	-1.000000	1309680.000000	1776579020.178647
18060.705000	-4956.300000	26644.365000	63049.275000	35651.745000	18903.645000	-19294.065000	10365.300000	-4.895061	-1.614213	0.056608	-2.400466	-7.159046	-43.689569	-3.637490	1.386867	0.534100	1.907500	0.793520	-0.710020	0.270934	0.634398	-1.000000	-1.000000	-1.000000	-1.000000	-1.000000	-1.000000	-1.000000	61.000000	0.000000	-1.000000	-1.000000	1309681.000000	1776579020.182643
18037.260000	-4973.040000	26629.830000	63042.165000	35749.215000	18938.160000	-19290.240000	10354.320000	-5.351389	-0.661619	4.312714	2.784399	-3.195956	-26.053642	-3.016150	1.202543	0.534100	1.907500	0.793520	-0.710020	0.270934	0.634398	-1.000000	-1.000000	-1.000000	-1.000000	-1.000000	-1.000000	-1.000000	61.000000	0.000000	-1.000000	-1.000000	1309682.000000	1776579020.182655
18021.735000	-4977.180000	26620.425000	63041.310000	35819.145000	19004.535000	-19287.720000	10340.505000	-5.319005	-0.615058	4.726708	4.788600	8.512786	5.514973	-1.719237	-0.641246	-1.419180	2.456860	1.800680	-0.708128	0.276244	0.633787	-1.000000	-1.000000	-1.000000	-1.000000	-1.000000	-1.000000	-1.000000	61.000000	0.000000	-1.000000	-1.000000	1309683.000000	1776579020.186714
18032.535000	-4961.475000	26636.535000	63058.815000	35785.125000	19009.620000	-19286.640000	10341.360000	-6.220780	-1.875230	1.011483	3.444266	26.436541	35.566737	0.592589	-4.334056	-1.419180	2.456860	1.800680	-0.708128	0.276244	0.633787	-1.000000	-1.000000	-1.000000	-1.000000	-1.000000	-1.000000	-1.000000	61.000000	0.000000	-1.000000	-1.000000	1309684.000000	1776579020.186732
18045.720000	-4953.780000	26642.610000	63062.055000	35769.105000	18988.380000	-19284.615000	10342.215000	-5.582820	-2.052090	-2.734927	1.650121	35.544439	48.747485	3.222241	-7.465890	-1.419180	2.456860	1.800680	-0.708128	0.276244	0.633787	-1.000000	-1.000000	-1.000000	-1.000000	-1.000000	-1.000000	-1.000000	61.000000	0.000000	-1.000000	-1.000000	1309685.000000	1776579020.191018
18052.245000	-4952.835000	26634.060000	63052.695000	35768.070000	18969.885000	-19286.820000	10346.760000	-0.827017	0.337188	-3.174825	1.041988	23.381829	36.664792	4.798905	-7.107551	-1.419180	2.456860	1.800680	-0.708128	0.276244	0.633787	-1.000000	-1.000000	-1.000000	-1.000000	-1.000000	-1.000000	-1.000000	61.000000	0.000000	-1.000000	-1.000000	1309686.000000	1776579020.191033
18049.365000	-4963.500000	26619.570000	63038.160000	35757.180000	18949.680000	-19280.790000	10358.190000	6.231495	3.261486	-1.557520	0.143302	-4.268773	5.344069	4.517075	-2.674880	-1.419180	2.456860	1.800680	-0.708128	0.276244	0.633787	-1.000000	-1.000000	-1.000000	-1.000000	-1.000000	-1.000000	-1.000000	61.000000	0.000000	-1.000000	-1.000000	1309687.000000	1776579020.194582
18051.435000	-4956.435000	26628.975000	63043.650000	35765.820000	18909.450000	-19288.755000	10353.870000	10.844540	3.763647	-0.710630	-2.409533	-30.262988	-28.469413	2.632383	3.615329	-1.419180	2.456860	1.800680	-0.708128	0.276244	0.633787	-1.000000	-1.000000	-1.000000	-1.000000	-1.000000	-1.000000	-1.000000	61.000000	0.000000	-1.000000	-1.000000	1309688.000000	1776579020.194596
18047.610000	-4953.330000	26639.415000	63048.960000	35763.255000	18871.110000	-19293.435000	10346.985000	10.011585	1.654062	-0.593809	-4.915219	-40.829873	-49.392083	-0.192383	7.960271	-1.419180	2.456860	1.800680	-0.708128	0.276244	0.633787	-1.000000	-1.000000	-1.000000	-1.000000	-1.000000	-1.000000	-1.000000	61.000000	0.000000	-1.000000	-1.000000	1309689.000000	1776579020.200310
18042.750000	-4958.685000	26643.960000	63052.965000	35733.285000	18881.280000	-19293.435000	10347.120000	4.464822	-1.006715	0.659421	-4.608689	-33.717978	-50.063149	-3.108793	7.645458	-1.419180	2.456860	1.800680	-0.708128	0.276244	0.633787	-1.000000	-1.000000	-1.000000	-1.000000	-1.000000	-1.000000	-1.000000	61.000000	0.000000	-1.000000	-1.000000	1309690.000000	1776579020.200324
18043.020000	-4967.550000	26634.600000	63046.710000	35712.315000	18913.230000	-19281.870000	10353.870000	-2.620140	-2.942185	2.867400	-1.352979	-17.151502	-30.265192	-4.578384	3.559088	-1.419180	2.456860	1.800680	-0.708128	0.276244	0.633787	-1.000000	-1.000000	-1.000000	-1.000000	-1.000000	-1.000000	-1.000000	61.000000	0.000000	-1.000000	-1.000000	1309691.000000	1776579020.202633
18032.040000	-4971.330000	26617.770000	63024.255000	35710.605000	18961.830000	-19275.615000	10352.070000	-7.866976	-4.154831	3.395055	1.864250	-0.909004	3.711578	-3.201861	-0.938555	-1.419180	2.456860	1.800680	-0.708128	0.276244	0.633787	-1.000000	-1.000000	-1.000000	-1.000000	-1.000000	-1.000000	-1.000000	61.000000	0.000000	-1.000000	-1.000000	1309692.000000	1776579020.202641
18022.050000	-4964.445000	26626.995000	63039.780000	35777.205000	18982.080000	-19284.570000	10340.235000	-9.697983	-4.293314	0.766004	2.359658	12.043120	38.758725	0.245238	-3.653792	-4.150720	3.189340	1.907500	-0.707701	0.277953	0.634764	-1.000000	-1.000000	-1.000000	-1.000000	-1.000000	-1.000000	-1.000000	61.000000	0.000000	-1.000000	-1.000000	1309693.000000	1776579020.206543
18026.145000	-4974.840000	26626.050000	63047.520000	35782.515000	18971.550000	-19290.825000	10333.080000	-8.297142	-2.699128	-2.818423	1.278943	23.815089	58.649069	2.755454	-4.858011	-4.150720	3.189340	1.907500	-0.707701	0.277953	0.634764	-1.000000	-1.000000	-1.000000	-1.000000	-1.000000	-1.000000	-1.000000	61.000000	0.000000	-1.000000	-1.000000	1309694.000000	1776579020.206575
18041.445000	-4971.825000	26630.730000	63047.250000	35760.195000	18952.605000	-19291.410000	10334.925000	-3.951024	0.086516	-4.041842	1.452162	32.050217	52.589524	2.211524	-5.161168	-4.150720	3.189340	1.907500	-0.707701	0.277953	0.634764	-1.000000	-1.000000	-1.000000	-1.000000	-1.000000	-1.000000	-1.000000	61.000000	0.000000	-1.000000	-1.000000	1309695.000000	1776579020.210530
18052.560000	-4962.735000	26634.780000	63045.945000	35741.430000	18950.580000	-19285.695000	10349.910000	2.838719	2.873700	-2.049652	2.943533	29.004954	23.409331	-0.282259	-3.780711	-4.150720	3.189340	1.907500	-0.707701	0.277953	0.634764	-1.000000	-1.000000	-1.000000	-1.000000	-1.000000	-1.000000	-1.000000	61.000000	0.000000	-1.000000	-1.000000	1309696.000000	1776579020.210546
18050.895000	-4957.110000	26638.695000	63050.130000	35750.295000	18934.560000	-19282.005000	10358.910000	9.624977	5.176241	1.541413	3.706255	12.782349	-13.338604	-1.947411	0.210875	-4.150720	3.189340	1.907500	-0.707701	0.277953	0.634764	-1.000000	-1.000000	-1.000000	-1.000000	-1.000000	-1.000000	-1.000000	61.000000	0.000000	-1.000000	-1.000000	1309697.000000	1776579020.217359
18044.730000	-4956.705000	26640.360000	63054.135000	35754.120000	18938.385000	-19274.715000	10359.765000	12.405933	6.494889	4.391293	2.757013	-7.666041	-39.951468	-1.254918	5.502162	-4.150720	3.189340	1.907500	-0.707701	0.277953	0.634764	-1.000000	-1.000000	-1.000000	-1.000000	-1.000000	-1.000000	-1.000000	61.000000	0.000000	-1.000000	-1.000000	1309698.000000	1776579020.217371
18044.775000	-4958.640000	26638.965000	63052.425000	35753.355000	18947.205000	-19281.420000	10356.165000	8.979578	5.781600	4.850264	0.692533	-20.981741	-46.367964	0.928261	8.645145	-4.150720	3.189340	1.907500	-0.707701	0.277953	0.634764	-1.000000	-1.000000	-1.000000	-1.000000	-1.000000	-1.000000	-1.000000	61.000000	0.000000	-1.000000	-1.000000	1309699.000000	1776579020.222970
18042.120000	-4965.165000	26625.060000	63034.380000	35734.770000	18965.070000	-19279.395000	10354.860000	1.278438	2.527484	2.479542	-1.916381	-22.907535	-33.043802	2.408947	7.116363	-4.150720	3.189340	1.907500	-0.707701	0.277953	0.634764	-1.000000	-1.000000	-1.000000	-1.000000	-1.000000	-1.000000	-1.000000	61.000000	0.000000	-1.000000	-1.000000	1309700.000000	1776579020.222986
18046.575000	-4966.695000	26618.265000	63026.460000	35720.055000	18967.905000	-19273.005000	10359.315000	-6.208639	-2.283549	-1.981350	-5.036852	-17.047320	-8.945805	2.032037	1.795627	-4.150720	3.189340	1.907500	-0.707701	0.277953	0.634764	-1.000000	-1.000000	-1.000000	-1.000000	-1.000000	-1.000000	-1.000000	61.000000	0.000000	-1.000000	-1.000000	1309701.000000	1776579020.223005
18039.600000	-4965.570000	26624.070000	63034.245000	35723.115000	18927.270000	-19277.010000	10355.130000	-9.894824	-6.382858	-6.270434	-7.517894	-8.876108	12.720521	0.542635	-3.972999	-4.150720	3.189340	1.907500	-0.707701	0.277953	0.634764	-1.000000	-1.000000	-1.000000	-1.000000	-1.000000	-1.000000	-1.000000	61.000000	0.000000	-1.000000	-1.000000	1309702.000000	1776579020.223027
18024.930000	-4967.955000	26622.810000	63032.220000	35715.555000	18876.645000	-19286.685000	10344.735000	-9.393411	-7.661909	-7.432535	-6.968756	-1.118829	20.476429	-1.188619	-7.539334	-3.830260	3.387720	0.885080	-0.707029	0.274719	0.634093	-1.000000	-1.000000	-1.000000	-1.000000	-1.000000	-1.000000	-1.000000	61.000000	0.000000	-1.000000	-1.000000	1309703.000000	1776579020.228094
18034.020000	-4963.995000	26626.365000	63034.470000	35706.195000	18897.165000	-19294.290000	10340.685000	-6.514640	-5.683444	-4.445280	-2.694566	5.256448	12.741977	-3.087074	-8.409958	-3.830260	3.387720	0.885080	-0.707029	0.274719	0.634093	-1.000000	-1.000000	-1.000000	-1.000000	-1.000000	-1.000000	-1.000000	61.000000	0.000000	-1.000000	-1.000000	1309704.000000	1776579020.228111
18044.235000	-4956.660000	26634.420000	63041.535000	35738.190000	18914.400000	-19300.545000	10335.240000	-2.265232	-1.550800	0.965309	3.213712	9.763772	0.608946	-4.774090	-7.050747	-3.830260	3.387720	0.885080	-0.707029	0.274719	0.634093	-1.000000	-1.000000	-1.000000	-1.000000	-1.000000	-1.000000	-1.000000	61.000000	0.000000	-1.000000	-1.000000	1309705.000000	1776579020.233619
18049.680000	-4954.500000	26632.755000	63040.635000	35760.510000	18952.155000	-19291.455000	10338.120000	3.149396	3.006067	5.979188	7.881640	13.344714	-2.696321	-4.942092	-3.869451	-3.830260	3.387720	0.885080	-0.707029	0.274719	0.634093	-1.000000	-1.000000	-1.000000	-1.000000	-1.000000	-1.000000	-1.000000	61.000000	0.000000	-1.000000	-1.000000	1309706.000000	1776579020.233636
18050.310000	-4956.255000	26635.545000	63052.110000	35774.730000	18966.015000	-19284.480000	10351.260000	8.082355	6.013215	8.177805	9.442361	16.395692	5.636094	-2.267318	0.784623	-3.830260	3.387720	0.885080	-0.707029	0.274719	0.634093	-1.000000	-1.000000	-1.000000	-1.000000	-1.000000	-1.000000	-1.000000	61.000000	0.000000	-1.000000	-1.000000	1309707.000000	1776579020.234754
18052.560000	-4958.370000	26630.910000	63045.585000	35773.335000	18967.095000	-19276.155000	10367.505000	9.928332	5.987017	6.612953	7.630743	16.281512	17.083371	2.884929	6.334673	-3.830260	3.387720	0.885080	-0.707029	0.274719	0.634093	-1.000000	-1.000000	-1.000000	-1.000000	-1.000000	-1.000000	-1.000000	61.000000	0.000000	-1.000000	-1.000000	1309708.000000	1776579020.234767
18045.765000	-4965.390000	26618.985000	63028.755000	35755.515000	18947.835000	-19282.365000	10360.485000	7.475168	2.958720	2.049211	2.975723	9.640307	20.235082	7.805633	10.985803	-3.830260	3.387720	0.885080	-0.707029	0.274719	0.634093	-1.000000	-1.000000	-1.000000	-1.000000	-1.000000	-1.000000	-1.000000	61.000000	0.000000	-1.000000	-1.000000	1309709.000000	1776579020.239955
18031.635000	-4970.430000	26622.135000	63035.730000	35738.460000	18933.930000	-19285.695000	10354.545000	1.576753	-1.528108	-3.523519	-3.340605	-3.514938	10.139760	9.123165	11.594950	-3.830260	3.387720	0.885080	-0.707029	0.274719	0.634093	-1.000000	-1.000000	-1.000000	-1.000000	-1.000000	-1.000000	-1.000000	61.000000	0.000000	-1.000000	-1.000000	1309710.000000	1776579020.239970
18026.640000	-4976.910000	26622.315000	63037.530000	35719.335000	18947.430000	-19282.185000	10353.105000	-5.449533	-5.335035	-7.293413	-8.348897	-18.389343	-7.773878	5.770193	6.559468	-3.830260	3.387720	0.885080	-0.707029	0.274719	0.634093	-1.000000	-1.000000	-1.000000	-1.000000	-1.000000	-1.000000	-1.000000	61.000000	0.000000	-1.000000	-1.000000	1309711.000000	1776579020.245279
18041.040000	-4970.070000	26620.695000	63028.845000	35686.575000	18948.105000	-19280.115000	10355.220000	-10.076437	-6.599924	-7.257743	-9.223609	-28.311151	-22.061150	0.096045	-1.641508	-3.830260	3.387720	0.885080	-0.707029	0.274719	0.634093	-1.000000	-1.000000	-1.000000	-1.000000	-1.000000	-1.000000	-1.000000	61.000000	0.000000	-1.000000	-1.000000	1309712.000000	1776579020.245297
18054.450000	-4955.220000	26628.435000	63039.375000	35735.085000	18943.605000	-19286.190000	10354.095000	-8.967406	-4.212588	-3.785399	-6.083103	-27.968532	-24.891511	-4.579191	-8.349371	-1.037680	1.861720	-0.091560	-0.707762	0.273620	0.634886	-1.000000	-1.000000	-1.000000	-1.000000	-1.000000	-1.000000	-1.000000	61.000000	0.000000	-1.000000	-1.000000	1309713.000000	1776579020.248085
18059.670000	-4945.140000	26635.410000	63042.075000	35772.750000	18945.180000	-19290.645000	10352.880000	-2.160223	1.401823	1.227904	-0.890113	-14.332262	-17.142052	-6.751043	-10.551711	-1.037680	1.861720	-0.091560	-0.707762	0.273620	0.634886	-1.000000	-1.000000	-1.000000	-1.000000	-1.000000	-1.000000	-1.000000	61.000000	0.000000	-1.000000	-1.000000	1309714.000000	1776579020.248102
18052.605000	-4959.855000	26628.075000	63032.985000	35744.535000	18906.165000	-19288.080000	10348.920000	5.813861	7.180026	5.445689	3.973794	8.480374	-5.563406	-6.561520	-8.399162	-1.037680	1.861720	-0.091560	-0.707762	0.273620	0.634886	-1.000000	-1.000000	-1.000000	-1.000000	-1.000000	-1.000000	-1.000000	61.000000	0.000000	-1.000000	-1.000000	1309715.000000	1776579020.250514
18036.045000	-4977.360000	26621.055000	63037.440000	35743.410000	18906.705000	-19281.600000	10340.370000	9.158376	8.493530	6.517061	6.171707	26.984892	2.794095	-4.329739	-4.169903	-1.037680	1.861720	-0.091560	-0.707762	0.273620	0.634886	-1.000000	-1.000000	-1.000000	-1.000000	-1.000000	-1.000000	-1.000000	61.000000	0.000000	-1.000000	-1.000000	1309716.000000	1776579020.250521
18038.430000	-4972.680000	26626.410000	63045.810000	35766.090000	18933.435000	-19286.595000	10340.415000	5.664603	3.611207	3.822263	5.303445	30.271649	6.381501	-0.677136	-0.279334	-1.037680	1.861720	-0.091560	-0.707762	0.273620	0.634886	-1.000000	-1.000000	-1.000000	-1.000000	-1.000000	-1.000000	-1.000000	61.000000	0.000000	-1.000000	-1.000000	1309717.000000	1776579020.254646
18038.835000	-4960.440000	26633.925000	63052.380000	35767.755000	18968.805000	-19290.105000	10349.865000	-1.336375	-3.439112	-0.273586	3.239397	20.106423	9.607704	2.678565	2.472816	-1.037680	1.861720	-0.091560	-0.707762	0.273620	0.634886	-1.000000	-1.000000	-1.000000	-1.000000	-1.000000	-1.000000	-1.000000	61.000000	0.000000	-1.000000	-1.000000	1309718.000000	1776579020.254659
18043.515000	-4947.885000	26633.070000	63051.660000	35767.935000	18970.380000	-19294.920000	10343.610000	-6.289732	-6.588886	-2.678765	1.578326	5.084322	15.186962	3.920748	4.542975	-1.037680	1.861720	-0.091560	-0.707762	0.273620	0.634886	-1.000000	-1.000000	-1.000000	-1.000000	-1.000000	-1.000000	-1.000000	61.000000	0.000000	-1.000000	-1.000000	1309719.000000	1776579020.258699
18046.530000	-4948.290000	26632.350000	63045.270000	35726.580000	18955.350000	-19291.815000	10345.545000	-6.244643	-3.865205	-2.641522	0.109687	-8.684441	18.825462	2.892934	5.746550	-1.037680	1.861720	-0.091560	-0.707762	0.273620	0.634886	-1.000000	-1.000000	-1.000000	-1.000000	-1.000000	-1.000000	-1.000000	61.000000	0.000000	-1.000000	-1.000000	1309720.000000	1776579020.258709
18043.560000	-4955.670000	26628.300000	63037.260000	35674.605000	18921.420000	-19278.495000	10353.645000	-2.329541	1.224293	-1.607865	-2.105682	-19.862348	13.749056	1.333242	5.498378	-1.037680	1.861720	-0.091560	-0.707762	0.273620	0.634886	-1.000000	-1.000000	-1.000000	-1.000000	-1.000000	-1.000000	-1.000000	61.000000	0.000000	-1.000000	-1.000000	1309721.000000	1776579020.262648
18036.135000	-4961.115000	26626.230000	63038.385000	35689.275000	18872.685000	-19288.035000	10346.130000	1.952911	3.743531	-1.067017	-4.858501	-27.304469	-1.593531	0.935325	3.972761	-1.037680	1.861720	-0.091560	-0.707762	0.273620	0.634886	-1.000000	-1.000000	-1.000000	-1.000000	-1.000000	-1.000000	-1.000000	61.000000	0.000000	-1.000000	-1.000000	1309722.000000	1776579020.262660
18037.080000	-4960.620000	26627.940000	63041.535000	35718.525000	18908.640000	-19294.965000	10342.755000	3.717845	2.006023	-1.230639	-6.364359	-25.517055	-19.847259	1.112746	1.451132	-0.396760	1.526000	-2.029580	-0.708494	0.274657	0.635374	-1.000000	-1.000000	-1.000000	-1.000000	-1.000000	-1.000000	-1.000000	61.000000	0.000000	-1.000000	-1.000000	1309723.000000	1776579020.267040
18056.340000	-4949.415000	26636.265000	63048.105000	35721.720000	18903.285000	-19290.870000	10357.785000	3.125267	-1.510420	-1.144306	-4.918852	-10.468809	-28.296251	0.287767	-1.431814	-0.396760	1.526000	-2.029580	-0.708494	0.274657	0.635374	-1.000000	-1.000000	-1.000000	-1.000000	-1.000000	-1.000000	-1.000000	61.000000	0.000000	-1.000000	-1.000000	1309724.000000	1776579020.267051
18046.485000	-4962.960000	26627.805000	63048.105000	35801.595000	18943.470000	-19285.695000	10348.740000	2.301093	-3.466842	-0.096094	-0.804790	13.065335	-19.768702	-1.193569	-3.185758	-0.396760	1.526000	-2.029580	-0.708494	0.274657	0.635374	-1.000000	-1.000000	-1.000000	-1.000000	-1.000000	-1.000000	-1.000000	61.000000	0.000000	-1.000000	-1.000000	1309725.000000	1776579020.270760
18043.830000	-4966.065000	26627.985000	63053.595000	35815.995000	18977.760000	-19284.165000	10340.550000	1.779180	-3.235038	1.159280	3.740832	34.851279	1.355075	-1.710257	-3.474121	-0.396760	1.526000	-2.029580	-0.708494	0.274657	0.635374	-1.000000	-1.000000	-1.000000	-1.000000	-1.000000	-1.000000	-1.000000	61.000000	0.000000	-1.000000	-1.000000	1309726.000000	1776579020.270772
18053.370000	-4964.895000	26624.295000	63046.080000	35779.725000	18966.780000	-19276.515000	10351.710000	0.635040	-2.112963	1.435206	6.213824	43.476467	23.012993	-0.709923	-3.249935	-0.396760	1.526000	-2.029580	-0.708494	0.274657	0.635374	-1.000000	-1.000000	-1.000000	-1.000000	-1.000000	-1.000000	-1.000000	61.000000	0.000000	-1.000000	-1.000000	1309727.000000	1776579020.274733
18044.460000	-4965.840000	26623.485000	63042.705000	35760.375000	18964.800000	-19274.715000	10352.655000	-0.981142	-0.711039	0.651528	5.303534	30.619102	32.199233	1.008218	-2.441755	-0.396760	1.526000	-2.029580	-0.708494	0.274657	0.635374	-1.000000	-1.000000	-1.000000	-1.000000	-1.000000	-1.000000	-1.000000	61.000000	0.000000	-1.000000	-1.000000	1309728.000000	1776579020.274742
18036.810000	-4966.065000	26623.080000	63037.215000	35742.825000	18962.505000	-19281.195000	10347.750000	-2.520343	0.948619	-0.359662	1.586529	0.204451	23.549589	2.026715	-0.702052	-0.396760	1.526000	-2.029580	-0.708494	0.274657	0.635374	-1.000000	-1.000000	-1.000000	-1.000000	-1.000000	-1.000000	-1.000000	61.000000	0.000000	-1.000000	-1.000000	1309729.000000	1776579020.278895
18046.710000	-4963.410000	26624.070000	63032.670000	35730.135000	18928.170000	-19293.480000	10347.795000	-3.685360	2.525615	-0.746769	-2.777217	-31.449430	2.782524	0.977353	0.984565	-0.396760	1.526000	-2.029580	-0.708494	0.274657	0.635374	-1.000000	-1.000000	-1.000000	-1.000000	-1.000000	-1.000000	-1.000000	61.000000	0.000000	-1.000000	-1.000000	1309730.000000	1776579020.278912
18040.770000	-4969.710000	26618.760000	63031.905000	35744.445000	18937.620000	-19292.940000	10343.025000	-3.588860	3.426011	-0.334489	-5.448044	-47.487299	-18.878930	-2.113328	1.505775	-0.396760	1.526000	-2.029580	-0.708494	0.274657	0.635374	-1.000000	-1.000000	-1.000000	-1.000000	-1.000000	-1.000000	-1.000000	61.000000	0.000000	-1.000000	-1.000000	1309731.000000	1776579020.282815
18042.480000	-4961.790000	26629.605000	63044.145000	35742.645000	18928.035000	-19286.910000	10346.535000	-1.869542	3.223059	0.490036	-4.956423	-40.941990	-30.929274	-4.961312	0.920314	-0.396760	1.526000	-2.029580	-0.708494	0.274657	0.635374	-1.000000	-1.000000	-1.000000	-1.000000	-1.000000	-1.000000	-1.000000	61.000000	0.000000	-1.000000	-1.000000	1309732.000000	1776579020.282835
18047.160000	-4957.515000	26632.170000	63040.995000	35702.910000	18882.855000	-19283.940000	10354.410000	0.594549	2.308544	1.562141	-1.356975	-18.367627	-29.311632	-4.832381	0.314469	-1.358140	3.280900	-0.885080	-0.707518	0.274535	0.635374	-1.000000	-1.000000	-1.000000	-1.000000	-1.000000	-1.000000	-1.000000	61.000000	0.000000	-1.000000	-1.000000	1309733.000000	1776579020.286792
18042.930000	-4959.855000	26633.250000	63047.340000	35722.620000	18917.595000	-19287.675000	10350.720000	2.709996	1.403472	2.632063	3.288321	5.930550	-17.799778	-1.507042	0.625524	-1.358140	3.280900	-0.885080	-0.707518	0.274535	0.635374	-1.000000	-1.000000	-1.000000	-1.000000	-1.000000	-1.000000	-1.000000	61.000000	0.000000	-1.000000	-1.000000	1309734.000000	1776579020.286804
18035.280000	-4966.965000	26626.455000	63050.040000	35783.370000	18987.390000	-19286.955000	10340.190000	3.417587	0.315380	2.708892	6.289199	23.032709	-0.341304	2.535358	1.198400	-1.358140	3.280900	-0.885080	-0.707518	0.274535	0.635374	-1.000000	-1.000000	-1.000000	-1.000000	-1.000000	-1.000000	-1.000000	61.000000	0.000000	-1.000000	-1.000000	1309735.000000	1776579020.292102
18041.130000	-4961.475000	26627.490000	63046.935000	35789.130000	18973.575000	-19287.630000	10339.110000	2.260737	-1.387288	1.019020	6.247828	32.889422	20.176259	4.766700	0.572883	-1.358140	3.280900	-0.885080	-0.707518	0.274535	0.635374	-1.000000	-1.000000	-1.000000	-1.000000	-1.000000	-1.000000	-1.000000	61.000000	0.000000	-1.000000	-1.000000	1309736.000000	1776579020.292111
18046.080000	-4959.765000	26629.380000	63044.685000	35767.485000	18955.665000	-19285.785000	10343.610000	0.435027	-2.937343	-1.662747	3.308662	34.624724	34.503678	4.515819	-1.089756	-1.358140	3.280900	-0.885080	-0.707518	0.274535	0.635374	-1.000000	-1.000000	-1.000000	-1.000000	-1.000000	-1.000000	-1.000000	61.000000	0.000000	-1.000000	-1.000000	1309737.000000	1776579020.294572
18044.640000	-4962.330000	26625.420000	63035.910000	35749.260000	18949.185000	-19280.925000	10349.505000	-0.408049	-3.201235	-3.617843	-1.255994	24.125092	32.012761	2.753430	-1.916929	-1.358140	3.280900	-0.885080	-0.707518	0.274535	0.635374	-1.000000	-1.000000	-1.000000	-1.000000	-1.000000	-1.000000	-1.000000	61.000000	0.000000	-1.000000	-1.000000	1309738.000000	1776579020.294579
18043.920000	-4966.830000	26620.920000	63033.165000	35726.310000	18967.860000	-19278.090000	10353.105000	-0.162456	-2.313755	-4.003468	-5.546051	2.536012	13.806790	0.923359	-0.706502	-1.358140	3.280900	-0.885080	-0.707518	0.274535	0.635374	-1.000000	-1.000000	-1.000000	-1.000000	-1.000000	-1.000000	-1.000000	61.000000	0.000000	-1.000000	-1.000000	1309739.000000	1776579020.298733
18036.270000	-4971.375000	26620.380000	63031.680000	35705.340000	18992.835000	-19281.195000	10344.555000	0.006514	-1.328182	-3.170874	-7.688968	-20.956085	-7.283656	-0.280494	1.519080	-1.358140	3.280900	-0.885080	-0.707518	0.274535	0.635374	-1.000000	-1.000000	-1.000000	-1.000000	-1.000000	-1.000000	-1.000000	61.000000	0.000000	-1.000000	-1.000000	1309740.000000	1776579020.298752
18029.880000	-4965.390000	26630.235000	63044.460000	35737.245000	18961.515000	-19286.100000	10338.210000	-0.830534	-0.703370	-1.448872	-6.401175	-34.617375	-19.572095	-1.256979	2.425751	-1.358140	3.280900	-0.885080	-0.707518	0.274535	0.635374	-1.000000	-1.000000	-1.000000	-1.000000	-1.000000	-1.000000	-1.000000	61.000000	0.000000	-1.000000	-1.000000	1309741.000000	1776579020.304282
18031.635000	-4966.875000	26624.160000	63043.785000	35755.830000	18910.260000	-19295.640000	10332.630000	-2.345183	0.073178	1.005127	-1.829032	-30.693332	-22.503482	-2.633022	0.820181	-1.358140	3.280900	-0.885080	-0.707518	0.274535	0.635374	-1.000000	-1.000000	-1.000000	-1.000000	-1.000000	-1.000000	-1.000000	61.000000	0.000000	-1.000000	-1.000000	1309742.000000	1776579020.304296
18040.230000	-4967.640000	26616.960000	63035.415000	35732.430000	18880.515000	-19294.155000	10340.595000	-2.921964	1.270557	3.055228	3.574525	-11.840250	-22.401291	-4.172782	-1.912943	-3.219860	3.021480	-1.113980	-0.707090	0.274352	0.636107	-1.000000	-1.000000	-1.000000	-1.000000	-1.000000	-1.000000	-1.000000	61.000000	0.000000	-1.000000	-1.000000	1309743.000000	1776579020.306762
18043.470000	-4959.495000	26626.275000	63038.070000	35714.205000	18873.540000	-19285.245000	10357.515000	-1.214622	2.420805	3.367022	6.419432	8.765154	-21.325187	-4.444143	-2.845451	-3.219860	3.021480	-1.113980	-0.707090	0.274352	0.636107	-1.000000	-1.000000	-1.000000	-1.000000	-1.000000	-1.000000	-1.000000	61.000000	0.000000	-1.000000	-1.000000	1309744.000000	1776579020.306770
18047.745000	-4960.665000	26631.495000	63039.555000	35741.835000	18940.995000	-19283.445000	10361.835000	2.121488	3.103552	2.451878	5.583282	19.271004	-14.048475	-2.155730	-0.340527	-3.219860	3.021480	-1.113980	-0.707090	0.274352	0.636107	-1.000000	-1.000000	-1.000000	-1.000000	-1.000000	-1.000000	-1.000000	61.000000	0.000000	-1.000000	-1.000000	1309745.000000	1776579020.310702
18040.500000	-4969.935000	26627.895000	63040.230000	35762.175000	18961.740000	-19286.955000	10350.945000	4.725418	2.808551	1.650691	2.708562	19.217210	4.212302	1.802331	3.597177	-3.219860	3.021480	-1.113980	-0.707090	0.274352	0.636107	-1.000000	-1.000000	-1.000000	-1.000000	-1.000000	-1.000000	-1.000000	61.000000	0.000000	-1.000000	-1.000000	1309746.000000	1776579020.310722
18047.205000	-4964.940000	26627.850000	63041.535000	35761.005000	18949.545000	-19282.770000	10353.060000	4.639971	1.054342	0.999663	-0.102111	14.605460	27.438771	4.849748	5.010332	-3.219860	3.021480	-1.113980	-0.707090	0.274352	0.636107	-1.000000	-1.000000	-1.000000	-1.000000	-1.000000	-1.000000	-1.000000	61.000000	0.000000	-1.000000	-1.000000	1309747.000000	1776579020.314716
18053.865000	-4953.780000	26633.655000	63044.685000	35762.760000	18942.075000	-19287.945000	10348.965000	2.238917	-1.144193	0.006288	-1.707825	8.675429	40.438824	5.258263	2.408649	-3.219860	3.021480	-1.113980	-0.707090	0.274352	0.636107	-1.000000	-1.000000	-1.000000	-1.000000	-1.000000	-1.000000	-1.000000	61.000000	0.000000	-1.000000	-1.000000	1309748.000000	1776579020.314723
18042.480000	-4957.695000	26634.735000	63044.910000	35763.840000	18950.355000	-19286.055000	10341.270000	-0.653607	-1.951972	-0.989150	-1.963657	1.587373	33.872735	3.187734	-2.259166	-3.219860	3.021480	-1.113980	-0.707090	0.274352	0.636107	-1.000000	-1.000000	-1.000000	-1.000000	-1.000000	-1.000000	-1.000000	61.000000	0.000000	-1.000000	-1.000000	1309749.000000	1776579020.320044
18027.090000	-4968.045000	26631.945000	63044.235000	35772.210000	18953.370000	-19292.265000	10328.400000	-3.366643	-1.450989	-1.527853	-1.456885	-5.633607	12.832016	-0.019278	-6.357642	-3.219860	3.021480	-1.113980	-0.707090	0.274352	0.636107	-1.000000	-1.000000	-1.000000	-1.000000	-1.000000	-1.000000	-1.000000	61.000000	0.000000	-1.000000	-1.000000	1309750.000000	1776579020.320057
18038.655000	-4961.655000	26639.055000	63050.445000	35765.145000	18948.150000	-19294.155000	10329.120000	-5.784479	-1.232063	-1.668090	-0.860369	-10.757614	-10.013706	-2.859634	-8.167918	-3.219860	3.021480	-1.113980	-0.707090	0.274352	0.636107	-1.000000	-1.000000	-1.000000	-1.000000	-1.000000	-1.000000	-1.000000	61.000000	0.000000	-1.000000	-1.000000	1309751.000000	1776579020.322755
18066.780000	-4949.280000	26638.605000	63045.405000	35734.635000	18923.400000	-19293.840000	10347.165000	-5.792525	-1.333021	-1.419864	-0.431088	-13.035245	-25.167138	-4.264205	-6.374346	-3.219860	3.021480	-1.113980	-0.707090	0.274352	0.636107	-1.000000	-1.000000	-1.000000	-1.000000	-1.000000	-1.000000	-1.000000	61.000000	0.000000	-1.000000	-1.000000	1309752.000000	1776579020.322768
18065.475000	-4940.460000	26643.645000	63049.680000	35734.455000	18918.045000	-19285.470000	10362.330000	-1.345312	-0.262647	-0.746886	-0.275256	-13.495401	-29.972742	-3.588607	-0.384818	-3.555580	2.029580	-1.754900	-0.709715	0.274596	0.635313	-1.000000	-1.000000	-1.000000	-1.000000	-1.000000	-1.000000	-1.000000	61.000000	0.000000	-1.000000	-1.000000	1309753.000000	1776579020.326731
18059.670000	-4948.425000	26637.570000	63045.405000	35755.470000	18940.455000	-19280.520000	10360.710000	5.015161	1.941620	-0.041423	-0.427020	-11.449569	-25.128243	-0.861844	7.603024	-3.555580	2.029580	-1.754900	-0.709715	0.274596	0.635313	-1.000000	-1.000000	-1.000000	-1.000000	-1.000000	-1.000000	-1.000000	61.000000	0.000000	-1.000000	-1.000000	1309754.000000	1776579020.326741
18051.210000	-4959.720000	26626.905000	63037.980000	35760.105000	18948.825000	-19281.510000	10353.420000	7.796023	2.853972	-0.130493	-0.877679	-4.629203	-12.155415	2.607118	12.548207	-3.555580	2.029580	-1.754900	-0.709715	0.274596	0.635313	-1.000000	-1.000000	-1.000000	-1.000000	-1.000000	-1.000000	-1.000000	61.000000	0.000000	-1.000000	-1.000000	1309755.000000	1776579020.330764
18045.315000	-4962.330000	26623.260000	63033.795000	35739.225000	18934.605000	-19287.000000	10347.885000	4.535425	0.637091	-1.477667	-1.666924	5.325899	4.172677	4.553001	10.593771	-3.555580	2.029580	-1.754900	-0.709715	0.274596	0.635313	-1.000000	-1.000000	-1.000000	-1.000000	-1.000000	-1.000000	-1.000000	61.000000	0.000000	-1.000000	-1.000000	1309756.000000	1776579020.330770
18047.205000	-4960.530000	26624.655000	63035.505000	35747.730000	18927.135000	-19286.595000	10346.760000	-2.096441	-3.260846	-3.066530	-2.297249	12.502222	15.860877	3.545000	2.772110	-3.555580	2.029580	-1.754900	-0.709715	0.274596	0.635313	-1.000000	-1.000000	-1.000000	-1.000000	-1.000000	-1.000000	-1.000000	61.000000	0.000000	-1.000000	-1.000000	1309757.000000	1776579020.336047
18046.485000	-4964.040000	26619.705000	63030.105000	35741.970000	18924.120000	-19287.315000	10347.750000	-7.201665	-5.582450	-3.133327	-1.875953	13.262341	17.808902	0.401904	-5.926457	-3.555580	2.029580	-1.754900	-0.709715	0.274596	0.635313	-1.000000	-1.000000	-1.000000	-1.000000	-1.000000	-1.000000	-1.000000	61.000000	0.000000	-1.000000	-1.000000	1309758.000000	1776579020.336056
18049.860000	-4965.570000	26617.320000	63029.835000	35734.635000	18933.345000	-19277.730000	10354.680000	-7.665605	-4.680792	-1.227599	-0.288540	8.805673	11.909980	-2.489869	-10.522685	-3.555580	2.029580	-1.754900	-0.709715	0.274596	0.635313	-1.000000	-1.000000	-1.000000	-1.000000	-1.000000	-1.000000	-1.000000	61.000000	0.000000	-1.000000	-1.000000	1309759.000000	1776579020.341534
18049.410000	-4962.870000	26619.255000	63032.580000	35746.830000	18944.055000	-19272.735000	10353.510000	-3.867271	-1.380296	1.574076	1.751334	2.518188	4.287323	-3.088607	-9.234176	-3.555580	2.029580	-1.754900	-0.709715	0.274596	0.635313	-1.000000	-1.000000	-1.000000	-1.000000	-1.000000	-1.000000	-1.000000	61.000000	0.000000	-1.000000	-1.000000	1309760.000000	1776579020.341550
18046.530000	-4965.660000	26625.690000	63040.635000	35746.245000	18932.085000	-19280.790000	10351.935000	1.366502	2.442585	4.128541	3.652833	-2.093812	-0.543077	-1.476632	-4.076899	-3.555580	2.029580	-1.754900	-0.709715	0.274596	0.635313	-1.000000	-1.000000	-1.000000	-1.000000	-1.000000	-1.000000	-1.000000	61.000000	0.000000	-1.000000	-1.000000	1309761.000000	1776579020.342865
18046.125000	-4965.165000	26627.760000	63036.135000	35724.105000	18892.710000	-19282.590000	10352.565000	4.990037	5.023517	5.811250	4.934099	-3.816455	-3.254041	0.199310	1.255839	-3.555580	2.029580	-1.754900	-0.709715	0.274596	0.635313	-1.000000	-1.000000	-1.000000	-1.000000	-1.000000	-1.000000	-1.000000	61.000000	0.000000	-1.000000	-1.000000	1309762.000000	1776579020.342879
18040.365000	-4962.555000	26624.475000	63028.935000	35716.230000	18887.985000	-19283.130000	10345.230000	5.560509	5.501802	5.980592	4.605545	-4.519693	-6.859316	0.277122	4.132267	-1.999060	0.946120	-1.312360	-0.709471	0.272826	0.635741	-1.000000	-1.000000	-1.000000	-1.000000	-1.000000	-1.000000	-1.000000	61.000000	0.000000	-1.000000	-1.000000	1309763.000000	1776579020.346905
18040.095000	-4953.555000	26631.900000	63042.210000	35748.810000	18932.760000	-19289.745000	10341.630000	3.556088	4.392415	4.204938	2.259530	-4.916095	-9.796212	-0.886711	3.914116	-1.999060	0.946120	-1.312360	-0.709471	0.272826	0.635741	-1.000000	-1.000000	-1.000000	-1.000000	-1.000000	-1.000000	-1.000000	61.000000	0.000000	-1.000000	-1.000000	1309764.000000	1776579020.346915
18048.780000	-4945.185000	26636.220000	63044.325000	35751.960000	18999.945000	-19293.345000	10342.260000	0.812907	2.972874	1.248211	-0.545975	-2.658296	-5.409517	-2.113496	1.717019	-1.999060	0.946120	-1.312360	-0.709471	0.272826	0.635741	-1.000000	-1.000000	-1.000000	-1.000000	-1.000000	-1.000000	-1.000000	61.000000	0.000000	-1.000000	-1.000000	1309765.000000	1776579020.352263
18048.330000	-4951.035000	26629.470000	63039.780000	35730.405000	19015.920000	-19287.810000	10345.230000	-0.672687	1.797591	-1.580722	-2.117675	2.207312	8.501923	-2.386751	-0.341687	-1.999060	0.946120	-1.312360	-0.709471	0.272826	0.635741	-1.000000	-1.000000	-1.000000	-1.000000	-1.000000	-1.000000	-1.000000	61.000000	0.000000	-1.000000	-1.000000	1309766.000000	1776579020.352276
18042.255000	-4961.925000	26618.535000	63029.340000	35714.430000	18961.605000	-19283.130000	10347.390000	-0.588110	-0.048491	-4.002053	-2.830454	4.878801	21.832389	-0.957433	-0.694805	-1.999060	0.946120	-1.312360	-0.709471	0.272826	0.635741	-1.000000	-1.000000	-1.000000	-1.000000	-1.000000	-1.000000	-1.000000	61.000000	0.000000	-1.000000	-1.000000	1309767.000000	1776579020.354914
18040.410000	-4965.930000	26612.100000	63023.760000	35741.745000	18895.680000	-19291.050000	10343.520000	-0.334640	-3.378793	-6.271427	-3.867059	2.672908	19.063571	1.738385	0.474233	-1.999060	0.946120	-1.312360	-0.709471	0.272826	0.635741	-1.000000	-1.000000	-1.000000	-1.000000	-1.000000	-1.000000	-1.000000	61.000000	0.000000	-1.000000	-1.000000	1309768.000000	1776579020.354925
18044.460000	-4965.615000	26616.555000	63033.660000	35757.990000	18917.280000	-19288.215000	10343.565000	-0.785350	-6.897061	-7.532048	-4.828082	-0.525529	-2.747468	3.841900	1.679490	-1.999060	0.946120	-1.312360	-0.709471	0.272826	0.635741	-1.000000	-1.000000	-1.000000	-1.000000	-1.000000	-1.000000	-1.000000	61.000000	0.000000	-1.000000	-1.000000	1309769.000000	1776579020.358884
18044.595000	-4963.545000	26620.470000	63037.080000	35746.920000	18919.620000	-19287.450000	10342.350000	-1.306207	-7.999441	-6.085995	-3.876986	-0.443446	-27.216523	4.020989	1.759811	-1.999060	0.946120	-1.312360	-0.709471	0.272826	0.635741	-1.000000	-1.000000	-1.000000	-1.000000	-1.000000	-1.000000	-1.000000	61.000000	0.000000	-1.000000	-1.000000	1309770.000000	1776579020.358893
18043.110000	-4962.555000	26622.135000	63033.660000	35741.475000	18898.785000	-19292.625000	10338.615000	-1.161617	-5.419745	-1.586528	-0.505480	1.402891	-35.564122	2.546252	0.710588	-1.999060	0.946120	-1.312360	-0.709471	0.272826	0.635741	-1.000000	-1.000000	-1.000000	-1.000000	-1.000000	-1.000000	-1.000000	61.000000	0.000000	-1.000000	-1.000000	1309771.000000	1776579020.362794
18046.935000	-4962.645000	26620.200000	63024.705000	35708.130000	18897.885000	-19295.145000	10343.610000	-0.467678	-0.430588	3.870220	3.079832	0.659596	-24.489605	0.263676	-0.687791	-1.999060	0.946120	-1.312360	-0.709471	0.272826	0.635741	-1.000000	-1.000000	-1.000000	-1.000000	-1.000000	-1.000000	-1.000000	61.000000	0.000000	-1.000000	-1.000000	1309772.000000	1776579020.362801
18043.020000	-4959.405000	26624.565000	63027.720000	35728.155000	18920.970000	-19301.265000	10343.880000	0.282022	4.350396	7.400315	4.341270	-3.711152	-3.152796	-2.028627	-1.420881	-1.861720	0.549360	-1.434440	-0.706297	0.269103	0.637816	-1.000000	-1.000000	-1.000000	-1.000000	-1.000000	-1.000000	-1.000000	61.000000	0.000000	-1.000000	-1.000000	1309773.000000	1776579020.368847
18043.605000	-4950.270000	26636.895000	63041.850000	35782.605000	18956.070000	-19294.290000	10344.735000	0.617796	7.046327	7.856530	3.398850	-6.607618	18.421593	-3.389538	-1.046078	-1.861720	0.549360	-1.434440	-0.706297	0.269103	0.637816	-1.000000	-1.000000	-1.000000	-1.000000	-1.000000	-1.000000	-1.000000	61.000000	0.000000	-1.000000	-1.000000	1309774.000000	1776579020.368868
18034.290000	-4963.635000	26627.535000	63041.310000	35753.310000	18973.620000	-19285.380000	10337.760000	0.218259	7.054740	5.954675	2.350477	-2.616173	33.356342	-2.777190	-0.222637	-1.861720	0.549360	-1.434440	-0.706297	0.269103	0.637816	-1.000000	-1.000000	-1.000000	-1.000000	-1.000000	-1.000000	-1.000000	61.000000	0.000000	-1.000000	-1.000000	1309775.000000	1776579020.370695
18024.255000	-4972.365000	26618.940000	63034.920000	35771.580000	18963.180000	-19285.965000	10333.800000	-1.012887	4.134241	2.289117	1.918522	5.222559	36.509370	-0.087043	-0.049823	-1.861720	0.549360	-1.434440	-0.706297	0.269103	0.637816	-1.000000	-1.000000	-1.000000	-1.000000	-1.000000	-1.000000	-1.000000	61.000000	0.000000	-1.000000	-1.000000	1309776.000000	1776579020.370704
18043.560000	-4965.705000	26620.920000	63031.320000	35760.420000	18952.875000	-19280.790000	10350.405000	-2.261272	-0.821607	-2.566276	0.839538	9.300194	25.334004	3.013512	-0.498721	-1.861720	0.549360	-1.434440	-0.706297	0.269103	0.637816	-1.000000	-1.000000	-1.000000	-1.000000	-1.000000	-1.000000	-1.000000	61.000000	0.000000	-1.000000	-1.000000	1309777.000000	1776579020.374645
18048.285000	-4962.375000	26623.800000	63034.560000	35746.605000	18939.645000	-19282.365000	10347.930000	-1.554316	-4.839281	-6.535213	-1.417564	6.269163	3.418780	4.402473	-0.222456	-1.861720	0.549360	-1.434440	-0.706297	0.269103	0.637816	-1.000000	-1.000000	-1.000000	-1.000000	-1.000000	-1.000000	-1.000000	61.000000	0.000000	-1.000000	-1.000000	1309778.000000	1776579020.374654
18042.660000	-4961.430000	26622.945000	63032.535000	35732.115000	18928.620000	-19285.605000	10337.535000	1.531552	-5.342836	-7.331174	-3.532386	-2.050864	-19.665824	3.175113	0.918848	-1.861720	0.549360	-1.434440	-0.706297	0.269103	0.637816	-1.000000	-1.000000	-1.000000	-1.000000	-1.000000	-1.000000	-1.000000	61.000000	0.000000	-1.000000	-1.000000	1309779.000000	1776579020.379923
18037.395000	-4959.315000	26626.410000	63034.785000	35724.645000	18922.680000	-19285.920000	10337.085000	4.264511	-2.683871	-4.770520	-4.044965	-10.842831	-33.806356	-0.028093	1.192197	-1.861720	0.549360	-1.434440	-0.706297	0.269103	0.637816	-1.000000	-1.000000	-1.000000	-1.000000	-1.000000	-1.000000	-1.000000	61.000000	0.000000	-1.000000	-1.000000	1309780.000000	1776579020.379939
18047.295000	-4949.640000	26634.150000	63040.365000	35719.650000	18890.730000	-19299.330000	10342.125000	4.160602	0.967359	-0.484513	-2.642084	-14.905716	-34.349520	-3.648197	-0.011241	-1.861720	0.549360	-1.434440	-0.706297	0.269103	0.637816	-1.000000	-1.000000	-1.000000	-1.000000	-1.000000	-1.000000	-1.000000	61.000000	0.000000	-1.000000	-1.000000	1309781.000000	1776579020.382685
18054.360000	-4953.240000	26625.105000	63026.100000	35712.585000	18869.130000	-19297.845000	10351.215000	2.009660	3.662468	3.384271	-0.292329	-11.931651	-24.130245	-6.191149	-1.054185	-1.861720	0.549360	-1.434440	-0.706297	0.269103	0.637816	-1.000000	-1.000000	-1.000000	-1.000000	-1.000000	-1.000000	-1.000000	61.000000	0.000000	-1.000000	-1.000000	1309782.000000	1776579020.382692
18047.520000	-4959.000000	26624.835000	63033.345000	35750.655000	18922.275000	-19292.040000	10343.925000	-0.085596	4.041972	4.852926	1.317925	-2.997735	-8.388576	-6.349340	-0.596372	-1.144500	2.655240	-1.236060	-0.704771	0.268432	0.639342	-1.000000	-1.000000	-1.000000	-1.000000	-1.000000	-1.000000	-1.000000	61.000000	0.000000	-1.000000	-1.000000	1309783.000000	1776579020.386964
18047.520000	-4958.145000	26630.325000	63043.335000	35764.020000	18956.070000	-19287.180000	10343.835000	-1.583810	1.757867	3.493553	1.766653	9.164480	10.598009	-3.348658	0.528455	-1.144500	2.655240	-1.236060	-0.704771	0.268432	0.639342	-1.000000	-1.000000	-1.000000	-1.000000	-1.000000	-1.000000	-1.000000	61.000000	0.000000	-1.000000	-1.000000	1309784.000000	1776579020.386984
18036.720000	-4966.830000	26621.820000	63037.980000	35762.220000	18977.310000	-19286.460000	10339.290000	-3.029830	-1.862701	0.840798	2.055821	19.699013	29.581812	1.712436	0.738639	-1.144500	2.655240	-1.236060	-0.704771	0.268432	0.639342	-1.000000	-1.000000	-1.000000	-1.000000	-1.000000	-1.000000	-1.000000	61.000000	0.000000	-1.000000	-1.000000	1309785.000000	1776579020.393245
18031.455000	-4971.195000	26614.305000	63026.280000	35733.150000	18952.965000	-19291.050000	10335.105000	-4.533351	-4.851745	-1.664910	2.044521	21.836601	39.805561	5.970120	-0.334354	-1.144500	2.655240	-1.236060	-0.704771	0.268432	0.639342	-1.000000	-1.000000	-1.000000	-1.000000	-1.000000	-1.000000	-1.000000	61.000000	0.000000	-1.000000	-1.000000	1309786.000000	1776579020.393257
18047.655000	-4956.705000	26628.390000	63034.605000	35735.580000	18938.205000	-19297.215000	10339.335000	-5.051543	-5.579969	-3.220011	0.747456	12.421269	32.804855	6.845085	-1.744262	-1.144500	2.655240	-1.236060	-0.704771	0.268432	0.639342	-1.000000	-1.000000	-1.000000	-1.000000	-1.000000	-1.000000	-1.000000	61.000000	0.000000	-1.000000	-1.000000	1309787.000000	1776579020.396330
18053.955000	-4954.995000	26624.520000	63022.185000	35693.460000	18902.160000	-19294.020000	10346.895000	-2.861883	-3.059934	-2.811996	-1.335721	-4.092937	9.425967	4.096988	-1.981765	-1.144500	2.655240	-1.236060	-0.704771	0.268432	0.639342	-1.000000	-1.000000	-1.000000	-1.000000	-1.000000	-1.000000	-1.000000	61.000000	0.000000	-1.000000	-1.000000	1309788.000000	1776579020.396346
18043.560000	-4968.630000	26609.130000	63008.370000	35695.395000	18902.250000	-19287.990000	10345.410000	1.689285	1.407350	-0.811304	-3.144185	-19.159618	-18.958495	0.108031	-0.347775	-1.144500	2.655240	-1.236060	-0.704771	0.268432	0.639342	-1.000000	-1.000000	-1.000000	-1.000000	-1.000000	-1.000000	-1.000000	61.000000	0.000000	-1.000000	-1.000000	1309789.000000	1776579020.401094
18021.780000	-4978.665000	26604.855000	63014.265000	35744.580000	18951.795000	-19289.115000	10327.320000	4.922771	4.220287	0.509235	-4.187351	-24.303443	-36.556686	-2.327841	1.673683	-1.144500	2.655240	-1.236060	-0.704771	0.268432	0.639342	-1.000000	-1.000000	-1.000000	-1.000000	-1.000000	-1.000000	-1.000000	61.000000	0.000000	-1.000000	-1.000000	1309790.000000	1776579020.401122
18021.465000	-4978.305000	26605.170000	63021.285000	35731.755000	18935.595000	-19292.265000	10327.410000	3.678435	3.290808	0.106862	-3.385898	-15.220273	-33.392860	-2.529782	1.700877	-1.144500	2.655240	-1.236060	-0.704771	0.268432	0.639342	-1.000000	-1.000000	-1.000000	-1.000000	-1.000000	-1.000000	-1.000000	61.000000	0.000000	-1.000000	-1.000000	1309791.000000	1776579020.402884
18035.010000	-4966.380000	26617.095000	63036.360000	35747.505000	18911.115000	-19285.605000	10341.810000	-0.335943	0.554713	-0.372767	0.294867	2.547233	-14.630033	-1.609639	-0.072943	-1.144500	2.655240	-1.236060	-0.704771	0.268432	0.639342	-1.000000	-1.000000	-1.000000	-1.000000	-1.000000	-1.000000	-1.000000	61.000000	0.000000	-1.000000	-1.000000	1309792.000000	1776579020.402893
18066.285000	-4947.705000	26633.880000	63049.365000	35781.165000	18944.820000	-19287.855000	10350.270000	-1.882740	-0.241455	1.232081	5.906027	17.927999	5.134405	-0.549898	-0.734494	-3.448760	2.868880	-0.259420	-0.706480	0.270080	0.637389	-1.000000	-1.000000	-1.000000	-1.000000	-1.000000	-1.000000	-1.000000	61.000000	0.000000	-1.000000	-1.000000	1309793.000000	1776579020.408114
18062.325000	-4950.270000	26634.330000	63040.050000	35757.855000	18979.110000	-19290.690000	10349.145000	1.728751	2.231378	4.863846	10.258886	23.730366	17.511012	0.120881	1.135872	-3.448760	2.868880	-0.259420	-0.706480	0.270080	0.637389	-1.000000	-1.000000	-1.000000	-1.000000	-1.000000	-1.000000	-1.000000	61.000000	0.000000	-1.000000	-1.000000	1309794.000000	1776579020.408120
18049.410000	-4954.140000	26637.390000	63041.130000	35736.570000	18939.420000	-19296.450000	10343.565000	6.753704	5.167063	7.665223	9.780089	17.530154	21.860773	-0.071917	3.411422	-3.448760	2.868880	-0.259420	-0.706480	0.270080	0.637389	-1.000000	-1.000000	-1.000000	-1.000000	-1.000000	-1.000000	-1.000000	61.000000	0.000000	-1.000000	-1.000000	1309795.000000	1776579020.414853
18050.130000	-4947.120000	26638.920000	63035.865000	35728.200000	18931.185000	-19303.605000	10339.380000	7.115681	4.951088	6.734195	3.790403	1.592427	17.255908	-1.173610	3.203134	-3.448760	2.868880	-0.259420	-0.706480	0.270080	0.637389	-1.000000	-1.000000	-1.000000	-1.000000	-1.000000	-1.000000	-1.000000	61.000000	0.000000	-1.000000	-1.000000	1309796.000000	1776579020.414872
18047.025000	-4954.500000	26630.235000	63030.870000	35731.620000	18980.145000	-19293.795000	10340.820000	1.590909	1.179781	1.857150	-4.589096	-15.581493	5.475954	-2.283939	0.166546	-3.448760	2.868880	-0.259420	-0.706480	0.270080	0.637389	-1.000000	-1.000000	-1.000000	-1.000000	-1.000000	-1.000000	-1.000000	61.000000	0.000000	-1.000000	-1.000000	1309797.000000	1776579020.415044
18051.480000	-4951.755000	26626.905000	63028.395000	35749.305000	18964.305000	-19284.480000	10344.420000	-5.604794	-3.819866	-4.807972	-11.068140	-23.821397	-5.390138	-1.748944	-3.339329	-3.448760	2.868880	-0.259420	-0.706480	0.270080	0.637389	-1.000000	-1.000000	-1.000000	-1.000000	-1.000000	-1.000000	-1.000000	61.000000	0.000000	-1.000000	-1.000000	1309798.000000	1776579020.415049
18039.285000	-4961.520000	26617.275000	63020.385000	35763.435000	18922.365000	-19283.310000	10337.670000	-9.849895	-7.514493	-10.294900	-12.918280	-18.623323	-10.581299	1.054006	-4.872115	-3.448760	2.868880	-0.259420	-0.706480	0.270080	0.637389	-1.000000	-1.000000	-1.000000	-1.000000	-1.000000	-1.000000	-1.000000	61.000000	0.000000	-1.000000	-1.000000	1309799.000000	1776579020.419616
18033.840000	-4965.705000	26617.230000	63024.570000	35759.250000	18928.620000	-19283.805000	10339.830000	-9.774102	-8.607819	-12.200566	-9.927997	-4.230976	-12.806815	4.293904	-4.033404	-3.448760	2.868880	-0.259420	-0.706480	0.270080	0.637389	-1.000000	-1.000000	-1.000000	-1.000000	-1.000000	-1.000000	-1.000000	61.000000	0.000000	-1.000000	-1.000000	1309800.000000	1776579020.419629
18035.235000	-4964.625000	26624.520000	63035.910000	35758.800000	18929.295000	-19287.405000	10342.755000	-6.584558	-7.044353	-9.491501	-3.502747	9.711452	-13.398424	5.282916	-1.793947	-3.448760	2.868880	-0.259420	-0.706480	0.270080	0.637389	-1.000000	-1.000000	-1.000000	-1.000000	-1.000000	-1.000000	-1.000000	61.000000	0.000000	-1.000000	-1.000000	1309801.000000	1776579020.425439
18033.570000	-4963.185000	26630.460000	63038.385000	35750.430000	18930.510000	-19288.845000	10345.590000	-1.794713	-3.289053	-2.827439	4.213747	15.444490	-9.914837	3.063298	0.885721	-3.448760	2.868880	-0.259420	-0.706480	0.270080	0.637389	-1.000000	-1.000000	-1.000000	-1.000000	-1.000000	-1.000000	-1.000000	61.000000	0.000000	-1.000000	-1.000000	1309802.000000	1776579020.425453
18040.455000	-4968.090000	26623.755000	63029.340000	35728.200000	18930.960000	-19293.345000	10344.915000	3.292151	1.501966	4.996240	10.056746	11.399534	-2.016073	-1.019200	3.090389	-2.304260	2.884140	-0.091560	-0.710142	0.268615	0.636839	-1.000000	-1.000000	-1.000000	-1.000000	-1.000000	-1.000000	-1.000000	61.000000	0.000000	-1.000000	-1.000000	1309803.000000	1776579020.428180
18049.905000	-4963.005000	26614.935000	63014.985000	35719.290000	18924.165000	-19289.745000	10345.005000	7.502479	5.483155	9.878538	10.772677	1.266360	6.796332	-4.555422	3.907320	-2.304260	2.884140	-0.091560	-0.710142	0.268615	0.636839	-1.000000	-1.000000	-1.000000	-1.000000	-1.000000	-1.000000	-1.000000	61.000000	0.000000	-1.000000	-1.000000	1309804.000000	1776579020.428193
18044.955000	-4959.675000	26614.440000	63015.255000	35746.965000	18906.075000	-19286.955000	10339.920000	9.744125	7.422876	9.398400	5.864351	-7.994845	11.905236	-5.564258	2.941734	-2.304260	2.884140	-0.091560	-0.710142	0.268615	0.636839	-1.000000	-1.000000	-1.000000	-1.000000	-1.000000	-1.000000	-1.000000	61.000000	0.000000	-1.000000	-1.000000	1309805.000000	1776579020.432194
18041.535000	-4962.060000	26617.905000	63021.735000	35744.985000	18910.485000	-19293.345000	10335.060000	8.782035	7.180892	4.979679	-1.055135	-9.784392	11.011618	-3.768545	0.567930	-2.304260	2.884140	-0.091560	-0.710142	0.268615	0.636839	-1.000000	-1.000000	-1.000000	-1.000000	-1.000000	-1.000000	-1.000000	61.000000	0.000000	-1.000000	-1.000000	1309806.000000	1776579020.432205
18045.360000	-4965.390000	26624.025000	63029.655000	35745.120000	18924.660000	-19293.390000	10339.830000	4.475744	4.957299	0.372269	-5.032883	-3.675377	6.382439	-0.806121	-2.036052	-2.304260	2.884140	-0.091560	-0.710142	0.268615	0.636839	-1.000000	-1.000000	-1.000000	-1.000000	-1.000000	-1.000000	-1.000000	61.000000	0.000000	-1.000000	-1.000000	1309807.000000	1776579020.434865
18042.930000	-4966.155000	26625.645000	63031.050000	35748.360000	18932.670000	-19296.225000	10338.660000	-1.149395	1.320106	-1.736647	-4.064152	4.517232	2.645259	1.437478	-3.284924	-2.304260	2.884140	-0.091560	-0.710142	0.268615	0.636839	-1.000000	-1.000000	-1.000000	-1.000000	-1.000000	-1.000000	-1.000000	61.000000	0.000000	-1.000000	-1.000000	1309808.000000	1776579020.434875
18040.680000	-4963.950000	26631.270000	63039.330000	35759.475000	18940.545000	-19295.820000	10341.135000	-5.493666	-2.332342	-1.310009	-0.101227	9.276616	1.940731	2.302551	-2.460040	-2.304260	2.884140	-0.091560	-0.710142	0.268615	0.636839	-1.000000	-1.000000	-1.000000	-1.000000	-1.000000	-1.000000	-1.000000	61.000000	0.000000	-1.000000	-1.000000	1309809.000000	1776579020.440261
18038.070000	-4958.280000	26630.955000	63034.110000	35719.110000	18917.820000	-19294.380000	10337.760000	-7.268575	-4.306610	0.025955	3.393409	8.432046	2.219317	2.206592	-0.377713	-2.304260	2.884140	-0.091560	-0.710142	0.268615	0.636839	-1.000000	-1.000000	-1.000000	-1.000000	-1.000000	-1.000000	-1.000000	61.000000	0.000000	-1.000000	-1.000000	1309810.000000	1776579020.440271
