Channel1	Channel2	Channel3	Channel4	Channel5	Channel6	Channel7	Channel8	FilteredChannel1	FilteredChannel2	FilteredChannel3	FilteredChannel4	FilteredChannel5	FilteredChannel6	FilteredChannel7	FilteredChannel8	GyroX	GyroY	GyroZ	AccX	AccY	AccZ	PPG1	PPG2	rawPPG1	rawPPG2	rawPPG3	Hr	Hrv	Battery	Trigger	PhysicalTrigger	AutoTrigger	NumMeasurements	Timestamp
-10121.490000	-2169.225000	14785.380000	40972.545000	23491.170000	4359.510000	-22695.480000	-6208.965000	-3.078380	-0.588111	-0.889362	-1.464869	-0.363632	-4.098851	-1.979354	-3.951367	0.137340	1.846460	-0.503580	-0.718870	-0.138977	0.668394	-1.000000	-1.000000	-1.000000	-1.000000	-1.000000	-1.000000	-1.000000	52.000000	0.000000	-1.000000	-1.000000	320406.000000	1775800449.033539
-10125.225000	-2171.880000	14784.030000	40971.060000	23491.080000	4352.760000	-22702.275000	-6215.220000	-2.105235	-1.072228	-0.957502	-1.484937	0.656750	-1.598462	-0.997410	-1.447364	0.137340	1.846460	-0.503580	-0.718870	-0.138977	0.668394	-1.000000	-1.000000	-1.000000	-1.000000	-1.000000	-1.000000	-1.000000	52.000000	0.000000	-1.000000	-1.000000	320407.000000	1775800449.033565
-10122.840000	-2169.720000	14785.695000	40973.850000	23490.585000	4360.770000	-22695.570000	-6213.105000	-0.417411	-1.072373	-0.530173	-0.879322	1.472768	0.465211	-0.001802	0.956612	0.137340	1.846460	-0.503580	-0.718870	-0.138977	0.668394	-1.000000	-1.000000	-1.000000	-1.000000	-1.000000	-1.000000	-1.000000	52.000000	0.000000	-1.000000	-1.000000	320408.000000	1775800449.038157
-10118.295000	-2166.615000	14789.295000	40978.170000	23481.225000	4369.770000	-22688.775000	-6209.325000	0.960086	-0.870007	-0.223480	-0.291975	0.926901	2.229244	1.142775	2.248586	0.137340	1.846460	-0.503580	-0.718870	-0.138977	0.668394	-1.000000	-1.000000	-1.000000	-1.000000	-1.000000	-1.000000	-1.000000	52.000000	0.000000	-1.000000	-1.000000	320409.000000	1775800449.038183
-10117.530000	-2166.390000	14789.070000	40977.720000	23484.555000	4351.455000	-22695.165000	-6209.370000	1.807073	-0.486095	-0.200887	0.046236	-1.116186	3.810693	2.636017	2.696140	2.380560	2.304260	0.015260	-0.716856	-0.137390	0.668822	-1.000000	-1.000000	-1.000000	-1.000000	-1.000000	-1.000000	-1.000000	52.000000	0.000000	-1.000000	-1.000000	320410.000000	1775800449.041087
-10115.505000	-2164.500000	14789.430000	40975.650000	23486.355000	4349.160000	-22694.625000	-6206.130000	2.095815	-0.019433	-0.390415	-0.023761	-3.221391	3.799527	3.492976	2.672781	2.380560	2.304260	0.015260	-0.716856	-0.137390	0.668822	-1.000000	-1.000000	-1.000000	-1.000000	-1.000000	-1.000000	-1.000000	52.000000	0.000000	-1.000000	-1.000000	320411.000000	1775800449.041176
-10116.720000	-2167.380000	14783.355000	40965.210000	23468.940000	4354.155000	-22692.735000	-6204.420000	1.664803	0.216855	-0.849953	-0.834092	-3.929077	1.547254	2.749297	2.221789	2.380560	2.304260	0.015260	-0.716856	-0.137390	0.668822	-1.000000	-1.000000	-1.000000	-1.000000	-1.000000	-1.000000	-1.000000	52.000000	0.000000	-1.000000	-1.000000	320412.000000	1775800449.042635
-10123.695000	-2176.965000	14774.085000	40958.055000	23468.175000	4360.635000	-22692.330000	-6207.165000	0.405793	-0.190528	-1.744790	-2.468778	-3.469129	-0.921746	0.886172	1.291813	2.380560	2.304260	0.015260	-0.716856	-0.137390	0.668822	-1.000000	-1.000000	-1.000000	-1.000000	-1.000000	-1.000000	-1.000000	52.000000	0.000000	-1.000000	-1.000000	320413.000000	1775800449.042658
-10129.005000	-2182.950000	14769.045000	40956.210000	23474.070000	4374.135000	-22689.630000	-6208.695000	-1.561510	-1.467384	-2.962423	-4.116839	-2.318888	-1.199802	-0.905680	-0.167415	2.380560	2.304260	0.015260	-0.716856	-0.137390	0.668822	-1.000000	-1.000000	-1.000000	-1.000000	-1.000000	-1.000000	-1.000000	52.000000	0.000000	-1.000000	-1.000000	320414.000000	1775800449.054416
-10133.730000	-2188.215000	14761.845000	40948.560000	23463.900000	4366.665000	-22695.165000	-6213.870000	-3.559731	-3.024677	-3.748063	-4.378401	-0.201594	0.736902	-1.947661	-1.946649	2.380560	2.304260	0.015260	-0.716856	-0.137390	0.668822	-1.000000	-1.000000	-1.000000	-1.000000	-1.000000	-1.000000	-1.000000	52.000000	0.000000	-1.000000	-1.000000	320415.000000	1775800449.054443
-10135.125000	-2184.030000	14766.705000	40951.710000	23475.105000	4366.080000	-22696.110000	-6216.255000	-4.438168	-3.471498	-3.065303	-2.558116	2.507180	2.436535	-2.375441	-3.460256	2.380560	2.304260	0.015260	-0.716856	-0.137390	0.668822	-1.000000	-1.000000	-1.000000	-1.000000	-1.000000	-1.000000	-1.000000	52.000000	0.000000	-1.000000	-1.000000	320416.000000	1775800449.054464
-10134.855000	-2182.410000	14769.045000	40955.220000	23479.965000	4364.595000	-22694.850000	-6215.265000	-3.357001	-1.705034	-0.364007	0.938173	4.963424	1.690754	-2.432059	-3.940879	2.380560	2.304260	0.015260	-0.716856	-0.137390	0.668822	-1.000000	-1.000000	-1.000000	-1.000000	-1.000000	-1.000000	-1.000000	52.000000	0.000000	-1.000000	-1.000000	320417.000000	1775800449.054476
-10134.990000	-2182.815000	14768.145000	40950.855000	23472.945000	4356.630000	-22698.045000	-6216.705000	-0.513293	1.821651	3.592974	4.816198	6.360885	-1.258301	-1.983599	-2.879094	2.380560	2.304260	0.015260	-0.716856	-0.137390	0.668822	-1.000000	-1.000000	-1.000000	-1.000000	-1.000000	-1.000000	-1.000000	52.000000	0.000000	-1.000000	-1.000000	320418.000000	1775800449.056760
-10136.250000	-2182.860000	14768.685000	40950.405000	23474.610000	4356.720000	-22697.235000	-6218.415000	2.813321	5.130447	6.754404	7.143114	5.585039	-4.524155	-1.018481	-0.634784	2.380560	2.304260	0.015260	-0.716856	-0.137390	0.668822	-1.000000	-1.000000	-1.000000	-1.000000	-1.000000	-1.000000	-1.000000	52.000000	0.000000	-1.000000	-1.000000	320419.000000	1775800449.056782
-10138.140000	-2184.345000	14768.955000	40952.385000	23481.000000	4364.415000	-22697.370000	-6220.080000	5.002701	6.305083	7.354306	6.718105	2.605654	-5.938801	0.167611	1.659685	0.824040	0.656180	0.610400	-0.717100	-0.132751	0.670469	-1.000000	-1.000000	-1.000000	-1.000000	-1.000000	-1.000000	-1.000000	52.000000	0.000000	-1.000000	-1.000000	320420.000000	1775800449.067601
-10135.575000	-2181.420000	14771.520000	40956.120000	23483.205000	4363.245000	-22697.145000	-6217.695000	5.182743	4.910250	5.271403	4.171296	-0.805548	-4.231654	1.246902	3.048364	0.824040	0.656180	0.610400	-0.717100	-0.132751	0.670469	-1.000000	-1.000000	-1.000000	-1.000000	-1.000000	-1.000000	-1.000000	52.000000	0.000000	-1.000000	-1.000000	320421.000000	1775800449.067629
-10131.705000	-2177.415000	14775.840000	40960.845000	23487.030000	4363.605000	-22695.030000	-6213.915000	3.781355	2.089139	1.854077	1.172024	-2.928311	-0.339024	1.954552	3.417605	0.824040	0.656180	0.610400	-0.717100	-0.132751	0.670469	-1.000000	-1.000000	-1.000000	-1.000000	-1.000000	-1.000000	-1.000000	52.000000	0.000000	-1.000000	-1.000000	320422.000000	1775800449.067657
-10138.230000	-2186.145000	14766.750000	40950.045000	23471.010000	4352.760000	-22704.255000	-6219.405000	1.762859	-0.706972	-1.410802	-1.238423	-3.725750	3.089086	1.991014	3.035552	0.824040	0.656180	0.610400	-0.717100	-0.132751	0.670469	-1.000000	-1.000000	-1.000000	-1.000000	-1.000000	-1.000000	-1.000000	52.000000	0.000000	-1.000000	-1.000000	320423.000000	1775800449.067669
-10137.780000	-2188.080000	14762.565000	40944.375000	23463.855000	4348.710000	-22705.200000	-6217.920000	-0.398864	-2.961536	-4.020242	-3.324988	-4.465087	3.859104	1.038029	1.899415	0.824040	0.656180	0.610400	-0.717100	-0.132751	0.670469	-1.000000	-1.000000	-1.000000	-1.000000	-1.000000	-1.000000	-1.000000	52.000000	0.000000	-1.000000	-1.000000	320424.000000	1775800449.067683
-10135.260000	-2185.875000	14765.760000	40948.560000	23470.110000	4352.085000	-22701.105000	-6215.490000	-2.312810	-4.465869	-5.743924	-5.206164	-5.437228	2.103389	-0.478311	0.237321	0.824040	0.656180	0.610400	-0.717100	-0.132751	0.670469	-1.000000	-1.000000	-1.000000	-1.000000	-1.000000	-1.000000	-1.000000	52.000000	0.000000	-1.000000	-1.000000	320425.000000	1775800449.067694
-10129.500000	-2179.395000	14773.500000	40956.120000	23476.410000	4347.855000	-22698.675000	-6211.755000	-3.122821	-4.428932	-5.615058	-5.590023	-4.880973	-0.061914	-1.253122	-1.093084	0.824040	0.656180	0.610400	-0.717100	-0.132751	0.670469	-1.000000	-1.000000	-1.000000	-1.000000	-1.000000	-1.000000	-1.000000	52.000000	0.000000	-1.000000	-1.000000	320426.000000	1775800449.071303
-10131.165000	-2180.520000	14772.015000	40952.205000	23472.180000	4342.005000	-22700.745000	-6214.320000	-2.387270	-2.439660	-3.068200	-3.445946	-1.610297	-1.037786	-0.639207	-1.504825	0.824040	0.656180	0.610400	-0.717100	-0.132751	0.670469	-1.000000	-1.000000	-1.000000	-1.000000	-1.000000	-1.000000	-1.000000	52.000000	0.000000	-1.000000	-1.000000	320427.000000	1775800449.071320
-10135.575000	-2184.840000	14765.895000	40943.880000	23462.235000	4339.080000	-22703.130000	-6218.460000	-0.962092	0.346183	0.492614	-0.095247	2.590003	-0.935838	0.508926	-1.411460	0.824040	0.656180	0.610400	-0.717100	-0.132751	0.670469	-1.000000	-1.000000	-1.000000	-1.000000	-1.000000	-1.000000	-1.000000	52.000000	0.000000	-1.000000	-1.000000	320428.000000	1775800449.084552
-10133.055000	-2180.790000	14771.655000	40952.295000	23472.225000	4352.940000	-22701.870000	-6219.270000	-0.151565	2.124224	2.801665	2.155902	4.961061	-0.125668	1.011126	-1.548546	0.824040	0.656180	0.610400	-0.717100	-0.132751	0.670469	-1.000000	-1.000000	-1.000000	-1.000000	-1.000000	-1.000000	-1.000000	52.000000	0.000000	-1.000000	-1.000000	320429.000000	1775800449.084579
-10137.375000	-2184.750000	14767.560000	40947.480000	23467.275000	4352.355000	-22704.480000	-6226.920000	-0.282077	2.230918	3.050389	2.665730	4.896470	1.569368	0.602876	-2.032728	-0.137340	0.457800	1.495480	-0.719969	-0.130066	0.669981	-1.000000	-1.000000	-1.000000	-1.000000	-1.000000	-1.000000	-1.000000	52.000000	0.000000	-1.000000	-1.000000	320430.000000	1775800449.084606
-10137.150000	-2183.715000	14769.045000	40949.415000	23472.720000	4351.365000	-22703.040000	-6229.080000	-0.797034	1.208949	1.934919	2.156801	3.520388	3.499061	-0.209681	-2.463083	-0.137340	0.457800	1.495480	-0.719969	-0.130066	0.669981	-1.000000	-1.000000	-1.000000	-1.000000	-1.000000	-1.000000	-1.000000	52.000000	0.000000	-1.000000	-1.000000	320431.000000	1775800449.084616
-10134.315000	-2182.230000	14770.530000	40954.410000	23487.255000	4360.680000	-22694.895000	-6220.170000	-0.996883	-0.033058	0.489777	1.383160	2.147593	4.161857	-0.648278	-2.111617	-0.137340	0.457800	1.495480	-0.719969	-0.130066	0.669981	-1.000000	-1.000000	-1.000000	-1.000000	-1.000000	-1.000000	-1.000000	52.000000	0.000000	-1.000000	-1.000000	320432.000000	1775800449.084626
-10135.395000	-2183.265000	14770.980000	40955.130000	23486.265000	4360.500000	-22694.130000	-6216.345000	-0.435702	-0.727964	-0.447290	0.920362	1.663319	3.069915	-0.130313	-0.199135	-0.137340	0.457800	1.495480	-0.719969	-0.130066	0.669981	-1.000000	-1.000000	-1.000000	-1.000000	-1.000000	-1.000000	-1.000000	52.000000	0.000000	-1.000000	-1.000000	320433.000000	1775800449.084634
-10135.305000	-2181.015000	14774.400000	40955.400000	23480.325000	4354.065000	-22698.630000	-6217.830000	0.639960	-0.676290	-0.575058	0.787896	1.411178	0.703407	0.857529	2.806065	-0.137340	0.457800	1.495480	-0.719969	-0.130066	0.669981	-1.000000	-1.000000	-1.000000	-1.000000	-1.000000	-1.000000	-1.000000	52.000000	0.000000	-1.000000	-1.000000	320434.000000	1775800449.093590
-10138.005000	-2184.885000	14769.045000	40948.245000	23470.020000	4343.085000	-22706.370000	-6221.925000	1.451551	-0.236852	-0.234639	0.341670	-0.333147	-2.586785	0.897769	4.871124	-0.137340	0.457800	1.495480	-0.719969	-0.130066	0.669981	-1.000000	-1.000000	-1.000000	-1.000000	-1.000000	-1.000000	-1.000000	52.000000	0.000000	-1.000000	-1.000000	320435.000000	1775800449.093618
-10132.875000	-2180.565000	14772.060000	40948.965000	23464.215000	4340.970000	-22704.660000	-6217.965000	1.542962	0.127672	-0.061083	-0.884033	-3.925019	-6.060609	-0.620493	4.407932	-0.137340	0.457800	1.495480	-0.719969	-0.130066	0.669981	-1.000000	-1.000000	-1.000000	-1.000000	-1.000000	-1.000000	-1.000000	52.000000	0.000000	-1.000000	-1.000000	320436.000000	1775800449.093643
-10132.830000	-2182.635000	14768.010000	40944.195000	23459.805000	4340.880000	-22704.705000	-6217.110000	1.192196	0.275710	-0.331643	-2.421224	-7.455594	-7.947100	-2.486297	1.946454	-0.137340	0.457800	1.495480	-0.719969	-0.130066	0.669981	-1.000000	-1.000000	-1.000000	-1.000000	-1.000000	-1.000000	-1.000000	52.000000	0.000000	-1.000000	-1.000000	320437.000000	1775800449.093654
-10127.790000	-2180.115000	14769.720000	40947.435000	23473.305000	4341.870000	-22702.680000	-6212.790000	0.890711	0.311215	-0.782062	-3.203342	-8.116549	-6.616956	-2.955677	-0.685976	-0.137340	0.457800	1.495480	-0.719969	-0.130066	0.669981	-1.000000	-1.000000	-1.000000	-1.000000	-1.000000	-1.000000	-1.000000	52.000000	0.000000	-1.000000	-1.000000	320438.000000	1775800449.095929
-10123.560000	-2177.550000	14772.870000	40952.250000	23491.080000	4353.930000	-22698.720000	-6212.070000	0.834896	0.348687	-0.913698	-2.403892	-4.110037	-2.084638	-1.473409	-2.135012	-0.137340	0.457800	1.495480	-0.719969	-0.130066	0.669981	-1.000000	-1.000000	-1.000000	-1.000000	-1.000000	-1.000000	-1.000000	52.000000	0.000000	-1.000000	-1.000000	320439.000000	1775800449.095953
-10125.090000	-2178.720000	14772.735000	40951.845000	23486.985000	4354.425000	-22698.540000	-6217.785000	0.832047	0.432943	-0.375091	-0.104859	3.329691	3.888307	1.087421	-2.376787	-2.304260	0.625660	1.480220	-0.725279	-0.130188	0.670286	-1.000000	-1.000000	-1.000000	-1.000000	-1.000000	-1.000000	-1.000000	52.000000	0.000000	-1.000000	-1.000000	320440.000000	1775800449.108822
-10121.895000	-2172.825000	14778.720000	40957.920000	23489.595000	4359.960000	-22694.850000	-6213.555000	0.421594	0.475850	0.658953	2.522788	9.653415	8.532118	3.224319	-2.193234	-2.304260	0.625660	1.480220	-0.725279	-0.130188	0.670286	-1.000000	-1.000000	-1.000000	-1.000000	-1.000000	-1.000000	-1.000000	52.000000	0.000000	-1.000000	-1.000000	320441.000000	1775800449.108848
-10118.745000	-2168.280000	14784.210000	40962.555000	23485.320000	4347.180000	-22697.955000	-6212.295000	-0.479237	0.524056	1.742507	4.176777	10.625355	9.333857	3.785560	-1.878453	-2.304260	0.625660	1.480220	-0.725279	-0.130188	0.670286	-1.000000	-1.000000	-1.000000	-1.000000	-1.000000	-1.000000	-1.000000	52.000000	0.000000	-1.000000	-1.000000	320442.000000	1775800449.108876
-10127.070000	-2176.740000	14773.995000	40951.755000	23475.645000	4317.030000	-22710.420000	-6219.945000	-1.525806	0.504815	2.240732	4.053071	5.749513	5.045994	2.289724	-1.305783	-2.304260	0.625660	1.480220	-0.725279	-0.130188	0.670286	-1.000000	-1.000000	-1.000000	-1.000000	-1.000000	-1.000000	-1.000000	52.000000	0.000000	-1.000000	-1.000000	320443.000000	1775800449.108889
-10128.915000	-2179.440000	14770.395000	40946.085000	23459.715000	4314.285000	-22711.725000	-6221.520000	-2.607315	-0.215660	1.219752	1.676457	-2.314625	-3.185380	-0.927740	-0.821565	-2.304260	0.625660	1.480220	-0.725279	-0.130188	0.670286	-1.000000	-1.000000	-1.000000	-1.000000	-1.000000	-1.000000	-1.000000	52.000000	0.000000	-1.000000	-1.000000	320444.000000	1775800449.108903
-10128.780000	-2182.815000	14766.120000	40939.335000	23456.160000	4328.190000	-22705.515000	-6222.240000	-3.459296	-1.834695	-1.366732	-2.337747	-9.706140	-10.435139	-4.037195	-0.679527	-2.304260	0.625660	1.480220	-0.725279	-0.130188	0.670286	-1.000000	-1.000000	-1.000000	-1.000000	-1.000000	-1.000000	-1.000000	52.000000	0.000000	-1.000000	-1.000000	320445.000000	1775800449.108914
-10129.455000	-2180.790000	14769.900000	40946.040000	23477.445000	4371.750000	-22695.435000	-6225.705000	-3.298335	-3.285197	-3.868113	-5.723883	-12.351306	-10.196924	-4.455770	-0.494621	-2.304260	0.625660	1.480220	-0.725279	-0.130188	0.670286	-1.000000	-1.000000	-1.000000	-1.000000	-1.000000	-1.000000	-1.000000	52.000000	0.000000	-1.000000	-1.000000	320446.000000	1775800449.114951
-10129.095000	-2176.740000	14776.470000	40954.770000	23481.855000	4374.630000	-22697.055000	-6226.605000	-1.735191	-3.144398	-4.183372	-5.877956	-7.837868	-0.670005	-1.466399	0.055033	-2.304260	0.625660	1.480220	-0.725279	-0.130188	0.670286	-1.000000	-1.000000	-1.000000	-1.000000	-1.000000	-1.000000	-1.000000	52.000000	0.000000	-1.000000	-1.000000	320447.000000	1775800449.114980
-10131.300000	-2181.420000	14770.125000	40942.845000	23459.085000	4350.780000	-22706.190000	-6226.470000	0.615436	-1.123564	-1.810375	-2.413219	1.161911	11.160124	2.482132	0.889446	-2.304260	0.625660	1.480220	-0.725279	-0.130188	0.670286	-1.000000	-1.000000	-1.000000	-1.000000	-1.000000	-1.000000	-1.000000	52.000000	0.000000	-1.000000	-1.000000	320448.000000	1775800449.115008
-10128.375000	-2182.725000	14766.795000	40936.995000	23459.670000	4346.820000	-22703.805000	-6220.395000	2.675141	1.441173	1.386192	1.815094	7.938273	14.926713	4.105289	1.884230	-2.304260	0.625660	1.480220	-0.725279	-0.130188	0.670286	-1.000000	-1.000000	-1.000000	-1.000000	-1.000000	-1.000000	-1.000000	52.000000	0.000000	-1.000000	-1.000000	320449.000000	1775800449.115020
-10128.420000	-2183.490000	14767.245000	40940.370000	23473.935000	4350.690000	-22696.650000	-6216.930000	3.735561	2.911974	3.099768	3.749885	8.870278	7.698439	2.808838	2.955522	-5.783540	2.166920	-0.686700	-0.725096	-0.133667	0.667113	-1.000000	-1.000000	-1.000000	-1.000000	-1.000000	-1.000000	-1.000000	52.000000	0.000000	-1.000000	-1.000000	320450.000000	1775800449.118356
-10132.290000	-2191.545000	14758.515000	40932.225000	23465.115000	4344.255000	-22700.250000	-6218.235000	3.572527	2.698612	2.687679	3.126803	6.070501	-4.080877	0.585764	3.644941	-5.783540	2.166920	-0.686700	-0.725096	-0.133667	0.667113	-1.000000	-1.000000	-1.000000	-1.000000	-1.000000	-1.000000	-1.000000	52.000000	0.000000	-1.000000	-1.000000	320451.000000	1775800449.118378
-10126.935000	-2187.810000	14760.405000	40933.170000	23457.735000	4338.720000	-22701.465000	-6215.715000	2.329433	1.262748	0.956230	1.394245	2.407125	-12.540302	-0.999019	3.178548	-5.783540	2.166920	-0.686700	-0.725096	-0.133667	0.667113	-1.000000	-1.000000	-1.000000	-1.000000	-1.000000	-1.000000	-1.000000	52.000000	0.000000	-1.000000	-1.000000	320452.000000	1775800449.124242
-10129.095000	-2189.070000	14758.470000	40931.370000	23456.520000	4329.495000	-22712.715000	-6225.345000	0.689843	-0.220700	-0.720415	-0.086755	-1.167082	-14.343022	-2.001394	1.207655	-5.783540	2.166920	-0.686700	-0.725096	-0.133667	0.667113	-1.000000	-1.000000	-1.000000	-1.000000	-1.000000	-1.000000	-1.000000	52.000000	0.000000	-1.000000	-1.000000	320453.000000	1775800449.124263
-10126.395000	-2182.410000	14766.705000	40939.425000	23472.585000	4334.445000	-22715.280000	-6230.880000	-0.585514	-0.603904	-1.090928	-0.409671	-3.552249	-10.347314	-2.941953	-1.904910	-5.783540	2.166920	-0.686700	-0.725096	-0.133667	0.667113	-1.000000	-1.000000	-1.000000	-1.000000	-1.000000	-1.000000	-1.000000	52.000000	0.000000	-1.000000	-1.000000	320454.000000	1775800449.128219
-10126.305000	-2177.640000	14771.970000	40942.890000	23489.595000	4347.855000	-22705.830000	-6230.655000	-1.215158	0.387118	0.249460	0.658447	-2.918252	-2.829967	-3.352894	-4.964841	-5.783540	2.166920	-0.686700	-0.725096	-0.133667	0.667113	-1.000000	-1.000000	-1.000000	-1.000000	-1.000000	-1.000000	-1.000000	52.000000	0.000000	-1.000000	-1.000000	320455.000000	1775800449.128245
-10121.130000	-2169.855000	14781.105000	40953.285000	23490.900000	4354.695000	-22693.230000	-6218.280000	-1.215449	2.100561	2.590024	2.491087	0.786024	5.770387	-1.779489	-5.950991	-5.783540	2.166920	-0.686700	-0.725096	-0.133667	0.667113	-1.000000	-1.000000	-1.000000	-1.000000	-1.000000	-1.000000	-1.000000	52.000000	0.000000	-1.000000	-1.000000	320456.000000	1775800449.140238
-10119.465000	-2172.510000	14777.235000	40946.400000	23468.760000	4335.795000	-22698.855000	-6214.365000	-0.704832	3.287485	4.329173	3.736994	4.075523	11.996208	1.930136	-3.474388	-5.783540	2.166920	-0.686700	-0.725096	-0.133667	0.667113	-1.000000	-1.000000	-1.000000	-1.000000	-1.000000	-1.000000	-1.000000	52.000000	0.000000	-1.000000	-1.000000	320457.000000	1775800449.140260
-10116.900000	-2169.720000	14780.205000	40953.465000	23474.160000	4330.395000	-22700.295000	-6214.230000	-0.007070	2.747837	3.864655	3.053611	2.952446	12.167812	5.242084	1.286031	-5.783540	2.166920	-0.686700	-0.725096	-0.133667	0.667113	-1.000000	-1.000000	-1.000000	-1.000000	-1.000000	-1.000000	-1.000000	52.000000	0.000000	-1.000000	-1.000000	320458.000000	1775800449.140282
-10122.300000	-2173.365000	14780.250000	40959.495000	23487.840000	4338.270000	-22701.870000	-6217.740000	0.289052	0.315656	1.008076	0.553940	-1.824984	6.277684	5.419366	5.074617	-5.783540	2.166920	-0.686700	-0.725096	-0.133667	0.667113	-1.000000	-1.000000	-1.000000	-1.000000	-1.000000	-1.000000	-1.000000	52.000000	0.000000	-1.000000	-1.000000	320459.000000	1775800449.140289
-10119.375000	-2170.935000	14782.050000	40958.100000	23487.840000	4347.810000	-22698.765000	-6214.005000	-0.249483	-2.864218	-2.694935	-2.194974	-5.499563	-0.921353	2.470521	5.495288	-5.997180	5.051060	-1.678600	-0.719908	-0.137207	0.665526	-1.000000	-1.000000	-1.000000	-1.000000	-1.000000	-1.000000	-1.000000	52.000000	0.000000	-1.000000	-1.000000	320460.000000	1775800449.140297
-10120.140000	-2172.195000	14778.720000	40950.225000	23480.730000	4345.605000	-22698.090000	-6214.005000	-1.258989	-5.130925	-5.363836	-4.170161	-5.473818	-4.663686	-1.291044	2.924194	-5.997180	5.051060	-1.678600	-0.719908	-0.137207	0.665526	-1.000000	-1.000000	-1.000000	-1.000000	-1.000000	-1.000000	-1.000000	52.000000	0.000000	-1.000000	-1.000000	320461.000000	1775800449.140303
-10116.315000	-2171.745000	14776.155000	40943.385000	23470.695000	4341.060000	-22694.220000	-6207.795000	-1.812048	-5.411524	-6.127757	-5.528670	-3.441787	-4.451343	-3.585936	-0.426110	-5.997180	5.051060	-1.678600	-0.719908	-0.137207	0.665526	-1.000000	-1.000000	-1.000000	-1.000000	-1.000000	-1.000000	-1.000000	52.000000	0.000000	-1.000000	-1.000000	320462.000000	1775800449.149303
-10122.075000	-2179.665000	14767.335000	40934.610000	23462.910000	4340.745000	-22697.595000	-6213.060000	-1.458110	-3.923973	-5.285736	-6.375169	-2.029770	-2.820386	-3.698196	-2.650186	-5.997180	5.051060	-1.678600	-0.719908	-0.137207	0.665526	-1.000000	-1.000000	-1.000000	-1.000000	-1.000000	-1.000000	-1.000000	52.000000	0.000000	-1.000000	-1.000000	320463.000000	1775800449.149325
-10126.620000	-2182.770000	14765.220000	40932.945000	23465.160000	4343.355000	-22701.285000	-6217.695000	-0.742635	-1.863061	-3.626429	-6.109298	-1.729051	-1.678731	-2.524639	-3.445338	-5.997180	5.051060	-1.678600	-0.719908	-0.137207	0.665526	-1.000000	-1.000000	-1.000000	-1.000000	-1.000000	-1.000000	-1.000000	52.000000	0.000000	-1.000000	-1.000000	320464.000000	1775800449.149348
-10125.540000	-2180.790000	14768.865000	40939.695000	23484.195000	4356.720000	-22695.570000	-6217.245000	-0.374201	-0.112237	-1.487650	-3.813146	-0.727376	-0.854264	-1.265999	-3.468722	-5.997180	5.051060	-1.678600	-0.719908	-0.137207	0.665526	-1.000000	-1.000000	-1.000000	-1.000000	-1.000000	-1.000000	-1.000000	52.000000	0.000000	-1.000000	-1.000000	320465.000000	1775800449.149356
-10128.420000	-2183.490000	14766.480000	40939.695000	23492.340000	4357.845000	-22698.180000	-6220.755000	-0.244157	1.369524	1.219796	0.694690	2.747984	0.555725	-0.228986	-2.972485	-5.997180	5.051060	-1.678600	-0.719908	-0.137207	0.665526	-1.000000	-1.000000	-1.000000	-1.000000	-1.000000	-1.000000	-1.000000	52.000000	0.000000	-1.000000	-1.000000	320466.000000	1775800449.155623
-10129.680000	-2183.805000	14766.975000	40938.975000	23485.185000	4341.285000	-22703.895000	-6224.085000	0.104912	2.692708	3.984771	5.810050	7.403257	1.905490	0.558288	-1.890305	-5.997180	5.051060	-1.678600	-0.719908	-0.137207	0.665526	-1.000000	-1.000000	-1.000000	-1.000000	-1.000000	-1.000000	-1.000000	52.000000	0.000000	-1.000000	-1.000000	320467.000000	1775800449.155648
-10131.840000	-2183.445000	14767.650000	40937.670000	23469.570000	4337.730000	-22707.765000	-6229.530000	0.705297	3.545858	5.706832	8.901147	9.073007	1.210344	0.671905	-0.515910	-5.997180	5.051060	-1.678600	-0.719908	-0.137207	0.665526	-1.000000	-1.000000	-1.000000	-1.000000	-1.000000	-1.000000	-1.000000	52.000000	0.000000	-1.000000	-1.000000	320468.000000	1775800449.155670
-10127.835000	-2177.955000	14772.555000	40940.370000	23461.650000	4339.395000	-22708.890000	-6229.710000	1.366597	3.744146	5.800504	8.509443	5.029667	-1.634182	0.081708	0.717369	-5.997180	5.051060	-1.678600	-0.719908	-0.137207	0.665526	-1.000000	-1.000000	-1.000000	-1.000000	-1.000000	-1.000000	-1.000000	52.000000	0.000000	-1.000000	-1.000000	320469.000000	1775800449.155681
-10115.910000	-2164.995000	14785.920000	40953.285000	23481.270000	4344.390000	-22699.980000	-6218.955000	2.215388	3.648025	4.763967	5.546616	-2.262359	-3.947290	-0.287142	1.919342	-2.014320	4.028640	-1.266580	-0.717405	-0.140686	0.665770	-1.000000	-1.000000	-1.000000	-1.000000	-1.000000	-1.000000	-1.000000	52.000000	0.000000	-1.000000	-1.000000	320470.000000	1775800449.166652
-10113.030000	-2165.085000	14783.985000	40947.435000	23485.050000	4340.520000	-22695.030000	-6212.340000	3.421439	3.609360	3.445848	2.087518	-6.938159	-3.443010	0.648220	3.621526	-2.014320	4.028640	-1.266580	-0.717405	-0.140686	0.665770	-1.000000	-1.000000	-1.000000	-1.000000	-1.000000	-1.000000	-1.000000	52.000000	0.000000	-1.000000	-1.000000	320471.000000	1775800449.166679
-10117.080000	-2169.315000	14782.005000	40947.300000	23492.880000	4344.075000	-22695.570000	-6214.725000	4.151043	2.935740	1.727322	-0.887737	-5.770251	-0.568097	2.660119	5.417916	-2.014320	4.028640	-1.266580	-0.717405	-0.140686	0.665770	-1.000000	-1.000000	-1.000000	-1.000000	-1.000000	-1.000000	-1.000000	52.000000	0.000000	-1.000000	-1.000000	320472.000000	1775800449.166706
-10119.555000	-2172.420000	14778.810000	40944.780000	23486.310000	4348.800000	-22697.415000	-6219.630000	2.917293	0.512657	-1.062870	-3.515127	-0.975478	2.709571	4.000593	5.548615	-2.014320	4.028640	-1.266580	-0.717405	-0.140686	0.665770	-1.000000	-1.000000	-1.000000	-1.000000	-1.000000	-1.000000	-1.000000	52.000000	0.000000	-1.000000	-1.000000	320473.000000	1775800449.166717
-10129.950000	-2184.165000	14766.705000	40931.730000	23464.125000	4347.405000	-22703.265000	-6226.380000	-0.625328	-3.489029	-4.694505	-5.754659	2.484243	4.791142	3.085745	2.737124	-2.014320	4.028640	-1.266580	-0.717405	-0.140686	0.665770	-1.000000	-1.000000	-1.000000	-1.000000	-1.000000	-1.000000	-1.000000	52.000000	0.000000	-1.000000	-1.000000	320474.000000	1775800449.177463
-10126.260000	-2179.530000	14772.240000	40937.220000	23461.515000	4336.695000	-22704.525000	-6221.520000	-4.921219	-7.289175	-7.761428	-7.091516	1.361553	4.634600	0.033872	-1.970147	-2.014320	4.028640	-1.266580	-0.717405	-0.140686	0.665770	-1.000000	-1.000000	-1.000000	-1.000000	-1.000000	-1.000000	-1.000000	52.000000	0.000000	-1.000000	-1.000000	320475.000000	1775800449.177489
-10122.390000	-2175.480000	14775.435000	40939.155000	23451.975000	4324.095000	-22705.920000	-6219.270000	-7.306685	-8.412402	-8.229594	-6.455627	-2.982513	1.761447	-3.388690	-5.668068	-2.014320	4.028640	-1.266580	-0.717405	-0.140686	0.665770	-1.000000	-1.000000	-1.000000	-1.000000	-1.000000	-1.000000	-1.000000	52.000000	0.000000	-1.000000	-1.000000	320476.000000	1775800449.177518
-10116.630000	-2169.540000	14778.405000	40938.075000	23448.780000	4316.355000	-22705.380000	-6217.605000	-5.922912	-5.485876	-5.032646	-3.251074	-6.352286	-2.863644	-5.132965	-6.121727	-2.014320	4.028640	-1.266580	-0.717405	-0.140686	0.665770	-1.000000	-1.000000	-1.000000	-1.000000	-1.000000	-1.000000	-1.000000	52.000000	0.000000	-1.000000	-1.000000	320477.000000	1775800449.177531
-10114.065000	-2167.605000	14780.385000	40940.685000	23474.205000	4325.895000	-22699.665000	-6213.465000	-1.423626	0.216406	0.447361	1.286035	-5.376894	-6.441419	-4.231387	-3.534798	-2.014320	4.028640	-1.266580	-0.717405	-0.140686	0.665770	-1.000000	-1.000000	-1.000000	-1.000000	-1.000000	-1.000000	-1.000000	52.000000	0.000000	-1.000000	-1.000000	320478.000000	1775800449.177542
-10127.655000	-2180.520000	14772.375000	40942.530000	23507.820000	4348.980000	-22700.700000	-6222.510000	3.218911	5.293003	5.175941	5.026251	1.200923	-5.637167	-1.232029	-0.003651	-2.014320	4.028640	-1.266580	-0.717405	-0.140686	0.665770	-1.000000	-1.000000	-1.000000	-1.000000	-1.000000	-1.000000	-1.000000	52.000000	0.000000	-1.000000	-1.000000	320479.000000	1775800449.177550
-10132.740000	-2187.045000	14764.095000	40930.425000	23479.515000	4349.925000	-22703.490000	-6227.460000	4.794783	6.513832	6.504074	6.335579	10.515091	0.318828	2.043209	2.026545	3.692920	2.090620	-0.106820	-0.717039	-0.138244	0.669798	-1.000000	-1.000000	-1.000000	-1.000000	-1.000000	-1.000000	-1.000000	52.000000	0.000000	-1.000000	-1.000000	320480.000000	1775800449.185873
-10127.475000	-2181.240000	14769.360000	40933.530000	23477.310000	4346.730000	-22702.635000	-6222.825000	2.783878	3.653654	4.151868	4.647527	15.143992	7.512347	3.683198	1.684065	3.692920	2.090620	-0.106820	-0.717039	-0.138244	0.669798	-1.000000	-1.000000	-1.000000	-1.000000	-1.000000	-1.000000	-1.000000	52.000000	0.000000	-1.000000	-1.000000	320481.000000	1775800449.185897
-10128.915000	-2180.835000	14771.295000	40936.320000	23479.515000	4341.375000	-22706.775000	-6225.660000	-0.199438	-0.205734	0.610176	1.260408	10.366524	10.270986	3.116200	0.326294	3.692920	2.090620	-0.106820	-0.717039	-0.138244	0.669798	-1.000000	-1.000000	-1.000000	-1.000000	-1.000000	-1.000000	-1.000000	52.000000	0.000000	-1.000000	-1.000000	320482.000000	1775800449.185922
-10133.280000	-2183.490000	14769.135000	40932.720000	23472.135000	4333.950000	-22713.120000	-6232.770000	-1.642524	-2.091927	-1.401278	-1.479437	-0.405016	6.383207	1.028862	-0.525869	3.692920	2.090620	-0.106820	-0.717039	-0.138244	0.669798	-1.000000	-1.000000	-1.000000	-1.000000	-1.000000	-1.000000	-1.000000	52.000000	0.000000	-1.000000	-1.000000	320483.000000	1775800449.185934
-10124.730000	-2172.375000	14780.610000	40945.185000	23481.720000	4337.775000	-22707.090000	-6225.570000	-1.161456	-1.473494	-1.164452	-2.227223	-10.021850	-1.398331	-1.308927	-0.570261	3.692920	2.090620	-0.106820	-0.717039	-0.138244	0.669798	-1.000000	-1.000000	-1.000000	-1.000000	-1.000000	-1.000000	-1.000000	52.000000	0.000000	-1.000000	-1.000000	320484.000000	1775800449.190124
-10120.770000	-2170.755000	14782.095000	40946.760000	23484.285000	4337.730000	-22704.030000	-6222.330000	0.600026	0.684814	0.566828	-1.001016	-13.446691	-7.961141	-2.340026	0.225572	3.692920	2.090620	-0.106820	-0.717039	-0.138244	0.669798	-1.000000	-1.000000	-1.000000	-1.000000	-1.000000	-1.000000	-1.000000	52.000000	0.000000	-1.000000	-1.000000	320485.000000	1775800449.190149
-10125.495000	-2178.720000	14772.195000	40934.790000	23472.315000	4335.120000	-22704.795000	-6223.635000	2.565000	2.681129	2.166882	0.826946	-10.302703	-9.801725	-1.355425	1.695740	3.692920	2.090620	-0.106820	-0.717039	-0.138244	0.669798	-1.000000	-1.000000	-1.000000	-1.000000	-1.000000	-1.000000	-1.000000	52.000000	0.000000	-1.000000	-1.000000	320486.000000	1775800449.190787
-10127.700000	-2181.015000	14768.460000	40928.535000	23466.555000	4334.130000	-22707.540000	-6225.120000	3.156192	2.611851	1.724717	0.993140	-4.383062	-7.072788	0.569551	2.786644	3.692920	2.090620	-0.106820	-0.717039	-0.138244	0.669798	-1.000000	-1.000000	-1.000000	-1.000000	-1.000000	-1.000000	-1.000000	52.000000	0.000000	-1.000000	-1.000000	320487.000000	1775800449.190808
-10127.880000	-2180.115000	14769.855000	40930.380000	23470.200000	4330.170000	-22710.645000	-6227.460000	1.641047	0.237755	-0.903441	-1.116930	0.433720	-2.306353	1.670787	2.411194	3.692920	2.090620	-0.106820	-0.717039	-0.138244	0.669798	-1.000000	-1.000000	-1.000000	-1.000000	-1.000000	-1.000000	-1.000000	52.000000	0.000000	-1.000000	-1.000000	320488.000000	1775800449.195807
-10125.315000	-2176.515000	14772.555000	40930.830000	23476.860000	4332.150000	-22707.270000	-6227.370000	-0.898641	-2.500498	-3.542487	-3.430240	3.337926	1.931963	1.277160	0.634141	3.692920	2.090620	-0.106820	-0.717039	-0.138244	0.669798	-1.000000	-1.000000	-1.000000	-1.000000	-1.000000	-1.000000	-1.000000	52.000000	0.000000	-1.000000	-1.000000	320489.000000	1775800449.195832
-10131.165000	-2181.870000	14769.495000	40928.220000	23476.725000	4333.905000	-22709.430000	-6233.130000	-2.782713	-3.617305	-4.085549	-3.717851	5.243587	4.419508	0.148295	-1.526099	6.271860	0.915600	1.449700	-0.720579	-0.134399	0.672362	-1.000000	-1.000000	-1.000000	-1.000000	-1.000000	-1.000000	-1.000000	52.000000	0.000000	-1.000000	-1.000000	320490.000000	1775800449.201987
-10128.870000	-2179.305000	14772.195000	40930.920000	23476.050000	4331.115000	-22712.085000	-6229.530000	-3.273422	-2.856887	-2.422652	-1.778909	6.252624	5.115337	-0.762815	-2.978216	6.271860	0.915600	1.449700	-0.720579	-0.134399	0.672362	-1.000000	-1.000000	-1.000000	-1.000000	-1.000000	-1.000000	-1.000000	52.000000	0.000000	-1.000000	-1.000000	320491.000000	1775800449.202015
-10124.325000	-2176.155000	14774.895000	40933.440000	23477.985000	4332.420000	-22709.520000	-6223.365000	-2.421548	-1.058890	0.202442	1.137995	5.672782	4.319871	-1.125662	-2.882957	6.271860	0.915600	1.449700	-0.720579	-0.134399	0.672362	-1.000000	-1.000000	-1.000000	-1.000000	-1.000000	-1.000000	-1.000000	52.000000	0.000000	-1.000000	-1.000000	320492.000000	1775800449.204021
-10126.215000	-2178.495000	14772.870000	40931.595000	23475.330000	4328.820000	-22711.050000	-6226.200000	-0.580117	0.905082	2.454751	3.565383	3.412816	2.489733	-0.903121	-1.109867	6.271860	0.915600	1.449700	-0.720579	-0.134399	0.672362	-1.000000	-1.000000	-1.000000	-1.000000	-1.000000	-1.000000	-1.000000	52.000000	0.000000	-1.000000	-1.000000	320493.000000	1775800449.204039
-10126.305000	-2176.515000	14774.895000	40934.745000	23475.240000	4316.355000	-22717.800000	-6229.395000	1.316226	2.205354	3.371157	4.415539	0.274267	0.075915	-0.380743	1.090626	6.271860	0.915600	1.449700	-0.720579	-0.134399	0.672362	-1.000000	-1.000000	-1.000000	-1.000000	-1.000000	-1.000000	-1.000000	52.000000	0.000000	-1.000000	-1.000000	320494.000000	1775800449.218970
-10121.715000	-2174.490000	14776.290000	40935.285000	23463.135000	4308.165000	-22717.305000	-6222.240000	2.293241	2.406410	2.780863	3.518938	-2.771329	-2.658260	-0.143840	2.192191	6.271860	0.915600	1.449700	-0.720579	-0.134399	0.672362	-1.000000	-1.000000	-1.000000	-1.000000	-1.000000	-1.000000	-1.000000	52.000000	0.000000	-1.000000	-1.000000	320495.000000	1775800449.218999
-10131.975000	-2185.470000	14765.895000	40926.195000	23455.980000	4310.505000	-22718.655000	-6227.145000	2.049182	1.568029	1.140155	1.404405	-5.156699	-4.839917	-0.261826	1.957856	6.271860	0.915600	1.449700	-0.720579	-0.134399	0.672362	-1.000000	-1.000000	-1.000000	-1.000000	-1.000000	-1.000000	-1.000000	52.000000	0.000000	-1.000000	-1.000000	320496.000000	1775800449.219025
-10134.360000	-2186.775000	14763.735000	40921.560000	23455.530000	4315.140000	-22713.840000	-6229.620000	0.615818	-0.188489	-1.114822	-1.396013	-6.308404	-4.774271	-0.141301	0.867829	6.271860	0.915600	1.449700	-0.720579	-0.134399	0.672362	-1.000000	-1.000000	-1.000000	-1.000000	-1.000000	-1.000000	-1.000000	52.000000	0.000000	-1.000000	-1.000000	320497.000000	1775800449.219037
-10127.655000	-2178.540000	14770.665000	40926.735000	23470.695000	4312.530000	-22718.295000	-6231.105000	-1.300765	-2.023522	-3.060294	-3.904328	-5.038115	-1.773609	0.564180	-0.659715	6.271860	0.915600	1.449700	-0.720579	-0.134399	0.672362	-1.000000	-1.000000	-1.000000	-1.000000	-1.000000	-1.000000	-1.000000	52.000000	0.000000	-1.000000	-1.000000	320498.000000	1775800449.219051
-10118.880000	-2169.270000	14779.620000	40932.720000	23479.920000	4318.695000	-22714.515000	-6228.090000	-1.992172	-2.184197	-3.067538	-4.448356	-0.558610	2.598028	1.420431	-1.893943	6.271860	0.915600	1.449700	-0.720579	-0.134399	0.672362	-1.000000	-1.000000	-1.000000	-1.000000	-1.000000	-1.000000	-1.000000	52.000000	0.000000	-1.000000	-1.000000	320499.000000	1775800449.219062
-10125.360000	-2178.270000	14770.665000	40924.035000	23474.475000	4329.990000	-22712.490000	-6229.260000	-0.625853	-0.186553	-0.760506	-2.448968	5.413265	6.120184	1.854785	-2.025441	2.044840	-0.137340	1.678600	-0.723204	-0.128601	0.670592	-1.000000	-1.000000	-1.000000	-1.000000	-1.000000	-1.000000	-1.000000	52.000000	0.000000	-1.000000	-1.000000	320500.000000	1775800449.227424
-10123.830000	-2181.330000	14766.570000	40922.145000	23476.680000	4348.665000	-22704.435000	-6222.420000	1.355436	1.919860	1.766130	0.370008	9.002626	7.877296	1.872805	-0.911956	2.044840	-0.137340	1.678600	-0.723204	-0.128601	0.670592	-1.000000	-1.000000	-1.000000	-1.000000	-1.000000	-1.000000	-1.000000	52.000000	0.000000	-1.000000	-1.000000	320501.000000	1775800449.227451
-10117.845000	-2175.480000	14771.430000	40926.960000	23474.610000	4324.635000	-22707.990000	-6220.035000	2.176862	2.107845	2.360979	2.027223	7.751848	7.366132	1.649403	0.915611	2.044840	-0.137340	1.678600	-0.723204	-0.128601	0.670592	-1.000000	-1.000000	-1.000000	-1.000000	-1.000000	-1.000000	-1.000000	52.000000	0.000000	-1.000000	-1.000000	320502.000000	1775800449.229497
-10122.030000	-2178.090000	14770.395000	40926.015000	23463.945000	4313.520000	-22712.580000	-6224.940000	1.633444	0.747978	1.271115	2.331633	2.515128	3.137546	0.809127	2.421132	2.044840	-0.137340	1.678600	-0.723204	-0.128601	0.670592	-1.000000	-1.000000	-1.000000	-1.000000	-1.000000	-1.000000	-1.000000	52.000000	0.000000	-1.000000	-1.000000	320503.000000	1775800449.229511
-10131.345000	-2188.170000	14760.720000	40913.820000	23438.160000	4309.605000	-22716.360000	-6231.600000	0.123752	-0.892946	-0.194268	1.757842	-4.372753	-4.594049	-1.084978	2.322597	2.044840	-0.137340	1.678600	-0.723204	-0.128601	0.670592	-1.000000	-1.000000	-1.000000	-1.000000	-1.000000	-1.000000	-1.000000	52.000000	0.000000	-1.000000	-1.000000	320504.000000	1775800449.229528
-10130.670000	-2187.540000	14760.990000	40912.245000	23455.755000	4329.720000	-22712.040000	-6230.880000	-2.021286	-2.311297	-1.489984	0.280345	-10.117710	-11.332133	-3.324584	0.311260	2.044840	-0.137340	1.678600	-0.723204	-0.128601	0.670592	-1.000000	-1.000000	-1.000000	-1.000000	-1.000000	-1.000000	-1.000000	52.000000	0.000000	-1.000000	-1.000000	320505.000000	1775800449.229534
-10125.765000	-2181.510000	14768.100000	40921.290000	23469.615000	4332.195000	-22711.320000	-6228.945000	-3.628071	-2.890251	-2.103783	-1.395552	-10.913752	-11.769652	-4.273381	-2.143258	2.044840	-0.137340	1.678600	-0.723204	-0.128601	0.670592	-1.000000	-1.000000	-1.000000	-1.000000	-1.000000	-1.000000	-1.000000	52.000000	0.000000	-1.000000	-1.000000	320506.000000	1775800449.230942
-10122.480000	-2179.980000	14769.540000	40921.200000	23476.185000	4327.110000	-22709.340000	-6228.630000	-3.163230	-1.734441	-1.203910	-1.623652	-4.813852	-5.630654	-3.062384	-3.104129	2.044840	-0.137340	1.678600	-0.723204	-0.128601	0.670592	-1.000000	-1.000000	-1.000000	-1.000000	-1.000000	-1.000000	-1.000000	52.000000	0.000000	-1.000000	-1.000000	320507.000000	1775800449.230963
-10126.170000	-2186.190000	14762.295000	40913.010000	23470.785000	4324.095000	-22712.265000	-6231.780000	-0.655764	0.720398	0.822504	-0.164503	4.627576	2.053543	-0.506216	-2.090036	2.044840	-0.137340	1.678600	-0.723204	-0.128601	0.670592	-1.000000	-1.000000	-1.000000	-1.000000	-1.000000	-1.000000	-1.000000	52.000000	0.000000	-1.000000	-1.000000	320508.000000	1775800449.234998
-10117.665000	-2177.190000	14770.395000	40919.670000	23474.790000	4319.505000	-22710.150000	-6225.705000	2.201018	2.781887	2.354087	1.362725	10.994921	6.253348	1.768032	-0.091437	2.044840	-0.137340	1.678600	-0.723204	-0.128601	0.670592	-1.000000	-1.000000	-1.000000	-1.000000	-1.000000	-1.000000	-1.000000	52.000000	0.000000	-1.000000	-1.000000	320509.000000	1775800449.235021
-10121.220000	-2180.565000	14766.255000	40916.655000	23484.375000	4327.695000	-22707.405000	-6227.550000	3.848856	3.436693	2.513370	1.833457	11.020506	5.909516	2.795676	1.768303	-4.486440	1.876980	0.732480	-0.724424	-0.126953	0.666075	-1.000000	-1.000000	-1.000000	-1.000000	-1.000000	-1.000000	-1.000000	52.000000	0.000000	-1.000000	-1.000000	320510.000000	1775800449.237893
-10129.770000	-2188.215000	14759.235000	40909.185000	23475.105000	4333.905000	-22709.070000	-6234.255000	3.501359	2.576843	1.425428	1.226753	6.132982	3.432386	2.641438	2.611731	-4.486440	1.876980	0.732480	-0.724424	-0.126953	0.666075	-1.000000	-1.000000	-1.000000	-1.000000	-1.000000	-1.000000	-1.000000	52.000000	0.000000	-1.000000	-1.000000	320511.000000	1775800449.237909
-10123.605000	-2181.555000	14767.335000	40917.105000	23473.215000	4324.545000	-22709.925000	-6229.935000	1.219256	0.496454	-0.403088	-0.084769	-0.640624	1.347936	1.668665	1.945770	-4.486440	1.876980	0.732480	-0.724424	-0.126953	0.666075	-1.000000	-1.000000	-1.000000	-1.000000	-1.000000	-1.000000	-1.000000	52.000000	0.000000	-1.000000	-1.000000	320512.000000	1775800449.248469
-10128.105000	-2183.715000	14767.695000	40918.500000	23474.520000	4315.095000	-22716.540000	-6233.310000	-1.554190	-1.615800	-1.762216	-1.079711	-6.566516	-0.225952	0.134749	0.368476	-4.486440	1.876980	0.732480	-0.724424	-0.126953	0.666075	-1.000000	-1.000000	-1.000000	-1.000000	-1.000000	-1.000000	-1.000000	52.000000	0.000000	-1.000000	-1.000000	320513.000000	1775800449.248497
-10129.365000	-2185.605000	14766.480000	40918.455000	23476.635000	4316.355000	-22716.360000	-6232.950000	-3.144519	-2.534242	-1.711680	-0.895523	-9.316116	-2.114824	-1.572216	-0.971770	-4.486440	1.876980	0.732480	-0.724424	-0.126953	0.666075	-1.000000	-1.000000	-1.000000	-1.000000	-1.000000	-1.000000	-1.000000	52.000000	0.000000	-1.000000	-1.000000	320514.000000	1775800449.248523
-10126.125000	-2185.155000	14765.130000	40913.910000	23470.470000	4325.805000	-22711.320000	-6228.225000	-3.022560	-2.208873	-0.765998	-0.068640	-8.122047	-3.482675	-2.586845	-1.377126	-4.486440	1.876980	0.732480	-0.724424	-0.126953	0.666075	-1.000000	-1.000000	-1.000000	-1.000000	-1.000000	-1.000000	-1.000000	52.000000	0.000000	-1.000000	-1.000000	320515.000000	1775800449.248533
-10125.495000	-2184.390000	14764.860000	40911.480000	23469.390000	4323.375000	-22711.185000	-6227.820000	-1.489165	-1.196389	0.011838	0.207102	-4.432646	-2.717090	-2.021968	-0.706638	-4.486440	1.876980	0.732480	-0.724424	-0.126953	0.666075	-1.000000	-1.000000	-1.000000	-1.000000	-1.000000	-1.000000	-1.000000	52.000000	0.000000	-1.000000	-1.000000	320516.000000	1775800449.253896
-10130.715000	-2186.955000	14760.135000	40904.145000	23461.110000	4316.625000	-22716.180000	-6234.750000	0.542917	-0.028740	0.118858	-0.557801	-0.551841	-0.213310	-0.222776	0.374431	-4.486440	1.876980	0.732480	-0.724424	-0.126953	0.666075	-1.000000	-1.000000	-1.000000	-1.000000	-1.000000	-1.000000	-1.000000	52.000000	0.000000	-1.000000	-1.000000	320517.000000	1775800449.253918
-10128.015000	-2180.070000	14766.120000	40907.655000	23459.985000	4317.570000	-22712.850000	-6232.590000	1.850113	0.908337	-0.230260	-1.759375	1.978158	1.847293	1.382898	0.740922	-4.486440	1.876980	0.732480	-0.724424	-0.126953	0.666075	-1.000000	-1.000000	-1.000000	-1.000000	-1.000000	-1.000000	-1.000000	52.000000	0.000000	-1.000000	-1.000000	320518.000000	1775800449.253940
-10125.855000	-2175.210000	14774.760000	40918.365000	23466.735000	4311.630000	-22714.695000	-6228.180000	2.022480	1.661158	-0.171769	-1.968114	3.135662	2.133276	1.910677	0.253454	-4.486440	1.876980	0.732480	-0.724424	-0.126953	0.666075	-1.000000	-1.000000	-1.000000	-1.000000	-1.000000	-1.000000	-1.000000	52.000000	0.000000	-1.000000	-1.000000	320519.000000	1775800449.253951
-10128.060000	-2180.430000	14770.260000	40915.440000	23471.010000	4307.760000	-22717.710000	-6229.710000	1.552097	2.211351	0.834874	-0.238176	3.973352	0.951025	1.441980	-0.187553	-8.240400	1.663340	-0.839300	-0.723021	-0.131591	0.663206	-1.000000	-1.000000	-1.000000	-1.000000	-1.000000	-1.000000	-1.000000	52.000000	0.000000	-1.000000	-1.000000	320520.000000	1775800449.257998
-10131.120000	-2184.525000	14765.850000	40913.460000	23475.060000	4313.205000	-22715.595000	-6232.815000	0.777344	1.820793	1.797819	2.304687	5.012547	-0.525186	0.424515	-0.200751	-8.240400	1.663340	-0.839300	-0.723021	-0.131591	0.663206	-1.000000	-1.000000	-1.000000	-1.000000	-1.000000	-1.000000	-1.000000	52.000000	0.000000	-1.000000	-1.000000	320521.000000	1775800449.258014
-10124.955000	-2178.000000	14773.185000	40921.875000	23478.075000	4311.090000	-22717.980000	-6228.045000	-0.141820	0.170342	1.445356	3.621792	5.539222	-0.994192	-0.517913	-0.142961	-8.240400	1.663340	-0.839300	-0.723021	-0.131591	0.663206	-1.000000	-1.000000	-1.000000	-1.000000	-1.000000	-1.000000	-1.000000	52.000000	0.000000	-1.000000	-1.000000	320522.000000	1775800449.261748
-10126.620000	-2180.430000	14770.485000	40918.230000	23465.160000	4297.545000	-22730.715000	-6237.180000	-0.705673	-1.631480	0.112010	3.091675	4.334742	-0.395155	-1.155261	-0.250310	-8.240400	1.663340	-0.839300	-0.723021	-0.131591	0.663206	-1.000000	-1.000000	-1.000000	-1.000000	-1.000000	-1.000000	-1.000000	52.000000	0.000000	-1.000000	-1.000000	320523.000000	1775800449.261770
-10121.670000	-2171.475000	14778.900000	40923.900000	23469.120000	4302.945000	-22724.415000	-6237.765000	-0.570120	-2.237142	-0.962191	1.381127	0.881812	0.085307	-1.715813	-0.650124	-8.240400	1.663340	-0.839300	-0.723021	-0.131591	0.663206	-1.000000	-1.000000	-1.000000	-1.000000	-1.000000	-1.000000	-1.000000	52.000000	0.000000	-1.000000	-1.000000	320524.000000	1775800449.266028
-10118.565000	-2167.515000	14781.330000	40924.215000	23492.520000	4327.290000	-22704.975000	-6229.080000	0.077951	-1.246688	-1.012544	-0.563051	-2.994196	0.550372	-1.418477	-1.049253	-8.240400	1.663340	-0.839300	-0.723021	-0.131591	0.663206	-1.000000	-1.000000	-1.000000	-1.000000	-1.000000	-1.000000	-1.000000	52.000000	0.000000	-1.000000	-1.000000	320525.000000	1775800449.266047
-10123.965000	-2176.965000	14769.945000	40913.055000	23479.290000	4322.430000	-22704.615000	-6225.165000	0.669246	0.445655	-0.431062	-2.177961	-4.374853	2.323493	0.966564	-0.488572	-8.240400	1.663340	-0.839300	-0.723021	-0.131591	0.663206	-1.000000	-1.000000	-1.000000	-1.000000	-1.000000	-1.000000	-1.000000	52.000000	0.000000	-1.000000	-1.000000	320526.000000	1775800449.271238
-10125.180000	-2177.955000	14770.800000	40916.295000	23474.520000	4325.355000	-22701.825000	-6224.220000	0.433352	1.074658	-0.498578	-3.497768	-3.357284	4.574293	4.326414	1.217788	-8.240400	1.663340	-0.839300	-0.723021	-0.131591	0.663206	-1.000000	-1.000000	-1.000000	-1.000000	-1.000000	-1.000000	-1.000000	52.000000	0.000000	-1.000000	-1.000000	320527.000000	1775800449.271252
-10130.085000	-2182.365000	14766.345000	40913.280000	23461.245000	4315.275000	-22706.415000	-6228.180000	-0.843464	-0.117845	-1.598747	-4.188211	-2.686147	4.533500	5.656779	2.688912	-8.240400	1.663340	-0.839300	-0.723021	-0.131591	0.663206	-1.000000	-1.000000	-1.000000	-1.000000	-1.000000	-1.000000	-1.000000	52.000000	0.000000	-1.000000	-1.000000	320528.000000	1775800449.274014
-10126.170000	-2178.180000	14771.070000	40919.580000	23473.980000	4319.055000	-22705.020000	-6227.055000	-2.308443	-1.931221	-2.556744	-3.419300	-3.341710	1.122066	3.392036	2.454449	-8.240400	1.663340	-0.839300	-0.723021	-0.131591	0.663206	-1.000000	-1.000000	-1.000000	-1.000000	-1.000000	-1.000000	-1.000000	52.000000	0.000000	-1.000000	-1.000000	320529.000000	1775800449.274032
-10129.410000	-2181.150000	14766.705000	40913.235000	23476.275000	4330.710000	-22703.130000	-6229.620000	-2.743736	-2.613303	-2.156039	-1.127929	-3.365257	-3.454530	-1.117328	0.528395	-5.096840	2.197440	-3.036740	-0.720152	-0.137085	0.664549	-1.000000	-1.000000	-1.000000	-1.000000	-1.000000	-1.000000	-1.000000	52.000000	0.000000	-1.000000	-1.000000	320530.000000	1775800449.278659
-10132.020000	-2183.220000	14762.385000	40902.480000	23472.855000	4335.030000	-22707.090000	-6232.815000	-1.797304	-1.633471	-0.546691	1.286867	-1.150866	-5.718962	-5.107247	-1.865245	-5.096840	2.197440	-3.036740	-0.720152	-0.137085	0.664549	-1.000000	-1.000000	-1.000000	-1.000000	-1.000000	-1.000000	-1.000000	52.000000	0.000000	-1.000000	-1.000000	320531.000000	1775800449.278681
-10125.270000	-2174.175000	14771.025000	40908.465000	23476.905000	4333.815000	-22705.695000	-6228.180000	-0.076815	0.311273	1.252122	2.253876	2.190384	-4.507903	-6.722287	-3.382620	-5.096840	2.197440	-3.036740	-0.720152	-0.137085	0.664549	-1.000000	-1.000000	-1.000000	-1.000000	-1.000000	-1.000000	-1.000000	52.000000	0.000000	-1.000000	-1.000000	320532.000000	1775800449.281910
-10133.010000	-2181.555000	14765.310000	40904.955000	23470.605000	4324.860000	-22711.230000	-6233.895000	1.658765	2.307373	2.642216	1.936010	4.449209	-1.901355	-5.796744	-3.252942	-5.096840	2.197440	-3.036740	-0.720152	-0.137085	0.664549	-1.000000	-1.000000	-1.000000	-1.000000	-1.000000	-1.000000	-1.000000	52.000000	0.000000	-1.000000	-1.000000	320533.000000	1775800449.281926
-10129.680000	-2179.170000	14767.335000	40909.635000	23473.440000	4323.645000	-22708.440000	-6230.925000	2.646445	3.365449	3.265913	1.584591	4.454709	-0.544675	-3.245813	-1.748006	-5.096840	2.197440	-3.036740	-0.720152	-0.137085	0.664549	-1.000000	-1.000000	-1.000000	-1.000000	-1.000000	-1.000000	-1.000000	52.000000	0.000000	-1.000000	-1.000000	320534.000000	1775800449.290120
-10134.765000	-2183.490000	14764.095000	40907.475000	23474.655000	4318.560000	-22711.365000	-6235.245000	2.426568	2.823234	2.757109	1.765852	2.659346	-1.009183	-0.219118	0.144246	-5.096840	2.197440	-3.036740	-0.720152	-0.137085	0.664549	-1.000000	-1.000000	-1.000000	-1.000000	-1.000000	-1.000000	-1.000000	52.000000	0.000000	-1.000000	-1.000000	320535.000000	1775800449.290135
-10135.575000	-2183.310000	14765.085000	40907.880000	23475.060000	4316.175000	-22712.760000	-6235.380000	1.245433	1.047480	1.307234	2.068316	0.501872	-1.966881	2.302564	1.516738	-5.096840	2.197440	-3.036740	-0.720152	-0.137085	0.664549	-1.000000	-1.000000	-1.000000	-1.000000	-1.000000	-1.000000	-1.000000	52.000000	0.000000	-1.000000	-1.000000	320536.000000	1775800449.290148
-10132.155000	-2179.575000	14768.685000	40909.770000	23475.690000	4315.230000	-22712.580000	-6234.300000	-0.133948	-0.817196	-0.273575	1.861717	-0.944337	-1.963634	3.649905	2.008306	-5.096840	2.197440	-3.036740	-0.720152	-0.137085	0.664549	-1.000000	-1.000000	-1.000000	-1.000000	-1.000000	-1.000000	-1.000000	52.000000	0.000000	-1.000000	-1.000000	320537.000000	1775800449.290155
-10124.640000	-2172.105000	14775.345000	40913.145000	23475.780000	4314.735000	-22710.330000	-6228.180000	-0.688280	-1.513588	-1.006410	1.096638	-1.479090	-0.491422	3.798270	1.985352	-5.096840	2.197440	-3.036740	-0.720152	-0.137085	0.664549	-1.000000	-1.000000	-1.000000	-1.000000	-1.000000	-1.000000	-1.000000	52.000000	0.000000	-1.000000	-1.000000	320538.000000	1775800449.294976
-10122.840000	-2170.395000	14776.830000	40915.305000	23475.780000	4307.490000	-22712.490000	-6227.280000	0.084362	-0.601261	-0.524379	0.223914	-1.394928	1.757858	3.181433	2.013941	-5.096840	2.197440	-3.036740	-0.720152	-0.137085	0.664549	-1.000000	-1.000000	-1.000000	-1.000000	-1.000000	-1.000000	-1.000000	52.000000	0.000000	-1.000000	-1.000000	320539.000000	1775800449.294998
-10121.940000	-2169.180000	14779.035000	40917.645000	23473.305000	4301.370000	-22714.875000	-6227.730000	1.399536	0.966414	0.460230	-0.429094	-1.111404	3.323343	2.062706	2.013997	1.312360	1.983800	-2.807840	-0.720579	-0.141357	0.667418	-1.000000	-1.000000	-1.000000	-1.000000	-1.000000	-1.000000	-1.000000	52.000000	0.000000	-1.000000	-1.000000	320540.000000	1775800449.303098
-10120.680000	-2167.965000	14779.395000	40917.870000	23472.945000	4306.770000	-22713.480000	-6227.910000	1.878113	1.703676	0.838080	-0.886008	-0.933824	3.409520	0.595016	1.391887	1.312360	1.983800	-2.807840	-0.720579	-0.141357	0.667418	-1.000000	-1.000000	-1.000000	-1.000000	-1.000000	-1.000000	-1.000000	52.000000	0.000000	-1.000000	-1.000000	320541.000000	1775800449.303122
-10124.865000	-2173.230000	14773.410000	40909.770000	23461.110000	4323.645000	-22710.465000	-6231.375000	0.846612	0.872815	0.017781	-1.475670	-1.053347	3.032305	-0.690610	-0.085770	1.312360	1.983800	-2.807840	-0.720579	-0.141357	0.667418	-1.000000	-1.000000	-1.000000	-1.000000	-1.000000	-1.000000	-1.000000	52.000000	0.000000	-1.000000	-1.000000	320542.000000	1775800449.303158
-10125.405000	-2173.950000	14773.455000	40907.925000	23458.680000	4313.970000	-22716.135000	-6233.355000	-1.292465	-1.185926	-1.776301	-2.509644	-1.585539	3.452597	-1.283286	-1.973096	1.312360	1.983800	-2.807840	-0.720579	-0.141357	0.667418	-1.000000	-1.000000	-1.000000	-1.000000	-1.000000	-1.000000	-1.000000	52.000000	0.000000	-1.000000	-1.000000	320543.000000	1775800449.303171
-10126.890000	-2175.120000	14773.230000	40908.555000	23474.205000	4313.250000	-22718.340000	-6236.505000	-3.396564	-3.301136	-3.481637	-3.531729	-1.778025	3.741804	-1.418901	-3.461759	1.312360	1.983800	-2.807840	-0.720579	-0.141357	0.667418	-1.000000	-1.000000	-1.000000	-1.000000	-1.000000	-1.000000	-1.000000	52.000000	0.000000	-1.000000	-1.000000	320544.000000	1775800449.307349
-10127.160000	-2175.030000	14773.995000	40909.635000	23482.305000	4307.895000	-22720.500000	-6237.270000	-4.260982	-4.135520	-3.824606	-3.413616	-0.054105	2.079681	-1.577133	-3.829724	1.312360	1.983800	-2.807840	-0.720579	-0.141357	0.667418	-1.000000	-1.000000	-1.000000	-1.000000	-1.000000	-1.000000	-1.000000	52.000000	0.000000	-1.000000	-1.000000	320545.000000	1775800449.307371
-10124.415000	-2172.960000	14775.840000	40912.020000	23484.330000	4305.870000	-22720.365000	-6235.110000	-3.353904	-3.100593	-2.382240	-1.609396	3.561409	-1.438952	-1.657319	-2.768048	1.312360	1.983800	-2.807840	-0.720579	-0.141357	0.667418	-1.000000	-1.000000	-1.000000	-1.000000	-1.000000	-1.000000	-1.000000	52.000000	0.000000	-1.000000	-1.000000	320546.000000	1775800449.315089
-10121.715000	-2175.075000	14774.220000	40913.235000	23492.385000	4313.160000	-22711.545000	-6228.720000	-1.001422	-0.714370	0.112574	1.191939	6.609680	-4.730934	-1.066336	-0.434130	1.312360	1.983800	-2.807840	-0.720579	-0.141357	0.667418	-1.000000	-1.000000	-1.000000	-1.000000	-1.000000	-1.000000	-1.000000	52.000000	0.000000	-1.000000	-1.000000	320547.000000	1775800449.315114
-10121.355000	-2181.195000	14765.895000	40905.000000	23487.210000	4312.530000	-22708.710000	-6227.955000	1.774790	1.638620	2.179344	3.441295	6.655120	-5.593320	0.594927	2.449362	1.312360	1.983800	-2.807840	-0.720579	-0.141357	0.667418	-1.000000	-1.000000	-1.000000	-1.000000	-1.000000	-1.000000	-1.000000	52.000000	0.000000	-1.000000	-1.000000	320548.000000	1775800449.315135
-10122.345000	-2182.635000	14762.340000	40897.485000	23469.075000	4307.040000	-22711.095000	-6232.590000	3.640687	2.621140	2.529203	3.597349	2.864260	-3.787283	2.621789	4.458809	1.312360	1.983800	-2.807840	-0.720579	-0.141357	0.667418	-1.000000	-1.000000	-1.000000	-1.000000	-1.000000	-1.000000	-1.000000	52.000000	0.000000	-1.000000	-1.000000	320549.000000	1775800449.315147
-10127.475000	-2183.265000	14764.050000	40899.780000	23452.920000	4290.840000	-22724.505000	-6235.425000	3.638534	2.101672	1.309696	1.547116	-3.959136	-1.400896	3.190030	4.198522	6.393940	1.388660	-0.961380	-0.721373	-0.140136	0.670225	-1.000000	-1.000000	-1.000000	-1.000000	-1.000000	-1.000000	-1.000000	52.000000	0.000000	-1.000000	-1.000000	320550.000000	1775800449.321290
-10113.210000	-2166.030000	14782.005000	40917.735000	23474.880000	4287.060000	-22724.370000	-6223.905000	2.073989	1.381693	0.349751	-0.582241	-10.435808	-0.593621	1.140998	1.911246	6.393940	1.388660	-0.961380	-0.721373	-0.140136	0.670225	-1.000000	-1.000000	-1.000000	-1.000000	-1.000000	-1.000000	-1.000000	52.000000	0.000000	-1.000000	-1.000000	320551.000000	1775800449.321314
-10112.805000	-2166.345000	14780.295000	40914.135000	23479.425000	4302.360000	-22714.920000	-6223.365000	0.543053	1.888263	1.315188	-0.411901	-11.505308	-0.899738	-2.072459	-0.411358	6.393940	1.388660	-0.961380	-0.721373	-0.140136	0.670225	-1.000000	-1.000000	-1.000000	-1.000000	-1.000000	-1.000000	-1.000000	52.000000	0.000000	-1.000000	-1.000000	320552.000000	1775800449.330914
-10129.005000	-2183.580000	14762.970000	40893.525000	23457.420000	4301.595000	-22721.490000	-6240.195000	-0.236468	2.880144	3.053480	1.225713	-5.932497	0.113621	-3.614138	-1.648146	6.393940	1.388660	-0.961380	-0.721373	-0.140136	0.670225	-1.000000	-1.000000	-1.000000	-1.000000	-1.000000	-1.000000	-1.000000	52.000000	0.000000	-1.000000	-1.000000	320553.000000	1775800449.330939
-10130.085000	-2186.865000	14760.360000	40893.165000	23468.130000	4324.365000	-22711.005000	-6241.455000	-1.390733	1.852501	2.522112	1.138564	1.644074	3.432178	-2.437564	-2.709507	6.393940	1.388660	-0.961380	-0.721373	-0.140136	0.670225	-1.000000	-1.000000	-1.000000	-1.000000	-1.000000	-1.000000	-1.000000	52.000000	0.000000	-1.000000	-1.000000	320554.000000	1775800449.330962
-10125.675000	-2184.120000	14762.160000	40894.470000	23473.305000	4327.740000	-22709.385000	-6235.695000	-3.147111	-1.563580	-0.812502	-1.338051	6.724225	7.513198	0.372178	-3.858386	6.393940	1.388660	-0.961380	-0.721373	-0.140136	0.670225	-1.000000	-1.000000	-1.000000	-1.000000	-1.000000	-1.000000	-1.000000	52.000000	0.000000	-1.000000	-1.000000	320555.000000	1775800449.330973
-10123.695000	-2182.950000	14764.185000	40897.125000	23482.530000	4322.385000	-22711.860000	-6232.140000	-3.744646	-4.577601	-4.050945	-3.471411	8.698608	9.406168	2.983795	-3.553145	6.393940	1.388660	-0.961380	-0.721373	-0.140136	0.670225	-1.000000	-1.000000	-1.000000	-1.000000	-1.000000	-1.000000	-1.000000	52.000000	0.000000	-1.000000	-1.000000	320556.000000	1775800449.339808
-10123.470000	-2182.860000	14763.330000	40893.480000	23471.460000	4318.470000	-22711.680000	-6235.875000	-2.066451	-4.709073	-4.526918	-3.056411	8.196501	6.568748	3.693439	-1.081431	6.393940	1.388660	-0.961380	-0.721373	-0.140136	0.670225	-1.000000	-1.000000	-1.000000	-1.000000	-1.000000	-1.000000	-1.000000	52.000000	0.000000	-1.000000	-1.000000	320557.000000	1775800449.339831
-10121.130000	-2178.855000	14768.415000	40898.970000	23471.685000	4318.515000	-22709.340000	-6233.670000	0.908241	-2.074887	-2.187185	-0.519003	5.169881	-0.458084	2.164235	2.055816	6.393940	1.388660	-0.961380	-0.721373	-0.140136	0.670225	-1.000000	-1.000000	-1.000000	-1.000000	-1.000000	-1.000000	-1.000000	52.000000	0.000000	-1.000000	-1.000000	320558.000000	1775800449.339854
-10123.065000	-2180.745000	14765.670000	40894.335000	23471.460000	4315.725000	-22709.880000	-6232.320000	3.324960	1.447473	1.186023	2.317589	0.288474	-7.905672	-0.334407	3.969324	6.393940	1.388660	-0.961380	-0.721373	-0.140136	0.670225	-1.000000	-1.000000	-1.000000	-1.000000	-1.000000	-1.000000	-1.000000	52.000000	0.000000	-1.000000	-1.000000	320559.000000	1775800449.339863
-10120.005000	-2177.370000	14769.855000	40898.205000	23478.210000	4316.220000	-22707.855000	-6231.150000	3.969197	3.856996	3.592360	3.843856	-4.141751	-11.868267	-2.275782	4.032740	4.715340	0.305200	0.824040	-0.721983	-0.135131	0.671446	-1.000000	-1.000000	-1.000000	-1.000000	-1.000000	-1.000000	-1.000000	52.000000	0.000000	-1.000000	-1.000000	320560.000000	1775800449.339873
-10113.570000	-2170.890000	14775.030000	40901.310000	23479.380000	4317.390000	-22706.550000	-6228.540000	2.996202	4.311652	4.114646	3.594957	-5.864375	-10.800711	-2.872790	2.717886	4.715340	0.305200	0.824040	-0.721983	-0.135131	0.671446	-1.000000	-1.000000	-1.000000	-1.000000	-1.000000	-1.000000	-1.000000	52.000000	0.000000	-1.000000	-1.000000	320561.000000	1775800449.339882
-10107.900000	-2166.750000	14776.740000	40899.915000	23478.480000	4316.445000	-22705.515000	-6223.365000	1.565920	3.353016	3.154668	2.189109	-4.646093	-5.820382	-2.185069	0.965333	4.715340	0.305200	0.824040	-0.721983	-0.135131	0.671446	-1.000000	-1.000000	-1.000000	-1.000000	-1.000000	-1.000000	-1.000000	52.000000	0.000000	-1.000000	-1.000000	320562.000000	1775800449.354645
-10115.685000	-2174.895000	14770.620000	40897.845000	23473.980000	4307.895000	-22712.490000	-6227.145000	0.372036	1.642068	1.316611	0.306012	-2.209269	0.205174	-0.997034	-0.471329	4.715340	0.305200	0.824040	-0.721983	-0.135131	0.671446	-1.000000	-1.000000	-1.000000	-1.000000	-1.000000	-1.000000	-1.000000	52.000000	0.000000	-1.000000	-1.000000	320563.000000	1775800449.354670
-10125.990000	-2184.345000	14763.735000	40893.705000	23469.885000	4302.000000	-22721.580000	-6236.370000	-1.188421	-0.938360	-1.248658	-1.697991	-0.510901	4.280506	-0.456096	-1.711757	4.715340	0.305200	0.824040	-0.721983	-0.135131	0.671446	-1.000000	-1.000000	-1.000000	-1.000000	-1.000000	-1.000000	-1.000000	52.000000	0.000000	-1.000000	-1.000000	320564.000000	1775800449.354694
-10127.700000	-2184.030000	14763.420000	40892.805000	23468.805000	4301.640000	-22723.920000	-6241.455000	-3.613656	-4.163340	-4.044342	-3.370177	-0.204040	5.212390	-1.056149	-3.275731	4.715340	0.305200	0.824040	-0.721983	-0.135131	0.671446	-1.000000	-1.000000	-1.000000	-1.000000	-1.000000	-1.000000	-1.000000	52.000000	0.000000	-1.000000	-1.000000	320565.000000	1775800449.354705
-10123.875000	-2178.090000	14768.415000	40895.910000	23470.470000	4302.810000	-22722.435000	-6242.490000	-5.614424	-6.261279	-5.578387	-3.970760	-0.484716	4.150182	-1.832769	-4.734435	4.715340	0.305200	0.824040	-0.721983	-0.135131	0.671446	-1.000000	-1.000000	-1.000000	-1.000000	-1.000000	-1.000000	-1.000000	52.000000	0.000000	-1.000000	-1.000000	320566.000000	1775800449.354822
-10123.470000	-2178.720000	14765.805000	40890.870000	23467.320000	4302.045000	-22719.195000	-6241.905000	-5.166865	-5.327103	-4.530208	-3.035234	-0.260333	2.957686	-1.243083	-4.724584	4.715340	0.305200	0.824040	-0.721983	-0.135131	0.671446	-1.000000	-1.000000	-1.000000	-1.000000	-1.000000	-1.000000	-1.000000	52.000000	0.000000	-1.000000	-1.000000	320567.000000	1775800449.354835
-10119.645000	-2177.145000	14768.280000	40894.785000	23470.560000	4305.960000	-22712.670000	-6232.005000	-1.912279	-1.643696	-1.358744	-1.033471	0.713101	2.504745	1.185002	-2.326305	4.715340	0.305200	0.824040	-0.721983	-0.135131	0.671446	-1.000000	-1.000000	-1.000000	-1.000000	-1.000000	-1.000000	-1.000000	52.000000	0.000000	-1.000000	-1.000000	320568.000000	1775800449.355429
-10123.920000	-2181.420000	14764.770000	40890.915000	23465.655000	4301.460000	-22715.955000	-6232.995000	2.357667	2.458795	2.052705	1.033324	1.868497	2.473829	4.254319	1.889581	4.715340	0.305200	0.824040	-0.721983	-0.135131	0.671446	-1.000000	-1.000000	-1.000000	-1.000000	-1.000000	-1.000000	-1.000000	52.000000	0.000000	-1.000000	-1.000000	320569.000000	1775800449.355462
-10122.795000	-2180.070000	14766.750000	40892.130000	23462.910000	4297.185000	-22717.170000	-6234.120000	5.209312	4.698116	4.003099	2.341483	2.370257	1.936840	5.847590	5.746583	-1.129240	1.236060	1.663340	-0.721251	-0.131225	0.668516	-1.000000	-1.000000	-1.000000	-1.000000	-1.000000	-1.000000	-1.000000	52.000000	0.000000	-1.000000	-1.000000	320570.000000	1775800449.365385
-10121.175000	-2177.685000	14769.405000	40892.760000	23448.465000	4283.010000	-22722.615000	-6234.930000	5.434750	4.486752	4.053033	2.588155	1.541505	0.107050	4.585404	6.890717	-1.129240	1.236060	1.663340	-0.721251	-0.131225	0.668516	-1.000000	-1.000000	-1.000000	-1.000000	-1.000000	-1.000000	-1.000000	52.000000	0.000000	-1.000000	-1.000000	320571.000000	1775800449.365410
-10116.495000	-2172.780000	14773.995000	40896.630000	23442.390000	4274.100000	-22722.885000	-6231.465000	3.704220	2.904043	2.968641	2.119528	-0.630798	-2.905420	1.018266	4.858367	-1.129240	1.236060	1.663340	-0.721251	-0.131225	0.668516	-1.000000	-1.000000	-1.000000	-1.000000	-1.000000	-1.000000	-1.000000	52.000000	0.000000	-1.000000	-1.000000	320572.000000	1775800449.365436
-10116.540000	-2174.040000	14774.130000	40898.205000	23452.065000	4270.320000	-22727.970000	-6231.960000	1.475366	1.271773	1.688513	1.510643	-2.757616	-5.696067	-2.871627	1.240825	-1.129240	1.236060	1.663340	-0.721251	-0.131225	0.668516	-1.000000	-1.000000	-1.000000	-1.000000	-1.000000	-1.000000	-1.000000	52.000000	0.000000	-1.000000	-1.000000	320573.000000	1775800449.365447
-10118.475000	-2177.325000	14771.160000	40899.330000	23487.480000	4291.470000	-22724.820000	-6234.345000	-0.403587	-0.049989	0.440293	0.982811	-2.009363	-5.831378	-5.115889	-2.044762	-1.129240	1.236060	1.663340	-0.721251	-0.131225	0.668516	-1.000000	-1.000000	-1.000000	-1.000000	-1.000000	-1.000000	-1.000000	52.000000	0.000000	-1.000000	-1.000000	320574.000000	1775800449.367480
-10117.665000	-2176.695000	14773.635000	40906.800000	23530.275000	4328.280000	-22713.930000	-6233.445000	-1.845487	-1.334122	-0.951780	0.489011	3.785498	-1.090043	-4.582024	-3.981723	-1.129240	1.236060	1.663340	-0.721251	-0.131225	0.668516	-1.000000	-1.000000	-1.000000	-1.000000	-1.000000	-1.000000	-1.000000	52.000000	0.000000	-1.000000	-1.000000	320575.000000	1775800449.367503
-10121.895000	-2181.735000	14767.785000	40897.935000	23492.250000	4313.835000	-22720.005000	-6238.035000	-2.853406	-2.529879	-2.322417	-0.081315	11.742996	7.369795	-1.532456	-4.389678	-1.129240	1.236060	1.663340	-0.721251	-0.131225	0.668516	-1.000000	-1.000000	-1.000000	-1.000000	-1.000000	-1.000000	-1.000000	52.000000	0.000000	-1.000000	-1.000000	320576.000000	1775800449.369917
-10122.660000	-2183.355000	14761.755000	40885.110000	23465.565000	4307.760000	-22719.195000	-6239.340000	-3.306043	-3.243304	-3.356710	-1.306672	13.149199	13.253389	1.939049	-3.629046	-1.129240	1.236060	1.663340	-0.721251	-0.131225	0.668516	-1.000000	-1.000000	-1.000000	-1.000000	-1.000000	-1.000000	-1.000000	52.000000	0.000000	-1.000000	-1.000000	320577.000000	1775800449.369949
-10123.290000	-2185.920000	14756.400000	40871.385000	23441.805000	4298.535000	-22718.745000	-6238.890000	-3.041128	-3.146338	-3.914024	-3.754927	2.490577	10.622847	3.530414	-2.210813	-1.129240	1.236060	1.663340	-0.721251	-0.131225	0.668516	-1.000000	-1.000000	-1.000000	-1.000000	-1.000000	-1.000000	-1.000000	52.000000	0.000000	-1.000000	-1.000000	320578.000000	1775800449.374939
-10121.805000	-2184.480000	14761.395000	40880.475000	23451.120000	4297.185000	-22718.565000	-6237.405000	-1.922500	-2.086128	-3.575764	-6.260684	-14.232193	0.531806	2.795242	-0.421339	-1.129240	1.236060	1.663340	-0.721251	-0.131225	0.668516	-1.000000	-1.000000	-1.000000	-1.000000	-1.000000	-1.000000	-1.000000	52.000000	0.000000	-1.000000	-1.000000	320579.000000	1775800449.374959
-10121.940000	-2184.615000	14763.015000	40885.965000	23455.170000	4294.530000	-22720.320000	-6238.260000	-0.131849	-0.218382	-1.692539	-5.995946	-24.433560	-10.328048	0.794659	1.435177	-6.577060	2.380560	1.922760	-0.720030	-0.129882	0.666380	-1.000000	-1.000000	-1.000000	-1.000000	-1.000000	-1.000000	-1.000000	52.000000	0.000000	-1.000000	-1.000000	320580.000000	1775800449.386018
-10122.705000	-2184.570000	14763.555000	40887.765000	23456.880000	4282.380000	-22725.315000	-6239.115000	1.673259	1.850590	1.498902	-1.619588	-20.703453	-15.851129	-1.299072	2.759279	-6.577060	2.380560	1.922760	-0.720030	-0.129882	0.666380	-1.000000	-1.000000	-1.000000	-1.000000	-1.000000	-1.000000	-1.000000	52.000000	0.000000	-1.000000	-1.000000	320581.000000	1775800449.386042
-10119.690000	-2180.790000	14768.145000	40892.895000	23466.870000	4290.840000	-22720.815000	-6235.740000	2.765825	3.339264	4.550096	4.672874	-6.055901	-14.215170	-2.673991	3.079183	-6.577060	2.380560	1.922760	-0.720030	-0.129882	0.666380	-1.000000	-1.000000	-1.000000	-1.000000	-1.000000	-1.000000	-1.000000	52.000000	0.000000	-1.000000	-1.000000	320582.000000	1775800449.386067
-10123.920000	-2186.415000	14761.530000	40882.185000	23453.055000	4292.235000	-22723.335000	-6239.340000	2.820654	3.697095	5.867115	8.971822	10.213474	-7.033742	-2.753414	2.456294	-6.577060	2.380560	1.922760	-0.720030	-0.129882	0.666380	-1.000000	-1.000000	-1.000000	-1.000000	-1.000000	-1.000000	-1.000000	52.000000	0.000000	-1.000000	-1.000000	320583.000000	1775800449.386078
-10120.230000	-2184.210000	14763.105000	40884.255000	23464.305000	4297.500000	-22721.445000	-6239.115000	1.939359	2.719541	4.682427	8.661768	19.587281	2.369668	-1.540497	1.200039	-6.577060	2.380560	1.922760	-0.720030	-0.129882	0.666380	-1.000000	-1.000000	-1.000000	-1.000000	-1.000000	-1.000000	-1.000000	52.000000	0.000000	-1.000000	-1.000000	320584.000000	1775800449.386663
-10122.165000	-2188.305000	14760.090000	40882.500000	23470.695000	4299.570000	-22724.820000	-6246.540000	0.609653	0.774237	1.589880	4.273144	19.405462	10.060028	0.174286	-0.404012	-6.577060	2.380560	1.922760	-0.720030	-0.129882	0.666380	-1.000000	-1.000000	-1.000000	-1.000000	-1.000000	-1.000000	-1.000000	52.000000	0.000000	-1.000000	-1.000000	320585.000000	1775800449.386685
-10122.030000	-2189.745000	14757.930000	40880.880000	23468.220000	4290.210000	-22727.070000	-6250.005000	-0.571050	-1.290838	-1.800152	-1.225833	12.625389	12.972827	1.370766	-2.039530	-6.577060	2.380560	1.922760	-0.720030	-0.129882	0.666380	-1.000000	-1.000000	-1.000000	-1.000000	-1.000000	-1.000000	-1.000000	52.000000	0.000000	-1.000000	-1.000000	320586.000000	1775800449.392986
-10115.415000	-2183.895000	14763.240000	40886.460000	23474.205000	4295.520000	-22719.465000	-6240.915000	-1.168380	-2.552978	-3.908230	-4.919825	3.609150	10.306021	1.669026	-2.982349	-6.577060	2.380560	1.922760	-0.720030	-0.129882	0.666380	-1.000000	-1.000000	-1.000000	-1.000000	-1.000000	-1.000000	-1.000000	52.000000	0.000000	-1.000000	-1.000000	320587.000000	1775800449.393009
-10114.155000	-2182.815000	14764.365000	40886.460000	23471.370000	4297.095000	-22719.375000	-6237.270000	-0.893858	-2.309649	-3.838212	-5.462797	-4.267531	4.225743	1.609517	-2.159779	-6.577060	2.380560	1.922760	-0.720030	-0.129882	0.666380	-1.000000	-1.000000	-1.000000	-1.000000	-1.000000	-1.000000	-1.000000	52.000000	0.000000	-1.000000	-1.000000	320588.000000	1775800449.400253
-10114.020000	-2182.365000	14763.780000	40884.885000	23470.380000	4299.255000	-22720.140000	-6238.845000	-0.025693	-0.765585	-1.933878	-3.473107	-9.110031	-1.632112	1.596344	0.365220	-6.577060	2.380560	1.922760	-0.720030	-0.129882	0.666380	-1.000000	-1.000000	-1.000000	-1.000000	-1.000000	-1.000000	-1.000000	52.000000	0.000000	-1.000000	-1.000000	320589.000000	1775800449.400280
-10110.825000	-2180.205000	14764.860000	40883.760000	23471.595000	4301.955000	-22715.775000	-6237.720000	0.617834	0.923786	0.350881	-0.871097	-10.517518	-4.870369	1.344147	2.809197	-8.087800	2.044840	1.129240	-0.720518	-0.134277	0.665098	-1.000000	-1.000000	-1.000000	-1.000000	-1.000000	-1.000000	-1.000000	52.000000	0.000000	-1.000000	-1.000000	320590.000000	1775800449.400305
-10106.415000	-2180.070000	14756.895000	40862.295000	23455.800000	4296.195000	-22708.485000	-6236.505000	0.636974	1.733105	1.561612	0.397401	-9.222317	-5.332627	0.820038	3.488916	-8.087800	2.044840	1.129240	-0.720518	-0.134277	0.665098	-1.000000	-1.000000	-1.000000	-1.000000	-1.000000	-1.000000	-1.000000	52.000000	0.000000	-1.000000	-1.000000	320591.000000	1775800449.400316
-10100.925000	-2175.165000	14759.235000	40859.415000	23454.270000	4295.115000	-22702.275000	-6232.905000	0.362603	1.482254	1.148646	-0.620170	-6.703728	-4.341269	0.512261	2.328840	-8.087800	2.044840	1.129240	-0.720518	-0.134277	0.665098	-1.000000	-1.000000	-1.000000	-1.000000	-1.000000	-1.000000	-1.000000	52.000000	0.000000	-1.000000	-1.000000	320592.000000	1775800449.404348
-10108.890000	-2182.455000	14752.080000	40853.205000	23446.980000	4285.215000	-22709.115000	-6239.115000	0.006173	0.529260	-0.272128	-2.797076	-3.986977	-3.294540	0.383591	0.286118	-8.087800	2.044840	1.129240	-0.720518	-0.134277	0.665098	-1.000000	-1.000000	-1.000000	-1.000000	-1.000000	-1.000000	-1.000000	52.000000	0.000000	-1.000000	-1.000000	320593.000000	1775800449.404369
-10113.525000	-2183.625000	14758.470000	40872.150000	23457.285000	4285.035000	-22717.215000	-6242.355000	-0.904876	-0.860943	-1.456174	-3.271630	-0.884878	-2.697726	-0.561509	-1.866647	-8.087800	2.044840	1.129240	-0.720518	-0.134277	0.665098	-1.000000	-1.000000	-1.000000	-1.000000	-1.000000	-1.000000	-1.000000	52.000000	0.000000	-1.000000	-1.000000	320594.000000	1775800449.410211
-10110.870000	-2179.755000	14766.300000	40886.460000	23465.520000	4288.905000	-22723.020000	-6241.500000	-2.458576	-2.225073	-1.238860	0.162400	3.174366	-1.955387	-2.902694	-3.552825	-8.087800	2.044840	1.129240	-0.720518	-0.134277	0.665098	-1.000000	-1.000000	-1.000000	-1.000000	-1.000000	-1.000000	-1.000000	52.000000	0.000000	-1.000000	-1.000000	320595.000000	1775800449.410236
-10105.740000	-2176.560000	14768.235000	40887.225000	23456.295000	4275.765000	-22724.910000	-6237.720000	-3.385701	-2.556581	0.685878	6.421768	7.453219	-0.397597	-5.465896	-3.906665	-8.087800	2.044840	1.129240	-0.720518	-0.134277	0.665098	-1.000000	-1.000000	-1.000000	-1.000000	-1.000000	-1.000000	-1.000000	52.000000	0.000000	-1.000000	-1.000000	320596.000000	1775800449.410263
-10090.530000	-2161.440000	14783.805000	40902.705000	23466.870000	4275.630000	-22716.405000	-6225.705000	-2.132172	-1.101037	3.298931	11.337289	9.650036	1.378307	-6.000951	-2.213783	-8.087800	2.044840	1.129240	-0.720518	-0.134277	0.665098	-1.000000	-1.000000	-1.000000	-1.000000	-1.000000	-1.000000	-1.000000	52.000000	0.000000	-1.000000	-1.000000	320597.000000	1775800449.410276
-10089.720000	-2160.765000	14785.200000	40904.685000	23467.680000	4283.910000	-22715.325000	-6225.165000	1.312726	1.748918	5.114704	11.476727	8.448840	2.620260	-3.193812	1.131612	-8.087800	2.044840	1.129240	-0.720518	-0.134277	0.665098	-1.000000	-1.000000	-1.000000	-1.000000	-1.000000	-1.000000	-1.000000	52.000000	0.000000	-1.000000	-1.000000	320598.000000	1775800449.416728
-10109.430000	-2182.725000	14762.970000	40881.330000	23452.785000	4284.585000	-22727.205000	-6242.220000	4.405262	3.782612	4.480850	6.103018	4.437203	3.655955	1.562110	3.916295	-8.087800	2.044840	1.129240	-0.720518	-0.134277	0.665098	-1.000000	-1.000000	-1.000000	-1.000000	-1.000000	-1.000000	-1.000000	52.000000	0.000000	-1.000000	-1.000000	320599.000000	1775800449.416753
-10115.820000	-2187.720000	14760.000000	40884.660000	23486.580000	4310.640000	-22719.420000	-6245.685000	3.796211	2.264014	0.157400	-3.302391	-0.623147	4.993555	5.132799	3.456589	-2.136400	1.815940	-1.434440	-0.722715	-0.139221	0.666319	-1.000000	-1.000000	-1.000000	-1.000000	-1.000000	-1.000000	-1.000000	52.000000	0.000000	-1.000000	-1.000000	320600.000000	1775800449.419730
-10109.700000	-2182.320000	14764.275000	40887.540000	23488.380000	4301.910000	-22716.135000	-6238.755000	-0.486800	-2.284126	-6.041973	-12.402446	-3.701474	6.317999	6.010296	-0.023007	-2.136400	1.815940	-1.434440	-0.722715	-0.139221	0.666319	-1.000000	-1.000000	-1.000000	-1.000000	-1.000000	-1.000000	-1.000000	52.000000	0.000000	-1.000000	-1.000000	320601.000000	1775800449.419758
-10108.710000	-2181.060000	14762.970000	40882.185000	23471.280000	4287.555000	-22719.780000	-6236.550000	-4.470057	-5.768846	-9.665922	-16.058496	-3.672688	5.665475	4.932597	-3.114288	-2.136400	1.815940	-1.434440	-0.722715	-0.139221	0.666319	-1.000000	-1.000000	-1.000000	-1.000000	-1.000000	-1.000000	-1.000000	52.000000	0.000000	-1.000000	-1.000000	320602.000000	1775800449.425977
-10115.505000	-2186.280000	14758.470000	40877.595000	23460.255000	4288.275000	-22725.180000	-6244.605000	-4.917156	-5.249165	-8.234596	-12.898504	-3.461745	1.134779	2.692567	-3.345717	-2.136400	1.815940	-1.434440	-0.722715	-0.139221	0.666319	-1.000000	-1.000000	-1.000000	-1.000000	-1.000000	-1.000000	-1.000000	52.000000	0.000000	-1.000000	-1.000000	320603.000000	1775800449.426004
-10104.345000	-2172.195000	14773.860000	40893.885000	23473.755000	4298.670000	-22721.220000	-6240.240000	-2.114476	-1.395199	-2.945748	-5.374863	-5.067119	-5.340892	-0.180163	-1.418935	-2.136400	1.815940	-1.434440	-0.722715	-0.139221	0.666319	-1.000000	-1.000000	-1.000000	-1.000000	-1.000000	-1.000000	-1.000000	52.000000	0.000000	-1.000000	-1.000000	320604.000000	1775800449.427582
-10106.955000	-2174.895000	14770.710000	40889.655000	23472.810000	4296.825000	-22719.420000	-6239.880000	1.898507	3.429141	3.499715	3.245451	-6.257192	-9.191624	-2.495086	0.876174	-2.136400	1.815940	-1.434440	-0.722715	-0.139221	0.666319	-1.000000	-1.000000	-1.000000	-1.000000	-1.000000	-1.000000	-1.000000	52.000000	0.000000	-1.000000	-1.000000	320605.000000	1775800449.427606
-10103.535000	-2169.000000	14777.280000	40895.685000	23482.980000	4298.895000	-22717.305000	-6234.390000	5.041107	6.830529	8.293334	9.814511	-4.356552	-8.243166	-3.099647	2.588199	-2.136400	1.815940	-1.434440	-0.722715	-0.139221	0.666319	-1.000000	-1.000000	-1.000000	-1.000000	-1.000000	-1.000000	-1.000000	52.000000	0.000000	-1.000000	-1.000000	320606.000000	1775800449.432148
-10104.660000	-2166.795000	14781.195000	40899.330000	23493.960000	4298.085000	-22718.790000	-6237.090000	5.827298	7.257325	9.495163	12.057069	0.433833	-4.083286	-2.099536	3.356672	-2.136400	1.815940	-1.434440	-0.722715	-0.139221	0.666319	-1.000000	-1.000000	-1.000000	-1.000000	-1.000000	-1.000000	-1.000000	52.000000	0.000000	-1.000000	-1.000000	320607.000000	1775800449.432169
-10105.830000	-2166.885000	14779.845000	40895.460000	23482.980000	4298.805000	-22715.910000	-6236.640000	4.060363	4.789326	7.063617	9.784395	5.474597	0.406556	-0.591617	2.897814	-2.136400	1.815940	-1.434440	-0.722715	-0.139221	0.666319	-1.000000	-1.000000	-1.000000	-1.000000	-1.000000	-1.000000	-1.000000	52.000000	0.000000	-1.000000	-1.000000	320608.000000	1775800449.435770
-10099.755000	-2166.705000	14771.250000	40875.750000	23462.730000	4296.420000	-22706.550000	-6229.620000	0.888333	0.712668	2.196488	4.110684	7.035176	3.189600	0.645264	1.408044	-2.136400	1.815940	-1.434440	-0.722715	-0.139221	0.666319	-1.000000	-1.000000	-1.000000	-1.000000	-1.000000	-1.000000	-1.000000	52.000000	0.000000	-1.000000	-1.000000	320609.000000	1775800449.435790
-10101.780000	-2170.395000	14770.035000	40882.410000	23472.045000	4294.080000	-22707.990000	-6230.520000	-1.942912	-3.360500	-3.449175	-3.078077	3.458013	3.656568	1.523340	-0.200924	3.708180	0.305200	-1.342880	-0.724180	-0.139770	0.667174	-1.000000	-1.000000	-1.000000	-1.000000	-1.000000	-1.000000	-1.000000	52.000000	0.000000	-1.000000	-1.000000	320610.000000	1775800449.438908
-10101.330000	-2169.540000	14774.580000	40893.075000	23472.495000	4295.115000	-22710.915000	-6229.485000	-3.366776	-6.058792	-7.604511	-8.265562	-2.141798	2.429044	1.706349	-1.258880	3.708180	0.305200	-1.342880	-0.724180	-0.139770	0.667174	-1.000000	-1.000000	-1.000000	-1.000000	-1.000000	-1.000000	-1.000000	52.000000	0.000000	-1.000000	-1.000000	320611.000000	1775800449.438940
-10100.385000	-2169.630000	14773.545000	40890.060000	23464.305000	4293.810000	-22710.915000	-6223.950000	-3.433308	-6.561942	-8.244445	-8.279370	-5.221100	0.779604	0.650346	-1.728950	3.708180	0.305200	-1.342880	-0.724180	-0.139770	0.667174	-1.000000	-1.000000	-1.000000	-1.000000	-1.000000	-1.000000	-1.000000	52.000000	0.000000	-1.000000	-1.000000	320612.000000	1775800449.444408
-10107.900000	-2176.965000	14765.400000	40880.745000	23461.920000	4289.625000	-22716.630000	-6228.900000	-2.742239	-4.978139	-5.492136	-4.009491	-4.595616	-0.342095	-1.351306	-1.734787	3.708180	0.305200	-1.342880	-0.724180	-0.139770	0.667174	-1.000000	-1.000000	-1.000000	-1.000000	-1.000000	-1.000000	-1.000000	52.000000	0.000000	-1.000000	-1.000000	320613.000000	1775800449.444436
-10106.775000	-2172.285000	14770.665000	40884.660000	23473.890000	4293.630000	-22714.110000	-6229.035000	-1.977541	-2.318394	-1.478288	0.653047	-1.651063	-0.716871	-3.185156	-1.622991	3.708180	0.305200	-1.342880	-0.724180	-0.139770	0.667174	-1.000000	-1.000000	-1.000000	-1.000000	-1.000000	-1.000000	-1.000000	52.000000	0.000000	-1.000000	-1.000000	320614.000000	1775800449.452864
-10111.770000	-2174.220000	14769.045000	40883.220000	23476.455000	4295.205000	-22715.640000	-6232.365000	-1.383349	0.457800	1.948773	3.173960	2.274205	-0.334521	-3.696859	-1.729709	3.708180	0.305200	-1.342880	-0.724180	-0.139770	0.667174	-1.000000	-1.000000	-1.000000	-1.000000	-1.000000	-1.000000	-1.000000	52.000000	0.000000	-1.000000	-1.000000	320615.000000	1775800449.452890
-10116.855000	-2178.990000	14763.645000	40878.045000	23468.220000	4282.380000	-22724.415000	-6235.065000	-0.817671	2.669058	3.964431	3.463942	5.558863	0.404842	-2.644476	-1.918790	3.708180	0.305200	-1.342880	-0.724180	-0.139770	0.667174	-1.000000	-1.000000	-1.000000	-1.000000	-1.000000	-1.000000	-1.000000	52.000000	0.000000	-1.000000	-1.000000	320616.000000	1775800449.452915
-10118.160000	-2180.520000	14762.835000	40875.795000	23466.555000	4269.465000	-22732.065000	-6238.395000	-0.214099	3.602602	4.167915	2.264662	6.091371	0.245540	-1.077815	-1.829924	3.708180	0.305200	-1.342880	-0.724180	-0.139770	0.667174	-1.000000	-1.000000	-1.000000	-1.000000	-1.000000	-1.000000	-1.000000	52.000000	0.000000	-1.000000	-1.000000	320617.000000	1775800449.452928
-10119.600000	-2180.205000	14764.005000	40877.820000	23466.645000	4258.980000	-22738.050000	-6246.315000	0.535594	3.149295	2.924697	0.576911	3.391312	-1.570504	-0.122884	-1.338649	3.708180	0.305200	-1.342880	-0.724180	-0.139770	0.667174	-1.000000	-1.000000	-1.000000	-1.000000	-1.000000	-1.000000	-1.000000	52.000000	0.000000	-1.000000	-1.000000	320618.000000	1775800449.457199
-10115.505000	-2175.570000	14768.460000	40880.970000	23461.155000	4261.815000	-22734.135000	-6247.080000	1.610539	2.143875	1.449833	-0.403645	-0.689199	-3.713845	0.352567	-0.598074	3.708180	0.305200	-1.342880	-0.724180	-0.139770	0.667174	-1.000000	-1.000000	-1.000000	-1.000000	-1.000000	-1.000000	-1.000000	52.000000	0.000000	-1.000000	-1.000000	320619.000000	1775800449.457223
-10113.210000	-2176.470000	14766.975000	40880.115000	23456.205000	4285.890000	-22719.735000	-6239.340000	2.959031	1.493691	0.706087	-0.129883	-3.970607	-3.275089	1.601374	0.535575	6.439720	0.412020	0.350980	-0.722654	-0.135864	0.667357	-1.000000	-1.000000	-1.000000	-1.000000	-1.000000	-1.000000	-1.000000	52.000000	0.000000	-1.000000	-1.000000	320620.000000	1775800449.459932
-10106.370000	-2170.080000	14773.230000	40887.585000	23479.380000	4308.165000	-22708.350000	-6225.120000	4.166679	1.361902	0.672376	0.905953	-4.889606	1.752252	4.508505	2.670810	6.439720	0.412020	0.350980	-0.722654	-0.135864	0.667357	-1.000000	-1.000000	-1.000000	-1.000000	-1.000000	-1.000000	-1.000000	52.000000	0.000000	-1.000000	-1.000000	320621.000000	1775800449.459959
-10103.490000	-2165.985000	14776.920000	40890.780000	23484.510000	4309.020000	-22708.485000	-6224.580000	4.630270	1.429508	0.879318	1.920066	-2.413276	9.423191	7.860891	5.619922	6.439720	0.412020	0.350980	-0.722654	-0.135864	0.667357	-1.000000	-1.000000	-1.000000	-1.000000	-1.000000	-1.000000	-1.000000	52.000000	0.000000	-1.000000	-1.000000	320622.000000	1775800449.465267
-10105.785000	-2165.445000	14777.730000	40890.960000	23477.760000	4300.470000	-22714.695000	-6230.565000	3.757917	1.305686	0.919042	2.280224	2.144460	13.873290	8.614169	7.333612	6.439720	0.412020	0.350980	-0.722654	-0.135864	0.667357	-1.000000	-1.000000	-1.000000	-1.000000	-1.000000	-1.000000	-1.000000	52.000000	0.000000	-1.000000	-1.000000	320623.000000	1775800449.465293
-10108.665000	-2163.825000	14778.630000	40891.950000	23479.335000	4295.655000	-22714.650000	-6231.870000	1.238430	0.560981	0.387372	1.491716	5.026735	10.359027	4.825041	5.535419	6.439720	0.412020	0.350980	-0.722654	-0.135864	0.667357	-1.000000	-1.000000	-1.000000	-1.000000	-1.000000	-1.000000	-1.000000	52.000000	0.000000	-1.000000	-1.000000	320624.000000	1775800449.477417
-10112.535000	-2166.975000	14776.515000	40889.430000	23479.425000	4285.170000	-22717.710000	-6232.860000	-2.393780	-0.941790	-0.864964	-0.399903	3.970941	-0.051673	-2.021341	0.510227	6.439720	0.412020	0.350980	-0.722654	-0.135864	0.667357	-1.000000	-1.000000	-1.000000	-1.000000	-1.000000	-1.000000	-1.000000	52.000000	0.000000	-1.000000	-1.000000	320625.000000	1775800449.477443
-10111.365000	-2166.885000	14777.505000	40891.095000	23484.240000	4288.905000	-22716.630000	-6232.050000	-5.627181	-2.778945	-2.430366	-2.615325	0.297542	-11.393082	-8.197956	-4.888653	6.439720	0.412020	0.350980	-0.722654	-0.135864	0.667357	-1.000000	-1.000000	-1.000000	-1.000000	-1.000000	-1.000000	-1.000000	52.000000	0.000000	-1.000000	-1.000000	320626.000000	1775800449.477574
-10113.705000	-2169.270000	14774.220000	40886.280000	23472.495000	4285.080000	-22718.970000	-6235.245000	-6.832417	-4.146724	-3.560130	-4.130447	-3.348288	-17.355296	-10.686452	-7.816371	6.439720	0.412020	0.350980	-0.722654	-0.135864	0.667357	-1.000000	-1.000000	-1.000000	-1.000000	-1.000000	-1.000000	-1.000000	52.000000	0.000000	-1.000000	-1.000000	320627.000000	1775800449.477593
-10120.995000	-2176.470000	14765.895000	40876.290000	23459.085000	4278.060000	-22723.515000	-6240.150000	-5.584996	-4.452021	-3.842128	-4.534010	-5.744675	-15.505805	-8.961653	-7.449697	6.439720	0.412020	0.350980	-0.722654	-0.135864	0.667357	-1.000000	-1.000000	-1.000000	-1.000000	-1.000000	-1.000000	-1.000000	52.000000	0.000000	-1.000000	-1.000000	320628.000000	1775800449.477614
-10124.055000	-2179.800000	14762.880000	40875.120000	23462.280000	4269.015000	-22728.015000	-6241.815000	-2.954757	-3.754265	-3.450587	-4.106198	-6.791349	-8.276550	-4.738243	-4.841239	6.439720	0.412020	0.350980	-0.722654	-0.135864	0.667357	-1.000000	-1.000000	-1.000000	-1.000000	-1.000000	-1.000000	-1.000000	52.000000	0.000000	-1.000000	-1.000000	320629.000000	1775800449.477624
-10115.010000	-2171.295000	14770.980000	40881.780000	23462.595000	4264.830000	-22721.760000	-6234.930000	-0.048946	-2.149590	-2.303208	-2.734453	-5.756794	-0.105598	-0.139511	-1.333568	2.533160	0.366240	0.824040	-0.722838	-0.130066	0.667723	-1.000000	-1.000000	-1.000000	-1.000000	-1.000000	-1.000000	-1.000000	52.000000	0.000000	-1.000000	-1.000000	320630.000000	1775800449.485169
-10115.730000	-2171.700000	14769.810000	40879.035000	23453.910000	4260.690000	-22725.405000	-6236.865000	2.864732	0.538707	0.064244	-0.003488	-2.246905	5.874744	3.643437	2.236267	2.533160	0.366240	0.824040	-0.722838	-0.130066	0.667723	-1.000000	-1.000000	-1.000000	-1.000000	-1.000000	-1.000000	-1.000000	52.000000	0.000000	-1.000000	-1.000000	320631.000000	1775800449.485193
-10113.345000	-2169.270000	14772.915000	40883.085000	23463.270000	4279.410000	-22722.165000	-6234.705000	5.307724	3.704306	3.181978	3.401765	2.365216	9.115556	5.977444	4.955546	2.533160	0.366240	0.824040	-0.722838	-0.130066	0.667723	-1.000000	-1.000000	-1.000000	-1.000000	-1.000000	-1.000000	-1.000000	52.000000	0.000000	-1.000000	-1.000000	320632.000000	1775800449.485218
-10117.215000	-2172.960000	14770.710000	40882.140000	23485.455000	4302.045000	-22721.760000	-6239.520000	6.139148	5.735770	5.458197	5.855866	6.666278	11.094210	6.467864	5.777717	2.533160	0.366240	0.824040	-0.722838	-0.130066	0.667723	-1.000000	-1.000000	-1.000000	-1.000000	-1.000000	-1.000000	-1.000000	52.000000	0.000000	-1.000000	-1.000000	320633.000000	1775800449.485230
-10111.680000	-2167.605000	14777.370000	40890.060000	23493.330000	4305.015000	-22717.665000	-6235.605000	4.766485	5.483395	5.691459	6.302924	10.199175	12.702909	5.315204	4.419833	2.533160	0.366240	0.824040	-0.722838	-0.130066	0.667723	-1.000000	-1.000000	-1.000000	-1.000000	-1.000000	-1.000000	-1.000000	52.000000	0.000000	-1.000000	-1.000000	320634.000000	1775800449.486858
-10112.040000	-2171.745000	14771.070000	40882.545000	23474.295000	4291.560000	-22717.395000	-6232.500000	1.975802	3.263465	3.940095	4.758783	11.288373	11.860105	3.195744	1.877618	2.533160	0.366240	0.824040	-0.722838	-0.130066	0.667723	-1.000000	-1.000000	-1.000000	-1.000000	-1.000000	-1.000000	-1.000000	52.000000	0.000000	-1.000000	-1.000000	320635.000000	1775800449.486881
-10117.035000	-2178.765000	14764.185000	40874.850000	23466.285000	4281.840000	-22719.915000	-6236.280000	-0.935287	0.122201	0.853310	1.588465	7.172214	5.695851	0.723614	-0.425222	2.533160	0.366240	0.824040	-0.722838	-0.130066	0.667723	-1.000000	-1.000000	-1.000000	-1.000000	-1.000000	-1.000000	-1.000000	52.000000	0.000000	-1.000000	-1.000000	320636.000000	1775800449.495496
-10110.240000	-2170.530000	14772.150000	40882.950000	23478.660000	4288.455000	-22714.065000	-6233.490000	-3.102505	-2.816017	-2.546388	-2.326361	-1.473762	-4.625054	-1.602691	-1.860416	2.533160	0.366240	0.824040	-0.722838	-0.130066	0.667723	-1.000000	-1.000000	-1.000000	-1.000000	-1.000000	-1.000000	-1.000000	52.000000	0.000000	-1.000000	-1.000000	320637.000000	1775800449.495521
-10110.240000	-2169.360000	14773.365000	40883.220000	23482.125000	4292.595000	-22713.615000	-6235.155000	-3.870747	-4.143706	-4.505834	-4.985106	-9.249692	-13.427647	-3.089238	-2.459106	2.533160	0.366240	0.824040	-0.722838	-0.130066	0.667723	-1.000000	-1.000000	-1.000000	-1.000000	-1.000000	-1.000000	-1.000000	52.000000	0.000000	-1.000000	-1.000000	320638.000000	1775800449.499374
-10110.735000	-2169.540000	14772.915000	40881.960000	23477.670000	4289.625000	-22717.845000	-6233.625000	-3.086402	-3.187022	-3.936845	-4.925606	-11.515143	-15.732357	-3.391145	-2.346422	2.533160	0.366240	0.824040	-0.722838	-0.130066	0.667723	-1.000000	-1.000000	-1.000000	-1.000000	-1.000000	-1.000000	-1.000000	52.000000	0.000000	-1.000000	-1.000000	320639.000000	1775800449.499400
-10116.945000	-2175.210000	14768.280000	40877.235000	23467.230000	4279.230000	-22724.100000	-6237.810000	-1.657956	-1.081771	-1.796177	-2.899180	-8.729147	-11.631114	-3.107481	-1.782530	-4.776380	0.228900	1.144500	-0.721739	-0.128540	0.667113	-1.000000	-1.000000	-1.000000	-1.000000	-1.000000	-1.000000	-1.000000	52.000000	0.000000	-1.000000	-1.000000	320640.000000	1775800449.499467
-10115.640000	-2174.130000	14769.765000	40877.910000	23464.125000	4275.495000	-22724.505000	-6236.415000	-0.703795	0.421034	0.107203	-0.707934	-4.385996	-5.002275	-2.906278	-1.127417	-4.776380	0.228900	1.144500	-0.721739	-0.128540	0.667113	-1.000000	-1.000000	-1.000000	-1.000000	-1.000000	-1.000000	-1.000000	52.000000	0.000000	-1.000000	-1.000000	320641.000000	1775800449.499479
-10108.755000	-2166.480000	14776.830000	40884.345000	23483.835000	4276.710000	-22722.030000	-6232.095000	-0.244109	0.867893	1.074721	0.785423	-0.531717	0.720978	-2.487418	-0.436070	-4.776380	0.228900	1.144500	-0.721739	-0.128540	0.667113	-1.000000	-1.000000	-1.000000	-1.000000	-1.000000	-1.000000	-1.000000	52.000000	0.000000	-1.000000	-1.000000	320642.000000	1775800449.503886
-10117.080000	-2173.455000	14770.530000	40878.810000	23493.285000	4271.760000	-22731.615000	-6244.155000	0.379257	0.964366	1.502854	1.753272	3.388884	4.437140	-1.296660	0.293387	-4.776380	0.228900	1.144500	-0.721739	-0.128540	0.667113	-1.000000	-1.000000	-1.000000	-1.000000	-1.000000	-1.000000	-1.000000	52.000000	0.000000	-1.000000	-1.000000	320643.000000	1775800449.503912
-10116.045000	-2172.555000	14771.205000	40877.685000	23485.050000	4263.840000	-22737.600000	-6250.995000	1.031004	0.934349	1.477045	2.118080	7.272674	6.098517	0.174632	0.394685	-4.776380	0.228900	1.144500	-0.721739	-0.128540	0.667113	-1.000000	-1.000000	-1.000000	-1.000000	-1.000000	-1.000000	-1.000000	52.000000	0.000000	-1.000000	-1.000000	320644.000000	1775800449.507632
-10110.645000	-2168.280000	14776.785000	40882.545000	23467.410000	4274.370000	-22729.590000	-6248.385000	1.256438	0.589948	0.913957	1.662196	8.333724	5.984782	1.210999	-0.470040	-4.776380	0.228900	1.144500	-0.721739	-0.128540	0.667113	-1.000000	-1.000000	-1.000000	-1.000000	-1.000000	-1.000000	-1.000000	52.000000	0.000000	-1.000000	-1.000000	320645.000000	1775800449.507656
-10111.590000	-2175.840000	14768.550000	40873.995000	23457.825000	4282.605000	-22720.230000	-6240.870000	1.308334	0.125326	0.195661	0.734846	4.281922	5.304990	2.335956	-1.024262	-4.776380	0.228900	1.144500	-0.721739	-0.128540	0.667113	-1.000000	-1.000000	-1.000000	-1.000000	-1.000000	-1.000000	-1.000000	52.000000	0.000000	-1.000000	-1.000000	320646.000000	1775800449.511809
-10103.490000	-2172.240000	14770.170000	40878.405000	23462.100000	4278.375000	-22717.170000	-6228.540000	1.510112	-0.339503	-0.505518	-0.257380	-2.841148	5.020942	4.186100	0.363840	-4.776380	0.228900	1.144500	-0.721739	-0.128540	0.667113	-1.000000	-1.000000	-1.000000	-1.000000	-1.000000	-1.000000	-1.000000	52.000000	0.000000	-1.000000	-1.000000	320647.000000	1775800449.511834
-10092.420000	-2163.105000	14780.520000	40892.355000	23475.330000	4276.575000	-22714.785000	-6221.970000	1.952309	-0.529696	-0.955675	-0.693292	-7.639154	4.277350	5.801722	3.592494	-4.776380	0.228900	1.144500	-0.721739	-0.128540	0.667113	-1.000000	-1.000000	-1.000000	-1.000000	-1.000000	-1.000000	-1.000000	52.000000	0.000000	-1.000000	-1.000000	320648.000000	1775800449.514489
-10095.435000	-2163.465000	14781.600000	40891.815000	23480.460000	4277.790000	-22715.865000	-6226.605000	2.449951	0.117484	-0.439006	0.204746	-6.302542	1.908529	5.449681	6.370713	-4.776380	0.228900	1.144500	-0.721739	-0.128540	0.667113	-1.000000	-1.000000	-1.000000	-1.000000	-1.000000	-1.000000	-1.000000	52.000000	0.000000	-1.000000	-1.000000	320649.000000	1775800449.514514
-10099.620000	-2168.280000	14774.670000	40880.385000	23485.410000	4289.805000	-22712.400000	-6229.080000	1.985967	1.143621	0.771662	1.569796	-0.099072	-1.323873	2.599317	5.923151	-7.630000	1.281840	0.198380	-0.719236	-0.132263	0.667296	-1.000000	-1.000000	-1.000000	-1.000000	-1.000000	-1.000000	-1.000000	52.000000	0.000000	-1.000000	-1.000000	320650.000000	1775800449.519156
-10101.150000	-2170.710000	14770.845000	40874.220000	23477.805000	4292.955000	-22712.490000	-6232.005000	-0.314890	1.168824	1.103647	1.167704	6.037783	-3.376057	-1.485201	1.658768	-7.630000	1.281840	0.198380	-0.719236	-0.132263	0.667296	-1.000000	-1.000000	-1.000000	-1.000000	-1.000000	-1.000000	-1.000000	52.000000	0.000000	-1.000000	-1.000000	320651.000000	1775800449.519178
-10094.265000	-2163.105000	14779.170000	40882.860000	23486.040000	4285.260000	-22711.095000	-6226.470000	-3.457790	-0.087386	-0.031070	-1.337466	7.907775	-3.550426	-4.858763	-3.991659	-7.630000	1.281840	0.198380	-0.719236	-0.132263	0.667296	-1.000000	-1.000000	-1.000000	-1.000000	-1.000000	-1.000000	-1.000000	52.000000	0.000000	-1.000000	-1.000000	320652.000000	1775800449.530905
-10103.265000	-2172.015000	14770.530000	40873.725000	23471.595000	4273.110000	-22718.430000	-6233.670000	-5.355354	-1.455741	-1.411690	-3.661940	4.906393	-3.375237	-6.382248	-7.701239	-7.630000	1.281840	0.198380	-0.719236	-0.132263	0.667296	-1.000000	-1.000000	-1.000000	-1.000000	-1.000000	-1.000000	-1.000000	52.000000	0.000000	-1.000000	-1.000000	320653.000000	1775800449.530933
-10101.195000	-2168.820000	14775.120000	40879.710000	23476.995000	4277.610000	-22716.945000	-6231.870000	-5.117108	-2.066512	-1.917244	-3.890019	-0.690941	-4.149503	-6.101296	-7.945109	-7.630000	1.281840	0.198380	-0.719236	-0.132263	0.667296	-1.000000	-1.000000	-1.000000	-1.000000	-1.000000	-1.000000	-1.000000	52.000000	0.000000	-1.000000	-1.000000	320654.000000	1775800449.533065
-10101.645000	-2171.295000	14770.935000	40873.950000	23482.260000	4288.410000	-22714.020000	-6230.925000	-3.249678	-1.871605	-1.468261	-2.090351	-5.468582	-4.626276	-4.379749	-5.303530	-7.630000	1.281840	0.198380	-0.719236	-0.132263	0.667296	-1.000000	-1.000000	-1.000000	-1.000000	-1.000000	-1.000000	-1.000000	52.000000	0.000000	-1.000000	-1.000000	320655.000000	1775800449.533089
-10100.520000	-2169.405000	14772.195000	40874.670000	23481.270000	4287.825000	-22712.355000	-6230.880000	-0.554920	-1.011551	-0.471623	0.457340	-6.718240	-2.736599	-1.488788	-1.242027	-7.630000	1.281840	0.198380	-0.719236	-0.132263	0.667296	-1.000000	-1.000000	-1.000000	-1.000000	-1.000000	-1.000000	-1.000000	52.000000	0.000000	-1.000000	-1.000000	320656.000000	1775800449.533110
-10102.320000	-2169.270000	14774.040000	40876.020000	23473.260000	4278.735000	-22721.040000	-6235.965000	2.054403	0.232673	0.609350	2.427661	-4.602047	0.959766	1.624068	2.467369	-7.630000	1.281840	0.198380	-0.719236	-0.132263	0.667296	-1.000000	-1.000000	-1.000000	-1.000000	-1.000000	-1.000000	-1.000000	52.000000	0.000000	-1.000000	-1.000000	320657.000000	1775800449.533121
-10096.830000	-2164.815000	14778.000000	40877.730000	23477.310000	4280.220000	-22717.890000	-6232.635000	3.750666	1.475129	1.564284	3.311298	-1.492064	3.675590	3.467819	4.403336	-7.630000	1.281840	0.198380	-0.719236	-0.132263	0.667296	-1.000000	-1.000000	-1.000000	-1.000000	-1.000000	-1.000000	-1.000000	52.000000	0.000000	-1.000000	-1.000000	320658.000000	1775800449.535934
-10103.850000	-2172.780000	14768.370000	40865.670000	23464.080000	4274.010000	-22720.365000	-6237.315000	4.150613	2.225029	2.095287	3.011300	0.668484	3.787344	3.512733	4.333550	-7.630000	1.281840	0.198380	-0.719236	-0.132263	0.667296	-1.000000	-1.000000	-1.000000	-1.000000	-1.000000	-1.000000	-1.000000	52.000000	0.000000	-1.000000	-1.000000	320659.000000	1775800449.535958
-10109.160000	-2178.180000	14761.350000	40858.560000	23463.540000	4273.830000	-22721.130000	-6241.545000	3.057981	1.786135	1.441407	1.253076	1.234794	1.968187	2.468625	2.864408	-3.860780	1.159760	0.549360	-0.717772	-0.138549	0.668455	-1.000000	-1.000000	-1.000000	-1.000000	-1.000000	-1.000000	-1.000000	52.000000	0.000000	-1.000000	-1.000000	320660.000000	1775800449.538793
-10110.825000	-2176.605000	14764.995000	40863.870000	23471.595000	4273.920000	-22725.630000	-6249.105000	0.691062	0.088593	-0.474786	-1.385029	0.916328	-0.096450	1.145222	0.664628	-3.860780	1.159760	0.549360	-0.717772	-0.138549	0.668455	-1.000000	-1.000000	-1.000000	-1.000000	-1.000000	-1.000000	-1.000000	52.000000	0.000000	-1.000000	-1.000000	320661.000000	1775800449.538815
-10105.830000	-2172.510000	14768.955000	40868.550000	23471.910000	4269.375000	-22723.470000	-6244.425000	-1.646751	-1.549200	-2.086324	-2.875523	1.260706	-1.105674	0.013924	-1.392399	-3.860780	1.159760	0.549360	-0.717772	-0.138549	0.668455	-1.000000	-1.000000	-1.000000	-1.000000	-1.000000	-1.000000	-1.000000	52.000000	0.000000	-1.000000	-1.000000	320662.000000	1775800449.544218
-10108.215000	-2175.705000	14765.130000	40861.935000	23448.825000	4253.805000	-22726.575000	-6242.265000	-2.389341	-1.703093	-1.858932	-1.897531	2.239256	-1.189002	-0.581676	-2.081173	-3.860780	1.159760	0.549360	-0.717772	-0.138549	0.668455	-1.000000	-1.000000	-1.000000	-1.000000	-1.000000	-1.000000	-1.000000	52.000000	0.000000	-1.000000	-1.000000	320663.000000	1775800449.544243
-10102.770000	-2167.200000	14773.455000	40868.595000	23447.610000	4257.630000	-22724.955000	-6235.470000	-1.253866	-0.357774	-0.052072	0.516320	1.894176	-1.273697	-0.535934	-0.748657	-3.860780	1.159760	0.549360	-0.717772	-0.138549	0.668455	-1.000000	-1.000000	-1.000000	-1.000000	-1.000000	-1.000000	-1.000000	52.000000	0.000000	-1.000000	-1.000000	320664.000000	1775800449.547207
-10102.995000	-2164.590000	14776.695000	40874.130000	23465.835000	4276.665000	-22722.840000	-6236.505000	0.751580	1.576249	2.120774	2.674340	0.135748	-0.867497	-0.009971	1.772580	-3.860780	1.159760	0.549360	-0.717772	-0.138549	0.668455	-1.000000	-1.000000	-1.000000	-1.000000	-1.000000	-1.000000	-1.000000	52.000000	0.000000	-1.000000	-1.000000	320665.000000	1775800449.547231
-10101.645000	-2162.700000	14780.745000	40880.655000	23493.285000	4301.325000	-22715.460000	-6234.390000	2.300646	3.055156	3.615370	3.867182	0.128423	1.896916	0.850291	3.639094	-3.860780	1.159760	0.549360	-0.717772	-0.138549	0.668455	-1.000000	-1.000000	-1.000000	-1.000000	-1.000000	-1.000000	-1.000000	52.000000	0.000000	-1.000000	-1.000000	320666.000000	1775800449.558954
-10101.330000	-2163.285000	14780.520000	40879.035000	23484.150000	4290.030000	-22717.170000	-6234.885000	2.510165	3.124329	3.650234	3.822690	3.526336	6.637079	1.779064	3.488643	-3.860780	1.159760	0.549360	-0.717772	-0.138549	0.668455	-1.000000	-1.000000	-1.000000	-1.000000	-1.000000	-1.000000	-1.000000	52.000000	0.000000	-1.000000	-1.000000	320667.000000	1775800449.558981
-10097.145000	-2161.755000	14780.835000	40878.045000	23478.165000	4276.575000	-22717.215000	-6232.185000	1.445802	1.527835	1.972208	2.197885	6.808277	8.930914	2.057529	1.451381	-3.860780	1.159760	0.549360	-0.717772	-0.138549	0.668455	-1.000000	-1.000000	-1.000000	-1.000000	-1.000000	-1.000000	-1.000000	52.000000	0.000000	-1.000000	-1.000000	320668.000000	1775800449.559004
-10104.975000	-2171.565000	14770.845000	40868.460000	23480.505000	4269.555000	-22724.280000	-6238.755000	-0.210612	-1.113053	-0.977346	-0.946817	5.435895	4.842554	0.962021	-1.317268	-3.860780	1.159760	0.549360	-0.717772	-0.138549	0.668455	-1.000000	-1.000000	-1.000000	-1.000000	-1.000000	-1.000000	-1.000000	52.000000	0.000000	-1.000000	-1.000000	320669.000000	1775800449.559015
-10109.115000	-2180.115000	14763.195000	40860.945000	23477.130000	4268.205000	-22725.180000	-6238.440000	-2.020534	-3.982465	-4.362604	-4.765205	-0.455992	-3.881467	-1.364529	-3.692427	3.036740	1.892240	0.259420	-0.718382	-0.140686	0.670164	-1.000000	-1.000000	-1.000000	-1.000000	-1.000000	-1.000000	-1.000000	52.000000	0.000000	-1.000000	-1.000000	320670.000000	1775800449.569837
-10110.915000	-2184.570000	14758.965000	40855.410000	23469.660000	4268.835000	-22723.155000	-6239.790000	-3.618712	-6.187502	-6.969252	-7.724134	-7.051931	-11.300148	-3.621598	-4.852911	3.036740	1.892240	0.259420	-0.718382	-0.140686	0.670164	-1.000000	-1.000000	-1.000000	-1.000000	-1.000000	-1.000000	-1.000000	52.000000	0.000000	-1.000000	-1.000000	320671.000000	1775800449.569862
-10098.540000	-2170.575000	14771.115000	40867.110000	23477.535000	4274.595000	-22718.070000	-6232.680000	-3.956999	-6.238448	-7.085100	-7.933385	-10.723602	-12.668526	-4.126168	-4.191331	3.036740	1.892240	0.259420	-0.718382	-0.140686	0.670164	-1.000000	-1.000000	-1.000000	-1.000000	-1.000000	-1.000000	-1.000000	52.000000	0.000000	-1.000000	-1.000000	320672.000000	1775800449.569888
-10098.450000	-2168.415000	14770.215000	40863.150000	23472.270000	4271.805000	-22716.225000	-6235.065000	-2.018686	-2.882198	-3.613744	-4.358596	-9.761218	-7.659730	-2.272952	-1.774559	3.036740	1.892240	0.259420	-0.718382	-0.140686	0.670164	-1.000000	-1.000000	-1.000000	-1.000000	-1.000000	-1.000000	-1.000000	52.000000	0.000000	-1.000000	-1.000000	320673.000000	1775800449.569908
-10094.760000	-2163.330000	14775.030000	40865.490000	23473.530000	4269.915000	-22717.530000	-6233.535000	1.481287	2.840563	2.159980	1.540301	-5.027188	0.110160	0.761395	1.215013	3.036740	1.892240	0.259420	-0.718382	-0.140686	0.670164	-1.000000	-1.000000	-1.000000	-1.000000	-1.000000	-1.000000	-1.000000	52.000000	0.000000	-1.000000	-1.000000	320674.000000	1775800449.569933
-10095.165000	-2166.300000	14771.925000	40859.505000	23469.705000	4266.855000	-22721.040000	-6234.255000	4.309729	7.643036	7.037013	6.459684	0.718984	6.130544	2.910262	3.198568	3.036740	1.892240	0.259420	-0.718382	-0.140686	0.670164	-1.000000	-1.000000	-1.000000	-1.000000	-1.000000	-1.000000	-1.000000	52.000000	0.000000	-1.000000	-1.000000	320675.000000	1775800449.569957
-10098.135000	-2168.640000	14771.970000	40862.385000	23472.135000	4266.450000	-22725.495000	-6235.425000	4.683917	8.599330	8.406280	7.964604	4.920338	8.037270	2.839279	3.392725	3.036740	1.892240	0.259420	-0.718382	-0.140686	0.670164	-1.000000	-1.000000	-1.000000	-1.000000	-1.000000	-1.000000	-1.000000	52.000000	0.000000	-1.000000	-1.000000	320676.000000	1775800449.571268
-10104.030000	-2173.320000	14769.045000	40863.060000	23474.295000	4264.470000	-22730.490000	-6241.095000	2.374090	5.240579	5.910610	6.110445	6.603191	6.302497	0.802929	1.992707	3.036740	1.892240	0.259420	-0.718382	-0.140686	0.670164	-1.000000	-1.000000	-1.000000	-1.000000	-1.000000	-1.000000	-1.000000	52.000000	0.000000	-1.000000	-1.000000	320677.000000	1775800449.571293
-10106.505000	-2176.695000	14766.885000	40861.080000	23466.015000	4266.855000	-22730.265000	-6245.955000	-1.375898	-0.414375	1.246588	2.669036	6.013816	2.963854	-1.699921	-0.284637	3.036740	1.892240	0.259420	-0.718382	-0.140686	0.670164	-1.000000	-1.000000	-1.000000	-1.000000	-1.000000	-1.000000	-1.000000	52.000000	0.000000	-1.000000	-1.000000	320678.000000	1775800449.577942
-10105.695000	-2177.055000	14766.300000	40861.350000	23467.545000	4268.655000	-22727.835000	-6245.550000	-4.463409	-5.332321	-3.157980	-0.622329	3.718434	0.088816	-2.896002	-2.371276	3.036740	1.892240	0.259420	-0.718382	-0.140686	0.670164	-1.000000	-1.000000	-1.000000	-1.000000	-1.000000	-1.000000	-1.000000	52.000000	0.000000	-1.000000	-1.000000	320679.000000	1775800449.577963
-10101.690000	-2170.890000	14773.860000	40869.225000	23474.160000	4271.445000	-22725.855000	-6241.320000	-5.058891	-7.103454	-5.305059	-2.634206	0.868486	-1.227912	-1.895860	-3.008382	5.341000	1.571780	0.122080	-0.720030	-0.138977	0.670897	-1.000000	-1.000000	-1.000000	-1.000000	-1.000000	-1.000000	-1.000000	52.000000	0.000000	-1.000000	-1.000000	320680.000000	1775800449.579871
-10093.185000	-2160.000000	14784.975000	40879.710000	23485.770000	4276.620000	-22720.365000	-6232.905000	-2.679999	-4.910659	-4.225779	-2.620249	-0.732473	-1.057561	0.717711	-1.446961	5.341000	1.571780	0.122080	-0.720030	-0.138977	0.670897	-1.000000	-1.000000	-1.000000	-1.000000	-1.000000	-1.000000	-1.000000	52.000000	0.000000	-1.000000	-1.000000	320681.000000	1775800449.579894
-10090.485000	-2155.455000	14788.350000	40880.835000	23489.370000	4266.855000	-22721.265000	-6230.205000	1.475303	0.045013	-0.595898	-0.795801	-0.201141	-0.367394	3.379104	1.723125	5.341000	1.571780	0.122080	-0.720030	-0.138977	0.670897	-1.000000	-1.000000	-1.000000	-1.000000	-1.000000	-1.000000	-1.000000	52.000000	0.000000	-1.000000	-1.000000	320682.000000	1775800449.581898
-10105.470000	-2171.880000	14770.305000	40860.855000	23464.620000	4256.370000	-22730.625000	-6243.255000	4.765393	4.555118	2.829645	0.813218	0.828429	-0.640203	4.313951	4.326970	5.341000	1.571780	0.122080	-0.720030	-0.138977	0.670897	-1.000000	-1.000000	-1.000000	-1.000000	-1.000000	-1.000000	-1.000000	52.000000	0.000000	-1.000000	-1.000000	320683.000000	1775800449.581913
-10109.115000	-2175.345000	14766.570000	40855.950000	23455.620000	4259.610000	-22731.255000	-6246.945000	4.574744	5.165463	2.866404	-0.286612	-0.607784	-2.397876	2.565362	3.938969	5.341000	1.571780	0.122080	-0.720030	-0.138977	0.670897	-1.000000	-1.000000	-1.000000	-1.000000	-1.000000	-1.000000	-1.000000	52.000000	0.000000	-1.000000	-1.000000	320684.000000	1775800449.587214
-10104.480000	-2171.205000	14771.565000	40862.700000	23470.920000	4260.825000	-22730.535000	-6243.120000	1.072479	1.628433	-0.535688	-3.659676	-4.450971	-4.009345	-0.822235	0.571822	5.341000	1.571780	0.122080	-0.720030	-0.138977	0.670897	-1.000000	-1.000000	-1.000000	-1.000000	-1.000000	-1.000000	-1.000000	52.000000	0.000000	-1.000000	-1.000000	320685.000000	1775800449.587234
-10097.550000	-2166.255000	14777.100000	40872.060000	23484.825000	4259.430000	-22727.520000	-6236.775000	-2.464287	-2.546777	-3.825521	-5.621208	-6.397820	-3.507984	-3.411184	-2.858528	5.341000	1.571780	0.122080	-0.720030	-0.138977	0.670897	-1.000000	-1.000000	-1.000000	-1.000000	-1.000000	-1.000000	-1.000000	52.000000	0.000000	-1.000000	-1.000000	320686.000000	1775800449.589934
-10088.685000	-2159.730000	14783.130000	40881.555000	23489.865000	4264.065000	-22720.410000	-6227.685000	-2.983904	-3.836583	-3.801707	-3.358341	-3.227371	-0.856735	-3.467632	-3.473024	5.341000	1.571780	0.122080	-0.720030	-0.138977	0.670897	-1.000000	-1.000000	-1.000000	-1.000000	-1.000000	-1.000000	-1.000000	52.000000	0.000000	-1.000000	-1.000000	320687.000000	1775800449.589955
-10100.790000	-2173.005000	14768.955000	40866.480000	23466.465000	4261.545000	-22723.155000	-6234.975000	-0.661159	-2.018535	-0.860107	1.738935	2.566787	2.389255	-1.228365	-1.207402	5.341000	1.571780	0.122080	-0.720030	-0.138977	0.670897	-1.000000	-1.000000	-1.000000	-1.000000	-1.000000	-1.000000	-1.000000	52.000000	0.000000	-1.000000	-1.000000	320688.000000	1775800449.593652
-10102.905000	-2174.895000	14767.290000	40860.090000	23460.660000	4253.985000	-22726.350000	-6238.440000	1.546305	0.250691	1.855412	5.248667	5.321878	4.305551	1.328171	1.314133	5.341000	1.571780	0.122080	-0.720030	-0.138977	0.670897	-1.000000	-1.000000	-1.000000	-1.000000	-1.000000	-1.000000	-1.000000	52.000000	0.000000	-1.000000	-1.000000	320689.000000	1775800449.593668
-10096.020000	-2167.695000	14773.050000	40861.530000	23451.750000	4248.630000	-22724.640000	-6234.570000	1.527600	0.972821	2.307894	4.431335	2.655984	3.637022	2.240870	1.764046	3.006220	1.556520	1.007160	-0.720518	-0.133545	0.670164	-1.000000	-1.000000	-1.000000	-1.000000	-1.000000	-1.000000	-1.000000	52.000000	0.000000	-1.000000	-1.000000	320690.000000	1775800449.598866
-10089.495000	-2160.990000	14776.695000	40861.800000	23456.340000	4253.535000	-22717.350000	-6227.865000	0.278855	0.897204	1.494365	0.899979	-2.371565	0.999491	1.455351	0.540830	3.006220	1.556520	1.007160	-0.720518	-0.133545	0.670164	-1.000000	-1.000000	-1.000000	-1.000000	-1.000000	-1.000000	-1.000000	52.000000	0.000000	-1.000000	-1.000000	320691.000000	1775800449.598880
-10091.340000	-2160.540000	14778.000000	40865.445000	23470.380000	4262.805000	-22717.755000	-6230.790000	-0.312517	1.407614	1.134606	-1.914525	-4.807955	-1.216006	0.361169	-0.552832	3.006220	1.556520	1.007160	-0.720518	-0.133545	0.670164	-1.000000	-1.000000	-1.000000	-1.000000	-1.000000	-1.000000	-1.000000	52.000000	0.000000	-1.000000	-1.000000	320692.000000	1775800449.601950
-10103.760000	-2170.395000	14769.855000	40857.435000	23475.240000	4272.795000	-22726.440000	-6241.635000	-0.292777	2.063267	1.275522	-2.334261	-2.168372	-0.948047	-0.365762	-1.027665	3.006220	1.556520	1.007160	-0.720518	-0.133545	0.670164	-1.000000	-1.000000	-1.000000	-1.000000	-1.000000	-1.000000	-1.000000	52.000000	0.000000	-1.000000	-1.000000	320693.000000	1775800449.601961
-10104.525000	-2169.990000	14770.485000	40859.055000	23487.930000	4283.595000	-22722.660000	-6240.735000	-0.976589	1.398558	0.829688	-1.141096	3.747986	1.642597	-1.161427	-1.657751	3.006220	1.556520	1.007160	-0.720518	-0.133545	0.670164	-1.000000	-1.000000	-1.000000	-1.000000	-1.000000	-1.000000	-1.000000	52.000000	0.000000	-1.000000	-1.000000	320694.000000	1775800449.606975
-10105.155000	-2170.170000	14770.755000	40861.260000	23479.875000	4267.440000	-22722.480000	-6239.790000	-2.390018	-0.654665	-0.464503	0.278120	8.563695	4.058258	-1.952412	-2.371846	3.006220	1.556520	1.007160	-0.720518	-0.133545	0.670164	-1.000000	-1.000000	-1.000000	-1.000000	-1.000000	-1.000000	-1.000000	52.000000	0.000000	-1.000000	-1.000000	320695.000000	1775800449.606993
-10104.525000	-2169.585000	14771.205000	40861.710000	23473.305000	4260.600000	-22720.320000	-6236.190000	-3.022930	-2.502970	-1.624941	1.365385	8.498757	3.147954	-1.940354	-2.041042	3.006220	1.556520	1.007160	-0.720518	-0.133545	0.670164	-1.000000	-1.000000	-1.000000	-1.000000	-1.000000	-1.000000	-1.000000	52.000000	0.000000	-1.000000	-1.000000	320696.000000	1775800449.613261
-10101.825000	-2167.155000	14773.770000	40863.555000	23472.720000	4266.450000	-22716.585000	-6233.445000	-1.817208	-2.757018	-1.731177	1.986084	3.037979	-1.481298	-0.816435	-0.168001	3.006220	1.556520	1.007160	-0.720518	-0.133545	0.670164	-1.000000	-1.000000	-1.000000	-1.000000	-1.000000	-1.000000	-1.000000	52.000000	0.000000	-1.000000	-1.000000	320697.000000	1775800449.613286
-10100.700000	-2166.795000	14774.895000	40864.590000	23476.455000	4270.725000	-22717.035000	-6233.760000	0.797265	-1.351972	-0.740321	1.999711	-4.350262	-6.248810	0.868102	2.346391	3.006220	1.556520	1.007160	-0.720518	-0.133545	0.670164	-1.000000	-1.000000	-1.000000	-1.000000	-1.000000	-1.000000	-1.000000	52.000000	0.000000	-1.000000	-1.000000	320698.000000	1775800449.615165
-10096.065000	-2161.080000	14780.970000	40869.450000	23481.135000	4267.755000	-22722.030000	-6233.490000	3.452672	0.781905	0.748364	1.472169	-8.954128	-7.454741	2.009775	3.938699	3.006220	1.556520	1.007160	-0.720518	-0.133545	0.670164	-1.000000	-1.000000	-1.000000	-1.000000	-1.000000	-1.000000	-1.000000	52.000000	0.000000	-1.000000	-1.000000	320699.000000	1775800449.615184
-10090.080000	-2155.680000	14786.280000	40871.070000	23482.620000	4273.560000	-22715.955000	-6228.360000	4.951910	2.635588	2.080676	0.718298	-8.516633	-4.773936	1.826584	3.747945	-2.884140	1.831200	1.403920	-0.719969	-0.129333	0.668089	-1.000000	-1.000000	-1.000000	-1.000000	-1.000000	-1.000000	-1.000000	52.000000	0.000000	-1.000000	-1.000000	320700.000000	1775800449.619127
-10092.555000	-2159.100000	14783.040000	40868.685000	23475.960000	4275.180000	-22711.905000	-6229.080000	4.770002	3.465459	2.664429	-0.099373	-4.457998	-0.315225	0.844119	2.197797	-2.884140	1.831200	1.403920	-0.719969	-0.129333	0.668089	-1.000000	-1.000000	-1.000000	-1.000000	-1.000000	-1.000000	-1.000000	52.000000	0.000000	-1.000000	-1.000000	320701.000000	1775800449.619146
-10092.645000	-2159.010000	14782.995000	40868.460000	23469.795000	4266.360000	-22716.000000	-6228.720000	2.819371	2.675292	1.884462	-1.117038	-0.186917	3.370656	0.086818	0.185311	-2.884140	1.831200	1.403920	-0.719969	-0.129333	0.668089	-1.000000	-1.000000	-1.000000	-1.000000	-1.000000	-1.000000	-1.000000	52.000000	0.000000	-1.000000	-1.000000	320702.000000	1775800449.622723
-10093.095000	-2159.775000	14780.655000	40864.230000	23475.240000	4255.560000	-22719.780000	-6227.910000	-0.361244	0.389921	-0.246223	-2.296836	1.999971	4.212962	-0.424629	-1.622306	-2.884140	1.831200	1.403920	-0.719969	-0.129333	0.668089	-1.000000	-1.000000	-1.000000	-1.000000	-1.000000	-1.000000	-1.000000	52.000000	0.000000	-1.000000	-1.000000	320703.000000	1775800449.622741
-10089.000000	-2154.600000	14786.640000	40872.465000	23494.230000	4248.855000	-22721.850000	-6227.955000	-3.377923	-2.131057	-2.589383	-3.053959	2.764203	1.836760	-1.205875	-2.743994	-2.884140	1.831200	1.403920	-0.719969	-0.129333	0.668089	-1.000000	-1.000000	-1.000000	-1.000000	-1.000000	-1.000000	-1.000000	52.000000	0.000000	-1.000000	-1.000000	320704.000000	1775800449.628572
-10094.715000	-2159.415000	14780.880000	40866.615000	23479.020000	4255.065000	-22723.380000	-6236.865000	-4.876318	-3.468962	-3.735994	-2.664809	3.695476	-1.616315	-2.083693	-3.097402	-2.884140	1.831200	1.403920	-0.719969	-0.129333	0.668089	-1.000000	-1.000000	-1.000000	-1.000000	-1.000000	-1.000000	-1.000000	52.000000	0.000000	-1.000000	-1.000000	320705.000000	1775800449.628597
-10106.190000	-2171.565000	14768.640000	40853.610000	23479.110000	4258.935000	-22726.440000	-6248.835000	-4.837121	-3.524003	-3.550872	-1.509394	4.139646	-2.951358	-2.374864	-3.257230	-2.884140	1.831200	1.403920	-0.719969	-0.129333	0.668089	-1.000000	-1.000000	-1.000000	-1.000000	-1.000000	-1.000000	-1.000000	52.000000	0.000000	-1.000000	-1.000000	320706.000000	1775800449.635725
-10107.765000	-2176.155000	14763.870000	40849.290000	23481.315000	4261.545000	-22726.080000	-6249.330000	-4.201958	-3.306829	-3.080973	-0.943106	2.666880	-0.848776	-1.709976	-3.585136	-2.884140	1.831200	1.403920	-0.719969	-0.129333	0.668089	-1.000000	-1.000000	-1.000000	-1.000000	-1.000000	-1.000000	-1.000000	52.000000	0.000000	-1.000000	-1.000000	320707.000000	1775800449.635750
-10098.495000	-2168.145000	14771.070000	40853.970000	23473.080000	4262.895000	-22721.670000	-6242.580000	-2.999068	-2.919399	-2.503295	-1.094917	-0.172406	2.998890	-0.166394	-3.114079	-2.884140	1.831200	1.403920	-0.719969	-0.129333	0.668089	-1.000000	-1.000000	-1.000000	-1.000000	-1.000000	-1.000000	-1.000000	52.000000	0.000000	-1.000000	-1.000000	320708.000000	1775800449.635778
-10090.755000	-2160.765000	14777.595000	40857.930000	23476.635000	4271.715000	-22712.760000	-6231.735000	-0.226862	-1.087890	-0.623824	-0.443192	-2.767932	5.855921	2.007969	-0.401509	-2.884140	1.831200	1.403920	-0.719969	-0.129333	0.668089	-1.000000	-1.000000	-1.000000	-1.000000	-1.000000	-1.000000	-1.000000	52.000000	0.000000	-1.000000	-1.000000	320709.000000	1775800449.635790
-10089.180000	-2158.965000	14778.405000	40855.995000	23475.195000	4267.800000	-22707.720000	-6226.515000	3.941716	2.575051	2.908010	1.791260	-3.851912	6.153832	4.280029	4.313778	-5.722500	1.464960	0.656180	-0.720030	-0.129333	0.666868	-1.000000	-1.000000	-1.000000	-1.000000	-1.000000	-1.000000	-1.000000	52.000000	0.000000	-1.000000	-1.000000	320710.000000	1775800449.639687
-10094.940000	-2163.690000	14775.975000	40857.255000	23474.250000	4258.485000	-22714.740000	-6233.040000	7.178916	6.100724	6.244060	4.341484	-3.005262	3.572453	5.407698	8.373798	-5.722500	1.464960	0.656180	-0.720030	-0.129333	0.666868	-1.000000	-1.000000	-1.000000	-1.000000	-1.000000	-1.000000	-1.000000	52.000000	0.000000	-1.000000	-1.000000	320711.000000	1775800449.639714
-10089.945000	-2157.615000	14783.085000	40866.165000	23482.350000	4259.925000	-22713.165000	-6229.305000	7.111831	6.978709	7.127617	5.545804	-0.810613	-1.126433	4.031506	8.717662	-5.722500	1.464960	0.656180	-0.720030	-0.129333	0.666868	-1.000000	-1.000000	-1.000000	-1.000000	-1.000000	-1.000000	-1.000000	52.000000	0.000000	-1.000000	-1.000000	320712.000000	1775800449.642720
-10091.700000	-2160.360000	14781.060000	40863.105000	23481.945000	4258.665000	-22718.295000	-6231.465000	3.812271	4.732777	5.158447	4.948267	1.772352	-5.675987	0.312368	4.842668	-5.722500	1.464960	0.656180	-0.720030	-0.129333	0.666868	-1.000000	-1.000000	-1.000000	-1.000000	-1.000000	-1.000000	-1.000000	52.000000	0.000000	-1.000000	-1.000000	320713.000000	1775800449.642736
-10096.740000	-2166.525000	14775.030000	40857.750000	23479.830000	4259.835000	-22723.830000	-6236.460000	-0.704665	0.728269	1.427545	2.703086	3.578634	-7.554945	-3.953305	-1.020512	-5.722500	1.464960	0.656180	-0.720030	-0.129333	0.666868	-1.000000	-1.000000	-1.000000	-1.000000	-1.000000	-1.000000	-1.000000	52.000000	0.000000	-1.000000	-1.000000	320714.000000	1775800449.647936
-10097.055000	-2167.830000	14772.870000	40855.050000	23473.485000	4263.210000	-22722.165000	-6236.190000	-4.464903	-3.370893	-2.754722	-0.842410	3.431969	-5.936287	-6.731922	-6.066229	-5.722500	1.464960	0.656180	-0.720030	-0.129333	0.666868	-1.000000	-1.000000	-1.000000	-1.000000	-1.000000	-1.000000	-1.000000	52.000000	0.000000	-1.000000	-1.000000	320715.000000	1775800449.647956
-10093.185000	-2164.590000	14775.255000	40855.230000	23474.070000	4262.310000	-22720.365000	-6233.220000	-6.103224	-5.935126	-5.866361	-4.434696	1.230969	-1.981244	-6.639247	-8.228015	-5.722500	1.464960	0.656180	-0.720030	-0.129333	0.666868	-1.000000	-1.000000	-1.000000	-1.000000	-1.000000	-1.000000	-1.000000	52.000000	0.000000	-1.000000	-1.000000	320716.000000	1775800449.652311
-10094.535000	-2167.335000	14770.755000	40847.760000	23470.830000	4259.835000	-22720.995000	-6234.885000	-5.054976	-5.818125	-6.551090	-6.400518	-1.629619	2.039618	-3.652320	-6.841803	-5.722500	1.464960	0.656180	-0.720030	-0.129333	0.666868	-1.000000	-1.000000	-1.000000	-1.000000	-1.000000	-1.000000	-1.000000	52.000000	0.000000	-1.000000	-1.000000	320717.000000	1775800449.652336
-10099.215000	-2171.925000	14767.020000	40844.115000	23466.870000	4254.075000	-22724.910000	-6239.025000	-2.226523	-3.458318	-4.834544	-6.108611	-3.471145	4.055288	0.538520	-3.162346	-5.722500	1.464960	0.656180	-0.720030	-0.129333	0.666868	-1.000000	-1.000000	-1.000000	-1.000000	-1.000000	-1.000000	-1.000000	52.000000	0.000000	-1.000000	-1.000000	320718.000000	1775800449.653974
-10100.790000	-2173.005000	14765.445000	40840.830000	23460.930000	4245.525000	-22730.400000	-6245.865000	0.507373	-0.554384	-2.015798	-4.096270	-3.678760	3.310514	3.583423	0.438015	-5.722500	1.464960	0.656180	-0.720030	-0.129333	0.666868	-1.000000	-1.000000	-1.000000	-1.000000	-1.000000	-1.000000	-1.000000	52.000000	0.000000	-1.000000	-1.000000	320719.000000	1775800449.653989
-10100.430000	-2172.375000	14767.245000	40844.070000	23464.080000	4241.205000	-22732.290000	-6247.620000	1.956945	1.586959	0.707812	-1.130256	-2.545468	0.638871	4.174954	2.273716	-3.799740	1.312360	0.061040	-0.720945	-0.132141	0.666197	-1.000000	-1.000000	-1.000000	-1.000000	-1.000000	-1.000000	-1.000000	52.000000	0.000000	-1.000000	-1.000000	320720.000000	1775800449.659318
