Channel1	Channel2	Channel3	Channel4	Channel5	Channel6	Channel7	Channel8	FilteredChannel1	FilteredChannel2	FilteredChannel3	FilteredChannel4	FilteredChannel5	FilteredChannel6	FilteredChannel7	FilteredChannel8	GyroX	GyroY	GyroZ	AccX	AccY	AccZ	PPG1	PPG2	rawPPG1	rawPPG2	rawPPG3	Hr	Hrv	Battery	Trigger	PhysicalTrigger	AutoTrigger	NumMeasurements	Timestamp
-6045.570000	-602.910000	16818.615000	34693.200000	25274.610000	-26.955000	-25735.590000	-15480.855000	2.269491	2.916237	4.383515	6.744176	6.786757	-1.059939	-2.339899	-1.300464	9.308600	-5.966660	-4.791640	-0.740721	-0.199890	0.636290	-1.000000	-1.000000	-1.000000	-1.000000	-1.000000	-1.000000	-1.000000	52.000000	0.000000	-1.000000	-1.000000	459849.000000	1775800728.003846
-6046.515000	-603.585000	16820.235000	34695.720000	25276.860000	-24.525000	-25736.310000	-15481.980000	2.952629	2.988020	4.131367	6.092801	7.043526	-1.179545	-1.638175	0.031457	3.494540	-8.438780	-1.083460	-0.739500	-0.184875	0.639586	-1.000000	-1.000000	-1.000000	-1.000000	-1.000000	-1.000000	-1.000000	52.000000	0.000000	-1.000000	-1.000000	459850.000000	1775800728.003858
-6051.645000	-609.255000	16815.060000	34692.120000	25278.660000	-18.045000	-25738.650000	-15485.355000	2.124884	1.654261	2.606545	4.300583	6.398940	0.156628	-0.190947	0.829638	3.494540	-8.438780	-1.083460	-0.739500	-0.184875	0.639586	-1.000000	-1.000000	-1.000000	-1.000000	-1.000000	-1.000000	-1.000000	52.000000	0.000000	-1.000000	-1.000000	459851.000000	1775800728.003869
-6053.040000	-608.940000	16817.175000	34697.295000	25299.630000	0.540000	-25735.590000	-15487.290000	0.400659	-0.216671	0.719922	2.249887	5.211555	2.962927	1.157029	0.774178	3.494540	-8.438780	-1.083460	-0.739500	-0.184875	0.639586	-1.000000	-1.000000	-1.000000	-1.000000	-1.000000	-1.000000	-1.000000	52.000000	0.000000	-1.000000	-1.000000	459852.000000	1775800728.014742
-6058.575000	-614.925000	16811.730000	34691.535000	25288.290000	5.310000	-25739.145000	-15493.230000	-1.313265	-1.715540	-0.894913	0.322522	3.761112	6.273121	1.858000	0.070703	3.494540	-8.438780	-1.083460	-0.739500	-0.184875	0.639586	-1.000000	-1.000000	-1.000000	-1.000000	-1.000000	-1.000000	-1.000000	52.000000	0.000000	-1.000000	-1.000000	459853.000000	1775800728.014791
-6049.215000	-608.265000	16815.735000	34692.885000	25283.790000	-5.220000	-25736.265000	-15485.490000	-2.065589	-2.141970	-1.789297	-1.317876	1.363304	7.765302	1.793749	-0.614815	3.494540	-8.438780	-1.083460	-0.739500	-0.184875	0.639586	-1.000000	-1.000000	-1.000000	-1.000000	-1.000000	-1.000000	-1.000000	52.000000	0.000000	-1.000000	-1.000000	459854.000000	1775800728.014826
-6048.945000	-604.620000	16820.055000	34699.320000	25298.730000	4.995000	-25730.820000	-15484.950000	-1.170401	-1.105393	-1.619360	-2.379404	-2.405548	5.230055	1.291700	-0.390013	3.494540	-8.438780	-1.083460	-0.739500	-0.184875	0.639586	-1.000000	-1.000000	-1.000000	-1.000000	-1.000000	-1.000000	-1.000000	52.000000	0.000000	-1.000000	-1.000000	459855.000000	1775800728.014838
-6048.765000	-604.980000	16818.435000	34694.775000	25293.780000	7.560000	-25731.720000	-15486.030000	0.950472	1.035290	-0.409774	-2.414868	-5.742354	-0.412949	0.887708	0.870600	3.494540	-8.438780	-1.083460	-0.739500	-0.184875	0.639586	-1.000000	-1.000000	-1.000000	-1.000000	-1.000000	-1.000000	-1.000000	52.000000	0.000000	-1.000000	-1.000000	459856.000000	1775800728.014852
-6047.505000	-604.980000	16818.210000	34692.480000	25284.600000	-0.225000	-25735.770000	-15486.795000	2.742824	2.894243	0.968809	-1.732813	-6.992768	-5.925840	0.503730	2.079926	3.494540	-8.438780	-1.083460	-0.739500	-0.184875	0.639586	-1.000000	-1.000000	-1.000000	-1.000000	-1.000000	-1.000000	-1.000000	52.000000	0.000000	-1.000000	-1.000000	459857.000000	1775800728.014863
-6046.695000	-605.565000	16817.895000	34691.175000	25279.740000	-12.015000	-25738.515000	-15487.020000	3.004849	3.140474	1.452316	-1.204904	-6.675557	-9.340232	-0.436815	2.164550	3.494540	-8.438780	-1.083460	-0.739500	-0.184875	0.639586	-1.000000	-1.000000	-1.000000	-1.000000	-1.000000	-1.000000	-1.000000	52.000000	0.000000	-1.000000	-1.000000	459858.000000	1775800728.021193
-6050.880000	-611.460000	16811.370000	34681.455000	25266.780000	-18.450000	-25742.340000	-15491.205000	1.678526	1.559835	0.714193	-1.232805	-5.769738	-10.475579	-1.944322	1.025203	3.494540	-8.438780	-1.083460	-0.739500	-0.184875	0.639586	-1.000000	-1.000000	-1.000000	-1.000000	-1.000000	-1.000000	-1.000000	52.000000	0.000000	-1.000000	-1.000000	459859.000000	1775800728.021221
-6045.795000	-604.935000	16818.435000	34689.105000	25275.285000	-15.255000	-25738.335000	-15487.965000	-0.463272	-0.917376	-0.704128	-1.504898	-4.238995	-9.138029	-3.125894	-0.646644	-5.707240	-9.583280	3.815000	-0.734617	-0.173889	0.642515	-1.000000	-1.000000	-1.000000	-1.000000	-1.000000	-1.000000	-1.000000	52.000000	0.000000	-1.000000	-1.000000	459860.000000	1775800728.021250
-6046.650000	-604.620000	16819.785000	34690.095000	25271.910000	-19.035000	-25744.500000	-15491.340000	-2.203250	-2.684109	-1.601517	-1.092437	-1.333998	-4.981851	-3.015756	-1.876302	-5.707240	-9.583280	3.815000	-0.734617	-0.173889	0.642515	-1.000000	-1.000000	-1.000000	-1.000000	-1.000000	-1.000000	-1.000000	52.000000	0.000000	-1.000000	-1.000000	459861.000000	1775800728.021263
-6041.745000	-598.680000	16826.085000	34696.260000	25283.340000	-9.945000	-25740.540000	-15487.605000	-2.627197	-2.619239	-1.075859	0.630203	3.028765	1.192241	-1.575516	-2.051649	-5.707240	-9.583280	3.815000	-0.734617	-0.173889	0.642515	-1.000000	-1.000000	-1.000000	-1.000000	-1.000000	-1.000000	-1.000000	52.000000	0.000000	-1.000000	-1.000000	459862.000000	1775800728.034250
-6042.465000	-604.170000	16820.055000	34692.570000	25286.130000	-11.295000	-25740.225000	-15486.390000	-1.760721	-1.108593	0.402019	2.892555	7.540230	7.309323	0.485562	-1.188713	-5.707240	-9.583280	3.815000	-0.734617	-0.173889	0.642515	-1.000000	-1.000000	-1.000000	-1.000000	-1.000000	-1.000000	-1.000000	52.000000	0.000000	-1.000000	-1.000000	459863.000000	1775800728.034280
-6043.365000	-608.445000	16815.735000	34692.120000	25290.495000	-17.685000	-25741.800000	-15484.995000	-0.443519	0.283909	1.279727	4.030428	10.213183	10.842998	2.324322	0.223901	-5.707240	-9.583280	3.815000	-0.734617	-0.173889	0.642515	-1.000000	-1.000000	-1.000000	-1.000000	-1.000000	-1.000000	-1.000000	52.000000	0.000000	-1.000000	-1.000000	459864.000000	1775800728.034310
-6045.345000	-604.305000	16821.135000	34696.440000	25279.335000	-9.495000	-25736.490000	-15489.765000	0.326818	0.430188	0.649714	3.167396	9.318506	10.221305	3.238281	1.316387	-5.707240	-9.583280	3.815000	-0.734617	-0.173889	0.642515	-1.000000	-1.000000	-1.000000	-1.000000	-1.000000	-1.000000	-1.000000	52.000000	0.000000	-1.000000	-1.000000	459865.000000	1775800728.034322
-6055.875000	-609.840000	16816.455000	34687.485000	25267.635000	-4.950000	-25739.280000	-15501.960000	0.005196	-0.279654	-0.704171	0.896815	4.297774	6.417409	3.038201	1.093988	-5.707240	-9.583280	3.815000	-0.734617	-0.173889	0.642515	-1.000000	-1.000000	-1.000000	-1.000000	-1.000000	-1.000000	-1.000000	52.000000	0.000000	-1.000000	-1.000000	459866.000000	1775800728.034333
-6052.095000	-607.230000	16818.345000	34689.420000	25270.020000	-14.355000	-25742.025000	-15495.570000	-1.166672	-0.866753	-1.558713	-1.692102	-3.094078	1.752550	1.864747	-0.574371	-5.707240	-9.583280	3.815000	-0.734617	-0.173889	0.642515	-1.000000	-1.000000	-1.000000	-1.000000	-1.000000	-1.000000	-1.000000	52.000000	0.000000	-1.000000	-1.000000	459867.000000	1775800728.034344
-6048.900000	-604.260000	16823.700000	34698.870000	25280.235000	-5.985000	-25735.815000	-15491.115000	-1.939645	-0.722748	-1.357741	-3.356295	-8.738952	-2.323780	0.104503	-2.079854	-5.707240	-9.583280	3.815000	-0.734617	-0.173889	0.642515	-1.000000	-1.000000	-1.000000	-1.000000	-1.000000	-1.000000	-1.000000	52.000000	0.000000	-1.000000	-1.000000	459868.000000	1775800728.036605
-6041.520000	-600.660000	16822.080000	34691.445000	25282.260000	-1.935000	-25732.260000	-15484.545000	-0.948470	0.323173	-0.158362	-3.073732	-9.080192	-4.835871	-1.256935	-1.504419	-5.707240	-9.583280	3.815000	-0.734617	-0.173889	0.642515	-1.000000	-1.000000	-1.000000	-1.000000	-1.000000	-1.000000	-1.000000	52.000000	0.000000	-1.000000	-1.000000	459869.000000	1775800728.036629
-6039.090000	-601.425000	16819.200000	34690.095000	25290.405000	0.315000	-25731.180000	-15481.845000	1.704702	1.753504	1.187086	-1.452342	-4.371203	-5.032743	-1.434416	1.090321	-11.200840	-9.049180	5.508860	-0.732481	-0.174743	0.645933	-1.000000	-1.000000	-1.000000	-1.000000	-1.000000	-1.000000	-1.000000	52.000000	0.000000	-1.000000	-1.000000	459870.000000	1775800728.042713
-6039.270000	-606.015000	16815.240000	34689.420000	25290.405000	3.105000	-25727.580000	-15480.495000	4.279104	2.442243	1.502803	-0.076661	1.891279	-3.408060	-0.742095	3.733718	-11.200840	-9.049180	5.508860	-0.732481	-0.174743	0.645933	-1.000000	-1.000000	-1.000000	-1.000000	-1.000000	-1.000000	-1.000000	52.000000	0.000000	-1.000000	-1.000000	459871.000000	1775800728.042739
-6037.380000	-604.755000	16816.950000	34690.320000	25280.820000	2.295000	-25724.880000	-15478.380000	4.876261	1.625382	0.547570	0.456738	5.736132	-1.385762	0.007874	4.447975	-11.200840	-9.049180	5.508860	-0.732481	-0.174743	0.645933	-1.000000	-1.000000	-1.000000	-1.000000	-1.000000	-1.000000	-1.000000	52.000000	0.000000	-1.000000	-1.000000	459872.000000	1775800728.048291
-6039.180000	-605.205000	16817.535000	34690.095000	25278.345000	-2.745000	-25729.785000	-15482.070000	3.005860	-0.195346	-0.696374	0.574952	5.025692	-0.254802	0.193578	2.689567	-11.200840	-9.049180	5.508860	-0.732481	-0.174743	0.645933	-1.000000	-1.000000	-1.000000	-1.000000	-1.000000	-1.000000	-1.000000	52.000000	0.000000	-1.000000	-1.000000	459873.000000	1775800728.048317
-6039.315000	-603.495000	16819.740000	34693.560000	25287.570000	1.035000	-25726.545000	-15482.070000	-0.283715	-1.715922	-1.090737	0.767423	1.032498	-0.416015	-0.450131	-0.631406	-11.200840	-9.049180	5.508860	-0.732481	-0.174743	0.645933	-1.000000	-1.000000	-1.000000	-1.000000	-1.000000	-1.000000	-1.000000	52.000000	0.000000	-1.000000	-1.000000	459874.000000	1775800728.048958
-6040.305000	-601.965000	16821.585000	34690.950000	25283.565000	-6.885000	-25734.105000	-15486.480000	-3.349473	-2.031509	-0.367056	1.118735	-2.684598	-1.203353	-1.603136	-3.904319	-11.200840	-9.049180	5.508860	-0.732481	-0.174743	0.645933	-1.000000	-1.000000	-1.000000	-1.000000	-1.000000	-1.000000	-1.000000	52.000000	0.000000	-1.000000	-1.000000	459875.000000	1775800728.048980
-6039.495000	-598.590000	16825.410000	34694.325000	25284.375000	-10.890000	-25737.390000	-15488.010000	-4.866916	-1.125144	0.911490	1.324221	-3.846222	-1.827504	-2.671715	-5.708483	-11.200840	-9.049180	5.508860	-0.732481	-0.174743	0.645933	-1.000000	-1.000000	-1.000000	-1.000000	-1.000000	-1.000000	-1.000000	52.000000	0.000000	-1.000000	-1.000000	459876.000000	1775800728.052830
-6042.915000	-601.110000	16824.240000	34696.305000	25284.465000	-13.365000	-25736.580000	-15489.180000	-4.444955	0.286323	1.898134	1.177250	-2.762902	-1.942159	-3.091545	-5.415096	-11.200840	-9.049180	5.508860	-0.732481	-0.174743	0.645933	-1.000000	-1.000000	-1.000000	-1.000000	-1.000000	-1.000000	-1.000000	52.000000	0.000000	-1.000000	-1.000000	459877.000000	1775800728.052850
-6043.005000	-602.325000	16822.980000	34696.215000	25278.255000	-20.430000	-25738.065000	-15488.145000	-2.685196	1.166533	1.865409	0.778127	-0.900185	-1.378327	-2.305506	-3.229572	-11.200840	-9.049180	5.508860	-0.732481	-0.174743	0.645933	-1.000000	-1.000000	-1.000000	-1.000000	-1.000000	-1.000000	-1.000000	52.000000	0.000000	-1.000000	-1.000000	459878.000000	1775800728.059080
-6042.195000	-601.920000	16823.655000	34697.475000	25274.070000	-22.455000	-25738.200000	-15486.570000	-0.515300	0.951097	0.667637	0.210237	0.338453	-0.245862	-0.330198	0.003252	-11.200840	-9.049180	5.508860	-0.732481	-0.174743	0.645933	-1.000000	-1.000000	-1.000000	-1.000000	-1.000000	-1.000000	-1.000000	52.000000	0.000000	-1.000000	-1.000000	459879.000000	1775800728.059105
-6038.685000	-603.855000	16817.805000	34686.630000	25269.075000	-22.635000	-25739.955000	-15483.870000	1.474070	0.000486	-1.105376	-0.660427	0.377419	1.171828	1.964554	3.126184	-10.254720	-7.797860	2.746800	-0.736326	-0.183776	0.647642	-1.000000	-1.000000	-1.000000	-1.000000	-1.000000	-1.000000	-1.000000	52.000000	0.000000	-1.000000	-1.000000	459880.000000	1775800728.063994
-6031.890000	-598.230000	16822.305000	34688.925000	25278.390000	2.205000	-25728.840000	-15477.750000	3.082786	-0.821619	-2.560380	-1.925348	-0.048519	3.113585	3.709908	5.174254	-10.254720	-7.797860	2.746800	-0.736326	-0.183776	0.647642	-1.000000	-1.000000	-1.000000	-1.000000	-1.000000	-1.000000	-1.000000	52.000000	0.000000	-1.000000	-1.000000	459881.000000	1775800728.064021
-6036.075000	-598.590000	16823.925000	34693.830000	25290.135000	7.290000	-25724.340000	-15479.235000	4.036466	-0.816489	-2.825924	-2.852504	0.608060	6.005585	4.760135	5.632126	-10.254720	-7.797860	2.746800	-0.736326	-0.183776	0.647642	-1.000000	-1.000000	-1.000000	-1.000000	-1.000000	-1.000000	-1.000000	52.000000	0.000000	-1.000000	-1.000000	459882.000000	1775800728.065516
-6039.720000	-596.295000	16829.325000	34700.445000	25302.645000	3.285000	-25730.235000	-15484.905000	3.615063	-0.013651	-1.509636	-2.149012	3.119419	8.476317	4.900945	4.198094	-10.254720	-7.797860	2.746800	-0.736326	-0.183776	0.647642	-1.000000	-1.000000	-1.000000	-1.000000	-1.000000	-1.000000	-1.000000	52.000000	0.000000	-1.000000	-1.000000	459883.000000	1775800728.065536
-6049.710000	-603.945000	16824.600000	34696.530000	25298.730000	7.020000	-25733.115000	-15494.445000	1.294096	0.744487	0.669104	0.234582	6.040418	7.676762	3.268726	0.865281	-10.254720	-7.797860	2.746800	-0.736326	-0.183776	0.647642	-1.000000	-1.000000	-1.000000	-1.000000	-1.000000	-1.000000	-1.000000	52.000000	0.000000	-1.000000	-1.000000	459884.000000	1775800728.072277
-6048.765000	-606.870000	16820.235000	34692.705000	25296.660000	3.285000	-25734.105000	-15492.915000	-2.168740	0.509804	2.111222	2.488289	6.457696	2.763262	-0.212596	-3.299445	-10.254720	-7.797860	2.746800	-0.736326	-0.183776	0.647642	-1.000000	-1.000000	-1.000000	-1.000000	-1.000000	-1.000000	-1.000000	52.000000	0.000000	-1.000000	-1.000000	459885.000000	1775800728.072307
-6045.660000	-602.370000	16825.275000	34698.510000	25294.905000	-3.195000	-25735.815000	-15491.745000	-4.683361	-0.628237	1.838829	2.907816	2.888329	-4.106201	-3.938385	-6.052485	-10.254720	-7.797860	2.746800	-0.736326	-0.183776	0.647642	-1.000000	-1.000000	-1.000000	-1.000000	-1.000000	-1.000000	-1.000000	52.000000	0.000000	-1.000000	-1.000000	459886.000000	1775800728.077793
-6042.780000	-597.555000	16831.485000	34702.335000	25288.515000	-15.345000	-25739.370000	-15491.160000	-4.371819	-1.315178	0.690531	1.795888	-3.083113	-10.005932	-6.004970	-5.630122	-10.254720	-7.797860	2.746800	-0.736326	-0.183776	0.647642	-1.000000	-1.000000	-1.000000	-1.000000	-1.000000	-1.000000	-1.000000	52.000000	0.000000	-1.000000	-1.000000	459887.000000	1775800728.077816
-6038.730000	-601.065000	16822.710000	34690.320000	25275.330000	-25.200000	-25738.155000	-15484.860000	-1.308821	-0.592699	-0.017194	0.326555	-8.493174	-12.927613	-5.639370	-2.300576	-10.254720	-7.797860	2.746800	-0.736326	-0.183776	0.647642	-1.000000	-1.000000	-1.000000	-1.000000	-1.000000	-1.000000	-1.000000	52.000000	0.000000	-1.000000	-1.000000	459888.000000	1775800728.077839
-6035.490000	-606.195000	16813.620000	34679.610000	25264.710000	-23.805000	-25731.540000	-15477.210000	2.611247	0.718635	-0.501106	-1.421294	-11.267308	-11.887416	-3.119650	2.182990	-10.254720	-7.797860	2.746800	-0.736326	-0.183776	0.647642	-1.000000	-1.000000	-1.000000	-1.000000	-1.000000	-1.000000	-1.000000	52.000000	0.000000	-1.000000	-1.000000	459889.000000	1775800728.077849
-6034.005000	-602.055000	16818.345000	34686.270000	25267.860000	-13.860000	-25728.885000	-15477.525000	5.193320	1.233760	-1.492587	-3.419388	-10.423910	-6.617880	0.664148	5.753970	-7.797860	-3.723440	-1.205540	-0.731810	-0.192138	0.645201	-1.000000	-1.000000	-1.000000	-1.000000	-1.000000	-1.000000	-1.000000	52.000000	0.000000	-1.000000	-1.000000	459890.000000	1775800728.080244
-6034.230000	-597.645000	16825.185000	34695.000000	25289.370000	14.130000	-25721.730000	-15478.965000	5.187389	0.917296	-2.149460	-4.007322	-5.324961	2.196902	4.278710	6.631593	-7.797860	-3.723440	-1.205540	-0.731810	-0.192138	0.645201	-1.000000	-1.000000	-1.000000	-1.000000	-1.000000	-1.000000	-1.000000	52.000000	0.000000	-1.000000	-1.000000	459891.000000	1775800728.080255
-6032.835000	-594.720000	16829.370000	34698.060000	25298.955000	16.695000	-25725.780000	-15480.990000	2.791004	0.719212	-1.032691	-1.649046	3.502033	12.015779	6.135225	4.220013	-7.797860	-3.723440	-1.205540	-0.731810	-0.192138	0.645201	-1.000000	-1.000000	-1.000000	-1.000000	-1.000000	-1.000000	-1.000000	52.000000	0.000000	-1.000000	-1.000000	459892.000000	1775800728.083674
-6039.630000	-599.985000	16825.590000	34695.900000	25292.115000	-7.020000	-25738.380000	-15489.090000	-0.736590	0.862503	1.484624	2.469575	12.412164	17.664745	5.000408	-0.355177	-7.797860	-3.723440	-1.205540	-0.731810	-0.192138	0.645201	-1.000000	-1.000000	-1.000000	-1.000000	-1.000000	-1.000000	-1.000000	52.000000	0.000000	-1.000000	-1.000000	459893.000000	1775800728.083696
-6039.495000	-598.320000	16828.245000	34699.680000	25296.975000	-0.900000	-25733.520000	-15489.090000	-3.955319	0.630802	3.377317	5.397125	16.058409	14.478797	0.977827	-4.934442	-7.797860	-3.723440	-1.205540	-0.731810	-0.192138	0.645201	-1.000000	-1.000000	-1.000000	-1.000000	-1.000000	-1.000000	-1.000000	52.000000	0.000000	-1.000000	-1.000000	459894.000000	1775800728.088108
-6038.640000	-596.655000	16831.620000	34706.520000	25308.000000	11.475000	-25726.365000	-15486.525000	-5.616598	-0.258593	3.322328	5.497931	12.443921	4.210247	-3.423676	-7.271631	-7.797860	-3.723440	-1.205540	-0.731810	-0.192138	0.645201	-1.000000	-1.000000	-1.000000	-1.000000	-1.000000	-1.000000	-1.000000	52.000000	0.000000	-1.000000	-1.000000	459895.000000	1775800728.088125
-6039.225000	-600.255000	16825.995000	34699.500000	25301.565000	6.120000	-25728.345000	-15485.580000	-4.985784	-1.232566	1.640091	3.272014	4.413794	-6.047198	-5.114421	-6.121321	-7.797860	-3.723440	-1.205540	-0.731810	-0.192138	0.645201	-1.000000	-1.000000	-1.000000	-1.000000	-1.000000	-1.000000	-1.000000	52.000000	0.000000	-1.000000	-1.000000	459896.000000	1775800728.106342
-6046.830000	-608.805000	16817.355000	34689.825000	25291.305000	0.135000	-25733.880000	-15491.790000	-2.606244	-1.943553	-0.905518	-0.316725	-4.175671	-11.334786	-3.701999	-2.358579	-7.797860	-3.723440	-1.205540	-0.731810	-0.192138	0.645201	-1.000000	-1.000000	-1.000000	-1.000000	-1.000000	-1.000000	-1.000000	52.000000	0.000000	-1.000000	-1.000000	459897.000000	1775800728.106368
-6042.555000	-605.835000	16819.245000	34688.970000	25280.280000	-6.750000	-25732.620000	-15487.695000	0.049331	-2.434547	-3.526491	-4.314756	-10.998082	-11.641334	-1.242957	1.647042	-7.797860	-3.723440	-1.205540	-0.731810	-0.192138	0.645201	-1.000000	-1.000000	-1.000000	-1.000000	-1.000000	-1.000000	-1.000000	52.000000	0.000000	-1.000000	-1.000000	459898.000000	1775800728.106393
-6042.015000	-604.395000	16822.035000	34693.020000	25281.990000	-11.295000	-25734.555000	-15487.065000	2.068614	-2.245161	-4.825716	-6.897767	-14.392185	-9.010768	0.537319	4.153418	-7.797860	-3.723440	-1.205540	-0.731810	-0.192138	0.645201	-1.000000	-1.000000	-1.000000	-1.000000	-1.000000	-1.000000	-1.000000	52.000000	0.000000	-1.000000	-1.000000	459899.000000	1775800728.106404
-6045.570000	-606.825000	16821.585000	34694.505000	25288.245000	-16.875000	-25740.900000	-15492.195000	3.280306	-0.873885	-3.676362	-6.246595	-12.794099	-5.129148	1.192526	4.733425	-3.692920	0.747740	-3.113040	-0.724180	-0.199401	0.644041	-1.000000	-1.000000	-1.000000	-1.000000	-1.000000	-1.000000	-1.000000	52.000000	0.000000	-1.000000	-1.000000	459900.000000	1775800728.106414
-6044.355000	-606.015000	16822.260000	34693.920000	25292.430000	-17.955000	-25740.540000	-15492.600000	3.480404	1.136762	-0.650375	-2.552861	-6.148938	-0.973677	0.910618	3.543845	-3.692920	0.747740	-3.113040	-0.724180	-0.199401	0.644041	-1.000000	-1.000000	-1.000000	-1.000000	-1.000000	-1.000000	-1.000000	52.000000	0.000000	-1.000000	-1.000000	459901.000000	1775800728.106423
-6039.180000	-600.750000	16826.085000	34695.900000	25303.320000	-11.205000	-25737.165000	-15492.870000	2.775673	2.786567	2.511102	1.973683	2.989130	3.003225	0.411452	1.307154	-3.692920	0.747740	-3.113040	-0.724180	-0.199401	0.644041	-1.000000	-1.000000	-1.000000	-1.000000	-1.000000	-1.000000	-1.000000	52.000000	0.000000	-1.000000	-1.000000	459902.000000	1775800728.106435
-6038.370000	-601.470000	16824.690000	34694.190000	25296.885000	-14.310000	-25738.515000	-15494.670000	1.832883	3.572282	4.364896	4.987933	10.520873	6.427894	0.541611	-0.780448	-3.692920	0.747740	-3.113040	-0.724180	-0.199401	0.644041	-1.000000	-1.000000	-1.000000	-1.000000	-1.000000	-1.000000	-1.000000	52.000000	0.000000	-1.000000	-1.000000	459903.000000	1775800728.106444
-6034.590000	-599.580000	16826.040000	34693.875000	25293.960000	-12.105000	-25737.480000	-15488.955000	1.089735	3.310728	4.311960	5.397664	12.882365	8.384128	1.294308	-1.781887	-3.692920	0.747740	-3.113040	-0.724180	-0.199401	0.644041	-1.000000	-1.000000	-1.000000	-1.000000	-1.000000	-1.000000	-1.000000	52.000000	0.000000	-1.000000	-1.000000	459904.000000	1775800728.110006
-6036.435000	-601.605000	16823.655000	34688.745000	25278.930000	-6.480000	-25733.160000	-15486.120000	0.404622	1.978552	2.584271	3.486493	8.981906	8.054386	2.001250	-1.352476	-3.692920	0.747740	-3.113040	-0.724180	-0.199401	0.644041	-1.000000	-1.000000	-1.000000	-1.000000	-1.000000	-1.000000	-1.000000	52.000000	0.000000	-1.000000	-1.000000	459905.000000	1775800728.110031
-6040.980000	-604.485000	16821.405000	34687.440000	25267.095000	-13.365000	-25738.560000	-15491.070000	-0.626275	-0.107977	0.022329	0.422078	0.868641	5.595809	2.102544	-0.042708	-3.692920	0.747740	-3.113040	-0.724180	-0.199401	0.644041	-1.000000	-1.000000	-1.000000	-1.000000	-1.000000	-1.000000	-1.000000	52.000000	0.000000	-1.000000	-1.000000	459906.000000	1775800728.112199
-6034.950000	-597.870000	16828.605000	34695.720000	25284.420000	-6.390000	-25734.690000	-15486.435000	-2.015161	-2.157523	-2.195121	-2.129162	-6.931757	1.833296	1.315420	0.905222	-3.692920	0.747740	-3.113040	-0.724180	-0.199401	0.644041	-1.000000	-1.000000	-1.000000	-1.000000	-1.000000	-1.000000	-1.000000	52.000000	0.000000	-1.000000	-1.000000	459907.000000	1775800728.112223
-6037.425000	-603.135000	16823.880000	34691.220000	25288.470000	0.810000	-25731.855000	-15487.020000	-2.975874	-3.169387	-3.008544	-2.773941	-9.466883	-1.775376	-0.020298	0.851054	-3.692920	0.747740	-3.113040	-0.724180	-0.199401	0.644041	-1.000000	-1.000000	-1.000000	-1.000000	-1.000000	-1.000000	-1.000000	52.000000	0.000000	-1.000000	-1.000000	459908.000000	1775800728.122304
-6045.255000	-612.765000	16812.000000	34676.685000	25275.960000	-5.265000	-25735.005000	-15492.690000	-2.975016	-3.063308	-2.614048	-1.935970	-5.657845	-3.815941	-1.126915	0.029706	-3.692920	0.747740	-3.113040	-0.724180	-0.199401	0.644041	-1.000000	-1.000000	-1.000000	-1.000000	-1.000000	-1.000000	-1.000000	52.000000	0.000000	-1.000000	-1.000000	459909.000000	1775800728.122329
-6039.945000	-609.255000	16813.260000	34676.910000	25279.155000	-2.475000	-25729.605000	-15486.885000	-2.351786	-2.620706	-2.206149	-1.392939	0.443659	-4.311540	-1.636658	-1.086693	0.320460	2.044840	-4.562740	-0.718321	-0.201599	0.646422	-1.000000	-1.000000	-1.000000	-1.000000	-1.000000	-1.000000	-1.000000	52.000000	0.000000	-1.000000	-1.000000	459910.000000	1775800728.123797
-6039.540000	-607.050000	16818.300000	34683.525000	25282.260000	-0.720000	-25728.795000	-15486.840000	-1.253573	-1.861887	-1.882359	-1.459290	4.529944	-4.013827	-1.525521	-1.738459	0.320460	2.044840	-4.562740	-0.718321	-0.201599	0.646422	-1.000000	-1.000000	-1.000000	-1.000000	-1.000000	-1.000000	-1.000000	52.000000	0.000000	-1.000000	-1.000000	459911.000000	1775800728.123817
-6038.955000	-603.765000	16823.430000	34689.555000	25283.745000	-1.665000	-25730.550000	-15488.595000	0.399792	-0.173940	-0.534729	-0.620976	5.546437	-3.201002	-0.970569	-1.410567	0.320460	2.044840	-4.562740	-0.718321	-0.201599	0.646422	-1.000000	-1.000000	-1.000000	-1.000000	-1.000000	-1.000000	-1.000000	52.000000	0.000000	-1.000000	-1.000000	459912.000000	1775800728.126551
-6041.115000	-604.530000	16822.485000	34686.135000	25276.680000	-9.540000	-25734.465000	-15491.295000	2.028306	2.157137	1.993897	1.681086	4.251929	-2.179618	-0.563502	-0.574112	0.320460	2.044840	-4.562740	-0.718321	-0.201599	0.646422	-1.000000	-1.000000	-1.000000	-1.000000	-1.000000	-1.000000	-1.000000	52.000000	0.000000	-1.000000	-1.000000	459913.000000	1775800728.126575
-6044.760000	-606.960000	16820.235000	34683.345000	25272.360000	-19.305000	-25739.460000	-15494.985000	2.684867	3.810337	4.154676	3.799542	1.443878	-1.658940	-0.831185	-0.063801	0.320460	2.044840	-4.562740	-0.718321	-0.201599	0.646422	-1.000000	-1.000000	-1.000000	-1.000000	-1.000000	-1.000000	-1.000000	52.000000	0.000000	-1.000000	-1.000000	459914.000000	1775800728.131335
-6046.695000	-606.645000	16823.430000	34689.330000	25278.570000	-21.240000	-25744.995000	-15498.495000	1.964236	3.685074	4.353078	3.967232	-1.717662	-1.871309	-1.661287	-0.193657	0.320460	2.044840	-4.562740	-0.718321	-0.201599	0.646422	-1.000000	-1.000000	-1.000000	-1.000000	-1.000000	-1.000000	-1.000000	52.000000	0.000000	-1.000000	-1.000000	459915.000000	1775800728.131360
-6044.895000	-606.060000	16822.395000	34689.510000	25282.755000	-17.190000	-25745.040000	-15497.415000	0.460788	1.960580	2.577344	2.332904	-3.416775	-1.803085	-2.312321	-0.573076	0.320460	2.044840	-4.562740	-0.718321	-0.201599	0.646422	-1.000000	-1.000000	-1.000000	-1.000000	-1.000000	-1.000000	-1.000000	52.000000	0.000000	-1.000000	-1.000000	459916.000000	1775800728.141805
-6044.265000	-606.285000	16822.845000	34691.535000	25288.245000	-9.540000	-25742.610000	-15498.045000	-0.664154	-0.191406	0.024988	0.210411	-2.586515	-0.045273	-1.831516	-0.487694	0.320460	2.044840	-4.562740	-0.718321	-0.201599	0.646422	-1.000000	-1.000000	-1.000000	-1.000000	-1.000000	-1.000000	-1.000000	52.000000	0.000000	-1.000000	-1.000000	459917.000000	1775800728.141832
-6039.315000	-602.010000	16826.265000	34690.905000	25281.405000	-15.345000	-25741.935000	-15494.670000	-0.653599	-1.624795	-2.029015	-1.462568	-0.217741	3.280725	0.136118	0.412449	0.320460	2.044840	-4.562740	-0.718321	-0.201599	0.646422	-1.000000	-1.000000	-1.000000	-1.000000	-1.000000	-1.000000	-1.000000	52.000000	0.000000	-1.000000	-1.000000	459918.000000	1775800728.141861
-6029.595000	-595.935000	16829.190000	34692.570000	25278.795000	-19.980000	-25737.480000	-15482.475000	0.501419	-1.720344	-2.748913	-2.386973	1.407566	5.951457	2.828910	1.994606	0.320460	2.044840	-4.562740	-0.718321	-0.201599	0.646422	-1.000000	-1.000000	-1.000000	-1.000000	-1.000000	-1.000000	-1.000000	52.000000	0.000000	-1.000000	-1.000000	459919.000000	1775800728.141874
-6025.185000	-591.480000	16832.835000	34697.250000	25284.870000	-6.885000	-25732.710000	-15477.930000	2.228323	-0.559172	-2.040863	-2.483645	1.082646	6.044297	4.963418	3.855022	4.913720	2.884140	-1.678600	-0.719725	-0.198425	0.651854	-1.000000	-1.000000	-1.000000	-1.000000	-1.000000	-1.000000	-1.000000	52.000000	0.000000	-1.000000	-1.000000	459920.000000	1775800728.141890
-6027.120000	-596.340000	16827.255000	34693.470000	25288.470000	-6.795000	-25734.105000	-15479.730000	3.309808	0.849514	-0.716475	-1.843152	-0.150870	4.139058	5.528559	4.919529	4.913720	2.884140	-1.678600	-0.719725	-0.198425	0.651854	-1.000000	-1.000000	-1.000000	-1.000000	-1.000000	-1.000000	-1.000000	52.000000	0.000000	-1.000000	-1.000000	459921.000000	1775800728.141901
-6022.665000	-593.055000	16831.260000	34699.230000	25302.645000	-12.060000	-25731.180000	-15475.410000	2.534698	1.153881	0.083392	-0.909758	-0.491848	1.661203	4.096922	3.870466	4.913720	2.884140	-1.678600	-0.719725	-0.198425	0.651854	-1.000000	-1.000000	-1.000000	-1.000000	-1.000000	-1.000000	-1.000000	52.000000	0.000000	-1.000000	-1.000000	459922.000000	1775800728.146405
-6030.090000	-597.105000	16829.550000	34700.130000	25290.495000	-26.595000	-25734.465000	-15480.990000	-0.110695	-0.013261	-0.010036	-0.064907	0.437775	-1.255571	1.100972	0.633984	4.913720	2.884140	-1.678600	-0.719725	-0.198425	0.651854	-1.000000	-1.000000	-1.000000	-1.000000	-1.000000	-1.000000	-1.000000	52.000000	0.000000	-1.000000	-1.000000	459923.000000	1775800728.146431
-6028.515000	-594.180000	16833.465000	34704.675000	25280.955000	-36.585000	-25737.840000	-15480.540000	-3.447464	-1.764538	-0.432144	0.637714	0.876327	-4.848817	-2.368397	-3.432784	4.913720	2.884140	-1.678600	-0.719725	-0.198425	0.651854	-1.000000	-1.000000	-1.000000	-1.000000	-1.000000	-1.000000	-1.000000	52.000000	0.000000	-1.000000	-1.000000	459924.000000	1775800728.148137
-6031.080000	-598.140000	16829.280000	34700.175000	25295.940000	6.975000	-25730.190000	-15482.340000	-5.856146	-2.916253	-0.597501	1.031559	-0.539543	-7.157867	-4.958307	-6.496766	4.913720	2.884140	-1.678600	-0.719725	-0.198425	0.651854	-1.000000	-1.000000	-1.000000	-1.000000	-1.000000	-1.000000	-1.000000	52.000000	0.000000	-1.000000	-1.000000	459925.000000	1775800728.148155
-6033.375000	-599.625000	16825.905000	34693.515000	25311.240000	31.050000	-25725.780000	-15485.265000	-6.143037	-2.913414	-0.552956	0.613402	-1.979038	-4.231026	-5.317085	-7.233500	4.913720	2.884140	-1.678600	-0.719725	-0.198425	0.651854	-1.000000	-1.000000	-1.000000	-1.000000	-1.000000	-1.000000	-1.000000	52.000000	0.000000	-1.000000	-1.000000	459926.000000	1775800728.152215
-6029.235000	-592.065000	16834.005000	34699.365000	25309.620000	12.645000	-25731.405000	-15485.940000	-4.202438	-1.808110	-0.475139	-0.687100	-1.016747	3.755557	-3.307052	-5.542969	4.913720	2.884140	-1.678600	-0.719725	-0.198425	0.651854	-1.000000	-1.000000	-1.000000	-1.000000	-1.000000	-1.000000	-1.000000	52.000000	0.000000	-1.000000	-1.000000	459927.000000	1775800728.152229
-6030.900000	-593.190000	16835.490000	34702.380000	25308.405000	3.960000	-25736.580000	-15488.640000	-0.836307	0.176979	0.029756	-1.723598	1.410601	9.650052	-0.713472	-2.365691	4.913720	2.884140	-1.678600	-0.719725	-0.198425	0.651854	-1.000000	-1.000000	-1.000000	-1.000000	-1.000000	-1.000000	-1.000000	52.000000	0.000000	-1.000000	-1.000000	459928.000000	1775800728.160179
-6026.490000	-588.240000	16842.060000	34711.155000	25315.200000	8.055000	-25730.910000	-15484.140000	2.653930	2.375834	1.232485	-1.156550	2.570851	7.455782	0.678540	1.090592	4.913720	2.884140	-1.678600	-0.719725	-0.198425	0.651854	-1.000000	-1.000000	-1.000000	-1.000000	-1.000000	-1.000000	-1.000000	52.000000	0.000000	-1.000000	-1.000000	459929.000000	1775800728.160208
-6032.115000	-593.820000	16836.120000	34704.225000	25310.520000	11.655000	-25730.145000	-15488.820000	4.896532	3.654542	2.415166	0.799704	1.478339	-0.643886	0.974233	3.836569	5.615680	0.579880	0.259420	-0.729429	-0.191406	0.656737	-1.000000	-1.000000	-1.000000	-1.000000	-1.000000	-1.000000	-1.000000	52.000000	0.000000	-1.000000	-1.000000	459930.000000	1775800728.160843
-6034.950000	-597.600000	16831.845000	34697.925000	25294.995000	-0.315000	-25733.880000	-15489.405000	4.966067	3.107272	2.294537	2.235620	-1.252948	-8.237024	1.081404	5.086871	5.615680	0.579880	0.259420	-0.729429	-0.191406	0.656737	-1.000000	-1.000000	-1.000000	-1.000000	-1.000000	-1.000000	-1.000000	52.000000	0.000000	-1.000000	-1.000000	459931.000000	1775800728.160864
-6032.970000	-592.920000	16838.685000	34704.585000	25298.865000	-3.870000	-25736.895000	-15489.585000	3.016925	0.947140	0.528469	1.687487	-4.545025	-11.433476	1.073854	4.546821	5.615680	0.579880	0.259420	-0.729429	-0.191406	0.656737	-1.000000	-1.000000	-1.000000	-1.000000	-1.000000	-1.000000	-1.000000	52.000000	0.000000	-1.000000	-1.000000	459932.000000	1775800728.170579
-6039.225000	-599.715000	16832.610000	34698.870000	25297.560000	-6.930000	-25740.945000	-15494.670000	0.349711	-1.400114	-1.601548	-0.109689	-6.437878	-9.975386	0.581269	2.721286	5.615680	0.579880	0.259420	-0.729429	-0.191406	0.656737	-1.000000	-1.000000	-1.000000	-1.000000	-1.000000	-1.000000	-1.000000	52.000000	0.000000	-1.000000	-1.000000	459933.000000	1775800728.170604
-6038.370000	-602.055000	16828.560000	34698.060000	25301.160000	-1.215000	-25735.050000	-15491.115000	-1.707716	-2.749782	-2.837735	-1.606732	-5.123837	-5.124322	-0.147642	0.533713	5.615680	0.579880	0.259420	-0.729429	-0.191406	0.656737	-1.000000	-1.000000	-1.000000	-1.000000	-1.000000	-1.000000	-1.000000	52.000000	0.000000	-1.000000	-1.000000	459934.000000	1775800728.170631
-6027.525000	-594.855000	16831.935000	34700.085000	25307.685000	1.845000	-25725.825000	-15479.505000	-2.278134	-2.752391	-2.948258	-2.044369	-0.807355	1.382699	-0.109528	-0.825083	5.615680	0.579880	0.259420	-0.729429	-0.191406	0.656737	-1.000000	-1.000000	-1.000000	-1.000000	-1.000000	-1.000000	-1.000000	52.000000	0.000000	-1.000000	-1.000000	459935.000000	1775800728.170643
-6027.615000	-595.125000	16828.920000	34692.570000	25298.595000	-7.065000	-25727.625000	-15478.965000	-0.956900	-1.313899	-1.983052	-1.432344	4.254020	7.145768	1.222302	-0.467761	5.615680	0.579880	0.259420	-0.729429	-0.191406	0.656737	-1.000000	-1.000000	-1.000000	-1.000000	-1.000000	-1.000000	-1.000000	52.000000	0.000000	-1.000000	-1.000000	459936.000000	1775800728.172684
-6031.395000	-597.420000	16826.355000	34688.745000	25292.475000	-8.595000	-25729.515000	-15480.630000	1.241342	0.917599	-0.321490	-0.481676	6.992313	9.592363	2.696370	0.859472	5.615680	0.579880	0.259420	-0.729429	-0.191406	0.656737	-1.000000	-1.000000	-1.000000	-1.000000	-1.000000	-1.000000	-1.000000	52.000000	0.000000	-1.000000	-1.000000	459937.000000	1775800728.172711
-6035.265000	-598.860000	16828.920000	34694.955000	25291.395000	-3.735000	-25731.315000	-15483.375000	2.241557	2.465580	1.245985	0.207933	5.833236	8.025499	2.584492	1.260800	5.615680	0.579880	0.259420	-0.729429	-0.191406	0.656737	-1.000000	-1.000000	-1.000000	-1.000000	-1.000000	-1.000000	-1.000000	52.000000	0.000000	-1.000000	-1.000000	459938.000000	1775800728.177178
-6037.875000	-601.560000	16828.920000	34697.025000	25299.495000	2.835000	-25729.605000	-15484.545000	1.047872	2.375758	2.264008	0.997585	2.323470	4.443585	0.635932	-0.158735	5.615680	0.579880	0.259420	-0.729429	-0.191406	0.656737	-1.000000	-1.000000	-1.000000	-1.000000	-1.000000	-1.000000	-1.000000	52.000000	0.000000	-1.000000	-1.000000	459939.000000	1775800728.177201
-6037.110000	-599.265000	16829.370000	34695.000000	25299.720000	-1.170000	-25733.610000	-15487.560000	-1.322541	1.014572	2.669411	2.146368	-0.504654	1.265767	-1.848930	-2.523161	2.945180	-0.076300	1.281840	-0.733519	-0.184448	0.657347	-1.000000	-1.000000	-1.000000	-1.000000	-1.000000	-1.000000	-1.000000	52.000000	0.000000	-1.000000	-1.000000	459940.000000	1775800728.180669
-6038.775000	-600.840000	16826.805000	34689.465000	25285.005000	-5.220000	-25736.085000	-15489.180000	-3.009057	-0.460287	2.369543	2.796998	-1.463351	-0.917965	-3.529449	-4.269927	2.945180	-0.076300	1.281840	-0.733519	-0.184448	0.657347	-1.000000	-1.000000	-1.000000	-1.000000	-1.000000	-1.000000	-1.000000	52.000000	0.000000	-1.000000	-1.000000	459941.000000	1775800728.180695
-6033.330000	-589.950000	16840.170000	34703.820000	25293.555000	-12.105000	-25739.055000	-15486.975000	-2.855181	-0.987349	1.576115	2.266983	-1.640976	-2.796863	-3.883627	-4.304956	2.945180	-0.076300	1.281840	-0.733519	-0.184448	0.657347	-1.000000	-1.000000	-1.000000	-1.000000	-1.000000	-1.000000	-1.000000	52.000000	0.000000	-1.000000	-1.000000	459942.000000	1775800728.186514
-6035.220000	-590.715000	16842.510000	34708.005000	25303.455000	-11.295000	-25739.460000	-15488.865000	-1.004144	-0.195388	1.067991	1.388226	-1.478084	-4.515882	-2.979517	-2.498094	2.945180	-0.076300	1.281840	-0.733519	-0.184448	0.657347	-1.000000	-1.000000	-1.000000	-1.000000	-1.000000	-1.000000	-1.000000	52.000000	0.000000	-1.000000	-1.000000	459943.000000	1775800728.186540
-6044.670000	-604.080000	16827.795000	34694.235000	25292.070000	-4.770000	-25738.920000	-15494.625000	1.139857	0.898597	0.808182	0.816703	-0.447900	-5.043895	-1.147581	0.138146	2.945180	-0.076300	1.281840	-0.733519	-0.184448	0.657347	-1.000000	-1.000000	-1.000000	-1.000000	-1.000000	-1.000000	-1.000000	52.000000	0.000000	-1.000000	-1.000000	459944.000000	1775800728.191267
-6046.515000	-609.930000	16820.280000	34686.945000	25292.160000	2.160000	-25736.445000	-15493.995000	1.858336	0.418782	-0.637077	-0.526407	0.644418	-3.251303	1.105145	2.117686	2.945180	-0.076300	1.281840	-0.733519	-0.184448	0.657347	-1.000000	-1.000000	-1.000000	-1.000000	-1.000000	-1.000000	-1.000000	52.000000	0.000000	-1.000000	-1.000000	459945.000000	1775800728.191292
-6044.490000	-609.750000	16820.190000	34686.675000	25290.990000	-5.130000	-25738.515000	-15491.655000	0.946486	-1.859323	-3.579555	-3.201493	0.553024	0.293620	3.058189	2.855905	2.945180	-0.076300	1.281840	-0.733519	-0.184448	0.657347	-1.000000	-1.000000	-1.000000	-1.000000	-1.000000	-1.000000	-1.000000	52.000000	0.000000	-1.000000	-1.000000	459946.000000	1775800728.205859
-6042.645000	-605.790000	16824.330000	34688.520000	25282.260000	-8.280000	-25739.595000	-15492.375000	-0.117285	-3.739556	-5.790841	-5.415038	-0.593266	3.134916	3.878465	2.820469	2.945180	-0.076300	1.281840	-0.733519	-0.184448	0.657347	-1.000000	-1.000000	-1.000000	-1.000000	-1.000000	-1.000000	-1.000000	52.000000	0.000000	-1.000000	-1.000000	459947.000000	1775800728.205885
-6041.835000	-600.345000	16832.565000	34699.995000	25294.770000	-7.200000	-25739.910000	-15495.390000	-0.081448	-3.020134	-4.804329	-4.822109	-1.709564	3.370403	3.175018	2.391260	2.945180	-0.076300	1.281840	-0.733519	-0.184448	0.657347	-1.000000	-1.000000	-1.000000	-1.000000	-1.000000	-1.000000	-1.000000	52.000000	0.000000	-1.000000	-1.000000	459948.000000	1775800728.205911
-6040.755000	-598.455000	16833.240000	34698.330000	25293.420000	-13.230000	-25743.870000	-15495.570000	0.897103	0.262980	-0.584434	-1.062570	-1.518247	1.433970	1.359492	1.500400	2.945180	-0.076300	1.281840	-0.733519	-0.184448	0.657347	-1.000000	-1.000000	-1.000000	-1.000000	-1.000000	-1.000000	-1.000000	52.000000	0.000000	-1.000000	-1.000000	459949.000000	1775800728.205920
-6038.550000	-596.700000	16835.355000	34700.040000	25295.940000	-5.040000	-25736.040000	-15490.980000	1.857434	3.970852	4.296404	3.588255	0.216777	-0.848041	-0.573517	0.361796	-3.967600	1.388660	1.831200	-0.729857	-0.179992	0.652525	-1.000000	-1.000000	-1.000000	-1.000000	-1.000000	-1.000000	-1.000000	52.000000	0.000000	-1.000000	-1.000000	459950.000000	1775800728.205932
-6038.775000	-595.395000	16839.405000	34704.900000	25296.840000	-3.375000	-25735.230000	-15490.035000	2.040010	5.747238	6.911072	6.217522	2.175898	-1.746727	-1.499683	-0.369290	-3.967600	1.388660	1.831200	-0.729857	-0.179992	0.652525	-1.000000	-1.000000	-1.000000	-1.000000	-1.000000	-1.000000	-1.000000	52.000000	0.000000	-1.000000	-1.000000	459951.000000	1775800728.205942
-6036.840000	-593.190000	16842.285000	34706.745000	25299.585000	-7.020000	-25736.895000	-15488.100000	1.281729	4.742497	6.230035	5.763501	2.983470	-0.877591	-1.131519	-0.400582	-3.967600	1.388660	1.831200	-0.729857	-0.179992	0.652525	-1.000000	-1.000000	-1.000000	-1.000000	-1.000000	-1.000000	-1.000000	52.000000	0.000000	-1.000000	-1.000000	459952.000000	1775800728.208816
-6037.290000	-596.070000	16838.055000	34703.280000	25297.605000	-14.940000	-25739.190000	-15488.820000	-0.050603	1.749436	3.082888	2.988518	2.270605	0.347272	-0.415046	-0.148564	-3.967600	1.388660	1.831200	-0.729857	-0.179992	0.652525	-1.000000	-1.000000	-1.000000	-1.000000	-1.000000	-1.000000	-1.000000	52.000000	0.000000	-1.000000	-1.000000	459953.000000	1775800728.208840
-6034.410000	-597.150000	16832.745000	34696.260000	25293.510000	-19.215000	-25736.445000	-15484.185000	-1.329963	-1.778089	-1.151770	-0.894396	0.386452	0.316739	-0.273945	-0.113215	-3.967600	1.388660	1.831200	-0.729857	-0.179992	0.652525	-1.000000	-1.000000	-1.000000	-1.000000	-1.000000	-1.000000	-1.000000	52.000000	0.000000	-1.000000	-1.000000	459954.000000	1775800728.211421
-6042.465000	-605.025000	16825.185000	34688.160000	25285.140000	-14.175000	-25736.715000	-15489.315000	-2.159396	-4.593827	-5.147010	-4.734764	-2.069869	-0.833339	-0.600149	-0.424800	-3.967600	1.388660	1.831200	-0.729857	-0.179992	0.652525	-1.000000	-1.000000	-1.000000	-1.000000	-1.000000	-1.000000	-1.000000	52.000000	0.000000	-1.000000	-1.000000	459955.000000	1775800728.211448
-6051.150000	-609.210000	16825.230000	34689.870000	25289.820000	-15.075000	-25743.870000	-15499.350000	-2.780748	-6.016955	-7.544988	-7.189303	-4.152302	-1.487497	-0.951585	-1.239567	-3.967600	1.388660	1.831200	-0.729857	-0.179992	0.652525	-1.000000	-1.000000	-1.000000	-1.000000	-1.000000	-1.000000	-1.000000	52.000000	0.000000	-1.000000	-1.000000	459956.000000	1775800728.222943
-6049.170000	-605.520000	16829.685000	34695.360000	25293.870000	3.420000	-25741.170000	-15499.620000	-3.389033	-5.657669	-7.097142	-6.784379	-4.457569	-0.343319	-1.249668	-2.617052	-3.967600	1.388660	1.831200	-0.729857	-0.179992	0.652525	-1.000000	-1.000000	-1.000000	-1.000000	-1.000000	-1.000000	-1.000000	52.000000	0.000000	-1.000000	-1.000000	459957.000000	1775800728.222972
-6039.090000	-596.205000	16837.875000	34699.320000	25281.495000	6.660000	-25733.880000	-15493.005000	-3.032537	-3.100941	-3.413432	-3.053064	-2.512051	2.528331	-1.139543	-3.523609	-3.967600	1.388660	1.831200	-0.729857	-0.179992	0.652525	-1.000000	-1.000000	-1.000000	-1.000000	-1.000000	-1.000000	-1.000000	52.000000	0.000000	-1.000000	-1.000000	459958.000000	1775800728.223003
-6037.605000	-593.505000	16842.375000	34706.835000	25290.270000	1.665000	-25734.195000	-15488.955000	-0.604915	1.319838	2.231645	2.499209	0.299460	5.246588	-0.041441	-2.405477	-3.967600	1.388660	1.831200	-0.729857	-0.179992	0.652525	-1.000000	-1.000000	-1.000000	-1.000000	-1.000000	-1.000000	-1.000000	52.000000	0.000000	-1.000000	-1.000000	459959.000000	1775800728.223014
-6041.835000	-598.950000	16835.985000	34699.995000	25299.495000	0.450000	-25737.480000	-15492.105000	2.975121	5.570184	6.999795	7.020149	2.712856	5.134518	1.540713	0.661087	-8.805020	3.891300	2.472120	-0.722654	-0.183471	0.647154	-1.000000	-1.000000	-1.000000	-1.000000	-1.000000	-1.000000	-1.000000	52.000000	0.000000	-1.000000	-1.000000	459960.000000	1775800728.223027
-6041.340000	-602.685000	16829.235000	34692.210000	25309.305000	6.930000	-25731.675000	-15489.495000	5.185086	6.945417	7.990444	7.838890	4.738781	1.668120	2.332157	3.650082	-8.805020	3.891300	2.472120	-0.722654	-0.183471	0.647154	-1.000000	-1.000000	-1.000000	-1.000000	-1.000000	-1.000000	-1.000000	52.000000	0.000000	-1.000000	-1.000000	459961.000000	1775800728.223037
-6036.435000	-596.430000	16837.020000	34702.785000	25317.585000	9.990000	-25727.805000	-15485.085000	4.695223	4.697507	4.730077	4.559826	6.211634	-2.701309	2.008492	4.784241	-8.805020	3.891300	2.472120	-0.722654	-0.183471	0.647154	-1.000000	-1.000000	-1.000000	-1.000000	-1.000000	-1.000000	-1.000000	52.000000	0.000000	-1.000000	-1.000000	459962.000000	1775800728.227126
-6038.010000	-598.590000	16833.420000	34694.325000	25295.085000	-8.505000	-25739.145000	-15488.325000	2.391176	0.801779	-0.154496	-0.269458	5.720738	-5.585982	0.991896	3.875765	-8.805020	3.891300	2.472120	-0.722654	-0.183471	0.647154	-1.000000	-1.000000	-1.000000	-1.000000	-1.000000	-1.000000	-1.000000	52.000000	0.000000	-1.000000	-1.000000	459963.000000	1775800728.227153
-6043.590000	-602.955000	16830.360000	34692.525000	25294.365000	-8.865000	-25737.525000	-15490.935000	-0.319292	-2.389669	-3.700721	-3.873087	1.697302	-6.804138	-0.652654	1.548104	-8.805020	3.891300	2.472120	-0.722654	-0.183471	0.647154	-1.000000	-1.000000	-1.000000	-1.000000	-1.000000	-1.000000	-1.000000	52.000000	0.000000	-1.000000	-1.000000	459964.000000	1775800728.230582
-6044.580000	-603.045000	16828.335000	34687.845000	25294.500000	-3.240000	-25735.995000	-15492.240000	-2.680379	-3.985399	-4.919757	-5.329560	-4.663720	-6.508763	-2.440603	-1.341260	-8.805020	3.891300	2.472120	-0.722654	-0.183471	0.647154	-1.000000	-1.000000	-1.000000	-1.000000	-1.000000	-1.000000	-1.000000	52.000000	0.000000	-1.000000	-1.000000	459965.000000	1775800728.230608
-6045.885000	-601.515000	16831.575000	34690.410000	25297.830000	-1.215000	-25736.760000	-15495.165000	-4.108216	-3.963299	-4.140103	-4.774955	-9.245490	-3.946221	-3.145060	-3.664035	-8.805020	3.891300	2.472120	-0.722654	-0.183471	0.647154	-1.000000	-1.000000	-1.000000	-1.000000	-1.000000	-1.000000	-1.000000	52.000000	0.000000	-1.000000	-1.000000	459966.000000	1775800728.235115
-6042.915000	-598.140000	16833.420000	34690.230000	25292.295000	-6.570000	-25737.390000	-15492.555000	-3.975835	-2.473934	-1.942356	-2.603405	-9.102638	0.490384	-2.260374	-4.437701	-8.805020	3.891300	2.472120	-0.722654	-0.183471	0.647154	-1.000000	-1.000000	-1.000000	-1.000000	-1.000000	-1.000000	-1.000000	52.000000	0.000000	-1.000000	-1.000000	459967.000000	1775800728.235142
-6049.395000	-604.440000	16829.280000	34688.970000	25293.645000	-10.395000	-25740.810000	-15498.180000	-2.312554	-0.211001	0.721934	0.343217	-4.947799	4.459345	-0.542311	-3.430082	-8.805020	3.891300	2.472120	-0.722654	-0.183471	0.647154	-1.000000	-1.000000	-1.000000	-1.000000	-1.000000	-1.000000	-1.000000	52.000000	0.000000	-1.000000	-1.000000	459968.000000	1775800728.245674
-6050.970000	-605.430000	16828.875000	34690.410000	25299.990000	-6.615000	-25741.665000	-15499.530000	-0.160551	1.510697	2.522922	2.830860	0.564795	5.963018	0.893388	-1.402240	-8.805020	3.891300	2.472120	-0.722654	-0.183471	0.647154	-1.000000	-1.000000	-1.000000	-1.000000	-1.000000	-1.000000	-1.000000	52.000000	0.000000	-1.000000	-1.000000	459969.000000	1775800728.245703
-6046.065000	-598.815000	16836.750000	34701.165000	25312.905000	2.205000	-25735.725000	-15495.165000	1.448433	1.980702	2.870718	4.157529	5.397642	5.275310	1.614718	0.637130	-5.600420	4.516960	1.785420	-0.722227	-0.193298	0.644896	-1.000000	-1.000000	-1.000000	-1.000000	-1.000000	-1.000000	-1.000000	52.000000	0.000000	-1.000000	-1.000000	459970.000000	1775800728.245732
-6044.985000	-597.915000	16836.885000	34699.995000	25312.635000	7.380000	-25731.990000	-15493.905000	2.451992	1.806042	2.416993	4.468439	8.443210	4.031637	2.060199	2.306877	-5.600420	4.516960	1.785420	-0.722227	-0.193298	0.644896	-1.000000	-1.000000	-1.000000	-1.000000	-1.000000	-1.000000	-1.000000	52.000000	0.000000	-1.000000	-1.000000	459971.000000	1775800728.245744
-6046.740000	-600.840000	16832.205000	34692.120000	25303.770000	5.310000	-25732.440000	-15493.320000	3.002388	1.598627	1.702741	3.611738	8.462989	2.988945	2.517165	3.438870	-5.600420	4.516960	1.785420	-0.722227	-0.193298	0.644896	-1.000000	-1.000000	-1.000000	-1.000000	-1.000000	-1.000000	-1.000000	52.000000	0.000000	-1.000000	-1.000000	459972.000000	1775800728.245759
-6053.895000	-603.405000	16834.185000	34696.395000	25303.185000	-0.720000	-25736.805000	-15499.620000	2.646083	1.049570	0.518915	1.172206	4.694660	1.407138	2.390830	3.492218	-5.600420	4.516960	1.785420	-0.722227	-0.193298	0.644896	-1.000000	-1.000000	-1.000000	-1.000000	-1.000000	-1.000000	-1.000000	52.000000	0.000000	-1.000000	-1.000000	459973.000000	1775800728.245770
-6047.280000	-592.380000	16846.785000	34708.455000	25306.830000	-7.290000	-25738.380000	-15496.110000	1.143756	0.062407	-0.774830	-1.766164	-1.244324	-1.475649	1.003070	2.123767	-5.600420	4.516960	1.785420	-0.722227	-0.193298	0.644896	-1.000000	-1.000000	-1.000000	-1.000000	-1.000000	-1.000000	-1.000000	52.000000	0.000000	-1.000000	-1.000000	459974.000000	1775800728.248724
-6046.470000	-595.080000	16843.455000	34704.720000	25302.330000	-16.605000	-25741.980000	-15495.795000	-0.562383	-0.577079	-1.135648	-3.169051	-6.033563	-5.083643	-1.306139	0.038935	-5.600420	4.516960	1.785420	-0.722227	-0.193298	0.644896	-1.000000	-1.000000	-1.000000	-1.000000	-1.000000	-1.000000	-1.000000	52.000000	0.000000	-1.000000	-1.000000	459975.000000	1775800728.248744
-6040.665000	-595.125000	16838.505000	34693.470000	25289.775000	-24.615000	-25744.455000	-15490.620000	-1.206579	-0.529524	-0.708724	-2.913844	-7.790025	-7.808456	-3.351141	-1.428529	-5.600420	4.516960	1.785420	-0.722227	-0.193298	0.644896	-1.000000	-1.000000	-1.000000	-1.000000	-1.000000	-1.000000	-1.000000	52.000000	0.000000	-1.000000	-1.000000	459976.000000	1775800728.256452
-6037.020000	-595.665000	16834.680000	34689.555000	25297.470000	-7.965000	-25738.065000	-15485.715000	-0.534541	-0.435488	-0.839634	-2.746656	-6.855725	-7.765837	-3.926395	-1.481625	-5.600420	4.516960	1.785420	-0.722227	-0.193298	0.644896	-1.000000	-1.000000	-1.000000	-1.000000	-1.000000	-1.000000	-1.000000	52.000000	0.000000	-1.000000	-1.000000	459977.000000	1775800728.256476
-6036.210000	-593.640000	16840.260000	34702.245000	25315.155000	9.675000	-25729.560000	-15484.095000	0.643386	-0.706677	-1.845307	-3.082645	-3.580344	-3.439167	-2.306645	-0.393067	-5.600420	4.516960	1.785420	-0.722227	-0.193298	0.644896	-1.000000	-1.000000	-1.000000	-1.000000	-1.000000	-1.000000	-1.000000	52.000000	0.000000	-1.000000	-1.000000	459978.000000	1775800728.258523
-6042.015000	-597.645000	16838.505000	34704.720000	25320.060000	-0.720000	-25733.025000	-15488.370000	1.063144	-1.114819	-2.498663	-2.268955	1.881787	4.054251	0.963986	0.644954	-5.600420	4.516960	1.785420	-0.722227	-0.193298	0.644896	-1.000000	-1.000000	-1.000000	-1.000000	-1.000000	-1.000000	-1.000000	52.000000	0.000000	-1.000000	-1.000000	459979.000000	1775800728.258547
-6048.180000	-606.240000	16827.345000	34690.590000	25301.295000	2.295000	-25730.640000	-15491.025000	-0.148646	-1.546414	-2.062909	0.167463	7.059437	10.019612	3.813788	0.403968	2.960440	4.150720	-1.007160	-0.730162	-0.197753	0.645567	-1.000000	-1.000000	-1.000000	-1.000000	-1.000000	-1.000000	-1.000000	52.000000	0.000000	-1.000000	-1.000000	459980.000000	1775800728.262022
-6049.890000	-607.455000	16826.985000	34687.845000	25295.220000	4.905000	-25729.830000	-15493.500000	-2.566472	-2.088200	-1.234306	2.115469	7.865198	10.467472	4.397022	-1.197786	2.960440	4.150720	-1.007160	-0.730162	-0.197753	0.645567	-1.000000	-1.000000	-1.000000	-1.000000	-1.000000	-1.000000	-1.000000	52.000000	0.000000	-1.000000	-1.000000	459981.000000	1775800728.262048
-6050.790000	-606.915000	16826.670000	34684.110000	25293.330000	-0.090000	-25733.835000	-15497.865000	-4.499681	-2.272255	-0.544495	1.930729	3.319036	5.765205	2.605230	-3.034787	2.960440	4.150720	-1.007160	-0.730162	-0.197753	0.645567	-1.000000	-1.000000	-1.000000	-1.000000	-1.000000	-1.000000	-1.000000	52.000000	0.000000	-1.000000	-1.000000	459982.000000	1775800728.264699
-6051.690000	-605.070000	16828.155000	34683.300000	25291.170000	-7.245000	-25742.205000	-15507.180000	-4.381776	-1.275890	0.419672	0.447195	-2.952781	-1.082771	-0.560362	-3.985547	2.960440	4.150720	-1.007160	-0.730162	-0.197753	0.645567	-1.000000	-1.000000	-1.000000	-1.000000	-1.000000	-1.000000	-1.000000	52.000000	0.000000	-1.000000	-1.000000	459983.000000	1775800728.264747
-6050.655000	-601.560000	16832.520000	34688.925000	25295.040000	-7.785000	-25745.670000	-15509.205000	-2.065896	0.982277	1.970528	-0.450341	-6.484909	-6.978587	-3.826876	-3.695718	2.960440	4.150720	-1.007160	-0.730162	-0.197753	0.645567	-1.000000	-1.000000	-1.000000	-1.000000	-1.000000	-1.000000	-1.000000	52.000000	0.000000	-1.000000	-1.000000	459984.000000	1775800728.267594
-6045.120000	-598.590000	16833.690000	34687.935000	25295.220000	-1.575000	-25735.500000	-15496.830000	1.365131	3.568959	3.676437	0.284653	-5.472342	-9.443858	-5.525240	-1.928390	2.960440	4.150720	-1.007160	-0.730162	-0.197753	0.645567	-1.000000	-1.000000	-1.000000	-1.000000	-1.000000	-1.000000	-1.000000	52.000000	0.000000	-1.000000	-1.000000	459985.000000	1775800728.267611
-6042.915000	-597.060000	16838.190000	34696.395000	25300.395000	-2.340000	-25735.905000	-15493.500000	4.508320	5.173420	4.648980	2.173339	-1.204715	-7.464486	-4.205926	1.581050	2.960440	4.150720	-1.007160	-0.730162	-0.197753	0.645567	-1.000000	-1.000000	-1.000000	-1.000000	-1.000000	-1.000000	-1.000000	52.000000	0.000000	-1.000000	-1.000000	459986.000000	1775800728.275177
-6039.990000	-592.785000	16843.770000	34702.605000	25310.835000	4.635000	-25734.015000	-15492.015000	6.145679	4.950587	4.304000	3.992490	3.669494	-2.355546	-0.378975	5.731642	2.960440	4.150720	-1.007160	-0.730162	-0.197753	0.645567	-1.000000	-1.000000	-1.000000	-1.000000	-1.000000	-1.000000	-1.000000	52.000000	0.000000	-1.000000	-1.000000	459987.000000	1775800728.275213
-6042.600000	-599.400000	16835.670000	34696.980000	25313.355000	4.680000	-25734.375000	-15490.935000	5.543853	2.900236	2.595221	4.562405	6.960147	3.107102	3.513941	8.063466	2.960440	4.150720	-1.007160	-0.730162	-0.197753	0.645567	-1.000000	-1.000000	-1.000000	-1.000000	-1.000000	-1.000000	-1.000000	52.000000	0.000000	-1.000000	-1.000000	459988.000000	1775800728.278787
-6044.085000	-602.955000	16829.505000	34689.285000	25308.180000	-0.990000	-25737.570000	-15492.645000	2.796387	-0.431131	-0.429242	2.817219	7.223095	6.282609	5.205018	6.931991	2.960440	4.150720	-1.007160	-0.730162	-0.197753	0.645567	-1.000000	-1.000000	-1.000000	-1.000000	-1.000000	-1.000000	-1.000000	52.000000	0.000000	-1.000000	-1.000000	459989.000000	1775800728.278814
-6047.145000	-602.055000	16831.530000	34689.060000	25302.150000	-11.385000	-25742.115000	-15498.000000	-1.055892	-3.919963	-4.072842	-1.173772	3.893843	5.658920	3.992458	2.734743	6.805960	4.318580	-2.929920	-0.736204	-0.191345	0.644652	-1.000000	-1.000000	-1.000000	-1.000000	-1.000000	-1.000000	-1.000000	52.000000	0.000000	-1.000000	-1.000000	459990.000000	1775800728.280199
-6046.560000	-597.735000	16838.325000	34694.730000	25283.655000	-27.270000	-25746.795000	-15501.645000	-4.375072	-5.826556	-6.340894	-5.228807	-2.087315	1.518940	0.774981	-2.647494	6.805960	4.318580	-2.929920	-0.736204	-0.191345	0.644652	-1.000000	-1.000000	-1.000000	-1.000000	-1.000000	-1.000000	-1.000000	52.000000	0.000000	-1.000000	-1.000000	459991.000000	1775800728.280217
-6042.015000	-591.795000	16845.435000	34701.435000	25283.970000	-26.415000	-25745.355000	-15500.115000	-5.644913	-4.892283	-5.378441	-6.501166	-8.242754	-3.833985	-2.539953	-6.798706	6.805960	4.318580	-2.929920	-0.736204	-0.191345	0.644652	-1.000000	-1.000000	-1.000000	-1.000000	-1.000000	-1.000000	-1.000000	52.000000	0.000000	-1.000000	-1.000000	459992.000000	1775800728.296279
-6045.165000	-597.015000	16840.395000	34697.835000	25289.865000	-17.955000	-25744.410000	-15498.135000	-4.375466	-1.687074	-1.635161	-4.209606	-11.134229	-6.753132	-4.042459	-7.793896	6.805960	4.318580	-2.929920	-0.736204	-0.191345	0.644652	-1.000000	-1.000000	-1.000000	-1.000000	-1.000000	-1.000000	-1.000000	52.000000	0.000000	-1.000000	-1.000000	459993.000000	1775800728.296307
-6049.260000	-607.005000	16828.425000	34688.880000	25305.705000	11.745000	-25737.660000	-15496.740000	-1.687520	1.380982	1.972412	-0.542278	-8.161419	-4.234876	-2.911100	-5.326659	6.805960	4.318580	-2.929920	-0.736204	-0.191345	0.644652	-1.000000	-1.000000	-1.000000	-1.000000	-1.000000	-1.000000	-1.000000	52.000000	0.000000	-1.000000	-1.000000	459994.000000	1775800728.296336
-6048.855000	-609.255000	16825.770000	34686.405000	25295.760000	3.960000	-25740.315000	-15496.065000	0.621265	2.098552	2.681350	1.562781	-0.359361	3.129538	0.045263	-0.961688	6.805960	4.318580	-2.929920	-0.736204	-0.191345	0.644652	-1.000000	-1.000000	-1.000000	-1.000000	-1.000000	-1.000000	-1.000000	52.000000	0.000000	-1.000000	-1.000000	459995.000000	1775800728.296348
-6037.740000	-600.255000	16832.610000	34693.380000	25295.490000	-11.070000	-25739.055000	-15487.290000	1.925604	0.834232	0.816154	1.452020	7.340941	9.848837	2.841153	3.123313	6.805960	4.318580	-2.929920	-0.736204	-0.191345	0.644652	-1.000000	-1.000000	-1.000000	-1.000000	-1.000000	-1.000000	-1.000000	52.000000	0.000000	-1.000000	-1.000000	459996.000000	1775800728.297004
-6038.370000	-600.345000	16832.610000	34692.660000	25293.735000	-12.960000	-25736.400000	-15488.505000	2.837884	-0.079147	-0.851970	0.804720	10.251393	9.922661	3.832761	5.493883	6.805960	4.318580	-2.929920	-0.736204	-0.191345	0.644652	-1.000000	-1.000000	-1.000000	-1.000000	-1.000000	-1.000000	-1.000000	52.000000	0.000000	-1.000000	-1.000000	459997.000000	1775800728.297021
-6034.725000	-592.110000	16842.195000	34700.895000	25298.595000	-3.645000	-25731.585000	-15486.480000	3.511895	0.729123	-0.382675	1.097095	7.819458	3.404690	2.966792	5.554977	6.805960	4.318580	-2.929920	-0.736204	-0.191345	0.644652	-1.000000	-1.000000	-1.000000	-1.000000	-1.000000	-1.000000	-1.000000	52.000000	0.000000	-1.000000	-1.000000	459998.000000	1775800728.297036
-6037.380000	-591.615000	16845.210000	34707.915000	25305.210000	5.535000	-25728.120000	-15487.695000	3.227660	2.549490	1.874468	2.373904	2.990258	-3.946886	1.317365	3.435296	6.805960	4.318580	-2.929920	-0.736204	-0.191345	0.644652	-1.000000	-1.000000	-1.000000	-1.000000	-1.000000	-1.000000	-1.000000	52.000000	0.000000	-1.000000	-1.000000	459999.000000	1775800728.297042
-6035.220000	-588.600000	16848.225000	34711.695000	25302.060000	10.125000	-25725.105000	-15484.770000	1.578946	3.745125	4.124276	3.741249	-1.063807	-7.000139	-0.151457	0.183245	2.517900	4.318580	-2.701020	-0.735655	-0.182495	0.643736	-1.000000	-1.000000	-1.000000	-1.000000	-1.000000	-1.000000	-1.000000	52.000000	0.000000	-1.000000	-1.000000	460000.000000	1775800728.304119
-6040.890000	-596.205000	16840.305000	34701.795000	25303.635000	1.665000	-25733.430000	-15491.205000	-0.923820	3.030005	4.395677	3.751749	-3.205998	-5.466914	-1.315538	-2.777426	2.517900	4.318580	-2.701020	-0.735655	-0.182495	0.643736	-1.000000	-1.000000	-1.000000	-1.000000	-1.000000	-1.000000	-1.000000	52.000000	0.000000	-1.000000	-1.000000	460001.000000	1775800728.304146
-6035.040000	-594.540000	16839.630000	34698.780000	25312.005000	4.860000	-25729.245000	-15486.030000	-3.179896	0.304617	1.864872	1.272551	-3.726922	-2.532535	-2.534466	-4.460229	2.517900	4.318580	-2.701020	-0.735655	-0.182495	0.643736	-1.000000	-1.000000	-1.000000	-1.000000	-1.000000	-1.000000	-1.000000	52.000000	0.000000	-1.000000	-1.000000	460002.000000	1775800728.304780
-6041.160000	-599.805000	16835.400000	34694.505000	25311.780000	5.535000	-25733.475000	-15492.555000	-4.129364	-3.114125	-2.307004	-2.999243	-2.975961	-0.726993	-3.594433	-4.491209	2.517900	4.318580	-2.701020	-0.735655	-0.182495	0.643736	-1.000000	-1.000000	-1.000000	-1.000000	-1.000000	-1.000000	-1.000000	52.000000	0.000000	-1.000000	-1.000000	460003.000000	1775800728.304796
-6039.855000	-594.315000	16843.050000	34700.715000	25314.795000	11.520000	-25733.520000	-15493.680000	-3.518786	-5.301301	-5.591102	-6.485525	-1.556441	-0.115504	-3.792306	-3.208874	2.517900	4.318580	-2.701020	-0.735655	-0.182495	0.643736	-1.000000	-1.000000	-1.000000	-1.000000	-1.000000	-1.000000	-1.000000	52.000000	0.000000	-1.000000	-1.000000	460004.000000	1775800728.318983
-6043.005000	-596.475000	16840.350000	34696.035000	25306.740000	8.100000	-25738.695000	-15497.730000	-1.945877	-5.022573	-5.946768	-6.841698	-0.535268	0.219222	-2.909655	-1.458479	2.517900	4.318580	-2.701020	-0.735655	-0.182495	0.643736	-1.000000	-1.000000	-1.000000	-1.000000	-1.000000	-1.000000	-1.000000	52.000000	0.000000	-1.000000	-1.000000	460005.000000	1775800728.319008
-6036.435000	-592.425000	16843.860000	34699.005000	25299.630000	-6.210000	-25740.855000	-15492.330000	-0.057872	-2.520124	-3.399541	-3.982075	-0.807429	0.281829	-1.383176	0.231998	2.517900	4.318580	-2.701020	-0.735655	-0.182495	0.643736	-1.000000	-1.000000	-1.000000	-1.000000	-1.000000	-1.000000	-1.000000	52.000000	0.000000	-1.000000	-1.000000	460006.000000	1775800728.319034
-6032.970000	-590.940000	16843.950000	34697.655000	25304.535000	-10.620000	-25740.270000	-15489.540000	1.873463	0.815102	0.268131	0.226595	-2.105695	-0.674253	0.259321	1.925552	2.517900	4.318580	-2.701020	-0.735655	-0.182495	0.643736	-1.000000	-1.000000	-1.000000	-1.000000	-1.000000	-1.000000	-1.000000	52.000000	0.000000	-1.000000	-1.000000	460007.000000	1775800728.319046
-6034.905000	-595.665000	16839.450000	34694.910000	25319.880000	10.395000	-25732.980000	-15490.665000	3.458681	3.332833	3.013602	3.611854	-2.513252	-1.864749	1.921150	3.511643	2.517900	4.318580	-2.701020	-0.735655	-0.182495	0.643736	-1.000000	-1.000000	-1.000000	-1.000000	-1.000000	-1.000000	-1.000000	52.000000	0.000000	-1.000000	-1.000000	460008.000000	1775800728.319061
-6032.340000	-596.385000	16838.730000	34696.845000	25325.955000	14.895000	-25729.335000	-15488.865000	3.900046	3.843102	3.613337	4.880554	-0.240269	-0.844367	3.695970	4.248015	2.517900	4.318580	-2.701020	-0.735655	-0.182495	0.643736	-1.000000	-1.000000	-1.000000	-1.000000	-1.000000	-1.000000	-1.000000	52.000000	0.000000	-1.000000	-1.000000	460009.000000	1775800728.319071
-6035.040000	-599.085000	16834.680000	34693.065000	25310.025000	6.120000	-25734.870000	-15492.555000	2.776230	2.347018	2.217195	4.077402	3.475005	2.612170	4.962944	3.488560	-5.829320	3.097780	-1.220800	-0.730894	-0.180175	0.645506	-1.000000	-1.000000	-1.000000	-1.000000	-1.000000	-1.000000	-1.000000	52.000000	0.000000	-1.000000	-1.000000	460010.000000	1775800728.321715
-6036.210000	-598.590000	16836.930000	34695.180000	25302.195000	6.075000	-25736.715000	-15494.940000	0.540248	0.057473	0.107552	2.146196	4.869965	5.281289	4.452877	1.344886	-5.829320	3.097780	-1.220800	-0.730894	-0.180175	0.645506	-1.000000	-1.000000	-1.000000	-1.000000	-1.000000	-1.000000	-1.000000	52.000000	0.000000	-1.000000	-1.000000	460011.000000	1775800728.321740
-6030.495000	-590.670000	16846.560000	34705.935000	25312.995000	10.305000	-25734.330000	-15490.890000	-1.715807	-1.439864	-1.088993	0.402538	2.354324	4.699620	1.890053	-1.237744	-5.829320	3.097780	-1.220800	-0.730894	-0.180175	0.645506	-1.000000	-1.000000	-1.000000	-1.000000	-1.000000	-1.000000	-1.000000	52.000000	0.000000	-1.000000	-1.000000	460012.000000	1775800728.326357
-6031.755000	-590.175000	16848.540000	34708.095000	25312.905000	7.020000	-25738.020000	-15493.095000	-2.793012	-1.176701	-0.400238	-0.032908	-1.330726	1.693605	-1.332377	-2.903654	-5.829320	3.097780	-1.220800	-0.730894	-0.180175	0.645506	-1.000000	-1.000000	-1.000000	-1.000000	-1.000000	-1.000000	-1.000000	52.000000	0.000000	-1.000000	-1.000000	460013.000000	1775800728.326382
-6033.645000	-593.145000	16845.345000	34706.160000	25311.690000	4.815000	-25737.975000	-15493.590000	-2.419220	0.275093	1.386037	0.570393	-2.959338	-1.638005	-3.588837	-3.007621	-5.829320	3.097780	-1.220800	-0.730894	-0.180175	0.645506	-1.000000	-1.000000	-1.000000	-1.000000	-1.000000	-1.000000	-1.000000	52.000000	0.000000	-1.000000	-1.000000	460014.000000	1775800728.329988
-6040.980000	-602.505000	16835.850000	34696.260000	25305.705000	5.355000	-25736.670000	-15497.550000	-1.526849	1.115583	2.129512	0.546633	-2.278123	-3.850352	-4.113544	-2.066376	-5.829320	3.097780	-1.220800	-0.730894	-0.180175	0.645506	-1.000000	-1.000000	-1.000000	-1.000000	-1.000000	-1.000000	-1.000000	52.000000	0.000000	-1.000000	-1.000000	460015.000000	1775800728.330000
-6031.980000	-594.315000	16842.105000	34701.120000	25310.115000	3.150000	-25735.140000	-15490.530000	-0.926436	0.330874	0.676535	-1.123270	-0.828507	-4.307100	-2.938061	-0.833128	-5.829320	3.097780	-1.220800	-0.730894	-0.180175	0.645506	-1.000000	-1.000000	-1.000000	-1.000000	-1.000000	-1.000000	-1.000000	52.000000	0.000000	-1.000000	-1.000000	460016.000000	1775800728.333029
-6026.850000	-591.930000	16844.220000	34704.945000	25311.330000	-5.760000	-25737.210000	-15486.750000	-0.186930	-0.978187	-1.642620	-3.237041	0.441456	-3.309961	-0.813324	0.543954	-5.829320	3.097780	-1.220800	-0.730894	-0.180175	0.645506	-1.000000	-1.000000	-1.000000	-1.000000	-1.000000	-1.000000	-1.000000	52.000000	0.000000	-1.000000	-1.000000	460017.000000	1775800728.333045
-6026.490000	-589.995000	16846.110000	34705.620000	25309.485000	-14.265000	-25738.785000	-15485.625000	1.279264	-1.159633	-2.661159	-3.746295	1.385667	-1.997117	1.048688	2.010805	-5.829320	3.097780	-1.220800	-0.730894	-0.180175	0.645506	-1.000000	-1.000000	-1.000000	-1.000000	-1.000000	-1.000000	-1.000000	52.000000	0.000000	-1.000000	-1.000000	460018.000000	1775800728.336348
-6024.465000	-585.630000	16851.375000	34710.840000	25311.330000	-7.965000	-25740.540000	-15487.245000	2.773095	-0.043433	-1.712024	-2.125137	1.810835	-1.019768	1.761286	2.852155	-5.829320	3.097780	-1.220800	-0.730894	-0.180175	0.645506	-1.000000	-1.000000	-1.000000	-1.000000	-1.000000	-1.000000	-1.000000	52.000000	0.000000	-1.000000	-1.000000	460019.000000	1775800728.336370
-6031.620000	-592.425000	16848.135000	34710.795000	25314.255000	0.855000	-25739.640000	-15493.680000	2.958847	1.216693	0.226642	0.483326	1.635450	0.420659	1.359827	2.172692	-10.041080	2.533160	-0.213640	-0.727720	-0.184204	0.646300	-1.000000	-1.000000	-1.000000	-1.000000	-1.000000	-1.000000	-1.000000	52.000000	0.000000	-1.000000	-1.000000	460020.000000	1775800728.341348
-6034.365000	-594.765000	16846.785000	34709.805000	25318.215000	9.270000	-25735.095000	-15494.895000	1.230280	1.284328	1.566096	2.446686	1.205951	3.205429	0.656961	-0.064003	-10.041080	2.533160	-0.213640	-0.727720	-0.184204	0.646300	-1.000000	-1.000000	-1.000000	-1.000000	-1.000000	-1.000000	-1.000000	52.000000	0.000000	-1.000000	-1.000000	460021.000000	1775800728.341374
-6032.880000	-594.855000	16844.760000	34704.045000	25316.325000	12.960000	-25730.730000	-15492.465000	-1.561754	-0.121615	1.325040	2.587005	0.788056	6.434120	0.531183	-2.575448	-10.041080	2.533160	-0.213640	-0.727720	-0.184204	0.646300	-1.000000	-1.000000	-1.000000	-1.000000	-1.000000	-1.000000	-1.000000	52.000000	0.000000	-1.000000	-1.000000	460022.000000	1775800728.356208
-6034.545000	-594.045000	16845.660000	34705.890000	25320.420000	8.235000	-25733.565000	-15495.435000	-3.565537	-1.809946	-0.091830	0.932766	0.258203	7.741760	1.036120	-3.669279	-10.041080	2.533160	-0.213640	-0.727720	-0.184204	0.646300	-1.000000	-1.000000	-1.000000	-1.000000	-1.000000	-1.000000	-1.000000	52.000000	0.000000	-1.000000	-1.000000	460023.000000	1775800728.356234
-6034.905000	-594.135000	16844.850000	34703.595000	25316.370000	-5.445000	-25734.960000	-15495.390000	-3.574640	-2.379671	-1.440316	-1.217143	-0.514838	5.169623	1.256519	-2.816177	-10.041080	2.533160	-0.213640	-0.727720	-0.184204	0.646300	-1.000000	-1.000000	-1.000000	-1.000000	-1.000000	-1.000000	-1.000000	52.000000	0.000000	-1.000000	-1.000000	460024.000000	1775800728.356260
-6035.355000	-596.205000	16840.440000	34695.540000	25293.555000	-11.205000	-25734.915000	-15495.255000	-1.869740	-1.540850	-1.877608	-2.537949	-1.859359	-1.004829	0.453181	-0.806063	-10.041080	2.533160	-0.213640	-0.727720	-0.184204	0.646300	-1.000000	-1.000000	-1.000000	-1.000000	-1.000000	-1.000000	-1.000000	52.000000	0.000000	-1.000000	-1.000000	460025.000000	1775800728.356273
-6030.045000	-590.265000	16847.460000	34704.630000	25302.240000	-0.495000	-25730.730000	-15490.665000	0.520749	0.043004	-1.346599	-2.553980	-3.950057	-7.467983	-0.920537	1.333937	-10.041080	2.533160	-0.213640	-0.727720	-0.184204	0.646300	-1.000000	-1.000000	-1.000000	-1.000000	-1.000000	-1.000000	-1.000000	52.000000	0.000000	-1.000000	-1.000000	460026.000000	1775800728.356288
-6035.760000	-596.295000	16841.475000	34700.175000	25306.920000	21.960000	-25730.595000	-15496.065000	2.555826	1.542366	-0.137458	-1.211522	-5.135910	-9.475811	-1.759428	2.828548	-10.041080	2.533160	-0.213640	-0.727720	-0.184204	0.646300	-1.000000	-1.000000	-1.000000	-1.000000	-1.000000	-1.000000	-1.000000	52.000000	0.000000	-1.000000	-1.000000	460027.000000	1775800728.356299
-6033.645000	-594.090000	16844.400000	34704.090000	25311.870000	17.595000	-25732.800000	-15496.155000	3.334768	2.216023	1.139211	0.983369	-3.172922	-5.108050	-1.622828	3.031659	-10.041080	2.533160	-0.213640	-0.727720	-0.184204	0.646300	-1.000000	-1.000000	-1.000000	-1.000000	-1.000000	-1.000000	-1.000000	52.000000	0.000000	-1.000000	-1.000000	460028.000000	1775800728.359205
-6033.870000	-594.675000	16845.165000	34705.575000	25311.060000	10.485000	-25733.700000	-15496.065000	2.620076	1.800074	1.855508	2.926728	1.466049	1.944796	-1.036136	1.872954	-10.041080	2.533160	-0.213640	-0.727720	-0.184204	0.646300	-1.000000	-1.000000	-1.000000	-1.000000	-1.000000	-1.000000	-1.000000	52.000000	0.000000	-1.000000	-1.000000	460029.000000	1775800728.359228
-6034.095000	-594.450000	16845.570000	34706.160000	25313.085000	10.080000	-25734.240000	-15497.415000	1.086238	0.777566	1.906729	3.757696	5.792462	5.878805	-0.593387	0.157423	-6.851740	2.212700	1.251320	-0.727659	-0.192016	0.647887	-1.000000	-1.000000	-1.000000	-1.000000	-1.000000	-1.000000	-1.000000	52.000000	0.000000	-1.000000	-1.000000	460030.000000	1775800728.366629
-6031.800000	-591.390000	16848.270000	34708.995000	25319.250000	10.575000	-25735.050000	-15496.065000	-0.360780	-0.142580	1.493557	3.231578	7.334376	4.623110	-0.365525	-1.146866	-6.851740	2.212700	1.251320	-0.727659	-0.192016	0.647887	-1.000000	-1.000000	-1.000000	-1.000000	-1.000000	-1.000000	-1.000000	52.000000	0.000000	-1.000000	-1.000000	460031.000000	1775800728.366655
-6028.155000	-586.215000	16854.435000	34714.395000	25328.520000	13.455000	-25732.755000	-15493.005000	-1.075255	-0.424844	0.958295	1.784330	5.993376	0.602782	-0.101388	-1.486540	-6.851740	2.212700	1.251320	-0.727659	-0.192016	0.647887	-1.000000	-1.000000	-1.000000	-1.000000	-1.000000	-1.000000	-1.000000	52.000000	0.000000	-1.000000	-1.000000	460032.000000	1775800728.376083
-6033.915000	-590.220000	16851.870000	34712.190000	25323.435000	6.165000	-25738.200000	-15499.170000	-1.002132	-0.057498	0.578187	0.177792	3.094288	-2.844210	0.312088	-0.963587	-6.851740	2.212700	1.251320	-0.727659	-0.192016	0.647887	-1.000000	-1.000000	-1.000000	-1.000000	-1.000000	-1.000000	-1.000000	52.000000	0.000000	-1.000000	-1.000000	460033.000000	1775800728.376110
-6031.530000	-585.000000	16857.495000	34718.310000	25324.425000	4.500000	-25739.505000	-15499.575000	-0.760500	0.322075	0.205322	-1.141981	-0.405968	-4.235677	0.575809	-0.362988	-6.851740	2.212700	1.251320	-0.727659	-0.192016	0.647887	-1.000000	-1.000000	-1.000000	-1.000000	-1.000000	-1.000000	-1.000000	52.000000	0.000000	-1.000000	-1.000000	460034.000000	1775800728.376139
-6026.940000	-580.005000	16862.175000	34723.530000	25322.580000	8.370000	-25737.480000	-15495.930000	-0.690770	0.330024	-0.263598	-1.876707	-3.857211	-3.661105	0.486815	-0.195451	-6.851740	2.212700	1.251320	-0.727659	-0.192016	0.647887	-1.000000	-1.000000	-1.000000	-1.000000	-1.000000	-1.000000	-1.000000	52.000000	0.000000	-1.000000	-1.000000	460035.000000	1775800728.376150
-6031.170000	-585.135000	16856.415000	34715.070000	25306.245000	-4.770000	-25744.410000	-15501.195000	-0.517818	0.105148	-0.725903	-1.976264	-6.527810	-1.796441	0.275696	-0.184122	-6.851740	2.212700	1.251320	-0.727659	-0.192016	0.647887	-1.000000	-1.000000	-1.000000	-1.000000	-1.000000	-1.000000	-1.000000	52.000000	0.000000	-1.000000	-1.000000	460036.000000	1775800728.376160
-6029.730000	-583.875000	16857.270000	34713.855000	25302.285000	-4.365000	-25742.835000	-15500.295000	-0.246943	-0.440603	-1.385950	-2.107444	-8.029533	0.131783	0.088765	-0.111899	-6.851740	2.212700	1.251320	-0.727659	-0.192016	0.647887	-1.000000	-1.000000	-1.000000	-1.000000	-1.000000	-1.000000	-1.000000	52.000000	0.000000	-1.000000	-1.000000	460037.000000	1775800728.376166
-6032.385000	-588.105000	16855.110000	34714.755000	25306.830000	15.480000	-25737.390000	-15498.225000	-0.188003	-1.391356	-2.291371	-2.635249	-7.686675	1.658958	0.112120	0.007613	-6.851740	2.212700	1.251320	-0.727659	-0.192016	0.647887	-1.000000	-1.000000	-1.000000	-1.000000	-1.000000	-1.000000	-1.000000	52.000000	0.000000	-1.000000	-1.000000	460038.000000	1775800728.376523
-6027.030000	-586.845000	16854.480000	34715.160000	25306.245000	10.080000	-25738.155000	-15494.895000	-0.275303	-2.293987	-2.882787	-2.801007	-4.511950	3.558853	0.699601	0.370426	-6.851740	2.212700	1.251320	-0.727659	-0.192016	0.647887	-1.000000	-1.000000	-1.000000	-1.000000	-1.000000	-1.000000	-1.000000	52.000000	0.000000	-1.000000	-1.000000	460039.000000	1775800728.376545
-6028.425000	-592.875000	16847.190000	34709.445000	25301.385000	-4.365000	-25738.560000	-15492.375000	-0.128699	-2.563194	-2.714137	-1.943886	0.840765	5.087724	1.547185	1.060411	1.297100	2.701020	1.480220	-0.730711	-0.200988	0.647948	-1.000000	-1.000000	-1.000000	-1.000000	-1.000000	-1.000000	-1.000000	52.000000	0.000000	-1.000000	-1.000000	460040.000000	1775800728.380377
-6021.990000	-591.165000	16845.570000	34705.620000	25299.180000	-13.230000	-25738.065000	-15483.105000	0.416896	-1.999268	-1.930887	-0.519576	5.749123	3.831878	1.793605	1.837258	1.297100	2.701020	1.480220	-0.730711	-0.200988	0.647948	-1.000000	-1.000000	-1.000000	-1.000000	-1.000000	-1.000000	-1.000000	52.000000	0.000000	-1.000000	-1.000000	460041.000000	1775800728.380400
-6021.045000	-593.055000	16840.800000	34699.860000	25308.135000	8.325000	-25726.095000	-15479.550000	1.153124	-0.743566	-0.849258	0.580681	8.108031	-0.024225	1.296723	2.402568	1.297100	2.701020	1.480220	-0.730711	-0.200988	0.647948	-1.000000	-1.000000	-1.000000	-1.000000	-1.000000	-1.000000	-1.000000	52.000000	0.000000	-1.000000	-1.000000	460042.000000	1775800728.391236
-6026.085000	-594.585000	16841.115000	34700.400000	25303.590000	8.190000	-25730.820000	-15485.580000	1.511552	0.825369	0.403941	1.070371	7.817856	-2.807407	0.710787	2.191003	1.297100	2.701020	1.480220	-0.730711	-0.200988	0.647948	-1.000000	-1.000000	-1.000000	-1.000000	-1.000000	-1.000000	-1.000000	52.000000	0.000000	-1.000000	-1.000000	460043.000000	1775800728.391263
-6019.290000	-583.470000	16856.055000	34720.605000	25316.235000	12.060000	-25727.490000	-15480.405000	0.953509	2.316087	2.052595	1.765924	5.829607	-2.167918	0.185620	0.589610	1.297100	2.701020	1.480220	-0.730711	-0.200988	0.647948	-1.000000	-1.000000	-1.000000	-1.000000	-1.000000	-1.000000	-1.000000	52.000000	0.000000	-1.000000	-1.000000	460044.000000	1775800728.393467
-6023.520000	-587.880000	16851.285000	34716.780000	25318.440000	19.080000	-25724.250000	-15482.880000	-0.239534	3.542481	4.233270	3.624416	3.267436	0.483002	-0.590506	-1.927534	1.297100	2.701020	1.480220	-0.730711	-0.200988	0.647948	-1.000000	-1.000000	-1.000000	-1.000000	-1.000000	-1.000000	-1.000000	52.000000	0.000000	-1.000000	-1.000000	460045.000000	1775800728.393491
-6030.765000	-592.245000	16846.830000	34710.435000	25323.030000	24.390000	-25726.185000	-15491.970000	-1.481218	3.869253	5.730601	5.503230	0.921328	2.675604	-1.479755	-4.157315	1.297100	2.701020	1.480220	-0.730711	-0.200988	0.647948	-1.000000	-1.000000	-1.000000	-1.000000	-1.000000	-1.000000	-1.000000	52.000000	0.000000	-1.000000	-1.000000	460046.000000	1775800728.393519
-6027.615000	-587.115000	16852.185000	34714.080000	25333.470000	21.870000	-25729.605000	-15494.805000	-2.511097	2.576313	4.866245	4.960628	-0.990220	2.977565	-2.250285	-5.423611	1.297100	2.701020	1.480220	-0.730711	-0.200988	0.647948	-1.000000	-1.000000	-1.000000	-1.000000	-1.000000	-1.000000	-1.000000	52.000000	0.000000	-1.000000	-1.000000	460047.000000	1775800728.393532
-6028.740000	-587.385000	16852.770000	34715.835000	25335.270000	6.930000	-25737.390000	-15498.810000	-2.781950	0.291260	1.925899	1.734659	-2.341114	0.806529	-2.970363	-5.369862	1.297100	2.701020	1.480220	-0.730711	-0.200988	0.647948	-1.000000	-1.000000	-1.000000	-1.000000	-1.000000	-1.000000	-1.000000	52.000000	0.000000	-1.000000	-1.000000	460048.000000	1775800728.396330
-6031.845000	-589.905000	16851.015000	34716.060000	25331.715000	-1.890000	-25738.110000	-15496.020000	-1.833725	-1.658192	-1.309379	-2.052263	-3.310380	-3.507214	-3.530931	-3.620070	1.297100	2.701020	1.480220	-0.730711	-0.200988	0.647948	-1.000000	-1.000000	-1.000000	-1.000000	-1.000000	-1.000000	-1.000000	52.000000	0.000000	-1.000000	-1.000000	460049.000000	1775800728.396347
-6023.295000	-582.255000	16857.540000	34719.165000	25328.160000	2.160000	-25730.505000	-15485.490000	0.011156	-2.547490	-3.433739	-4.388681	-4.478216	-7.822049	-3.143305	-0.126054	5.768280	2.380560	2.441600	-0.733274	-0.201538	0.646300	-1.000000	-1.000000	-1.000000	-1.000000	-1.000000	-1.000000	-1.000000	52.000000	0.000000	-1.000000	-1.000000	460050.000000	1775800728.401623
-6026.040000	-585.045000	16854.705000	34714.530000	25317.450000	12.105000	-25730.415000	-15488.730000	2.098470	-2.217073	-3.881931	-4.683995	-5.958635	-8.710000	-0.985350	4.266358	5.768280	2.380560	2.441600	-0.733274	-0.201538	0.646300	-1.000000	-1.000000	-1.000000	-1.000000	-1.000000	-1.000000	-1.000000	52.000000	0.000000	-1.000000	-1.000000	460051.000000	1775800728.401640
-6028.290000	-585.405000	16853.760000	34710.165000	25314.345000	18.720000	-25731.900000	-15491.835000	3.507484	-1.154372	-3.038606	-3.691695	-7.033889	-4.414844	2.282048	7.413354	5.768280	2.380560	2.441600	-0.733274	-0.201538	0.646300	-1.000000	-1.000000	-1.000000	-1.000000	-1.000000	-1.000000	-1.000000	52.000000	0.000000	-1.000000	-1.000000	460052.000000	1775800728.406683
-6032.565000	-587.700000	16849.215000	34703.955000	25315.335000	20.520000	-25730.730000	-15495.615000	3.245548	-0.316872	-1.945940	-2.588102	-6.457169	2.970541	4.714082	7.223792	5.768280	2.380560	2.441600	-0.733274	-0.201538	0.646300	-1.000000	-1.000000	-1.000000	-1.000000	-1.000000	-1.000000	-1.000000	52.000000	0.000000	-1.000000	-1.000000	460053.000000	1775800728.406702
-6035.580000	-587.025000	16853.535000	34710.570000	25318.980000	15.480000	-25738.785000	-15501.825000	1.270096	-0.169131	-1.211692	-1.704096	-3.290765	8.869592	4.866962	3.661745	5.768280	2.380560	2.441600	-0.733274	-0.201538	0.646300	-1.000000	-1.000000	-1.000000	-1.000000	-1.000000	-1.000000	-1.000000	52.000000	0.000000	-1.000000	-1.000000	460054.000000	1775800728.413548
-6032.250000	-585.270000	16855.470000	34712.955000	25319.520000	10.260000	-25742.430000	-15501.240000	-1.184722	-0.343501	-0.505976	-0.326017	1.888070	9.700913	2.654259	-1.214897	5.768280	2.380560	2.441600	-0.733274	-0.201538	0.646300	-1.000000	-1.000000	-1.000000	-1.000000	-1.000000	-1.000000	-1.000000	52.000000	0.000000	-1.000000	-1.000000	460055.000000	1775800728.413567
-6028.380000	-587.655000	16851.780000	34713.000000	25324.020000	3.285000	-25738.335000	-15494.130000	-2.421632	-0.283944	0.533639	1.887651	6.948080	5.293144	-0.585939	-4.585790	5.768280	2.380560	2.441600	-0.733274	-0.201538	0.646300	-1.000000	-1.000000	-1.000000	-1.000000	-1.000000	-1.000000	-1.000000	52.000000	0.000000	-1.000000	-1.000000	460056.000000	1775800728.413585
-6023.520000	-585.720000	16853.535000	34717.455000	25327.350000	-9.405000	-25736.760000	-15487.515000	-1.588996	0.099603	1.486940	4.017106	9.708300	-1.577000	-2.692360	-4.516136	5.768280	2.380560	2.441600	-0.733274	-0.201538	0.646300	-1.000000	-1.000000	-1.000000	-1.000000	-1.000000	-1.000000	-1.000000	52.000000	0.000000	-1.000000	-1.000000	460057.000000	1775800728.413591
-6024.420000	-585.765000	16853.445000	34714.305000	25314.255000	-15.930000	-25739.145000	-15489.630000	0.556531	0.573303	1.820003	4.819053	8.971249	-7.407395	-2.520416	-1.479564	5.768280	2.380560	2.441600	-0.733274	-0.201538	0.646300	-1.000000	-1.000000	-1.000000	-1.000000	-1.000000	-1.000000	-1.000000	52.000000	0.000000	-1.000000	-1.000000	460058.000000	1775800728.419582
-6036.165000	-594.945000	16846.785000	34708.140000	25316.100000	22.905000	-25733.745000	-15501.780000	2.047056	0.759159	1.424830	3.610835	4.768431	-8.853369	-0.786671	1.671288	5.768280	2.380560	2.441600	-0.733274	-0.201538	0.646300	-1.000000	-1.000000	-1.000000	-1.000000	-1.000000	-1.000000	-1.000000	52.000000	0.000000	-1.000000	-1.000000	460059.000000	1775800728.419602
-6028.920000	-587.700000	16855.155000	34718.895000	25325.460000	29.295000	-25729.470000	-15496.020000	1.419810	0.357087	0.534752	0.851131	-0.813411	-3.716107	1.220989	2.274436	2.914660	2.319520	3.448760	-0.734251	-0.195434	0.643370	-1.000000	-1.000000	-1.000000	-1.000000	-1.000000	-1.000000	-1.000000	52.000000	0.000000	-1.000000	-1.000000	460060.000000	1775800728.424492
-6025.320000	-583.245000	16859.025000	34721.730000	25326.135000	23.625000	-25728.255000	-15491.655000	-0.474615	-0.059779	-0.038468	-1.605427	-4.465195	5.371071	2.613935	0.649765	2.914660	2.319520	3.448760	-0.734251	-0.195434	0.643370	-1.000000	-1.000000	-1.000000	-1.000000	-1.000000	-1.000000	-1.000000	52.000000	0.000000	-1.000000	-1.000000	460061.000000	1775800728.424519
-6024.735000	-583.155000	16857.405000	34715.835000	25323.435000	19.620000	-25730.280000	-15491.745000	-1.569112	0.365861	0.310136	-2.368778	-4.812114	11.320493	2.726308	-0.872422	2.914660	2.319520	3.448760	-0.734251	-0.195434	0.643370	-1.000000	-1.000000	-1.000000	-1.000000	-1.000000	-1.000000	-1.000000	52.000000	0.000000	-1.000000	-1.000000	460062.000000	1775800728.425100
-6030.630000	-589.770000	16850.205000	34708.680000	25302.960000	8.055000	-25736.265000	-15497.730000	-1.290888	1.176590	0.802491	-2.178160	-3.601054	9.377131	1.194405	-1.173141	2.914660	2.319520	3.448760	-0.734251	-0.195434	0.643370	-1.000000	-1.000000	-1.000000	-1.000000	-1.000000	-1.000000	-1.000000	52.000000	0.000000	-1.000000	-1.000000	460063.000000	1775800728.425119
-6032.970000	-591.705000	16850.430000	34711.920000	25298.955000	4.905000	-25735.995000	-15498.045000	-0.727405	1.058963	0.243497	-2.275918	-3.323206	1.061224	-1.492623	-0.940620	2.914660	2.319520	3.448760	-0.734251	-0.195434	0.643370	-1.000000	-1.000000	-1.000000	-1.000000	-1.000000	-1.000000	-1.000000	52.000000	0.000000	-1.000000	-1.000000	460064.000000	1775800728.429956
-6026.355000	-585.405000	16857.180000	34720.830000	25321.590000	5.850000	-25733.880000	-15492.690000	-0.587577	-0.162975	-1.082453	-2.256715	-3.679280	-7.928895	-3.818988	-0.753238	2.914660	2.319520	3.448760	-0.734251	-0.195434	0.643370	-1.000000	-1.000000	-1.000000	-1.000000	-1.000000	-1.000000	-1.000000	52.000000	0.000000	-1.000000	-1.000000	460065.000000	1775800728.429978
-6031.665000	-592.875000	16848.720000	34710.705000	25329.285000	9.810000	-25735.545000	-15494.895000	-0.441914	-1.325984	-1.836152	-1.132648	-1.731750	-12.054380	-4.273345	-0.323350	2.914660	2.319520	3.448760	-0.734251	-0.195434	0.643370	-1.000000	-1.000000	-1.000000	-1.000000	-1.000000	-1.000000	-1.000000	52.000000	0.000000	-1.000000	-1.000000	460066.000000	1775800728.432278
-6031.980000	-591.615000	16848.720000	34707.015000	25322.895000	14.085000	-25732.980000	-15493.545000	-0.009713	-1.675410	-1.630961	0.442917	3.102621	-9.427247	-2.673444	0.437289	2.914660	2.319520	3.448760	-0.734251	-0.195434	0.643370	-1.000000	-1.000000	-1.000000	-1.000000	-1.000000	-1.000000	-1.000000	52.000000	0.000000	-1.000000	-1.000000	460067.000000	1775800728.432298
-6036.480000	-593.595000	16848.945000	34709.220000	25314.705000	17.640000	-25735.410000	-15499.035000	0.302103	-1.352852	-1.003778	1.125290	7.032716	-2.327689	-0.109049	0.959533	2.914660	2.319520	3.448760	-0.734251	-0.195434	0.643370	-1.000000	-1.000000	-1.000000	-1.000000	-1.000000	-1.000000	-1.000000	52.000000	0.000000	-1.000000	-1.000000	460068.000000	1775800728.441228
-6035.040000	-590.895000	16853.130000	34716.465000	25320.780000	13.275000	-25739.190000	-15500.340000	0.243028	-0.582805	-0.127856	1.099593	6.561056	4.847737	1.943913	0.696928	2.914660	2.319520	3.448760	-0.734251	-0.195434	0.643370	-1.000000	-1.000000	-1.000000	-1.000000	-1.000000	-1.000000	-1.000000	52.000000	0.000000	-1.000000	-1.000000	460069.000000	1775800728.441256
-6034.545000	-592.020000	16851.555000	34716.195000	25322.805000	10.350000	-25738.605000	-15499.485000	0.127277	0.451744	1.019522	1.427664	2.515179	8.310791	2.530374	-0.178339	-2.517900	2.411080	4.349100	-0.732847	-0.189392	0.641905	-1.000000	-1.000000	-1.000000	-1.000000	-1.000000	-1.000000	-1.000000	52.000000	0.000000	-1.000000	-1.000000	460070.000000	1775800728.441284
-6029.955000	-588.465000	16852.320000	34713.855000	25322.355000	16.290000	-25731.180000	-15492.690000	0.443326	1.424389	1.983905	2.088647	-1.769795	7.113005	1.997189	-0.716620	-2.517900	2.411080	4.349100	-0.732847	-0.189392	0.641905	-1.000000	-1.000000	-1.000000	-1.000000	-1.000000	-1.000000	-1.000000	52.000000	0.000000	-1.000000	-1.000000	460071.000000	1775800728.441297
-6028.290000	-586.530000	16855.740000	34718.715000	25319.835000	11.295000	-25731.540000	-15490.890000	1.278687	2.029170	2.220181	2.152746	-4.133225	3.234866	1.483285	-0.108783	-2.517900	2.411080	4.349100	-0.732847	-0.189392	0.641905	-1.000000	-1.000000	-1.000000	-1.000000	-1.000000	-1.000000	-1.000000	52.000000	0.000000	-1.000000	-1.000000	460072.000000	1775800728.445930
-6033.330000	-591.570000	16851.150000	34715.250000	25323.795000	7.245000	-25735.185000	-15495.705000	1.992101	1.987920	1.640353	1.256637	-4.362561	-0.818637	1.311416	1.179567	-2.517900	2.411080	4.349100	-0.732847	-0.189392	0.641905	-1.000000	-1.000000	-1.000000	-1.000000	-1.000000	-1.000000	-1.000000	52.000000	0.000000	-1.000000	-1.000000	460073.000000	1775800728.445951
-6038.820000	-596.025000	16846.245000	34706.610000	25315.830000	6.885000	-25739.370000	-15502.005000	1.552552	0.938854	0.319578	-0.385582	-3.181177	-3.644333	0.717893	1.618643	-2.517900	2.411080	4.349100	-0.732847	-0.189392	0.641905	-1.000000	-1.000000	-1.000000	-1.000000	-1.000000	-1.000000	-1.000000	52.000000	0.000000	-1.000000	-1.000000	460074.000000	1775800728.450975
-6040.755000	-595.665000	16847.235000	34706.025000	25303.410000	-5.310000	-25751.115000	-15506.820000	-0.313449	-0.960518	-1.449421	-2.431501	-1.878751	-4.786753	-0.903382	0.285374	-2.517900	2.411080	4.349100	-0.732847	-0.189392	0.641905	-1.000000	-1.000000	-1.000000	-1.000000	-1.000000	-1.000000	-1.000000	52.000000	0.000000	-1.000000	-1.000000	460075.000000	1775800728.450995
-6037.380000	-587.205000	16858.890000	34721.820000	25323.345000	0.360000	-25748.550000	-15505.065000	-2.410266	-2.446021	-2.523296	-3.646959	-1.143774	-4.388614	-3.062866	-1.953650	-2.517900	2.411080	4.349100	-0.732847	-0.189392	0.641905	-1.000000	-1.000000	-1.000000	-1.000000	-1.000000	-1.000000	-1.000000	52.000000	0.000000	-1.000000	-1.000000	460076.000000	1775800728.452222
-6033.015000	-579.780000	16866.360000	34730.910000	25342.245000	10.710000	-25738.605000	-15498.990000	-2.986120	-2.016528	-1.547424	-2.263850	0.472147	-2.394296	-4.003093	-3.083711	-2.517900	2.411080	4.349100	-0.732847	-0.189392	0.641905	-1.000000	-1.000000	-1.000000	-1.000000	-1.000000	-1.000000	-1.000000	52.000000	0.000000	-1.000000	-1.000000	460077.000000	1775800728.452230
-6043.230000	-592.605000	16852.950000	34720.290000	25344.045000	18.315000	-25737.390000	-15504.705000	-1.626551	0.088135	0.943464	1.317967	4.179476	1.338601	-2.146316	-1.949999	-2.517900	2.411080	4.349100	-0.732847	-0.189392	0.641905	-1.000000	-1.000000	-1.000000	-1.000000	-1.000000	-1.000000	-1.000000	52.000000	0.000000	-1.000000	-1.000000	460078.000000	1775800728.456306
-6042.330000	-595.665000	16847.685000	34714.260000	25329.015000	24.210000	-25731.495000	-15502.905000	0.212162	1.553804	2.247977	3.804242	7.445598	5.591111	1.782199	0.485867	-2.517900	2.411080	4.349100	-0.732847	-0.189392	0.641905	-1.000000	-1.000000	-1.000000	-1.000000	-1.000000	-1.000000	-1.000000	52.000000	0.000000	-1.000000	-1.000000	460079.000000	1775800728.456328
-6039.270000	-596.025000	16842.780000	34703.730000	25314.615000	12.960000	-25736.670000	-15501.690000	1.197440	0.802070	0.655450	2.536274	6.041397	7.724081	5.119069	2.445205	-5.630940	2.487380	4.745860	-0.730528	-0.188049	0.641295	-1.000000	-1.000000	-1.000000	-1.000000	-1.000000	-1.000000	-1.000000	52.000000	0.000000	-1.000000	-1.000000	460080.000000	1775800728.462402
-6034.230000	-587.970000	16853.220000	34714.620000	25323.165000	13.680000	-25734.645000	-15498.405000	1.559155	-0.964419	-2.241119	-1.388754	-0.420502	5.688136	5.589228	3.130021	-5.630940	2.487380	4.745860	-0.730528	-0.188049	0.641295	-1.000000	-1.000000	-1.000000	-1.000000	-1.000000	-1.000000	-1.000000	52.000000	0.000000	-1.000000	-1.000000	460081.000000	1775800728.462423
-6030.000000	-582.390000	16859.385000	34722.630000	25327.845000	21.735000	-25728.435000	-15493.500000	2.011302	-1.430116	-3.268326	-4.119594	-7.099037	0.453590	3.155892	2.793151	-5.630940	2.487380	4.745860	-0.730528	-0.188049	0.641295	-1.000000	-1.000000	-1.000000	-1.000000	-1.000000	-1.000000	-1.000000	52.000000	0.000000	-1.000000	-1.000000	460082.000000	1775800728.466253
-6040.395000	-591.480000	16852.410000	34716.735000	25321.185000	17.415000	-25736.220000	-15503.445000	2.294694	-0.067630	-1.284666	-3.153675	-9.076640	-4.493149	-0.349152	1.761689	-5.630940	2.487380	4.745860	-0.730528	-0.188049	0.641295	-1.000000	-1.000000	-1.000000	-1.000000	-1.000000	-1.000000	-1.000000	52.000000	0.000000	-1.000000	-1.000000	460083.000000	1775800728.466276
-6039.720000	-589.995000	16855.470000	34720.065000	25325.595000	15.165000	-25738.605000	-15504.840000	1.381336	1.379153	1.688216	0.152635	-6.005526	-6.700851	-3.358694	-0.094231	-5.630940	2.487380	4.745860	-0.730528	-0.188049	0.641295	-1.000000	-1.000000	-1.000000	-1.000000	-1.000000	-1.000000	-1.000000	52.000000	0.000000	-1.000000	-1.000000	460084.000000	1775800728.468295
-6043.230000	-594.990000	16849.620000	34713.180000	25321.185000	4.995000	-25744.545000	-15508.440000	-0.832925	1.314081	3.116346	2.760518	-0.820127	-6.367401	-5.264750	-2.504067	-5.630940	2.487380	4.745860	-0.730528	-0.188049	0.641295	-1.000000	-1.000000	-1.000000	-1.000000	-1.000000	-1.000000	-1.000000	52.000000	0.000000	-1.000000	-1.000000	460085.000000	1775800728.468312
-6037.380000	-588.645000	16854.795000	34715.475000	25326.450000	16.830000	-25737.210000	-15500.250000	-2.905745	0.043844	2.370704	3.024542	3.530746	-4.581370	-5.535667	-4.103801	-5.630940	2.487380	4.745860	-0.730528	-0.188049	0.641295	-1.000000	-1.000000	-1.000000	-1.000000	-1.000000	-1.000000	-1.000000	52.000000	0.000000	-1.000000	-1.000000	460086.000000	1775800728.472315
-6036.345000	-588.915000	16853.895000	34715.745000	25329.600000	23.535000	-25731.855000	-15498.405000	-3.246820	-0.990060	0.584375	1.447348	5.668103	-1.552662	-3.565795	-3.484247	-5.630940	2.487380	4.745860	-0.730528	-0.188049	0.641295	-1.000000	-1.000000	-1.000000	-1.000000	-1.000000	-1.000000	-1.000000	52.000000	0.000000	-1.000000	-1.000000	460087.000000	1775800728.472333
-6034.455000	-589.005000	16853.085000	34715.655000	25326.405000	18.450000	-25733.565000	-15496.650000	-1.621143	-0.912935	-0.848561	-0.365179	5.603072	2.375381	0.223028	-0.787189	-5.630940	2.487380	4.745860	-0.730528	-0.188049	0.641295	-1.000000	-1.000000	-1.000000	-1.000000	-1.000000	-1.000000	-1.000000	52.000000	0.000000	-1.000000	-1.000000	460088.000000	1775800728.476962
-6038.010000	-591.345000	16850.655000	34712.325000	25320.780000	10.800000	-25737.975000	-15499.530000	0.670398	-0.160945	-1.465070	-1.348182	3.662679	5.178865	3.741952	2.144188	-5.630940	2.487380	4.745860	-0.730528	-0.188049	0.641295	-1.000000	-1.000000	-1.000000	-1.000000	-1.000000	-1.000000	-1.000000	52.000000	0.000000	-1.000000	-1.000000	460089.000000	1775800728.476984
-6034.005000	-585.405000	16855.605000	34713.045000	25316.280000	4.185000	-25737.435000	-15496.965000	2.060675	0.467652	-1.417443	-1.469871	0.365038	4.775842	4.848194	3.426356	-2.639980	2.426340	3.479280	-0.729429	-0.189636	0.643553	-1.000000	-1.000000	-1.000000	-1.000000	-1.000000	-1.000000	-1.000000	52.000000	0.000000	-1.000000	-1.000000	460090.000000	1775800728.480273
-6028.695000	-578.655000	16858.890000	34708.770000	25307.100000	-6.660000	-25733.160000	-15491.070000	2.162009	0.925109	-0.721159	-1.110785	-3.158440	1.363858	3.443129	2.784025	-2.639980	2.426340	3.479280	-0.729429	-0.189636	0.643553	-1.000000	-1.000000	-1.000000	-1.000000	-1.000000	-1.000000	-1.000000	52.000000	0.000000	-1.000000	-1.000000	460091.000000	1775800728.480301
-6028.245000	-576.090000	16867.890000	34725.960000	25316.505000	-7.155000	-25738.245000	-15494.355000	1.633814	1.523551	0.632553	-0.322124	-5.301576	-2.761086	1.091413	1.261507	-2.639980	2.426340	3.479280	-0.729429	-0.189636	0.643553	-1.000000	-1.000000	-1.000000	-1.000000	-1.000000	-1.000000	-1.000000	52.000000	0.000000	-1.000000	-1.000000	460092.000000	1775800728.486214
-6029.775000	-576.270000	16872.120000	34736.175000	25330.455000	7.245000	-25737.930000	-15496.920000	0.888943	1.921806	2.242397	1.423835	-4.374419	-4.581799	-0.904784	-0.354300	-2.639980	2.426340	3.479280	-0.729429	-0.189636	0.643553	-1.000000	-1.000000	-1.000000	-1.000000	-1.000000	-1.000000	-1.000000	52.000000	0.000000	-1.000000	-1.000000	460093.000000	1775800728.486228
-6030.000000	-581.940000	16863.435000	34725.510000	25329.060000	18.720000	-25735.995000	-15495.030000	-0.187660	1.249220	3.016865	3.680657	-0.163476	-2.107054	-2.017652	-1.821425	-2.639980	2.426340	3.479280	-0.729429	-0.189636	0.643553	-1.000000	-1.000000	-1.000000	-1.000000	-1.000000	-1.000000	-1.000000	52.000000	0.000000	-1.000000	-1.000000	460094.000000	1775800728.488261
-6021.810000	-584.865000	16848.945000	34700.400000	25309.755000	12.690000	-25728.255000	-15483.915000	-1.317780	-0.825349	1.482569	3.717407	4.305724	3.377247	-1.880610	-2.477667	-2.639980	2.426340	3.479280	-0.729429	-0.189636	0.643553	-1.000000	-1.000000	-1.000000	-1.000000	-1.000000	-1.000000	-1.000000	52.000000	0.000000	-1.000000	-1.000000	460095.000000	1775800728.488276
-6028.290000	-592.695000	16843.185000	34697.835000	25317.720000	20.970000	-25725.645000	-15487.650000	-1.814000	-3.508562	-2.564058	-0.512008	5.142576	7.698787	-0.455944	-1.630380	-2.639980	2.426340	3.479280	-0.729429	-0.189636	0.643553	-1.000000	-1.000000	-1.000000	-1.000000	-1.000000	-1.000000	-1.000000	52.000000	0.000000	-1.000000	-1.000000	460096.000000	1775800728.506023
-6035.265000	-593.865000	16848.225000	34709.535000	25329.555000	15.075000	-25735.095000	-15496.830000	-1.797190	-5.361881	-6.668338	-6.312582	2.433828	7.682199	1.202771	-0.123131	-2.639980	2.426340	3.479280	-0.729429	-0.189636	0.643553	-1.000000	-1.000000	-1.000000	-1.000000	-1.000000	-1.000000	-1.000000	52.000000	0.000000	-1.000000	-1.000000	460097.000000	1775800728.506055
-6032.520000	-588.015000	16855.335000	34719.750000	25348.365000	27.045000	-25733.475000	-15496.605000	-1.935577	-5.043647	-7.261861	-8.125055	0.024857	3.650128	1.456781	0.284797	-2.639980	2.426340	3.479280	-0.729429	-0.189636	0.643553	-1.000000	-1.000000	-1.000000	-1.000000	-1.000000	-1.000000	-1.000000	52.000000	0.000000	-1.000000	-1.000000	460098.000000	1775800728.506082
-6032.070000	-587.295000	16855.515000	34719.165000	25346.340000	32.220000	-25730.550000	-15495.300000	-1.949135	-2.084592	-3.154153	-3.757045	0.369655	-1.460952	0.086950	-0.608764	-2.639980	2.426340	3.479280	-0.729429	-0.189636	0.643553	-1.000000	-1.000000	-1.000000	-1.000000	-1.000000	-1.000000	-1.000000	52.000000	0.000000	-1.000000	-1.000000	460099.000000	1775800728.506094
-6034.590000	-589.770000	16852.995000	34714.845000	25336.755000	23.220000	-25732.575000	-15495.570000	-1.105372	2.227812	3.043926	3.272455	1.676258	-4.961139	-1.442172	-1.352906	1.388660	2.472120	3.052000	-0.730467	-0.189147	0.646178	-1.000000	-1.000000	-1.000000	-1.000000	-1.000000	-1.000000	-1.000000	52.000000	0.000000	-1.000000	-1.000000	460100.000000	1775800728.506106
-6030.765000	-583.110000	16860.645000	34721.370000	25323.705000	20.295000	-25731.810000	-15492.960000	0.487025	5.567157	7.452382	7.794170	0.477478	-6.525314	-1.949442	-0.878627	1.388660	2.472120	3.052000	-0.730467	-0.189147	0.646178	-1.000000	-1.000000	-1.000000	-1.000000	-1.000000	-1.000000	-1.000000	52.000000	0.000000	-1.000000	-1.000000	460101.000000	1775800728.506116
-6028.830000	-579.015000	16867.395000	34731.180000	25334.100000	19.035000	-25732.665000	-15493.140000	2.176449	6.628491	8.336290	7.885193	-3.697692	-6.875811	-1.413945	0.606940	1.388660	2.472120	3.052000	-0.730467	-0.189147	0.646178	-1.000000	-1.000000	-1.000000	-1.000000	-1.000000	-1.000000	-1.000000	52.000000	0.000000	-1.000000	-1.000000	460102.000000	1775800728.506126
-6032.880000	-583.110000	16863.300000	34726.230000	25340.085000	19.845000	-25735.590000	-15497.415000	3.253138	5.484622	6.291353	4.978328	-7.249645	-5.943427	-0.442450	2.030605	1.388660	2.472120	3.052000	-0.730467	-0.189147	0.646178	-1.000000	-1.000000	-1.000000	-1.000000	-1.000000	-1.000000	-1.000000	52.000000	0.000000	-1.000000	-1.000000	460103.000000	1775800728.506136
-6036.075000	-587.700000	16856.685000	34715.070000	25331.445000	19.305000	-25736.670000	-15498.540000	2.985669	2.530080	2.295412	0.688544	-6.839741	-3.441235	0.293869	2.304553	1.388660	2.472120	3.052000	-0.730467	-0.189147	0.646178	-1.000000	-1.000000	-1.000000	-1.000000	-1.000000	-1.000000	-1.000000	52.000000	0.000000	-1.000000	-1.000000	460104.000000	1775800728.508382
-6040.395000	-592.155000	16851.870000	34710.705000	25324.020000	16.920000	-25737.795000	-15501.150000	1.218850	-1.508365	-2.680911	-4.131234	-3.285226	0.033255	0.535303	1.260677	1.388660	2.472120	3.052000	-0.730467	-0.189147	0.646178	-1.000000	-1.000000	-1.000000	-1.000000	-1.000000	-1.000000	-1.000000	52.000000	0.000000	-1.000000	-1.000000	460105.000000	1775800728.508414
-6037.065000	-588.330000	16856.055000	34715.475000	25326.495000	22.680000	-25734.060000	-15498.090000	-1.088961	-5.029596	-6.825256	-7.844433	0.394132	3.250695	0.578577	-0.222212	1.388660	2.472120	3.052000	-0.730467	-0.189147	0.646178	-1.000000	-1.000000	-1.000000	-1.000000	-1.000000	-1.000000	-1.000000	52.000000	0.000000	-1.000000	-1.000000	460106.000000	1775800728.522905
-6033.915000	-587.115000	16854.390000	34713.225000	25320.735000	19.530000	-25734.240000	-15495.345000	-2.365882	-6.178347	-8.040709	-8.285369	2.620410	5.263365	0.858595	-0.976670	1.388660	2.472120	3.052000	-0.730467	-0.189147	0.646178	-1.000000	-1.000000	-1.000000	-1.000000	-1.000000	-1.000000	-1.000000	52.000000	0.000000	-1.000000	-1.000000	460107.000000	1775800728.522930
-6034.320000	-586.845000	16856.100000	34717.320000	25324.110000	7.560000	-25735.095000	-15493.905000	-1.778257	-4.387212	-5.760941	-4.991489	3.519419	5.358359	1.323986	-0.500039	1.388660	2.472120	3.052000	-0.730467	-0.189147	0.646178	-1.000000	-1.000000	-1.000000	-1.000000	-1.000000	-1.000000	-1.000000	52.000000	0.000000	-1.000000	-1.000000	460108.000000	1775800728.522953
-6037.695000	-591.345000	16853.130000	34715.340000	25329.690000	0.585000	-25736.265000	-15496.425000	-0.108189	-1.037940	-1.508035	0.195060	3.813735	3.065577	1.432850	0.579970	1.388660	2.472120	3.052000	-0.730467	-0.189147	0.646178	-1.000000	-1.000000	-1.000000	-1.000000	-1.000000	-1.000000	-1.000000	52.000000	0.000000	-1.000000	-1.000000	460109.000000	1775800728.522965
-6036.570000	-591.435000	16851.690000	34713.585000	25331.580000	2.205000	-25737.255000	-15496.290000	1.130040	1.739169	2.374619	4.563422	4.105272	-0.606600	0.844388	1.131322	2.762060	3.525060	1.861720	-0.733458	-0.184509	0.647948	-1.000000	-1.000000	-1.000000	-1.000000	-1.000000	-1.000000	-1.000000	52.000000	0.000000	-1.000000	-1.000000	460110.000000	1775800728.522978
-6034.995000	-586.440000	16857.585000	34720.785000	25327.350000	5.670000	-25736.040000	-15496.065000	1.278889	2.905091	4.408270	6.357052	4.078981	-3.117032	-0.161498	0.670457	2.762060	3.525060	1.861720	-0.733458	-0.184509	0.647948	-1.000000	-1.000000	-1.000000	-1.000000	-1.000000	-1.000000	-1.000000	52.000000	0.000000	-1.000000	-1.000000	460111.000000	1775800728.522989
-6031.620000	-580.815000	16865.325000	34726.005000	25316.550000	-6.300000	-25742.295000	-15496.605000	0.823582	2.995642	4.784491	5.792969	2.641120	-2.889239	-1.061020	-0.344110	2.762060	3.525060	1.861720	-0.733458	-0.184509	0.647948	-1.000000	-1.000000	-1.000000	-1.000000	-1.000000	-1.000000	-1.000000	52.000000	0.000000	-1.000000	-1.000000	460112.000000	1775800728.526874
-6039.675000	-592.695000	16850.430000	34707.690000	25308.945000	-16.155000	-25752.240000	-15506.145000	0.292417	2.613116	4.108328	3.739695	-0.686787	-1.113385	-1.799654	-1.357159	2.762060	3.525060	1.861720	-0.733458	-0.184509	0.647948	-1.000000	-1.000000	-1.000000	-1.000000	-1.000000	-1.000000	-1.000000	52.000000	0.000000	-1.000000	-1.000000	460113.000000	1775800728.526902
-6050.565000	-601.110000	16846.065000	34711.200000	25332.660000	-1.755000	-25749.630000	-15516.720000	-0.626254	1.214818	2.006132	0.385632	-4.154176	0.400839	-2.479166	-2.401935	2.762060	3.525060	1.861720	-0.733458	-0.184509	0.647948	-1.000000	-1.000000	-1.000000	-1.000000	-1.000000	-1.000000	-1.000000	52.000000	0.000000	-1.000000	-1.000000	460114.000000	1775800728.529014
-6050.520000	-599.895000	16848.360000	34716.780000	25344.540000	9.135000	-25748.820000	-15521.130000	-2.220954	-1.424260	-1.375919	-3.196209	-4.376837	1.964409	-2.429479	-3.483774	2.762060	3.525060	1.861720	-0.733458	-0.184509	0.647948	-1.000000	-1.000000	-1.000000	-1.000000	-1.000000	-1.000000	-1.000000	52.000000	0.000000	-1.000000	-1.000000	460115.000000	1775800728.529039
-6048.090000	-599.130000	16846.380000	34709.895000	25321.770000	18.315000	-25745.040000	-15519.015000	-3.403636	-3.693358	-4.109633	-4.871030	-0.825345	4.478777	-0.848659	-3.688825	2.762060	3.525060	1.861720	-0.733458	-0.184509	0.647948	-1.000000	-1.000000	-1.000000	-1.000000	-1.000000	-1.000000	-1.000000	52.000000	0.000000	-1.000000	-1.000000	460116.000000	1775800728.534980
-6047.775000	-597.195000	16848.945000	34711.695000	25315.470000	17.010000	-25740.720000	-15514.155000	-2.635279	-3.677175	-4.403558	-4.022493	2.241879	6.751447	1.921778	-1.808300	2.762060	3.525060	1.861720	-0.733458	-0.184509	0.647948	-1.000000	-1.000000	-1.000000	-1.000000	-1.000000	-1.000000	-1.000000	52.000000	0.000000	-1.000000	-1.000000	460117.000000	1775800728.535007
-6043.680000	-595.350000	16850.205000	34712.685000	25317.720000	6.885000	-25743.870000	-15509.565000	0.126295	-1.247563	-2.277499	-1.764990	1.399020	6.156880	4.414536	2.103871	2.762060	3.525060	1.861720	-0.733458	-0.184509	0.647948	-1.000000	-1.000000	-1.000000	-1.000000	-1.000000	-1.000000	-1.000000	52.000000	0.000000	-1.000000	-1.000000	460118.000000	1775800728.546833
-6037.020000	-590.850000	16853.535000	34715.565000	25314.210000	5.085000	-25743.555000	-15506.280000	3.472696	2.083506	0.895288	0.719041	-1.768159	1.504562	5.010428	6.271106	2.762060	3.525060	1.861720	-0.733458	-0.184509	0.647948	-1.000000	-1.000000	-1.000000	-1.000000	-1.000000	-1.000000	-1.000000	52.000000	0.000000	-1.000000	-1.000000	460119.000000	1775800728.546858
-6040.485000	-595.170000	16850.430000	34715.115000	25320.060000	16.830000	-25733.790000	-15504.795000	5.692848	4.424179	3.385332	2.592473	-3.716840	-4.888939	3.404427	8.367057	-1.007160	4.883200	0.793520	-0.733519	-0.178344	0.648375	-1.000000	-1.000000	-1.000000	-1.000000	-1.000000	-1.000000	-1.000000	52.000000	0.000000	-1.000000	-1.000000	460120.000000	1775800728.546885
-6036.570000	-588.510000	16859.295000	34727.760000	25341.570000	23.670000	-25727.760000	-15502.050000	5.532808	4.587590	4.094283	3.462279	-2.347603	-8.634513	1.056033	7.158346	-1.007160	4.883200	0.793520	-0.733519	-0.178344	0.648375	-1.000000	-1.000000	-1.000000	-1.000000	-1.000000	-1.000000	-1.000000	52.000000	0.000000	-1.000000	-1.000000	460121.000000	1775800728.546897
-6036.030000	-587.475000	16858.530000	34723.170000	25338.780000	28.170000	-25726.635000	-15501.420000	3.023282	2.842379	3.185244	3.444647	2.033106	-7.421042	-0.570600	3.242692	-1.007160	4.883200	0.793520	-0.733519	-0.178344	0.648375	-1.000000	-1.000000	-1.000000	-1.000000	-1.000000	-1.000000	-1.000000	52.000000	0.000000	-1.000000	-1.000000	460122.000000	1775800728.546910
-6037.020000	-584.730000	16861.680000	34723.575000	25334.640000	28.755000	-25730.325000	-15503.580000	-0.506758	0.450376	1.473663	2.451042	6.249104	-2.916326	-1.549393	-1.609196	-1.007160	4.883200	0.793520	-0.733519	-0.178344	0.648375	-1.000000	-1.000000	-1.000000	-1.000000	-1.000000	-1.000000	-1.000000	52.000000	0.000000	-1.000000	-1.000000	460123.000000	1775800728.546920
-6038.955000	-585.405000	16862.490000	34724.970000	25330.050000	17.955000	-25736.580000	-15506.865000	-3.581374	-1.569166	-0.394780	0.352460	6.512480	1.171328	-2.800384	-5.653583	-1.007160	4.883200	0.793520	-0.733519	-0.178344	0.648375	-1.000000	-1.000000	-1.000000	-1.000000	-1.000000	-1.000000	-1.000000	52.000000	0.000000	-1.000000	-1.000000	460124.000000	1775800728.552347
-6037.515000	-586.935000	16857.585000	34715.655000	25316.910000	5.895000	-25738.155000	-15505.830000	-5.242755	-2.881485	-2.058732	-2.259983	2.038901	1.958787	-4.518070	-7.724723	-1.007160	4.883200	0.793520	-0.733519	-0.178344	0.648375	-1.000000	-1.000000	-1.000000	-1.000000	-1.000000	-1.000000	-1.000000	52.000000	0.000000	-1.000000	-1.000000	460125.000000	1775800728.552370
-6039.000000	-592.020000	16850.295000	34707.060000	25305.885000	-8.235000	-25741.125000	-15507.720000	-5.089017	-3.591757	-3.489759	-4.631661	-4.704336	-0.796393	-5.685427	-7.301655	-1.007160	4.883200	0.793520	-0.733519	-0.178344	0.648375	-1.000000	-1.000000	-1.000000	-1.000000	-1.000000	-1.000000	-1.000000	52.000000	0.000000	-1.000000	-1.000000	460126.000000	1775800728.558939
-6035.310000	-585.945000	16859.070000	34718.265000	25318.665000	0.180000	-25737.165000	-15505.830000	-3.345845	-3.695138	-4.415186	-5.872533	-9.709748	-4.404720	-5.022635	-4.704771	-1.007160	4.883200	0.793520	-0.733519	-0.178344	0.648375	-1.000000	-1.000000	-1.000000	-1.000000	-1.000000	-1.000000	-1.000000	52.000000	0.000000	-1.000000	-1.000000	460127.000000	1775800728.558965
-6036.390000	-583.290000	16863.345000	34722.180000	25320.420000	7.875000	-25738.515000	-15508.845000	-0.771452	-2.729942	-3.772980	-4.571538	-9.391018	-4.932757	-2.213943	-1.077729	-1.007160	4.883200	0.793520	-0.733519	-0.178344	0.648375	-1.000000	-1.000000	-1.000000	-1.000000	-1.000000	-1.000000	-1.000000	52.000000	0.000000	-1.000000	-1.000000	460128.000000	1775800728.558992
-6042.600000	-586.620000	16862.310000	34722.225000	25331.670000	24.660000	-25740.630000	-15515.145000	1.476379	-0.643581	-1.123976	-0.556576	-3.369886	-0.439395	1.583858	2.008237	-1.007160	4.883200	0.793520	-0.733519	-0.178344	0.648375	-1.000000	-1.000000	-1.000000	-1.000000	-1.000000	-1.000000	-1.000000	52.000000	0.000000	-1.000000	-1.000000	460129.000000	1775800728.559003
-6051.150000	-594.855000	16856.550000	34719.165000	25329.780000	16.740000	-25747.740000	-15522.075000	2.181791	1.331435	1.975230	3.860249	4.806533	6.787466	4.362303	3.249130	-6.256600	5.829320	-0.137340	-0.729612	-0.175903	0.648619	-1.000000	-1.000000	-1.000000	-1.000000	-1.000000	-1.000000	-1.000000	52.000000	0.000000	-1.000000	-1.000000	460130.000000	1775800728.561015
-6046.920000	-594.270000	16855.335000	34719.030000	25329.060000	13.230000	-25746.885000	-15518.025000	1.191995	1.820397	3.364192	5.908272	10.276920	11.525298	4.812282	2.634848	-6.256600	5.829320	-0.137340	-0.729612	-0.175903	0.648619	-1.000000	-1.000000	-1.000000	-1.000000	-1.000000	-1.000000	-1.000000	52.000000	0.000000	-1.000000	-1.000000	460131.000000	1775800728.561042
-6039.720000	-592.920000	16851.015000	34711.020000	25323.120000	26.235000	-25736.760000	-15509.880000	0.070571	1.035415	2.448857	4.673383	10.097047	10.355497	3.563562	1.728536	-6.256600	5.829320	-0.137340	-0.729612	-0.175903	0.648619	-1.000000	-1.000000	-1.000000	-1.000000	-1.000000	-1.000000	-1.000000	52.000000	0.000000	-1.000000	-1.000000	460132.000000	1775800728.564255
-6044.040000	-598.905000	16844.670000	34705.890000	25316.910000	19.935000	-25738.020000	-15511.725000	0.406662	0.239918	0.263041	1.158225	4.798751	4.664411	2.372174	1.996619	-6.256600	5.829320	-0.137340	-0.729612	-0.175903	0.648619	-1.000000	-1.000000	-1.000000	-1.000000	-1.000000	-1.000000	-1.000000	52.000000	0.000000	-1.000000	-1.000000	460133.000000	1775800728.564270
-6038.775000	-592.020000	16854.345000	34717.860000	25329.915000	19.845000	-25738.290000	-15509.205000	1.852997	0.158745	-1.561301	-2.389514	-2.122041	-1.990464	1.866777	3.026435	-6.256600	5.829320	-0.137340	-0.729612	-0.175903	0.648619	-1.000000	-1.000000	-1.000000	-1.000000	-1.000000	-1.000000	-1.000000	52.000000	0.000000	-1.000000	-1.000000	460134.000000	1775800728.570226
-6042.690000	-594.495000	16854.435000	34720.785000	25340.445000	17.640000	-25742.880000	-15513.840000	2.893981	0.804101	-1.559341	-3.454291	-6.198722	-7.016265	1.160645	3.236810	-6.256600	5.829320	-0.137340	-0.729612	-0.175903	0.648619	-1.000000	-1.000000	-1.000000	-1.000000	-1.000000	-1.000000	-1.000000	52.000000	0.000000	-1.000000	-1.000000	460135.000000	1775800728.570252
-6044.355000	-595.395000	16852.725000	34718.355000	25345.845000	21.780000	-25743.645000	-15515.055000	2.483054	1.663830	0.286878	-1.511467	-5.240188	-8.999734	-0.453692	1.717706	-6.256600	5.829320	-0.137340	-0.729612	-0.175903	0.648619	-1.000000	-1.000000	-1.000000	-1.000000	-1.000000	-1.000000	-1.000000	52.000000	0.000000	-1.000000	-1.000000	460136.000000	1775800728.572544
-6042.105000	-593.955000	16851.870000	34713.495000	25340.310000	18.000000	-25742.790000	-15512.220000	0.696941	1.946834	2.269360	1.195025	-1.255582	-7.682238	-2.438470	-0.926641	-6.256600	5.829320	-0.137340	-0.729612	-0.175903	0.648619	-1.000000	-1.000000	-1.000000	-1.000000	-1.000000	-1.000000	-1.000000	52.000000	0.000000	-1.000000	-1.000000	460137.000000	1775800728.572567
-6045.390000	-595.755000	16850.070000	34710.120000	25323.345000	-1.530000	-25749.540000	-15515.280000	-1.386007	1.372316	2.776277	2.124317	1.431294	-4.561519	-3.679598	-3.137681	-6.256600	5.829320	-0.137340	-0.729612	-0.175903	0.648619	-1.000000	-1.000000	-1.000000	-1.000000	-1.000000	-1.000000	-1.000000	52.000000	0.000000	-1.000000	-1.000000	460138.000000	1775800728.588236
-6040.215000	-590.220000	16856.235000	34717.230000	25318.350000	-4.455000	-25746.390000	-15511.320000	-2.606996	0.359645	1.744526	0.969722	0.130301	-2.035192	-3.631721	-3.797185	-6.256600	5.829320	-0.137340	-0.729612	-0.175903	0.648619	-1.000000	-1.000000	-1.000000	-1.000000	-1.000000	-1.000000	-1.000000	52.000000	0.000000	-1.000000	-1.000000	460139.000000	1775800728.588262
-6045.435000	-595.845000	16850.385000	34710.885000	25319.790000	4.995000	-25743.150000	-15514.515000	-2.524734	-0.518831	0.208161	-0.660748	-3.665815	-0.604983	-2.284157	-2.884713	-6.729660	6.439720	-1.464960	-0.726561	-0.178100	0.647703	-1.000000	-1.000000	-1.000000	-1.000000	-1.000000	-1.000000	-1.000000	52.000000	0.000000	-1.000000	-1.000000	460140.000000	1775800728.588284
-6046.065000	-597.285000	16850.385000	34713.900000	25328.385000	17.955000	-25738.515000	-15514.380000	-1.606165	-1.164542	-1.077193	-1.456301	-5.772548	1.634627	0.120173	-1.207950	-6.729660	6.439720	-1.464960	-0.726561	-0.178100	0.647703	-1.000000	-1.000000	-1.000000	-1.000000	-1.000000	-1.000000	-1.000000	52.000000	0.000000	-1.000000	-1.000000	460141.000000	1775800728.588293
-6045.300000	-597.645000	16849.755000	34711.605000	25322.130000	28.755000	-25737.255000	-15514.335000	-0.630393	-1.733033	-1.924551	-1.286016	-3.668286	5.796557	2.727992	0.272790	-6.729660	6.439720	-1.464960	-0.726561	-0.178100	0.647703	-1.000000	-1.000000	-1.000000	-1.000000	-1.000000	-1.000000	-1.000000	52.000000	0.000000	-1.000000	-1.000000	460142.000000	1775800728.599499
-6046.110000	-599.355000	16848.180000	34708.725000	25319.070000	18.405000	-25741.170000	-15516.045000	0.116758	-2.008818	-2.167440	-0.623156	1.081606	9.805883	4.155258	1.080371	-6.729660	6.439720	-1.464960	-0.726561	-0.178100	0.647703	-1.000000	-1.000000	-1.000000	-1.000000	-1.000000	-1.000000	-1.000000	52.000000	0.000000	-1.000000	-1.000000	460143.000000	1775800728.599525
-6048.765000	-601.605000	16846.785000	34708.860000	25315.245000	10.800000	-25747.650000	-15520.455000	0.626828	-1.715763	-1.763528	-0.048457	4.923399	9.845745	3.307643	1.128184	-6.729660	6.439720	-1.464960	-0.726561	-0.178100	0.647703	-1.000000	-1.000000	-1.000000	-1.000000	-1.000000	-1.000000	-1.000000	52.000000	0.000000	-1.000000	-1.000000	460144.000000	1775800728.599549
-6047.505000	-600.030000	16847.775000	34711.515000	25316.685000	8.280000	-25749.990000	-15521.490000	0.823696	-0.906206	-0.917091	0.294343	5.860778	4.451494	0.380419	0.530431	-6.729660	6.439720	-1.464960	-0.726561	-0.178100	0.647703	-1.000000	-1.000000	-1.000000	-1.000000	-1.000000	-1.000000	-1.000000	52.000000	0.000000	-1.000000	-1.000000	460145.000000	1775800728.599560
-6046.470000	-599.580000	16847.145000	34709.400000	25319.880000	10.620000	-25749.090000	-15520.905000	0.816839	0.232651	0.124378	0.645711	4.474794	-3.382140	-2.877494	-0.210554	-6.729660	6.439720	-1.464960	-0.726561	-0.178100	0.647703	-1.000000	-1.000000	-1.000000	-1.000000	-1.000000	-1.000000	-1.000000	52.000000	0.000000	-1.000000	-1.000000	460146.000000	1775800728.599586
-6044.850000	-598.815000	16848.090000	34709.760000	25322.535000	15.660000	-25745.490000	-15518.475000	0.870730	1.413323	1.081940	0.969864	2.494772	-8.771048	-4.302788	-0.378053	-6.729660	6.439720	-1.464960	-0.726561	-0.178100	0.647703	-1.000000	-1.000000	-1.000000	-1.000000	-1.000000	-1.000000	-1.000000	52.000000	0.000000	-1.000000	-1.000000	460147.000000	1775800728.599598
-6046.650000	-600.615000	16846.785000	34710.030000	25314.885000	4.365000	-25750.665000	-15521.355000	0.984055	2.156933	1.642330	1.002030	0.898385	-9.187684	-3.116397	0.241455	-6.729660	6.439720	-1.464960	-0.726561	-0.178100	0.647703	-1.000000	-1.000000	-1.000000	-1.000000	-1.000000	-1.000000	-1.000000	52.000000	0.000000	-1.000000	-1.000000	460148.000000	1775800728.608097
-6044.805000	-599.085000	16848.360000	34710.030000	25307.460000	-9.540000	-25756.290000	-15520.680000	0.873950	2.076771	1.624800	0.701492	-0.690091	-6.203617	-0.631060	1.060399	-6.729660	6.439720	-1.464960	-0.726561	-0.178100	0.647703	-1.000000	-1.000000	-1.000000	-1.000000	-1.000000	-1.000000	-1.000000	52.000000	0.000000	-1.000000	-1.000000	460149.000000	1775800728.608121
-6044.175000	-596.565000	16851.825000	34712.775000	25309.710000	-8.505000	-25755.255000	-15520.500000	0.440827	1.320432	1.197501	0.280930	-2.600416	-2.920688	1.234661	1.390267	-3.357200	7.340060	-3.952340	-0.728025	-0.184753	0.646605	-1.000000	-1.000000	-1.000000	-1.000000	-1.000000	-1.000000	-1.000000	52.000000	0.000000	-1.000000	-1.000000	460150.000000	1775800728.608147
-6037.290000	-585.180000	16865.235000	34728.930000	25330.095000	-3.465000	-25753.050000	-15516.945000	0.011541	0.633453	0.970718	0.277754	-3.521788	-0.317343	1.917263	1.160003	-3.357200	7.340060	-3.952340	-0.728025	-0.184753	0.646605	-1.000000	-1.000000	-1.000000	-1.000000	-1.000000	-1.000000	-1.000000	52.000000	0.000000	-1.000000	-1.000000	460151.000000	1775800728.608158
-6035.895000	-583.920000	16866.045000	34730.955000	25336.035000	1.620000	-25753.185000	-15516.810000	-0.004467	0.677766	1.420651	1.206994	-1.646964	2.530700	2.050213	0.731818	-3.357200	7.340060	-3.952340	-0.728025	-0.184753	0.646605	-1.000000	-1.000000	-1.000000	-1.000000	-1.000000	-1.000000	-1.000000	52.000000	0.000000	-1.000000	-1.000000	460152.000000	1775800728.614592
-6044.445000	-595.755000	16851.780000	34714.980000	25316.730000	-0.045000	-25756.560000	-15522.525000	0.111175	0.837811	1.645020	2.066128	1.924272	5.675593	1.998144	0.198424	-3.357200	7.340060	-3.952340	-0.728025	-0.184753	0.646605	-1.000000	-1.000000	-1.000000	-1.000000	-1.000000	-1.000000	-1.000000	52.000000	0.000000	-1.000000	-1.000000	460153.000000	1775800728.614619
-6044.040000	-598.680000	16850.835000	34720.335000	25324.560000	0.990000	-25755.930000	-15522.345000	-0.503603	-0.395728	-0.041639	0.851326	3.459164	7.553729	1.529285	-0.687392	-3.357200	7.340060	-3.952340	-0.728025	-0.184753	0.646605	-1.000000	-1.000000	-1.000000	-1.000000	-1.000000	-1.000000	-1.000000	52.000000	0.000000	-1.000000	-1.000000	460154.000000	1775800728.614646
-6050.610000	-604.665000	16846.605000	34717.410000	25327.260000	16.245000	-25749.000000	-15527.070000	-1.949447	-3.138245	-3.423173	-2.295443	1.579123	7.045285	0.737412	-1.804413	-3.357200	7.340060	-3.952340	-0.728025	-0.184753	0.646605	-1.000000	-1.000000	-1.000000	-1.000000	-1.000000	-1.000000	-1.000000	52.000000	0.000000	-1.000000	-1.000000	460155.000000	1775800728.614659
-6054.210000	-610.695000	16837.335000	34702.290000	25322.895000	21.555000	-25744.860000	-15527.565000	-3.308389	-5.628797	-6.254910	-5.213242	-1.498401	4.904855	0.315880	-2.551904	-3.357200	7.340060	-3.952340	-0.728025	-0.184753	0.646605	-1.000000	-1.000000	-1.000000	-1.000000	-1.000000	-1.000000	-1.000000	52.000000	0.000000	-1.000000	-1.000000	460156.000000	1775800728.614674
-6050.610000	-608.445000	16836.345000	34693.560000	25314.255000	14.850000	-25745.940000	-15524.280000	-3.515471	-6.008266	-6.737614	-6.633751	-3.706447	2.127951	0.497125	-2.318022	-3.357200	7.340060	-3.952340	-0.728025	-0.184753	0.646605	-1.000000	-1.000000	-1.000000	-1.000000	-1.000000	-1.000000	-1.000000	52.000000	0.000000	-1.000000	-1.000000	460157.000000	1775800728.614686
-6052.230000	-606.960000	16839.270000	34696.980000	25315.020000	8.595000	-25750.215000	-15527.565000	-1.975443	-3.541704	-4.412298	-6.161264	-4.590790	-1.487613	0.460055	-0.934468	-3.357200	7.340060	-3.952340	-0.728025	-0.184753	0.646605	-1.000000	-1.000000	-1.000000	-1.000000	-1.000000	-1.000000	-1.000000	52.000000	0.000000	-1.000000	-1.000000	460158.000000	1775800728.624510
-6049.620000	-599.580000	16849.440000	34710.975000	25325.235000	9.810000	-25749.900000	-15526.755000	0.845461	1.053609	0.239658	-2.980643	-3.807351	-5.754856	-0.594443	0.927169	-3.357200	7.340060	-3.952340	-0.728025	-0.184753	0.646605	-1.000000	-1.000000	-1.000000	-1.000000	-1.000000	-1.000000	-1.000000	52.000000	0.000000	-1.000000	-1.000000	460159.000000	1775800728.624532
-6055.965000	-600.615000	16852.185000	34715.610000	25326.135000	6.255000	-25755.705000	-15533.820000	3.463158	5.805465	5.712152	2.954728	-0.973890	-8.876994	-2.345558	2.136822	0.686700	7.599480	-6.287120	-0.732359	-0.188232	0.642515	-1.000000	-1.000000	-1.000000	-1.000000	-1.000000	-1.000000	-1.000000	52.000000	0.000000	-1.000000	-1.000000	460160.000000	1775800728.624554
-6054.795000	-603.630000	16848.045000	34711.020000	25322.580000	6.165000	-25754.670000	-15533.955000	4.425307	8.306366	9.449169	9.074833	2.773171	-9.033262	-3.717549	2.015009	0.686700	7.599480	-6.287120	-0.732359	-0.188232	0.642515	-1.000000	-1.000000	-1.000000	-1.000000	-1.000000	-1.000000	-1.000000	52.000000	0.000000	-1.000000	-1.000000	460161.000000	1775800728.624563
-6045.525000	-598.860000	16850.475000	34713.045000	25326.495000	11.475000	-25747.875000	-15524.820000	3.635215	7.238284	9.215179	11.514097	5.114673	-5.949909	-3.613905	1.079684	0.686700	7.599480	-6.287120	-0.732359	-0.188232	0.642515	-1.000000	-1.000000	-1.000000	-1.000000	-1.000000	-1.000000	-1.000000	52.000000	0.000000	-1.000000	-1.000000	460162.000000	1775800728.630308
-6044.265000	-600.930000	16847.010000	34710.165000	25325.730000	13.185000	-25744.545000	-15518.205000	2.345636	3.480101	5.061358	8.674802	4.875243	-0.808660	-1.517496	0.758082	0.686700	7.599480	-6.287120	-0.732359	-0.188232	0.642515	-1.000000	-1.000000	-1.000000	-1.000000	-1.000000	-1.000000	-1.000000	52.000000	0.000000	-1.000000	-1.000000	460163.000000	1775800728.630335
-6041.295000	-599.355000	16848.045000	34712.460000	25330.050000	15.795000	-25739.820000	-15514.245000	1.419853	-0.847367	-0.726345	2.414542	2.758964	4.308265	1.778382	1.662760	0.686700	7.599480	-6.287120	-0.732359	-0.188232	0.642515	-1.000000	-1.000000	-1.000000	-1.000000	-1.000000	-1.000000	-1.000000	52.000000	0.000000	-1.000000	-1.000000	460164.000000	1775800728.630358
-6045.345000	-603.900000	16843.905000	34708.410000	25322.310000	6.345000	-25746.030000	-15518.880000	0.505808	-4.060061	-5.453281	-3.894553	0.090263	7.137066	4.334700	2.612673	0.686700	7.599480	-6.287120	-0.732359	-0.188232	0.642515	-1.000000	-1.000000	-1.000000	-1.000000	-1.000000	-1.000000	-1.000000	52.000000	0.000000	-1.000000	-1.000000	460165.000000	1775800728.630369
