Channel1	Channel2	Channel3	Channel4	Channel5	Channel6	Channel7	Channel8	FilteredChannel1	FilteredChannel2	FilteredChannel3	FilteredChannel4	FilteredChannel5	FilteredChannel6	FilteredChannel7	FilteredChannel8	GyroX	GyroY	GyroZ	AccX	AccY	AccZ	PPG1	PPG2	rawPPG1	rawPPG2	rawPPG3	Hr	Hrv	Battery	Trigger	PhysicalTrigger	AutoTrigger	NumMeasurements	Timestamp
-26058.735000	-9343.845000	4368.555000	31518.810000	26920.530000	8345.610000	914.805000	-5374.575000	-5.457256	-7.488010	-4.737604	1.035085	0.027224	25.847022	3.493852	-3.675691	-0.579880	3.921820	-0.457800	-0.828489	-0.065979	0.540465	-1.000000	-1.000000	-1.000000	-1.000000	-1.000000	-1.000000	-1.000000	55.000000	0.000000	-1.000000	-1.000000	127779.000000	1775778527.953779
-26050.815000	-9335.745000	4379.625000	31530.960000	26923.500000	8333.685000	909.945000	-5372.640000	-8.489482	-7.195920	-3.664762	-3.828953	-9.619507	-0.735215	-1.770331	-6.560133	-0.579880	3.921820	-0.457800	-0.828489	-0.065979	0.540465	-1.000000	-1.000000	-1.000000	-1.000000	-1.000000	-1.000000	-1.000000	55.000000	0.000000	-1.000000	-1.000000	127780.000000	1775778527.953804
-26043.975000	-9324.315000	4393.845000	31544.460000	26940.645000	8331.075000	908.145000	-5364.405000	-7.736036	-3.884368	-0.443423	-5.173597	-15.064347	-30.656569	-6.797302	-6.966492	-0.579880	3.921820	-0.457800	-0.828489	-0.065979	0.540465	-1.000000	-1.000000	-1.000000	-1.000000	-1.000000	-1.000000	-1.000000	55.000000	0.000000	-1.000000	-1.000000	127781.000000	1775778527.953833
-26041.095000	-9317.070000	4396.950000	31548.465000	26947.710000	8327.700000	906.075000	-5362.245000	-1.420584	3.832518	6.026007	-0.267376	-10.490689	-46.171111	-9.050599	-2.899844	-0.579880	3.921820	-0.457800	-0.828489	-0.065979	0.540465	-1.000000	-1.000000	-1.000000	-1.000000	-1.000000	-1.000000	-1.000000	55.000000	0.000000	-1.000000	-1.000000	127782.000000	1775778527.953846
-26044.875000	-9322.470000	4390.740000	31543.155000	26944.470000	8332.650000	898.920000	-5368.365000	7.038701	12.400374	12.274082	7.173931	1.541169	-39.929065	-7.829915	3.573390	-0.579880	3.921820	-0.457800	-0.828489	-0.065979	0.540465	-1.000000	-1.000000	-1.000000	-1.000000	-1.000000	-1.000000	-1.000000	55.000000	0.000000	-1.000000	-1.000000	127783.000000	1775778527.960280
-26042.805000	-9321.480000	4391.100000	31542.840000	26940.240000	8333.955000	893.655000	-5369.715000	12.414086	16.353417	13.577407	11.131062	12.706772	-17.474192	-4.285843	8.239857	-0.579880	3.921820	-0.457800	-0.828489	-0.065979	0.540465	-1.000000	-1.000000	-1.000000	-1.000000	-1.000000	-1.000000	-1.000000	55.000000	0.000000	-1.000000	-1.000000	127784.000000	1775778527.960311
-26043.930000	-9323.955000	4386.105000	31539.420000	26936.685000	8334.855000	896.670000	-5369.805000	12.060782	13.192681	8.633125	8.839670	16.263574	8.732010	-0.138780	8.585698	-0.579880	3.921820	-0.457800	-0.828489	-0.065979	0.540465	-1.000000	-1.000000	-1.000000	-1.000000	-1.000000	-1.000000	-1.000000	55.000000	0.000000	-1.000000	-1.000000	127785.000000	1775778527.978726
-26044.875000	-9326.250000	4382.010000	31532.895000	26933.985000	8332.155000	902.160000	-5369.580000	7.056585	4.977811	0.245695	2.116559	11.527252	27.041756	3.695281	5.394728	-0.579880	3.921820	-0.457800	-0.828489	-0.065979	0.540465	-1.000000	-1.000000	-1.000000	-1.000000	-1.000000	-1.000000	-1.000000	55.000000	0.000000	-1.000000	-1.000000	127786.000000	1775778527.978752
-26042.850000	-9323.685000	4384.665000	31535.955000	26937.270000	8312.310000	903.780000	-5368.590000	0.476304	-3.876624	-7.260151	-5.026987	2.755079	31.522139	6.806433	1.167163	-0.579880	3.921820	-0.457800	-0.828489	-0.065979	0.540465	-1.000000	-1.000000	-1.000000	-1.000000	-1.000000	-1.000000	-1.000000	55.000000	0.000000	-1.000000	-1.000000	127787.000000	1775778527.978779
-26041.410000	-9321.390000	4389.525000	31543.425000	26942.265000	8306.145000	908.190000	-5366.295000	-4.631486	-9.415877	-10.476118	-8.823680	-4.632347	23.023596	8.430493	-1.943986	-0.579880	3.921820	-0.457800	-0.828489	-0.065979	0.540465	-1.000000	-1.000000	-1.000000	-1.000000	-1.000000	-1.000000	-1.000000	55.000000	0.000000	-1.000000	-1.000000	127788.000000	1775778527.978792
-26043.255000	-9321.525000	4392.630000	31548.060000	26949.645000	8314.380000	907.695000	-5366.700000	-6.694896	-10.050520	-8.489537	-7.581748	-7.337416	8.176254	7.774826	-3.091261	0.763000	2.685760	0.488320	-0.824705	-0.064758	0.541991	-1.000000	-1.000000	-1.000000	-1.000000	-1.000000	-1.000000	-1.000000	55.000000	0.000000	-1.000000	-1.000000	127789.000000	1775778527.978849
-26044.155000	-9322.740000	4390.335000	31544.910000	26949.465000	8331.255000	901.575000	-5369.040000	-6.043978	-6.957557	-3.300605	-2.818481	-5.524215	-4.035239	4.683928	-2.749086	0.763000	2.685760	0.488320	-0.824705	-0.064758	0.541991	-1.000000	-1.000000	-1.000000	-1.000000	-1.000000	-1.000000	-1.000000	55.000000	0.000000	-1.000000	-1.000000	127790.000000	1775778527.978866
-26037.000000	-9314.595000	4396.455000	31550.220000	26955.045000	8346.285000	897.615000	-5366.880000	-3.856792	-2.528239	1.792105	2.007536	-1.826711	-7.901000	-0.135289	-1.915982	0.763000	2.685760	0.488320	-0.824705	-0.064758	0.541991	-1.000000	-1.000000	-1.000000	-1.000000	-1.000000	-1.000000	-1.000000	55.000000	0.000000	-1.000000	-1.000000	127791.000000	1775778527.978887
-26040.240000	-9319.230000	4393.530000	31547.430000	26950.680000	8333.415000	898.560000	-5368.995000	-1.131493	1.335071	4.535698	4.338452	0.943770	-4.655873	-4.934787	-1.182354	0.763000	2.685760	0.488320	-0.824705	-0.064758	0.541991	-1.000000	-1.000000	-1.000000	-1.000000	-1.000000	-1.000000	-1.000000	55.000000	0.000000	-1.000000	-1.000000	127792.000000	1775778527.978898
-26046.720000	-9328.455000	4380.435000	31530.870000	26929.440000	8329.095000	906.930000	-5369.310000	1.021084	3.253842	4.207456	3.445984	1.006484	-0.553256	-7.369435	-0.669992	0.763000	2.685760	0.488320	-0.824705	-0.064758	0.541991	-1.000000	-1.000000	-1.000000	-1.000000	-1.000000	-1.000000	-1.000000	55.000000	0.000000	-1.000000	-1.000000	127793.000000	1775778527.979493
-26047.620000	-9328.500000	4378.995000	31528.485000	26925.390000	8321.760000	899.910000	-5371.740000	1.557395	2.555708	1.208335	-0.083748	-1.927168	-0.540725	-6.240166	-0.381387	0.763000	2.685760	0.488320	-0.824705	-0.064758	0.541991	-1.000000	-1.000000	-1.000000	-1.000000	-1.000000	-1.000000	-1.000000	55.000000	0.000000	-1.000000	-1.000000	127794.000000	1775778527.979510
-26041.815000	-9317.070000	4391.910000	31542.705000	26933.355000	8313.930000	894.285000	-5366.745000	0.800984	0.535416	-2.276203	-3.764419	-5.473943	-4.370591	-2.940194	-0.154947	0.763000	2.685760	0.488320	-0.824705	-0.064758	0.541991	-1.000000	-1.000000	-1.000000	-1.000000	-1.000000	-1.000000	-1.000000	55.000000	0.000000	-1.000000	-1.000000	127795.000000	1775778527.979532
-26027.415000	-9298.980000	4410.090000	31562.145000	26935.020000	8296.245000	877.770000	-5361.390000	0.486427	-0.043012	-2.922863	-3.927218	-5.826640	-8.720138	-0.314130	0.427815	0.763000	2.685760	0.488320	-0.824705	-0.064758	0.541991	-1.000000	-1.000000	-1.000000	-1.000000	-1.000000	-1.000000	-1.000000	55.000000	0.000000	-1.000000	-1.000000	127796.000000	1775778527.979543
-26011.080000	-9279.990000	4431.735000	31583.745000	26947.935000	8275.950000	862.335000	-5353.965000	2.053713	2.379202	0.764315	0.885037	-1.600486	-10.918371	-0.180620	1.622958	0.763000	2.685760	0.488320	-0.824705	-0.064758	0.541991	-1.000000	-1.000000	-1.000000	-1.000000	-1.000000	-1.000000	-1.000000	55.000000	0.000000	-1.000000	-1.000000	127797.000000	1775778527.994663
-26009.235000	-9279.405000	4434.975000	31590.450000	26959.365000	8260.020000	871.335000	-5350.770000	4.866174	6.189026	6.490877	7.846854	5.103544	-10.120828	-1.689521	2.969501	0.763000	2.685760	0.488320	-0.824705	-0.064758	0.541991	-1.000000	-1.000000	-1.000000	-1.000000	-1.000000	-1.000000	-1.000000	55.000000	0.000000	-1.000000	-1.000000	127798.000000	1775778527.994689
-26022.285000	-9302.850000	4409.370000	31570.560000	26956.170000	8273.745000	895.770000	-5360.040000	5.975244	7.124237	9.045380	11.277282	10.503546	-6.015462	-1.413525	3.231672	3.265640	1.236060	1.526000	-0.825010	-0.061035	0.543273	-1.000000	-1.000000	-1.000000	-1.000000	-1.000000	-1.000000	-1.000000	55.000000	0.000000	-1.000000	-1.000000	127799.000000	1775778527.994714
-26039.385000	-9325.575000	4385.160000	31537.845000	26950.095000	8318.160000	925.380000	-5361.840000	2.485283	1.668161	4.030332	6.438929	11.053863	2.415892	3.575080	1.298250	3.265640	1.236060	1.526000	-0.825010	-0.061035	0.543273	-1.000000	-1.000000	-1.000000	-1.000000	-1.000000	-1.000000	-1.000000	55.000000	0.000000	-1.000000	-1.000000	127800.000000	1775778527.994725
-26070.120000	-9349.020000	4365.360000	31510.980000	26949.375000	8386.785000	936.315000	-5377.815000	-5.470903	-8.916041	-7.450943	-6.184047	5.819301	15.657037	11.736744	-2.516626	3.265640	1.236060	1.526000	-0.825010	-0.061035	0.543273	-1.000000	-1.000000	-1.000000	-1.000000	-1.000000	-1.000000	-1.000000	55.000000	0.000000	-1.000000	-1.000000	127801.000000	1775778527.994738
-26064.135000	-9342.630000	4368.645000	31512.870000	26938.170000	8376.030000	922.545000	-5380.785000	-13.859070	-18.204073	-18.196921	-19.453202	-2.493697	29.404072	16.800501	-6.439510	3.265640	1.236060	1.526000	-0.825010	-0.061035	0.543273	-1.000000	-1.000000	-1.000000	-1.000000	-1.000000	-1.000000	-1.000000	55.000000	0.000000	-1.000000	-1.000000	127802.000000	1775778527.994750
-26059.860000	-9342.765000	4366.755000	31512.375000	26926.335000	8362.620000	907.830000	-5382.315000	-16.536344	-19.040081	-20.246198	-23.916650	-9.838569	33.161482	12.633324	-8.163878	3.265640	1.236060	1.526000	-0.825010	-0.061035	0.543273	-1.000000	-1.000000	-1.000000	-1.000000	-1.000000	-1.000000	-1.000000	55.000000	0.000000	-1.000000	-1.000000	127803.000000	1775778527.996812
-26061.795000	-9342.810000	4369.050000	31517.235000	26932.905000	8359.245000	903.780000	-5381.595000	-10.175808	-9.563129	-11.394493	-15.450775	-13.135115	19.406591	-0.529585	-6.132227	3.265640	1.236060	1.526000	-0.825010	-0.061035	0.543273	-1.000000	-1.000000	-1.000000	-1.000000	-1.000000	-1.000000	-1.000000	55.000000	0.000000	-1.000000	-1.000000	127804.000000	1775778527.996835
-26061.795000	-9342.810000	4369.050000	31517.235000	26932.905000	8359.245000	903.780000	-5381.595000	2.013865	5.048022	3.388310	1.418891	-10.820943	-6.441311	-15.223899	-0.917680	3.265640	1.236060	1.526000	-0.825010	-0.061035	0.543273	-1.000000	-1.000000	-1.000000	-1.000000	-1.000000	-1.000000	-1.000000	55.000000	0.000000	-1.000000	-1.000000	127805.000000	1775778527.999153
-26061.795000	-9342.810000	4369.050000	31517.235000	26932.905000	8359.245000	903.780000	-5381.595000	13.118153	17.006391	16.246835	17.455100	-3.847613	-30.004195	-22.776426	4.952260	3.265640	1.236060	1.526000	-0.825010	-0.061035	0.543273	-1.000000	-1.000000	-1.000000	-1.000000	-1.000000	-1.000000	-1.000000	55.000000	0.000000	-1.000000	-1.000000	127806.000000	1775778527.999173
-26061.795000	-9342.810000	4369.050000	31517.235000	26932.905000	8359.245000	903.780000	-5381.595000	17.965001	21.221919	21.560979	25.104125	4.219580	-39.674581	-19.732959	8.727511	3.265640	1.236060	1.526000	-0.825010	-0.061035	0.543273	-1.000000	-1.000000	-1.000000	-1.000000	-1.000000	-1.000000	-1.000000	55.000000	0.000000	-1.000000	-1.000000	127807.000000	1775778527.999184
-26040.690000	-9322.155000	4389.480000	31546.890000	26942.895000	8342.955000	896.310000	-5371.470000	15.924773	17.640638	18.702322	22.835077	9.773524	-33.406853	-9.163641	9.199424	1.999060	0.289940	1.709120	-0.833921	-0.057007	0.544066	-1.000000	-1.000000	-1.000000	-1.000000	-1.000000	-1.000000	-1.000000	55.000000	0.000000	-1.000000	-1.000000	127809.000000	1775778528.006905
-26041.365000	-9321.120000	4390.470000	31544.100000	26946.405000	8337.690000	892.890000	-5373.945000	9.997493	10.024716	11.197449	14.557084	11.400775	-17.489029	2.589304	7.020773	1.999060	0.289940	1.709120	-0.833921	-0.057007	0.544066	-1.000000	-1.000000	-1.000000	-1.000000	-1.000000	-1.000000	-1.000000	55.000000	0.000000	-1.000000	-1.000000	127810.000000	1775778528.006931
-26036.595000	-9309.915000	4403.160000	31544.865000	26961.480000	8340.840000	896.445000	-5366.700000	3.236730	2.193131	3.017095	4.542778	9.706275	-0.197588	10.485980	3.477387	1.999060	0.289940	1.709120	-0.833921	-0.057007	0.544066	-1.000000	-1.000000	-1.000000	-1.000000	-1.000000	-1.000000	-1.000000	55.000000	0.000000	-1.000000	-1.000000	127811.000000	1775778528.013622
-26036.460000	-9310.590000	4404.510000	31547.295000	26958.330000	8330.400000	895.590000	-5365.665000	-3.021295	-4.104703	-3.702669	-5.086787	6.008248	12.992461	13.114732	-0.273797	1.999060	0.289940	1.709120	-0.833921	-0.057007	0.544066	-1.000000	-1.000000	-1.000000	-1.000000	-1.000000	-1.000000	-1.000000	55.000000	0.000000	-1.000000	-1.000000	127812.000000	1775778528.013646
-26033.715000	-9314.010000	4400.190000	31551.345000	26955.270000	8324.100000	900.720000	-5363.145000	-7.975808	-8.619262	-8.445829	-12.521246	1.139903	19.500030	11.655176	-3.285793	1.999060	0.289940	1.709120	-0.833921	-0.057007	0.544066	-1.000000	-1.000000	-1.000000	-1.000000	-1.000000	-1.000000	-1.000000	55.000000	0.000000	-1.000000	-1.000000	127813.000000	1775778528.014213
-26036.820000	-9318.645000	4395.285000	31548.240000	26948.385000	8303.670000	894.510000	-5370.120000	-10.760845	-11.564943	-11.534384	-15.925783	-4.409940	18.778181	7.887815	-5.204704	1.999060	0.289940	1.709120	-0.833921	-0.057007	0.544066	-1.000000	-1.000000	-1.000000	-1.000000	-1.000000	-1.000000	-1.000000	55.000000	0.000000	-1.000000	-1.000000	127814.000000	1775778528.014231
-26040.105000	-9318.465000	4400.190000	31552.920000	26944.605000	8261.865000	887.040000	-5369.040000	-11.018964	-12.669449	-12.830271	-14.833234	-9.375804	11.841281	3.031506	-6.177273	1.999060	0.289940	1.709120	-0.833921	-0.057007	0.544066	-1.000000	-1.000000	-1.000000	-1.000000	-1.000000	-1.000000	-1.000000	55.000000	0.000000	-1.000000	-1.000000	127815.000000	1775778528.024847
-26029.080000	-9310.005000	4404.420000	31553.730000	26941.590000	8268.930000	888.930000	-5359.545000	-8.861473	-10.993429	-11.294460	-10.236581	-11.814582	1.632388	-1.949589	-5.930219	1.999060	0.289940	1.709120	-0.833921	-0.057007	0.544066	-1.000000	-1.000000	-1.000000	-1.000000	-1.000000	-1.000000	-1.000000	55.000000	0.000000	-1.000000	-1.000000	127816.000000	1775778528.024873
-26036.505000	-9316.305000	4398.345000	31537.800000	26944.470000	8319.735000	901.395000	-5360.535000	-4.692584	-6.259300	-6.705153	-4.285374	-10.371569	-5.162879	-5.275287	-3.860588	1.999060	0.289940	1.709120	-0.833921	-0.057007	0.544066	-1.000000	-1.000000	-1.000000	-1.000000	-1.000000	-1.000000	-1.000000	55.000000	0.000000	-1.000000	-1.000000	127817.000000	1775778528.024899
-26046.450000	-9327.915000	4385.025000	31526.145000	26939.475000	8347.590000	903.870000	-5370.210000	-0.098991	-0.386353	-1.137537	0.188570	-5.401041	-1.701505	-5.208199	-0.721911	1.999060	0.289940	1.709120	-0.833921	-0.057007	0.544066	-1.000000	-1.000000	-1.000000	-1.000000	-1.000000	-1.000000	-1.000000	55.000000	0.000000	-1.000000	-1.000000	127818.000000	1775778528.024912
-26044.155000	-9332.640000	4371.705000	31520.115000	26933.355000	8351.910000	908.820000	-5367.465000	2.787816	3.626659	2.423090	1.750539	0.798812	10.084404	-2.236461	1.498022	-2.533160	-0.946120	-1.861720	-0.839170	-0.056213	0.540526	-1.000000	-1.000000	-1.000000	-1.000000	-1.000000	-1.000000	-1.000000	55.000000	0.000000	-1.000000	-1.000000	127819.000000	1775778528.035922
-26037.405000	-9328.815000	4371.165000	31521.510000	26938.350000	8344.845000	915.345000	-5358.645000	3.753086	4.784371	2.998087	1.759056	5.532134	19.114497	1.206327	2.167454	-2.533160	-0.946120	-1.861720	-0.839170	-0.056213	0.540526	-1.000000	-1.000000	-1.000000	-1.000000	-1.000000	-1.000000	-1.000000	55.000000	0.000000	-1.000000	-1.000000	127820.000000	1775778528.035949
-26041.410000	-9325.395000	4382.505000	31530.420000	26949.465000	8342.325000	908.460000	-5362.830000	4.155899	4.659848	2.629634	2.749132	7.906011	16.009167	2.851351	2.342179	-2.533160	-0.946120	-1.861720	-0.839170	-0.056213	0.540526	-1.000000	-1.000000	-1.000000	-1.000000	-1.000000	-1.000000	-1.000000	55.000000	0.000000	-1.000000	-1.000000	127821.000000	1775778528.035977
-26045.370000	-9326.970000	4383.765000	31526.730000	26941.995000	8326.980000	896.490000	-5372.505000	4.374817	4.839182	3.937033	5.638831	8.429800	1.291210	1.497622	2.307813	-2.533160	-0.946120	-1.861720	-0.839170	-0.056213	0.540526	-1.000000	-1.000000	-1.000000	-1.000000	-1.000000	-1.000000	-1.000000	55.000000	0.000000	-1.000000	-1.000000	127822.000000	1775778528.035989
-26045.730000	-9325.440000	4390.560000	31532.490000	26944.380000	8332.110000	898.695000	-5372.730000	3.692194	5.171589	6.929535	8.719546	7.081136	-16.443122	-2.342298	1.286078	-2.533160	-0.946120	-1.861720	-0.839170	-0.056213	0.540526	-1.000000	-1.000000	-1.000000	-1.000000	-1.000000	-1.000000	-1.000000	55.000000	0.000000	-1.000000	-1.000000	127823.000000	1775778528.036002
-26052.210000	-9331.965000	4390.155000	31536.810000	26942.625000	8334.405000	898.155000	-5378.130000	1.915225	4.558886	9.164256	9.645241	3.759041	-27.225683	-5.980273	-0.580877	-2.533160	-0.946120	-1.861720	-0.839170	-0.056213	0.540526	-1.000000	-1.000000	-1.000000	-1.000000	-1.000000	-1.000000	-1.000000	55.000000	0.000000	-1.000000	-1.000000	127824.000000	1775778528.036013
-26045.730000	-9325.800000	4397.985000	31544.775000	26944.740000	8323.335000	899.820000	-5373.540000	-0.174953	2.525706	8.482336	7.726857	-0.430427	-26.116864	-6.561167	-1.961019	-2.533160	-0.946120	-1.861720	-0.839170	-0.056213	0.540526	-1.000000	-1.000000	-1.000000	-1.000000	-1.000000	-1.000000	-1.000000	55.000000	0.000000	-1.000000	-1.000000	127825.000000	1775778528.048302
-26042.580000	-9321.345000	4403.205000	31549.680000	26952.885000	8337.420000	898.110000	-5371.965000	-1.317334	0.000125	4.873433	3.919837	-3.631412	-15.393034	-3.635453	-1.671714	-2.533160	-0.946120	-1.861720	-0.839170	-0.056213	0.540526	-1.000000	-1.000000	-1.000000	-1.000000	-1.000000	-1.000000	-1.000000	55.000000	0.000000	-1.000000	-1.000000	127826.000000	1775778528.048328
-26045.100000	-9323.145000	4403.025000	31550.805000	26956.935000	8359.470000	894.870000	-5372.910000	-0.920053	-1.661620	-0.019623	-0.420956	-4.461849	-0.596246	0.800500	0.219879	-2.533160	-0.946120	-1.861720	-0.839170	-0.056213	0.540526	-1.000000	-1.000000	-1.000000	-1.000000	-1.000000	-1.000000	-1.000000	55.000000	0.000000	-1.000000	-1.000000	127827.000000	1775778528.048357
-26053.515000	-9332.820000	4392.225000	31539.780000	26944.695000	8340.120000	890.055000	-5377.815000	-0.007309	-2.411317	-4.734425	-4.541904	-3.333274	12.673684	4.127469	2.247373	-2.533160	-0.946120	-1.861720	-0.839170	-0.056213	0.540526	-1.000000	-1.000000	-1.000000	-1.000000	-1.000000	-1.000000	-1.000000	55.000000	0.000000	-1.000000	-1.000000	127828.000000	1775778528.048369
-26048.340000	-9329.580000	4394.295000	31541.670000	26944.020000	8321.355000	886.365000	-5374.710000	0.038911	-3.087080	-8.472610	-8.075947	-2.247106	18.592118	4.892776	2.893879	-4.471180	1.922760	-1.892240	-0.832334	-0.058960	0.539122	-1.000000	-1.000000	-1.000000	-1.000000	-1.000000	-1.000000	-1.000000	55.000000	0.000000	-1.000000	-1.000000	127829.000000	1775778528.048383
-26047.170000	-9328.680000	4390.020000	31536.225000	26939.655000	8328.375000	886.320000	-5375.610000	-0.623865	-3.569818	-10.192083	-10.061253	-2.352597	14.537035	3.483107	2.034232	-4.471180	1.922760	-1.892240	-0.832334	-0.058960	0.539122	-1.000000	-1.000000	-1.000000	-1.000000	-1.000000	-1.000000	-1.000000	55.000000	0.000000	-1.000000	-1.000000	127830.000000	1775778528.048394
-26041.545000	-9326.340000	4389.435000	31535.370000	26941.905000	8345.340000	904.230000	-5369.940000	-0.798721	-2.928850	-8.965032	-9.370508	-2.792994	5.155630	1.776925	0.684131	-4.471180	1.922760	-1.892240	-0.832334	-0.058960	0.539122	-1.000000	-1.000000	-1.000000	-1.000000	-1.000000	-1.000000	-1.000000	55.000000	0.000000	-1.000000	-1.000000	127831.000000	1775778528.053229
-26045.235000	-9334.035000	4382.010000	31528.170000	26931.330000	8324.145000	903.060000	-5372.595000	-0.072151	-1.151706	-5.222175	-6.071887	-2.358631	-2.260383	1.623237	-0.232612	-4.471180	1.922760	-1.892240	-0.832334	-0.058960	0.539122	-1.000000	-1.000000	-1.000000	-1.000000	-1.000000	-1.000000	-1.000000	55.000000	0.000000	-1.000000	-1.000000	127832.000000	1775778528.053257
-26044.965000	-9334.170000	4384.710000	31531.230000	26935.875000	8320.320000	899.235000	-5374.980000	0.736110	0.570709	-0.565218	-1.449846	-0.923433	-5.290953	2.585732	-0.685180	-4.471180	1.922760	-1.892240	-0.832334	-0.058960	0.539122	-1.000000	-1.000000	-1.000000	-1.000000	-1.000000	-1.000000	-1.000000	55.000000	0.000000	-1.000000	-1.000000	127833.000000	1775778528.070923
-26042.445000	-9326.340000	4389.885000	31535.595000	26940.600000	8316.000000	888.255000	-5377.455000	0.783451	1.487468	3.627942	3.149483	1.160649	-5.658414	2.230155	-1.201017	-4.471180	1.922760	-1.892240	-0.832334	-0.058960	0.539122	-1.000000	-1.000000	-1.000000	-1.000000	-1.000000	-1.000000	-1.000000	55.000000	0.000000	-1.000000	-1.000000	127834.000000	1775778528.070948
-26042.805000	-9320.805000	4396.320000	31541.940000	26946.360000	8317.170000	889.470000	-5371.830000	0.176346	2.142900	6.792089	6.883064	3.642617	-4.593796	-0.669146	-1.781925	-4.471180	1.922760	-1.892240	-0.832334	-0.058960	0.539122	-1.000000	-1.000000	-1.000000	-1.000000	-1.000000	-1.000000	-1.000000	55.000000	0.000000	-1.000000	-1.000000	127835.000000	1775778528.070971
-26046.405000	-9325.575000	4386.420000	31530.600000	26932.545000	8323.740000	898.335000	-5373.855000	-0.592404	2.888204	8.261390	8.746360	5.476624	-2.115879	-4.238676	-1.776348	-4.471180	1.922760	-1.892240	-0.832334	-0.058960	0.539122	-1.000000	-1.000000	-1.000000	-1.000000	-1.000000	-1.000000	-1.000000	55.000000	0.000000	-1.000000	-1.000000	127836.000000	1775778528.070983
-26045.865000	-9325.485000	4387.410000	31532.355000	26932.410000	8335.305000	902.160000	-5374.890000	-1.283810	2.860059	6.999941	7.558718	4.938425	1.664547	-5.374804	-0.993114	-4.471180	1.922760	-1.892240	-0.832334	-0.058960	0.539122	-1.000000	-1.000000	-1.000000	-1.000000	-1.000000	-1.000000	-1.000000	55.000000	0.000000	-1.000000	-1.000000	127837.000000	1775778528.070997
-26047.260000	-9324.090000	4391.010000	31542.255000	26937.315000	8329.365000	889.920000	-5379.615000	-1.664646	1.404986	3.261296	3.804924	1.954289	5.538413	-3.392061	-0.118284	-4.471180	1.922760	-1.892240	-0.832334	-0.058960	0.539122	-1.000000	-1.000000	-1.000000	-1.000000	-1.000000	-1.000000	-1.000000	55.000000	0.000000	-1.000000	-1.000000	127838.000000	1775778528.071007
-26026.110000	-9302.895000	4408.380000	31562.280000	26948.835000	8326.755000	882.045000	-5369.265000	-1.094362	-0.390358	-0.564229	0.299596	-1.054049	7.124653	-0.787898	0.361456	-4.272800	3.311420	-3.357200	-0.828367	-0.064270	0.538573	-1.000000	-1.000000	-1.000000	-1.000000	-1.000000	-1.000000	-1.000000	55.000000	0.000000	-1.000000	-1.000000	127839.000000	1775778528.071021
-26021.295000	-9298.845000	4418.145000	31575.465000	26954.460000	8320.320000	876.285000	-5361.480000	1.096474	-0.650146	-1.898695	-0.412323	-1.727024	4.838340	0.013480	0.986359	-4.272800	3.311420	-3.357200	-0.828367	-0.064270	0.538573	-1.000000	-1.000000	-1.000000	-1.000000	-1.000000	-1.000000	-1.000000	55.000000	0.000000	-1.000000	-1.000000	127840.000000	1775778528.071032
-26021.790000	-9296.505000	4423.320000	31581.495000	26956.035000	8312.670000	881.055000	-5359.995000	3.965395	0.655049	-0.585902	1.200393	-0.245305	-0.363945	-0.647983	2.222231	-4.272800	3.311420	-3.357200	-0.828367	-0.064270	0.538573	-1.000000	-1.000000	-1.000000	-1.000000	-1.000000	-1.000000	-1.000000	55.000000	0.000000	-1.000000	-1.000000	127841.000000	1775778528.071443
-26028.180000	-9306.225000	4411.260000	31555.530000	26941.995000	8296.335000	887.220000	-5365.755000	4.837156	1.253923	0.777514	1.716623	0.949221	-5.939006	-0.589826	3.065817	-4.272800	3.311420	-3.357200	-0.828367	-0.064270	0.538573	-1.000000	-1.000000	-1.000000	-1.000000	-1.000000	-1.000000	-1.000000	55.000000	0.000000	-1.000000	-1.000000	127842.000000	1775778528.071462
-26039.430000	-9325.800000	4386.870000	31516.155000	26924.130000	8293.635000	903.555000	-5371.830000	1.954863	-1.019217	-0.954810	-2.646714	-0.639368	-9.475240	1.692860	1.937529	-4.272800	3.311420	-3.357200	-0.828367	-0.064270	0.538573	-1.000000	-1.000000	-1.000000	-1.000000	-1.000000	-1.000000	-1.000000	55.000000	0.000000	-1.000000	-1.000000	127843.000000	1775778528.078948
-26051.985000	-9338.400000	4378.320000	31516.065000	26929.845000	8300.610000	911.835000	-5374.530000	-3.716428	-6.008747	-6.352348	-11.571526	-4.798063	-9.105156	5.603772	-1.241470	-4.272800	3.311420	-3.357200	-0.828367	-0.064270	0.538573	-1.000000	-1.000000	-1.000000	-1.000000	-1.000000	-1.000000	-1.000000	55.000000	0.000000	-1.000000	-1.000000	127844.000000	1775778528.078973
-26048.745000	-9332.955000	4384.260000	31527.675000	26945.055000	8323.650000	909.855000	-5371.560000	-8.948758	-10.526926	-11.699433	-18.326547	-7.674477	-3.822426	8.543541	-4.506569	-4.272800	3.311420	-3.357200	-0.828367	-0.064270	0.538573	-1.000000	-1.000000	-1.000000	-1.000000	-1.000000	-1.000000	-1.000000	55.000000	0.000000	-1.000000	-1.000000	127845.000000	1775778528.083826
-26038.755000	-9323.820000	4392.360000	31536.855000	26959.365000	8356.500000	912.555000	-5362.380000	-9.933629	-10.169252	-11.630406	-15.383820	-5.244139	5.523134	7.692857	-5.329720	-4.272800	3.311420	-3.357200	-0.828367	-0.064270	0.538573	-1.000000	-1.000000	-1.000000	-1.000000	-1.000000	-1.000000	-1.000000	55.000000	0.000000	-1.000000	-1.000000	127846.000000	1775778528.083853
-26029.395000	-9313.380000	4401.270000	31545.945000	26965.305000	8355.285000	910.845000	-5357.655000	-4.982323	-3.296391	-4.357675	-2.507164	2.046864	15.134492	2.651503	-2.715841	-4.272800	3.311420	-3.357200	-0.828367	-0.064270	0.538573	-1.000000	-1.000000	-1.000000	-1.000000	-1.000000	-1.000000	-1.000000	55.000000	0.000000	-1.000000	-1.000000	127847.000000	1775778528.083882
-26047.395000	-9327.825000	4386.150000	31531.905000	26946.675000	8326.080000	887.760000	-5380.650000	3.182813	6.578315	6.121007	12.640878	8.927559	18.385035	-4.512163	1.339808	-4.272800	3.311420	-3.357200	-0.828367	-0.064270	0.538573	-1.000000	-1.000000	-1.000000	-1.000000	-1.000000	-1.000000	-1.000000	55.000000	0.000000	-1.000000	-1.000000	127848.000000	1775778528.083895
-26049.510000	-9333.495000	4380.435000	31526.010000	26939.700000	8334.765000	893.385000	-5385.420000	8.902222	13.015251	13.018435	20.786660	9.703365	10.810809	-11.016479	3.087974	-0.732480	3.815000	-1.342880	-0.825254	-0.065185	0.541686	-1.000000	-1.000000	-1.000000	-1.000000	-1.000000	-1.000000	-1.000000	55.000000	0.000000	-1.000000	-1.000000	127849.000000	1775778528.086894
-26045.235000	-9329.040000	4387.410000	31533.660000	26945.055000	8334.270000	899.685000	-5376.780000	8.946900	12.333203	12.693786	18.245545	3.767791	-3.686416	-13.616582	1.414658	-0.732480	3.815000	-1.342880	-0.825254	-0.065185	0.541686	-1.000000	-1.000000	-1.000000	-1.000000	-1.000000	-1.000000	-1.000000	55.000000	0.000000	-1.000000	-1.000000	127850.000000	1775778528.086915
-26043.795000	-9323.730000	4392.720000	31540.455000	26953.245000	8345.970000	898.290000	-5372.730000	5.123004	6.623347	7.405732	8.980578	-3.694136	-15.592117	-10.147319	-0.707886	-0.732480	3.815000	-1.342880	-0.825254	-0.065185	0.541686	-1.000000	-1.000000	-1.000000	-1.000000	-1.000000	-1.000000	-1.000000	55.000000	0.000000	-1.000000	-1.000000	127851.000000	1775778528.090828
-26044.875000	-9323.190000	4393.485000	31539.780000	26951.355000	8348.130000	896.085000	-5371.785000	0.985910	0.540382	1.716643	-0.391963	-7.186545	-18.363373	-2.336551	-0.457148	-0.732480	3.815000	-1.342880	-0.825254	-0.065185	0.541686	-1.000000	-1.000000	-1.000000	-1.000000	-1.000000	-1.000000	-1.000000	55.000000	0.000000	-1.000000	-1.000000	127852.000000	1775778528.090846
-26038.125000	-9320.355000	4393.485000	31538.340000	26948.520000	8343.540000	898.290000	-5369.490000	-1.467889	-3.089498	-1.910348	-6.178309	-5.747291	-12.545526	5.386210	1.740172	-0.732480	3.815000	-1.342880	-0.825254	-0.065185	0.541686	-1.000000	-1.000000	-1.000000	-1.000000	-1.000000	-1.000000	-1.000000	55.000000	0.000000	-1.000000	-1.000000	127853.000000	1775778528.097844
-26042.040000	-9324.990000	4388.220000	31532.085000	26942.445000	8335.125000	895.995000	-5373.045000	-2.033966	-4.189729	-3.629299	-8.345749	-2.206507	-3.666803	9.600215	3.605333	-0.732480	3.815000	-1.342880	-0.825254	-0.065185	0.541686	-1.000000	-1.000000	-1.000000	-1.000000	-1.000000	-1.000000	-1.000000	55.000000	0.000000	-1.000000	-1.000000	127854.000000	1775778528.097863
-26044.065000	-9325.485000	4390.425000	31534.380000	26943.930000	8322.435000	896.760000	-5371.965000	-1.687448	-4.037888	-4.401939	-8.211154	0.511488	2.651580	9.466196	3.451239	-0.732480	3.815000	-1.342880	-0.825254	-0.065185	0.541686	-1.000000	-1.000000	-1.000000	-1.000000	-1.000000	-1.000000	-1.000000	55.000000	0.000000	-1.000000	-1.000000	127855.000000	1775778528.098496
-26043.525000	-9325.080000	4390.155000	31532.805000	26938.665000	8304.750000	889.245000	-5376.285000	-1.549091	-3.610906	-4.518988	-6.604279	1.511083	4.064027	6.074723	1.282378	-0.732480	3.815000	-1.342880	-0.825254	-0.065185	0.541686	-1.000000	-1.000000	-1.000000	-1.000000	-1.000000	-1.000000	-1.000000	55.000000	0.000000	-1.000000	-1.000000	127856.000000	1775778528.098514
-26043.480000	-9324.720000	4391.415000	31534.245000	26938.305000	8308.845000	888.120000	-5377.410000	-1.764502	-2.946686	-3.704540	-3.884889	1.369350	2.002072	1.309879	-1.632190	-0.732480	3.815000	-1.342880	-0.825254	-0.065185	0.541686	-1.000000	-1.000000	-1.000000	-1.000000	-1.000000	-1.000000	-1.000000	55.000000	0.000000	-1.000000	-1.000000	127857.000000	1775778528.103609
-26036.910000	-9318.105000	4397.985000	31544.010000	26947.755000	8320.320000	888.255000	-5375.565000	-1.662923	-1.690496	-1.896116	-0.489437	1.138687	0.421485	-2.794292	-3.739457	-0.732480	3.815000	-1.342880	-0.825254	-0.065185	0.541686	-1.000000	-1.000000	-1.000000	-1.000000	-1.000000	-1.000000	-1.000000	55.000000	0.000000	-1.000000	-1.000000	127858.000000	1775778528.103635
-26029.530000	-9311.670000	4404.375000	31553.280000	26955.900000	8329.185000	887.895000	-5370.840000	-0.599676	0.304375	0.591425	3.104633	1.857524	2.504440	-4.645286	-3.895155	1.785420	3.082520	-0.061040	-0.828062	-0.063049	0.543211	-1.000000	-1.000000	-1.000000	-1.000000	-1.000000	-1.000000	-1.000000	55.000000	0.000000	-1.000000	-1.000000	127859.000000	1775778528.106898
-26036.010000	-9312.930000	4405.095000	31556.520000	26955.630000	8331.210000	888.570000	-5373.630000	1.127704	2.490369	2.966883	6.054707	3.453941	7.407061	-3.929245	-2.083120	1.785420	3.082520	-0.061040	-0.828062	-0.063049	0.543211	-1.000000	-1.000000	-1.000000	-1.000000	-1.000000	-1.000000	-1.000000	55.000000	0.000000	-1.000000	-1.000000	127860.000000	1775778528.106918
-26032.815000	-9314.190000	4402.080000	31552.020000	26941.905000	8322.255000	892.125000	-5371.155000	2.132429	3.553460	3.943029	6.847185	4.076152	10.880518	-1.578738	0.407104	1.785420	3.082520	-0.061040	-0.828062	-0.063049	0.543211	-1.000000	-1.000000	-1.000000	-1.000000	-1.000000	-1.000000	-1.000000	55.000000	0.000000	-1.000000	-1.000000	127861.000000	1775778528.116127
-26038.530000	-9319.455000	4396.770000	31547.880000	26933.445000	8312.805000	885.915000	-5373.450000	1.430270	2.490470	2.591342	4.347391	1.739356	9.122535	0.930741	2.066164	1.785420	3.082520	-0.061040	-0.828062	-0.063049	0.543211	-1.000000	-1.000000	-1.000000	-1.000000	-1.000000	-1.000000	-1.000000	55.000000	0.000000	-1.000000	-1.000000	127862.000000	1775778528.116151
-26032.320000	-9312.570000	4398.345000	31539.015000	26936.325000	8309.970000	879.930000	-5371.290000	-0.433728	-0.149437	-0.542620	-0.789936	-2.920691	2.188987	2.088638	2.272117	1.785420	3.082520	-0.061040	-0.828062	-0.063049	0.543211	-1.000000	-1.000000	-1.000000	-1.000000	-1.000000	-1.000000	-1.000000	55.000000	0.000000	-1.000000	-1.000000	127863.000000	1775778528.116175
-26029.845000	-9306.720000	4404.510000	31538.340000	26952.480000	8329.995000	887.400000	-5364.225000	-1.919903	-2.359858	-3.380080	-6.129135	-6.274103	-5.549599	1.428440	1.522819	1.785420	3.082520	-0.061040	-0.828062	-0.063049	0.543211	-1.000000	-1.000000	-1.000000	-1.000000	-1.000000	-1.000000	-1.000000	55.000000	0.000000	-1.000000	-1.000000	127864.000000	1775778528.116185
-26039.520000	-9320.400000	4393.215000	31538.205000	26962.470000	8353.620000	896.760000	-5370.165000	-2.103208	-2.768242	-4.123704	-8.807167	-4.972901	-8.448566	0.362451	0.698324	1.785420	3.082520	-0.061040	-0.828062	-0.063049	0.543211	-1.000000	-1.000000	-1.000000	-1.000000	-1.000000	-1.000000	-1.000000	55.000000	0.000000	-1.000000	-1.000000	127865.000000	1775778528.127653
-26050.140000	-9334.035000	4374.360000	31523.355000	26941.185000	8338.005000	894.330000	-5378.400000	-1.782240	-2.411573	-3.370435	-7.597406	-0.009449	-4.949812	0.464162	-0.199035	1.785420	3.082520	-0.061040	-0.828062	-0.063049	0.543211	-1.000000	-1.000000	-1.000000	-1.000000	-1.000000	-1.000000	-1.000000	55.000000	0.000000	-1.000000	-1.000000	127866.000000	1775778528.127676
-26044.200000	-9328.365000	4374.675000	31527.945000	26940.870000	8314.875000	893.970000	-5374.080000	-1.909476	-2.699258	-2.885974	-3.750932	3.753511	-0.069055	1.288577	-1.558770	1.785420	3.082520	-0.061040	-0.828062	-0.063049	0.543211	-1.000000	-1.000000	-1.000000	-1.000000	-1.000000	-1.000000	-1.000000	55.000000	0.000000	-1.000000	-1.000000	127867.000000	1775778528.127701
-26039.565000	-9325.395000	4379.760000	31531.500000	26945.685000	8308.935000	895.995000	-5368.320000	-1.657061	-2.697635	-2.430783	0.918289	3.370055	0.169059	1.343891	-2.547917	1.785420	3.082520	-0.061040	-0.828062	-0.063049	0.543211	-1.000000	-1.000000	-1.000000	-1.000000	-1.000000	-1.000000	-1.000000	55.000000	0.000000	-1.000000	-1.000000	127868.000000	1775778528.127708
-26041.140000	-9329.670000	4376.385000	31523.580000	26939.655000	8313.705000	897.480000	-5370.840000	0.139315	-0.851980	-0.362839	5.143181	0.546878	-3.972031	0.243552	-1.939947	2.243220	1.388660	0.335720	-0.830564	-0.060547	0.544982	-1.000000	-1.000000	-1.000000	-1.000000	-1.000000	-1.000000	-1.000000	55.000000	0.000000	-1.000000	-1.000000	127869.000000	1775778528.127716
-26044.830000	-9330.615000	4383.270000	31528.350000	26941.950000	8324.955000	895.860000	-5374.080000	2.701715	2.211911	3.319085	7.540865	-1.830294	-6.897024	-1.263103	-0.148799	2.243220	1.388660	0.335720	-0.830564	-0.060547	0.544982	-1.000000	-1.000000	-1.000000	-1.000000	-1.000000	-1.000000	-1.000000	55.000000	0.000000	-1.000000	-1.000000	127870.000000	1775778528.127723
-26043.795000	-9323.010000	4391.865000	31538.700000	26943.840000	8336.745000	896.895000	-5373.540000	4.134688	4.680781	6.954873	7.569463	-2.376550	-4.334140	-2.386555	1.270625	2.243220	1.388660	0.335720	-0.830564	-0.060547	0.544982	-1.000000	-1.000000	-1.000000	-1.000000	-1.000000	-1.000000	-1.000000	55.000000	0.000000	-1.000000	-1.000000	127871.000000	1775778528.131950
-26036.550000	-9317.565000	4397.040000	31544.595000	26944.335000	8332.020000	899.100000	-5370.165000	3.769269	5.750516	8.950614	6.206881	-1.128699	2.568655	-2.658947	1.608206	2.243220	1.388660	0.335720	-0.830564	-0.060547	0.544982	-1.000000	-1.000000	-1.000000	-1.000000	-1.000000	-1.000000	-1.000000	55.000000	0.000000	-1.000000	-1.000000	127872.000000	1775778528.131979
-26040.285000	-9320.895000	4396.140000	31544.370000	26946.360000	8322.570000	895.410000	-5373.495000	2.418375	5.394583	8.229430	4.269625	0.876086	8.501049	-2.019196	1.273866	2.243220	1.388660	0.335720	-0.830564	-0.060547	0.544982	-1.000000	-1.000000	-1.000000	-1.000000	-1.000000	-1.000000	-1.000000	55.000000	0.000000	-1.000000	-1.000000	127873.000000	1775778528.136527
-26046.540000	-9327.105000	4388.895000	31538.880000	26945.460000	8323.110000	889.110000	-5381.235000	0.690440	3.316101	4.355080	1.445482	2.345600	8.998703	-1.074228	0.553813	2.243220	1.388660	0.335720	-0.830564	-0.060547	0.544982	-1.000000	-1.000000	-1.000000	-1.000000	-1.000000	-1.000000	-1.000000	55.000000	0.000000	-1.000000	-1.000000	127874.000000	1775778528.136558
-26041.635000	-9325.755000	4389.345000	31539.870000	26945.685000	8333.595000	891.135000	-5379.345000	-1.298588	-0.364922	-1.737870	-2.450280	2.514739	4.574419	-0.524694	-0.575716	2.243220	1.388660	0.335720	-0.830564	-0.060547	0.544982	-1.000000	-1.000000	-1.000000	-1.000000	-1.000000	-1.000000	-1.000000	55.000000	0.000000	-1.000000	-1.000000	127875.000000	1775778528.138820
-26039.295000	-9322.425000	4394.115000	31545.855000	26951.670000	8345.745000	891.945000	-5377.005000	-2.769842	-4.047798	-7.388441	-6.103621	1.550941	-0.395573	-0.192269	-1.492787	2.243220	1.388660	0.335720	-0.830564	-0.060547	0.544982	-1.000000	-1.000000	-1.000000	-1.000000	-1.000000	-1.000000	-1.000000	55.000000	0.000000	-1.000000	-1.000000	127876.000000	1775778528.138845
-26037.495000	-9319.140000	4396.095000	31548.780000	26952.795000	8333.010000	889.920000	-5374.845000	-2.753314	-5.621805	-9.679215	-7.446700	0.355805	-2.692276	0.499683	-1.234696	2.243220	1.388660	0.335720	-0.830564	-0.060547	0.544982	-1.000000	-1.000000	-1.000000	-1.000000	-1.000000	-1.000000	-1.000000	55.000000	0.000000	-1.000000	-1.000000	127877.000000	1775778528.142887
-26037.270000	-9320.715000	4393.710000	31545.450000	26949.015000	8328.150000	891.765000	-5374.170000	-1.415710	-4.460973	-7.851744	-5.862615	-0.500719	-3.085981	1.488523	0.210264	2.243220	1.388660	0.335720	-0.830564	-0.060547	0.544982	-1.000000	-1.000000	-1.000000	-1.000000	-1.000000	-1.000000	-1.000000	55.000000	0.000000	-1.000000	-1.000000	127878.000000	1775778528.142907
-26039.025000	-9320.850000	4392.630000	31542.525000	26946.900000	8328.240000	890.595000	-5375.115000	0.102682	-1.852407	-3.733027	-2.860018	-1.281322	-3.621583	2.246055	1.770442	-0.625660	1.373400	0.717220	-0.830992	-0.061218	0.544310	-1.000000	-1.000000	-1.000000	-1.000000	-1.000000	-1.000000	-1.000000	55.000000	0.000000	-1.000000	-1.000000	127879.000000	1775778528.147554
-26034.480000	-9316.215000	4395.285000	31542.210000	26941.410000	8328.555000	892.260000	-5371.110000	0.866736	0.511836	0.254907	-0.358518	-2.266921	-4.281093	2.383774	2.383111	-0.625660	1.373400	0.717220	-0.830992	-0.061218	0.544310	-1.000000	-1.000000	-1.000000	-1.000000	-1.000000	-1.000000	-1.000000	55.000000	0.000000	-1.000000	-1.000000	127880.000000	1775778528.147577
-26023.230000	-9305.865000	4403.520000	31548.060000	26938.305000	8307.810000	881.910000	-5367.060000	1.056258	2.056874	2.978048	1.070627	-3.162955	-4.150141	1.679636	1.945054	-0.625660	1.373400	0.717220	-0.830992	-0.061218	0.544310	-1.000000	-1.000000	-1.000000	-1.000000	-1.000000	-1.000000	-1.000000	55.000000	0.000000	-1.000000	-1.000000	127881.000000	1775778528.153995
-26025.975000	-9308.925000	4405.320000	31550.715000	26937.045000	8287.920000	876.825000	-5364.900000	1.358832	2.964314	4.505139	2.052237	-3.317990	-3.757425	-0.007932	1.062109	-0.625660	1.373400	0.717220	-0.830992	-0.061218	0.544310	-1.000000	-1.000000	-1.000000	-1.000000	-1.000000	-1.000000	-1.000000	55.000000	0.000000	-1.000000	-1.000000	127882.000000	1775778528.154019
-26023.185000	-9306.045000	4408.290000	31554.180000	26937.720000	8273.340000	881.055000	-5363.190000	1.555379	2.951889	4.895389	3.022334	-2.204288	-4.014461	-2.062593	0.165716	-0.625660	1.373400	0.717220	-0.830992	-0.061218	0.544310	-1.000000	-1.000000	-1.000000	-1.000000	-1.000000	-1.000000	-1.000000	55.000000	0.000000	-1.000000	-1.000000	127883.000000	1775778528.154555
-26027.820000	-9311.130000	4402.395000	31545.855000	26929.080000	8260.110000	890.640000	-5365.530000	0.816518	1.547735	3.802653	3.429701	-0.088118	-4.181972	-2.766930	-0.756144	-0.625660	1.373400	0.717220	-0.830992	-0.061218	0.544310	-1.000000	-1.000000	-1.000000	-1.000000	-1.000000	-1.000000	-1.000000	55.000000	0.000000	-1.000000	-1.000000	127884.000000	1775778528.154569
-26032.320000	-9315.765000	4397.715000	31539.195000	26927.910000	8291.475000	897.705000	-5370.030000	-1.059512	-1.010227	1.085249	2.261065	1.878765	-1.918951	-0.884402	-1.876761	-0.625660	1.373400	0.717220	-0.830992	-0.061218	0.544310	-1.000000	-1.000000	-1.000000	-1.000000	-1.000000	-1.000000	-1.000000	55.000000	0.000000	-1.000000	-1.000000	127885.000000	1775778528.158903
-26028.810000	-9311.040000	4404.645000	31548.555000	26947.485000	8320.680000	895.815000	-5368.185000	-3.225197	-3.579830	-2.299947	-0.309021	3.178273	5.084341	2.524575	-3.036174	-0.625660	1.373400	0.717220	-0.830992	-0.061218	0.544310	-1.000000	-1.000000	-1.000000	-1.000000	-1.000000	-1.000000	-1.000000	55.000000	0.000000	-1.000000	-1.000000	127886.000000	1775778528.158932
-26033.670000	-9316.485000	4397.805000	31547.970000	26961.435000	8356.140000	896.670000	-5370.525000	-4.264837	-4.647730	-4.484007	-2.333560	4.774140	15.949617	4.728326	-3.527600	-0.625660	1.373400	0.717220	-0.830992	-0.061218	0.544310	-1.000000	-1.000000	-1.000000	-1.000000	-1.000000	-1.000000	-1.000000	55.000000	0.000000	-1.000000	-1.000000	127887.000000	1775778528.166787
-26047.710000	-9331.425000	4381.920000	31536.270000	26963.010000	8396.460000	899.910000	-5380.290000	-3.723786	-3.916611	-4.760774	-2.514924	6.857940	25.494588	3.984937	-2.964438	-0.625660	1.373400	0.717220	-0.830992	-0.061218	0.544310	-1.000000	-1.000000	-1.000000	-1.000000	-1.000000	-1.000000	-1.000000	55.000000	0.000000	-1.000000	-1.000000	127888.000000	1775778528.166808
-26056.530000	-9340.110000	4374.180000	31528.260000	26954.820000	8395.695000	899.910000	-5385.240000	-2.639301	-2.695861	-4.223547	-1.880932	7.158703	27.279110	0.974646	-1.912307	-2.365300	1.510740	0.869820	-0.831053	-0.061401	0.542601	-1.000000	-1.000000	-1.000000	-1.000000	-1.000000	-1.000000	-1.000000	55.000000	0.000000	-1.000000	-1.000000	127889.000000	1775778528.167285
-26042.490000	-9325.575000	4386.060000	31536.945000	26949.195000	8370.630000	894.285000	-5378.490000	-1.458468	-1.511525	-3.257578	-1.521505	3.359079	16.822615	-2.493127	-0.755176	-2.365300	1.510740	0.869820	-0.831053	-0.061401	0.542601	-1.000000	-1.000000	-1.000000	-1.000000	-1.000000	-1.000000	-1.000000	55.000000	0.000000	-1.000000	-1.000000	127890.000000	1775778528.167294
-26028.495000	-9316.215000	4393.980000	31548.285000	26954.145000	8356.815000	889.470000	-5373.090000	1.152499	1.011506	-0.532033	-0.527883	-3.514189	-4.935946	-5.127338	1.092697	-2.365300	1.510740	0.869820	-0.831053	-0.061401	0.542601	-1.000000	-1.000000	-1.000000	-1.000000	-1.000000	-1.000000	-1.000000	55.000000	0.000000	-1.000000	-1.000000	127891.000000	1775778528.170793
-26038.215000	-9324.135000	4394.070000	31557.780000	26957.655000	8334.720000	893.655000	-5373.180000	5.506120	5.167787	4.212585	2.266761	-9.322353	-29.377687	-6.153042	3.773728	-2.365300	1.510740	0.869820	-0.831053	-0.061401	0.542601	-1.000000	-1.000000	-1.000000	-1.000000	-1.000000	-1.000000	-1.000000	55.000000	0.000000	-1.000000	-1.000000	127892.000000	1775778528.170814
-26036.595000	-9323.640000	4391.820000	31559.085000	26954.910000	8321.805000	892.755000	-5373.990000	8.749973	8.254738	8.395277	5.797777	-10.633823	-44.682707	-4.970559	5.879499	-2.365300	1.510740	0.869820	-0.831053	-0.061401	0.542601	-1.000000	-1.000000	-1.000000	-1.000000	-1.000000	-1.000000	-1.000000	55.000000	0.000000	-1.000000	-1.000000	127893.000000	1775778528.174763
-26043.615000	-9327.465000	4391.955000	31562.190000	26957.925000	8333.100000	896.535000	-5374.215000	7.882079	7.584555	8.996520	7.358541	-7.462491	-43.173531	-1.809133	5.757387	-2.365300	1.510740	0.869820	-0.831053	-0.061401	0.542601	-1.000000	-1.000000	-1.000000	-1.000000	-1.000000	-1.000000	-1.000000	55.000000	0.000000	-1.000000	-1.000000	127894.000000	1775778528.174787
-26043.885000	-9327.060000	4389.435000	31547.835000	26951.535000	8338.860000	893.880000	-5374.260000	3.091188	3.437600	5.507328	5.043452	-2.328642	-24.954648	1.931622	3.240766	-2.365300	1.510740	0.869820	-0.831053	-0.061401	0.542601	-1.000000	-1.000000	-1.000000	-1.000000	-1.000000	-1.000000	-1.000000	55.000000	0.000000	-1.000000	-1.000000	127895.000000	1775778528.178687
-26039.790000	-9323.910000	4385.565000	31512.015000	26943.390000	8336.970000	890.640000	-5374.890000	-2.680308	-1.593471	-0.089748	-1.360546	1.851740	1.916090	4.425301	-0.337567	-2.365300	1.510740	0.869820	-0.831053	-0.061401	0.542601	-1.000000	-1.000000	-1.000000	-1.000000	-1.000000	-1.000000	-1.000000	55.000000	0.000000	-1.000000	-1.000000	127896.000000	1775778528.178698
-26036.685000	-9318.780000	4392.495000	31519.935000	26944.335000	8327.835000	893.430000	-5373.270000	-6.111288	-4.737169	-4.963943	-9.764367	3.464250	25.102831	4.649046	-3.271365	-2.365300	1.510740	0.869820	-0.831053	-0.061401	0.542601	-1.000000	-1.000000	-1.000000	-1.000000	-1.000000	-1.000000	-1.000000	55.000000	0.000000	-1.000000	-1.000000	127897.000000	1775778528.183027
-26036.955000	-9319.410000	4394.205000	31532.085000	26946.135000	8322.525000	891.810000	-5375.655000	-5.873927	-4.863657	-6.841827	-14.733067	3.149143	35.119557	3.104697	-4.500650	-2.365300	1.510740	0.869820	-0.831053	-0.061401	0.542601	-1.000000	-1.000000	-1.000000	-1.000000	-1.000000	-1.000000	-1.000000	55.000000	0.000000	-1.000000	-1.000000	127898.000000	1775778528.183053
-26037.045000	-9320.805000	4394.745000	31535.280000	26950.005000	8325.900000	889.920000	-5374.800000	-3.211767	-3.003400	-5.317766	-11.310136	2.693205	30.582231	1.019516	-4.012291	-4.043900	0.930860	0.778260	-0.830320	-0.063476	0.541564	-1.000000	-1.000000	-1.000000	-1.000000	-1.000000	-1.000000	-1.000000	55.000000	0.000000	-1.000000	-1.000000	127899.000000	1775778528.186926
-26037.990000	-9320.310000	4394.700000	31538.295000	26950.410000	8313.795000	883.260000	-5377.455000	-0.353059	-1.043743	-2.062129	-0.880530	2.997291	17.153070	-0.842629	-2.510989	-4.043900	0.930860	0.778260	-0.830320	-0.063476	0.541564	-1.000000	-1.000000	-1.000000	-1.000000	-1.000000	-1.000000	-1.000000	55.000000	0.000000	-1.000000	-1.000000	127900.000000	1775778528.186943
-26035.515000	-9316.800000	4401.270000	31545.045000	26953.785000	8325.585000	888.480000	-5376.735000	1.282502	0.020036	0.873666	10.037424	3.552200	2.465987	-2.112421	-0.815607	-4.043900	0.930860	0.778260	-0.830320	-0.063476	0.541564	-1.000000	-1.000000	-1.000000	-1.000000	-1.000000	-1.000000	-1.000000	55.000000	0.000000	-1.000000	-1.000000	127901.000000	1775778528.195379
-26047.260000	-9327.555000	4396.410000	31540.320000	26947.305000	8328.240000	886.005000	-5383.755000	1.393230	0.191908	2.432602	15.546040	3.292474	-7.571212	-2.310428	0.433891	-4.043900	0.930860	0.778260	-0.830320	-0.063476	0.541564	-1.000000	-1.000000	-1.000000	-1.000000	-1.000000	-1.000000	-1.000000	55.000000	0.000000	-1.000000	-1.000000	127902.000000	1775778528.195392
-26039.565000	-9324.540000	4396.455000	31540.860000	26946.855000	8318.295000	883.035000	-5379.975000	0.352861	-0.355184	2.335271	13.580742	1.564393	-10.902202	-1.389736	0.950721	-4.043900	0.930860	0.778260	-0.830320	-0.063476	0.541564	-1.000000	-1.000000	-1.000000	-1.000000	-1.000000	-1.000000	-1.000000	55.000000	0.000000	-1.000000	-1.000000	127903.000000	1775778528.195408
-26033.985000	-9321.525000	4396.905000	31542.210000	26949.645000	8316.180000	883.710000	-5373.405000	-0.597271	-0.995304	0.933657	6.147357	-1.084070	-9.678308	-0.105263	1.181892	-4.043900	0.930860	0.778260	-0.830320	-0.063476	0.541564	-1.000000	-1.000000	-1.000000	-1.000000	-1.000000	-1.000000	-1.000000	55.000000	0.000000	-1.000000	-1.000000	127904.000000	1775778528.195415
-26029.530000	-9316.035000	4396.635000	31541.265000	26945.955000	8316.045000	885.195000	-5367.645000	-0.106063	-0.640484	-0.724224	-2.400183	-3.181181	-7.039425	0.886016	1.933918	-4.043900	0.930860	0.778260	-0.830320	-0.063476	0.541564	-1.000000	-1.000000	-1.000000	-1.000000	-1.000000	-1.000000	-1.000000	55.000000	0.000000	-1.000000	-1.000000	127905.000000	1775778528.203043
-26031.915000	-9319.005000	4389.930000	31534.695000	26937.585000	8324.190000	888.120000	-5369.175000	1.527547	0.877675	-1.764770	-8.372016	-3.942169	-4.200223	1.526694	3.069757	-4.043900	0.930860	0.778260	-0.830320	-0.063476	0.541564	-1.000000	-1.000000	-1.000000	-1.000000	-1.000000	-1.000000	-1.000000	55.000000	0.000000	-1.000000	-1.000000	127906.000000	1775778528.203070
-26031.375000	-9317.520000	4393.440000	31539.735000	26935.290000	8325.270000	887.670000	-5372.055000	2.594834	2.360717	-2.024713	-10.325277	-3.751201	-1.054690	1.872424	3.289019	-4.043900	0.930860	0.778260	-0.830320	-0.063476	0.541564	-1.000000	-1.000000	-1.000000	-1.000000	-1.000000	-1.000000	-1.000000	55.000000	0.000000	-1.000000	-1.000000	127907.000000	1775778528.203097
-26030.610000	-9312.210000	4402.080000	31550.760000	26936.775000	8319.780000	886.050000	-5369.670000	1.979360	2.703578	-1.319818	-8.258639	-2.897112	1.870407	1.699537	1.694467	-4.043900	0.930860	0.778260	-0.830320	-0.063476	0.541564	-1.000000	-1.000000	-1.000000	-1.000000	-1.000000	-1.000000	-1.000000	55.000000	0.000000	-1.000000	-1.000000	127908.000000	1775778528.203109
-26027.415000	-9309.195000	4405.320000	31552.560000	26939.835000	8309.475000	883.755000	-5365.800000	0.175809	2.022594	0.598010	-3.149745	-1.098318	3.033749	0.750174	-0.908817	-2.517900	1.846460	-1.022420	-0.829954	-0.065368	0.541197	-1.000000	-1.000000	-1.000000	-1.000000	-1.000000	-1.000000	-1.000000	55.000000	0.000000	-1.000000	-1.000000	127909.000000	1775778528.206647
-26023.680000	-9311.670000	4396.995000	31532.805000	26942.535000	8306.955000	891.630000	-5361.300000	-1.451490	0.908409	2.778894	2.149273	1.572140	1.613291	-0.601104	-2.758860	-2.517900	1.846460	-1.022420	-0.829954	-0.065368	0.541197	-1.000000	-1.000000	-1.000000	-1.000000	-1.000000	-1.000000	-1.000000	55.000000	0.000000	-1.000000	-1.000000	127910.000000	1775778528.206662
-26025.480000	-9317.340000	4390.695000	31520.745000	26944.875000	8315.235000	891.180000	-5365.485000	-2.016188	-0.556313	3.202164	3.907087	4.151914	-0.924683	-1.371361	-2.976314	-2.517900	1.846460	-1.022420	-0.829954	-0.065368	0.541197	-1.000000	-1.000000	-1.000000	-1.000000	-1.000000	-1.000000	-1.000000	55.000000	0.000000	-1.000000	-1.000000	127911.000000	1775778528.210824
-26033.265000	-9323.055000	4387.275000	31525.020000	26948.340000	8330.310000	885.240000	-5375.115000	-1.867539	-2.453366	1.029526	1.366820	5.416121	-1.698625	-1.254543	-2.380099	-2.517900	1.846460	-1.022420	-0.829954	-0.065368	0.541197	-1.000000	-1.000000	-1.000000	-1.000000	-1.000000	-1.000000	-1.000000	55.000000	0.000000	-1.000000	-1.000000	127912.000000	1775778528.210841
-26044.830000	-9330.345000	4384.575000	31527.585000	26945.415000	8334.855000	883.035000	-5382.990000	-2.096925	-4.313053	-2.226087	-1.961972	4.696381	0.691573	-1.078600	-2.369297	-2.517900	1.846460	-1.022420	-0.829954	-0.065368	0.541197	-1.000000	-1.000000	-1.000000	-1.000000	-1.000000	-1.000000	-1.000000	55.000000	0.000000	-1.000000	-1.000000	127913.000000	1775778528.218383
-26041.140000	-9324.630000	4391.820000	31533.345000	26946.720000	8318.340000	884.430000	-5379.885000	-2.967125	-5.024876	-4.056476	-2.244980	2.169694	4.048654	-1.348352	-2.996262	-2.517900	1.846460	-1.022420	-0.829954	-0.065368	0.541197	-1.000000	-1.000000	-1.000000	-1.000000	-1.000000	-1.000000	-1.000000	55.000000	0.000000	-1.000000	-1.000000	127914.000000	1775778528.218404
-26036.460000	-9317.790000	4400.505000	31541.535000	26953.515000	8297.730000	888.660000	-5374.935000	-3.064640	-3.366921	-2.833511	1.049713	-0.997481	4.115408	-1.414320	-2.671798	-2.517900	1.846460	-1.022420	-0.829954	-0.065368	0.541197	-1.000000	-1.000000	-1.000000	-1.000000	-1.000000	-1.000000	-1.000000	55.000000	0.000000	-1.000000	-1.000000	127915.000000	1775778528.218418
-26038.620000	-9320.175000	4399.515000	31540.230000	26952.390000	8309.115000	891.585000	-5376.780000	-1.024564	0.599551	0.913378	5.444381	-3.187537	-0.453694	-0.486803	-0.265024	-2.517900	1.846460	-1.022420	-0.829954	-0.065368	0.541197	-1.000000	-1.000000	-1.000000	-1.000000	-1.000000	-1.000000	-1.000000	55.000000	0.000000	-1.000000	-1.000000	127916.000000	1775778528.218425
-26034.480000	-9317.565000	4400.235000	31540.050000	26953.155000	8341.740000	891.045000	-5375.115000	2.434010	4.772636	4.551522	7.646476	-3.722523	-5.117134	1.187354	3.196658	-2.517900	1.846460	-1.022420	-0.829954	-0.065368	0.541197	-1.000000	-1.000000	-1.000000	-1.000000	-1.000000	-1.000000	-1.000000	55.000000	0.000000	-1.000000	-1.000000	127917.000000	1775778528.229956
-26028.495000	-9312.345000	4405.635000	31547.700000	26962.020000	8362.980000	895.230000	-5368.230000	5.397293	6.819143	5.616871	6.086518	-2.972784	-3.885380	2.515179	5.724432	-2.517900	1.846460	-1.022420	-0.829954	-0.065368	0.541197	-1.000000	-1.000000	-1.000000	-1.000000	-1.000000	-1.000000	-1.000000	55.000000	0.000000	-1.000000	-1.000000	127918.000000	1775778528.229984
-26028.180000	-9312.480000	4405.995000	31549.005000	26963.865000	8355.825000	898.560000	-5364.945000	6.534014	6.095012	3.857863	2.010438	-1.400451	3.016593	2.755306	6.316696	1.342880	1.983800	-0.778260	-0.829649	-0.064697	0.543150	-1.000000	-1.000000	-1.000000	-1.000000	-1.000000	-1.000000	-1.000000	55.000000	0.000000	-1.000000	-1.000000	127919.000000	1775778528.230456
-26024.265000	-9312.615000	4403.430000	31544.820000	26960.895000	8358.075000	909.855000	-5357.565000	5.431434	3.307848	0.584724	-2.310897	0.264249	8.776612	2.165175	5.124576	1.342880	1.983800	-0.778260	-0.829649	-0.064697	0.543150	-1.000000	-1.000000	-1.000000	-1.000000	-1.000000	-1.000000	-1.000000	55.000000	0.000000	-1.000000	-1.000000	127920.000000	1775778528.230478
-26023.950000	-9313.695000	4398.030000	31537.530000	26951.625000	8340.390000	906.435000	-5359.365000	2.547645	-0.367717	-2.858018	-5.631980	0.766809	7.451273	1.342979	2.711687	1.342880	1.983800	-0.778260	-0.829649	-0.064697	0.543150	-1.000000	-1.000000	-1.000000	-1.000000	-1.000000	-1.000000	-1.000000	55.000000	0.000000	-1.000000	-1.000000	127921.000000	1775778528.230502
-26036.055000	-9322.605000	4391.325000	31535.370000	26951.670000	8337.330000	896.535000	-5372.460000	-1.204111	-3.763361	-5.531958	-7.551126	-0.475413	-0.740208	0.042471	-0.639577	1.342880	1.983800	-0.778260	-0.829649	-0.064697	0.543150	-1.000000	-1.000000	-1.000000	-1.000000	-1.000000	-1.000000	-1.000000	55.000000	0.000000	-1.000000	-1.000000	127922.000000	1775778528.230515
-26032.230000	-9316.845000	4392.045000	31541.085000	26961.975000	8335.530000	892.845000	-5370.300000	-4.885685	-5.922333	-6.647583	-7.445289	-2.125851	-10.358090	-2.392366	-4.621101	1.342880	1.983800	-0.778260	-0.829649	-0.064697	0.543150	-1.000000	-1.000000	-1.000000	-1.000000	-1.000000	-1.000000	-1.000000	55.000000	0.000000	-1.000000	-1.000000	127923.000000	1775778528.235694
-26019.180000	-9304.920000	4399.515000	31545.225000	26967.420000	8336.925000	894.420000	-5364.090000	-6.841815	-5.732384	-5.389282	-4.672772	-1.929559	-15.100568	-5.163293	-7.579277	1.342880	1.983800	-0.778260	-0.829649	-0.064697	0.543150	-1.000000	-1.000000	-1.000000	-1.000000	-1.000000	-1.000000	-1.000000	55.000000	0.000000	-1.000000	-1.000000	127924.000000	1775778528.235723
-26024.355000	-9309.420000	4406.130000	31549.095000	26970.930000	8337.780000	893.970000	-5363.145000	-5.497419	-2.740386	-1.523466	0.145617	0.642107	-12.276582	-6.170776	-7.325598	1.342880	1.983800	-0.778260	-0.829649	-0.064697	0.543150	-1.000000	-1.000000	-1.000000	-1.000000	-1.000000	-1.000000	-1.000000	55.000000	0.000000	-1.000000	-1.000000	127925.000000	1775778528.241671
-26023.905000	-9308.070000	4411.080000	31550.895000	26968.680000	8332.065000	891.360000	-5365.440000	-1.774942	1.313732	3.638956	4.879772	3.621365	-4.112368	-4.349035	-3.823530	1.342880	1.983800	-0.778260	-0.829649	-0.064697	0.543150	-1.000000	-1.000000	-1.000000	-1.000000	-1.000000	-1.000000	-1.000000	55.000000	0.000000	-1.000000	-1.000000	127926.000000	1775778528.241695
-26024.085000	-9306.900000	4418.910000	31556.970000	26963.145000	8304.795000	886.275000	-5365.530000	1.618651	3.823829	7.659136	7.370370	4.473558	4.078059	-0.802205	0.593713	1.342880	1.983800	-0.778260	-0.829649	-0.064697	0.543150	-1.000000	-1.000000	-1.000000	-1.000000	-1.000000	-1.000000	-1.000000	55.000000	0.000000	-1.000000	-1.000000	127927.000000	1775778528.258015
-26014.770000	-9299.565000	4429.710000	31566.870000	26957.430000	8273.070000	884.925000	-5356.845000	3.188123	3.931352	8.781569	7.020230	2.250301	7.110228	2.420022	3.733445	1.342880	1.983800	-0.778260	-0.829649	-0.064697	0.543150	-1.000000	-1.000000	-1.000000	-1.000000	-1.000000	-1.000000	-1.000000	55.000000	0.000000	-1.000000	-1.000000	127928.000000	1775778528.258041
-26008.200000	-9294.435000	4430.610000	31564.350000	26953.020000	8271.045000	879.885000	-5356.215000	3.424655	2.675033	6.845119	4.653620	-1.766859	3.997578	4.014177	5.053099	0.625660	2.029580	-0.457800	-0.829771	-0.063904	0.542906	-1.000000	-1.000000	-1.000000	-1.000000	-1.000000	-1.000000	-1.000000	55.000000	0.000000	-1.000000	-1.000000	127929.000000	1775778528.258067
-26010.540000	-9293.580000	4426.425000	31557.735000	26954.595000	8298.315000	888.210000	-5358.150000	3.117645	1.278413	2.528324	1.044861	-5.025077	-0.109249	4.061795	4.739945	0.625660	2.029580	-0.457800	-0.829771	-0.063904	0.542906	-1.000000	-1.000000	-1.000000	-1.000000	-1.000000	-1.000000	-1.000000	55.000000	0.000000	-1.000000	-1.000000	127930.000000	1775778528.258079
-26008.380000	-9292.860000	4427.955000	31561.380000	26970.885000	8359.425000	901.305000	-5355.315000	2.123723	0.025300	-3.012458	-3.157553	-5.155989	2.231903	3.801251	2.955701	0.625660	2.029580	-0.457800	-0.829771	-0.063904	0.542906	-1.000000	-1.000000	-1.000000	-1.000000	-1.000000	-1.000000	-1.000000	55.000000	0.000000	-1.000000	-1.000000	127931.000000	1775778528.258692
-26019.630000	-9306.360000	4415.670000	31553.010000	26975.250000	8385.525000	903.015000	-5361.480000	0.028255	-1.527402	-7.981277	-6.561950	-1.442037	13.080402	4.238649	0.274838	0.625660	2.029580	-0.457800	-0.829771	-0.063904	0.542906	-1.000000	-1.000000	-1.000000	-1.000000	-1.000000	-1.000000	-1.000000	55.000000	0.000000	-1.000000	-1.000000	127932.000000	1775778528.258707
-26030.070000	-9317.880000	4405.140000	31543.335000	26967.195000	8365.770000	900.045000	-5369.220000	-3.054306	-3.838265	-10.858088	-7.960726	3.818354	24.394383	4.513920	-2.510887	0.625660	2.029580	-0.457800	-0.829771	-0.063904	0.542906	-1.000000	-1.000000	-1.000000	-1.000000	-1.000000	-1.000000	-1.000000	55.000000	0.000000	-1.000000	-1.000000	127933.000000	1775778528.258725
-26029.980000	-9317.430000	4404.825000	31542.480000	26967.285000	8367.525000	907.875000	-5366.520000	-6.054422	-6.260591	-10.880611	-7.215264	6.587248	23.965053	3.004299	-4.614746	0.625660	2.029580	-0.457800	-0.829771	-0.063904	0.542906	-1.000000	-1.000000	-1.000000	-1.000000	-1.000000	-1.000000	-1.000000	55.000000	0.000000	-1.000000	-1.000000	127934.000000	1775778528.258737
-26030.880000	-9320.535000	4400.010000	31539.420000	26957.205000	8364.015000	909.360000	-5365.485000	-6.968759	-6.784508	-7.664749	-4.537299	4.822970	8.275541	-0.191831	-4.948653	0.625660	2.029580	-0.457800	-0.829771	-0.063904	0.542906	-1.000000	-1.000000	-1.000000	-1.000000	-1.000000	-1.000000	-1.000000	55.000000	0.000000	-1.000000	-1.000000	127935.000000	1775778528.259544
-26026.650000	-9317.430000	4402.080000	31544.730000	26949.375000	8336.295000	900.675000	-5363.640000	-4.459848	-4.009860	-1.790387	-0.315174	-0.172733	-14.407197	-3.645967	-2.923497	0.625660	2.029580	-0.457800	-0.829771	-0.063904	0.542906	-1.000000	-1.000000	-1.000000	-1.000000	-1.000000	-1.000000	-1.000000	55.000000	0.000000	-1.000000	-1.000000	127936.000000	1775778528.259559
-26024.715000	-9311.940000	4408.605000	31554.180000	26954.460000	8321.580000	891.225000	-5365.260000	0.667499	1.315790	4.947029	4.578222	-5.192729	-32.711631	-6.500511	0.514260	0.625660	2.029580	-0.457800	-0.829771	-0.063904	0.542906	-1.000000	-1.000000	-1.000000	-1.000000	-1.000000	-1.000000	-1.000000	55.000000	0.000000	-1.000000	-1.000000	127937.000000	1775778528.267020
-26018.550000	-9304.650000	4417.830000	31564.170000	26962.245000	8318.970000	893.655000	-5358.870000	6.001823	6.976842	10.520176	8.911188	-6.868542	-38.862545	-8.195809	3.574599	0.625660	2.029580	-0.457800	-0.829771	-0.063904	0.542906	-1.000000	-1.000000	-1.000000	-1.000000	-1.000000	-1.000000	-1.000000	55.000000	0.000000	-1.000000	-1.000000	127938.000000	1775778528.267046
-26017.245000	-9304.740000	4415.490000	31560.570000	26959.860000	8318.880000	895.590000	-5358.645000	9.122835	10.509738	13.180943	11.027680	-4.010500	-30.464701	-7.551657	5.059904	-0.518840	2.227960	-0.076300	-0.828306	-0.061035	0.543150	-1.000000	-1.000000	-1.000000	-1.000000	-1.000000	-1.000000	-1.000000	55.000000	0.000000	-1.000000	-1.000000	127939.000000	1775778528.276012
-26019.045000	-9307.800000	4410.495000	31539.960000	26957.880000	8336.700000	898.155000	-5360.805000	8.718398	10.115536	11.562233	8.941008	1.090833	-11.022205	-3.902696	4.627802	-0.518840	2.227960	-0.076300	-0.828306	-0.061035	0.543150	-1.000000	-1.000000	-1.000000	-1.000000	-1.000000	-1.000000	-1.000000	55.000000	0.000000	-1.000000	-1.000000	127940.000000	1775778528.276039
-26024.850000	-9313.020000	4405.410000	31527.495000	26960.220000	8362.935000	900.945000	-5366.160000	4.897219	5.599205	5.671533	1.927030	4.874657	11.991694	1.533217	2.387133	-0.518840	2.227960	-0.076300	-0.828306	-0.061035	0.543150	-1.000000	-1.000000	-1.000000	-1.000000	-1.000000	-1.000000	-1.000000	55.000000	0.000000	-1.000000	-1.000000	127941.000000	1775778528.276064
-26031.645000	-9318.420000	4402.035000	31532.985000	26961.795000	8360.460000	897.435000	-5372.415000	-0.890929	-1.214449	-2.227906	-7.090454	5.639831	30.092062	6.221832	-1.007056	-0.518840	2.227960	-0.076300	-0.828306	-0.061035	0.543150	-1.000000	-1.000000	-1.000000	-1.000000	-1.000000	-1.000000	-1.000000	55.000000	0.000000	-1.000000	-1.000000	127942.000000	1775778528.276076
-26028.990000	-9310.770000	4413.105000	31548.195000	26973.180000	8356.950000	898.920000	-5368.365000	-6.199208	-7.132371	-8.394318	-12.231908	4.157469	36.015611	7.992241	-4.113899	-0.518840	2.227960	-0.076300	-0.828306	-0.061035	0.543150	-1.000000	-1.000000	-1.000000	-1.000000	-1.000000	-1.000000	-1.000000	55.000000	0.000000	-1.000000	-1.000000	127943.000000	1775778528.289158
-26031.555000	-9314.730000	4409.145000	31545.090000	26967.915000	8346.240000	894.195000	-5371.515000	-8.561956	-9.297580	-9.900033	-9.769073	2.053948	27.253388	6.371491	-5.237429	-0.518840	2.227960	-0.076300	-0.828306	-0.061035	0.543150	-1.000000	-1.000000	-1.000000	-1.000000	-1.000000	-1.000000	-1.000000	55.000000	0.000000	-1.000000	-1.000000	127944.000000	1775778528.289184
-26030.115000	-9317.430000	4404.060000	31539.780000	26963.550000	8341.695000	891.585000	-5371.740000	-7.070392	-7.294222	-7.012336	-2.097686	-0.070273	8.499932	2.557796	-3.825126	-0.518840	2.227960	-0.076300	-0.828306	-0.061035	0.543150	-1.000000	-1.000000	-1.000000	-1.000000	-1.000000	-1.000000	-1.000000	55.000000	0.000000	-1.000000	-1.000000	127945.000000	1775778528.289210
-26029.620000	-9317.970000	4404.105000	31540.005000	26965.710000	8340.975000	889.470000	-5372.055000	-2.913048	-3.174806	-2.640081	4.888135	-2.377087	-10.857928	-1.536919	-0.929407	-0.518840	2.227960	-0.076300	-0.828306	-0.061035	0.543150	-1.000000	-1.000000	-1.000000	-1.000000	-1.000000	-1.000000	-1.000000	55.000000	0.000000	-1.000000	-1.000000	127946.000000	1775778528.289221
-26027.550000	-9312.435000	4412.610000	31549.095000	26971.830000	8336.070000	888.345000	-5367.195000	1.721251	0.848538	0.916318	7.611709	-4.133581	-22.381748	-4.174510	1.971833	-0.518840	2.227960	-0.076300	-0.828306	-0.061035	0.543150	-1.000000	-1.000000	-1.000000	-1.000000	-1.000000	-1.000000	-1.000000	55.000000	0.000000	-1.000000	-1.000000	127947.000000	1775778528.289236
-26023.275000	-9310.770000	4411.575000	31545.495000	26967.420000	8327.610000	885.060000	-5367.510000	4.995282	3.757042	3.241573	6.512613	-4.197077	-23.091741	-4.562214	3.915139	-0.518840	2.227960	-0.076300	-0.828306	-0.061035	0.543150	-1.000000	-1.000000	-1.000000	-1.000000	-1.000000	-1.000000	-1.000000	55.000000	0.000000	-1.000000	-1.000000	127948.000000	1775778528.289247
-26025.345000	-9312.165000	4410.135000	31542.300000	26962.875000	8333.820000	892.305000	-5367.105000	6.026654	5.126227	4.293097	3.384671	-2.815113	-15.495887	-2.966058	4.383122	-4.349100	2.395820	-0.045780	-0.828672	-0.059387	0.541503	-1.000000	-1.000000	-1.000000	-1.000000	-1.000000	-1.000000	-1.000000	55.000000	0.000000	-1.000000	-1.000000	127949.000000	1775778528.289260
-26022.330000	-9307.575000	4414.905000	31547.070000	26966.070000	8343.945000	900.855000	-5359.545000	4.810246	4.712999	3.818777	-0.295225	-1.219090	-4.084098	-0.027806	3.398407	-4.349100	2.395820	-0.045780	-0.828672	-0.059387	0.541503	-1.000000	-1.000000	-1.000000	-1.000000	-1.000000	-1.000000	-1.000000	55.000000	0.000000	-1.000000	-1.000000	127950.000000	1775778528.289271
-26015.940000	-9304.155000	4416.120000	31548.600000	26967.600000	8343.405000	899.640000	-5358.870000	2.243376	2.968821	2.227330	-3.032214	0.086215	6.914374	3.239020	1.708169	-4.349100	2.395820	-0.045780	-0.828672	-0.059387	0.541503	-1.000000	-1.000000	-1.000000	-1.000000	-1.000000	-1.000000	-1.000000	55.000000	0.000000	-1.000000	-1.000000	127951.000000	1775778528.293417
-26015.535000	-9303.885000	4416.435000	31547.295000	26965.710000	8338.635000	892.485000	-5362.470000	-0.251174	0.861907	0.407836	-3.861829	1.243159	13.645509	4.976083	-0.045217	-4.349100	2.395820	-0.045780	-0.828672	-0.059387	0.541503	-1.000000	-1.000000	-1.000000	-1.000000	-1.000000	-1.000000	-1.000000	55.000000	0.000000	-1.000000	-1.000000	127952.000000	1775778528.293437
-26009.100000	-9296.235000	4426.470000	31558.680000	26972.865000	8340.030000	899.145000	-5355.225000	-1.776324	-0.856466	-0.921435	-2.935334	2.179645	13.862328	3.806236	-1.695644	-4.349100	2.395820	-0.045780	-0.828672	-0.059387	0.541503	-1.000000	-1.000000	-1.000000	-1.000000	-1.000000	-1.000000	-1.000000	55.000000	0.000000	-1.000000	-1.000000	127953.000000	1775778528.296975
-26010.855000	-9297.900000	4426.380000	31561.020000	26969.445000	8326.575000	891.855000	-5356.305000	-2.312502	-1.819337	-1.296507	-0.878350	2.686993	8.425261	0.531038	-2.822807	-4.349100	2.395820	-0.045780	-0.828672	-0.059387	0.541503	-1.000000	-1.000000	-1.000000	-1.000000	-1.000000	-1.000000	-1.000000	55.000000	0.000000	-1.000000	-1.000000	127954.000000	1775778528.296993
-26014.545000	-9299.655000	4424.400000	31560.030000	26963.280000	8304.255000	879.075000	-5361.615000	-2.443015	-2.212648	-1.011820	1.262955	2.352695	0.100073	-3.073068	-3.116335	-4.349100	2.395820	-0.045780	-0.828672	-0.059387	0.541503	-1.000000	-1.000000	-1.000000	-1.000000	-1.000000	-1.000000	-1.000000	55.000000	0.000000	-1.000000	-1.000000	127955.000000	1775778528.301871
-26011.305000	-9297.225000	4427.010000	31565.160000	26965.530000	8302.635000	878.985000	-5361.795000	-2.706505	-2.497435	-0.963504	2.176901	0.860122	-7.922120	-5.807229	-2.949372	-4.349100	2.395820	-0.045780	-0.828672	-0.059387	0.541503	-1.000000	-1.000000	-1.000000	-1.000000	-1.000000	-1.000000	-1.000000	55.000000	0.000000	-1.000000	-1.000000	127956.000000	1775778528.301889
-26004.105000	-9294.840000	4424.130000	31557.960000	26965.755000	8299.395000	881.370000	-5358.285000	-2.701777	-2.571047	-1.461462	1.360001	-1.046242	-12.063216	-6.457244	-2.483033	-4.349100	2.395820	-0.045780	-0.828672	-0.059387	0.541503	-1.000000	-1.000000	-1.000000	-1.000000	-1.000000	-1.000000	-1.000000	55.000000	0.000000	-1.000000	-1.000000	127957.000000	1775778528.306968
-26007.885000	-9299.070000	4420.530000	31543.695000	26965.170000	8308.935000	883.710000	-5358.195000	-1.701231	-2.069725	-2.139760	-0.950468	-2.088421	-9.856295	-4.071531	-1.337832	-4.349100	2.395820	-0.045780	-0.828672	-0.059387	0.541503	-1.000000	-1.000000	-1.000000	-1.000000	-1.000000	-1.000000	-1.000000	55.000000	0.000000	-1.000000	-1.000000	127958.000000	1775778528.306995
-26014.545000	-9307.080000	4411.035000	31530.420000	26951.535000	8331.705000	890.820000	-5364.000000	-0.217483	-1.334598	-2.712692	-4.242598	-2.064851	-1.810763	0.659094	0.318449	-3.967600	2.426340	0.671440	-0.828977	-0.059570	0.541686	-1.000000	-1.000000	-1.000000	-1.000000	-1.000000	-1.000000	-1.000000	55.000000	0.000000	-1.000000	-1.000000	127959.000000	1775778528.307548
-26012.925000	-9304.155000	4415.715000	31538.340000	26951.445000	8325.045000	891.270000	-5361.570000	0.512307	-0.945760	-2.887868	-6.868794	-1.844932	8.382127	5.527589	1.578349	-3.967600	2.426340	0.671440	-0.828977	-0.059570	0.541686	-1.000000	-1.000000	-1.000000	-1.000000	-1.000000	-1.000000	-1.000000	55.000000	0.000000	-1.000000	-1.000000	127960.000000	1775778528.307565
-26009.865000	-9302.895000	4417.605000	31543.110000	26960.985000	8329.680000	896.130000	-5358.105000	0.419642	-0.568173	-1.936038	-6.156215	-1.505543	15.006964	8.171871	2.046722	-3.967600	2.426340	0.671440	-0.828977	-0.059570	0.541686	-1.000000	-1.000000	-1.000000	-1.000000	-1.000000	-1.000000	-1.000000	55.000000	0.000000	-1.000000	-1.000000	127961.000000	1775778528.311658
-26017.740000	-9310.590000	4410.270000	31542.030000	26969.850000	8352.585000	895.770000	-5365.305000	0.343280	0.375228	0.359707	-1.231583	0.109060	14.527183	7.441106	2.007853	-3.967600	2.426340	0.671440	-0.828977	-0.059570	0.541686	-1.000000	-1.000000	-1.000000	-1.000000	-1.000000	-1.000000	-1.000000	55.000000	0.000000	-1.000000	-1.000000	127962.000000	1775778528.311681
-26029.215000	-9318.285000	4407.660000	31544.820000	26977.860000	8347.950000	892.080000	-5371.290000	0.265727	1.335982	2.715771	5.283480	3.281216	8.457339	3.803068	1.360377	-3.967600	2.426340	0.671440	-0.828977	-0.059570	0.541686	-1.000000	-1.000000	-1.000000	-1.000000	-1.000000	-1.000000	-1.000000	55.000000	0.000000	-1.000000	-1.000000	127963.000000	1775778528.316033
-26025.570000	-9317.655000	4405.455000	31540.320000	26970.075000	8344.305000	893.565000	-5369.220000	-0.301722	1.460803	3.669494	9.526463	6.096879	0.138724	-1.148892	0.002307	-3.967600	2.426340	0.671440	-0.828977	-0.059570	0.541686	-1.000000	-1.000000	-1.000000	-1.000000	-1.000000	-1.000000	-1.000000	55.000000	0.000000	-1.000000	-1.000000	127964.000000	1775778528.316059
-26025.480000	-9317.745000	4408.605000	31541.760000	26967.690000	8353.530000	901.710000	-5365.620000	-0.708076	1.076616	3.180039	9.392117	5.877245	-7.816316	-5.135724	-1.127506	-3.967600	2.426340	0.671440	-0.828977	-0.059570	0.541686	-1.000000	-1.000000	-1.000000	-1.000000	-1.000000	-1.000000	-1.000000	55.000000	0.000000	-1.000000	-1.000000	127965.000000	1775778528.319748
-26024.580000	-9313.650000	4414.455000	31546.350000	26973.405000	8353.755000	899.145000	-5365.440000	0.106449	1.181599	2.336887	5.627395	2.103181	-12.775174	-6.311686	-0.919045	-3.967600	2.426340	0.671440	-0.828977	-0.059570	0.541686	-1.000000	-1.000000	-1.000000	-1.000000	-1.000000	-1.000000	-1.000000	55.000000	0.000000	-1.000000	-1.000000	127966.000000	1775778528.319768
-26025.030000	-9311.625000	4417.020000	31548.150000	26976.465000	8349.255000	896.355000	-5365.440000	1.921443	2.110754	2.051400	0.847969	-2.667846	-13.197650	-4.858739	0.434416	-3.967600	2.426340	0.671440	-0.828977	-0.059570	0.541686	-1.000000	-1.000000	-1.000000	-1.000000	-1.000000	-1.000000	-1.000000	55.000000	0.000000	-1.000000	-1.000000	127967.000000	1775778528.337751
-26024.265000	-9307.935000	4422.285000	31555.170000	26982.360000	8345.835000	890.865000	-5369.085000	3.480933	3.230387	2.205241	-2.586805	-5.364787	-10.047447	-2.630709	1.645911	-3.967600	2.426340	0.671440	-0.828977	-0.059570	0.541686	-1.000000	-1.000000	-1.000000	-1.000000	-1.000000	-1.000000	-1.000000	55.000000	0.000000	-1.000000	-1.000000	127968.000000	1775778528.337777
-26019.855000	-9307.035000	4418.775000	31551.480000	26976.285000	8344.710000	888.120000	-5368.950000	3.838746	3.558289	1.939336	-3.899782	-5.103315	-5.411606	-1.152649	1.666597	-2.975700	1.815940	1.129240	-0.830198	-0.060974	0.541503	-1.000000	-1.000000	-1.000000	-1.000000	-1.000000	-1.000000	-1.000000	55.000000	0.000000	-1.000000	-1.000000	127969.000000	1775778528.337805
-26022.105000	-9311.580000	4407.885000	31542.795000	26966.835000	8342.550000	886.950000	-5368.230000	2.926922	2.417722	0.320342	-3.986795	-3.444952	-0.810747	-0.539170	0.593072	-2.975700	1.815940	1.129240	-0.830198	-0.060974	0.541503	-1.000000	-1.000000	-1.000000	-1.000000	-1.000000	-1.000000	-1.000000	55.000000	0.000000	-1.000000	-1.000000	127970.000000	1775778528.337817
-26016.075000	-9307.035000	4413.420000	31549.365000	26971.920000	8337.645000	886.770000	-5361.840000	1.216441	-0.066856	-2.663705	-4.045860	-2.248630	2.878629	-0.003924	-0.518945	-2.975700	1.815940	1.129240	-0.830198	-0.060974	0.541503	-1.000000	-1.000000	-1.000000	-1.000000	-1.000000	-1.000000	-1.000000	55.000000	0.000000	-1.000000	-1.000000	127971.000000	1775778528.337832
-26012.340000	-9307.395000	4413.285000	31548.195000	26969.445000	8328.960000	883.170000	-5359.590000	-0.519237	-2.721833	-5.282278	-3.887042	-1.558352	4.958047	0.975757	-0.682521	-2.975700	1.815940	1.129240	-0.830198	-0.060974	0.541503	-1.000000	-1.000000	-1.000000	-1.000000	-1.000000	-1.000000	-1.000000	55.000000	0.000000	-1.000000	-1.000000	127972.000000	1775778528.337843
-26012.070000	-9308.115000	4412.970000	31546.305000	26963.865000	8319.915000	879.390000	-5359.230000	-1.614532	-4.212019	-5.568862	-2.742087	-0.561407	5.013620	2.050526	0.041544	-2.975700	1.815940	1.129240	-0.830198	-0.060974	0.541503	-1.000000	-1.000000	-1.000000	-1.000000	-1.000000	-1.000000	-1.000000	55.000000	0.000000	-1.000000	-1.000000	127973.000000	1775778528.337857
-26011.710000	-9302.715000	4418.640000	31552.020000	26964.315000	8302.140000	877.590000	-5359.815000	-2.106172	-4.055850	-3.315050	-0.732169	0.718553	3.234065	2.535105	0.657709	-2.975700	1.815940	1.129240	-0.830198	-0.060974	0.541503	-1.000000	-1.000000	-1.000000	-1.000000	-1.000000	-1.000000	-1.000000	55.000000	0.000000	-1.000000	-1.000000	127974.000000	1775778528.337867
-26008.740000	-9296.820000	4423.095000	31557.510000	26970.975000	8308.710000	880.695000	-5361.570000	-2.345491	-2.416950	0.271276	1.586545	2.001649	0.745162	2.327747	0.332264	-2.975700	1.815940	1.129240	-0.830198	-0.060974	0.541503	-1.000000	-1.000000	-1.000000	-1.000000	-1.000000	-1.000000	-1.000000	55.000000	0.000000	-1.000000	-1.000000	127975.000000	1775778528.339173
-26012.970000	-9304.830000	4415.220000	31539.465000	26966.475000	8313.570000	886.950000	-5365.710000	-2.428881	-0.106263	3.404237	3.279915	3.242323	-0.279082	2.058300	-0.922520	-2.975700	1.815940	1.129240	-0.830198	-0.060974	0.541503	-1.000000	-1.000000	-1.000000	-1.000000	-1.000000	-1.000000	-1.000000	55.000000	0.000000	-1.000000	-1.000000	127976.000000	1775778528.339191
-26020.935000	-9311.130000	4414.725000	31541.760000	26965.260000	8330.355000	893.790000	-5367.600000	-2.514561	1.237920	4.306649	2.954414	3.873910	1.842254	2.329328	-2.422474	-2.975700	1.815940	1.129240	-0.830198	-0.060974	0.541503	-1.000000	-1.000000	-1.000000	-1.000000	-1.000000	-1.000000	-1.000000	55.000000	0.000000	-1.000000	-1.000000	127977.000000	1775778528.343212
-26029.125000	-9320.040000	4406.715000	31536.450000	26953.920000	8340.840000	900.810000	-5371.155000	-2.902375	0.464103	2.511187	0.624292	2.983192	6.345448	2.986621	-3.283053	-2.975700	1.815940	1.129240	-0.830198	-0.060974	0.541503	-1.000000	-1.000000	-1.000000	-1.000000	-1.000000	-1.000000	-1.000000	55.000000	0.000000	-1.000000	-1.000000	127978.000000	1775778528.343227
-26023.635000	-9317.700000	4404.600000	31534.515000	26952.975000	8325.360000	899.280000	-5368.680000	-3.187843	-1.622756	-0.696759	-1.826182	0.481589	9.789149	3.099737	-2.874400	-1.648080	1.678600	0.701960	-0.833189	-0.063476	0.541380	-1.000000	-1.000000	-1.000000	-1.000000	-1.000000	-1.000000	-1.000000	55.000000	0.000000	-1.000000	-1.000000	127979.000000	1775778528.348600
-26021.205000	-9314.280000	4407.120000	31536.270000	26955.180000	8319.105000	890.055000	-5367.330000	-2.105805	-2.760724	-3.219871	-2.654626	-2.238965	8.144789	1.483545	-1.091441	-1.648080	1.678600	0.701960	-0.833189	-0.063476	0.541380	-1.000000	-1.000000	-1.000000	-1.000000	-1.000000	-1.000000	-1.000000	55.000000	0.000000	-1.000000	-1.000000	127980.000000	1775778528.348624
-26011.305000	-9302.670000	4418.460000	31547.970000	26965.620000	8323.965000	886.005000	-5361.930000	1.011680	-1.201381	-3.226447	-1.217727	-3.062269	0.996780	-2.200662	1.546909	-1.648080	1.678600	0.701960	-0.833189	-0.063476	0.541380	-1.000000	-1.000000	-1.000000	-1.000000	-1.000000	-1.000000	-1.000000	55.000000	0.000000	-1.000000	-1.000000	127981.000000	1775778528.351867
-26010.765000	-9308.025000	4412.835000	31549.770000	26970.525000	8343.765000	889.470000	-5361.300000	5.055259	2.538513	-0.508110	1.981498	-1.038721	-6.861045	-6.319545	3.992704	-1.648080	1.678600	0.701960	-0.833189	-0.063476	0.541380	-1.000000	-1.000000	-1.000000	-1.000000	-1.000000	-1.000000	-1.000000	55.000000	0.000000	-1.000000	-1.000000	127982.000000	1775778528.351889
-26015.130000	-9313.695000	4405.860000	31548.285000	26969.895000	8359.740000	893.295000	-5362.875000	7.585020	5.634134	2.695217	5.016635	2.403553	-9.657903	-8.040974	5.021464	-1.648080	1.678600	0.701960	-0.833189	-0.063476	0.541380	-1.000000	-1.000000	-1.000000	-1.000000	-1.000000	-1.000000	-1.000000	55.000000	0.000000	-1.000000	-1.000000	127983.000000	1775778528.359868
-26018.370000	-9312.345000	4406.130000	31550.670000	26967.195000	8342.595000	890.865000	-5365.620000	6.579573	5.488808	3.649730	5.630242	4.444548	-6.494600	-5.978464	3.878985	-1.648080	1.678600	0.701960	-0.833189	-0.063476	0.541380	-1.000000	-1.000000	-1.000000	-1.000000	-1.000000	-1.000000	-1.000000	55.000000	0.000000	-1.000000	-1.000000	127984.000000	1775778528.359896
-26032.275000	-9317.610000	4404.060000	31551.660000	26966.070000	8320.635000	886.140000	-5371.740000	2.080799	2.281506	1.983172	3.312866	3.348430	-2.379270	-1.624622	0.880702	-1.648080	1.678600	0.701960	-0.833189	-0.063476	0.541380	-1.000000	-1.000000	-1.000000	-1.000000	-1.000000	-1.000000	-1.000000	55.000000	0.000000	-1.000000	-1.000000	127985.000000	1775778528.360564
-26024.355000	-9308.520000	4413.060000	31553.775000	26976.330000	8327.655000	887.760000	-5368.275000	-3.630553	-1.572552	-0.366295	-0.425073	0.056327	-2.067703	2.276584	-2.556322	-1.648080	1.678600	0.701960	-0.833189	-0.063476	0.541380	-1.000000	-1.000000	-1.000000	-1.000000	-1.000000	-1.000000	-1.000000	55.000000	0.000000	-1.000000	-1.000000	127986.000000	1775778528.360579
-26018.550000	-9303.525000	4416.570000	31538.160000	26974.845000	8334.360000	888.030000	-5366.610000	-7.056034	-3.504080	-1.288222	-3.870180	-2.849134	-4.217668	4.217442	-4.522409	-1.648080	1.678600	0.701960	-0.833189	-0.063476	0.541380	-1.000000	-1.000000	-1.000000	-1.000000	-1.000000	-1.000000	-1.000000	55.000000	0.000000	-1.000000	-1.000000	127987.000000	1775778528.365447
-26018.865000	-9309.240000	4407.930000	31528.440000	26960.670000	8336.385000	888.390000	-5367.420000	-6.006629	-2.749060	-0.511758	-6.469560	-4.071550	-4.266417	4.349952	-3.968584	-1.648080	1.678600	0.701960	-0.833189	-0.063476	0.541380	-1.000000	-1.000000	-1.000000	-1.000000	-1.000000	-1.000000	-1.000000	55.000000	0.000000	-1.000000	-1.000000	127988.000000	1775778528.365469
-26015.535000	-9310.005000	4406.355000	31530.285000	26953.560000	8335.305000	893.835000	-5362.290000	-1.689807	-0.928620	0.272683	-7.832469	-4.538903	-0.720625	3.495615	-1.532766	-0.396760	0.518840	0.625660	-0.833921	-0.065430	0.541625	-1.000000	-1.000000	-1.000000	-1.000000	-1.000000	-1.000000	-1.000000	55.000000	0.000000	-1.000000	-1.000000	127989.000000	1775778528.374315
-26014.590000	-9306.135000	4412.475000	31540.005000	26957.160000	8324.685000	895.590000	-5360.220000	2.749295	0.119417	-0.094961	-6.538298	-4.854380	3.793526	2.458031	1.314910	-0.396760	0.518840	0.625660	-0.833921	-0.065430	0.541625	-1.000000	-1.000000	-1.000000	-1.000000	-1.000000	-1.000000	-1.000000	55.000000	0.000000	-1.000000	-1.000000	127990.000000	1775778528.374338
-26013.645000	-9305.325000	4413.285000	31542.525000	26961.525000	8322.705000	895.320000	-5359.590000	4.936526	0.226347	-0.818318	-1.748048	-3.835326	5.902481	1.523347	3.259822	-0.396760	0.518840	0.625660	-0.833921	-0.065430	0.541625	-1.000000	-1.000000	-1.000000	-1.000000	-1.000000	-1.000000	-1.000000	55.000000	0.000000	-1.000000	-1.000000	127991.000000	1775778528.374366
-26014.320000	-9304.740000	4415.580000	31547.745000	26974.620000	8333.505000	890.460000	-5363.415000	4.286543	0.077034	-0.806751	4.743301	-0.354762	4.927214	0.334376	3.424651	-0.396760	0.518840	0.625660	-0.833921	-0.065430	0.541625	-1.000000	-1.000000	-1.000000	-1.000000	-1.000000	-1.000000	-1.000000	55.000000	0.000000	-1.000000	-1.000000	127992.000000	1775778528.374377
-26015.940000	-9305.055000	4414.950000	31549.185000	26981.730000	8343.270000	886.185000	-5366.790000	1.669721	-0.011510	-0.121282	9.509494	4.812685	3.145493	-1.453583	1.676052	-0.396760	0.518840	0.625660	-0.833921	-0.065430	0.541625	-1.000000	-1.000000	-1.000000	-1.000000	-1.000000	-1.000000	-1.000000	55.000000	0.000000	-1.000000	-1.000000	127993.000000	1775778528.374986
-26017.695000	-9308.205000	4409.235000	31540.185000	26971.650000	8339.310000	885.735000	-5367.015000	-1.416890	-0.161084	0.375743	9.954180	8.852126	2.488748	-3.404873	-1.075693	-0.396760	0.518840	0.625660	-0.833921	-0.065430	0.541625	-1.000000	-1.000000	-1.000000	-1.000000	-1.000000	-1.000000	-1.000000	55.000000	0.000000	-1.000000	-1.000000	127994.000000	1775778528.375005
-26014.365000	-9304.425000	4415.085000	31549.905000	26978.850000	8333.145000	888.930000	-5362.470000	-3.533830	-0.450189	0.095773	5.933759	8.773890	2.154407	-4.311770	-3.144978	-0.396760	0.518840	0.625660	-0.833921	-0.065430	0.541625	-1.000000	-1.000000	-1.000000	-1.000000	-1.000000	-1.000000	-1.000000	55.000000	0.000000	-1.000000	-1.000000	127995.000000	1775778528.378979
-26014.680000	-9304.920000	4416.885000	31555.485000	26980.650000	8321.670000	880.695000	-5366.430000	-3.790566	-0.584801	-0.468046	0.165645	4.478488	0.238420	-3.399071	-3.273440	-0.396760	0.518840	0.625660	-0.833921	-0.065430	0.541625	-1.000000	-1.000000	-1.000000	-1.000000	-1.000000	-1.000000	-1.000000	55.000000	0.000000	-1.000000	-1.000000	127996.000000	1775778528.378995
-26012.835000	-9304.695000	4417.470000	31557.240000	26978.625000	8318.880000	882.180000	-5365.620000	-2.318262	-0.302499	-0.471630	-3.930254	-1.241019	-3.418344	-1.307626	-1.742730	-0.396760	0.518840	0.625660	-0.833921	-0.065430	0.541625	-1.000000	-1.000000	-1.000000	-1.000000	-1.000000	-1.000000	-1.000000	55.000000	0.000000	-1.000000	-1.000000	127997.000000	1775778528.384180
-26020.935000	-9315.090000	4404.960000	31544.235000	26963.820000	8324.100000	887.400000	-5368.905000	-0.282457	0.014109	-0.154624	-5.384919	-5.896007	-6.550458	0.905925	0.136455	-0.396760	0.518840	0.625660	-0.833921	-0.065430	0.541625	-1.000000	-1.000000	-1.000000	-1.000000	-1.000000	-1.000000	-1.000000	55.000000	0.000000	-1.000000	-1.000000	127998.000000	1775778528.384207
-26028.900000	-9319.995000	4399.110000	31535.685000	26958.420000	8324.640000	889.200000	-5371.515000	0.791642	-0.368798	-0.603508	-5.706648	-8.699699	-6.481900	2.839068	1.265711	0.610400	1.190280	0.930860	-0.830320	-0.066833	0.541564	-1.000000	-1.000000	-1.000000	-1.000000	-1.000000	-1.000000	-1.000000	55.000000	0.000000	-1.000000	-1.000000	127999.000000	1775778528.405360
-26027.730000	-9316.395000	4403.745000	31528.080000	26965.260000	8319.510000	882.630000	-5373.315000	0.330316	-1.310837	-1.844241	-6.133392	-9.081628	-2.971429	4.002261	1.319702	0.610400	1.190280	0.930860	-0.830320	-0.066833	0.541564	-1.000000	-1.000000	-1.000000	-1.000000	-1.000000	-1.000000	-1.000000	55.000000	0.000000	-1.000000	-1.000000	128000.000000	1775778528.405384
-26021.700000	-9310.635000	4411.485000	31534.650000	26974.980000	8321.715000	880.875000	-5371.155000	-0.452278	-1.420563	-2.150324	-5.895558	-5.977449	1.578606	3.511957	0.779036	0.610400	1.190280	0.930860	-0.830320	-0.066833	0.541564	-1.000000	-1.000000	-1.000000	-1.000000	-1.000000	-1.000000	-1.000000	55.000000	0.000000	-1.000000	-1.000000	128001.000000	1775778528.405412
-26025.255000	-9312.435000	4407.750000	31536.135000	26970.210000	8327.385000	876.780000	-5378.040000	0.010966	0.219011	-0.276479	-3.368048	0.180451	4.796585	1.290910	0.329663	0.610400	1.190280	0.930860	-0.830320	-0.066833	0.541564	-1.000000	-1.000000	-1.000000	-1.000000	-1.000000	-1.000000	-1.000000	55.000000	0.000000	-1.000000	-1.000000	128002.000000	1775778528.405424
-26013.825000	-9300.240000	4418.235000	31546.170000	26977.050000	8330.535000	875.565000	-5373.495000	1.776705	2.810415	2.765200	1.619457	6.378974	5.997483	-1.456214	0.186388	0.610400	1.190280	0.930860	-0.830320	-0.066833	0.541564	-1.000000	-1.000000	-1.000000	-1.000000	-1.000000	-1.000000	-1.000000	55.000000	0.000000	-1.000000	-1.000000	128003.000000	1775778528.405446
-26011.170000	-9296.550000	4429.125000	31559.310000	26985.600000	8302.365000	873.810000	-5366.295000	3.800564	4.924930	5.231449	7.310035	9.612706	4.902302	-3.215160	0.493403	0.610400	1.190280	0.930860	-0.830320	-0.066833	0.541564	-1.000000	-1.000000	-1.000000	-1.000000	-1.000000	-1.000000	-1.000000	55.000000	0.000000	-1.000000	-1.000000	128004.000000	1775778528.405457
-26016.120000	-9302.040000	4422.870000	31551.345000	26970.345000	8263.980000	861.435000	-5368.995000	4.748413	5.323205	6.015194	11.030359	8.861408	0.332745	-3.411945	1.374698	0.610400	1.190280	0.930860	-0.830320	-0.066833	0.541564	-1.000000	-1.000000	-1.000000	-1.000000	-1.000000	-1.000000	-1.000000	55.000000	0.000000	-1.000000	-1.000000	128005.000000	1775778528.405470
-26009.820000	-9301.680000	4417.380000	31541.535000	26960.805000	8257.230000	864.675000	-5367.690000	3.545733	3.150265	4.149471	10.113948	4.259587	-7.299903	-2.569898	2.131305	0.610400	1.190280	0.930860	-0.830320	-0.066833	0.541564	-1.000000	-1.000000	-1.000000	-1.000000	-1.000000	-1.000000	-1.000000	55.000000	0.000000	-1.000000	-1.000000	128006.000000	1775778528.405481
-26018.280000	-9311.490000	4407.120000	31532.355000	26961.930000	8311.545000	886.185000	-5371.740000	0.457285	-1.123931	-0.529316	3.864440	-2.553302	-12.187358	-0.712425	1.740851	0.610400	1.190280	0.930860	-0.830320	-0.066833	0.541564	-1.000000	-1.000000	-1.000000	-1.000000	-1.000000	-1.000000	-1.000000	55.000000	0.000000	-1.000000	-1.000000	128007.000000	1775778528.405494
-26024.985000	-9315.855000	4407.165000	31538.565000	26978.805000	8378.235000	903.555000	-5370.255000	-3.256676	-5.682151	-6.129070	-4.645177	-7.617667	-5.983232	3.028132	0.092862	0.610400	1.190280	0.930860	-0.830320	-0.066833	0.541564	-1.000000	-1.000000	-1.000000	-1.000000	-1.000000	-1.000000	-1.000000	55.000000	0.000000	-1.000000	-1.000000	128008.000000	1775778528.405504
-26027.055000	-9317.250000	4405.995000	31537.260000	26978.220000	8385.615000	898.695000	-5371.065000	-6.262378	-8.390189	-9.480689	-10.316107	-7.424406	11.628234	7.673123	-1.864285	0.808780	1.815940	0.991900	-0.828245	-0.066162	0.541808	-1.000000	-1.000000	-1.000000	-1.000000	-1.000000	-1.000000	-1.000000	55.000000	0.000000	-1.000000	-1.000000	128009.000000	1775778528.418428
-26023.140000	-9313.290000	4406.805000	31538.160000	26973.090000	8360.460000	888.255000	-5374.935000	-7.103031	-7.689413	-8.498948	-10.209437	-2.780892	27.617918	9.308785	-3.047194	0.808780	1.815940	0.991900	-0.828245	-0.066162	0.541808	-1.000000	-1.000000	-1.000000	-1.000000	-1.000000	-1.000000	-1.000000	55.000000	0.000000	-1.000000	-1.000000	128010.000000	1775778528.418456
-26023.140000	-9312.975000	4410.585000	31540.635000	26975.520000	8355.645000	887.625000	-5373.585000	-4.899101	-3.580699	-3.693278	-5.393170	2.106350	26.807693	5.065078	-3.066116	0.808780	1.815940	0.991900	-0.828245	-0.066162	0.541808	-1.000000	-1.000000	-1.000000	-1.000000	-1.000000	-1.000000	-1.000000	55.000000	0.000000	-1.000000	-1.000000	128011.000000	1775778528.418481
-26025.840000	-9314.415000	4407.885000	31536.810000	26969.580000	8353.845000	883.215000	-5375.340000	-0.591961	1.961190	2.400857	0.778680	4.063756	7.720969	-3.111674	-2.085629	0.808780	1.815940	0.991900	-0.828245	-0.066162	0.541808	-1.000000	-1.000000	-1.000000	-1.000000	-1.000000	-1.000000	-1.000000	55.000000	0.000000	-1.000000	-1.000000	128012.000000	1775778528.418493
-26014.995000	-9307.755000	4410.855000	31535.730000	26966.430000	8353.350000	882.045000	-5371.695000	3.674781	6.269329	6.866020	5.067682	2.803651	-16.843426	-10.227982	-0.472730	0.808780	1.815940	0.991900	-0.828245	-0.066162	0.541808	-1.000000	-1.000000	-1.000000	-1.000000	-1.000000	-1.000000	-1.000000	55.000000	0.000000	-1.000000	-1.000000	128013.000000	1775778528.418605
-26017.785000	-9312.345000	4406.310000	31530.645000	26961.210000	8344.935000	884.340000	-5368.725000	6.317447	7.764739	7.986706	5.922572	-0.144464	-32.454917	-12.432797	1.328979	0.808780	1.815940	0.991900	-0.828245	-0.066162	0.541808	-1.000000	-1.000000	-1.000000	-1.000000	-1.000000	-1.000000	-1.000000	55.000000	0.000000	-1.000000	-1.000000	128014.000000	1775778528.418617
-26025.030000	-9315.405000	4404.645000	31529.430000	26960.310000	8329.095000	879.615000	-5374.305000	6.454770	6.216283	5.828004	3.880315	-2.743991	-33.193669	-9.160103	2.689594	0.808780	1.815940	0.991900	-0.828245	-0.066162	0.541808	-1.000000	-1.000000	-1.000000	-1.000000	-1.000000	-1.000000	-1.000000	55.000000	0.000000	-1.000000	-1.000000	128015.000000	1775778528.419214
-26018.145000	-9312.885000	4406.355000	31533.345000	26969.580000	8327.610000	882.675000	-5370.030000	3.925668	2.516246	1.890439	0.872513	-3.314521	-22.150827	-2.776284	2.874030	0.808780	1.815940	0.991900	-0.828245	-0.066162	0.541808	-1.000000	-1.000000	-1.000000	-1.000000	-1.000000	-1.000000	-1.000000	55.000000	0.000000	-1.000000	-1.000000	128016.000000	1775778528.419230
-26021.655000	-9317.205000	4404.015000	31534.470000	26975.070000	8330.760000	889.380000	-5368.005000	0.163042	-1.468321	-1.729309	-1.055819	-1.185257	-5.938384	3.611156	1.903015	0.808780	1.815940	0.991900	-0.828245	-0.066162	0.541808	-1.000000	-1.000000	-1.000000	-1.000000	-1.000000	-1.000000	-1.000000	55.000000	0.000000	-1.000000	-1.000000	128017.000000	1775778528.426047
-26019.855000	-9314.505000	4407.570000	31539.195000	26979.705000	8338.005000	892.935000	-5365.440000	-2.794102	-4.014196	-3.566192	-1.079027	2.594361	9.665000	7.996371	0.647233	0.808780	1.815940	0.991900	-0.828245	-0.066162	0.541808	-1.000000	-1.000000	-1.000000	-1.000000	-1.000000	-1.000000	-1.000000	55.000000	0.000000	-1.000000	-1.000000	128018.000000	1775778528.426072
-26016.030000	-9311.040000	4408.200000	31537.845000	26974.035000	8327.835000	887.535000	-5363.955000	-3.862823	-4.355301	-3.342893	0.108675	5.487377	20.324208	9.311584	-0.216663	-0.747740	1.297100	0.381500	-0.830198	-0.063476	0.542174	-1.000000	-1.000000	-1.000000	-1.000000	-1.000000	-1.000000	-1.000000	55.000000	0.000000	-1.000000	-1.000000	128019.000000	1775778528.444248
-26010.450000	-9304.740000	4412.880000	31539.735000	26973.180000	8328.285000	889.065000	-5361.570000	-2.947250	-2.613224	-1.685246	1.136229	5.256857	23.162175	7.179969	-0.622737	-0.747740	1.297100	0.381500	-0.830198	-0.063476	0.542174	-1.000000	-1.000000	-1.000000	-1.000000	-1.000000	-1.000000	-1.000000	55.000000	0.000000	-1.000000	-1.000000	128020.000000	1775778528.444273
-26009.955000	-9303.840000	4415.445000	31541.850000	26974.845000	8329.545000	889.245000	-5362.335000	-0.791005	0.197999	0.371461	1.130097	1.926438	18.315307	2.673682	-0.814796	-0.747740	1.297100	0.381500	-0.830198	-0.063476	0.542174	-1.000000	-1.000000	-1.000000	-1.000000	-1.000000	-1.000000	-1.000000	55.000000	0.000000	-1.000000	-1.000000	128021.000000	1775778528.444299
-26011.665000	-9304.650000	4417.470000	31544.325000	26976.645000	8324.910000	882.135000	-5366.520000	1.142928	2.414328	1.844443	0.266585	-2.210419	9.161964	-2.065454	-1.138939	-0.747740	1.297100	0.381500	-0.830198	-0.063476	0.542174	-1.000000	-1.000000	-1.000000	-1.000000	-1.000000	-1.000000	-1.000000	55.000000	0.000000	-1.000000	-1.000000	128022.000000	1775778528.444311
-26010.180000	-9301.590000	4418.190000	31543.515000	26975.160000	8324.010000	878.895000	-5368.005000	1.623700	2.779142	2.107330	-0.791827	-4.738648	-0.170935	-5.402707	-1.790325	-0.747740	1.297100	0.381500	-0.830198	-0.063476	0.542174	-1.000000	-1.000000	-1.000000	-1.000000	-1.000000	-1.000000	-1.000000	55.000000	0.000000	-1.000000	-1.000000	128023.000000	1775778528.444326
-26013.195000	-9303.255000	4411.575000	31541.535000	26978.625000	8326.035000	886.185000	-5365.395000	0.605226	1.383052	1.000969	-1.661663	-4.818572	-6.723292	-6.452654	-2.369680	-0.747740	1.297100	0.381500	-0.830198	-0.063476	0.542174	-1.000000	-1.000000	-1.000000	-1.000000	-1.000000	-1.000000	-1.000000	55.000000	0.000000	-1.000000	-1.000000	128024.000000	1775778528.444336
-26021.475000	-9311.130000	4399.605000	31531.410000	26970.030000	8305.515000	883.755000	-5369.940000	-1.160269	-0.864500	-1.317315	-2.430444	-3.171657	-9.497770	-4.805589	-2.169582	-0.747740	1.297100	0.381500	-0.830198	-0.063476	0.542174	-1.000000	-1.000000	-1.000000	-1.000000	-1.000000	-1.000000	-1.000000	55.000000	0.000000	-1.000000	-1.000000	128025.000000	1775778528.444350
-26017.830000	-9309.015000	4402.710000	31528.305000	26967.870000	8300.745000	878.940000	-5371.515000	-2.781445	-3.038592	-4.043040	-3.254056	-1.295968	-9.594801	-1.411990	-1.140985	-0.747740	1.297100	0.381500	-0.830198	-0.063476	0.542174	-1.000000	-1.000000	-1.000000	-1.000000	-1.000000	-1.000000	-1.000000	55.000000	0.000000	-1.000000	-1.000000	128026.000000	1775778528.444360
-26015.940000	-9304.605000	4416.570000	31539.690000	26978.445000	8304.210000	878.715000	-5368.500000	-3.150996	-3.995780	-5.106148	-3.433751	0.020659	-8.094900	1.630562	0.193997	-0.747740	1.297100	0.381500	-0.830198	-0.063476	0.542174	-1.000000	-1.000000	-1.000000	-1.000000	-1.000000	-1.000000	-1.000000	55.000000	0.000000	-1.000000	-1.000000	128027.000000	1775778528.444373
-26019.360000	-9307.755000	4418.460000	31539.600000	26971.650000	8304.030000	875.655000	-5371.965000	-1.689403	-2.906504	-2.679068	-1.701137	1.212710	-4.709002	2.957132	1.444597	-0.747740	1.297100	0.381500	-0.830198	-0.063476	0.542174	-1.000000	-1.000000	-1.000000	-1.000000	-1.000000	-1.000000	-1.000000	55.000000	0.000000	-1.000000	-1.000000	128028.000000	1775778528.444383
-26016.930000	-9305.415000	4421.880000	31547.295000	26975.790000	8322.795000	879.615000	-5371.650000	0.757525	-0.393979	2.186986	1.821450	2.378116	0.660761	2.748009	2.254854	-1.739640	1.251320	-0.091560	-0.830747	-0.062012	0.542357	-1.000000	-1.000000	-1.000000	-1.000000	-1.000000	-1.000000	-1.000000	55.000000	0.000000	-1.000000	-1.000000	128029.000000	1775778528.449040
-26016.930000	-9306.360000	4422.240000	31548.825000	26978.940000	8335.935000	881.010000	-5373.540000	2.800682	2.018598	6.160789	5.241401	2.972827	6.910695	2.022092	2.299531	-1.739640	1.251320	-0.091560	-0.830747	-0.062012	0.542357	-1.000000	-1.000000	-1.000000	-1.000000	-1.000000	-1.000000	-1.000000	55.000000	0.000000	-1.000000	-1.000000	128030.000000	1775778528.449067
-26019.945000	-9304.650000	4423.230000	31551.660000	26978.220000	8343.090000	890.325000	-5371.830000	3.575945	3.252769	6.753594	6.581393	2.798717	11.795985	1.694508	1.672536	-1.739640	1.251320	-0.091560	-0.830747	-0.062012	0.542357	-1.000000	-1.000000	-1.000000	-1.000000	-1.000000	-1.000000	-1.000000	55.000000	0.000000	-1.000000	-1.000000	128031.000000	1775778528.457480
-26012.835000	-9299.430000	4424.175000	31556.385000	26975.205000	8332.020000	885.510000	-5370.390000	2.993401	3.193653	3.972552	5.173597	1.829333	12.310957	1.856823	0.860725	-1.739640	1.251320	-0.091560	-0.830747	-0.062012	0.542357	-1.000000	-1.000000	-1.000000	-1.000000	-1.000000	-1.000000	-1.000000	55.000000	0.000000	-1.000000	-1.000000	128032.000000	1775778528.457507
-26006.040000	-9300.240000	4422.150000	31556.520000	26974.260000	8325.900000	885.780000	-5363.955000	1.885105	2.380249	-0.334754	1.891419	0.106288	6.695510	1.638012	0.414567	-1.739640	1.251320	-0.091560	-0.830747	-0.062012	0.542357	-1.000000	-1.000000	-1.000000	-1.000000	-1.000000	-1.000000	-1.000000	55.000000	0.000000	-1.000000	-1.000000	128033.000000	1775778528.458066
-26010.585000	-9303.795000	4420.530000	31557.060000	26976.330000	8336.610000	888.570000	-5362.110000	1.084796	1.149888	-4.063878	-1.755282	-1.738850	-2.876248	0.346587	0.559930	-1.739640	1.251320	-0.091560	-0.830747	-0.062012	0.542357	-1.000000	-1.000000	-1.000000	-1.000000	-1.000000	-1.000000	-1.000000	55.000000	0.000000	-1.000000	-1.000000	128034.000000	1775778528.458080
-26014.635000	-9305.955000	4416.885000	31546.485000	26973.270000	8332.110000	885.555000	-5365.620000	0.217643	-0.528388	-5.941461	-4.712078	-2.759024	-10.970582	-1.519553	0.809123	-1.739640	1.251320	-0.091560	-0.830747	-0.062012	0.542357	-1.000000	-1.000000	-1.000000	-1.000000	-1.000000	-1.000000	-1.000000	55.000000	0.000000	-1.000000	-1.000000	128035.000000	1775778528.460769
-26009.865000	-9300.375000	4419.675000	31530.825000	26975.520000	8317.800000	890.550000	-5360.400000	-1.294656	-2.195610	-5.630293	-6.816959	-2.555252	-13.816023	-2.922144	0.387632	-1.739640	1.251320	-0.091560	-0.830747	-0.062012	0.542357	-1.000000	-1.000000	-1.000000	-1.000000	-1.000000	-1.000000	-1.000000	55.000000	0.000000	-1.000000	-1.000000	128036.000000	1775778528.460788
-26006.310000	-9298.530000	4420.620000	31531.410000	26977.005000	8320.410000	884.340000	-5362.425000	-2.709896	-2.781287	-3.409336	-7.975743	-1.377822	-11.796291	-3.242496	-0.717446	-1.739640	1.251320	-0.091560	-0.830747	-0.062012	0.542357	-1.000000	-1.000000	-1.000000	-1.000000	-1.000000	-1.000000	-1.000000	55.000000	0.000000	-1.000000	-1.000000	128037.000000	1775778528.465218
-26006.895000	-9298.800000	4422.285000	31537.845000	26977.455000	8341.155000	888.705000	-5362.155000	-2.877879	-1.843286	-0.119969	-6.955840	0.229514	-6.445300	-2.572372	-1.864589	-1.739640	1.251320	-0.091560	-0.830747	-0.062012	0.542357	-1.000000	-1.000000	-1.000000	-1.000000	-1.000000	-1.000000	-1.000000	55.000000	0.000000	-1.000000	-1.000000	128038.000000	1775778528.465237
-26007.660000	-9297.990000	4423.635000	31543.155000	26987.805000	8360.145000	897.570000	-5358.645000	-1.851399	-0.204489	2.934390	-2.533976	1.728368	1.534146	-1.151538	-2.465526	-2.807840	1.754900	0.183120	-0.827329	-0.060181	0.542845	-1.000000	-1.000000	-1.000000	-1.000000	-1.000000	-1.000000	-1.000000	55.000000	0.000000	-1.000000	-1.000000	128039.000000	1775778528.467133
-26015.265000	-9305.460000	4415.040000	31537.845000	26982.000000	8341.605000	889.695000	-5367.645000	-0.733051	0.859804	4.433775	3.990830	2.720305	9.725418	0.754782	-2.322112	-2.807840	1.754900	0.183120	-0.827329	-0.060181	0.542845	-1.000000	-1.000000	-1.000000	-1.000000	-1.000000	-1.000000	-1.000000	55.000000	0.000000	-1.000000	-1.000000	128040.000000	1775778528.467150
-26015.805000	-9304.245000	4416.525000	31539.915000	26975.295000	8311.545000	883.935000	-5368.950000	-0.439388	0.653587	3.691228	9.077410	2.484902	12.660344	1.989139	-1.866525	-2.807840	1.754900	0.183120	-0.827329	-0.060181	0.542845	-1.000000	-1.000000	-1.000000	-1.000000	-1.000000	-1.000000	-1.000000	55.000000	0.000000	-1.000000	-1.000000	128041.000000	1775778528.476827
-26021.205000	-9307.755000	4415.085000	31539.645000	26970.615000	8300.565000	874.530000	-5376.465000	-0.854983	-0.399004	1.399850	10.094515	0.425849	6.803309	1.266468	-1.594316	-2.807840	1.754900	0.183120	-0.827329	-0.060181	0.542845	-1.000000	-1.000000	-1.000000	-1.000000	-1.000000	-1.000000	-1.000000	55.000000	0.000000	-1.000000	-1.000000	128042.000000	1775778528.476853
-26015.850000	-9302.175000	4423.410000	31552.110000	26983.530000	8312.760000	876.240000	-5373.630000	-1.053370	-1.133722	-0.647186	7.407409	-2.320386	-3.806210	-0.979935	-1.323579	-2.807840	1.754900	0.183120	-0.827329	-0.060181	0.542845	-1.000000	-1.000000	-1.000000	-1.000000	-1.000000	-1.000000	-1.000000	55.000000	0.000000	-1.000000	-1.000000	128043.000000	1775778528.476877
-26021.880000	-9312.390000	4413.375000	31546.710000	26986.005000	8341.290000	877.815000	-5377.230000	-0.292819	-0.863275	-1.238827	3.269448	-3.289205	-10.001170	-2.656525	-0.479060	-2.807840	1.754900	0.183120	-0.827329	-0.060181	0.542845	-1.000000	-1.000000	-1.000000	-1.000000	-1.000000	-1.000000	-1.000000	55.000000	0.000000	-1.000000	-1.000000	128044.000000	1775778528.476889
-26015.715000	-9307.575000	4417.560000	31553.055000	26993.610000	8363.835000	882.945000	-5373.315000	1.245688	0.000793	-0.804382	-0.551017	-1.429283	-5.985156	-1.965045	1.122252	-2.807840	1.754900	0.183120	-0.827329	-0.060181	0.542845	-1.000000	-1.000000	-1.000000	-1.000000	-1.000000	-1.000000	-1.000000	55.000000	0.000000	-1.000000	-1.000000	128045.000000	1775778528.479937
-26011.530000	-9306.855000	4412.205000	31545.765000	26983.845000	8346.690000	882.135000	-5367.465000	2.889894	0.872690	-0.366915	-3.466982	1.560808	4.821200	0.888822	3.091660	-2.807840	1.754900	0.183120	-0.827329	-0.060181	0.542845	-1.000000	-1.000000	-1.000000	-1.000000	-1.000000	-1.000000	-1.000000	55.000000	0.000000	-1.000000	-1.000000	128046.000000	1775778528.479964
-26008.515000	-9304.020000	4410.135000	31530.510000	26974.980000	8320.365000	873.000000	-5364.765000	4.079891	1.681512	-0.365012	-5.675691	2.765268	12.208710	3.733625	4.776933	-2.807840	1.754900	0.183120	-0.827329	-0.060181	0.542845	-1.000000	-1.000000	-1.000000	-1.000000	-1.000000	-1.000000	-1.000000	55.000000	0.000000	-1.000000	-1.000000	128047.000000	1775778528.483158
-26014.275000	-9305.505000	4411.935000	31524.075000	26961.660000	8306.055000	871.335000	-5361.975000	4.099412	2.260709	-0.630398	-7.541915	0.656933	8.776452	4.251497	5.343199	-2.807840	1.754900	0.183120	-0.827329	-0.060181	0.542845	-1.000000	-1.000000	-1.000000	-1.000000	-1.000000	-1.000000	-1.000000	55.000000	0.000000	-1.000000	-1.000000	128048.000000	1775778528.483181
-26007.525000	-9299.655000	4418.370000	31534.920000	26963.010000	8302.365000	863.010000	-5363.640000	2.439989	2.239745	-0.498048	-8.110904	-3.347545	-2.879015	2.054101	4.119610	-2.212700	2.716280	0.305200	-0.828245	-0.060058	0.543944	-1.000000	-1.000000	-1.000000	-1.000000	-1.000000	-1.000000	-1.000000	55.000000	0.000000	-1.000000	-1.000000	128049.000000	1775778528.489659
-26001.000000	-9292.455000	4426.515000	31545.360000	26970.390000	8289.495000	859.590000	-5364.405000	-0.079463	1.724501	0.667876	-5.299320	-5.738027	-13.576352	-1.275649	1.197613	-2.212700	2.716280	0.305200	-0.828245	-0.060058	0.543944	-1.000000	-1.000000	-1.000000	-1.000000	-1.000000	-1.000000	-1.000000	55.000000	0.000000	-1.000000	-1.000000	128050.000000	1775778528.489681
-26003.070000	-9290.700000	4430.070000	31551.480000	26980.065000	8298.180000	875.340000	-5365.080000	-1.942944	1.164221	2.571174	1.125422	-3.790547	-16.128125	-3.360066	-2.391212	-2.212700	2.716280	0.305200	-0.828245	-0.060058	0.543944	-1.000000	-1.000000	-1.000000	-1.000000	-1.000000	-1.000000	-1.000000	55.000000	0.000000	-1.000000	-1.000000	128051.000000	1775778528.493542
-26013.510000	-9301.455000	4420.080000	31542.165000	26977.185000	8299.485000	887.895000	-5369.490000	-2.902388	0.316807	3.670668	7.843753	1.747820	-9.442666	-2.146052	-5.205940	-2.212700	2.716280	0.305200	-0.828245	-0.060058	0.543944	-1.000000	-1.000000	-1.000000	-1.000000	-1.000000	-1.000000	-1.000000	55.000000	0.000000	-1.000000	-1.000000	128052.000000	1775778528.493560
-26019.315000	-9309.375000	4413.285000	31538.070000	26979.075000	8314.200000	899.280000	-5368.455000	-3.882062	-1.687051	2.209613	10.348738	7.034621	2.503847	2.232774	-6.234273	-2.212700	2.716280	0.305200	-0.828245	-0.060058	0.543944	-1.000000	-1.000000	-1.000000	-1.000000	-1.000000	-1.000000	-1.000000	55.000000	0.000000	-1.000000	-1.000000	128053.000000	1775778528.496811
-26024.850000	-9317.925000	4404.195000	31529.160000	26973.945000	8361.855000	900.495000	-5372.550000	-5.045379	-4.744087	-1.821699	6.955968	8.493495	14.409440	6.739709	-5.256380	-2.212700	2.716280	0.305200	-0.828245	-0.060058	0.543944	-1.000000	-1.000000	-1.000000	-1.000000	-1.000000	-1.000000	-1.000000	55.000000	0.000000	-1.000000	-1.000000	128054.000000	1775778528.496835
-26017.695000	-9313.605000	4407.210000	31531.905000	26982.000000	8401.905000	904.455000	-5366.745000	-5.127660	-7.001161	-6.050595	0.160356	5.613197	23.032864	7.755428	-2.730974	-2.212700	2.716280	0.305200	-0.828245	-0.060058	0.543944	-1.000000	-1.000000	-1.000000	-1.000000	-1.000000	-1.000000	-1.000000	55.000000	0.000000	-1.000000	-1.000000	128055.000000	1775778528.504672
-25983.045000	-9276.165000	4445.280000	31569.480000	27017.010000	8404.695000	929.295000	-5331.555000	-2.198427	-5.575929	-6.759670	-4.896985	1.408185	25.823887	4.545487	1.139784	-2.212700	2.716280	0.305200	-0.828245	-0.060058	0.543944	-1.000000	-1.000000	-1.000000	-1.000000	-1.000000	-1.000000	-1.000000	55.000000	0.000000	-1.000000	-1.000000	128056.000000	1775778528.504698
-26012.205000	-9303.210000	4417.335000	31544.370000	26989.695000	8359.380000	894.735000	-5363.370000	3.725903	0.425137	-2.213714	-4.553599	-0.819109	18.463093	-0.876479	5.685818	-2.212700	2.716280	0.305200	-0.828245	-0.060058	0.543944	-1.000000	-1.000000	-1.000000	-1.000000	-1.000000	-1.000000	-1.000000	55.000000	0.000000	-1.000000	-1.000000	128057.000000	1775778528.504723
-26033.580000	-9327.645000	4392.720000	31522.455000	26968.500000	8346.735000	873.270000	-5384.925000	7.959331	6.336312	3.377950	-1.380838	-2.251985	-0.942849	-7.456523	7.229078	-2.212700	2.716280	0.305200	-0.828245	-0.060058	0.543944	-1.000000	-1.000000	-1.000000	-1.000000	-1.000000	-1.000000	-1.000000	55.000000	0.000000	-1.000000	-1.000000	128058.000000	1775778528.504735
-26022.240000	-9319.590000	4400.370000	31528.980000	26971.920000	8350.110000	877.725000	-5375.565000	5.919551	6.374582	4.117867	-0.732495	-5.833776	-24.890317	-14.154897	2.804659	-1.434440	1.785420	0.167860	-0.831846	-0.060425	0.544249	-1.000000	-1.000000	-1.000000	-1.000000	-1.000000	-1.000000	-1.000000	55.000000	0.000000	-1.000000	-1.000000	128059.000000	1775778528.513134
-26022.240000	-9319.590000	4400.370000	31528.980000	26971.920000	8350.110000	877.725000	-5375.565000	-0.070753	1.536043	0.528869	-2.852217	-9.874879	-39.474621	-16.839461	-4.086509	-1.434440	1.785420	0.167860	-0.831846	-0.060425	0.544249	-1.000000	-1.000000	-1.000000	-1.000000	-1.000000	-1.000000	-1.000000	55.000000	0.000000	-1.000000	-1.000000	128060.000000	1775778528.513150
-26022.240000	-9319.590000	4400.370000	31528.980000	26971.920000	8350.110000	877.725000	-5375.565000	-4.220876	-2.622946	-2.362025	-3.949140	-10.065381	-36.288802	-12.015274	-7.400086	-1.434440	1.785420	0.167860	-0.831846	-0.060425	0.544249	-1.000000	-1.000000	-1.000000	-1.000000	-1.000000	-1.000000	-1.000000	55.000000	0.000000	-1.000000	-1.000000	128061.000000	1775778528.513159
-26032.500000	-9320.490000	4396.320000	31519.215000	26954.010000	8285.535000	862.200000	-5385.780000	-4.280214	-3.038744	-1.936404	-2.268854	-5.536384	-19.559943	-1.713599	-5.449053	-1.434440	1.785420	0.167860	-0.831846	-0.060425	0.544249	-1.000000	-1.000000	-1.000000	-1.000000	-1.000000	-1.000000	-1.000000	55.000000	0.000000	-1.000000	-1.000000	128064.000000	1775778528.521184
-26012.070000	-9301.005000	4416.255000	31538.385000	26969.985000	8287.155000	862.470000	-5370.975000	-1.635007	-0.251575	1.013316	1.068569	0.855687	-1.291959	8.220482	-0.697529	-1.434440	1.785420	0.167860	-0.831846	-0.060425	0.544249	-1.000000	-1.000000	-1.000000	-1.000000	-1.000000	-1.000000	-1.000000	55.000000	0.000000	-1.000000	-1.000000	128065.000000	1775778528.521208
-26005.365000	-9292.005000	4431.600000	31555.755000	26986.905000	8299.710000	859.635000	-5366.970000	2.157314	4.012433	5.035069	4.980044	6.783571	11.128922	13.416192	4.202128	-1.434440	1.785420	0.167860	-0.831846	-0.060425	0.544249	-1.000000	-1.000000	-1.000000	-1.000000	-1.000000	-1.000000	-1.000000	55.000000	0.000000	-1.000000	-1.000000	128066.000000	1775778528.522571
-26011.755000	-9299.430000	4424.220000	31549.995000	26991.810000	8338.410000	869.805000	-5372.325000	5.580938	7.318389	8.325820	8.496919	11.507758	19.558170	13.553562	7.460170	-1.434440	1.785420	0.167860	-0.831846	-0.060425	0.544249	-1.000000	-1.000000	-1.000000	-1.000000	-1.000000	-1.000000	-1.000000	55.000000	0.000000	-1.000000	-1.000000	128067.000000	1775778528.522592
-26020.440000	-9312.525000	4411.215000	31538.340000	26990.055000	8365.995000	887.625000	-5373.090000	6.119935	6.606478	7.879530	8.974071	13.393691	27.397709	11.061267	7.459081	-1.434440	1.785420	0.167860	-0.831846	-0.060425	0.544249	-1.000000	-1.000000	-1.000000	-1.000000	-1.000000	-1.000000	-1.000000	55.000000	0.000000	-1.000000	-1.000000	128068.000000	1775778528.539555
-26027.280000	-9320.400000	4402.485000	31531.545000	26981.235000	8351.685000	883.485000	-5379.750000	2.427989	0.832098	2.015723	4.242253	10.274376	32.282688	8.174519	3.908195	-1.434440	1.785420	0.167860	-0.831846	-0.060425	0.544249	-1.000000	-1.000000	-1.000000	-1.000000	-1.000000	-1.000000	-1.000000	55.000000	0.000000	-1.000000	-1.000000	128069.000000	1775778528.539581
-26015.895000	-9312.165000	4411.800000	31539.240000	26982.000000	8337.195000	883.035000	-5371.965000	-3.309367	-6.821708	-6.444733	-3.688457	2.424044	27.537345	4.768778	-1.232717	-0.640920	3.082520	3.860780	-0.830808	-0.061401	0.543334	-1.000000	-1.000000	-1.000000	-1.000000	-1.000000	-1.000000	-1.000000	55.000000	0.000000	-1.000000	-1.000000	128070.000000	1775778528.539607
-26003.205000	-9303.210000	4418.010000	31542.840000	26984.835000	8320.455000	876.060000	-5363.505000	-6.660730	-10.915413	-11.739406	-9.615342	-6.463297	10.478995	-0.295585	-4.821657	-0.640920	3.082520	3.860780	-0.830808	-0.061401	0.543334	-1.000000	-1.000000	-1.000000	-1.000000	-1.000000	-1.000000	-1.000000	55.000000	0.000000	-1.000000	-1.000000	128071.000000	1775778528.539618
-26000.280000	-9300.960000	4416.705000	31541.445000	26985.510000	8308.665000	868.635000	-5360.805000	-5.040641	-8.537398	-10.452813	-10.018766	-11.806781	-12.542921	-6.550207	-4.863763	-0.640920	3.082520	3.860780	-0.830808	-0.061401	0.543334	-1.000000	-1.000000	-1.000000	-1.000000	-1.000000	-1.000000	-1.000000	55.000000	0.000000	-1.000000	-1.000000	128072.000000	1775778528.539632
-26015.220000	-9310.860000	4406.850000	31531.230000	26976.825000	8310.780000	867.105000	-5369.715000	-0.547184	-1.990861	-4.528232	-5.974897	-11.749947	-30.273989	-11.723379	-2.398820	-0.640920	3.082520	3.860780	-0.830808	-0.061401	0.543334	-1.000000	-1.000000	-1.000000	-1.000000	-1.000000	-1.000000	-1.000000	55.000000	0.000000	-1.000000	-1.000000	128073.000000	1775778528.539643
-26025.120000	-9316.710000	4401.765000	31528.125000	26977.410000	8337.825000	876.285000	-5372.865000	2.127641	3.584347	1.252158	-1.211562	-7.871975	-33.816898	-13.073148	-0.370016	-0.640920	3.082520	3.860780	-0.830808	-0.061401	0.543334	-1.000000	-1.000000	-1.000000	-1.000000	-1.000000	-1.000000	-1.000000	55.000000	0.000000	-1.000000	-1.000000	128074.000000	1775778528.539656
-26022.330000	-9317.655000	4392.855000	31523.085000	26972.955000	8348.085000	886.365000	-5370.345000	0.841436	5.020233	3.733767	1.654213	-2.836377	-21.688444	-9.115379	-0.336748	-0.640920	3.082520	3.860780	-0.830808	-0.061401	0.543334	-1.000000	-1.000000	-1.000000	-1.000000	-1.000000	-1.000000	-1.000000	55.000000	0.000000	-1.000000	-1.000000	128075.000000	1775778528.539666
-26014.995000	-9313.515000	4395.465000	31522.770000	26969.535000	8336.160000	883.530000	-5369.400000	-1.941431	3.232492	3.142115	2.510832	1.444643	-1.519780	-1.372193	-1.242046	-0.640920	3.082520	3.860780	-0.830808	-0.061401	0.543334	-1.000000	-1.000000	-1.000000	-1.000000	-1.000000	-1.000000	-1.000000	55.000000	0.000000	-1.000000	-1.000000	128076.000000	1775778528.547765
-26017.020000	-9312.705000	4402.845000	31526.730000	26971.110000	8332.695000	877.860000	-5373.180000	-2.626773	1.113502	1.911845	2.642483	4.097513	14.527723	5.807917	-1.467122	-0.640920	3.082520	3.860780	-0.830808	-0.061401	0.543334	-1.000000	-1.000000	-1.000000	-1.000000	-1.000000	-1.000000	-1.000000	55.000000	0.000000	-1.000000	-1.000000	128077.000000	1775778528.547791
-26009.550000	-9302.220000	4418.370000	31541.535000	26981.280000	8342.190000	878.580000	-5373.090000	-0.413619	0.590530	2.423232	3.401939	5.390088	19.118963	8.511649	-0.709564	-0.640920	3.082520	3.860780	-0.830808	-0.061401	0.543334	-1.000000	-1.000000	-1.000000	-1.000000	-1.000000	-1.000000	-1.000000	55.000000	0.000000	-1.000000	-1.000000	128078.000000	1775778528.547816
-26013.690000	-9305.820000	4424.040000	31553.460000	26984.160000	8335.260000	877.050000	-5372.100000	2.818092	1.600746	4.967545	5.307963	6.120961	13.804504	6.375882	0.457670	-0.640920	3.082520	3.860780	-0.830808	-0.061401	0.543334	-1.000000	-1.000000	-1.000000	-1.000000	-1.000000	-1.000000	-1.000000	55.000000	0.000000	-1.000000	-1.000000	128079.000000	1775778528.547826
-26016.660000	-9308.610000	4422.780000	31556.385000	26983.170000	8340.345000	874.125000	-5372.235000	4.607423	2.507486	7.253149	7.264803	6.221157	4.551123	1.939708	1.532162	0.579880	2.807840	-1.220800	-0.829283	-0.063354	0.543211	-1.000000	-1.000000	-1.000000	-1.000000	-1.000000	-1.000000	-1.000000	55.000000	0.000000	-1.000000	-1.000000	128080.000000	1775778528.552705
-26018.055000	-9309.240000	4421.025000	31555.485000	26983.935000	8341.875000	875.385000	-5370.570000	3.678281	1.709722	6.353728	6.964597	4.769680	-3.296991	-1.961324	2.200064	0.579880	2.807840	-1.220800	-0.829283	-0.063354	0.543211	-1.000000	-1.000000	-1.000000	-1.000000	-1.000000	-1.000000	-1.000000	55.000000	0.000000	-1.000000	-1.000000	128081.000000	1775778528.552725
-26015.535000	-9308.070000	4418.235000	31548.780000	26984.610000	8339.265000	878.715000	-5368.770000	0.868291	-0.608479	1.578686	2.945040	1.584003	-7.011894	-3.596423	2.314048	0.579880	2.807840	-1.220800	-0.829283	-0.063354	0.543211	-1.000000	-1.000000	-1.000000	-1.000000	-1.000000	-1.000000	-1.000000	55.000000	0.000000	-1.000000	-1.000000	128082.000000	1775778528.566294
-26017.515000	-9312.570000	4412.970000	31527.045000	26983.485000	8344.305000	883.710000	-5370.795000	-1.798836	-2.914196	-4.894657	-4.075483	-2.187858	-6.723235	-2.619152	1.869973	0.579880	2.807840	-1.220800	-0.829283	-0.063354	0.543211	-1.000000	-1.000000	-1.000000	-1.000000	-1.000000	-1.000000	-1.000000	55.000000	0.000000	-1.000000	-1.000000	128083.000000	1775778528.566318
-26019.945000	-9312.480000	4413.105000	31522.995000	26980.515000	8334.270000	882.855000	-5373.720000	-3.014133	-4.007346	-9.825682	-11.492089	-5.082650	-4.235830	-0.072851	0.836540	0.579880	2.807840	-1.220800	-0.829283	-0.063354	0.543211	-1.000000	-1.000000	-1.000000	-1.000000	-1.000000	-1.000000	-1.000000	55.000000	0.000000	-1.000000	-1.000000	128084.000000	1775778528.566340
-26017.380000	-9312.795000	4412.160000	31525.830000	26973.945000	8315.730000	869.535000	-5377.050000	-2.742713	-3.566096	-10.881296	-15.415309	-6.343136	-1.978142	1.931330	-0.696085	0.579880	2.807840	-1.220800	-0.829283	-0.063354	0.543211	-1.000000	-1.000000	-1.000000	-1.000000	-1.000000	-1.000000	-1.000000	55.000000	0.000000	-1.000000	-1.000000	128085.000000	1775778528.566351
-26016.345000	-9313.470000	4412.025000	31528.800000	26974.935000	8313.660000	871.245000	-5373.765000	-1.456281	-1.893065	-7.773950	-12.733821	-5.936815	-1.619176	1.639273	-2.132065	0.579880	2.807840	-1.220800	-0.829283	-0.063354	0.543211	-1.000000	-1.000000	-1.000000	-1.000000	-1.000000	-1.000000	-1.000000	55.000000	0.000000	-1.000000	-1.000000	128086.000000	1775778528.566364
-26019.270000	-9312.795000	4412.250000	31531.905000	26971.605000	8301.195000	870.885000	-5375.475000	0.184942	0.260408	-2.227235	-4.069383	-4.060210	-2.445155	-0.438123	-2.579829	0.579880	2.807840	-1.220800	-0.829283	-0.063354	0.543211	-1.000000	-1.000000	-1.000000	-1.000000	-1.000000	-1.000000	-1.000000	55.000000	0.000000	-1.000000	-1.000000	128087.000000	1775778528.566374
-26020.080000	-9313.470000	4410.360000	31531.185000	26966.520000	8302.140000	865.710000	-5377.500000	1.308511	2.039868	3.197596	6.214334	-1.269720	-2.389507	-2.197619	-1.791305	0.579880	2.807840	-1.220800	-0.829283	-0.063354	0.543211	-1.000000	-1.000000	-1.000000	-1.000000	-1.000000	-1.000000	-1.000000	55.000000	0.000000	-1.000000	-1.000000	128088.000000	1775778528.566386
-26016.480000	-9312.120000	4410.630000	31536.270000	26975.295000	8320.860000	866.880000	-5374.890000	1.500676	2.895712	6.470462	13.180315	1.578653	0.127024	-2.380277	-0.387925	0.579880	2.807840	-1.220800	-0.829283	-0.063354	0.543211	-1.000000	-1.000000	-1.000000	-1.000000	-1.000000	-1.000000	-1.000000	55.000000	0.000000	-1.000000	-1.000000	128089.000000	1775778528.566396
-26010.855000	-9307.575000	4415.265000	31546.260000	26987.040000	8331.615000	870.840000	-5372.595000	1.267920	2.830574	7.012515	14.541715	4.220923	5.389557	-1.025791	0.991606	0.473060	3.464020	-0.930860	-0.828001	-0.063843	0.542845	-1.000000	-1.000000	-1.000000	-1.000000	-1.000000	-1.000000	-1.000000	55.000000	0.000000	-1.000000	-1.000000	128090.000000	1775778528.582773
-26005.770000	-9303.030000	4418.280000	31546.755000	26984.610000	8327.115000	872.640000	-5369.085000	1.337588	2.323996	5.657373	11.179245	6.501241	11.049962	1.245927	2.065910	0.473060	3.464020	-0.930860	-0.828001	-0.063843	0.542845	-1.000000	-1.000000	-1.000000	-1.000000	-1.000000	-1.000000	-1.000000	55.000000	0.000000	-1.000000	-1.000000	128091.000000	1775778528.582799
-26001.675000	-9299.475000	4417.110000	31530.510000	26976.600000	8325.720000	875.340000	-5366.925000	1.750818	1.789034	3.513783	4.893139	7.007707	12.801732	3.378739	2.619322	0.473060	3.464020	-0.930860	-0.828001	-0.063843	0.542845	-1.000000	-1.000000	-1.000000	-1.000000	-1.000000	-1.000000	-1.000000	55.000000	0.000000	-1.000000	-1.000000	128092.000000	1775778528.582870
-25999.965000	-9292.590000	4427.055000	31535.280000	26983.755000	8329.140000	875.880000	-5363.100000	1.859656	1.257585	1.280362	-2.710099	4.430128	8.507341	4.257472	2.452511	0.473060	3.464020	-0.930860	-0.828001	-0.063843	0.542845	-1.000000	-1.000000	-1.000000	-1.000000	-1.000000	-1.000000	-1.000000	55.000000	0.000000	-1.000000	-1.000000	128093.000000	1775778528.582883
-25995.690000	-9282.330000	4441.275000	31556.295000	27002.250000	8332.560000	879.705000	-5354.865000	1.087757	0.741259	-0.227687	-8.649450	0.268571	0.511207	3.441851	1.686629	0.473060	3.464020	-0.930860	-0.828001	-0.063843	0.542845	-1.000000	-1.000000	-1.000000	-1.000000	-1.000000	-1.000000	-1.000000	55.000000	0.000000	-1.000000	-1.000000	128094.000000	1775778528.582901
-26009.955000	-9298.125000	4425.615000	31543.740000	26984.115000	8296.785000	862.695000	-5370.660000	-0.718073	-0.006116	-0.727930	-9.739401	-2.680967	-7.425651	1.109308	0.434667	0.473060	3.464020	-0.930860	-0.828001	-0.063843	0.542845	-1.000000	-1.000000	-1.000000	-1.000000	-1.000000	-1.000000	-1.000000	55.000000	0.000000	-1.000000	-1.000000	128095.000000	1775778528.582912
-26015.490000	-9303.435000	4419.855000	31534.920000	26971.290000	8300.655000	864.270000	-5373.990000	-3.470355	-1.932114	-1.668872	-6.746414	-4.331442	-13.299509	-2.293416	-1.731702	0.473060	3.464020	-0.930860	-0.828001	-0.063843	0.542845	-1.000000	-1.000000	-1.000000	-1.000000	-1.000000	-1.000000	-1.000000	55.000000	0.000000	-1.000000	-1.000000	128096.000000	1775778528.582926
-26008.785000	-9300.780000	4418.325000	31532.355000	26974.530000	8321.625000	866.430000	-5372.865000	-6.064046	-4.971443	-4.143592	-3.401396	-6.086048	-14.941525	-5.307352	-4.478414	0.473060	3.464020	-0.930860	-0.828001	-0.063843	0.542845	-1.000000	-1.000000	-1.000000	-1.000000	-1.000000	-1.000000	-1.000000	55.000000	0.000000	-1.000000	-1.000000	128097.000000	1775778528.582958
-26010.270000	-9307.935000	4415.265000	31531.275000	26978.805000	8324.910000	868.635000	-5370.615000	-6.324948	-7.024800	-6.653961	-1.577317	-6.999479	-9.795247	-5.808192	-5.858404	0.473060	3.464020	-0.930860	-0.828001	-0.063843	0.542845	-1.000000	-1.000000	-1.000000	-1.000000	-1.000000	-1.000000	-1.000000	55.000000	0.000000	-1.000000	-1.000000	128098.000000	1775778528.593651
