Channel1	Channel2	Channel3	Channel4	Channel5	Channel6	Channel7	Channel8	FilteredChannel1	FilteredChannel2	FilteredChannel3	FilteredChannel4	FilteredChannel5	FilteredChannel6	FilteredChannel7	FilteredChannel8	GyroX	GyroY	GyroZ	AccX	AccY	AccZ	PPG1	PPG2	rawPPG1	rawPPG2	rawPPG3	Hr	Hrv	Battery	Trigger	PhysicalTrigger	AutoTrigger	NumMeasurements	Timestamp
-20481.030000	-7710.210000	4173.885000	29366.460000	27168.165000	7921.755000	-4023.675000	-5683.995000	-1.381852	-0.625968	0.967886	18.037049	1.824288	-1.308497	0.856224	-0.121037	-1.373400	1.617560	-0.122080	-0.810301	-0.125793	0.561644	-1.000000	-1.000000	-1.000000	-1.000000	-1.000000	-1.000000	-1.000000	55.000000	0.000000	-1.000000	-1.000000	175823.000000	1775778624.431452
-20475.270000	-7701.075000	4187.250000	29376.180000	27166.860000	7899.570000	-4036.140000	-5685.570000	0.196710	1.790355	3.131064	16.664979	2.997990	-3.735433	1.042588	-0.272336	-1.373400	1.617560	-0.122080	-0.810301	-0.125793	0.561644	-1.000000	-1.000000	-1.000000	-1.000000	-1.000000	-1.000000	-1.000000	55.000000	0.000000	-1.000000	-1.000000	175824.000000	1775778624.431463
-20471.670000	-7696.845000	4187.700000	29381.760000	27167.805000	7877.835000	-4039.605000	-5685.840000	1.638229	3.704412	4.767329	9.802532	2.927950	-5.929415	-0.552693	-0.632925	-0.976640	1.587040	-0.289940	-0.809751	-0.125244	0.561278	-1.000000	-1.000000	-1.000000	-1.000000	-1.000000	-1.000000	-1.000000	55.000000	0.000000	-1.000000	-1.000000	175825.000000	1775778624.431477
-20468.880000	-7694.145000	4190.400000	29387.835000	27175.455000	7881.750000	-4022.775000	-5680.440000	2.623172	4.729066	5.315711	1.462986	2.366739	-7.600314	-2.580504	-0.803804	-0.976640	1.587040	-0.289940	-0.809751	-0.125244	0.561278	-1.000000	-1.000000	-1.000000	-1.000000	-1.000000	-1.000000	-1.000000	55.000000	0.000000	-1.000000	-1.000000	175826.000000	1775778624.431488
-20472.435000	-7698.555000	4184.505000	29385.450000	27179.595000	7912.665000	-4016.925000	-5681.610000	2.713425	4.159594	3.705082	-5.427249	2.170630	-6.049914	-2.179623	-0.250884	-0.976640	1.587040	-0.289940	-0.809751	-0.125244	0.561278	-1.000000	-1.000000	-1.000000	-1.000000	-1.000000	-1.000000	-1.000000	55.000000	0.000000	-1.000000	-1.000000	175827.000000	1775778624.431558
-20476.215000	-7706.880000	4170.555000	29374.155000	27178.920000	7957.755000	-4017.960000	-5685.165000	1.422251	1.498659	-0.318189	-9.952437	2.308467	1.828895	1.228696	0.714293	-0.976640	1.587040	-0.289940	-0.809751	-0.125244	0.561278	-1.000000	-1.000000	-1.000000	-1.000000	-1.000000	-1.000000	-1.000000	55.000000	0.000000	-1.000000	-1.000000	175828.000000	1775778624.431578
-20480.715000	-7711.605000	4166.325000	29367.405000	27175.590000	7957.440000	-4021.965000	-5688.090000	-1.066366	-2.653684	-5.566541	-12.419939	1.773835	14.183233	4.718094	1.093575	-0.976640	1.587040	-0.289940	-0.809751	-0.125244	0.561278	-1.000000	-1.000000	-1.000000	-1.000000	-1.000000	-1.000000	-1.000000	55.000000	0.000000	-1.000000	-1.000000	175829.000000	1775778624.431592
-20477.970000	-7706.970000	4170.915000	29368.890000	27181.710000	7940.970000	-4028.715000	-5686.020000	-3.531196	-6.241023	-9.313886	-12.665471	-0.014432	22.348423	5.065972	0.501045	-0.976640	1.587040	-0.289940	-0.809751	-0.125244	0.561278	-1.000000	-1.000000	-1.000000	-1.000000	-1.000000	-1.000000	-1.000000	55.000000	0.000000	-1.000000	-1.000000	175830.000000	1775778624.431604
-20463.885000	-7692.570000	4185.180000	29384.145000	27199.485000	7937.775000	-4021.020000	-5673.870000	-4.131297	-6.640557	-8.569998	-9.519807	-1.885774	18.062344	1.994300	-0.139122	-0.976640	1.587040	-0.289940	-0.809751	-0.125244	0.561278	-1.000000	-1.000000	-1.000000	-1.000000	-1.000000	-1.000000	-1.000000	55.000000	0.000000	-1.000000	-1.000000	175831.000000	1775778624.431616
-20456.235000	-7690.185000	4183.605000	29376.405000	27188.955000	7921.080000	-4020.525000	-5669.235000	-1.733298	-2.879874	-2.865194	-2.798173	-2.275308	2.252604	-1.848823	0.419302	-0.976640	1.587040	-0.289940	-0.809751	-0.125244	0.561278	-1.000000	-1.000000	-1.000000	-1.000000	-1.000000	-1.000000	-1.000000	55.000000	0.000000	-1.000000	-1.000000	175832.000000	1775778624.431628
-20463.120000	-7696.080000	4180.680000	29377.215000	27188.955000	7915.860000	-4020.345000	-5676.705000	2.331505	2.663773	4.395216	4.733134	-1.745238	-15.975932	-3.788538	1.823427	-0.976640	1.587040	-0.289940	-0.809751	-0.125244	0.561278	-1.000000	-1.000000	-1.000000	-1.000000	-1.000000	-1.000000	-1.000000	55.000000	0.000000	-1.000000	-1.000000	175833.000000	1775778624.431640
-20483.820000	-7712.100000	4169.880000	29377.620000	27187.785000	7921.035000	-4016.070000	-5690.340000	4.398817	5.667792	8.394167	9.292408	-1.909540	-26.683499	-3.289785	1.894567	-0.976640	1.587040	-0.289940	-0.809751	-0.125244	0.561278	-1.000000	-1.000000	-1.000000	-1.000000	-1.000000	-1.000000	-1.000000	55.000000	0.000000	-1.000000	-1.000000	175834.000000	1775778624.431648
-20489.625000	-7720.785000	4156.245000	29370.105000	27178.740000	7921.935000	-4010.760000	-5691.330000	1.867154	3.662801	6.720874	9.302896	-2.980027	-24.822016	-1.276401	-0.710183	-0.930860	1.663340	-1.052940	-0.808409	-0.123413	0.564147	-1.000000	-1.000000	-1.000000	-1.000000	-1.000000	-1.000000	-1.000000	55.000000	0.000000	-1.000000	-1.000000	175835.000000	1775778624.431659
-20476.665000	-7710.840000	4157.550000	29368.530000	27171.855000	7917.435000	-4011.345000	-5682.105000	-3.258046	-1.389895	0.985126	5.678390	-4.157993	-12.644190	0.988938	-4.140958	-0.930860	1.663340	-1.052940	-0.808409	-0.123413	0.564147	-1.000000	-1.000000	-1.000000	-1.000000	-1.000000	-1.000000	-1.000000	55.000000	0.000000	-1.000000	-1.000000	175836.000000	1775778624.431667
-20474.415000	-7707.555000	4162.995000	29361.690000	27167.445000	7919.910000	-4013.010000	-5680.665000	-5.899780	-4.701770	-4.325086	0.660059	-4.578274	2.518210	2.210545	-5.031725	-0.930860	1.663340	-1.052940	-0.808409	-0.123413	0.564147	-1.000000	-1.000000	-1.000000	-1.000000	-1.000000	-1.000000	-1.000000	55.000000	0.000000	-1.000000	-1.000000	175837.000000	1775778624.431682
-20481.705000	-7714.260000	4158.180000	29344.005000	27153.585000	7933.275000	-4010.625000	-5687.415000	-3.696034	-3.597796	-5.465073	-3.648231	-3.675446	13.904341	1.733772	-2.499371	-0.930860	1.663340	-1.052940	-0.808409	-0.123413	0.564147	-1.000000	-1.000000	-1.000000	-1.000000	-1.000000	-1.000000	-1.000000	55.000000	0.000000	-1.000000	-1.000000	175838.000000	1775778624.431692
-20486.880000	-7715.880000	4162.545000	29355.165000	27157.230000	7939.710000	-4011.165000	-5689.845000	0.777874	0.139431	-2.459697	-5.974506	-1.532301	18.791996	0.143109	1.050030	-0.930860	1.663340	-1.052940	-0.808409	-0.123413	0.564147	-1.000000	-1.000000	-1.000000	-1.000000	-1.000000	-1.000000	-1.000000	55.000000	0.000000	-1.000000	-1.000000	175839.000000	1775778624.431704
-20482.965000	-7706.070000	4179.060000	29387.205000	27172.530000	7934.985000	-4019.580000	-5688.495000	3.875517	3.404947	2.250745	-4.616632	1.849519	17.333726	-1.541247	3.071468	-0.930860	1.663340	-1.052940	-0.808409	-0.123413	0.564147	-1.000000	-1.000000	-1.000000	-1.000000	-1.000000	-1.000000	-1.000000	55.000000	0.000000	-1.000000	-1.000000	175840.000000	1775778624.431714
-20478.915000	-7700.760000	4185.540000	29398.455000	27182.970000	7926.255000	-4027.905000	-5687.460000	4.574318	5.045028	6.508369	1.548038	6.565235	10.566875	-2.933552	3.169667	-0.930860	1.663340	-1.052940	-0.808409	-0.123413	0.564147	-1.000000	-1.000000	-1.000000	-1.000000	-1.000000	-1.000000	-1.000000	55.000000	0.000000	-1.000000	-1.000000	175841.000000	1775778624.431726
-20483.370000	-7707.105000	4178.385000	29396.070000	27191.025000	7926.120000	-4028.175000	-5690.880000	3.801784	5.093655	8.377651	9.351793	11.168628	0.748532	-3.823585	2.253154	-0.930860	1.663340	-1.052940	-0.808409	-0.123413	0.564147	-1.000000	-1.000000	-1.000000	-1.000000	-1.000000	-1.000000	-1.000000	55.000000	0.000000	-1.000000	-1.000000	175842.000000	1775778624.431736
-20485.035000	-7712.505000	4167.810000	29380.230000	27195.660000	7924.995000	-4017.870000	-5688.315000	2.248461	3.189444	5.959884	12.276996	12.800813	-8.193248	-3.255504	1.091316	-0.930860	1.663340	-1.052940	-0.808409	-0.123413	0.564147	-1.000000	-1.000000	-1.000000	-1.000000	-1.000000	-1.000000	-1.000000	55.000000	0.000000	-1.000000	-1.000000	175843.000000	1775778624.431748
-20489.490000	-7718.760000	4158.855000	29360.745000	27191.610000	7929.945000	-4018.455000	-5692.770000	0.139338	-0.610919	-0.639324	6.447078	9.515080	-12.497531	-0.414132	0.071261	-0.930860	1.663340	-1.052940	-0.808409	-0.123413	0.564147	-1.000000	-1.000000	-1.000000	-1.000000	-1.000000	-1.000000	-1.000000	55.000000	0.000000	-1.000000	-1.000000	175844.000000	1775778624.431756
-20494.215000	-7722.945000	4156.245000	29363.085000	27183.645000	7937.325000	-4022.550000	-5698.350000	-2.056056	-4.791566	-8.203632	-5.320572	1.787941	-10.824939	3.503783	-0.784185	0.289940	1.663340	0.289940	-0.807737	-0.123474	0.565611	-1.000000	-1.000000	-1.000000	-1.000000	-1.000000	-1.000000	-1.000000	55.000000	0.000000	-1.000000	-1.000000	175845.000000	1775778624.431767
-20490.840000	-7718.040000	4163.445000	29377.665000	27191.205000	7954.695000	-4018.770000	-5692.590000	-3.505969	-7.064897	-12.209926	-14.993366	-7.328787	-4.549484	5.931714	-1.484700	0.289940	1.663340	0.289940	-0.807737	-0.123474	0.565611	-1.000000	-1.000000	-1.000000	-1.000000	-1.000000	-1.000000	-1.000000	55.000000	0.000000	-1.000000	-1.000000	175846.000000	1775778624.431775
-20493.810000	-7721.865000	4161.510000	29379.285000	27186.255000	7952.760000	-4019.040000	-5693.175000	-3.404996	-5.982603	-10.098688	-15.731438	-13.507876	3.091605	5.596883	-1.525367	0.289940	1.663340	0.289940	-0.807737	-0.123474	0.565611	-1.000000	-1.000000	-1.000000	-1.000000	-1.000000	-1.000000	-1.000000	55.000000	0.000000	-1.000000	-1.000000	175847.000000	1775778624.431785
-20497.185000	-7724.070000	4161.780000	29376.585000	27177.660000	7921.260000	-4033.665000	-5698.395000	-1.842861	-2.262441	-3.327629	-7.813063	-14.296022	7.492685	2.936843	-0.695859	0.289940	1.663340	0.289940	-0.807737	-0.123474	0.565611	-1.000000	-1.000000	-1.000000	-1.000000	-1.000000	-1.000000	-1.000000	55.000000	0.000000	-1.000000	-1.000000	175848.000000	1775778624.431794
-20493.990000	-7720.200000	4166.415000	29375.100000	27178.335000	7903.530000	-4045.635000	-5700.690000	0.173122	1.883147	4.076188	2.505212	-10.568961	4.885854	-1.256846	0.195167	0.289940	1.663340	0.289940	-0.807737	-0.123474	0.565611	-1.000000	-1.000000	-1.000000	-1.000000	-1.000000	-1.000000	-1.000000	55.000000	0.000000	-1.000000	-1.000000	175849.000000	1775778624.431804
-20491.515000	-7716.330000	4161.555000	29365.425000	27176.715000	7908.705000	-4041.855000	-5700.285000	1.861402	4.788520	8.654952	8.957712	-4.575313	-3.112181	-5.481286	0.432746	0.289940	1.663340	0.289940	-0.807737	-0.123474	0.565611	-1.000000	-1.000000	-1.000000	-1.000000	-1.000000	-1.000000	-1.000000	55.000000	0.000000	-1.000000	-1.000000	175850.000000	1775778624.431814
-20494.485000	-7716.105000	4162.005000	29369.970000	27175.545000	7928.280000	-4028.580000	-5701.950000	2.884574	5.902000	8.974656	9.321569	1.637539	-9.172808	-6.904464	0.236736	0.289940	1.663340	0.289940	-0.807737	-0.123474	0.565611	-1.000000	-1.000000	-1.000000	-1.000000	-1.000000	-1.000000	-1.000000	55.000000	0.000000	-1.000000	-1.000000	175851.000000	1775778624.431825
-20508.840000	-7732.890000	4138.515000	29363.850000	27171.360000	7961.805000	-4012.605000	-5709.015000	2.598334	4.826448	5.340606	5.512526	6.282556	-6.679004	-3.418012	-0.000005	0.289940	1.663340	0.289940	-0.807737	-0.123474	0.565611	-1.000000	-1.000000	-1.000000	-1.000000	-1.000000	-1.000000	-1.000000	55.000000	0.000000	-1.000000	-1.000000	175852.000000	1775778624.431834
-20508.705000	-7735.995000	4132.080000	29367.135000	27174.285000	7964.595000	-4012.380000	-5706.090000	0.532982	1.328394	-0.783839	0.974796	8.259887	3.855285	3.520576	-0.229584	0.289940	1.663340	0.289940	-0.807737	-0.123474	0.565611	-1.000000	-1.000000	-1.000000	-1.000000	-1.000000	-1.000000	-1.000000	55.000000	0.000000	-1.000000	-1.000000	175853.000000	1775778624.431845
-20511.315000	-7733.070000	4155.750000	29375.235000	27169.335000	7942.365000	-4027.140000	-5710.545000	-2.210356	-3.111030	-6.108853	-1.691853	7.640196	14.163338	8.913548	-0.305775	0.289940	1.663340	0.289940	-0.807737	-0.123474	0.565611	-1.000000	-1.000000	-1.000000	-1.000000	-1.000000	-1.000000	-1.000000	55.000000	0.000000	-1.000000	-1.000000	175854.000000	1775778624.431855
-20509.335000	-7726.005000	4163.985000	29362.005000	27167.220000	7935.570000	-4030.605000	-5707.935000	-3.529354	-5.435321	-6.348985	-1.836619	5.212956	15.081762	8.209154	-0.006761	-0.030520	2.502640	0.549360	-0.808348	-0.120910	0.565489	-1.000000	-1.000000	-1.000000	-1.000000	-1.000000	-1.000000	-1.000000	55.000000	0.000000	-1.000000	-1.000000	175855.000000	1775778624.431869
-20509.830000	-7726.680000	4157.190000	29360.655000	27165.285000	7922.115000	-4033.530000	-5705.415000	-2.415292	-3.936124	-1.047697	-1.003190	1.980444	5.236471	1.745826	0.681303	-0.030520	2.502640	0.549360	-0.808348	-0.120910	0.565489	-1.000000	-1.000000	-1.000000	-1.000000	-1.000000	-1.000000	-1.000000	55.000000	0.000000	-1.000000	-1.000000	175856.000000	1775778624.431877
-20507.670000	-7726.455000	4155.660000	29363.625000	27170.505000	7920.945000	-4027.320000	-5697.765000	0.329966	-0.040212	4.917946	-0.783890	-0.808736	-8.346181	-5.600310	1.682637	-0.030520	2.502640	0.549360	-0.808348	-0.120910	0.565489	-1.000000	-1.000000	-1.000000	-1.000000	-1.000000	-1.000000	-1.000000	55.000000	0.000000	-1.000000	-1.000000	175857.000000	1775778624.431887
-20514.870000	-7732.575000	4148.055000	29359.305000	27174.105000	7925.355000	-4025.610000	-5702.670000	2.883074	3.191226	6.597610	-0.988815	-2.003420	-16.833005	-8.916159	2.586887	-0.030520	2.502640	0.549360	-0.808348	-0.120910	0.565489	-1.000000	-1.000000	-1.000000	-1.000000	-1.000000	-1.000000	-1.000000	55.000000	0.000000	-1.000000	-1.000000	175858.000000	1775778624.431896
-20510.055000	-7729.920000	4146.570000	29357.955000	27178.335000	7927.830000	-4025.520000	-5701.140000	3.715522	3.759335	3.289191	-0.935060	-1.388811	-15.658532	-6.908769	2.490919	-0.030520	2.502640	0.549360	-0.808348	-0.120910	0.565489	-1.000000	-1.000000	-1.000000	-1.000000	-1.000000	-1.000000	-1.000000	55.000000	0.000000	-1.000000	-1.000000	175859.000000	1775778624.431908
-20508.210000	-7727.805000	4147.785000	29358.720000	27181.530000	7927.290000	-4020.840000	-5698.215000	2.802518	2.075165	-2.011860	-0.520235	0.093145	-6.678187	-1.865468	1.015727	-0.030520	2.502640	0.549360	-0.808348	-0.120910	0.565489	-1.000000	-1.000000	-1.000000	-1.000000	-1.000000	-1.000000	-1.000000	55.000000	0.000000	-1.000000	-1.000000	175860.000000	1775778624.431920
-20505.870000	-7725.330000	4151.790000	29357.280000	27179.820000	7922.700000	-4025.205000	-5700.015000	1.293145	-0.000464	-5.491257	0.144183	1.060486	4.039420	2.884447	-1.042377	-0.030520	2.502640	0.549360	-0.808348	-0.120910	0.565489	-1.000000	-1.000000	-1.000000	-1.000000	-1.000000	-1.000000	-1.000000	55.000000	0.000000	-1.000000	-1.000000	175861.000000	1775778624.431931
-20512.980000	-7731.720000	4149.585000	29354.895000	27172.125000	7918.785000	-4033.170000	-5709.870000	-0.070928	-1.237015	-5.308572	0.789924	0.465114	10.720770	4.886035	-2.838555	-0.030520	2.502640	0.549360	-0.808348	-0.120910	0.565489	-1.000000	-1.000000	-1.000000	-1.000000	-1.000000	-1.000000	-1.000000	55.000000	0.000000	-1.000000	-1.000000	175862.000000	1775778624.431939
-20516.715000	-7731.270000	4163.085000	29384.505000	27181.755000	7920.270000	-4037.355000	-5713.515000	-1.470969	-1.762684	-2.230442	1.571056	-1.552158	11.235268	3.446699	-4.209148	-0.030520	2.502640	0.549360	-0.808348	-0.120910	0.565489	-1.000000	-1.000000	-1.000000	-1.000000	-1.000000	-1.000000	-1.000000	55.000000	0.000000	-1.000000	-1.000000	175863.000000	1775778624.431950
-20511.450000	-7720.785000	4173.705000	29399.580000	27189.810000	7924.410000	-4034.565000	-5706.630000	-2.844336	-1.771996	1.995555	3.526924	-3.176791	7.412267	0.137635	-4.677064	-0.030520	2.502640	0.549360	-0.808348	-0.120910	0.565489	-1.000000	-1.000000	-1.000000	-1.000000	-1.000000	-1.000000	-1.000000	55.000000	0.000000	-1.000000	-1.000000	175864.000000	1775778624.431959
-20507.220000	-7720.245000	4158.810000	29358.810000	27179.325000	7923.645000	-4033.350000	-5701.095000	-3.170037	-0.849797	5.270350	5.561718	-2.884632	2.617896	-2.283712	-3.147538	-1.800680	2.960440	-0.488320	-0.808287	-0.118286	0.566039	-1.000000	-1.000000	-1.000000	-1.000000	-1.000000	-1.000000	-1.000000	55.000000	0.000000	-1.000000	-1.000000	175865.000000	1775778624.431969
-20498.355000	-7717.455000	4160.745000	29360.205000	27182.295000	7931.070000	-4030.065000	-5693.445000	-1.615900	0.790397	5.215922	3.516910	-1.481583	-0.817738	-2.160024	0.552071	-1.800680	2.960440	-0.488320	-0.808287	-0.118286	0.566039	-1.000000	-1.000000	-1.000000	-1.000000	-1.000000	-1.000000	-1.000000	55.000000	0.000000	-1.000000	-1.000000	175866.000000	1775778624.431979
-20496.330000	-7718.085000	4165.020000	29364.660000	27183.375000	7935.390000	-4032.900000	-5695.830000	1.214038	1.943659	1.621312	-3.243175	-0.422806	-2.172665	-0.062444	4.671255	-1.800680	2.960440	-0.488320	-0.808287	-0.118286	0.566039	-1.000000	-1.000000	-1.000000	-1.000000	-1.000000	-1.000000	-1.000000	55.000000	0.000000	-1.000000	-1.000000	175867.000000	1775778624.431989
-20508.030000	-7726.365000	4161.375000	29369.295000	27187.380000	7932.915000	-4035.915000	-5703.795000	3.287716	1.540667	-2.760857	-9.280359	0.176436	-2.005882	2.029797	6.485587	-1.800680	2.960440	-0.488320	-0.808287	-0.118286	0.566039	-1.000000	-1.000000	-1.000000	-1.000000	-1.000000	-1.000000	-1.000000	55.000000	0.000000	-1.000000	-1.000000	175868.000000	1775778624.431999
-20502.630000	-7721.865000	4165.830000	29378.115000	27191.610000	7921.620000	-4035.870000	-5700.960000	2.719190	-0.414771	-5.200673	-9.585997	0.852777	-1.874514	2.526922	4.552535	-1.800680	2.960440	-0.488320	-0.808287	-0.118286	0.566039	-1.000000	-1.000000	-1.000000	-1.000000	-1.000000	-1.000000	-1.000000	55.000000	0.000000	-1.000000	-1.000000	175869.000000	1775778624.432011
-20505.240000	-7725.825000	4160.250000	29375.685000	27187.155000	7906.770000	-4039.380000	-5703.435000	-0.061587	-2.596110	-4.962156	-4.299966	1.593495	-3.238241	1.376131	0.248423	-1.800680	2.960440	-0.488320	-0.808287	-0.118286	0.566039	-1.000000	-1.000000	-1.000000	-1.000000	-1.000000	-1.000000	-1.000000	55.000000	0.000000	-1.000000	-1.000000	175870.000000	1775778624.432021
-20504.340000	-7727.715000	4156.830000	29372.580000	27184.860000	7907.535000	-4036.680000	-5701.500000	-2.801863	-3.529834	-3.035762	2.423312	1.661637	-5.753053	-0.345962	-3.553039	-1.800680	2.960440	-0.488320	-0.808287	-0.118286	0.566039	-1.000000	-1.000000	-1.000000	-1.000000	-1.000000	-1.000000	-1.000000	55.000000	0.000000	-1.000000	-1.000000	175871.000000	1775778624.432038
-20509.965000	-7734.015000	4151.835000	29364.615000	27175.770000	7916.940000	-4039.875000	-5708.475000	-3.901728	-2.964877	-0.999199	6.130027	0.456263	-6.800940	-1.489797	-5.032453	-1.800680	2.960440	-0.488320	-0.808287	-0.118286	0.566039	-1.000000	-1.000000	-1.000000	-1.000000	-1.000000	-1.000000	-1.000000	55.000000	0.000000	-1.000000	-1.000000	175872.000000	1775778624.432047
-20507.085000	-7730.955000	4156.335000	29366.100000	27178.920000	7936.020000	-4039.695000	-5708.565000	-3.252350	-1.505081	0.403747	5.320423	-1.542859	-3.640017	-1.612638	-4.285375	-1.800680	2.960440	-0.488320	-0.808287	-0.118286	0.566039	-1.000000	-1.000000	-1.000000	-1.000000	-1.000000	-1.000000	-1.000000	55.000000	0.000000	-1.000000	-1.000000	175873.000000	1775778624.432058
-20502.090000	-7722.675000	4165.650000	29368.710000	27171.270000	7925.265000	-4050.225000	-5709.420000	-1.340815	0.523145	1.700572	1.954294	-2.965746	3.155179	-1.177688	-2.316424	-1.800680	2.960440	-0.488320	-0.808287	-0.118286	0.566039	-1.000000	-1.000000	-1.000000	-1.000000	-1.000000	-1.000000	-1.000000	55.000000	0.000000	-1.000000	-1.000000	175874.000000	1775778624.432068
-20493.405000	-7711.425000	4176.405000	29375.910000	27173.745000	7926.885000	-4051.620000	-5703.480000	1.376511	3.179165	3.667075	-0.743045	-2.798303	9.067941	-0.968484	0.111467	-2.731540	3.189340	0.671440	-0.807371	-0.119262	0.565367	-1.000000	-1.000000	-1.000000	-1.000000	-1.000000	-1.000000	-1.000000	55.000000	0.000000	-1.000000	-1.000000	175875.000000	1775778624.432079
-20491.020000	-7707.240000	4179.510000	29387.340000	27193.185000	7943.310000	-4041.495000	-5697.765000	4.110656	5.896381	5.883835	-0.840484	-0.710834	10.217560	-0.865836	2.609869	-2.731540	3.189340	0.671440	-0.807371	-0.119262	0.565367	-1.000000	-1.000000	-1.000000	-1.000000	-1.000000	-1.000000	-1.000000	55.000000	0.000000	-1.000000	-1.000000	175876.000000	1775778624.432090
-20503.485000	-7724.745000	4159.935000	29376.675000	27193.005000	7951.185000	-4023.495000	-5698.845000	5.270296	6.731310	6.254639	1.031939	3.049207	7.237411	0.474181	4.579919	-2.731540	3.189340	0.671440	-0.807371	-0.119262	0.565367	-1.000000	-1.000000	-1.000000	-1.000000	-1.000000	-1.000000	-1.000000	55.000000	0.000000	-1.000000	-1.000000	175877.000000	1775778624.432101
-20522.025000	-7748.235000	4134.690000	29357.550000	27185.580000	7951.680000	-4017.060000	-5707.080000	3.087366	3.334905	2.366176	1.927309	6.429011	2.862328	3.671071	4.844733	-2.731540	3.189340	0.671440	-0.807371	-0.119262	0.565367	-1.000000	-1.000000	-1.000000	-1.000000	-1.000000	-1.000000	-1.000000	55.000000	0.000000	-1.000000	-1.000000	175878.000000	1775778624.432111
-20518.425000	-7743.285000	4139.460000	29363.085000	27188.055000	7928.685000	-4026.690000	-5708.565000	-2.127420	-3.860674	-5.162452	-0.341072	6.493337	-1.888299	6.596368	2.601958	-2.731540	3.189340	0.671440	-0.807371	-0.119262	0.565367	-1.000000	-1.000000	-1.000000	-1.000000	-1.000000	-1.000000	-1.000000	55.000000	0.000000	-1.000000	-1.000000	175879.000000	1775778624.432123
-20510.280000	-7734.015000	4149.585000	29373.120000	27189.765000	7911.405000	-4034.385000	-5706.495000	-6.683460	-9.945004	-11.095023	-3.808779	2.880085	-7.503449	5.781081	-1.102655	-2.731540	3.189340	0.671440	-0.807371	-0.119262	0.565367	-1.000000	-1.000000	-1.000000	-1.000000	-1.000000	-1.000000	-1.000000	55.000000	0.000000	-1.000000	-1.000000	175880.000000	1775778624.432131
-20509.830000	-7733.340000	4149.540000	29363.580000	27180.135000	7899.885000	-4043.205000	-5709.915000	-6.637742	-9.783845	-10.182466	-4.740170	-2.034375	-13.081774	0.280304	-3.950538	-2.731540	3.189340	0.671440	-0.807371	-0.119262	0.565367	-1.000000	-1.000000	-1.000000	-1.000000	-1.000000	-1.000000	-1.000000	55.000000	0.000000	-1.000000	-1.000000	175881.000000	1775778624.432142
-20512.260000	-7735.815000	4147.920000	29360.430000	27173.295000	7895.700000	-4048.155000	-5714.145000	-2.075538	-3.539703	-2.906868	-2.600920	-5.995450	-15.397538	-6.931768	-4.596571	-2.731540	3.189340	0.671440	-0.807371	-0.119262	0.565367	-1.000000	-1.000000	-1.000000	-1.000000	-1.000000	-1.000000	-1.000000	55.000000	0.000000	-1.000000	-1.000000	175882.000000	1775778624.432152
-20513.970000	-7739.055000	4145.355000	29365.965000	27168.840000	7900.470000	-4051.395000	-5716.980000	3.330494	3.968643	5.417182	0.412675	-7.892661	-11.574038	-11.464177	-3.441109	-2.731540	3.189340	0.671440	-0.807371	-0.119262	0.565367	-1.000000	-1.000000	-1.000000	-1.000000	-1.000000	-1.000000	-1.000000	55.000000	0.000000	-1.000000	-1.000000	175883.000000	1775778624.432164
-20511.900000	-7736.265000	4148.505000	29374.605000	27172.935000	7915.050000	-4049.955000	-5716.395000	6.204922	8.204901	9.940664	2.911762	-7.059717	-1.778928	-10.673838	-1.475357	-2.731540	3.189340	0.671440	-0.807371	-0.119262	0.565367	-1.000000	-1.000000	-1.000000	-1.000000	-1.000000	-1.000000	-1.000000	55.000000	0.000000	-1.000000	-1.000000	175884.000000	1775778624.432174
-20509.020000	-7733.070000	4145.805000	29378.430000	27185.085000	7929.360000	-4037.940000	-5712.120000	5.830745	8.049603	9.378390	4.739402	-3.203353	10.543808	-4.816720	0.711024	-2.578940	3.418240	0.030520	-0.807615	-0.121948	0.563963	-1.000000	-1.000000	-1.000000	-1.000000	-1.000000	-1.000000	-1.000000	55.000000	0.000000	-1.000000	-1.000000	175885.000000	1775778624.432186
-20513.970000	-7739.865000	4135.410000	29366.775000	27182.475000	7925.130000	-4041.675000	-5716.980000	3.400549	4.980689	5.124471	5.234838	2.655550	19.950278	3.418022	2.699060	-2.578940	3.418240	0.030520	-0.807615	-0.121948	0.563963	-1.000000	-1.000000	-1.000000	-1.000000	-1.000000	-1.000000	-1.000000	55.000000	0.000000	-1.000000	-1.000000	175886.000000	1775778624.432195
-20510.775000	-7737.390000	4140.675000	29357.055000	27184.680000	7922.070000	-4043.790000	-5713.920000	0.347277	0.882228	-0.476352	3.101549	7.693482	21.407857	9.898032	3.778359	-2.578940	3.418240	0.030520	-0.807615	-0.121948	0.563963	-1.000000	-1.000000	-1.000000	-1.000000	-1.000000	-1.000000	-1.000000	55.000000	0.000000	-1.000000	-1.000000	175887.000000	1775778624.432206
-20506.005000	-7734.015000	4148.955000	29361.285000	27176.130000	7905.510000	-4048.740000	-5712.120000	-2.049945	-2.557205	-4.565591	-1.382924	8.982443	13.506530	11.304853	3.544879	-2.578940	3.418240	0.030520	-0.807615	-0.121948	0.563963	-1.000000	-1.000000	-1.000000	-1.000000	-1.000000	-1.000000	-1.000000	55.000000	0.000000	-1.000000	-1.000000	175888.000000	1775778624.432215
-20500.695000	-7729.155000	4157.955000	29375.955000	27172.755000	7896.960000	-4050.360000	-5710.185000	-2.769175	-3.953895	-4.928267	-5.121551	5.771909	-0.251021	7.482983	2.398166	-2.578940	3.418240	0.030520	-0.807615	-0.121948	0.563963	-1.000000	-1.000000	-1.000000	-1.000000	-1.000000	-1.000000	-1.000000	55.000000	0.000000	-1.000000	-1.000000	175889.000000	1775778624.432765
-20503.890000	-7733.205000	4154.670000	29376.450000	27172.710000	7912.800000	-4048.650000	-5715.855000	-1.902182	-3.197683	-2.031507	-4.957253	0.050375	-12.921609	1.274903	0.841745	-2.578940	3.418240	0.030520	-0.807615	-0.121948	0.563963	-1.000000	-1.000000	-1.000000	-1.000000	-1.000000	-1.000000	-1.000000	55.000000	0.000000	-1.000000	-1.000000	175890.000000	1775778624.432785
-20523.105000	-7751.745000	4136.670000	29366.100000	27171.000000	7942.320000	-4041.315000	-5730.120000	-1.091286	-1.959106	0.857015	-1.517456	-4.829159	-17.316364	-3.622181	-1.204851	-2.578940	3.418240	0.030520	-0.807615	-0.121948	0.563963	-1.000000	-1.000000	-1.000000	-1.000000	-1.000000	-1.000000	-1.000000	55.000000	0.000000	-1.000000	-1.000000	175891.000000	1775778624.432801
-20535.570000	-7763.130000	4124.340000	29361.420000	27167.985000	7956.855000	-4031.595000	-5735.745000	-2.222190	-2.316226	0.426391	1.466782	-6.583915	-10.880508	-4.854450	-3.838034	-2.578940	3.418240	0.030520	-0.807615	-0.121948	0.563963	-1.000000	-1.000000	-1.000000	-1.000000	-1.000000	-1.000000	-1.000000	55.000000	0.000000	-1.000000	-1.000000	175892.000000	1775778624.432810
-20532.825000	-7757.460000	4131.180000	29368.170000	27177.345000	7955.550000	-4031.775000	-5734.215000	-4.833670	-4.051506	-3.049905	1.737620	-5.026904	1.260982	-2.691342	-5.909742	-2.578940	3.418240	0.030520	-0.807615	-0.121948	0.563963	-1.000000	-1.000000	-1.000000	-1.000000	-1.000000	-1.000000	-1.000000	55.000000	0.000000	-1.000000	-1.000000	175893.000000	1775778624.432821
-20530.260000	-7754.895000	4134.825000	29369.610000	27178.200000	7951.545000	-4040.550000	-5734.575000	-5.818172	-4.340274	-5.599738	0.500784	-1.271378	9.955061	0.164169	-5.492366	-2.578940	3.418240	0.030520	-0.807615	-0.121948	0.563963	-1.000000	-1.000000	-1.000000	-1.000000	-1.000000	-1.000000	-1.000000	55.000000	0.000000	-1.000000	-1.000000	175894.000000	1775778624.432832
-20525.940000	-7748.055000	4138.785000	29362.005000	27174.960000	7952.985000	-4048.740000	-5735.025000	-2.836767	-1.154538	-3.969082	-0.323899	2.696047	9.690765	0.711025	-2.106209	-2.548420	3.189340	-0.198380	-0.809080	-0.124023	0.563231	-1.000000	-1.000000	-1.000000	-1.000000	-1.000000	-1.000000	-1.000000	55.000000	0.000000	-1.000000	-1.000000	175895.000000	1775778624.432845
-20520.270000	-7737.255000	4152.465000	29365.290000	27175.995000	7950.330000	-4056.255000	-5734.710000	3.095153	4.440612	1.291206	-0.446038	4.679008	2.207763	-1.697331	2.529893	-2.548420	3.189340	-0.198380	-0.809080	-0.124023	0.563231	-1.000000	-1.000000	-1.000000	-1.000000	-1.000000	-1.000000	-1.000000	55.000000	0.000000	-1.000000	-1.000000	175896.000000	1775778624.432856
-20510.100000	-7726.140000	4153.050000	29384.235000	27185.355000	7925.805000	-4057.650000	-5728.770000	8.819589	9.578983	7.051332	0.090069	4.086579	-7.011061	-4.917915	6.122849	-2.548420	3.189340	-0.198380	-0.809080	-0.124023	0.563231	-1.000000	-1.000000	-1.000000	-1.000000	-1.000000	-1.000000	-1.000000	55.000000	0.000000	-1.000000	-1.000000	175897.000000	1775778624.432868
-20511.180000	-7734.285000	4134.150000	29361.555000	27170.460000	7893.090000	-4050.990000	-5724.945000	11.440274	11.389645	9.516997	1.332968	1.972392	-14.050574	-5.908438	7.457337	-2.548420	3.189340	-0.198380	-0.809080	-0.124023	0.563231	-1.000000	-1.000000	-1.000000	-1.000000	-1.000000	-1.000000	-1.000000	55.000000	0.000000	-1.000000	-1.000000	175898.000000	1775778624.432876
-20518.335000	-7747.020000	4133.295000	29348.145000	27154.350000	7871.445000	-4036.455000	-5724.315000	9.402798	7.922549	6.308082	1.547493	-1.092539	-17.447912	-2.904024	6.455017	-2.548420	3.189340	-0.198380	-0.809080	-0.124023	0.563231	-1.000000	-1.000000	-1.000000	-1.000000	-1.000000	-1.000000	-1.000000	55.000000	0.000000	-1.000000	-1.000000	175899.000000	1775778624.432887
-20532.915000	-7761.960000	4119.885000	29340.945000	27157.860000	7874.595000	-4034.160000	-5733.990000	2.897542	-0.431241	-1.058732	-1.011817	-4.715853	-15.699856	3.157261	3.384726	-2.548420	3.189340	-0.198380	-0.809080	-0.124023	0.563231	-1.000000	-1.000000	-1.000000	-1.000000	-1.000000	-1.000000	-1.000000	55.000000	0.000000	-1.000000	-1.000000	175900.000000	1775778624.432898
-20536.740000	-7762.320000	4120.785000	29350.080000	27165.285000	7891.560000	-4038.570000	-5737.365000	-5.654651	-9.930685	-8.057225	-4.500189	-6.688555	-6.942232	8.617474	-1.198979	-2.548420	3.189340	-0.198380	-0.809080	-0.124023	0.563231	-1.000000	-1.000000	-1.000000	-1.000000	-1.000000	-1.000000	-1.000000	55.000000	0.000000	-1.000000	-1.000000	175901.000000	1775778624.432911
-20534.535000	-7757.505000	4129.695000	29368.305000	27170.955000	7905.240000	-4043.880000	-5736.150000	-12.046826	-15.120954	-10.471579	-4.783464	-4.603242	7.899573	9.566433	-5.699570	-2.548420	3.189340	-0.198380	-0.809080	-0.124023	0.563231	-1.000000	-1.000000	-1.000000	-1.000000	-1.000000	-1.000000	-1.000000	55.000000	0.000000	-1.000000	-1.000000	175902.000000	1775778624.432921
-20537.370000	-7762.590000	4131.945000	29389.815000	27174.060000	7916.220000	-4048.110000	-5739.570000	-12.778587	-12.845733	-6.833988	0.225775	0.902186	23.111640	5.149538	-7.902409	-2.548420	3.189340	-0.198380	-0.809080	-0.124023	0.563231	-1.000000	-1.000000	-1.000000	-1.000000	-1.000000	-1.000000	-1.000000	55.000000	0.000000	-1.000000	-1.000000	175903.000000	1775778624.432932
-20533.545000	-7757.325000	4135.140000	29380.680000	27180.810000	7943.490000	-4041.720000	-5736.330000	-7.735645	-4.793408	0.527304	7.823737	6.483921	31.455538	-1.681713	-6.761129	-2.548420	3.189340	-0.198380	-0.809080	-0.124023	0.563231	-1.000000	-1.000000	-1.000000	-1.000000	-1.000000	-1.000000	-1.000000	55.000000	0.000000	-1.000000	-1.000000	175904.000000	1775778624.432940
-20534.445000	-7754.130000	4131.765000	29350.080000	27181.710000	7936.740000	-4039.020000	-5736.150000	0.040236	4.453095	7.054825	11.430806	9.009510	29.028534	-6.553848	-3.060832	-0.457800	2.899400	-0.305200	-0.811521	-0.124145	0.562376	-1.000000	-1.000000	-1.000000	-1.000000	-1.000000	-1.000000	-1.000000	55.000000	0.000000	-1.000000	-1.000000	175905.000000	1775778624.432952
-20533.320000	-7751.835000	4132.080000	29361.150000	27186.435000	7932.195000	-4034.745000	-5731.965000	6.692843	10.835564	9.257440	6.614150	7.454860	16.276397	-7.004359	1.389197	-0.457800	2.899400	-0.305200	-0.811521	-0.124145	0.562376	-1.000000	-1.000000	-1.000000	-1.000000	-1.000000	-1.000000	-1.000000	55.000000	0.000000	-1.000000	-1.000000	175906.000000	1775778624.432963
-20532.915000	-7751.520000	4130.640000	29361.555000	27183.510000	7936.605000	-4036.320000	-5729.490000	9.639014	12.323060	6.721263	-3.211211	2.906040	-2.377932	-3.892559	4.789943	-0.457800	2.899400	-0.305200	-0.811521	-0.124145	0.562376	-1.000000	-1.000000	-1.000000	-1.000000	-1.000000	-1.000000	-1.000000	55.000000	0.000000	-1.000000	-1.000000	175907.000000	1775778624.432974
-20534.040000	-7751.295000	4133.520000	29361.420000	27179.010000	7925.355000	-4046.940000	-5732.505000	8.480295	9.129540	1.713341	-10.416711	-2.591209	-19.514929	-0.201884	5.975837	-0.457800	2.899400	-0.305200	-0.811521	-0.124145	0.562376	-1.000000	-1.000000	-1.000000	-1.000000	-1.000000	-1.000000	-1.000000	55.000000	0.000000	-1.000000	-1.000000	175908.000000	1775778624.432983
-20531.070000	-7746.030000	4146.705000	29382.345000	27184.860000	7918.380000	-4049.865000	-5732.820000	4.623661	3.352026	-2.550132	-10.632190	-6.949314	-28.855490	1.378717	4.623335	-0.457800	2.899400	-0.305200	-0.811521	-0.124145	0.562376	-1.000000	-1.000000	-1.000000	-1.000000	-1.000000	-1.000000	-1.000000	55.000000	0.000000	-1.000000	-1.000000	175909.000000	1775778624.432993
-20535.120000	-7749.045000	4140.045000	29379.870000	27179.820000	7915.995000	-4050.495000	-5735.520000	0.163893	-2.250644	-4.008283	-4.639805	-8.504112	-28.329479	0.568767	1.473600	-0.457800	2.899400	-0.305200	-0.811521	-0.124145	0.562376	-1.000000	-1.000000	-1.000000	-1.000000	-1.000000	-1.000000	-1.000000	55.000000	0.000000	-1.000000	-1.000000	175910.000000	1775778624.433003
-20540.970000	-7753.545000	4132.305000	29372.085000	27177.705000	7920.045000	-4045.905000	-5737.995000	-3.395501	-5.939921	-3.393111	2.915760	-7.015690	-19.411692	-0.667033	-1.949750	-0.457800	2.899400	-0.305200	-0.811521	-0.124145	0.562376	-1.000000	-1.000000	-1.000000	-1.000000	-1.000000	-1.000000	-1.000000	55.000000	0.000000	-1.000000	-1.000000	175911.000000	1775778624.433016
-20544.705000	-7756.920000	4127.850000	29369.655000	27174.330000	7920.585000	-4048.830000	-5742.090000	-5.528880	-7.465827	-2.940614	6.694841	-3.806711	-5.834512	-0.500616	-4.260477	-0.457800	2.899400	-0.305200	-0.811521	-0.124145	0.562376	-1.000000	-1.000000	-1.000000	-1.000000	-1.000000	-1.000000	-1.000000	55.000000	0.000000	-1.000000	-1.000000	175912.000000	1775778624.433026
-20537.730000	-7750.530000	4130.145000	29367.630000	27166.365000	7890.345000	-4058.010000	-5738.175000	-5.866034	-6.965354	-3.318368	5.044539	-0.555697	6.881083	0.836378	-4.702896	-0.457800	2.899400	-0.305200	-0.811521	-0.124145	0.562376	-1.000000	-1.000000	-1.000000	-1.000000	-1.000000	-1.000000	-1.000000	55.000000	0.000000	-1.000000	-1.000000	175913.000000	1775778624.433039
-20526.525000	-7738.020000	4141.395000	29369.160000	27170.280000	7870.365000	-4063.455000	-5729.940000	-3.794908	-4.223964	-3.036608	0.561901	1.730911	13.094116	1.655961	-3.008310	-0.457800	2.899400	-0.305200	-0.811521	-0.124145	0.562376	-1.000000	-1.000000	-1.000000	-1.000000	-1.000000	-1.000000	-1.000000	55.000000	0.000000	-1.000000	-1.000000	175914.000000	1775778624.433050
-20526.525000	-7738.020000	4141.395000	29369.160000	27170.280000	7870.365000	-4063.455000	-5729.940000	0.366758	0.359986	-0.722719	-3.067970	3.152028	11.382624	1.127483	0.322623	-0.457800	2.899400	-0.305200	-0.811521	-0.124145	0.562376	-1.000000	-1.000000	-1.000000	-1.000000	-1.000000	-1.000000	-1.000000	55.000000	0.000000	-1.000000	-1.000000	175915.000000	1775778624.433062
-20526.525000	-7738.020000	4141.395000	29369.160000	27170.280000	7870.365000	-4063.455000	-5729.940000	4.397061	4.661052	2.735085	-3.881655	4.180174	6.257666	0.172809	3.553582	-0.457800	2.899400	-0.305200	-0.811521	-0.124145	0.562376	-1.000000	-1.000000	-1.000000	-1.000000	-1.000000	-1.000000	-1.000000	55.000000	0.000000	-1.000000	-1.000000	175916.000000	1775778624.433070
-20526.525000	-7738.020000	4141.395000	29369.160000	27170.280000	7870.365000	-4063.455000	-5729.940000	5.722310	6.150870	4.945413	-2.243608	4.674650	3.275320	0.026307	4.734646	-0.457800	2.899400	-0.305200	-0.811521	-0.124145	0.562376	-1.000000	-1.000000	-1.000000	-1.000000	-1.000000	-1.000000	-1.000000	55.000000	0.000000	-1.000000	-1.000000	175917.000000	1775778624.433078
-20526.525000	-7738.020000	4141.395000	29369.160000	27170.280000	7870.365000	-4063.455000	-5729.940000	3.749542	4.238520	4.523836	0.258532	4.195456	3.985386	0.847490	3.362173	-0.457800	2.899400	-0.305200	-0.811521	-0.124145	0.562376	-1.000000	-1.000000	-1.000000	-1.000000	-1.000000	-1.000000	-1.000000	55.000000	0.000000	-1.000000	-1.000000	175918.000000	1775778624.433086
-20526.525000	-7738.020000	4141.395000	29369.160000	27170.280000	7870.365000	-4063.455000	-5729.940000	0.023477	0.491564	2.030787	2.150229	2.702834	6.190969	1.861279	0.537222	-0.457800	2.899400	-0.305200	-0.811521	-0.124145	0.562376	-1.000000	-1.000000	-1.000000	-1.000000	-1.000000	-1.000000	-1.000000	55.000000	0.000000	-1.000000	-1.000000	175919.000000	1775778624.433095
-20526.525000	-7738.020000	4141.395000	29369.160000	27170.280000	7870.365000	-4063.455000	-5729.940000	-3.282031	-2.880025	-0.934654	2.746955	0.665158	7.008423	2.231455	-2.112485	-0.457800	2.899400	-0.305200	-0.811521	-0.124145	0.562376	-1.000000	-1.000000	-1.000000	-1.000000	-1.000000	-1.000000	-1.000000	55.000000	0.000000	-1.000000	-1.000000	175920.000000	1775778624.433103
-20526.525000	-7738.020000	4141.395000	29369.160000	27170.280000	7870.365000	-4063.455000	-5729.940000	-4.729278	-4.408688	-2.936026	2.167552	-1.229374	5.113119	1.653557	-3.449535	-0.457800	2.899400	-0.305200	-0.811521	-0.124145	0.562376	-1.000000	-1.000000	-1.000000	-1.000000	-1.000000	-1.000000	-1.000000	55.000000	0.000000	-1.000000	-1.000000	175921.000000	1775778624.433112
-20526.525000	-7738.020000	4141.395000	29369.160000	27170.280000	7870.365000	-4063.455000	-5729.940000	-4.107848	-3.868467	-3.367849	0.981539	-2.429762	1.143741	0.409585	-3.228381	-0.457800	2.899400	-0.305200	-0.811521	-0.124145	0.562376	-1.000000	-1.000000	-1.000000	-1.000000	-1.000000	-1.000000	-1.000000	55.000000	0.000000	-1.000000	-1.000000	175922.000000	1775778624.433119
-20526.525000	-7738.020000	4141.395000	29369.160000	27170.280000	7870.365000	-4063.455000	-5729.940000	-2.150833	-1.987682	-2.468493	-0.193553	-2.727721	-3.172747	-0.927273	-1.925188	-0.457800	2.899400	-0.305200	-0.811521	-0.124145	0.562376	-1.000000	-1.000000	-1.000000	-1.000000	-1.000000	-1.000000	-1.000000	55.000000	0.000000	-1.000000	-1.000000	175923.000000	1775778624.433126
-20526.525000	-7738.020000	4141.395000	29369.160000	27170.280000	7870.365000	-4063.455000	-5729.940000	0.079804	0.172960	-0.940572	-0.953754	-2.258846	-6.184866	-1.844473	-0.303801	-0.457800	2.899400	-0.305200	-0.811521	-0.124145	0.562376	-1.000000	-1.000000	-1.000000	-1.000000	-1.000000	-1.000000	-1.000000	55.000000	0.000000	-1.000000	-1.000000	175924.000000	1775778624.433133
-20526.525000	-7738.020000	4141.395000	29369.160000	27170.280000	7870.365000	-4063.455000	-5729.940000	1.731427	1.763308	0.490929	-1.182657	-1.364544	-7.069767	-2.102502	0.984945	-0.457800	2.899400	-0.305200	-0.811521	-0.124145	0.562376	-1.000000	-1.000000	-1.000000	-1.000000	-1.000000	-1.000000	-1.000000	55.000000	0.000000	-1.000000	-1.000000	175925.000000	1775778624.433141
-20526.525000	-7738.020000	4141.395000	29369.160000	27170.280000	7870.365000	-4063.455000	-5729.940000	2.421320	2.404915	1.367883	-0.987122	-0.417545	-5.970755	-1.759701	1.613826	-0.457800	2.899400	-0.305200	-0.811521	-0.124145	0.562376	-1.000000	-1.000000	-1.000000	-1.000000	-1.000000	-1.000000	-1.000000	55.000000	0.000000	-1.000000	-1.000000	175926.000000	1775778624.433148
-20526.525000	-7738.020000	4141.395000	29369.160000	27170.280000	7870.365000	-4063.455000	-5729.940000	2.220084	2.172341	1.576977	-0.576337	0.308866	-3.680725	-1.065896	1.588223	-0.457800	2.899400	-0.305200	-0.811521	-0.124145	0.562376	-1.000000	-1.000000	-1.000000	-1.000000	-1.000000	-1.000000	-1.000000	55.000000	0.000000	-1.000000	-1.000000	175927.000000	1775778624.433155
-20526.525000	-7738.020000	4141.395000	29369.160000	27170.280000	7870.365000	-4063.455000	-5729.940000	1.471104	1.410292	1.268723	-0.152083	0.694637	-1.167467	-0.315699	1.128228	-0.457800	2.899400	-0.305200	-0.811521	-0.124145	0.562376	-1.000000	-1.000000	-1.000000	-1.000000	-1.000000	-1.000000	-1.000000	55.000000	0.000000	-1.000000	-1.000000	175928.000000	1775778624.433163
-20526.525000	-7738.020000	4141.395000	29369.160000	27170.280000	7870.365000	-4063.455000	-5729.940000	0.577582	0.519692	0.710768	0.155074	0.757856	0.812779	0.266331	0.517392	-0.457800	2.899400	-0.305200	-0.811521	-0.124145	0.562376	-1.000000	-1.000000	-1.000000	-1.000000	-1.000000	-1.000000	-1.000000	55.000000	0.000000	-1.000000	-1.000000	175929.000000	1775778624.433171
-20526.525000	-7738.020000	4141.395000	29369.160000	27170.280000	7870.365000	-4063.455000	-5729.940000	-0.152434	-0.196569	0.155343	0.300266	0.600793	1.897618	0.576891	-0.013918	-0.457800	2.899400	-0.305200	-0.811521	-0.124145	0.562376	-1.000000	-1.000000	-1.000000	-1.000000	-1.000000	-1.000000	-1.000000	55.000000	0.000000	-1.000000	-1.000000	175930.000000	1775778624.433177
-20526.525000	-7738.020000	4141.395000	29369.160000	27170.280000	7870.365000	-4063.455000	-5729.940000	-0.570634	-0.596459	-0.237438	0.304830	0.349255	2.103632	0.626103	-0.343000	-0.457800	2.899400	-0.305200	-0.811521	-0.124145	0.562376	-1.000000	-1.000000	-1.000000	-1.000000	-1.000000	-1.000000	-1.000000	55.000000	0.000000	-1.000000	-1.000000	175931.000000	1775778624.433184
-20526.525000	-7738.020000	4141.395000	29369.160000	27170.280000	7870.365000	-4063.455000	-5729.940000	-0.675741	-0.684258	-0.415960	0.223385	0.107330	1.691513	0.495126	-0.452933	-0.457800	2.899400	-0.305200	-0.811521	-0.124145	0.562376	-1.000000	-1.000000	-1.000000	-1.000000	-1.000000	-1.000000	-1.000000	55.000000	0.000000	-1.000000	-1.000000	175932.000000	1775778624.433190
-20526.525000	-7738.020000	4141.395000	29369.160000	27170.280000	7870.365000	-4063.455000	-5729.940000	-0.558284	-0.554098	-0.411728	0.113796	-0.064121	1.001406	0.286397	-0.397373	-0.457800	2.899400	-0.305200	-0.811521	-0.124145	0.562376	-1.000000	-1.000000	-1.000000	-1.000000	-1.000000	-1.000000	-1.000000	55.000000	0.000000	-1.000000	-1.000000	175933.000000	1775778624.433197
-20526.525000	-7738.020000	4141.395000	29369.160000	27170.280000	7870.365000	-4063.455000	-5729.940000	-0.337910	-0.326934	-0.297447	0.018481	-0.147810	0.323973	0.085676	-0.256917	-0.457800	2.899400	-0.305200	-0.811521	-0.124145	0.562376	-1.000000	-1.000000	-1.000000	-1.000000	-1.000000	-1.000000	-1.000000	55.000000	0.000000	-1.000000	-1.000000	175934.000000	1775778624.433203
-20526.525000	-7738.020000	4141.395000	29369.160000	27170.280000	7870.365000	-4063.455000	-5729.940000	-0.116439	-0.103993	-0.148890	-0.041795	-0.157494	-0.165002	-0.056478	-0.104483	-0.457800	2.899400	-0.305200	-0.811521	-0.124145	0.562376	-1.000000	-1.000000	-1.000000	-1.000000	-1.000000	-1.000000	-1.000000	55.000000	0.000000	-1.000000	-1.000000	175935.000000	1775778624.433209
-20526.525000	-7738.020000	4141.395000	29369.160000	27170.280000	7870.365000	-4063.455000	-5729.940000	0.044877	0.055161	-0.021188	-0.064980	-0.121502	-0.410506	-0.125537	0.013033	-0.457800	2.899400	-0.305200	-0.811521	-0.124145	0.562376	-1.000000	-1.000000	-1.000000	-1.000000	-1.000000	-1.000000	-1.000000	55.000000	0.000000	-1.000000	-1.000000	175936.000000	1775778624.433216
-20526.525000	-7738.020000	4141.395000	29369.160000	27170.280000	7870.365000	-4063.455000	-5729.940000	0.126685	0.133134	0.058956	-0.060433	-0.068809	-0.446253	-0.132870	0.077795	-0.457800	2.899400	-0.305200	-0.811521	-0.124145	0.562376	-1.000000	-1.000000	-1.000000	-1.000000	-1.000000	-1.000000	-1.000000	55.000000	0.000000	-1.000000	-1.000000	175937.000000	1775778624.433222
-20526.525000	-7738.020000	4141.395000	29369.160000	27170.280000	7870.365000	-4063.455000	-5729.940000	0.139884	0.142450	0.089320	-0.041358	-0.020705	-0.349554	-0.102106	0.094175	-0.457800	2.899400	-0.305200	-0.811521	-0.124145	0.562376	-1.000000	-1.000000	-1.000000	-1.000000	-1.000000	-1.000000	-1.000000	55.000000	0.000000	-1.000000	-1.000000	175938.000000	1775778624.433230
-20526.525000	-7738.020000	4141.395000	29369.160000	27170.280000	7870.365000	-4063.455000	-5729.940000	0.109922	0.109549	0.082603	-0.019350	0.011869	-0.201877	-0.057497	0.078226	-0.457800	2.899400	-0.305200	-0.811521	-0.124145	0.562376	-1.000000	-1.000000	-1.000000	-1.000000	-1.000000	-1.000000	-1.000000	55.000000	0.000000	-1.000000	-1.000000	175939.000000	1775778624.433236
-20526.525000	-7738.020000	4141.395000	29369.160000	27170.280000	7870.365000	-4063.455000	-5729.940000	0.063448	0.061431	0.056501	-0.001782	0.026925	-0.064423	-0.016892	0.048178	-0.457800	2.899400	-0.305200	-0.811521	-0.124145	0.562376	-1.000000	-1.000000	-1.000000	-1.000000	-1.000000	-1.000000	-1.000000	55.000000	0.000000	-1.000000	-1.000000	175940.000000	1775778624.433243
-20526.525000	-7738.020000	4141.395000	29369.160000	27170.280000	7870.365000	-4063.455000	-5729.940000	0.020263	0.017772	0.026537	0.008456	0.028112	0.030359	0.010534	0.018346	-0.457800	2.899400	-0.305200	-0.811521	-0.124145	0.562376	-1.000000	-1.000000	-1.000000	-1.000000	-1.000000	-1.000000	-1.000000	55.000000	0.000000	-1.000000	-1.000000	175941.000000	1775778624.433249
-20526.525000	-7738.020000	4141.395000	29369.160000	27170.280000	7870.365000	-4063.455000	-5729.940000	-0.009303	-0.011475	0.002602	0.011799	0.021254	0.075547	0.023135	-0.003219	-0.457800	2.899400	-0.305200	-0.811521	-0.124145	0.562376	-1.000000	-1.000000	-1.000000	-1.000000	-1.000000	-1.000000	-1.000000	55.000000	0.000000	-1.000000	-1.000000	175942.000000	1775778624.433257
-20526.525000	-7738.020000	4141.395000	29369.160000	27170.280000	7870.365000	-4063.455000	-5729.940000	-0.023187	-0.024670	-0.011403	0.010410	0.011790	0.080709	0.024014	-0.014273	-0.457800	2.899400	-0.305200	-0.811521	-0.124145	0.562376	-1.000000	-1.000000	-1.000000	-1.000000	-1.000000	-1.000000	-1.000000	55.000000	0.000000	-1.000000	-1.000000	175943.000000	1775778624.433264
-20526.525000	-7738.020000	4141.395000	29369.160000	27170.280000	7870.365000	-4063.455000	-5729.940000	-0.024557	-0.025319	-0.016039	0.006802	0.003446	0.062114	0.018109	-0.016464	-0.457800	2.899400	-0.305200	-0.811521	-0.124145	0.562376	-1.000000	-1.000000	-1.000000	-1.000000	-1.000000	-1.000000	-1.000000	55.000000	0.000000	-1.000000	-1.000000	175944.000000	1775778624.433271
-20526.525000	-7738.020000	4141.395000	29369.160000	27170.280000	7870.365000	-4063.455000	-5729.940000	-0.018623	-0.018833	-0.014214	0.002974	-0.002029	0.035326	0.010027	-0.013152	-0.457800	2.899400	-0.305200	-0.811521	-0.124145	0.562376	-1.000000	-1.000000	-1.000000	-1.000000	-1.000000	-1.000000	-1.000000	55.000000	0.000000	-1.000000	-1.000000	175945.000000	1775778624.433280
-20526.525000	-7738.020000	4141.395000	29369.160000	27170.280000	7870.365000	-4063.455000	-5729.940000	-0.010281	-0.010177	-0.009324	0.000079	-0.004456	0.011230	0.002921	-0.007716	-0.457800	2.899400	-0.305200	-0.811521	-0.124145	0.562376	-1.000000	-1.000000	-1.000000	-1.000000	-1.000000	-1.000000	-1.000000	55.000000	0.000000	-1.000000	-1.000000	175946.000000	1775778624.433287
-20526.525000	-7738.020000	4141.395000	29369.160000	27170.280000	7870.365000	-4063.455000	-5729.940000	-0.002892	-0.002688	-0.004089	-0.001513	-0.004568	-0.004886	-0.001729	-0.002599	-0.457800	2.899400	-0.305200	-0.811521	-0.124145	0.562376	-1.000000	-1.000000	-1.000000	-1.000000	-1.000000	-1.000000	-1.000000	55.000000	0.000000	-1.000000	-1.000000	175947.000000	1775778624.433293
-20526.525000	-7738.020000	4141.395000	29369.160000	27170.280000	7870.365000	-4063.455000	-5729.940000	0.001962	0.002122	-0.000097	-0.001962	-0.003396	-0.012283	-0.003779	0.000946	-0.457800	2.899400	-0.305200	-0.811521	-0.124145	0.562376	-1.000000	-1.000000	-1.000000	-1.000000	-1.000000	-1.000000	-1.000000	55.000000	0.000000	-1.000000	-1.000000	175948.000000	1775778624.433300
-20526.525000	-7738.020000	4141.395000	29369.160000	27170.280000	7870.365000	-4063.455000	-5729.940000	0.004114	0.004163	0.002126	-0.001672	-0.001849	-0.012929	-0.003859	0.002669	-0.457800	2.899400	-0.305200	-0.811521	-0.124145	0.562376	-1.000000	-1.000000	-1.000000	-1.000000	-1.000000	-1.000000	-1.000000	55.000000	0.000000	-1.000000	-1.000000	175949.000000	1775778624.433307
-20526.525000	-7738.020000	4141.395000	29369.160000	27170.280000	7870.365000	-4063.455000	-5729.940000	0.004215	0.004145	0.002782	-0.001064	-0.000521	-0.009738	-0.002848	0.002934	-0.457800	2.899400	-0.305200	-0.811521	-0.124145	0.562376	-1.000000	-1.000000	-1.000000	-1.000000	-1.000000	-1.000000	-1.000000	55.000000	0.000000	-1.000000	-1.000000	175950.000000	1775778624.433313
-20526.525000	-7738.020000	4141.395000	29369.160000	27170.280000	7870.365000	-4063.455000	-5729.940000	0.003181	0.003021	0.002412	-0.000454	0.000329	-0.005337	-0.001521	0.002340	-0.457800	2.899400	-0.305200	-0.811521	-0.124145	0.562376	-1.000000	-1.000000	-1.000000	-1.000000	-1.000000	-1.000000	-1.000000	55.000000	0.000000	-1.000000	-1.000000	175951.000000	1775778624.433320
-20526.525000	-7738.020000	4141.395000	29369.160000	27170.280000	7870.365000	-4063.455000	-5729.940000	0.001818	0.001608	0.001591	-0.000010	0.000693	-0.001478	-0.000385	0.001446	-0.457800	2.899400	-0.305200	-0.811521	-0.124145	0.562376	-1.000000	-1.000000	-1.000000	-1.000000	-1.000000	-1.000000	-1.000000	55.000000	0.000000	-1.000000	-1.000000	175952.000000	1775778624.433327
-20526.525000	-7738.020000	4141.395000	29369.160000	27170.280000	7870.365000	-4063.455000	-5729.940000	0.000651	0.000425	0.000752	0.000223	0.000699	0.001043	0.000341	0.000635	-0.457800	2.899400	-0.305200	-0.811521	-0.124145	0.562376	-1.000000	-1.000000	-1.000000	-1.000000	-1.000000	-1.000000	-1.000000	55.000000	0.000000	-1.000000	-1.000000	175953.000000	1775778624.433333
-20526.525000	-7738.020000	4141.395000	29369.160000	27170.280000	7870.365000	-4063.455000	-5729.940000	-0.000093	-0.000311	0.000134	0.000281	0.000512	0.002162	0.000650	0.000090	-0.457800	2.899400	-0.305200	-0.811521	-0.124145	0.562376	-1.000000	-1.000000	-1.000000	-1.000000	-1.000000	-1.000000	-1.000000	55.000000	0.000000	-1.000000	-1.000000	175954.000000	1775778624.433341
-20526.525000	-7738.020000	4141.395000	29369.160000	27170.280000	7870.365000	-4063.455000	-5729.940000	-0.000408	-0.000608	-0.000199	0.000229	0.000275	0.002229	0.000653	-0.000165	-0.457800	2.899400	-0.305200	-0.811521	-0.124145	0.562376	-1.000000	-1.000000	-1.000000	-1.000000	-1.000000	-1.000000	-1.000000	55.000000	0.000000	-1.000000	-1.000000	175955.000000	1775778624.433348
-20526.525000	-7738.020000	4141.395000	29369.160000	27170.280000	7870.365000	-4063.455000	-5729.940000	-0.000411	-0.000590	-0.000288	0.000134	0.000076	0.001718	0.000491	-0.000196	-0.457800	2.899400	-0.305200	-0.811521	-0.124145	0.562376	-1.000000	-1.000000	-1.000000	-1.000000	-1.000000	-1.000000	-1.000000	55.000000	0.000000	-1.000000	-1.000000	175956.000000	1775778624.433355
-20526.525000	-7738.020000	4141.395000	29369.160000	27170.280000	7870.365000	-4063.455000	-5729.940000	-0.000247	-0.000411	-0.000224	0.000043	-0.000049	0.001039	0.000287	-0.000101	-0.457800	2.899400	-0.305200	-0.811521	-0.124145	0.562376	-1.000000	-1.000000	-1.000000	-1.000000	-1.000000	-1.000000	-1.000000	55.000000	0.000000	-1.000000	-1.000000	175957.000000	1775778624.433361
-20526.525000	-7738.020000	4141.395000	29369.160000	27170.280000	7870.365000	-4063.455000	-5729.940000	-0.000040	-0.000195	-0.000097	-0.000022	-0.000101	0.000455	0.000115	0.000034	-0.457800	2.899400	-0.305200	-0.811521	-0.124145	0.562376	-1.000000	-1.000000	-1.000000	-1.000000	-1.000000	-1.000000	-1.000000	55.000000	0.000000	-1.000000	-1.000000	175958.000000	1775778624.433368
-20526.525000	-7738.020000	4141.395000	29369.160000	27170.280000	7870.365000	-4063.455000	-5729.940000	0.000132	-0.000019	0.000028	-0.000054	-0.000100	0.000081	0.000008	0.000153	-0.457800	2.899400	-0.305200	-0.811521	-0.124145	0.562376	-1.000000	-1.000000	-1.000000	-1.000000	-1.000000	-1.000000	-1.000000	55.000000	0.000000	-1.000000	-1.000000	175959.000000	1775778624.433375
-20526.525000	-7738.020000	4141.395000	29369.160000	27170.280000	7870.365000	-4063.455000	-5729.940000	0.000238	0.000088	0.000118	-0.000061	-0.000072	-0.000082	-0.000037	0.000230	-0.457800	2.899400	-0.305200	-0.811521	-0.124145	0.562376	-1.000000	-1.000000	-1.000000	-1.000000	-1.000000	-1.000000	-1.000000	55.000000	0.000000	-1.000000	-1.000000	175960.000000	1775778624.433381
-20526.525000	-7738.020000	4141.395000	29369.160000	27170.280000	7870.365000	-4063.455000	-5729.940000	0.000280	0.000129	0.000164	-0.000052	-0.000037	-0.000089	-0.000036	0.000264	-0.457800	2.899400	-0.305200	-0.811521	-0.124145	0.562376	-1.000000	-1.000000	-1.000000	-1.000000	-1.000000	-1.000000	-1.000000	55.000000	0.000000	-1.000000	-1.000000	175961.000000	1775778624.433388
-20526.525000	-7738.020000	4141.395000	29369.160000	27170.280000	7870.365000	-4063.455000	-5729.940000	0.000277	0.000124	0.000175	-0.000038	-0.000009	-0.000014	-0.000012	0.000265	-0.457800	2.899400	-0.305200	-0.811521	-0.124145	0.562376	-1.000000	-1.000000	-1.000000	-1.000000	-1.000000	-1.000000	-1.000000	55.000000	0.000000	-1.000000	-1.000000	175962.000000	1775778624.433394
-20526.525000	-7738.020000	4141.395000	29369.160000	27170.280000	7870.365000	-4063.455000	-5729.940000	0.000250	0.000097	0.000163	-0.000025	0.000009	0.000084	0.000017	0.000248	-0.457800	2.899400	-0.305200	-0.811521	-0.124145	0.562376	-1.000000	-1.000000	-1.000000	-1.000000	-1.000000	-1.000000	-1.000000	55.000000	0.000000	-1.000000	-1.000000	175963.000000	1775778624.433401
-20526.525000	-7738.020000	4141.395000	29369.160000	27170.280000	7870.365000	-4063.455000	-5729.940000	0.000218	0.000065	0.000143	-0.000016	0.000016	0.000167	0.000041	0.000227	-0.457800	2.899400	-0.305200	-0.811521	-0.124145	0.562376	-1.000000	-1.000000	-1.000000	-1.000000	-1.000000	-1.000000	-1.000000	55.000000	0.000000	-1.000000	-1.000000	175964.000000	1775778624.433407
-20526.525000	-7738.020000	4141.395000	29369.160000	27170.280000	7870.365000	-4063.455000	-5729.940000	0.000192	0.000039	0.000124	-0.000011	0.000016	0.000218	0.000056	0.000208	-0.457800	2.899400	-0.305200	-0.811521	-0.124145	0.562376	-1.000000	-1.000000	-1.000000	-1.000000	-1.000000	-1.000000	-1.000000	55.000000	0.000000	-1.000000	-1.000000	175965.000000	1775778624.433414
-20526.525000	-7738.020000	4141.395000	29369.160000	27170.280000	7870.365000	-4063.455000	-5729.940000	0.000175	0.000024	0.000111	-0.000010	0.000012	0.000239	0.000062	0.000195	-0.457800	2.899400	-0.305200	-0.811521	-0.124145	0.562376	-1.000000	-1.000000	-1.000000	-1.000000	-1.000000	-1.000000	-1.000000	55.000000	0.000000	-1.000000	-1.000000	175966.000000	1775778624.433420
-20526.525000	-7738.020000	4141.395000	29369.160000	27170.280000	7870.365000	-4063.455000	-5729.940000	0.000168	0.000018	0.000103	-0.000011	0.000007	0.000238	0.000061	0.000188	-0.457800	2.899400	-0.305200	-0.811521	-0.124145	0.562376	-1.000000	-1.000000	-1.000000	-1.000000	-1.000000	-1.000000	-1.000000	55.000000	0.000000	-1.000000	-1.000000	175967.000000	1775778624.433427
-20526.525000	-7738.020000	4141.395000	29369.160000	27170.280000	7870.365000	-4063.455000	-5729.940000	0.000167	0.000019	0.000101	-0.000013	0.000003	0.000225	0.000058	0.000187	-0.457800	2.899400	-0.305200	-0.811521	-0.124145	0.562376	-1.000000	-1.000000	-1.000000	-1.000000	-1.000000	-1.000000	-1.000000	55.000000	0.000000	-1.000000	-1.000000	175968.000000	1775778624.433435
-20526.525000	-7738.020000	4141.395000	29369.160000	27170.280000	7870.365000	-4063.455000	-5729.940000	0.000169	0.000023	0.000102	-0.000015	0.000001	0.000209	0.000053	0.000187	-0.457800	2.899400	-0.305200	-0.811521	-0.124145	0.562376	-1.000000	-1.000000	-1.000000	-1.000000	-1.000000	-1.000000	-1.000000	55.000000	0.000000	-1.000000	-1.000000	175969.000000	1775778624.433446
-20526.525000	-7738.020000	4141.395000	29369.160000	27170.280000	7870.365000	-4063.455000	-5729.940000	0.000172	0.000027	0.000103	-0.000016	-0.000000	0.000196	0.000049	0.000188	-0.457800	2.899400	-0.305200	-0.811521	-0.124145	0.562376	-1.000000	-1.000000	-1.000000	-1.000000	-1.000000	-1.000000	-1.000000	55.000000	0.000000	-1.000000	-1.000000	175970.000000	1775778624.433453
-20526.525000	-7738.020000	4141.395000	29369.160000	27170.280000	7870.365000	-4063.455000	-5729.940000	0.000174	0.000030	0.000105	-0.000016	-0.000000	0.000187	0.000047	0.000189	-0.457800	2.899400	-0.305200	-0.811521	-0.124145	0.562376	-1.000000	-1.000000	-1.000000	-1.000000	-1.000000	-1.000000	-1.000000	55.000000	0.000000	-1.000000	-1.000000	175971.000000	1775778624.433461
-20526.525000	-7738.020000	4141.395000	29369.160000	27170.280000	7870.365000	-4063.455000	-5729.940000	0.000174	0.000032	0.000106	-0.000016	0.000000	0.000183	0.000046	0.000189	-0.457800	2.899400	-0.305200	-0.811521	-0.124145	0.562376	-1.000000	-1.000000	-1.000000	-1.000000	-1.000000	-1.000000	-1.000000	55.000000	0.000000	-1.000000	-1.000000	175972.000000	1775778624.433467
-20526.525000	-7738.020000	4141.395000	29369.160000	27170.280000	7870.365000	-4063.455000	-5729.940000	0.000174	0.000032	0.000106	-0.000016	0.000001	0.000182	0.000045	0.000188	-0.457800	2.899400	-0.305200	-0.811521	-0.124145	0.562376	-1.000000	-1.000000	-1.000000	-1.000000	-1.000000	-1.000000	-1.000000	55.000000	0.000000	-1.000000	-1.000000	175973.000000	1775778624.433473
-20526.525000	-7738.020000	4141.395000	29369.160000	27170.280000	7870.365000	-4063.455000	-5729.940000	0.000172	0.000032	0.000105	-0.000016	0.000002	0.000182	0.000045	0.000186	-0.457800	2.899400	-0.305200	-0.811521	-0.124145	0.562376	-1.000000	-1.000000	-1.000000	-1.000000	-1.000000	-1.000000	-1.000000	55.000000	0.000000	-1.000000	-1.000000	175974.000000	1775778624.433479
-20526.525000	-7738.020000	4141.395000	29369.160000	27170.280000	7870.365000	-4063.455000	-5729.940000	0.000170	0.000031	0.000104	-0.000015	0.000002	0.000182	0.000046	0.000185	-0.457800	2.899400	-0.305200	-0.811521	-0.124145	0.562376	-1.000000	-1.000000	-1.000000	-1.000000	-1.000000	-1.000000	-1.000000	55.000000	0.000000	-1.000000	-1.000000	175975.000000	1775778624.433486
-20526.525000	-7738.020000	4141.395000	29369.160000	27170.280000	7870.365000	-4063.455000	-5729.940000	0.000168	0.000030	0.000103	-0.000015	0.000002	0.000182	0.000046	0.000183	-0.457800	2.899400	-0.305200	-0.811521	-0.124145	0.562376	-1.000000	-1.000000	-1.000000	-1.000000	-1.000000	-1.000000	-1.000000	55.000000	0.000000	-1.000000	-1.000000	175976.000000	1775778624.433492
-20526.525000	-7738.020000	4141.395000	29369.160000	27170.280000	7870.365000	-4063.455000	-5729.940000	0.000166	0.000030	0.000102	-0.000015	0.000002	0.000182	0.000046	0.000181	-0.457800	2.899400	-0.305200	-0.811521	-0.124145	0.562376	-1.000000	-1.000000	-1.000000	-1.000000	-1.000000	-1.000000	-1.000000	55.000000	0.000000	-1.000000	-1.000000	175977.000000	1775778624.433499
-20526.525000	-7738.020000	4141.395000	29369.160000	27170.280000	7870.365000	-4063.455000	-5729.940000	0.000164	0.000029	0.000101	-0.000015	0.000002	0.000181	0.000046	0.000179	-0.457800	2.899400	-0.305200	-0.811521	-0.124145	0.562376	-1.000000	-1.000000	-1.000000	-1.000000	-1.000000	-1.000000	-1.000000	55.000000	0.000000	-1.000000	-1.000000	175978.000000	1775778624.433505
-20526.525000	-7738.020000	4141.395000	29369.160000	27170.280000	7870.365000	-4063.455000	-5729.940000	0.000163	0.000029	0.000100	-0.000014	0.000002	0.000180	0.000045	0.000177	-0.457800	2.899400	-0.305200	-0.811521	-0.124145	0.562376	-1.000000	-1.000000	-1.000000	-1.000000	-1.000000	-1.000000	-1.000000	55.000000	0.000000	-1.000000	-1.000000	175979.000000	1775778624.433512
-20526.525000	-7738.020000	4141.395000	29369.160000	27170.280000	7870.365000	-4063.455000	-5729.940000	0.000162	0.000029	0.000099	-0.000014	0.000002	0.000178	0.000045	0.000176	-0.457800	2.899400	-0.305200	-0.811521	-0.124145	0.562376	-1.000000	-1.000000	-1.000000	-1.000000	-1.000000	-1.000000	-1.000000	55.000000	0.000000	-1.000000	-1.000000	175980.000000	1775778624.433520
-20526.525000	-7738.020000	4141.395000	29369.160000	27170.280000	7870.365000	-4063.455000	-5729.940000	0.000160	0.000028	0.000098	-0.000014	0.000002	0.000176	0.000044	0.000174	-0.457800	2.899400	-0.305200	-0.811521	-0.124145	0.562376	-1.000000	-1.000000	-1.000000	-1.000000	-1.000000	-1.000000	-1.000000	55.000000	0.000000	-1.000000	-1.000000	175981.000000	1775778624.433527
-20526.525000	-7738.020000	4141.395000	29369.160000	27170.280000	7870.365000	-4063.455000	-5729.940000	0.000159	0.000028	0.000098	-0.000014	0.000002	0.000175	0.000044	0.000173	-0.457800	2.899400	-0.305200	-0.811521	-0.124145	0.562376	-1.000000	-1.000000	-1.000000	-1.000000	-1.000000	-1.000000	-1.000000	55.000000	0.000000	-1.000000	-1.000000	175982.000000	1775778624.433533
-20615.625000	-7763.760000	4099.725000	29371.905000	27156.420000	7905.960000	-4073.265000	-5776.065000	-1.569071	-0.453305	-0.733795	0.048331	-0.244101	0.627072	-0.172730	-0.812182	2.243220	2.075360	0.274680	-0.804075	-0.125000	0.561400	-1.000000	-1.000000	-1.000000	-1.000000	-1.000000	-1.000000	-1.000000	55.000000	0.000000	-1.000000	-1.000000	175985.000000	1775778624.438814
-20616.165000	-7760.295000	4107.960000	29388.960000	27165.510000	7895.160000	-4065.615000	-5772.060000	-7.190152	-2.013399	-3.213162	0.521585	-0.956918	2.678655	-0.655838	-3.646626	2.243220	2.075360	0.274680	-0.804075	-0.125000	0.561400	-1.000000	-1.000000	-1.000000	-1.000000	-1.000000	-1.000000	-1.000000	55.000000	0.000000	-1.000000	-1.000000	175986.000000	1775778624.438836
-20612.430000	-7760.610000	4095.495000	29393.280000	27173.835000	7907.445000	-4055.355000	-5763.015000	-13.579674	-3.655759	-5.917140	1.869631	-1.236673	4.780100	-0.700328	-6.559243	2.243220	2.075360	0.274680	-0.804075	-0.125000	0.561400	-1.000000	-1.000000	-1.000000	-1.000000	-1.000000	-1.000000	-1.000000	55.000000	0.000000	-1.000000	-1.000000	175987.000000	1775778624.442164
-20621.565000	-7770.150000	4092.435000	29393.685000	27166.770000	7932.330000	-4062.240000	-5771.700000	-12.558332	-3.309081	-5.701514	3.347592	-0.028322	4.819884	0.484466	-5.343528	2.243220	2.075360	0.274680	-0.804075	-0.125000	0.561400	-1.000000	-1.000000	-1.000000	-1.000000	-1.000000	-1.000000	-1.000000	55.000000	0.000000	-1.000000	-1.000000	175988.000000	1775778624.442189
-20630.655000	-7774.200000	4099.185000	29393.325000	27151.965000	7925.535000	-4075.695000	-5781.690000	-2.021655	-0.865391	-1.621792	3.150581	1.475997	2.879120	1.679423	0.233948	2.243220	2.075360	0.274680	-0.804075	-0.125000	0.561400	-1.000000	-1.000000	-1.000000	-1.000000	-1.000000	-1.000000	-1.000000	55.000000	0.000000	-1.000000	-1.000000	175989.000000	1775778624.447095
-20624.625000	-7763.940000	4105.260000	29402.235000	27156.645000	7910.235000	-4077.315000	-5777.415000	11.762555	2.248217	4.772014	0.702713	1.218017	-0.773744	0.888277	6.164613	2.243220	2.075360	0.274680	-0.804075	-0.125000	0.561400	-1.000000	-1.000000	-1.000000	-1.000000	-1.000000	-1.000000	-1.000000	55.000000	0.000000	-1.000000	-1.000000	175990.000000	1775778624.447121
-20623.995000	-7760.970000	4099.320000	29374.425000	27155.430000	7900.380000	-4077.630000	-5777.280000	21.471444	5.179503	10.523520	-2.954011	-0.450014	-6.480115	-1.529245	9.329477	2.243220	2.075360	0.274680	-0.804075	-0.125000	0.561400	-1.000000	-1.000000	-1.000000	-1.000000	-1.000000	-1.000000	-1.000000	55.000000	0.000000	-1.000000	-1.000000	175991.000000	1775778624.453386
-20626.560000	-7762.635000	4096.935000	29366.685000	27154.755000	7900.965000	-4081.050000	-5780.835000	23.295045	7.163604	12.324325	-6.950376	-1.487658	-12.290838	-3.240528	9.171640	2.243220	2.075360	0.274680	-0.804075	-0.125000	0.561400	-1.000000	-1.000000	-1.000000	-1.000000	-1.000000	-1.000000	-1.000000	55.000000	0.000000	-1.000000	-1.000000	175992.000000	1775778624.453414
-20624.580000	-7761.420000	4100.220000	29381.670000	27158.085000	7910.910000	-4077.945000	-5778.315000	17.272304	6.942676	8.993284	-9.686519	-0.894406	-14.027011	-2.728838	6.373812	2.243220	2.075360	0.274680	-0.804075	-0.125000	0.561400	-1.000000	-1.000000	-1.000000	-1.000000	-1.000000	-1.000000	-1.000000	55.000000	0.000000	-1.000000	-1.000000	175993.000000	1775778624.453443
-20631.195000	-7768.935000	4090.680000	29377.215000	27150.480000	7916.130000	-4075.155000	-5781.465000	6.444119	3.979258	2.456571	-8.261039	0.684667	-9.127349	-0.240822	2.235300	2.243220	2.075360	0.274680	-0.804075	-0.125000	0.561400	-1.000000	-1.000000	-1.000000	-1.000000	-1.000000	-1.000000	-1.000000	55.000000	0.000000	-1.000000	-1.000000	175994.000000	1775778624.453455
-20629.800000	-7766.460000	4092.435000	29382.930000	27155.025000	7912.575000	-4076.730000	-5779.575000	-4.856140	-0.715205	-4.191968	-2.178634	1.911716	0.359186	2.824729	-1.731536	2.487380	1.037680	1.205540	-0.807127	-0.124023	0.565123	-1.000000	-1.000000	-1.000000	-1.000000	-1.000000	-1.000000	-1.000000	55.000000	0.000000	-1.000000	-1.000000	175995.000000	1775778624.458642
-20627.640000	-7762.005000	4098.330000	29392.020000	27157.095000	7900.110000	-4080.780000	-5778.720000	-12.760991	-4.889705	-8.282521	5.457185	2.145901	8.855458	4.627095	-4.357676	2.487380	1.037680	1.205540	-0.807127	-0.124023	0.565123	-1.000000	-1.000000	-1.000000	-1.000000	-1.000000	-1.000000	-1.000000	55.000000	0.000000	-1.000000	-1.000000	175996.000000	1775778624.458660
-20620.800000	-7752.915000	4107.960000	29393.370000	27152.235000	7885.620000	-4081.005000	-5775.030000	-15.039039	-6.277954	-8.183232	10.982735	1.656146	11.471641	4.048077	-5.067581	2.487380	1.037680	1.205540	-0.807127	-0.124023	0.565123	-1.000000	-1.000000	-1.000000	-1.000000	-1.000000	-1.000000	-1.000000	55.000000	0.000000	-1.000000	-1.000000	175997.000000	1775778624.460286
-20622.465000	-7751.880000	4111.335000	29390.220000	27146.610000	7862.895000	-4088.385000	-5778.450000	-12.005031	-4.371406	-4.347174	12.016558	0.544724	7.317828	1.502743	-4.133929	2.487380	1.037680	1.205540	-0.807127	-0.124023	0.565123	-1.000000	-1.000000	-1.000000	-1.000000	-1.000000	-1.000000	-1.000000	55.000000	0.000000	-1.000000	-1.000000	175998.000000	1775778624.460303
-20625.300000	-7754.400000	4106.160000	29391.120000	27148.545000	7858.980000	-4091.400000	-5780.295000	-6.380895	-1.015696	0.454484	8.155387	-1.085471	-0.307774	-1.635335	-2.622641	2.487380	1.037680	1.205540	-0.807127	-0.124023	0.565123	-1.000000	-1.000000	-1.000000	-1.000000	-1.000000	-1.000000	-1.000000	55.000000	0.000000	-1.000000	-1.000000	175999.000000	1775778624.465508
-20629.755000	-7758.630000	4096.845000	29377.170000	27150.885000	7885.260000	-4088.250000	-5782.545000	-1.485725	1.117279	2.834515	1.207936	-2.314057	-5.539983	-3.807666	-1.563150	2.487380	1.037680	1.205540	-0.807127	-0.124023	0.565123	-1.000000	-1.000000	-1.000000	-1.000000	-1.000000	-1.000000	-1.000000	55.000000	0.000000	-1.000000	-1.000000	176000.000000	1775778624.465561
-20636.730000	-7768.665000	4079.340000	29368.620000	27152.190000	7921.260000	-4086.900000	-5789.295000	0.831755	0.647620	1.156508	-6.052409	-2.127000	-3.120052	-3.797079	-1.250136	2.487380	1.037680	1.205540	-0.807127	-0.124023	0.565123	-1.000000	-1.000000	-1.000000	-1.000000	-1.000000	-1.000000	-1.000000	55.000000	0.000000	-1.000000	-1.000000	176001.000000	1775778624.471115
-20641.185000	-7777.620000	4067.595000	29368.440000	27148.635000	7927.515000	-4085.235000	-5790.285000	0.756962	-1.855103	-3.412510	-10.901087	-0.710579	6.619033	-1.620948	-1.369166	2.487380	1.037680	1.205540	-0.807127	-0.124023	0.565123	-1.000000	-1.000000	-1.000000	-1.000000	-1.000000	-1.000000	-1.000000	55.000000	0.000000	-1.000000	-1.000000	176002.000000	1775778624.471130
-20646.630000	-7776.360000	4080.510000	29383.560000	27152.820000	7902.585000	-4094.415000	-5794.875000	-0.268648	-4.391056	-7.263081	-10.898006	0.784677	15.699959	1.135032	-1.321567	2.487380	1.037680	1.205540	-0.807127	-0.124023	0.565123	-1.000000	-1.000000	-1.000000	-1.000000	-1.000000	-1.000000	-1.000000	55.000000	0.000000	-1.000000	-1.000000	176003.000000	1775778624.471744
-20643.480000	-7768.755000	4089.645000	29390.670000	27152.280000	7891.560000	-4101.255000	-5795.640000	-0.640962	-4.509397	-6.324573	-5.277125	1.552799	14.786142	2.363010	-0.644154	2.487380	1.037680	1.205540	-0.807127	-0.124023	0.565123	-1.000000	-1.000000	-1.000000	-1.000000	-1.000000	-1.000000	-1.000000	55.000000	0.000000	-1.000000	-1.000000	176004.000000	1775778624.471765
-20640.780000	-7767.360000	4084.155000	29377.755000	27148.230000	7893.630000	-4099.230000	-5791.365000	0.580473	-1.151145	-0.010619	3.040134	1.429126	2.856886	1.361163	0.740923	2.014320	1.846460	0.610400	-0.818723	-0.122436	0.564513	-1.000000	-1.000000	-1.000000	-1.000000	-1.000000	-1.000000	-1.000000	55.000000	0.000000	-1.000000	-1.000000	176005.000000	1775778624.476387
-20636.775000	-7762.230000	4085.820000	29362.815000	27151.110000	7907.355000	-4090.095000	-5786.370000	3.135535	4.056081	7.436526	8.401777	0.536511	-11.448763	-0.252449	2.657815	2.014320	1.846460	0.610400	-0.818723	-0.122436	0.564513	-1.000000	-1.000000	-1.000000	-1.000000	-1.000000	-1.000000	-1.000000	55.000000	0.000000	-1.000000	-1.000000	176006.000000	1775778624.476403
-20638.890000	-7763.040000	4087.305000	29369.160000	27154.530000	7920.945000	-4087.080000	-5788.530000	5.543186	8.005136	11.131436	7.489320	-0.485968	-18.159255	-0.325336	4.435898	2.014320	1.846460	0.610400	-0.818723	-0.122436	0.564513	-1.000000	-1.000000	-1.000000	-1.000000	-1.000000	-1.000000	-1.000000	55.000000	0.000000	-1.000000	-1.000000	176007.000000	1775778624.485826
-20641.320000	-7763.490000	4088.430000	29377.035000	27153.855000	7908.885000	-4090.905000	-5788.665000	6.013770	8.430464	9.610239	2.732864	-0.844102	-14.419905	1.216924	4.872254	2.014320	1.846460	0.610400	-0.818723	-0.122436	0.564513	-1.000000	-1.000000	-1.000000	-1.000000	-1.000000	-1.000000	-1.000000	55.000000	0.000000	-1.000000	-1.000000	176008.000000	1775778624.485847
-20646.315000	-7766.415000	4086.540000	29379.420000	27153.045000	7898.670000	-4090.905000	-5790.015000	3.784733	5.151910	4.559136	-0.960246	-0.544034	-5.561228	2.436533	3.275092	2.014320	1.846460	0.610400	-0.818723	-0.122436	0.564513	-1.000000	-1.000000	-1.000000	-1.000000	-1.000000	-1.000000	-1.000000	55.000000	0.000000	-1.000000	-1.000000	176009.000000	1775778624.485868
-20656.125000	-7778.115000	4070.970000	29367.270000	27141.030000	7892.460000	-4094.775000	-5793.570000	-0.366234	-0.273167	-1.572802	-1.690525	-0.426659	1.253390	1.813437	0.226460	2.014320	1.846460	0.610400	-0.818723	-0.122436	0.564513	-1.000000	-1.000000	-1.000000	-1.000000	-1.000000	-1.000000	-1.000000	55.000000	0.000000	-1.000000	-1.000000	176010.000000	1775778624.485875
-20654.460000	-7775.370000	4073.670000	29369.250000	27141.210000	7890.345000	-4096.035000	-5790.870000	-4.572417	-5.549493	-6.844107	-1.151472	-1.182180	3.337532	-0.389085	-2.842424	2.014320	1.846460	0.610400	-0.818723	-0.122436	0.564513	-1.000000	-1.000000	-1.000000	-1.000000	-1.000000	-1.000000	-1.000000	55.000000	0.000000	-1.000000	-1.000000	176011.000000	1775778624.489035
-20649.420000	-7768.215000	4081.005000	29375.955000	27145.665000	7890.930000	-4094.640000	-5787.450000	-6.545029	-8.141500	-9.255150	-0.890161	-2.154859	2.617110	-2.695389	-4.404444	2.014320	1.846460	0.610400	-0.818723	-0.122436	0.564513	-1.000000	-1.000000	-1.000000	-1.000000	-1.000000	-1.000000	-1.000000	55.000000	0.000000	-1.000000	-1.000000	176012.000000	1775778624.489058
-20647.485000	-7768.260000	4076.460000	29373.480000	27141.480000	7883.955000	-4096.710000	-5785.290000	-4.945919	-6.527947	-7.436213	-0.626994	-1.911970	1.889859	-3.654076	-3.718366	2.014320	1.846460	0.610400	-0.818723	-0.122436	0.564513	-1.000000	-1.000000	-1.000000	-1.000000	-1.000000	-1.000000	-1.000000	55.000000	0.000000	-1.000000	-1.000000	176013.000000	1775778624.493542
-20646.000000	-7765.470000	4079.385000	29375.460000	27141.975000	7875.360000	-4097.070000	-5784.525000	-0.777389	-1.856389	-2.584800	-0.025062	-0.247141	2.026748	-2.895025	-1.459056	2.014320	1.846460	0.610400	-0.818723	-0.122436	0.564513	-1.000000	-1.000000	-1.000000	-1.000000	-1.000000	-1.000000	-1.000000	55.000000	0.000000	-1.000000	-1.000000	176014.000000	1775778624.493556
-20650.770000	-7768.755000	4077.045000	29371.005000	27138.060000	7878.645000	-4095.585000	-5786.595000	3.228513	2.838757	2.345592	0.420257	1.646617	2.393767	-1.085872	0.781362	-4.654300	0.381500	-2.929920	-0.819029	-0.117920	0.561522	-1.000000	-1.000000	-1.000000	-1.000000	-1.000000	-1.000000	-1.000000	55.000000	0.000000	-1.000000	-1.000000	176015.000000	1775778624.496355
-20656.980000	-7774.245000	4080.195000	29372.895000	27136.305000	7879.635000	-4098.015000	-5791.995000	4.617433	4.940419	5.125073	0.232933	2.581932	2.736964	0.823828	1.614746	-4.654300	0.381500	-2.929920	-0.819029	-0.117920	0.561522	-1.000000	-1.000000	-1.000000	-1.000000	-1.000000	-1.000000	-1.000000	55.000000	0.000000	-1.000000	-1.000000	176016.000000	1775778624.496370
-20650.230000	-7766.505000	4095.045000	29395.620000	27147.015000	7877.655000	-4099.590000	-5789.295000	3.009514	3.913229	5.527704	0.010127	2.445397	3.196521	1.999613	0.795584	-4.654300	0.381500	-2.929920	-0.819029	-0.117920	0.561522	-1.000000	-1.000000	-1.000000	-1.000000	-1.000000	-1.000000	-1.000000	55.000000	0.000000	-1.000000	-1.000000	176017.000000	1775778624.501034
-20647.710000	-7764.255000	4094.235000	29395.395000	27153.630000	7865.460000	-4109.580000	-5793.525000	0.360879	1.503372	4.724240	0.988111	2.239216	3.142340	1.884554	-0.656785	-4.654300	0.381500	-2.929920	-0.819029	-0.117920	0.561522	-1.000000	-1.000000	-1.000000	-1.000000	-1.000000	-1.000000	-1.000000	55.000000	0.000000	-1.000000	-1.000000	176018.000000	1775778624.501049
-20645.325000	-7763.130000	4091.040000	29393.775000	27151.335000	7872.030000	-4105.575000	-5795.460000	-1.124814	-0.221865	3.223695	2.628061	2.500097	1.792980	0.605042	-1.575384	-4.654300	0.381500	-2.929920	-0.819029	-0.117920	0.561522	-1.000000	-1.000000	-1.000000	-1.000000	-1.000000	-1.000000	-1.000000	55.000000	0.000000	-1.000000	-1.000000	176019.000000	1775778624.505520
-20646.900000	-7768.215000	4071.870000	29383.200000	27140.310000	7886.835000	-4100.445000	-5797.755000	-1.046303	-0.856735	0.243169	2.480464	2.083331	0.082613	-0.612627	-1.574034	-4.654300	0.381500	-2.929920	-0.819029	-0.117920	0.561522	-1.000000	-1.000000	-1.000000	-1.000000	-1.000000	-1.000000	-1.000000	55.000000	0.000000	-1.000000	-1.000000	176020.000000	1775778624.505530
-20640.645000	-7764.480000	4069.305000	29386.620000	27145.395000	7885.215000	-4095.945000	-5793.480000	-0.343214	-1.145180	-4.391317	-0.564084	-0.174751	-0.172561	-0.345708	-0.737968	-4.654300	0.381500	-2.929920	-0.819029	-0.117920	0.561522	-1.000000	-1.000000	-1.000000	-1.000000	-1.000000	-1.000000	-1.000000	55.000000	0.000000	-1.000000	-1.000000	176021.000000	1775778624.509159
-20640.915000	-7767.315000	4068.180000	29377.260000	27144.360000	7886.025000	-4095.405000	-5793.390000	0.193411	-1.454872	-8.548859	-4.704184	-3.251742	0.818744	1.324580	0.735934	-4.654300	0.381500	-2.929920	-0.819029	-0.117920	0.561522	-1.000000	-1.000000	-1.000000	-1.000000	-1.000000	-1.000000	-1.000000	55.000000	0.000000	-1.000000	-1.000000	176022.000000	1775778624.509171
-20636.145000	-7762.455000	4080.780000	29361.195000	27148.185000	7885.845000	-4093.335000	-5789.205000	0.325502	-1.512504	-8.935649	-7.506838	-4.895150	1.117269	2.850817	2.352739	-4.654300	0.381500	-2.929920	-0.819029	-0.117920	0.561522	-1.000000	-1.000000	-1.000000	-1.000000	-1.000000	-1.000000	-1.000000	55.000000	0.000000	-1.000000	-1.000000	176023.000000	1775778624.513041
-20633.895000	-7758.495000	4099.410000	29379.195000	27147.465000	7876.800000	-4099.230000	-5788.440000	0.124207	-0.933669	-3.955325	-7.611897	-4.069171	-0.415643	2.752320	3.378266	-4.654300	0.381500	-2.929920	-0.819029	-0.117920	0.561522	-1.000000	-1.000000	-1.000000	-1.000000	-1.000000	-1.000000	-1.000000	55.000000	0.000000	-1.000000	-1.000000	176024.000000	1775778624.513059
-20638.260000	-7764.795000	4097.835000	29391.075000	27143.955000	7871.670000	-4103.910000	-5792.895000	-0.332724	0.147048	4.380021	-3.928668	-1.657931	-3.368629	0.636149	3.154057	-6.912780	2.868880	0.000000	-0.807798	-0.117248	0.558470	-1.000000	-1.000000	-1.000000	-1.000000	-1.000000	-1.000000	-1.000000	55.000000	0.000000	-1.000000	-1.000000	176025.000000	1775778624.517953
-20638.035000	-7764.570000	4093.650000	29387.745000	27149.895000	7871.220000	-4101.705000	-5794.740000	-1.141454	0.830689	10.914129	2.996508	0.716660	-6.135653	-2.475392	1.416550	-6.912780	2.868880	0.000000	-0.807798	-0.117248	0.558470	-1.000000	-1.000000	-1.000000	-1.000000	-1.000000	-1.000000	-1.000000	55.000000	0.000000	-1.000000	-1.000000	176026.000000	1775778624.517973
-20637.315000	-7761.690000	4097.160000	29388.645000	27147.330000	7885.440000	-4104.405000	-5798.070000	-2.072400	0.586894	11.268437	9.302376	2.152997	-6.476445	-4.639141	-1.243961	-6.912780	2.868880	0.000000	-0.807798	-0.117248	0.558470	-1.000000	-1.000000	-1.000000	-1.000000	-1.000000	-1.000000	-1.000000	55.000000	0.000000	-1.000000	-1.000000	176027.000000	1775778624.525405
-20637.450000	-7760.835000	4094.010000	29391.615000	27151.065000	7906.590000	-4103.595000	-5798.880000	-2.423272	0.017526	5.666640	11.019019	2.565164	-2.812457	-4.557615	-3.515785	-6.912780	2.868880	0.000000	-0.807798	-0.117248	0.558470	-1.000000	-1.000000	-1.000000	-1.000000	-1.000000	-1.000000	-1.000000	55.000000	0.000000	-1.000000	-1.000000	176028.000000	1775778624.525429
-20635.470000	-7759.080000	4092.975000	29396.655000	27157.140000	7910.910000	-4106.340000	-5799.015000	-1.760283	-0.136739	-2.071939	7.774563	2.275596	3.899535	-2.519674	-4.228174	-6.912780	2.868880	0.000000	-0.807798	-0.117248	0.558470	-1.000000	-1.000000	-1.000000	-1.000000	-1.000000	-1.000000	-1.000000	55.000000	0.000000	-1.000000	-1.000000	176029.000000	1775778624.526034
-20640.555000	-7764.885000	4090.185000	29390.085000	27148.185000	7885.980000	-4099.365000	-5800.005000	-0.408257	0.063288	-7.972960	2.029214	1.620608	9.152932	0.295679	-3.083150	-6.912780	2.868880	0.000000	-0.807798	-0.117248	0.558470	-1.000000	-1.000000	-1.000000	-1.000000	-1.000000	-1.000000	-1.000000	55.000000	0.000000	-1.000000	-1.000000	176030.000000	1775778624.526054
-20652.975000	-7779.060000	4077.540000	29379.060000	27140.355000	7873.695000	-4086.675000	-5804.820000	0.570995	-0.228973	-10.116096	-3.789507	0.267862	7.815214	3.057732	-0.870219	-6.912780	2.868880	0.000000	-0.807798	-0.117248	0.558470	-1.000000	-1.000000	-1.000000	-1.000000	-1.000000	-1.000000	-1.000000	55.000000	0.000000	-1.000000	-1.000000	176031.000000	1775778624.532789
-20652.435000	-7778.610000	4077.945000	29379.960000	27139.770000	7887.690000	-4086.000000	-5803.155000	0.309193	-1.571210	-8.834103	-8.152109	-1.971605	0.148000	5.311701	1.150912	-6.912780	2.868880	0.000000	-0.807798	-0.117248	0.558470	-1.000000	-1.000000	-1.000000	-1.000000	-1.000000	-1.000000	-1.000000	55.000000	0.000000	-1.000000	-1.000000	176032.000000	1775778624.532846
-20644.380000	-7769.520000	4085.775000	29381.355000	27141.750000	7903.395000	-4087.485000	-5798.745000	-0.394534	-2.751298	-5.063674	-9.571480	-3.839796	-7.133301	5.989736	2.382270	-6.912780	2.868880	0.000000	-0.807798	-0.117248	0.558470	-1.000000	-1.000000	-1.000000	-1.000000	-1.000000	-1.000000	-1.000000	55.000000	0.000000	-1.000000	-1.000000	176033.000000	1775778624.535270
-20646.990000	-7769.970000	4082.895000	29374.830000	27134.370000	7889.715000	-4097.295000	-5803.380000	0.145347	-1.779261	0.352760	-7.296298	-3.812831	-8.212466	3.829180	2.925094	-6.912780	2.868880	0.000000	-0.807798	-0.117248	0.558470	-1.000000	-1.000000	-1.000000	-1.000000	-1.000000	-1.000000	-1.000000	55.000000	0.000000	-1.000000	-1.000000	176034.000000	1775778624.535290
-20648.385000	-7769.880000	4079.925000	29375.775000	27137.880000	7878.330000	-4106.790000	-5805.945000	1.973644	1.278198	5.541296	-2.598802	-1.903063	-4.334782	-1.052270	2.642247	-3.753960	2.594200	0.030520	-0.805296	-0.122680	0.559813	-1.000000	-1.000000	-1.000000	-1.000000	-1.000000	-1.000000	-1.000000	55.000000	0.000000	-1.000000	-1.000000	176035.000000	1775778624.551595
-20644.425000	-7764.030000	4087.035000	29382.930000	27147.465000	7886.610000	-4104.945000	-5802.210000	3.529143	4.287978	8.264918	2.368227	0.971502	-0.291907	-6.458376	1.429003	-3.753960	2.594200	0.030520	-0.805296	-0.122680	0.559813	-1.000000	-1.000000	-1.000000	-1.000000	-1.000000	-1.000000	-1.000000	55.000000	0.000000	-1.000000	-1.000000	176036.000000	1775778624.551625
-20649.690000	-7772.310000	4071.870000	29374.335000	27136.710000	7888.815000	-4104.495000	-5806.530000	3.652989	5.326005	7.674644	6.000895	3.779438	1.943417	-9.122769	-0.090507	-3.753960	2.594200	0.030520	-0.805296	-0.122680	0.559813	-1.000000	-1.000000	-1.000000	-1.000000	-1.000000	-1.000000	-1.000000	55.000000	0.000000	-1.000000	-1.000000	176037.000000	1775778624.551662
-20659.500000	-7786.125000	4060.260000	29367.855000	27127.530000	7878.735000	-4108.770000	-5815.395000	2.033507	3.471409	4.024282	6.978227	4.804456	2.972040	-7.316592	-1.378876	-3.753960	2.594200	0.030520	-0.805296	-0.122680	0.559813	-1.000000	-1.000000	-1.000000	-1.000000	-1.000000	-1.000000	-1.000000	55.000000	0.000000	-1.000000	-1.000000	176038.000000	1775778624.551675
-20657.385000	-7786.260000	4071.105000	29371.005000	27125.820000	7879.545000	-4107.330000	-5815.980000	-0.870508	-0.808811	-1.158630	4.929308	2.883236	2.965224	-2.336176	-2.446980	-3.753960	2.594200	0.030520	-0.805296	-0.122680	0.559813	-1.000000	-1.000000	-1.000000	-1.000000	-1.000000	-1.000000	-1.000000	55.000000	0.000000	-1.000000	-1.000000	176039.000000	1775778624.551690
-20654.370000	-7782.165000	4075.425000	29377.980000	27136.620000	7886.745000	-4105.530000	-5814.450000	-3.369687	-4.926498	-4.567315	1.627424	-0.431562	2.124551	3.057067	-2.907952	-3.753960	2.594200	0.030520	-0.805296	-0.122680	0.559813	-1.000000	-1.000000	-1.000000	-1.000000	-1.000000	-1.000000	-1.000000	55.000000	0.000000	-1.000000	-1.000000	176040.000000	1775778624.551702
-20649.555000	-7774.470000	4079.340000	29384.685000	27144.495000	7886.610000	-4110.705000	-5811.345000	-3.587915	-5.744590	-3.877480	-0.376086	-2.005780	1.477476	6.595953	-1.978557	-3.753960	2.594200	0.030520	-0.805296	-0.122680	0.559813	-1.000000	-1.000000	-1.000000	-1.000000	-1.000000	-1.000000	-1.000000	55.000000	0.000000	-1.000000	-1.000000	176041.000000	1775778624.551716
-20652.885000	-7777.125000	4076.505000	29377.935000	27135.675000	7880.985000	-4121.460000	-5815.305000	-1.439907	-2.617295	-0.342647	-0.393985	-0.759720	1.344270	6.939603	0.226646	-3.753960	2.594200	0.030520	-0.805296	-0.122680	0.559813	-1.000000	-1.000000	-1.000000	-1.000000	-1.000000	-1.000000	-1.000000	55.000000	0.000000	-1.000000	-1.000000	176042.000000	1775778624.551727
-20658.645000	-7783.425000	4070.115000	29376.180000	27117.630000	7870.770000	-4126.455000	-5822.370000	1.127258	1.823035	2.654644	-0.011562	0.845856	0.703427	4.039108	2.240013	-3.753960	2.594200	0.030520	-0.805296	-0.122680	0.559813	-1.000000	-1.000000	-1.000000	-1.000000	-1.000000	-1.000000	-1.000000	55.000000	0.000000	-1.000000	-1.000000	176043.000000	1775778624.553960
-20656.935000	-7780.905000	4073.130000	29385.135000	27123.480000	7876.440000	-4122.225000	-5823.090000	2.099477	4.261468	2.838450	-0.581065	0.082089	-1.013340	-0.199665	2.583211	-3.753960	2.594200	0.030520	-0.805296	-0.122680	0.559813	-1.000000	-1.000000	-1.000000	-1.000000	-1.000000	-1.000000	-1.000000	55.000000	0.000000	-1.000000	-1.000000	176044.000000	1775778624.553977
-20649.780000	-7774.740000	4076.820000	29372.085000	27140.310000	7869.645000	-4113.945000	-5815.080000	1.447579	3.850585	0.811762	-1.746577	-1.945441	-2.709722	-2.738768	1.510493	1.037680	1.052940	0.244160	-0.807188	-0.128357	0.563292	-1.000000	-1.000000	-1.000000	-1.000000	-1.000000	-1.000000	-1.000000	55.000000	0.000000	-1.000000	-1.000000	176045.000000	1775778624.567176
-20643.615000	-7769.970000	4080.915000	29369.025000	27146.745000	7813.215000	-4117.050000	-5807.385000	0.737983	2.195156	-1.159246	-2.946851	-1.803035	-4.061443	-2.008204	0.755374	1.037680	1.052940	0.244160	-0.807188	-0.128357	0.563292	-1.000000	-1.000000	-1.000000	-1.000000	-1.000000	-1.000000	-1.000000	55.000000	0.000000	-1.000000	-1.000000	176046.000000	1775778624.567205
-20645.190000	-7773.435000	4082.445000	29386.755000	27145.485000	7816.455000	-4116.915000	-5808.915000	0.880970	0.784126	-1.642058	-3.554285	1.173107	-6.419554	0.584310	1.262947	1.037680	1.052940	0.244160	-0.807188	-0.128357	0.563292	-1.000000	-1.000000	-1.000000	-1.000000	-1.000000	-1.000000	-1.000000	55.000000	0.000000	-1.000000	-1.000000	176047.000000	1775778624.567266
-20654.280000	-7782.840000	4074.660000	29386.530000	27134.505000	7834.680000	-4119.705000	-5817.645000	0.981418	-0.521344	-1.082442	-2.232668	3.826005	-7.958821	2.371926	1.837392	1.037680	1.052940	0.244160	-0.807188	-0.128357	0.563292	-1.000000	-1.000000	-1.000000	-1.000000	-1.000000	-1.000000	-1.000000	55.000000	0.000000	-1.000000	-1.000000	176048.000000	1775778624.567280
-20663.640000	-7795.800000	4057.785000	29356.245000	27127.575000	7869.825000	-4114.845000	-5822.145000	-0.417209	-2.598841	-1.138456	0.356383	2.952546	-3.384626	2.097642	0.667543	1.037680	1.052940	0.244160	-0.807188	-0.128357	0.563292	-1.000000	-1.000000	-1.000000	-1.000000	-1.000000	-1.000000	-1.000000	55.000000	0.000000	-1.000000	-1.000000	176049.000000	1775778624.567296
-20675.745000	-7808.625000	4042.260000	29326.320000	27116.370000	7906.410000	-4107.375000	-5829.435000	-3.406099	-5.422155	-3.004795	0.525336	-1.414539	8.776498	0.626090	-2.302109	1.037680	1.052940	0.244160	-0.807188	-0.128357	0.563292	-1.000000	-1.000000	-1.000000	-1.000000	-1.000000	-1.000000	-1.000000	55.000000	0.000000	-1.000000	-1.000000	176050.000000	1775778624.567308
-20675.340000	-7805.070000	4043.745000	29327.130000	27111.735000	7898.895000	-4106.295000	-5830.020000	-6.217560	-7.365820	-5.639492	-3.285662	-6.334616	22.142717	-0.493670	-5.195831	1.037680	1.052940	0.244160	-0.807188	-0.128357	0.563292	-1.000000	-1.000000	-1.000000	-1.000000	-1.000000	-1.000000	-1.000000	55.000000	0.000000	-1.000000	-1.000000	176051.000000	1775778624.569769
-20669.760000	-7796.655000	4050.675000	29334.600000	27115.965000	7877.295000	-4112.820000	-5826.870000	-6.320931	-6.022256	-5.956786	-6.852070	-8.344512	26.088438	-0.946540	-5.826001	1.037680	1.052940	0.244160	-0.807188	-0.128357	0.563292	-1.000000	-1.000000	-1.000000	-1.000000	-1.000000	-1.000000	-1.000000	55.000000	0.000000	-1.000000	-1.000000	176052.000000	1775778624.569786
-20664.090000	-7793.055000	4050.180000	29347.110000	27126.405000	7875.000000	-4109.895000	-5819.985000	-2.464542	-0.579000	-1.962026	-4.662490	-5.519684	14.910982	-1.537324	-3.232733	1.037680	1.052940	0.244160	-0.807188	-0.128357	0.563292	-1.000000	-1.000000	-1.000000	-1.000000	-1.000000	-1.000000	-1.000000	55.000000	0.000000	-1.000000	-1.000000	176053.000000	1775778624.573493
-20664.720000	-7796.115000	4046.400000	29350.530000	27128.700000	7868.430000	-4112.820000	-5818.230000	3.742090	6.418652	4.523028	3.609710	1.185602	-5.781971	-2.472004	1.537982	1.037680	1.052940	0.244160	-0.807188	-0.128357	0.563292	-1.000000	-1.000000	-1.000000	-1.000000	-1.000000	-1.000000	-1.000000	55.000000	0.000000	-1.000000	-1.000000	176054.000000	1775778624.573509
-20667.015000	-7798.095000	4051.800000	29349.585000	27122.895000	7865.145000	-4113.945000	-5820.345000	8.649180	10.701634	9.482828	12.613358	7.941685	-23.834263	-3.090377	5.829478	3.876040	0.701960	1.266580	-0.811277	-0.129577	0.565001	-1.000000	-1.000000	-1.000000	-1.000000	-1.000000	-1.000000	-1.000000	55.000000	0.000000	-1.000000	-1.000000	176055.000000	1775778624.580562
-20662.965000	-7792.830000	4060.125000	29351.340000	27123.255000	7867.080000	-4112.280000	-5817.645000	9.472555	9.961649	10.591885	16.219154	10.575544	-30.186925	-2.808267	7.178199	3.876040	0.701960	1.266580	-0.811277	-0.129577	0.565001	-1.000000	-1.000000	-1.000000	-1.000000	-1.000000	-1.000000	-1.000000	55.000000	0.000000	-1.000000	-1.000000	176056.000000	1775778624.580588
-20663.820000	-7793.865000	4057.065000	29349.945000	27122.580000	7865.910000	-4116.960000	-5821.290000	6.309830	5.390169	8.213268	12.315733	7.912434	-23.481024	-1.580099	5.101688	3.876040	0.701960	1.266580	-0.811277	-0.129577	0.565001	-1.000000	-1.000000	-1.000000	-1.000000	-1.000000	-1.000000	-1.000000	55.000000	0.000000	-1.000000	-1.000000	176057.000000	1775778624.594192
-20670.345000	-7799.670000	4051.710000	29345.985000	27115.830000	7858.170000	-4125.015000	-5829.120000	1.198196	-0.287359	3.531375	3.385071	2.101412	-9.025666	-0.114493	0.886096	3.876040	0.701960	1.266580	-0.811277	-0.129577	0.565001	-1.000000	-1.000000	-1.000000	-1.000000	-1.000000	-1.000000	-1.000000	55.000000	0.000000	-1.000000	-1.000000	176058.000000	1775778624.594219
-20670.210000	-7796.970000	4056.345000	29351.250000	27120.870000	7860.960000	-4125.015000	-5830.470000	-3.736874	-4.932496	-2.095232	-5.976142	-3.631474	5.429429	0.692579	-3.597226	3.876040	0.701960	1.266580	-0.811277	-0.129577	0.565001	-1.000000	-1.000000	-1.000000	-1.000000	-1.000000	-1.000000	-1.000000	55.000000	0.000000	-1.000000	-1.000000	176059.000000	1775778624.604928
-20670.885000	-7797.465000	4057.560000	29353.545000	27123.660000	7859.205000	-4123.845000	-5829.795000	-6.785143	-7.190174	-6.570469	-11.610383	-6.639507	14.454507	0.921775	-6.378302	3.876040	0.701960	1.266580	-0.811277	-0.129577	0.565001	-1.000000	-1.000000	-1.000000	-1.000000	-1.000000	-1.000000	-1.000000	55.000000	0.000000	-1.000000	-1.000000	176060.000000	1775778624.604955
-20669.445000	-7794.540000	4061.070000	29357.505000	27124.695000	7844.670000	-4126.365000	-5826.690000	-6.941628	-6.562354	-8.053201	-11.757768	-5.960249	16.393244	1.318461	-6.075167	3.876040	0.701960	1.266580	-0.811277	-0.129577	0.565001	-1.000000	-1.000000	-1.000000	-1.000000	-1.000000	-1.000000	-1.000000	55.000000	0.000000	-1.000000	-1.000000	176061.000000	1775778624.605189
-20667.870000	-7790.490000	4062.690000	29359.080000	27119.160000	7819.920000	-4134.240000	-5825.970000	-4.472336	-3.698747	-6.404292	-7.643408	-2.951655	11.837941	1.885243	-2.915991	3.876040	0.701960	1.266580	-0.811277	-0.129577	0.565001	-1.000000	-1.000000	-1.000000	-1.000000	-1.000000	-1.000000	-1.000000	55.000000	0.000000	-1.000000	-1.000000	176062.000000	1775778624.605205
-20665.845000	-7787.430000	4061.655000	29359.620000	27119.835000	7819.470000	-4131.855000	-5821.515000	-0.745168	-0.007471	-3.088672	-2.173204	-0.052949	3.289093	1.947076	1.334258	3.876040	0.701960	1.266580	-0.811277	-0.129577	0.565001	-1.000000	-1.000000	-1.000000	-1.000000	-1.000000	-1.000000	-1.000000	55.000000	0.000000	-1.000000	-1.000000	176063.000000	1775778624.605226
-20666.565000	-7790.490000	4053.870000	29355.795000	27123.840000	7825.320000	-4132.080000	-5820.390000	2.524882	2.868393	-0.171388	1.903290	1.414546	-4.309058	1.456289	4.609101	3.876040	0.701960	1.266580	-0.811277	-0.129577	0.565001	-1.000000	-1.000000	-1.000000	-1.000000	-1.000000	-1.000000	-1.000000	55.000000	0.000000	-1.000000	-1.000000	176064.000000	1775778624.605237
-20669.175000	-7796.070000	4040.505000	29345.085000	27117.135000	7843.005000	-4133.295000	-5824.530000	4.003618	3.563092	0.719791	3.071155	1.660646	-6.030644	0.984226	5.527358	1.205540	0.595140	-0.564620	-0.814939	-0.126587	0.562315	-1.000000	-1.000000	-1.000000	-1.000000	-1.000000	-1.000000	-1.000000	55.000000	0.000000	-1.000000	-1.000000	176065.000000	1775778624.605251
-20667.285000	-7789.680000	4048.380000	29355.885000	27124.425000	7866.405000	-4131.000000	-5824.170000	3.364368	1.993399	-0.360309	1.717410	1.268303	-0.773695	0.780754	3.805099	1.205540	0.595140	-0.564620	-0.814939	-0.126587	0.562315	-1.000000	-1.000000	-1.000000	-1.000000	-1.000000	-1.000000	-1.000000	55.000000	0.000000	-1.000000	-1.000000	176066.000000	1775778624.605262
-20661.120000	-7780.230000	4066.245000	29369.475000	27128.430000	7864.335000	-4135.050000	-5823.045000	1.585661	-0.083679	-0.999245	0.311492	0.899823	7.593235	0.648119	0.551395	1.205540	0.595140	-0.564620	-0.814939	-0.126587	0.562315	-1.000000	-1.000000	-1.000000	-1.000000	-1.000000	-1.000000	-1.000000	55.000000	0.000000	-1.000000	-1.000000	176067.000000	1775778624.609738
-20667.105000	-7786.890000	4057.830000	29353.545000	27121.455000	7865.055000	-4129.470000	-5825.790000	0.027589	-0.831373	1.008888	0.807463	0.919597	12.480630	0.347224	-2.387583	1.205540	0.595140	-0.564620	-0.814939	-0.126587	0.562315	-1.000000	-1.000000	-1.000000	-1.000000	-1.000000	-1.000000	-1.000000	55.000000	0.000000	-1.000000	-1.000000	176068.000000	1775778624.609764
-20675.925000	-7796.205000	4043.295000	29333.925000	27110.880000	7879.410000	-4122.090000	-5831.595000	-1.094440	-0.652202	4.017604	1.585687	0.531825	9.878656	0.101461	-3.912462	1.205540	0.595140	-0.564620	-0.814939	-0.126587	0.562315	-1.000000	-1.000000	-1.000000	-1.000000	-1.000000	-1.000000	-1.000000	55.000000	0.000000	-1.000000	-1.000000	176069.000000	1775778624.609938
-20670.795000	-7789.995000	4050.675000	29342.025000	27114.435000	7872.930000	-4122.585000	-5827.455000	-2.213540	-0.991381	4.545948	0.170464	-0.997043	1.592262	0.302522	-3.956345	1.205540	0.595140	-0.564620	-0.814939	-0.126587	0.562315	-1.000000	-1.000000	-1.000000	-1.000000	-1.000000	-1.000000	-1.000000	55.000000	0.000000	-1.000000	-1.000000	176070.000000	1775778624.609959
-20670.750000	-7788.735000	4050.135000	29341.710000	27119.475000	7867.845000	-4124.880000	-5826.915000	-2.792377	-1.641353	2.252435	-2.261008	-2.522514	-7.795066	0.507467	-2.651241	1.205540	0.595140	-0.564620	-0.814939	-0.126587	0.562315	-1.000000	-1.000000	-1.000000	-1.000000	-1.000000	-1.000000	-1.000000	55.000000	0.000000	-1.000000	-1.000000	176071.000000	1775778624.609977
-20670.615000	-7789.590000	4047.975000	29339.685000	27122.895000	7866.180000	-4127.850000	-5828.940000	-1.981632	-1.414097	-0.461287	-2.759992	-2.185370	-14.560034	-0.200384	-0.403422	1.205540	0.595140	-0.564620	-0.814939	-0.126587	0.562315	-1.000000	-1.000000	-1.000000	-1.000000	-1.000000	-1.000000	-1.000000	55.000000	0.000000	-1.000000	-1.000000	176072.000000	1775778624.609987
-20675.745000	-7795.080000	4048.200000	29346.795000	27121.005000	7860.015000	-4134.330000	-5836.005000	-0.194384	-0.322780	-1.924973	-0.615379	0.081364	-16.514570	-1.966623	1.603075	1.205540	0.595140	-0.564620	-0.814939	-0.126587	0.562315	-1.000000	-1.000000	-1.000000	-1.000000	-1.000000	-1.000000	-1.000000	55.000000	0.000000	-1.000000	-1.000000	176073.000000	1775778624.613914
-20673.180000	-7795.305000	4040.235000	29335.410000	27115.335000	7869.645000	-4130.190000	-5832.675000	1.333907	0.600679	-2.110743	2.516127	2.341758	-13.149361	-3.812254	2.271719	1.205540	0.595140	-0.564620	-0.814939	-0.126587	0.562315	-1.000000	-1.000000	-1.000000	-1.000000	-1.000000	-1.000000	-1.000000	55.000000	0.000000	-1.000000	-1.000000	176074.000000	1775778624.613939
-20677.995000	-7800.795000	4033.215000	29322.495000	27098.325000	7855.875000	-4136.265000	-5837.670000	1.888174	0.742244	-1.872781	4.046220	2.431507	-5.926420	-4.349582	1.715245	-3.479280	1.983800	-0.076300	-0.811582	-0.123230	0.560668	-1.000000	-1.000000	-1.000000	-1.000000	-1.000000	-1.000000	-1.000000	55.000000	0.000000	-1.000000	-1.000000	176075.000000	1775778624.617874
-20673.630000	-7795.620000	4047.255000	29344.005000	27096.120000	7845.030000	-4141.395000	-5836.770000	1.600052	0.401898	-1.565933	2.896965	-0.157156	1.722698	-3.168668	0.784790	-3.479280	1.983800	-0.076300	-0.811582	-0.123230	0.560668	-1.000000	-1.000000	-1.000000	-1.000000	-1.000000	-1.000000	-1.000000	55.000000	0.000000	-1.000000	-1.000000	176076.000000	1775778624.617903
-20664.540000	-7785.855000	4060.080000	29361.600000	27104.535000	7834.680000	-4141.170000	-5832.585000	1.228023	0.535571	-0.136641	1.471025	-3.240558	6.259975	-1.087797	0.232746	-3.479280	1.983800	-0.076300	-0.811582	-0.123230	0.560668	-1.000000	-1.000000	-1.000000	-1.000000	-1.000000	-1.000000	-1.000000	55.000000	0.000000	-1.000000	-1.000000	176077.000000	1775778624.622155
-20662.830000	-7784.505000	4055.130000	29350.710000	27102.780000	7818.570000	-4145.130000	-5832.900000	1.516052	1.782991	2.839187	2.129498	-3.671645	6.639155	1.009843	0.446220	-3.479280	1.983800	-0.076300	-0.811582	-0.123230	0.560668	-1.000000	-1.000000	-1.000000	-1.000000	-1.000000	-1.000000	-1.000000	55.000000	0.000000	-1.000000	-1.000000	176078.000000	1775778624.622178
-20663.910000	-7785.495000	4049.775000	29349.405000	27105.615000	7814.295000	-4152.150000	-5834.880000	2.073379	3.265438	5.121684	3.133575	-0.783172	4.399700	2.498580	1.043966	-3.479280	1.983800	-0.076300	-0.811582	-0.123230	0.560668	-1.000000	-1.000000	-1.000000	-1.000000	-1.000000	-1.000000	-1.000000	55.000000	0.000000	-1.000000	-1.000000	176079.000000	1775778624.625212
-20658.240000	-7777.665000	4058.910000	29352.285000	27109.890000	7833.150000	-4151.295000	-5830.695000	1.788108	3.427602	4.318587	1.679995	3.265076	2.576583	2.938296	1.227675	-3.479280	1.983800	-0.076300	-0.811582	-0.123230	0.560668	-1.000000	-1.000000	-1.000000	-1.000000	-1.000000	-1.000000	-1.000000	55.000000	0.000000	-1.000000	-1.000000	176080.000000	1775778624.625232
-20665.620000	-7788.330000	4042.980000	29343.195000	27107.640000	7860.150000	-4151.205000	-5836.680000	0.272482	1.756146	0.788867	-2.035902	5.903739	4.258031	2.602035	0.681525	-3.479280	1.983800	-0.076300	-0.811582	-0.123230	0.560668	-1.000000	-1.000000	-1.000000	-1.000000	-1.000000	-1.000000	-1.000000	55.000000	0.000000	-1.000000	-1.000000	176081.000000	1775778624.630648
-20678.940000	-7804.440000	4026.825000	29341.170000	27109.260000	7867.800000	-4148.775000	-5845.095000	-2.250983	-1.534063	-3.832809	-5.882768	5.726902	9.525609	2.243128	-0.595049	-3.479280	1.983800	-0.076300	-0.811582	-0.123230	0.560668	-1.000000	-1.000000	-1.000000	-1.000000	-1.000000	-1.000000	-1.000000	55.000000	0.000000	-1.000000	-1.000000	176082.000000	1775778624.630672
-20686.770000	-7811.190000	4032.450000	29348.145000	27118.170000	7870.095000	-4136.310000	-5847.300000	-5.304014	-5.758616	-7.860798	-7.711418	3.155317	13.943153	2.396513	-2.402497	-3.479280	1.983800	-0.076300	-0.811582	-0.123230	0.560668	-1.000000	-1.000000	-1.000000	-1.000000	-1.000000	-1.000000	-1.000000	55.000000	0.000000	-1.000000	-1.000000	176083.000000	1775778624.633204
-20689.110000	-7811.280000	4033.395000	29350.710000	27122.760000	7881.390000	-4129.110000	-5850.315000	-7.460485	-8.792964	-8.813303	-6.128010	0.093179	12.488008	3.173519	-3.802249	-3.479280	1.983800	-0.076300	-0.811582	-0.123230	0.560668	-1.000000	-1.000000	-1.000000	-1.000000	-1.000000	-1.000000	-1.000000	55.000000	0.000000	-1.000000	-1.000000	176084.000000	1775778624.633228
-20674.215000	-7794.855000	4042.485000	29347.785000	27124.020000	7870.545000	-4124.295000	-5840.550000	-6.540550	-7.774122	-5.077514	-1.770762	-1.919971	4.405984	3.908978	-3.457363	-4.608520	3.082520	0.991900	-0.809507	-0.123596	0.560423	-1.000000	-1.000000	-1.000000	-1.000000	-1.000000	-1.000000	-1.000000	55.000000	0.000000	-1.000000	-1.000000	176085.000000	1775778624.640162
-20671.335000	-7792.605000	4042.890000	29345.175000	27117.630000	7854.435000	-4134.330000	-5842.845000	-1.535942	-1.806787	1.849778	2.699988	-2.969712	-7.200328	3.105977	-0.877889	-4.608520	3.082520	0.991900	-0.809507	-0.123596	0.560423	-1.000000	-1.000000	-1.000000	-1.000000	-1.000000	-1.000000	-1.000000	55.000000	0.000000	-1.000000	-1.000000	176086.000000	1775778624.640193
-20665.215000	-7787.520000	4048.245000	29358.990000	27119.295000	7862.130000	-4139.505000	-5842.620000	5.550850	6.267400	8.237702	5.125731	-3.868045	-17.649359	-0.347670	2.641327	-4.608520	3.082520	0.991900	-0.809507	-0.123596	0.560423	-1.000000	-1.000000	-1.000000	-1.000000	-1.000000	-1.000000	-1.000000	55.000000	0.000000	-1.000000	-1.000000	176087.000000	1775778624.640554
-20663.235000	-7786.170000	4044.285000	29331.630000	27107.685000	7853.085000	-4148.370000	-5844.195000	10.729771	11.704289	10.761231	5.046106	-4.790167	-22.058551	-5.604226	4.849112	-4.608520	3.082520	0.991900	-0.809507	-0.123596	0.560423	-1.000000	-1.000000	-1.000000	-1.000000	-1.000000	-1.000000	-1.000000	55.000000	0.000000	-1.000000	-1.000000	176088.000000	1775778624.640574
-20661.345000	-7786.575000	4041.000000	29318.805000	27103.995000	7841.475000	-4149.045000	-5841.765000	11.158301	11.568808	8.335491	2.195074	-5.318121	-18.519340	-9.918353	4.580239	-4.608520	3.082520	0.991900	-0.809507	-0.123596	0.560423	-1.000000	-1.000000	-1.000000	-1.000000	-1.000000	-1.000000	-1.000000	55.000000	0.000000	-1.000000	-1.000000	176089.000000	1775778624.653774
-20661.930000	-7791.030000	4040.280000	29331.090000	27109.935000	7847.145000	-4142.385000	-5842.215000	6.852290	6.272127	2.436993	-2.451880	-4.695295	-9.472777	-10.420388	2.449583	-4.608520	3.082520	0.991900	-0.809507	-0.123596	0.560423	-1.000000	-1.000000	-1.000000	-1.000000	-1.000000	-1.000000	-1.000000	55.000000	0.000000	-1.000000	-1.000000	176090.000000	1775778624.653802
-20669.490000	-7800.885000	4034.160000	29329.560000	27110.295000	7860.510000	-4137.030000	-5849.280000	0.009657	-1.493979	-3.887699	-5.231714	-2.097639	1.471328	-6.068757	-0.275159	-4.608520	3.082520	0.991900	-0.809507	-0.123596	0.560423	-1.000000	-1.000000	-1.000000	-1.000000	-1.000000	-1.000000	-1.000000	55.000000	0.000000	-1.000000	-1.000000	176091.000000	1775778624.653827
-20681.010000	-7813.530000	4023.630000	29319.255000	27101.610000	7840.575000	-4149.945000	-5861.565000	-6.712131	-8.595718	-8.073453	-3.791511	1.869280	11.052621	1.006581	-2.907338	-4.608520	3.082520	0.991900	-0.809507	-0.123596	0.560423	-1.000000	-1.000000	-1.000000	-1.000000	-1.000000	-1.000000	-1.000000	55.000000	0.000000	-1.000000	-1.000000	176092.000000	1775778624.653839
-20667.870000	-7801.065000	4035.690000	29331.360000	27113.355000	7836.300000	-4152.870000	-5852.205000	-10.866341	-12.267115	-8.926911	0.248842	5.186526	15.589095	6.499302	-4.876101	-4.608520	3.082520	0.991900	-0.809507	-0.123596	0.560423	-1.000000	-1.000000	-1.000000	-1.000000	-1.000000	-1.000000	-1.000000	55.000000	0.000000	-1.000000	-1.000000	176093.000000	1775778624.653853
-20669.220000	-7803.000000	4031.235000	29328.660000	27107.235000	7829.280000	-4156.155000	-5852.880000	-10.380798	-10.546918	-6.153692	4.237877	6.570044	13.304908	7.625743	-4.869429	-4.608520	3.082520	0.991900	-0.809507	-0.123596	0.560423	-1.000000	-1.000000	-1.000000	-1.000000	-1.000000	-1.000000	-1.000000	55.000000	0.000000	-1.000000	-1.000000	176094.000000	1775778624.653864
-20671.425000	-7805.880000	4027.770000	29329.200000	27102.600000	7825.545000	-4153.275000	-5854.005000	-5.439247	-4.173501	-1.069688	6.441726	5.772701	6.546933	5.243526	-2.307390	-1.388660	2.792580	2.166920	-0.810423	-0.125488	0.561583	-1.000000	-1.000000	-1.000000	-1.000000	-1.000000	-1.000000	-1.000000	55.000000	0.000000	-1.000000	-1.000000	176095.000000	1775778624.657236
-20670.615000	-7805.790000	4027.095000	29330.820000	27099.585000	7828.065000	-4143.915000	-5852.205000	0.899335	3.134669	3.503542	5.978728	2.958795	-0.287118	2.273981	1.353524	-1.388660	2.792580	2.166920	-0.810423	-0.125488	0.561583	-1.000000	-1.000000	-1.000000	-1.000000	-1.000000	-1.000000	-1.000000	55.000000	0.000000	-1.000000	-1.000000	176096.000000	1775778624.657254
-20670.075000	-7806.645000	4028.400000	29327.085000	27096.345000	7829.820000	-4145.940000	-5852.295000	5.414821	7.763089	5.615794	3.212564	-0.761785	-3.852324	0.900717	4.066479	-1.388660	2.792580	2.166920	-0.810423	-0.125488	0.561583	-1.000000	-1.000000	-1.000000	-1.000000	-1.000000	-1.000000	-1.000000	55.000000	0.000000	-1.000000	-1.000000	176097.000000	1775778624.661127
-20673.045000	-7807.680000	4032.270000	29328.345000	27095.310000	7823.610000	-4157.055000	-5857.245000	6.766050	8.449484	5.367594	-0.518202	-3.632431	-3.600053	0.739691	4.666342	-1.388660	2.792580	2.166920	-0.810423	-0.125488	0.561583	-1.000000	-1.000000	-1.000000	-1.000000	-1.000000	-1.000000	-1.000000	55.000000	0.000000	-1.000000	-1.000000	176098.000000	1775778624.661144
-20668.455000	-7801.020000	4036.320000	29326.545000	27098.595000	7825.185000	-4159.575000	-5857.560000	5.378761	6.141743	3.950467	-3.669163	-4.369693	-1.474840	-0.123561	3.090774	-1.388660	2.792580	2.166920	-0.810423	-0.125488	0.561583	-1.000000	-1.000000	-1.000000	-1.000000	-1.000000	-1.000000	-1.000000	55.000000	0.000000	-1.000000	-1.000000	176099.000000	1775778624.665342
-20666.880000	-7797.825000	4037.715000	29334.555000	27099.090000	7821.360000	-4161.870000	-5859.540000	2.782244	2.912186	2.357854	-4.990593	-2.800744	0.312522	-2.201414	0.367265	-1.388660	2.792580	2.166920	-0.810423	-0.125488	0.561583	-1.000000	-1.000000	-1.000000	-1.000000	-1.000000	-1.000000	-1.000000	55.000000	0.000000	-1.000000	-1.000000	176100.000000	1775778624.665359
-20663.640000	-7795.935000	4034.970000	29348.595000	27106.020000	7811.820000	-4159.575000	-5856.525000	0.534190	0.378746	0.763671	-3.789118	0.111663	0.654561	-3.948245	-1.920133	-1.388660	2.792580	2.166920	-0.810423	-0.125488	0.561583	-1.000000	-1.000000	-1.000000	-1.000000	-1.000000	-1.000000	-1.000000	55.000000	0.000000	-1.000000	-1.000000	176101.000000	1775778624.670616
-20666.205000	-7801.740000	4034.160000	29348.190000	27109.485000	7813.935000	-4159.710000	-5857.380000	-0.786896	-1.293609	-1.079937	-0.516056	2.935566	-0.425420	-3.759528	-2.658526	-1.388660	2.792580	2.166920	-0.810423	-0.125488	0.561583	-1.000000	-1.000000	-1.000000	-1.000000	-1.000000	-1.000000	-1.000000	55.000000	0.000000	-1.000000	-1.000000	176102.000000	1775778624.670644
-20673.495000	-7810.380000	4028.445000	29323.755000	27107.235000	7835.535000	-4158.045000	-5862.465000	-1.657419	-2.899194	-3.073210	2.220415	4.355289	-1.351469	-1.573620	-1.970839	-1.388660	2.792580	2.166920	-0.810423	-0.125488	0.561583	-1.000000	-1.000000	-1.000000	-1.000000	-1.000000	-1.000000	-1.000000	55.000000	0.000000	-1.000000	-1.000000	176103.000000	1775778624.677762
-20673.270000	-7810.920000	4020.390000	29298.735000	27104.895000	7861.860000	-4156.920000	-5860.350000	-2.674272	-4.749168	-4.735661	0.913475	3.492333	0.340216	1.308388	-0.871533	-1.388660	2.792580	2.166920	-0.810423	-0.125488	0.561583	-1.000000	-1.000000	-1.000000	-1.000000	-1.000000	-1.000000	-1.000000	55.000000	0.000000	-1.000000	-1.000000	176104.000000	1775778624.677781
-20674.305000	-7809.120000	4023.585000	29309.085000	27102.330000	7850.655000	-4165.065000	-5864.040000	-3.496900	-5.784573	-5.412460	-4.379711	0.568739	4.572397	3.211560	-0.090329	1.800680	2.868880	2.975700	-0.811094	-0.125000	0.562987	-1.000000	-1.000000	-1.000000	-1.000000	-1.000000	-1.000000	-1.000000	55.000000	0.000000	-1.000000	-1.000000	176105.000000	1775778624.677803
-20671.380000	-7804.800000	4025.970000	29322.405000	27106.605000	7841.970000	-4163.130000	-5861.340000	-3.174483	-4.575704	-4.259163	-8.264561	-2.819638	6.995054	3.066475	0.320702	1.800680	2.868880	2.975700	-0.811094	-0.125000	0.562987	-1.000000	-1.000000	-1.000000	-1.000000	-1.000000	-1.000000	-1.000000	55.000000	0.000000	-1.000000	-1.000000	176106.000000	1775778624.677814
-20667.915000	-7805.835000	4011.255000	29316.060000	27100.125000	7831.710000	-4165.695000	-5857.695000	-1.321410	-1.129972	-1.363398	-5.781070	-4.787484	3.513165	1.264626	0.672575	1.800680	2.868880	2.975700	-0.811094	-0.125000	0.562987	-1.000000	-1.000000	-1.000000	-1.000000	-1.000000	-1.000000	-1.000000	55.000000	0.000000	-1.000000	-1.000000	176107.000000	1775778624.681290
-20671.245000	-7810.605000	4009.905000	29307.420000	27090.135000	7833.555000	-4168.575000	-5862.960000	1.309291	2.681709	1.500998	1.444293	-4.850747	-4.509184	-0.795292	1.124279	1.800680	2.868880	2.975700	-0.811094	-0.125000	0.562987	-1.000000	-1.000000	-1.000000	-1.000000	-1.000000	-1.000000	-1.000000	55.000000	0.000000	-1.000000	-1.000000	176108.000000	1775778624.681312
-20678.220000	-7818.840000	4012.020000	29301.885000	27084.960000	7842.825000	-4169.790000	-5870.115000	3.079050	4.500166	2.928291	7.530581	-3.932452	-11.279855	-2.048519	1.108057	1.800680	2.868880	2.975700	-0.811094	-0.125000	0.562987	-1.000000	-1.000000	-1.000000	-1.000000	-1.000000	-1.000000	-1.000000	55.000000	0.000000	-1.000000	-1.000000	176109.000000	1775778624.690570
-20673.990000	-7813.845000	4021.560000	29309.355000	27085.410000	7847.820000	-4169.205000	-5866.695000	2.854819	3.543820	3.511591	8.948050	-2.615024	-11.836098	-2.125747	0.117707	1.800680	2.868880	2.975700	-0.811094	-0.125000	0.562987	-1.000000	-1.000000	-1.000000	-1.000000	-1.000000	-1.000000	-1.000000	55.000000	0.000000	-1.000000	-1.000000	176110.000000	1775778624.690596
-20673.495000	-7812.810000	4025.160000	29314.935000	27083.340000	7844.310000	-4172.355000	-5867.010000	1.304812	1.336026	4.360578	6.794530	-0.609910	-6.159655	-1.197587	-1.100760	1.800680	2.868880	2.975700	-0.811094	-0.125000	0.562987	-1.000000	-1.000000	-1.000000	-1.000000	-1.000000	-1.000000	-1.000000	55.000000	0.000000	-1.000000	-1.000000	176111.000000	1775778624.690624
-20672.100000	-7811.325000	4028.805000	29320.470000	27093.690000	7834.725000	-4173.255000	-5865.750000	-0.022817	-0.073679	5.259458	3.929284	2.241810	1.244591	0.073965	-1.369797	1.800680	2.868880	2.975700	-0.811094	-0.125000	0.562987	-1.000000	-1.000000	-1.000000	-1.000000	-1.000000	-1.000000	-1.000000	55.000000	0.000000	-1.000000	-1.000000	176112.000000	1775778624.690635
-20667.015000	-7804.665000	4034.835000	29325.420000	27100.710000	7813.710000	-4171.455000	-5862.240000	-0.322500	0.007818	5.041891	1.872752	5.489197	5.282359	1.043797	-0.440262	1.800680	2.868880	2.975700	-0.811094	-0.125000	0.562987	-1.000000	-1.000000	-1.000000	-1.000000	-1.000000	-1.000000	-1.000000	55.000000	0.000000	-1.000000	-1.000000	176113.000000	1775778624.693413
-20673.810000	-7811.145000	4027.995000	29322.180000	27102.555000	7799.490000	-4172.625000	-5868.135000	0.102921	0.871088	2.959599	0.351492	7.960440	3.902997	1.532521	0.924169	1.800680	2.868880	2.975700	-0.811094	-0.125000	0.562987	-1.000000	-1.000000	-1.000000	-1.000000	-1.000000	-1.000000	-1.000000	55.000000	0.000000	-1.000000	-1.000000	176114.000000	1775778624.693460
-20676.690000	-7813.575000	4024.170000	29321.145000	27098.775000	7797.420000	-4173.255000	-5870.250000	0.216173	1.121278	-0.877292	-1.554544	7.934959	-0.624308	1.551087	1.527870	2.578940	1.922760	2.258480	-0.812254	-0.121948	0.563231	-1.000000	-1.000000	-1.000000	-1.000000	-1.000000	-1.000000	-1.000000	55.000000	0.000000	-1.000000	-1.000000	176115.000000	1775778624.697320
-20676.330000	-7816.770000	4018.860000	29312.145000	27085.185000	7804.620000	-4173.795000	-5871.150000	-0.597913	-0.070916	-5.372089	-4.158160	4.296142	-3.487953	1.090556	0.811898	2.578940	1.922760	2.258480	-0.812254	-0.121948	0.563231	-1.000000	-1.000000	-1.000000	-1.000000	-1.000000	-1.000000	-1.000000	55.000000	0.000000	-1.000000	-1.000000	176116.000000	1775778624.697344
-20671.020000	-7814.790000	4020.300000	29313.585000	27090.135000	7815.555000	-4171.140000	-5867.415000	-1.573441	-1.982072	-8.514457	-6.649318	-1.976404	-1.295435	0.363414	-0.461667	2.578940	1.922760	2.258480	-0.812254	-0.121948	0.563231	-1.000000	-1.000000	-1.000000	-1.000000	-1.000000	-1.000000	-1.000000	55.000000	0.000000	-1.000000	-1.000000	176117.000000	1775778624.702799
-20672.415000	-7816.230000	4021.425000	29316.105000	27093.960000	7818.885000	-4179.645000	-5873.715000	-1.529244	-3.099250	-8.489655	-7.440967	-7.493251	5.057178	-0.363148	-1.173092	2.578940	1.922760	2.258480	-0.812254	-0.121948	0.563231	-1.000000	-1.000000	-1.000000	-1.000000	-1.000000	-1.000000	-1.000000	55.000000	0.000000	-1.000000	-1.000000	176118.000000	1775778624.702824
-20674.305000	-7817.940000	4021.020000	29314.350000	27097.020000	7817.535000	-4189.545000	-5878.350000	-0.457179	-2.664402	-5.097021	-5.465105	-8.884008	11.058428	-1.309717	-1.203544	2.578940	1.922760	2.258480	-0.812254	-0.121948	0.563231	-1.000000	-1.000000	-1.000000	-1.000000	-1.000000	-1.000000	-1.000000	55.000000	0.000000	-1.000000	-1.000000	176119.000000	1775778624.704663
-20667.465000	-7811.955000	4020.435000	29319.885000	27103.185000	7805.970000	-4193.190000	-5872.770000	0.732910	-1.031585	-0.068630	-1.379047	-5.718558	12.031178	-2.679855	-0.989499	2.578940	1.922760	2.258480	-0.812254	-0.121948	0.563231	-1.000000	-1.000000	-1.000000	-1.000000	-1.000000	-1.000000	-1.000000	55.000000	0.000000	-1.000000	-1.000000	176120.000000	1775778624.704680
-20657.925000	-7803.585000	4020.075000	29315.610000	27098.685000	7799.220000	-4188.780000	-5866.155000	1.683101	1.205251	4.172400	2.904831	-0.483425	6.544374	-3.548015	-0.276172	2.578940	1.922760	2.258480	-0.812254	-0.121948	0.563231	-1.000000	-1.000000	-1.000000	-1.000000	-1.000000	-1.000000	-1.000000	55.000000	0.000000	-1.000000	-1.000000	176121.000000	1775778624.709218
-20668.275000	-7816.590000	4007.655000	29299.455000	27082.980000	7801.020000	-4171.995000	-5868.450000	2.329153	3.170045	5.855601	5.164648	3.224324	-2.439579	-2.202118	1.222412	2.578940	1.922760	2.258480	-0.812254	-0.121948	0.563231	-1.000000	-1.000000	-1.000000	-1.000000	-1.000000	-1.000000	-1.000000	55.000000	0.000000	-1.000000	-1.000000	176122.000000	1775778624.709236
-20682.090000	-7833.240000	3987.990000	29284.785000	27075.195000	7818.390000	-4165.020000	-5876.550000	1.594275	3.051933	4.171750	3.823540	2.979496	-9.323117	1.937738	2.451191	2.578940	1.922760	2.258480	-0.812254	-0.121948	0.563231	-1.000000	-1.000000	-1.000000	-1.000000	-1.000000	-1.000000	-1.000000	55.000000	0.000000	-1.000000	-1.000000	176123.000000	1775778624.714883
-20679.165000	-7827.615000	4009.185000	29298.690000	27077.895000	7829.865000	-4167.270000	-5875.200000	-1.242204	0.029708	0.299141	-0.024877	-0.272521	-9.805389	6.704099	1.974584	2.578940	1.922760	2.258480	-0.812254	-0.121948	0.563231	-1.000000	-1.000000	-1.000000	-1.000000	-1.000000	-1.000000	-1.000000	55.000000	0.000000	-1.000000	-1.000000	176124.000000	1775778624.714904
-20676.105000	-7821.720000	4029.030000	29312.010000	27082.125000	7823.340000	-4172.895000	-5874.705000	-4.308934	-3.410190	-1.784699	-2.320315	-2.872115	-4.527423	8.329432	0.032360	0.534100	1.373400	2.426340	-0.811643	-0.118469	0.562560	-1.000000	-1.000000	-1.000000	-1.000000	-1.000000	-1.000000	-1.000000	55.000000	0.000000	-1.000000	-1.000000	176125.000000	1775778624.734041
-20678.310000	-7824.870000	4018.635000	29306.295000	27086.715000	7821.180000	-4170.645000	-5874.705000	-4.844838	-3.941108	0.603360	-0.342918	-2.053499	1.428955	5.032612	-1.727634	0.534100	1.373400	2.426340	-0.811643	-0.118469	0.562560	-1.000000	-1.000000	-1.000000	-1.000000	-1.000000	-1.000000	-1.000000	55.000000	0.000000	-1.000000	-1.000000	176126.000000	1775778624.734067
-20682.495000	-7830.180000	4010.220000	29305.215000	27094.185000	7814.205000	-4167.495000	-5874.975000	-2.494944	-1.437951	4.487082	3.741211	1.760552	3.450521	-1.085438	-2.165114	0.534100	1.373400	2.426340	-0.811643	-0.118469	0.562560	-1.000000	-1.000000	-1.000000	-1.000000	-1.000000	-1.000000	-1.000000	55.000000	0.000000	-1.000000	-1.000000	176127.000000	1775778624.734093
-20688.705000	-7836.030000	4003.335000	29300.805000	27090.855000	7814.250000	-4172.040000	-5881.860000	0.679798	1.459179	4.864489	5.721243	5.811092	1.085912	-6.225713	-1.502650	0.534100	1.373400	2.426340	-0.811643	-0.118469	0.562560	-1.000000	-1.000000	-1.000000	-1.000000	-1.000000	-1.000000	-1.000000	55.000000	0.000000	-1.000000	-1.000000	176128.000000	1775778624.734105
-20691.495000	-7837.290000	4001.895000	29298.510000	27084.015000	7820.370000	-4179.330000	-5888.295000	2.592147	2.612882	0.796974	3.868109	7.041688	-2.620296	-8.301502	-0.805810	0.534100	1.373400	2.426340	-0.811643	-0.118469	0.562560	-1.000000	-1.000000	-1.000000	-1.000000	-1.000000	-1.000000	-1.000000	55.000000	0.000000	-1.000000	-1.000000	176129.000000	1775778624.734120
-20683.620000	-7825.815000	4011.795000	29305.260000	27082.170000	7805.250000	-4182.795000	-5887.125000	2.918272	2.239843	-4.209525	-0.194158	4.203607	-4.500840	-7.595389	-0.707585	0.534100	1.373400	2.426340	-0.811643	-0.118469	0.562560	-1.000000	-1.000000	-1.000000	-1.000000	-1.000000	-1.000000	-1.000000	55.000000	0.000000	-1.000000	-1.000000	176130.000000	1775778624.734131
-20674.890000	-7813.980000	4023.045000	29319.975000	27088.740000	7794.180000	-4184.505000	-5882.715000	2.946269	2.163361	-5.919777	-3.202397	-0.883872	-4.184040	-5.117034	-0.579358	0.534100	1.373400	2.426340	-0.811643	-0.118469	0.562560	-1.000000	-1.000000	-1.000000	-1.000000	-1.000000	-1.000000	-1.000000	55.000000	0.000000	-1.000000	-1.000000	176131.000000	1775778624.734144
-20675.745000	-7813.890000	4022.595000	29325.915000	27089.370000	7791.570000	-4185.000000	-5881.230000	3.580447	3.271770	-3.131358	-2.943255	-4.765803	-3.053385	-1.637082	0.515051	0.534100	1.373400	2.426340	-0.811643	-0.118469	0.562560	-1.000000	-1.000000	-1.000000	-1.000000	-1.000000	-1.000000	-1.000000	55.000000	0.000000	-1.000000	-1.000000	176132.000000	1775778624.734155
-20676.780000	-7817.715000	4018.635000	29328.255000	27096.210000	7814.295000	-4179.330000	-5882.895000	3.933134	4.050444	1.354787	-0.266900	-5.347915	-1.061626	2.170099	2.295927	0.534100	1.373400	2.426340	-0.811643	-0.118469	0.562560	-1.000000	-1.000000	-1.000000	-1.000000	-1.000000	-1.000000	-1.000000	55.000000	0.000000	-1.000000	-1.000000	176133.000000	1775778624.766159
-20679.120000	-7821.990000	4013.010000	29324.250000	27097.830000	7845.570000	-4168.395000	-5884.020000	2.579053	2.397224	3.600823	1.826882	-3.074943	3.479510	5.689180	3.398684	0.534100	1.373400	2.426340	-0.811643	-0.118469	0.562560	-1.000000	-1.000000	-1.000000	-1.000000	-1.000000	-1.000000	-1.000000	55.000000	0.000000	-1.000000	-1.000000	176134.000000	1775778624.766187
-20677.545000	-7821.450000	4006.845000	29289.375000	27085.815000	7842.285000	-4171.770000	-5880.780000	-0.459215	-1.651246	2.057902	0.542920	-0.184252	10.210047	8.108479	2.935389	-2.044840	0.686700	1.464960	-0.811338	-0.117370	0.561949	-1.000000	-1.000000	-1.000000	-1.000000	-1.000000	-1.000000	-1.000000	55.000000	0.000000	-1.000000	-1.000000	176135.000000	1775778624.766214
-20668.635000	-7814.880000	4013.955000	29290.230000	27085.950000	7824.420000	-4172.670000	-5872.590000	-3.449599	-5.624402	-1.538637	-4.593600	0.931922	14.137297	8.087648	1.475014	-2.044840	0.686700	1.464960	-0.811338	-0.117370	0.561949	-1.000000	-1.000000	-1.000000	-1.000000	-1.000000	-1.000000	-1.000000	55.000000	0.000000	-1.000000	-1.000000	176136.000000	1775778624.766226
-20667.690000	-7812.405000	4018.320000	29303.955000	27089.190000	7810.245000	-4174.785000	-5874.435000	-4.474507	-6.818077	-3.878584	-9.739438	-0.018679	9.831818	4.895893	0.192352	-2.044840	0.686700	1.464960	-0.811338	-0.117370	0.561949	-1.000000	-1.000000	-1.000000	-1.000000	-1.000000	-1.000000	-1.000000	55.000000	0.000000	-1.000000	-1.000000	176137.000000	1775778624.766406
-20669.985000	-7814.430000	4015.755000	29304.405000	27088.110000	7806.465000	-4177.755000	-5876.595000	-3.347961	-4.739408	-3.106624	-9.334294	-1.190085	-1.822959	-0.303097	-0.665471	-2.044840	0.686700	1.464960	-0.811338	-0.117370	0.561949	-1.000000	-1.000000	-1.000000	-1.000000	-1.000000	-1.000000	-1.000000	55.000000	0.000000	-1.000000	-1.000000	176138.000000	1775778624.766419
-20678.760000	-7823.340000	4009.005000	29299.860000	27085.230000	7817.310000	-4181.490000	-5883.255000	-1.743574	-1.421975	-0.460699	-2.597203	-1.181621	-13.361430	-5.177855	-1.743410	-2.044840	0.686700	1.464960	-0.811338	-0.117370	0.561949	-1.000000	-1.000000	-1.000000	-1.000000	-1.000000	-1.000000	-1.000000	55.000000	0.000000	-1.000000	-1.000000	176139.000000	1775778624.766436
-20673.540000	-7817.625000	4014.315000	29307.240000	27087.885000	7811.370000	-4187.790000	-5880.960000	-1.132580	0.815673	1.629005	5.810883	-0.179193	-17.317115	-7.851629	-3.185643	-2.044840	0.686700	1.464960	-0.811338	-0.117370	0.561949	-1.000000	-1.000000	-1.000000	-1.000000	-1.000000	-1.000000	-1.000000	55.000000	0.000000	-1.000000	-1.000000	176140.000000	1775778624.766447
