Channel1	Channel2	Channel3	Channel4	Channel5	Channel6	Channel7	Channel8	FilteredChannel1	FilteredChannel2	FilteredChannel3	FilteredChannel4	FilteredChannel5	FilteredChannel6	FilteredChannel7	FilteredChannel8	GyroX	GyroY	GyroZ	AccX	AccY	AccZ	PPG1	PPG2	rawPPG1	rawPPG2	rawPPG3	Hr	Hrv	Battery	Trigger	PhysicalTrigger	AutoTrigger	NumMeasurements	Timestamp
-24192.360000	-8727.615000	-11494.035000	-5495.445000	-3985.740000	-28940.220000	-2482.020000	4277.295000	3.783555	5.159019	6.136275	7.231395	8.483147	10.847816	0.021264	1.297647	-1.022420	4.364360	1.831200	-0.898618	-0.392882	0.202270	-1.000000	-1.000000	-1.000000	-1.000000	-1.000000	-1.000000	-1.000000	60.000000	0.000000	-1.000000	-1.000000	277033.000000	1775717174.972610
-24204.195000	-8742.690000	-11510.640000	-5513.805000	-4004.685000	-28958.850000	-2489.040000	4268.970000	1.285193	2.556657	3.409060	4.296175	5.229271	7.942572	1.341177	1.165793	-1.022420	4.364360	1.831200	-0.898618	-0.392882	0.202270	-1.000000	-1.000000	-1.000000	-1.000000	-1.000000	-1.000000	-1.000000	60.000000	0.000000	-1.000000	-1.000000	277034.000000	1775717174.972636
-24212.970000	-8753.040000	-11520.495000	-5524.740000	-4018.860000	-28976.805000	-2496.645000	4262.580000	-2.821686	-2.331124	-2.081069	-2.003449	-1.846819	0.023862	1.647948	-0.343573	-1.022420	4.364360	1.831200	-0.898618	-0.392882	0.202270	-1.000000	-1.000000	-1.000000	-1.000000	-1.000000	-1.000000	-1.000000	60.000000	0.000000	-1.000000	-1.000000	277035.000000	1775717174.974783
-24207.480000	-8746.515000	-11514.420000	-5519.565000	-4014.045000	-28974.555000	-2492.370000	4267.170000	-6.786635	-7.497997	-7.987624	-8.825687	-9.688849	-9.428907	0.335177	-2.550693	-1.022420	4.364360	1.831200	-0.898618	-0.392882	0.202270	-1.000000	-1.000000	-1.000000	-1.000000	-1.000000	-1.000000	-1.000000	60.000000	0.000000	-1.000000	-1.000000	277036.000000	1775717174.974810
-24204.375000	-8741.700000	-11508.840000	-5514.030000	-4008.240000	-28968.840000	-2487.645000	4268.610000	-7.814897	-9.314736	-10.238795	-11.541469	-13.199834	-14.630785	-1.170502	-3.570077	-1.022420	4.364360	1.831200	-0.898618	-0.392882	0.202270	-1.000000	-1.000000	-1.000000	-1.000000	-1.000000	-1.000000	-1.000000	60.000000	0.000000	-1.000000	-1.000000	277037.000000	1775717174.980500
-24199.155000	-8734.050000	-11498.850000	-5503.140000	-3997.755000	-28958.310000	-2481.120000	4273.155000	-4.558495	-5.809614	-6.610376	-7.646916	-9.359336	-11.692388	-1.011805	-2.149287	-1.022420	4.364360	1.831200	-0.898618	-0.392882	0.202270	-1.000000	-1.000000	-1.000000	-1.000000	-1.000000	-1.000000	-1.000000	60.000000	0.000000	-1.000000	-1.000000	277038.000000	1775717174.980531
-24193.440000	-8728.560000	-11494.800000	-5497.695000	-3993.165000	-28952.955000	-2481.795000	4277.745000	1.376077	1.221022	1.014463	0.862941	-0.112389	-2.062314	0.901254	1.051693	-1.022420	4.364360	1.831200	-0.898618	-0.392882	0.202270	-1.000000	-1.000000	-1.000000	-1.000000	-1.000000	-1.000000	-1.000000	60.000000	0.000000	-1.000000	-1.000000	277039.000000	1775717174.986338
-24197.355000	-8733.420000	-11499.345000	-5501.520000	-3994.785000	-28950.750000	-2490.930000	4274.280000	6.654955	7.583772	7.999164	8.923965	9.056035	8.554860	2.664770	4.070254	-1.022420	4.364360	1.831200	-0.898618	-0.392882	0.202270	-1.000000	-1.000000	-1.000000	-1.000000	-1.000000	-1.000000	-1.000000	60.000000	0.000000	-1.000000	-1.000000	277040.000000	1775717174.986364
-24203.655000	-8741.340000	-11507.040000	-5507.955000	-3998.070000	-28947.870000	-2489.130000	4271.895000	8.282051	9.464738	10.105209	11.767749	12.972666	14.367534	2.325321	4.931121	0.152600	6.073480	1.052940	-0.898679	-0.390441	0.202697	-1.000000	-1.000000	-1.000000	-1.000000	-1.000000	-1.000000	-1.000000	60.000000	0.000000	-1.000000	-1.000000	277041.000000	1775717174.987708
-24209.640000	-8744.940000	-11515.365000	-5513.040000	-4001.445000	-28952.595000	-2487.105000	4264.605000	5.371402	5.901966	6.263299	8.034499	10.042420	12.994439	0.111747	2.929601	0.152600	6.073480	1.052940	-0.898679	-0.390441	0.202697	-1.000000	-1.000000	-1.000000	-1.000000	-1.000000	-1.000000	-1.000000	60.000000	0.000000	-1.000000	-1.000000	277042.000000	1775717174.987726
-24208.425000	-8746.380000	-11519.505000	-5513.940000	-4002.165000	-28957.815000	-2486.160000	4265.820000	-0.104040	-0.508631	-0.866743	0.515735	2.767200	5.933445	-1.965781	-0.779613	0.152600	6.073480	1.052940	-0.898679	-0.390441	0.202697	-1.000000	-1.000000	-1.000000	-1.000000	-1.000000	-1.000000	-1.000000	60.000000	0.000000	-1.000000	-1.000000	277043.000000	1775717174.991790
-24204.375000	-8748.945000	-11522.115000	-5518.305000	-4012.290000	-28975.905000	-2495.475000	4267.800000	-4.574405	-5.727363	-6.914125	-6.185764	-4.628935	-3.276022	-2.641393	-3.841095	0.152600	6.073480	1.052940	-0.898679	-0.390441	0.202697	-1.000000	-1.000000	-1.000000	-1.000000	-1.000000	-1.000000	-1.000000	60.000000	0.000000	-1.000000	-1.000000	277044.000000	1775717174.991815
-24196.005000	-8746.335000	-11514.870000	-5513.895000	-4009.995000	-28979.325000	-2499.750000	4274.100000	-5.360436	-7.163551	-8.549923	-8.795711	-8.968112	-10.931864	-2.399103	-4.275668	0.152600	6.073480	1.052940	-0.898679	-0.390441	0.202697	-1.000000	-1.000000	-1.000000	-1.000000	-1.000000	-1.000000	-1.000000	60.000000	0.000000	-1.000000	-1.000000	277045.000000	1775717174.998447
-24200.730000	-8750.835000	-11511.945000	-5511.870000	-4006.305000	-28971.315000	-2502.540000	4270.770000	-2.561095	-4.846215	-5.149090	-6.714870	-8.914721	-13.803604	-2.038351	-2.013887	0.152600	6.073480	1.052940	-0.898679	-0.390441	0.202697	-1.000000	-1.000000	-1.000000	-1.000000	-1.000000	-1.000000	-1.000000	60.000000	0.000000	-1.000000	-1.000000	277046.000000	1775717174.998475
-24210.045000	-8757.270000	-11513.790000	-5516.145000	-4010.310000	-28963.890000	-2495.880000	4266.090000	0.994104	-0.907740	0.961176	-1.797044	-5.000022	-10.083773	-1.337043	0.959528	0.152600	6.073480	1.052940	-0.898679	-0.390441	0.202697	-1.000000	-1.000000	-1.000000	-1.000000	-1.000000	-1.000000	-1.000000	60.000000	0.000000	-1.000000	-1.000000	277047.000000	1775717174.999972
-24210.945000	-8749.665000	-11510.235000	-5513.850000	-4006.845000	-28956.870000	-2485.440000	4267.260000	2.308247	2.291688	6.049587	2.894841	0.416992	-1.273160	0.543188	2.437097	0.152600	6.073480	1.052940	-0.898679	-0.390441	0.202697	-1.000000	-1.000000	-1.000000	-1.000000	-1.000000	-1.000000	-1.000000	60.000000	0.000000	-1.000000	-1.000000	277048.000000	1775717174.999994
-24212.970000	-8743.365000	-11509.695000	-5514.390000	-4007.700000	-28957.455000	-2485.215000	4265.730000	1.026023	4.102626	7.673990	5.210688	4.656216	7.962293	3.542554	1.961547	0.152600	6.073480	1.052940	-0.898679	-0.390441	0.202697	-1.000000	-1.000000	-1.000000	-1.000000	-1.000000	-1.000000	-1.000000	60.000000	0.000000	-1.000000	-1.000000	277049.000000	1775717175.008083
-24212.655000	-8744.490000	-11511.180000	-5515.155000	-4010.040000	-28963.305000	-2492.730000	4263.255000	-0.913319	4.959453	5.781190	4.886261	6.233000	12.645843	5.763972	0.549604	0.152600	6.073480	1.052940	-0.898679	-0.390441	0.202697	-1.000000	-1.000000	-1.000000	-1.000000	-1.000000	-1.000000	-1.000000	60.000000	0.000000	-1.000000	-1.000000	277050.000000	1775717175.008109
-24211.305000	-8744.805000	-11512.620000	-5516.505000	-4012.605000	-28975.095000	-2498.715000	4263.030000	-1.637825	4.666537	1.813832	2.815951	5.020462	10.455912	4.898770	-0.716477	0.824040	4.074420	1.022420	-0.900327	-0.391234	0.203430	-1.000000	-1.000000	-1.000000	-1.000000	-1.000000	-1.000000	-1.000000	60.000000	0.000000	-1.000000	-1.000000	277051.000000	1775717175.009567
-24212.115000	-8746.695000	-11514.960000	-5520.015000	-4015.755000	-28980.630000	-2501.955000	4261.770000	-0.708563	2.755205	-2.345381	0.180529	2.003340	2.960525	0.834651	-1.242614	0.824040	4.074420	1.022420	-0.900327	-0.391234	0.203430	-1.000000	-1.000000	-1.000000	-1.000000	-1.000000	-1.000000	-1.000000	60.000000	0.000000	-1.000000	-1.000000	277052.000000	1775717175.009586
-24203.880000	-8741.745000	-11509.380000	-5515.020000	-4010.040000	-28969.290000	-2491.695000	4271.805000	1.133509	-0.230422	-4.991104	-1.911588	-1.100148	-5.115183	-3.728952	-0.762833	0.824040	4.074420	1.022420	-0.900327	-0.391234	0.203430	-1.000000	-1.000000	-1.000000	-1.000000	-1.000000	-1.000000	-1.000000	60.000000	0.000000	-1.000000	-1.000000	277053.000000	1775717175.011159
-24206.535000	-8743.950000	-11510.415000	-5514.480000	-4008.510000	-28962.765000	-2487.465000	4268.610000	2.839154	-2.851288	-5.149909	-2.586365	-2.621145	-8.680263	-5.453756	0.630846	0.824040	4.074420	1.022420	-0.900327	-0.391234	0.203430	-1.000000	-1.000000	-1.000000	-1.000000	-1.000000	-1.000000	-1.000000	60.000000	0.000000	-1.000000	-1.000000	277054.000000	1775717175.011182
-24210.405000	-8746.470000	-11512.800000	-5515.065000	-4008.555000	-28962.810000	-2490.705000	4264.560000	3.326225	-4.117741	-3.251510	-1.770391	-2.100029	-6.169635	-3.473042	1.950911	0.824040	4.074420	1.022420	-0.900327	-0.391234	0.203430	-1.000000	-1.000000	-1.000000	-1.000000	-1.000000	-1.000000	-1.000000	60.000000	0.000000	-1.000000	-1.000000	277055.000000	1775717175.016061
-24207.165000	-8743.185000	-11509.200000	-5511.105000	-4003.290000	-28956.510000	-2485.755000	4268.520000	2.006590	-4.012301	-0.772805	-0.314497	-0.498498	-0.481981	0.046859	1.951980	0.824040	4.074420	1.022420	-0.900327	-0.391234	0.203430	-1.000000	-1.000000	-1.000000	-1.000000	-1.000000	-1.000000	-1.000000	60.000000	0.000000	-1.000000	-1.000000	277056.000000	1775717175.016091
-24210.630000	-8747.190000	-11513.160000	-5514.165000	-4006.170000	-28957.005000	-2487.195000	4267.080000	-0.390718	-2.889943	1.078765	0.827021	0.899207	4.229054	2.522341	0.683640	0.824040	4.074420	1.022420	-0.900327	-0.391234	0.203430	-1.000000	-1.000000	-1.000000	-1.000000	-1.000000	-1.000000	-1.000000	60.000000	0.000000	-1.000000	-1.000000	277057.000000	1775717175.019467
-24210.135000	-8747.955000	-11515.050000	-5517.450000	-4013.595000	-28966.590000	-2491.290000	4266.990000	-2.484456	-1.316296	1.771858	1.024811	1.099283	5.373151	2.804137	-0.812330	0.824040	4.074420	1.022420	-0.900327	-0.391234	0.203430	-1.000000	-1.000000	-1.000000	-1.000000	-1.000000	-1.000000	-1.000000	60.000000	0.000000	-1.000000	-1.000000	277058.000000	1775717175.019497
-24205.500000	-8743.005000	-11509.965000	-5512.455000	-4009.185000	-28968.570000	-2493.540000	4268.070000	-3.277699	0.168556	1.439504	0.258405	-0.155906	2.625797	1.085668	-1.732557	0.824040	4.074420	1.022420	-0.900327	-0.391234	0.203430	-1.000000	-1.000000	-1.000000	-1.000000	-1.000000	-1.000000	-1.000000	60.000000	0.000000	-1.000000	-1.000000	277059.000000	1775717175.025635
-24200.010000	-8737.605000	-11503.440000	-5506.605000	-4001.355000	-28962.720000	-2488.140000	4270.680000	-2.348384	1.563803	1.011051	-0.520515	-1.625889	-1.849253	-1.286942	-1.744776	0.824040	4.074420	1.022420	-0.900327	-0.391234	0.203430	-1.000000	-1.000000	-1.000000	-1.000000	-1.000000	-1.000000	-1.000000	60.000000	0.000000	-1.000000	-1.000000	277060.000000	1775717175.025731
-24194.115000	-8731.800000	-11498.625000	-5502.915000	-3997.980000	-28962.405000	-2484.630000	4275.270000	-0.070024	2.981117	1.340960	-0.286099	-1.587168	-4.720022	-2.459368	-0.865308	0.640920	4.104940	-1.464960	-0.901243	-0.387938	0.202697	-1.000000	-1.000000	-1.000000	-1.000000	-1.000000	-1.000000	-1.000000	60.000000	0.000000	-1.000000	-1.000000	277061.000000	1775717175.030824
-24202.800000	-8742.240000	-11509.605000	-5512.860000	-4007.565000	-28968.795000	-2488.005000	4270.860000	2.140315	3.745430	1.916469	0.580172	-0.134436	-4.460992	-1.697090	0.391643	0.640920	4.104940	-1.464960	-0.901243	-0.387938	0.202697	-1.000000	-1.000000	-1.000000	-1.000000	-1.000000	-1.000000	-1.000000	60.000000	0.000000	-1.000000	-1.000000	277062.000000	1775717175.030855
-24206.490000	-8746.020000	-11512.665000	-5514.165000	-4007.115000	-28964.565000	-2488.500000	4267.890000	2.455488	2.615094	1.202716	0.583421	0.866656	-2.194052	-0.069601	1.023309	0.640920	4.104940	-1.464960	-0.901243	-0.387938	0.202697	-1.000000	-1.000000	-1.000000	-1.000000	-1.000000	-1.000000	-1.000000	60.000000	0.000000	-1.000000	-1.000000	277063.000000	1775717175.032181
-24207.660000	-8745.885000	-11511.630000	-5512.365000	-4004.190000	-28960.290000	-2488.095000	4266.630000	0.406373	-0.442534	-1.148277	-0.746649	0.423016	0.464311	0.980586	0.411974	0.640920	4.104940	-1.464960	-0.901243	-0.387938	0.202697	-1.000000	-1.000000	-1.000000	-1.000000	-1.000000	-1.000000	-1.000000	60.000000	0.000000	-1.000000	-1.000000	277064.000000	1775717175.032205
-24208.470000	-8746.065000	-11512.440000	-5514.255000	-4008.420000	-28963.665000	-2488.995000	4265.640000	-2.364373	-3.495701	-3.447434	-2.141718	-0.607993	2.607503	1.036577	-0.888538	0.640920	4.104940	-1.464960	-0.901243	-0.387938	0.202697	-1.000000	-1.000000	-1.000000	-1.000000	-1.000000	-1.000000	-1.000000	60.000000	0.000000	-1.000000	-1.000000	277065.000000	1775717175.035317
-24205.995000	-8742.240000	-11509.920000	-5512.455000	-4009.635000	-28967.175000	-2491.650000	4266.720000	-3.693922	-4.432887	-3.877882	-2.307967	-1.230666	3.427113	0.458879	-1.722250	0.640920	4.104940	-1.464960	-0.901243	-0.387938	0.202697	-1.000000	-1.000000	-1.000000	-1.000000	-1.000000	-1.000000	-1.000000	60.000000	0.000000	-1.000000	-1.000000	277066.000000	1775717175.035338
-24205.635000	-8741.160000	-11508.705000	-5511.555000	-4007.430000	-28966.095000	-2491.830000	4266.765000	-2.687461	-2.745387	-2.139909	-1.097352	-1.166211	2.507253	-0.279782	-1.392041	0.640920	4.104940	-1.464960	-0.901243	-0.387938	0.202697	-1.000000	-1.000000	-1.000000	-1.000000	-1.000000	-1.000000	-1.000000	60.000000	0.000000	-1.000000	-1.000000	277067.000000	1775717175.044084
-24207.660000	-8742.330000	-11508.120000	-5510.520000	-4005.855000	-28967.265000	-2493.765000	4266.180000	-0.158644	0.305948	0.653358	0.769083	-0.377713	0.592691	-0.769741	-0.122734	0.640920	4.104940	-1.464960	-0.901243	-0.387938	0.202697	-1.000000	-1.000000	-1.000000	-1.000000	-1.000000	-1.000000	-1.000000	60.000000	0.000000	-1.000000	-1.000000	277068.000000	1775717175.044110
-24211.125000	-8746.560000	-11511.765000	-5513.580000	-4009.500000	-28973.430000	-2495.790000	4264.245000	2.129919	2.675046	2.838713	2.228564	0.814084	-1.152972	-0.804580	1.208345	0.640920	4.104940	-1.464960	-0.901243	-0.387938	0.202697	-1.000000	-1.000000	-1.000000	-1.000000	-1.000000	-1.000000	-1.000000	60.000000	0.000000	-1.000000	-1.000000	277069.000000	1775717175.044137
-24206.985000	-8744.220000	-11510.865000	-5512.500000	-4008.915000	-28974.825000	-2493.045000	4267.485000	2.962696	3.083263	3.274713	2.489099	1.626711	-2.184018	-0.406853	1.865842	0.640920	4.104940	-1.464960	-0.901243	-0.387938	0.202697	-1.000000	-1.000000	-1.000000	-1.000000	-1.000000	-1.000000	-1.000000	60.000000	0.000000	-1.000000	-1.000000	277070.000000	1775717175.044149
-24212.475000	-8751.060000	-11518.380000	-5520.240000	-4015.980000	-28978.515000	-2499.840000	4261.860000	2.425958	1.781545	1.969505	1.473997	1.461047	-2.396470	0.235863	1.707290	-1.449700	3.418240	-2.227960	-0.901121	-0.387267	0.201293	-1.000000	-1.000000	-1.000000	-1.000000	-1.000000	-1.000000	-1.000000	60.000000	0.000000	-1.000000	-1.000000	277071.000000	1775717175.050314
-24212.925000	-8752.500000	-11520.270000	-5522.175000	-4018.230000	-28976.580000	-2493.945000	4262.985000	1.167582	-0.191912	-0.242199	-0.321829	0.338953	-1.727601	0.787177	0.903111	-1.449700	3.418240	-2.227960	-0.901121	-0.387267	0.201293	-1.000000	-1.000000	-1.000000	-1.000000	-1.000000	-1.000000	-1.000000	60.000000	0.000000	-1.000000	-1.000000	277072.000000	1775717175.050341
-24205.590000	-8743.680000	-11510.280000	-5512.140000	-4009.005000	-28967.130000	-2485.845000	4270.860000	-0.061763	-1.612837	-1.984795	-1.801378	-0.878742	-0.089929	1.303394	0.001787	-1.449700	3.418240	-2.227960	-0.901121	-0.387267	0.201293	-1.000000	-1.000000	-1.000000	-1.000000	-1.000000	-1.000000	-1.000000	60.000000	0.000000	-1.000000	-1.000000	277073.000000	1775717175.051821
-24196.095000	-8732.520000	-11498.040000	-5500.215000	-3997.800000	-28960.425000	-2489.130000	4275.495000	-0.261929	-1.198394	-1.642623	-1.420362	-0.692600	2.423374	2.045927	-0.088463	-1.449700	3.418240	-2.227960	-0.901121	-0.387267	0.201293	-1.000000	-1.000000	-1.000000	-1.000000	-1.000000	-1.000000	-1.000000	60.000000	0.000000	-1.000000	-1.000000	277074.000000	1775717175.051845
-24188.805000	-8727.120000	-11491.695000	-5492.835000	-3986.235000	-28953.765000	-2498.490000	4278.285000	0.996110	1.251177	1.124741	1.253319	1.566682	4.959001	2.241767	0.806201	-1.449700	3.418240	-2.227960	-0.901121	-0.387267	0.201293	-1.000000	-1.000000	-1.000000	-1.000000	-1.000000	-1.000000	-1.000000	60.000000	0.000000	-1.000000	-1.000000	277075.000000	1775717175.055587
-24201.225000	-8744.265000	-11510.370000	-5512.320000	-4005.270000	-28981.395000	-2511.090000	4270.905000	2.430547	3.642221	3.979907	4.017776	4.135337	5.483289	0.545717	1.527857	-1.449700	3.418240	-2.227960	-0.901121	-0.387267	0.201293	-1.000000	-1.000000	-1.000000	-1.000000	-1.000000	-1.000000	-1.000000	60.000000	0.000000	-1.000000	-1.000000	277076.000000	1775717175.055615
-24218.190000	-8760.330000	-11527.470000	-5530.770000	-4027.905000	-29000.340000	-2512.755000	4258.530000	1.546517	2.771227	3.275436	3.241001	3.418314	1.748656	-2.853662	0.512894	-1.449700	3.418240	-2.227960	-0.901121	-0.387267	0.201293	-1.000000	-1.000000	-1.000000	-1.000000	-1.000000	-1.000000	-1.000000	60.000000	0.000000	-1.000000	-1.000000	277077.000000	1775717175.060585
-24229.800000	-8771.805000	-11537.415000	-5538.915000	-4033.440000	-28981.080000	-2491.290000	4252.365000	-2.718491	-2.200638	-1.988089	-2.120933	-2.072280	-5.091846	-5.240231	-2.552193	-1.449700	3.418240	-2.227960	-0.901121	-0.387267	0.201293	-1.000000	-1.000000	-1.000000	-1.000000	-1.000000	-1.000000	-1.000000	60.000000	0.000000	-1.000000	-1.000000	277078.000000	1775717175.060611
-24223.005000	-8763.570000	-11526.705000	-5527.035000	-4018.680000	-28962.405000	-2480.445000	4257.810000	-7.784043	-7.846849	-8.014929	-8.147764	-8.453642	-9.110990	-3.416972	-5.693909	-1.449700	3.418240	-2.227960	-0.901121	-0.387267	0.201293	-1.000000	-1.000000	-1.000000	-1.000000	-1.000000	-1.000000	-1.000000	60.000000	0.000000	-1.000000	-1.000000	277079.000000	1775717175.068274
-24218.820000	-8757.270000	-11520.045000	-5519.430000	-4009.410000	-28960.650000	-2489.670000	4258.260000	-9.108929	-9.100625	-9.286978	-9.178240	-9.570116	-5.794585	2.116658	-6.015105	-1.449700	3.418240	-2.227960	-0.901121	-0.387267	0.201293	-1.000000	-1.000000	-1.000000	-1.000000	-1.000000	-1.000000	-1.000000	60.000000	0.000000	-1.000000	-1.000000	277080.000000	1775717175.068301
-24213.330000	-8752.230000	-11515.635000	-5515.020000	-4007.070000	-28958.355000	-2488.815000	4264.605000	-4.631966	-4.062121	-3.958003	-3.506611	-3.603839	2.252982	6.684198	-2.554921	3.876040	3.845520	-1.602300	-0.900205	-0.391295	0.200561	-1.000000	-1.000000	-1.000000	-1.000000	-1.000000	-1.000000	-1.000000	60.000000	0.000000	-1.000000	-1.000000	277081.000000	1775717175.069453
-24207.120000	-8747.550000	-11512.665000	-5512.950000	-4010.355000	-28963.125000	-2491.245000	4268.880000	3.258467	4.244318	4.483252	5.046005	5.048588	8.430504	6.514418	2.881521	3.876040	3.845520	-1.602300	-0.900205	-0.391295	0.200561	-1.000000	-1.000000	-1.000000	-1.000000	-1.000000	-1.000000	-1.000000	60.000000	0.000000	-1.000000	-1.000000	277082.000000	1775717175.069479
-24205.905000	-8745.705000	-11510.325000	-5510.520000	-4006.485000	-28961.055000	-2489.490000	4270.095000	9.986155	10.720454	10.663391	10.921395	10.375960	8.617637	2.216212	7.317565	3.876040	3.845520	-1.602300	-0.900205	-0.391295	0.200561	-1.000000	-1.000000	-1.000000	-1.000000	-1.000000	-1.000000	-1.000000	60.000000	0.000000	-1.000000	-1.000000	277083.000000	1775717175.076437
-24209.190000	-8748.225000	-11513.700000	-5515.425000	-4013.730000	-28973.385000	-2492.595000	4266.180000	11.949589	11.897618	11.336767	11.013962	9.688173	3.455082	-2.941837	8.376118	3.876040	3.845520	-1.602300	-0.900205	-0.391295	0.200561	-1.000000	-1.000000	-1.000000	-1.000000	-1.000000	-1.000000	-1.000000	60.000000	0.000000	-1.000000	-1.000000	277084.000000	1775717175.076461
-24213.285000	-8749.485000	-11515.005000	-5517.900000	-4016.115000	-28979.640000	-2490.120000	4261.995000	8.294546	7.551050	6.696687	5.821083	4.269521	-3.677336	-6.073085	5.441631	3.876040	3.845520	-1.602300	-0.900205	-0.391295	0.200561	-1.000000	-1.000000	-1.000000	-1.000000	-1.000000	-1.000000	-1.000000	60.000000	0.000000	-1.000000	-1.000000	277085.000000	1775717175.076487
-24211.755000	-8744.805000	-11510.370000	-5513.220000	-4013.100000	-28979.910000	-2483.145000	4262.760000	1.205624	0.398680	-0.327850	-1.461179	-2.414220	-9.055289	-5.947298	0.093300	3.876040	3.845520	-1.602300	-0.900205	-0.391295	0.200561	-1.000000	-1.000000	-1.000000	-1.000000	-1.000000	-1.000000	-1.000000	60.000000	0.000000	-1.000000	-1.000000	277086.000000	1775717175.076499
-24213.330000	-8746.020000	-11515.815000	-5514.615000	-4013.640000	-28980.585000	-2488.770000	4261.095000	-5.487525	-5.739820	-6.063022	-6.916541	-6.767888	-9.998910	-3.115828	-4.772902	3.876040	3.845520	-1.602300	-0.900205	-0.391295	0.200561	-1.000000	-1.000000	-1.000000	-1.000000	-1.000000	-1.000000	-1.000000	60.000000	0.000000	-1.000000	-1.000000	277087.000000	1775717175.080851
-24203.160000	-8744.535000	-11518.290000	-5512.590000	-4008.330000	-28970.505000	-2498.085000	4272.840000	-8.616482	-8.421617	-8.498811	-8.377253	-7.071053	-6.038227	0.182050	-6.672767	3.876040	3.845520	-1.602300	-0.900205	-0.391295	0.200561	-1.000000	-1.000000	-1.000000	-1.000000	-1.000000	-1.000000	-1.000000	60.000000	0.000000	-1.000000	-1.000000	277088.000000	1775717175.080879
-24206.490000	-8753.805000	-11524.140000	-5517.405000	-4008.420000	-28966.050000	-2506.095000	4271.310000	-7.306048	-7.713905	-7.863298	-6.361526	-4.078384	0.937295	1.524087	-4.896019	3.876040	3.845520	-1.602300	-0.900205	-0.391295	0.200561	-1.000000	-1.000000	-1.000000	-1.000000	-1.000000	-1.000000	-1.000000	60.000000	0.000000	-1.000000	-1.000000	277089.000000	1775717175.083950
-24203.385000	-8752.365000	-11513.385000	-5507.370000	-3998.340000	-28958.490000	-2495.250000	4272.795000	-3.254577	-5.254174	-5.148297	-2.743118	0.122799	7.676132	0.778409	-1.031961	3.876040	3.845520	-1.602300	-0.900205	-0.391295	0.200561	-1.000000	-1.000000	-1.000000	-1.000000	-1.000000	-1.000000	-1.000000	60.000000	0.000000	-1.000000	-1.000000	277090.000000	1775717175.083978
-24203.340000	-8755.065000	-11510.910000	-5509.395000	-4003.065000	-28967.805000	-2489.670000	4274.775000	0.768143	-2.455377	-1.040963	0.904272	3.466450	10.910580	0.242570	2.252186	0.976640	4.867940	-1.617560	-0.898191	-0.394103	0.200744	-1.000000	-1.000000	-1.000000	-1.000000	-1.000000	-1.000000	-1.000000	60.000000	0.000000	-1.000000	-1.000000	277091.000000	1775717175.089907
-24206.895000	-8758.395000	-11514.600000	-5518.305000	-4015.755000	-28978.965000	-2491.920000	4271.760000	2.879550	0.088303	3.298359	3.292018	4.258409	8.718423	1.531074	3.321297	0.976640	4.867940	-1.617560	-0.898191	-0.394103	0.200744	-1.000000	-1.000000	-1.000000	-1.000000	-1.000000	-1.000000	-1.000000	60.000000	0.000000	-1.000000	-1.000000	277092.000000	1775717175.089932
-24203.610000	-8748.180000	-11512.440000	-5517.630000	-4014.180000	-28971.270000	-2485.305000	4273.695000	2.738909	2.223271	5.897400	3.353967	1.880975	2.122828	3.609472	2.208026	0.976640	4.867940	-1.617560	-0.898191	-0.394103	0.200744	-1.000000	-1.000000	-1.000000	-1.000000	-1.000000	-1.000000	-1.000000	60.000000	0.000000	-1.000000	-1.000000	277093.000000	1775717175.090595
-24207.570000	-8746.245000	-11515.815000	-5520.555000	-4014.855000	-28970.955000	-2483.055000	4270.725000	1.257956	4.109455	5.606829	1.486323	-1.902599	-4.704064	4.620897	0.043836	0.976640	4.867940	-1.617560	-0.898191	-0.394103	0.200744	-1.000000	-1.000000	-1.000000	-1.000000	-1.000000	-1.000000	-1.000000	60.000000	0.000000	-1.000000	-1.000000	277094.000000	1775717175.090617
-24210.990000	-8751.195000	-11518.065000	-5521.230000	-4014.990000	-28976.625000	-2492.145000	4265.415000	-0.400663	5.400589	2.988191	-0.603828	-4.171107	-7.886339	3.609953	-1.929831	0.976640	4.867940	-1.617560	-0.898191	-0.394103	0.200744	-1.000000	-1.000000	-1.000000	-1.000000	-1.000000	-1.000000	-1.000000	60.000000	0.000000	-1.000000	-1.000000	277095.000000	1775717175.095478
-24209.640000	-8750.655000	-11516.490000	-5519.745000	-4016.610000	-28982.205000	-2495.565000	4265.820000	-1.527913	4.984027	-0.367269	-1.503271	-3.603643	-7.051066	0.504327	-3.020594	0.976640	4.867940	-1.617560	-0.898191	-0.394103	0.200744	-1.000000	-1.000000	-1.000000	-1.000000	-1.000000	-1.000000	-1.000000	60.000000	0.000000	-1.000000	-1.000000	277096.000000	1775717175.095502
-24208.785000	-8747.370000	-11511.720000	-5515.425000	-4013.595000	-28978.695000	-2494.305000	4267.710000	-1.644090	2.645515	-2.639032	-0.792272	-1.010817	-4.090529	-3.464609	-2.814065	0.976640	4.867940	-1.617560	-0.898191	-0.394103	0.200744	-1.000000	-1.000000	-1.000000	-1.000000	-1.000000	-1.000000	-1.000000	60.000000	0.000000	-1.000000	-1.000000	277097.000000	1775717175.104765
-24205.410000	-8743.095000	-11506.365000	-5508.720000	-4004.820000	-28961.820000	-2486.700000	4271.850000	-0.588950	-0.206591	-2.695421	1.104976	2.129852	-0.289550	-5.856268	-1.137388	0.976640	4.867940	-1.617560	-0.898191	-0.394103	0.200744	-1.000000	-1.000000	-1.000000	-1.000000	-1.000000	-1.000000	-1.000000	60.000000	0.000000	-1.000000	-1.000000	277098.000000	1775717175.104791
-24203.520000	-8742.870000	-11505.735000	-5507.820000	-4002.750000	-28958.310000	-2485.710000	4272.885000	1.154826	-2.030285	-0.897821	3.138350	4.676684	3.956060	-4.966758	1.437358	0.976640	4.867940	-1.617560	-0.898191	-0.394103	0.200744	-1.000000	-1.000000	-1.000000	-1.000000	-1.000000	-1.000000	-1.000000	60.000000	0.000000	-1.000000	-1.000000	277099.000000	1775717175.104817
-24203.790000	-8742.780000	-11505.510000	-5507.415000	-4002.750000	-28961.370000	-2485.035000	4272.210000	2.619274	-2.503794	1.129470	3.963416	5.624713	7.247448	-1.539539	3.585483	0.976640	4.867940	-1.617560	-0.898191	-0.394103	0.200744	-1.000000	-1.000000	-1.000000	-1.000000	-1.000000	-1.000000	-1.000000	60.000000	0.000000	-1.000000	-1.000000	277100.000000	1775717175.104829
-24208.515000	-8746.830000	-11508.885000	-5510.655000	-4006.845000	-28969.245000	-2487.105000	4267.710000	2.813895	-2.325534	1.777532	2.720988	4.193148	7.191788	1.938640	3.990790	1.083460	4.852680	-0.366240	-0.898740	-0.397155	0.201538	-1.000000	-1.000000	-1.000000	-1.000000	-1.000000	-1.000000	-1.000000	60.000000	0.000000	-1.000000	-1.000000	277101.000000	1775717175.107287
-24200.820000	-8738.460000	-11500.515000	-5501.970000	-3999.915000	-28969.785000	-2482.155000	4274.055000	1.540355	-2.055344	0.789122	-0.055152	0.810749	3.062939	3.518890	2.445458	1.083460	4.852680	-0.366240	-0.898740	-0.397155	0.201538	-1.000000	-1.000000	-1.000000	-1.000000	-1.000000	-1.000000	-1.000000	60.000000	0.000000	-1.000000	-1.000000	277102.000000	1775717175.107308
-24198.255000	-8736.840000	-11499.570000	-5500.800000	-3997.665000	-28969.740000	-2479.590000	4276.485000	-0.129855	-1.438024	-0.621068	-2.587177	-2.622810	-2.797765	3.116875	0.230524	1.083460	4.852680	-0.366240	-0.898740	-0.397155	0.201538	-1.000000	-1.000000	-1.000000	-1.000000	-1.000000	-1.000000	-1.000000	60.000000	0.000000	-1.000000	-1.000000	277103.000000	1775717175.111804
-24204.150000	-8742.735000	-11506.905000	-5508.270000	-4004.955000	-28973.925000	-2486.340000	4270.635000	-1.113562	-0.362823	-1.417199	-3.655731	-4.441576	-6.928005	1.636912	-1.288656	1.083460	4.852680	-0.366240	-0.898740	-0.397155	0.201538	-1.000000	-1.000000	-1.000000	-1.000000	-1.000000	-1.000000	-1.000000	60.000000	0.000000	-1.000000	-1.000000	277104.000000	1775717175.111831
-24207.885000	-8747.100000	-11512.170000	-5513.355000	-4009.095000	-28972.710000	-2486.790000	4269.600000	-1.633803	0.294359	-1.918868	-3.746677	-4.724989	-7.495563	-0.322827	-2.034193	1.083460	4.852680	-0.366240	-0.898740	-0.397155	0.201538	-1.000000	-1.000000	-1.000000	-1.000000	-1.000000	-1.000000	-1.000000	60.000000	0.000000	-1.000000	-1.000000	277105.000000	1775717175.116567
-24203.790000	-8746.650000	-11511.855000	-5513.220000	-4007.205000	-28968.120000	-2487.600000	4272.930000	-2.167788	-0.104110	-2.556943	-3.627190	-4.209715	-4.791653	-2.198510	-2.350596	1.083460	4.852680	-0.366240	-0.898740	-0.397155	0.201538	-1.000000	-1.000000	-1.000000	-1.000000	-1.000000	-1.000000	-1.000000	60.000000	0.000000	-1.000000	-1.000000	277106.000000	1775717175.116595
-24198.165000	-8742.195000	-11506.545000	-5507.145000	-3999.420000	-28957.410000	-2484.270000	4277.610000	-2.142878	-0.791072	-2.609526	-2.889244	-2.763028	-0.149554	-3.048158	-1.933818	1.083460	4.852680	-0.366240	-0.898740	-0.397155	0.201538	-1.000000	-1.000000	-1.000000	-1.000000	-1.000000	-1.000000	-1.000000	60.000000	0.000000	-1.000000	-1.000000	277107.000000	1775717175.120965
-24197.040000	-8742.375000	-11505.555000	-5505.390000	-3997.305000	-28952.550000	-2479.320000	4279.905000	-0.860665	-0.555150	-1.136161	-0.774016	-0.026082	4.684481	-2.203899	-0.512039	1.083460	4.852680	-0.366240	-0.898740	-0.397155	0.201538	-1.000000	-1.000000	-1.000000	-1.000000	-1.000000	-1.000000	-1.000000	60.000000	0.000000	-1.000000	-1.000000	277108.000000	1775717175.120985
-24200.055000	-8743.545000	-11507.130000	-5507.505000	-4001.715000	-28963.080000	-2480.130000	4276.035000	1.057293	0.673548	1.438851	2.203002	3.069433	7.471468	-0.020542	1.199727	1.083460	4.852680	-0.366240	-0.898740	-0.397155	0.201538	-1.000000	-1.000000	-1.000000	-1.000000	-1.000000	-1.000000	-1.000000	60.000000	0.000000	-1.000000	-1.000000	277109.000000	1775717175.123502
-24204.195000	-8747.325000	-11509.920000	-5511.465000	-4007.205000	-28974.105000	-2484.540000	4271.895000	2.062148	1.786017	3.442977	4.263999	4.526037	6.119507	2.038065	1.854426	1.083460	4.852680	-0.366240	-0.898740	-0.397155	0.201538	-1.000000	-1.000000	-1.000000	-1.000000	-1.000000	-1.000000	-1.000000	60.000000	0.000000	-1.000000	-1.000000	277110.000000	1775717175.123520
-24201.225000	-8744.130000	-11506.455000	-5509.080000	-4005.090000	-28977.300000	-2488.230000	4272.255000	1.409103	1.871864	3.663987	4.147800	3.356521	0.794357	2.432633	0.875047	-0.106820	5.127360	0.671440	-0.899168	-0.396239	0.200561	-1.000000	-1.000000	-1.000000	-1.000000	-1.000000	-1.000000	-1.000000	60.000000	0.000000	-1.000000	-1.000000	277111.000000	1775717175.130415
-24200.370000	-8743.860000	-11506.230000	-5508.315000	-4004.100000	-28974.465000	-2488.500000	4272.480000	-0.037779	1.148417	2.412806	2.352073	0.759286	-5.155665	0.992440	-0.817320	-0.106820	5.127360	0.671440	-0.899168	-0.396239	0.200561	-1.000000	-1.000000	-1.000000	-1.000000	-1.000000	-1.000000	-1.000000	60.000000	0.000000	-1.000000	-1.000000	277112.000000	1775717175.130443
-24196.860000	-8739.810000	-11501.955000	-5502.105000	-3996.855000	-28962.585000	-2481.615000	4277.025000	-0.883621	0.444839	0.839654	0.436084	-1.122243	-7.517217	-0.828686	-1.711901	-0.106820	5.127360	0.671440	-0.899168	-0.396239	0.200561	-1.000000	-1.000000	-1.000000	-1.000000	-1.000000	-1.000000	-1.000000	60.000000	0.000000	-1.000000	-1.000000	277113.000000	1775717175.131078
-24198.345000	-8740.305000	-11502.855000	-5503.050000	-3997.170000	-28960.740000	-2481.615000	4275.630000	-0.621401	0.219771	-0.233512	-0.485514	-1.152089	-4.639929	-1.336894	-1.109701	-0.106820	5.127360	0.671440	-0.899168	-0.396239	0.200561	-1.000000	-1.000000	-1.000000	-1.000000	-1.000000	-1.000000	-1.000000	60.000000	0.000000	-1.000000	-1.000000	277114.000000	1775717175.131100
-24203.745000	-8745.660000	-11506.815000	-5507.145000	-4001.580000	-28962.900000	-2487.285000	4269.960000	0.056939	0.146624	-0.836014	-0.607966	-0.052450	1.126609	-0.415821	0.250169	-0.106820	5.127360	0.671440	-0.899168	-0.396239	0.200561	-1.000000	-1.000000	-1.000000	-1.000000	-1.000000	-1.000000	-1.000000	60.000000	0.000000	-1.000000	-1.000000	277115.000000	1775717175.140721
-24198.255000	-8740.305000	-11500.830000	-5501.160000	-3996.495000	-28958.220000	-2483.640000	4275.135000	0.252700	-0.310948	-1.337815	-0.757064	0.641515	5.606468	0.608973	1.093676	-0.106820	5.127360	0.671440	-0.899168	-0.396239	0.200561	-1.000000	-1.000000	-1.000000	-1.000000	-1.000000	-1.000000	-1.000000	60.000000	0.000000	-1.000000	-1.000000	277116.000000	1775717175.140750
-24199.965000	-8742.555000	-11502.990000	-5504.220000	-4000.185000	-28964.610000	-2480.715000	4275.900000	0.008462	-0.965654	-1.613804	-1.094432	0.346506	6.316228	0.944634	1.147039	-0.106820	5.127360	0.671440	-0.899168	-0.396239	0.200561	-1.000000	-1.000000	-1.000000	-1.000000	-1.000000	-1.000000	-1.000000	60.000000	0.000000	-1.000000	-1.000000	277117.000000	1775717175.140777
-24202.305000	-8746.020000	-11505.780000	-5508.270000	-4005.540000	-28973.295000	-2482.380000	4273.830000	-0.183541	-1.331539	-1.465165	-1.388053	-0.609522	3.345486	0.850648	0.911315	-0.106820	5.127360	0.671440	-0.899168	-0.396239	0.200561	-1.000000	-1.000000	-1.000000	-1.000000	-1.000000	-1.000000	-1.000000	60.000000	0.000000	-1.000000	-1.000000	277118.000000	1775717175.140788
-24199.380000	-8742.195000	-11501.280000	-5503.680000	-4001.265000	-28972.080000	-2479.275000	4277.295000	-0.222156	-1.323868	-1.081011	-1.570205	-1.701432	-1.473731	0.598048	0.606131	-0.106820	5.127360	0.671440	-0.899168	-0.396239	0.200561	-1.000000	-1.000000	-1.000000	-1.000000	-1.000000	-1.000000	-1.000000	60.000000	0.000000	-1.000000	-1.000000	277119.000000	1775717175.147156
-24200.505000	-8744.040000	-11502.495000	-5504.580000	-3999.870000	-28969.515000	-2486.925000	4274.280000	-0.102563	-0.906003	-0.515691	-1.335723	-2.073384	-5.235049	0.110460	0.233334	-0.106820	5.127360	0.671440	-0.899168	-0.396239	0.200561	-1.000000	-1.000000	-1.000000	-1.000000	-1.000000	-1.000000	-1.000000	60.000000	0.000000	-1.000000	-1.000000	277120.000000	1775717175.147189
-24203.655000	-8745.660000	-11503.890000	-5504.490000	-3998.205000	-28965.330000	-2489.220000	4270.680000	0.108291	-0.164815	0.177511	-0.481087	-1.134113	-5.609311	-0.802943	-0.278264	-1.052940	4.120200	1.266580	-0.899534	-0.394347	0.199340	-1.000000	-1.000000	-1.000000	-1.000000	-1.000000	-1.000000	-1.000000	60.000000	0.000000	-1.000000	-1.000000	277121.000000	1775717175.148494
-24191.100000	-8730.270000	-11488.320000	-5488.695000	-3983.580000	-28952.595000	-2476.710000	4281.975000	0.345935	0.747299	0.910556	0.855368	0.860107	-2.428340	-1.692744	-0.793160	-1.052940	4.120200	1.266580	-0.899534	-0.394347	0.199340	-1.000000	-1.000000	-1.000000	-1.000000	-1.000000	-1.000000	-1.000000	60.000000	0.000000	-1.000000	-1.000000	277122.000000	1775717175.148515
-24179.580000	-8720.190000	-11478.780000	-5478.930000	-3973.590000	-28942.740000	-2469.915000	4291.560000	1.134784	2.179165	2.095842	2.720785	3.341603	2.596161	-1.235575	-0.464410	-1.052940	4.120200	1.266580	-0.899534	-0.394347	0.199340	-1.000000	-1.000000	-1.000000	-1.000000	-1.000000	-1.000000	-1.000000	60.000000	0.000000	-1.000000	-1.000000	277123.000000	1775717175.152179
-24178.950000	-8724.015000	-11482.650000	-5483.070000	-3979.035000	-28945.485000	-2468.970000	4294.575000	2.673086	3.883730	3.554393	4.507456	5.179525	6.722245	0.912556	1.154567	-1.052940	4.120200	1.266580	-0.899534	-0.394347	0.199340	-1.000000	-1.000000	-1.000000	-1.000000	-1.000000	-1.000000	-1.000000	60.000000	0.000000	-1.000000	-1.000000	277124.000000	1775717175.152207
-24195.465000	-8739.045000	-11497.365000	-5497.065000	-3991.410000	-28955.430000	-2472.120000	4281.705000	3.305777	3.857376	3.381710	4.147557	4.334175	7.089297	2.967684	2.577186	-1.052940	4.120200	1.266580	-0.899534	-0.394347	0.199340	-1.000000	-1.000000	-1.000000	-1.000000	-1.000000	-1.000000	-1.000000	60.000000	0.000000	-1.000000	-1.000000	277125.000000	1775717175.159821
-24215.085000	-8759.070000	-11519.505000	-5522.670000	-4022.955000	-28991.700000	-2496.690000	4260.510000	0.652290	0.141617	-0.320476	-0.131823	-0.616730	2.158412	2.456595	1.262378	-1.052940	4.120200	1.266580	-0.899534	-0.394347	0.199340	-1.000000	-1.000000	-1.000000	-1.000000	-1.000000	-1.000000	-1.000000	60.000000	0.000000	-1.000000	-1.000000	277126.000000	1775717175.159847
-24214.095000	-8762.175000	-11522.925000	-5526.720000	-4026.105000	-28997.100000	-2497.680000	4262.985000	-5.002549	-6.218409	-6.580224	-7.151288	-8.244228	-6.636631	-1.423695	-3.236883	-1.052940	4.120200	1.266580	-0.899534	-0.394347	0.199340	-1.000000	-1.000000	-1.000000	-1.000000	-1.000000	-1.000000	-1.000000	60.000000	0.000000	-1.000000	-1.000000	277127.000000	1775717175.159872
-24206.895000	-8758.755000	-11522.160000	-5524.740000	-4021.380000	-28989.855000	-2488.545000	4270.950000	-9.466916	-10.852371	-11.133579	-12.307476	-13.624916	-13.920907	-5.970987	-7.426027	-1.052940	4.120200	1.266580	-0.899534	-0.394347	0.199340	-1.000000	-1.000000	-1.000000	-1.000000	-1.000000	-1.000000	-1.000000	60.000000	0.000000	-1.000000	-1.000000	277128.000000	1775717175.159884
-24212.745000	-8764.965000	-11527.740000	-5530.320000	-4025.430000	-28991.295000	-2492.235000	4266.090000	-8.558697	-9.789784	-10.006444	-11.187815	-11.919856	-13.683778	-6.925197	-7.143187	-1.052940	4.120200	1.266580	-0.899534	-0.394347	0.199340	-1.000000	-1.000000	-1.000000	-1.000000	-1.000000	-1.000000	-1.000000	60.000000	0.000000	-1.000000	-1.000000	277129.000000	1775717175.163994
-24215.130000	-8761.320000	-11518.920000	-5519.745000	-4014.585000	-28980.630000	-2489.445000	4266.270000	-2.677349	-3.297348	-3.238799	-3.724847	-3.197341	-5.081397	-3.176023	-2.287318	-1.052940	4.120200	1.266580	-0.899534	-0.394347	0.199340	-1.000000	-1.000000	-1.000000	-1.000000	-1.000000	-1.000000	-1.000000	60.000000	0.000000	-1.000000	-1.000000	277130.000000	1775717175.164018
-24216.165000	-8757.090000	-11513.205000	-5513.895000	-4009.545000	-28974.465000	-2488.995000	4265.595000	4.150130	4.962588	5.774598	6.309924	7.942973	7.044696	2.550510	3.672730	-2.533160	3.723440	1.419180	-0.901365	-0.392699	0.198303	-1.000000	-1.000000	-1.000000	-1.000000	-1.000000	-1.000000	-1.000000	60.000000	0.000000	-1.000000	-1.000000	277131.000000	1775717175.167976
-24211.080000	-8753.670000	-11509.965000	-5510.880000	-4005.945000	-28969.830000	-2487.105000	4268.835000	8.463615	11.168445	12.918521	14.218665	16.054763	16.332149	6.854869	7.478067	-2.533160	3.723440	1.419180	-0.901365	-0.392699	0.198303	-1.000000	-1.000000	-1.000000	-1.000000	-1.000000	-1.000000	-1.000000	60.000000	0.000000	-1.000000	-1.000000	277132.000000	1775717175.168002
-24208.605000	-8754.480000	-11512.395000	-5512.905000	-4006.305000	-28970.100000	-2484.720000	4272.570000	9.326504	12.996859	15.026644	16.419069	17.547435	18.486493	7.934271	8.053558	-2.533160	3.723440	1.419180	-0.901365	-0.392699	0.198303	-1.000000	-1.000000	-1.000000	-1.000000	-1.000000	-1.000000	-1.000000	60.000000	0.000000	-1.000000	-1.000000	277133.000000	1775717175.171022
-24210.180000	-8756.235000	-11514.645000	-5516.280000	-4010.670000	-28978.245000	-2487.870000	4269.735000	7.410587	10.024853	11.176953	11.993475	12.077167	12.884641	5.888442	6.018488	-2.533160	3.723440	1.419180	-0.901365	-0.392699	0.198303	-1.000000	-1.000000	-1.000000	-1.000000	-1.000000	-1.000000	-1.000000	60.000000	0.000000	-1.000000	-1.000000	277134.000000	1775717175.171051
-24205.140000	-8750.070000	-11508.255000	-5510.025000	-4007.205000	-28986.120000	-2489.445000	4273.110000	3.818214	3.887943	3.425998	3.338623	2.505319	2.270685	1.939112	2.537632	-2.533160	3.723440	1.419180	-0.901365	-0.392699	0.198303	-1.000000	-1.000000	-1.000000	-1.000000	-1.000000	-1.000000	-1.000000	60.000000	0.000000	-1.000000	-1.000000	277135.000000	1775717175.176105
-24207.570000	-8750.565000	-11507.715000	-5509.890000	-4010.445000	-29007.765000	-2502.765000	4270.095000	-0.161313	-2.437244	-4.265202	-5.146382	-6.693486	-8.971397	-2.478746	-1.132351	-2.533160	3.723440	1.419180	-0.901365	-0.392699	0.198303	-1.000000	-1.000000	-1.000000	-1.000000	-1.000000	-1.000000	-1.000000	60.000000	0.000000	-1.000000	-1.000000	277136.000000	1775717175.176131
-24204.645000	-8746.830000	-11505.105000	-5507.775000	-4009.680000	-29005.830000	-2499.795000	4272.345000	-3.359401	-6.475031	-8.699480	-9.934359	-11.952936	-16.617510	-6.031105	-3.869175	-2.533160	3.723440	1.419180	-0.901365	-0.392699	0.198303	-1.000000	-1.000000	-1.000000	-1.000000	-1.000000	-1.000000	-1.000000	60.000000	0.000000	-1.000000	-1.000000	277137.000000	1775717175.179628
-24212.430000	-8754.075000	-11511.270000	-5513.670000	-4013.730000	-28983.105000	-2490.570000	4263.390000	-5.220620	-7.598641	-9.252580	-10.320270	-12.254089	-17.143371	-7.107211	-5.152916	-2.533160	3.723440	1.419180	-0.901365	-0.392699	0.198303	-1.000000	-1.000000	-1.000000	-1.000000	-1.000000	-1.000000	-1.000000	60.000000	0.000000	-1.000000	-1.000000	277138.000000	1775717175.179654
-24215.220000	-8756.955000	-11512.845000	-5513.265000	-4007.970000	-28962.225000	-2490.615000	4258.620000	-5.860178	-6.776221	-7.344998	-7.830575	-8.714230	-8.992445	-4.620865	-5.251501	-2.533160	3.723440	1.419180	-0.901365	-0.392699	0.198303	-1.000000	-1.000000	-1.000000	-1.000000	-1.000000	-1.000000	-1.000000	60.000000	0.000000	-1.000000	-1.000000	277139.000000	1775717175.183845
-24197.760000	-8745.030000	-11502.720000	-5502.195000	-3993.075000	-28949.850000	-2492.145000	4273.425000	-5.165216	-4.946377	-4.440957	-4.119023	-3.022161	4.632394	0.105450	-4.286102	-2.533160	3.723440	1.419180	-0.901365	-0.392699	0.198303	-1.000000	-1.000000	-1.000000	-1.000000	-1.000000	-1.000000	-1.000000	60.000000	0.000000	-1.000000	-1.000000	277140.000000	1775717175.183869
-24189.570000	-8737.740000	-11495.790000	-5494.860000	-3984.930000	-28946.790000	-2484.045000	4281.750000	-2.344509	-1.965725	-0.883324	0.156714	3.296405	16.215415	4.164747	-1.542841	-2.197440	2.884140	0.930860	-0.903257	-0.392089	0.196777	-1.000000	-1.000000	-1.000000	-1.000000	-1.000000	-1.000000	-1.000000	60.000000	0.000000	-1.000000	-1.000000	277141.000000	1775717175.187549
-24191.775000	-8739.090000	-11499.300000	-5500.665000	-3996.045000	-28961.280000	-2469.195000	4289.130000	2.075182	1.898658	2.840189	4.097210	7.950159	18.764832	6.037505	2.852901	-2.197440	2.884140	0.930860	-0.903257	-0.392089	0.196777	-1.000000	-1.000000	-1.000000	-1.000000	-1.000000	-1.000000	-1.000000	60.000000	0.000000	-1.000000	-1.000000	277142.000000	1775717175.187567
-24190.740000	-8737.110000	-11497.365000	-5499.225000	-3995.820000	-28966.365000	-2465.280000	4291.560000	5.321237	4.809002	5.112893	5.856132	8.249012	10.571084	6.094975	6.710367	-2.197440	2.884140	0.930860	-0.903257	-0.392089	0.196777	-1.000000	-1.000000	-1.000000	-1.000000	-1.000000	-1.000000	-1.000000	60.000000	0.000000	-1.000000	-1.000000	277143.000000	1775717175.192028
-24192.990000	-8739.630000	-11499.570000	-5502.240000	-3999.780000	-28973.880000	-2474.370000	4285.530000	5.092583	5.034076	4.715134	4.466561	3.907037	-3.532529	4.477515	7.358888	-2.197440	2.884140	0.930860	-0.903257	-0.392089	0.196777	-1.000000	-1.000000	-1.000000	-1.000000	-1.000000	-1.000000	-1.000000	60.000000	0.000000	-1.000000	-1.000000	277144.000000	1775717175.192056
-24201.540000	-8748.855000	-11508.930000	-5512.005000	-4009.680000	-28981.395000	-2476.935000	4279.635000	1.607643	2.469981	1.982703	0.870326	-2.330553	-15.616321	0.654111	3.792409	-2.197440	2.884140	0.930860	-0.903257	-0.392089	0.196777	-1.000000	-1.000000	-1.000000	-1.000000	-1.000000	-1.000000	-1.000000	60.000000	0.000000	-1.000000	-1.000000	277145.000000	1775717175.196236
-24208.605000	-8756.280000	-11514.825000	-5517.270000	-4012.830000	-28979.955000	-2480.445000	4274.730000	-3.190633	-1.668143	-1.803216	-3.156539	-7.195685	-19.890112	-4.581690	-2.407697	-2.197440	2.884140	0.930860	-0.903257	-0.392089	0.196777	-1.000000	-1.000000	-1.000000	-1.000000	-1.000000	-1.000000	-1.000000	60.000000	0.000000	-1.000000	-1.000000	277146.000000	1775717175.196263
-24210.675000	-8759.070000	-11517.660000	-5518.980000	-4013.775000	-28979.055000	-2484.765000	4271.580000	-6.871586	-5.384261	-4.916784	-5.774980	-8.579178	-15.212470	-8.738896	-7.917518	-2.197440	2.884140	0.930860	-0.903257	-0.392089	0.196777	-1.000000	-1.000000	-1.000000	-1.000000	-1.000000	-1.000000	-1.000000	60.000000	0.000000	-1.000000	-1.000000	277147.000000	1775717175.199482
-24204.015000	-8751.240000	-11510.910000	-5510.565000	-4005.135000	-28970.145000	-2480.940000	4276.395000	-7.311338	-6.441972	-5.542169	-5.422542	-5.834827	-4.546171	-9.562136	-9.727671	-2.197440	2.884140	0.930860	-0.903257	-0.392089	0.196777	-1.000000	-1.000000	-1.000000	-1.000000	-1.000000	-1.000000	-1.000000	60.000000	0.000000	-1.000000	-1.000000	277148.000000	1775717175.199498
-24200.865000	-8746.605000	-11505.330000	-5505.525000	-3999.465000	-28965.420000	-2478.330000	4278.375000	-3.800269	-3.653191	-2.808031	-1.728310	0.015353	7.100306	-6.433719	-6.839393	-2.197440	2.884140	0.930860	-0.903257	-0.392089	0.196777	-1.000000	-1.000000	-1.000000	-1.000000	-1.000000	-1.000000	-1.000000	60.000000	0.000000	-1.000000	-1.000000	277149.000000	1775717175.203074
-24201.855000	-8748.405000	-11505.690000	-5506.875000	-4001.850000	-28971.855000	-2479.275000	4277.430000	1.983096	1.703240	2.099481	3.573622	6.258229	14.823609	-0.743906	-0.892689	-2.197440	2.884140	0.930860	-0.903257	-0.392089	0.196777	-1.000000	-1.000000	-1.000000	-1.000000	-1.000000	-1.000000	-1.000000	60.000000	0.000000	-1.000000	-1.000000	277150.000000	1775717175.203090
-24201.270000	-8748.990000	-11507.220000	-5508.540000	-4004.820000	-28979.280000	-2479.950000	4277.880000	6.780962	6.339394	6.250745	7.306351	9.528940	15.511224	4.697472	4.830231	-0.076300	2.289000	0.824040	-0.901670	-0.394530	0.196655	-1.000000	-1.000000	-1.000000	-1.000000	-1.000000	-1.000000	-1.000000	60.000000	0.000000	-1.000000	-1.000000	277151.000000	1775717175.208145
-24198.255000	-8745.030000	-11502.450000	-5503.230000	-4001.130000	-28977.345000	-2475.945000	4281.525000	8.233012	7.661879	7.248634	7.375693	8.196251	9.574502	7.534428	7.740130	-0.076300	2.289000	0.824040	-0.901670	-0.394530	0.196655	-1.000000	-1.000000	-1.000000	-1.000000	-1.000000	-1.000000	-1.000000	60.000000	0.000000	-1.000000	-1.000000	277152.000000	1775717175.208163
-24196.770000	-8744.085000	-11500.965000	-5501.970000	-3998.925000	-28974.015000	-2476.170000	4282.695000	6.337342	5.650157	5.089972	4.383016	3.687164	1.087181	7.275449	7.357952	-0.076300	2.289000	0.824040	-0.901670	-0.394530	0.196655	-1.000000	-1.000000	-1.000000	-1.000000	-1.000000	-1.000000	-1.000000	60.000000	0.000000	-1.000000	-1.000000	277153.000000	1775717175.211993
-24201.495000	-8748.540000	-11506.410000	-5507.820000	-4003.695000	-28976.040000	-2480.580000	4277.655000	2.572186	1.912856	1.362527	0.310275	-1.198603	-5.238908	4.752159	4.620869	-0.076300	2.289000	0.824040	-0.901670	-0.394530	0.196655	-1.000000	-1.000000	-1.000000	-1.000000	-1.000000	-1.000000	-1.000000	60.000000	0.000000	-1.000000	-1.000000	277154.000000	1775717175.212012
-24203.475000	-8748.180000	-11505.465000	-5506.695000	-4003.560000	-28976.625000	-2482.065000	4275.405000	-1.528060	-1.936259	-2.398971	-3.307060	-4.607847	-7.352833	1.103389	0.735308	-0.076300	2.289000	0.824040	-0.901670	-0.394530	0.196655	-1.000000	-1.000000	-1.000000	-1.000000	-1.000000	-1.000000	-1.000000	60.000000	0.000000	-1.000000	-1.000000	277155.000000	1775717175.215564
-24201.540000	-8746.110000	-11503.980000	-5506.245000	-4004.370000	-28976.670000	-2480.805000	4275.360000	-4.637069	-4.579441	-4.939854	-5.436893	-5.923367	-6.058322	-2.310961	-2.943056	-0.076300	2.289000	0.824040	-0.901670	-0.394530	0.196655	-1.000000	-1.000000	-1.000000	-1.000000	-1.000000	-1.000000	-1.000000	60.000000	0.000000	-1.000000	-1.000000	277156.000000	1775717175.215579
-24200.190000	-8746.695000	-11504.610000	-5507.595000	-4006.125000	-28975.635000	-2478.105000	4276.170000	-5.624652	-5.127449	-5.369439	-5.457028	-5.221863	-3.189691	-4.079578	-4.974477	-0.076300	2.289000	0.824040	-0.901670	-0.394530	0.196655	-1.000000	-1.000000	-1.000000	-1.000000	-1.000000	-1.000000	-1.000000	60.000000	0.000000	-1.000000	-1.000000	277157.000000	1775717175.218777
-24195.915000	-8741.295000	-11498.310000	-5500.800000	-4000.320000	-28971.495000	-2474.280000	4280.220000	-4.190361	-3.637473	-3.721957	-3.557303	-3.054749	-0.240701	-3.559285	-4.580869	-0.076300	2.289000	0.824040	-0.901670	-0.394530	0.196655	-1.000000	-1.000000	-1.000000	-1.000000	-1.000000	-1.000000	-1.000000	60.000000	0.000000	-1.000000	-1.000000	277158.000000	1775717175.218791
-24192.585000	-8740.215000	-11496.645000	-5496.795000	-3993.570000	-28966.590000	-2472.480000	4282.290000	-1.176470	-1.000221	-0.853373	-0.508636	-0.062408	2.038009	-1.361089	-2.164745	-0.076300	2.289000	0.824040	-0.901670	-0.394530	0.196655	-1.000000	-1.000000	-1.000000	-1.000000	-1.000000	-1.000000	-1.000000	60.000000	0.000000	-1.000000	-1.000000	277159.000000	1775717175.223739
-24187.500000	-8738.865000	-11496.240000	-5497.020000	-3989.970000	-28963.035000	-2471.805000	4286.565000	1.956781	1.527004	1.923505	2.520053	3.006988	3.368957	1.038639	0.935272	-0.076300	2.289000	0.824040	-0.901670	-0.394530	0.196655	-1.000000	-1.000000	-1.000000	-1.000000	-1.000000	-1.000000	-1.000000	60.000000	0.000000	-1.000000	-1.000000	277160.000000	1775717175.223755
-24186.105000	-8738.370000	-11497.140000	-5497.560000	-3989.475000	-28962.180000	-2470.455000	4292.235000	3.874513	2.824322	3.284299	4.091831	4.959410	3.521567	2.277974	3.291036	2.884140	2.487380	-0.991900	-0.901365	-0.394042	0.195373	-1.000000	-1.000000	-1.000000	-1.000000	-1.000000	-1.000000	-1.000000	60.000000	0.000000	-1.000000	-1.000000	277161.000000	1775717175.228524
-24190.200000	-8738.865000	-11495.340000	-5496.255000	-3991.500000	-28964.115000	-2472.570000	4291.965000	3.768053	2.500954	2.752992	3.472611	4.663172	2.304070	1.894139	4.060239	2.884140	2.487380	-0.991900	-0.901365	-0.394042	0.195373	-1.000000	-1.000000	-1.000000	-1.000000	-1.000000	-1.000000	-1.000000	60.000000	0.000000	-1.000000	-1.000000	277162.000000	1775717175.228540
-24187.590000	-8736.255000	-11492.865000	-5494.455000	-3990.555000	-28961.280000	-2473.965000	4293.675000	1.677739	1.057122	1.068915	1.335376	2.095274	0.021298	0.314052	3.028564	2.884140	2.487380	-0.991900	-0.901365	-0.394042	0.195373	-1.000000	-1.000000	-1.000000	-1.000000	-1.000000	-1.000000	-1.000000	60.000000	0.000000	-1.000000	-1.000000	277163.000000	1775717175.231470
-24194.655000	-8742.690000	-11498.895000	-5499.810000	-3996.720000	-28966.815000	-2482.335000	4284.945000	-1.327169	-0.631342	-0.657160	-1.001924	-1.482017	-2.390655	-1.675342	0.505729	2.884140	2.487380	-0.991900	-0.901365	-0.394042	0.195373	-1.000000	-1.000000	-1.000000	-1.000000	-1.000000	-1.000000	-1.000000	60.000000	0.000000	-1.000000	-1.000000	277164.000000	1775717175.231488
-24206.040000	-8755.605000	-11512.170000	-5511.555000	-4005.270000	-28967.580000	-2484.180000	4274.955000	-4.022300	-2.210304	-2.141986	-2.887959	-4.586934	-4.015842	-3.322586	-2.855009	2.884140	2.487380	-0.991900	-0.901365	-0.394042	0.195373	-1.000000	-1.000000	-1.000000	-1.000000	-1.000000	-1.000000	-1.000000	60.000000	0.000000	-1.000000	-1.000000	277165.000000	1775717175.239051
-24209.460000	-8757.405000	-11513.790000	-5514.885000	-4013.730000	-28978.245000	-2490.570000	4266.270000	-5.704697	-3.696028	-3.594836	-4.306371	-6.364033	-4.521678	-3.955534	-6.064040	2.884140	2.487380	-0.991900	-0.901365	-0.394042	0.195373	-1.000000	-1.000000	-1.000000	-1.000000	-1.000000	-1.000000	-1.000000	60.000000	0.000000	-1.000000	-1.000000	277166.000000	1775717175.239074
-24203.295000	-8750.430000	-11507.130000	-5508.630000	-4007.475000	-28977.750000	-2486.880000	4273.110000	-5.509837	-4.186226	-4.188255	-4.606529	-6.178293	-4.014033	-3.086130	-7.471135	2.884140	2.487380	-0.991900	-0.901365	-0.394042	0.195373	-1.000000	-1.000000	-1.000000	-1.000000	-1.000000	-1.000000	-1.000000	60.000000	0.000000	-1.000000	-1.000000	277167.000000	1775717175.239098
-24199.380000	-8746.650000	-11502.045000	-5504.130000	-4003.515000	-28976.850000	-2481.075000	4278.735000	-2.572058	-2.262856	-2.416694	-2.605662	-3.361388	-2.468911	-0.588922	-5.356726	2.884140	2.487380	-0.991900	-0.901365	-0.394042	0.195373	-1.000000	-1.000000	-1.000000	-1.000000	-1.000000	-1.000000	-1.000000	60.000000	0.000000	-1.000000	-1.000000	277168.000000	1775717175.239109
-24202.215000	-8748.540000	-11503.800000	-5505.705000	-4005.630000	-28980.765000	-2480.670000	4277.385000	2.312869	1.762179	1.563397	1.459250	1.546105	0.097600	2.924474	0.076619	2.884140	2.487380	-0.991900	-0.901365	-0.394042	0.195373	-1.000000	-1.000000	-1.000000	-1.000000	-1.000000	-1.000000	-1.000000	60.000000	0.000000	-1.000000	-1.000000	277169.000000	1775717175.243805
-24206.670000	-8753.715000	-11509.515000	-5511.285000	-4011.570000	-28986.030000	-2484.720000	4271.895000	6.407039	5.359853	5.253093	5.221554	6.038418	2.775914	5.732873	5.836254	2.884140	2.487380	-0.991900	-0.901365	-0.394042	0.195373	-1.000000	-1.000000	-1.000000	-1.000000	-1.000000	-1.000000	-1.000000	60.000000	0.000000	-1.000000	-1.000000	277170.000000	1775717175.243831
-24210.090000	-8757.000000	-11512.305000	-5514.030000	-4014.000000	-28985.490000	-2486.655000	4269.060000	7.239367	6.055430	6.046609	6.180654	7.475216	4.269139	5.992493	8.420965	-0.579880	1.938020	-1.403920	-0.902280	-0.389831	0.194030	-1.000000	-1.000000	-1.000000	-1.000000	-1.000000	-1.000000	-1.000000	60.000000	0.000000	-1.000000	-1.000000	277171.000000	1775717175.251884
-24206.805000	-8753.265000	-11508.390000	-5509.170000	-4008.240000	-28977.075000	-2486.520000	4271.085000	4.765870	3.716530	3.726641	4.093090	5.555352	4.394203	3.496273	6.844069	-0.579880	1.938020	-1.403920	-0.902280	-0.389831	0.194030	-1.000000	-1.000000	-1.000000	-1.000000	-1.000000	-1.000000	-1.000000	60.000000	0.000000	-1.000000	-1.000000	277172.000000	1775717175.251912
-24202.215000	-8748.720000	-11503.845000	-5504.445000	-4003.515000	-28970.685000	-2483.055000	4276.170000	1.191051	0.479151	0.465465	1.032439	2.378840	4.113374	-0.053977	3.059237	-0.579880	1.938020	-1.403920	-0.902280	-0.389831	0.194030	-1.000000	-1.000000	-1.000000	-1.000000	-1.000000	-1.000000	-1.000000	60.000000	0.000000	-1.000000	-1.000000	277173.000000	1775717175.251937
-24207.120000	-8753.940000	-11508.570000	-5509.080000	-4006.755000	-28972.935000	-2486.565000	4271.085000	-1.285658	-1.561388	-1.590141	-0.968151	0.029586	3.888618	-2.634114	-0.335625	-0.579880	1.938020	-1.403920	-0.902280	-0.389831	0.194030	-1.000000	-1.000000	-1.000000	-1.000000	-1.000000	-1.000000	-1.000000	60.000000	0.000000	-1.000000	-1.000000	277174.000000	1775717175.251948
-24201.945000	-8749.845000	-11504.565000	-5505.795000	-4003.380000	-28973.430000	-2484.630000	4275.315000	-2.157962	-2.073530	-2.088058	-1.647513	-1.148004	2.917126	-3.449520	-2.219318	-0.579880	1.938020	-1.403920	-0.902280	-0.389831	0.194030	-1.000000	-1.000000	-1.000000	-1.000000	-1.000000	-1.000000	-1.000000	60.000000	0.000000	-1.000000	-1.000000	277175.000000	1775717175.255889
-24201.675000	-8752.635000	-11509.110000	-5511.780000	-4009.815000	-28980.675000	-2486.115000	4274.910000	-1.960855	-1.773023	-1.792207	-1.776901	-1.839113	0.400790	-2.876891	-2.723915	-0.579880	1.938020	-1.403920	-0.902280	-0.389831	0.194030	-1.000000	-1.000000	-1.000000	-1.000000	-1.000000	-1.000000	-1.000000	60.000000	0.000000	-1.000000	-1.000000	277176.000000	1775717175.255909
-24199.245000	-8749.215000	-11507.220000	-5511.060000	-4009.455000	-28983.915000	-2484.495000	4276.800000	-1.256080	-1.244717	-1.399993	-1.938525	-2.569967	-3.213230	-1.633057	-2.291360	-0.579880	1.938020	-1.403920	-0.902280	-0.389831	0.194030	-1.000000	-1.000000	-1.000000	-1.000000	-1.000000	-1.000000	-1.000000	60.000000	0.000000	-1.000000	-1.000000	277177.000000	1775717175.265695
-24197.895000	-8744.355000	-11500.155000	-5502.915000	-4002.030000	-28978.740000	-2478.330000	4280.535000	-0.532294	-0.627447	-0.996151	-1.948264	-3.056974	-6.191435	-0.219483	-1.393393	-0.579880	1.938020	-1.403920	-0.902280	-0.389831	0.194030	-1.000000	-1.000000	-1.000000	-1.000000	-1.000000	-1.000000	-1.000000	60.000000	0.000000	-1.000000	-1.000000	277178.000000	1775717175.265724
-24201.810000	-8748.180000	-11502.045000	-5503.815000	-4001.940000	-28975.815000	-2477.205000	4279.905000	-0.213232	0.076763	-0.241920	-1.136388	-2.454923	-6.538114	1.152926	-0.433576	-0.579880	1.938020	-1.403920	-0.902280	-0.389831	0.194030	-1.000000	-1.000000	-1.000000	-1.000000	-1.000000	-1.000000	-1.000000	60.000000	0.000000	-1.000000	-1.000000	277179.000000	1775717175.265750
-24206.490000	-8754.255000	-11510.100000	-5511.420000	-4009.995000	-28979.955000	-2485.350000	4273.605000	-0.624541	0.346795	0.500646	0.214241	-0.903145	-3.891972	1.937534	0.060286	-0.579880	1.938020	-1.403920	-0.902280	-0.389831	0.194030	-1.000000	-1.000000	-1.000000	-1.000000	-1.000000	-1.000000	-1.000000	60.000000	0.000000	-1.000000	-1.000000	277180.000000	1775717175.265762
-24205.770000	-8752.590000	-11507.940000	-5508.495000	-4005.495000	-28973.880000	-2486.025000	4272.120000	-1.618697	-0.341023	0.319303	0.857180	0.315127	0.001610	1.301591	-0.402725	-0.747740	1.251320	-1.449700	-0.903501	-0.388732	0.194580	-1.000000	-1.000000	-1.000000	-1.000000	-1.000000	-1.000000	-1.000000	60.000000	0.000000	-1.000000	-1.000000	277181.000000	1775717175.267104
-24201.495000	-8748.405000	-11502.675000	-5501.745000	-3996.810000	-28963.755000	-2478.195000	4275.810000	-2.226503	-1.321090	-0.544933	0.575662	0.796060	3.305459	-0.402500	-1.399514	-0.747740	1.251320	-1.449700	-0.903501	-0.388732	0.194580	-1.000000	-1.000000	-1.000000	-1.000000	-1.000000	-1.000000	-1.000000	60.000000	0.000000	-1.000000	-1.000000	277182.000000	1775717175.267121
-24192.225000	-8739.315000	-11494.080000	-5492.880000	-3988.665000	-28958.850000	-2472.975000	4284.135000	-1.316809	-1.187287	-0.668746	0.550709	1.454507	5.347048	-1.421846	-1.569681	-0.747740	1.251320	-1.449700	-0.903501	-0.388732	0.194580	-1.000000	-1.000000	-1.000000	-1.000000	-1.000000	-1.000000	-1.000000	60.000000	0.000000	-1.000000	-1.000000	277183.000000	1775717175.285770
-24191.820000	-8741.700000	-11497.590000	-5498.370000	-3996.405000	-28974.330000	-2484.495000	4285.890000	1.129654	0.463339	0.547454	1.342592	2.467772	5.451323	-0.932867	-0.086148	-0.747740	1.251320	-1.449700	-0.903501	-0.388732	0.194580	-1.000000	-1.000000	-1.000000	-1.000000	-1.000000	-1.000000	-1.000000	60.000000	0.000000	-1.000000	-1.000000	277184.000000	1775717175.285797
-24193.800000	-8744.085000	-11499.660000	-5501.295000	-4001.985000	-28987.605000	-2497.725000	4283.910000	3.506697	2.243265	1.859514	1.793004	2.392005	2.458738	-0.429112	2.110807	-0.747740	1.251320	-1.449700	-0.903501	-0.388732	0.194580	-1.000000	-1.000000	-1.000000	-1.000000	-1.000000	-1.000000	-1.000000	60.000000	0.000000	-1.000000	-1.000000	277185.000000	1775717175.285929
-24189.975000	-8737.965000	-11492.640000	-5494.365000	-3995.415000	-28980.945000	-2488.815000	4286.745000	3.960147	2.525644	1.840594	0.809446	0.353762	-2.962448	-1.269397	3.189060	-0.747740	1.251320	-1.449700	-0.903501	-0.388732	0.194580	-1.000000	-1.000000	-1.000000	-1.000000	-1.000000	-1.000000	-1.000000	60.000000	0.000000	-1.000000	-1.000000	277186.000000	1775717175.285942
-24195.105000	-8742.465000	-11496.645000	-5498.325000	-3997.260000	-28971.090000	-2476.755000	4283.955000	2.170964	1.239288	0.619152	-0.958307	-2.244952	-7.025687	-1.994910	2.331610	-0.747740	1.251320	-1.449700	-0.903501	-0.388732	0.194580	-1.000000	-1.000000	-1.000000	-1.000000	-1.000000	-1.000000	-1.000000	60.000000	0.000000	-1.000000	-1.000000	277187.000000	1775717175.285961
-24204.870000	-8753.895000	-11507.715000	-5508.900000	-4005.810000	-28974.825000	-2475.630000	4279.140000	-0.937942	-0.871808	-1.094816	-2.479668	-3.644513	-6.357226	-0.400130	0.077081	-0.747740	1.251320	-1.449700	-0.903501	-0.388732	0.194580	-1.000000	-1.000000	-1.000000	-1.000000	-1.000000	-1.000000	-1.000000	60.000000	0.000000	-1.000000	-1.000000	277188.000000	1775717175.285971
-24202.170000	-8752.095000	-11506.725000	-5507.595000	-4003.605000	-28972.035000	-2475.945000	4282.020000	-4.064580	-3.176203	-2.957072	-3.530022	-3.601110	-1.777545	2.850034	-2.390723	-0.747740	1.251320	-1.449700	-0.903501	-0.388732	0.194580	-1.000000	-1.000000	-1.000000	-1.000000	-1.000000	-1.000000	-1.000000	60.000000	0.000000	-1.000000	-1.000000	277189.000000	1775717175.285989
-24193.260000	-8743.230000	-11497.995000	-5498.010000	-3994.470000	-28961.280000	-2472.165000	4286.745000	-5.372151	-4.335553	-3.934648	-3.506609	-2.285262	3.332914	5.003855	-3.600573	-0.747740	1.251320	-1.449700	-0.903501	-0.388732	0.194580	-1.000000	-1.000000	-1.000000	-1.000000	-1.000000	-1.000000	-1.000000	60.000000	0.000000	-1.000000	-1.000000	277190.000000	1775717175.285999
-24181.830000	-8729.865000	-11483.775000	-5484.510000	-3982.050000	-28952.370000	-2467.125000	4292.460000	-3.323745	-2.662475	-2.393751	-1.245616	0.538345	6.654931	4.547012	-2.581745	-0.778260	1.327620	-0.915600	-0.902158	-0.389708	0.198364	-1.000000	-1.000000	-1.000000	-1.000000	-1.000000	-1.000000	-1.000000	60.000000	0.000000	-1.000000	-1.000000	277191.000000	1775717175.293253
-24186.690000	-8734.905000	-11486.115000	-5488.290000	-3986.235000	-28958.355000	-2467.215000	4291.020000	1.282114	1.544201	1.627598	2.890451	4.148722	7.295929	2.115081	0.079786	-0.778260	1.327620	-0.915600	-0.902158	-0.389708	0.198364	-1.000000	-1.000000	-1.000000	-1.000000	-1.000000	-1.000000	-1.000000	60.000000	0.000000	-1.000000	-1.000000	277192.000000	1775717175.293283
-24186.150000	-8735.670000	-11487.105000	-5490.090000	-3988.080000	-28962.720000	-2465.190000	4292.145000	5.205439	5.274281	5.390418	6.124381	6.183593	4.737128	-0.892718	2.497981	-0.778260	1.327620	-0.915600	-0.902158	-0.389708	0.198364	-1.000000	-1.000000	-1.000000	-1.000000	-1.000000	-1.000000	-1.000000	60.000000	0.000000	-1.000000	-1.000000	277193.000000	1775717175.293312
-24189.840000	-8741.025000	-11494.440000	-5496.165000	-3994.830000	-28971.720000	-2469.915000	4288.185000	5.644262	5.543676	5.789093	5.710992	4.665365	-0.537012	-3.409860	3.054451	-0.778260	1.327620	-0.915600	-0.902158	-0.389708	0.198364	-1.000000	-1.000000	-1.000000	-1.000000	-1.000000	-1.000000	-1.000000	60.000000	0.000000	-1.000000	-1.000000	277194.000000	1775717175.293324
-24193.935000	-8744.535000	-11498.715000	-5500.170000	-3997.935000	-28974.870000	-2474.640000	4283.775000	2.557489	2.161142	2.252628	1.642680	0.140193	-6.318004	-4.978755	1.494400	-0.778260	1.327620	-0.915600	-0.902158	-0.389708	0.198364	-1.000000	-1.000000	-1.000000	-1.000000	-1.000000	-1.000000	-1.000000	60.000000	0.000000	-1.000000	-1.000000	277195.000000	1775717175.299025
-24193.620000	-8744.220000	-11498.580000	-5499.855000	-3996.315000	-28969.605000	-2474.730000	4283.730000	-1.860113	-2.493805	-2.899273	-3.476153	-4.652888	-9.550829	-5.436001	-1.124570	-0.778260	1.327620	-0.915600	-0.902158	-0.389708	0.198364	-1.000000	-1.000000	-1.000000	-1.000000	-1.000000	-1.000000	-1.000000	60.000000	0.000000	-1.000000	-1.000000	277196.000000	1775717175.299053
-24193.125000	-8743.725000	-11496.870000	-5497.110000	-3991.590000	-28961.685000	-2471.445000	4284.945000	-4.916791	-5.472888	-6.308924	-6.460020	-6.739746	-8.090548	-4.422483	-3.064157	-0.778260	1.327620	-0.915600	-0.902158	-0.389708	0.198364	-1.000000	-1.000000	-1.000000	-1.000000	-1.000000	-1.000000	-1.000000	60.000000	0.000000	-1.000000	-1.000000	277197.000000	1775717175.302613
-24190.965000	-8739.045000	-11490.840000	-5491.305000	-3987.270000	-28957.185000	-2468.430000	4287.105000	-5.040008	-5.171324	-5.926012	-5.617339	-4.918486	-2.372362	-1.740818	-3.027881	-0.778260	1.327620	-0.915600	-0.902158	-0.389708	0.198364	-1.000000	-1.000000	-1.000000	-1.000000	-1.000000	-1.000000	-1.000000	60.000000	0.000000	-1.000000	-1.000000	277198.000000	1775717175.302632
-24198.390000	-8744.085000	-11494.845000	-5497.020000	-3996.720000	-28968.030000	-2473.605000	4280.940000	-2.698704	-2.182602	-2.294703	-1.812764	-0.709338	4.241501	1.732552	-1.223898	-0.778260	1.327620	-0.915600	-0.902158	-0.389708	0.198364	-1.000000	-1.000000	-1.000000	-1.000000	-1.000000	-1.000000	-1.000000	60.000000	0.000000	-1.000000	-1.000000	277199.000000	1775717175.304282
-24194.430000	-8738.955000	-11489.580000	-5491.260000	-3992.355000	-28975.005000	-2478.915000	4280.085000	0.244194	1.391727	2.082400	2.313428	2.869304	7.510666	4.121091	0.838176	-0.778260	1.327620	-0.915600	-0.902158	-0.389708	0.198364	-1.000000	-1.000000	-1.000000	-1.000000	-1.000000	-1.000000	-1.000000	60.000000	0.000000	-1.000000	-1.000000	277200.000000	1775717175.304298
-24179.265000	-8724.600000	-11474.415000	-5476.140000	-3979.395000	-28980.000000	-2479.365000	4293.945000	2.606711	3.971908	5.108217	4.870690	4.287862	5.725075	4.142920	2.142386	-0.686700	-0.335720	0.183120	-0.902708	-0.391173	0.200439	-1.000000	-1.000000	-1.000000	-1.000000	-1.000000	-1.000000	-1.000000	60.000000	0.000000	-1.000000	-1.000000	277201.000000	1775717175.307787
-24174.135000	-8725.725000	-11476.530000	-5478.570000	-3980.205000	-28975.455000	-2478.060000	4300.830000	4.568752	5.318407	6.290486	5.738402	4.305256	1.096896	2.409701	3.164234	-0.686700	-0.335720	0.183120	-0.902708	-0.391173	0.200439	-1.000000	-1.000000	-1.000000	-1.000000	-1.000000	-1.000000	-1.000000	60.000000	0.000000	-1.000000	-1.000000	277202.000000	1775717175.307804
-24176.430000	-8729.775000	-11482.830000	-5482.440000	-3978.270000	-28947.240000	-2450.430000	4304.655000	5.787654	5.037368	5.302005	4.806062	3.605201	-2.012819	1.101017	4.248905	-0.686700	-0.335720	0.183120	-0.902708	-0.391173	0.200439	-1.000000	-1.000000	-1.000000	-1.000000	-1.000000	-1.000000	-1.000000	60.000000	0.000000	-1.000000	-1.000000	277203.000000	1775717175.313910
-24181.965000	-8739.855000	-11494.575000	-5493.780000	-3983.805000	-28942.785000	-2446.515000	4301.370000	4.762832	2.299329	1.584863	1.514828	1.851625	-0.623389	2.116231	4.325037	-0.686700	-0.335720	0.183120	-0.902708	-0.391173	0.200439	-1.000000	-1.000000	-1.000000	-1.000000	-1.000000	-1.000000	-1.000000	60.000000	0.000000	-1.000000	-1.000000	277204.000000	1775717175.313937
-24192.045000	-8747.190000	-11500.695000	-5500.485000	-3990.105000	-28953.540000	-2466.180000	4285.170000	0.773027	-2.509135	-3.996861	-3.531086	-1.105216	3.458444	4.115771	1.929543	-0.686700	-0.335720	0.183120	-0.902708	-0.391173	0.200439	-1.000000	-1.000000	-1.000000	-1.000000	-1.000000	-1.000000	-1.000000	60.000000	0.000000	-1.000000	-1.000000	277205.000000	1775717175.317327
-24190.830000	-8745.480000	-11499.480000	-5502.105000	-4001.130000	-28966.905000	-2471.580000	4286.880000	-4.645340	-7.079026	-8.622285	-7.975603	-4.569969	4.916368	3.126673	-2.887656	-0.686700	-0.335720	0.183120	-0.902708	-0.391173	0.200439	-1.000000	-1.000000	-1.000000	-1.000000	-1.000000	-1.000000	-1.000000	60.000000	0.000000	-1.000000	-1.000000	277206.000000	1775717175.317348
-24193.530000	-8747.055000	-11499.525000	-5500.845000	-3999.330000	-28963.710000	-2471.670000	4285.395000	-8.406045	-8.545618	-9.314170	-9.071630	-7.074296	1.056637	-1.966931	-7.550668	-0.686700	-0.335720	0.183120	-0.902708	-0.391173	0.200439	-1.000000	-1.000000	-1.000000	-1.000000	-1.000000	-1.000000	-1.000000	60.000000	0.000000	-1.000000	-1.000000	277207.000000	1775717175.320733
-24195.645000	-8749.710000	-11500.965000	-5501.745000	-3998.115000	-28962.540000	-2470.815000	4284.630000	-8.291693	-5.905809	-5.457636	-5.845153	-6.878770	-5.122686	-7.486409	-8.856856	-0.686700	-0.335720	0.183120	-0.902708	-0.391173	0.200439	-1.000000	-1.000000	-1.000000	-1.000000	-1.000000	-1.000000	-1.000000	60.000000	0.000000	-1.000000	-1.000000	277208.000000	1775717175.320759
-24196.320000	-8750.160000	-11501.730000	-5504.040000	-4002.300000	-28972.395000	-2475.540000	4282.470000	-4.624347	-0.826741	0.674857	-0.024754	-3.464300	-8.818563	-9.332049	-6.002173	-0.686700	-0.335720	0.183120	-0.902708	-0.391173	0.200439	-1.000000	-1.000000	-1.000000	-1.000000	-1.000000	-1.000000	-1.000000	60.000000	0.000000	-1.000000	-1.000000	277209.000000	1775717175.323655
-24187.635000	-8742.375000	-11494.620000	-5496.165000	-3994.335000	-28968.390000	-2471.040000	4289.310000	0.644154	4.156498	6.006979	5.442081	1.631182	-8.119095	-6.625921	-0.730241	-0.686700	-0.335720	0.183120	-0.902708	-0.391173	0.200439	-1.000000	-1.000000	-1.000000	-1.000000	-1.000000	-1.000000	-1.000000	60.000000	0.000000	-1.000000	-1.000000	277210.000000	1775717175.323677
-24182.730000	-8736.435000	-11489.535000	-5490.945000	-3990.240000	-28968.570000	-2470.230000	4291.335000	5.579910	7.493781	8.801226	8.627135	6.209273	-4.022487	-1.204518	4.558213	-2.273740	0.198380	1.037680	-0.901670	-0.393126	0.199645	-1.000000	-1.000000	-1.000000	-1.000000	-1.000000	-1.000000	-1.000000	60.000000	0.000000	-1.000000	-1.000000	277211.000000	1775717175.327837
-24180.885000	-8732.205000	-11483.550000	-5484.555000	-3984.345000	-28963.215000	-2466.540000	4293.000000	8.612126	8.610038	8.838809	9.109449	8.746478	1.436801	4.269660	7.898490	-2.273740	0.198380	1.037680	-0.901670	-0.393126	0.199645	-1.000000	-1.000000	-1.000000	-1.000000	-1.000000	-1.000000	-1.000000	60.000000	0.000000	-1.000000	-1.000000	277212.000000	1775717175.327861
-24187.185000	-8737.605000	-11486.295000	-5487.345000	-3986.775000	-28960.470000	-2465.190000	4289.805000	8.430906	7.147916	6.486266	7.076891	8.411406	6.113281	7.598504	8.084869	-2.273740	0.198380	1.037680	-0.901670	-0.393126	0.199645	-1.000000	-1.000000	-1.000000	-1.000000	-1.000000	-1.000000	-1.000000	60.000000	0.000000	-1.000000	-1.000000	277213.000000	1775717175.336739
-24195.105000	-8746.245000	-11495.385000	-5495.715000	-3993.120000	-28961.865000	-2470.095000	4283.235000	4.637564	2.995060	2.138847	2.807413	5.033149	8.312759	7.699857	5.048816	-2.273740	0.198380	1.037680	-0.901670	-0.393126	0.199645	-1.000000	-1.000000	-1.000000	-1.000000	-1.000000	-1.000000	-1.000000	60.000000	0.000000	-1.000000	-1.000000	277214.000000	1775717175.336765
-24201.045000	-8754.525000	-11504.880000	-5504.940000	-4001.535000	-28967.310000	-2477.295000	4277.160000	-1.431302	-2.930270	-3.476501	-2.957432	-0.574169	7.188771	4.661849	0.008172	-2.273740	0.198380	1.037680	-0.901670	-0.393126	0.199645	-1.000000	-1.000000	-1.000000	-1.000000	-1.000000	-1.000000	-1.000000	60.000000	0.000000	-1.000000	-1.000000	277215.000000	1775717175.340204
-24195.600000	-8751.600000	-11501.955000	-5503.275000	-4000.410000	-28968.615000	-2474.640000	4280.265000	-6.789483	-8.198395	-8.496542	-8.278982	-6.292105	3.214315	-0.111848	-4.748820	-2.273740	0.198380	1.037680	-0.901670	-0.393126	0.199645	-1.000000	-1.000000	-1.000000	-1.000000	-1.000000	-1.000000	-1.000000	60.000000	0.000000	-1.000000	-1.000000	277216.000000	1775717175.340223
-24187.905000	-8745.615000	-11499.435000	-5501.790000	-3999.645000	-28971.675000	-2469.150000	4287.465000	-8.304858	-9.827805	-10.239145	-10.437477	-9.321436	-1.689751	-4.006525	-6.676293	-2.273740	0.198380	1.037680	-0.901670	-0.393126	0.199645	-1.000000	-1.000000	-1.000000	-1.000000	-1.000000	-1.000000	-1.000000	60.000000	0.000000	-1.000000	-1.000000	277217.000000	1775717175.340246
-24193.980000	-8750.970000	-11505.330000	-5507.910000	-4006.395000	-28983.420000	-2474.190000	4282.785000	-5.217924	-6.719871	-7.508622	-8.146664	-8.212950	-5.400140	-4.975682	-4.804896	-2.273740	0.198380	1.037680	-0.901670	-0.393126	0.199645	-1.000000	-1.000000	-1.000000	-1.000000	-1.000000	-1.000000	-1.000000	60.000000	0.000000	-1.000000	-1.000000	277218.000000	1775717175.340257
-24194.655000	-8748.405000	-11498.805000	-5501.565000	-4000.950000	-28985.715000	-2478.330000	4281.705000	-0.114094	-0.966612	-1.954985	-2.835204	-4.022752	-6.915373	-3.432354	-0.890304	-2.273740	0.198380	1.037680	-0.901670	-0.393126	0.199645	-1.000000	-1.000000	-1.000000	-1.000000	-1.000000	-1.000000	-1.000000	60.000000	0.000000	-1.000000	-1.000000	277219.000000	1775717175.343747
-24190.830000	-8741.340000	-11488.815000	-5489.865000	-3986.505000	-28969.155000	-2477.970000	4282.875000	3.662503	4.240334	3.797047	3.082977	1.297821	-5.735429	-1.299458	2.305170	-2.273740	0.198380	1.037680	-0.901670	-0.393126	0.199645	-1.000000	-1.000000	-1.000000	-1.000000	-1.000000	-1.000000	-1.000000	60.000000	0.000000	-1.000000	-1.000000	277220.000000	1775717175.343768
-24187.230000	-8737.515000	-11485.125000	-5485.545000	-3981.690000	-28956.150000	-2471.940000	4286.970000	4.891109	7.143561	7.961489	7.837217	6.292940	-1.339437	0.356519	3.524250	0.091560	1.129240	0.122080	-0.898679	-0.393920	0.197448	-1.000000	-1.000000	-1.000000	-1.000000	-1.000000	-1.000000	-1.000000	60.000000	0.000000	-1.000000	-1.000000	277221.000000	1775717175.350602
-24184.755000	-8739.990000	-11489.580000	-5490.090000	-3987.945000	-28958.445000	-2467.260000	4291.110000	4.228935	7.304424	9.196731	9.805759	9.147683	4.930884	1.745812	3.250253	0.091560	1.129240	0.122080	-0.898679	-0.393920	0.197448	-1.000000	-1.000000	-1.000000	-1.000000	-1.000000	-1.000000	-1.000000	60.000000	0.000000	-1.000000	-1.000000	277222.000000	1775717175.350630
-24189.390000	-8747.235000	-11497.275000	-5497.470000	-3995.055000	-28960.560000	-2465.415000	4290.615000	2.518793	4.713141	6.564845	7.611800	7.821265	9.180646	3.015877	2.335362	0.091560	1.129240	0.122080	-0.898679	-0.393920	0.197448	-1.000000	-1.000000	-1.000000	-1.000000	-1.000000	-1.000000	-1.000000	60.000000	0.000000	-1.000000	-1.000000	277223.000000	1775717175.352181
-24191.415000	-8746.290000	-11495.655000	-5495.895000	-3992.355000	-28957.185000	-2467.845000	4286.745000	0.149040	0.169855	0.876670	1.822920	2.423526	8.342553	3.486280	1.007927	0.091560	1.129240	0.122080	-0.898679	-0.393920	0.197448	-1.000000	-1.000000	-1.000000	-1.000000	-1.000000	-1.000000	-1.000000	60.000000	0.000000	-1.000000	-1.000000	277224.000000	1775717175.352206
-24196.320000	-8751.420000	-11501.595000	-5502.690000	-3998.835000	-28966.950000	-2472.570000	4282.920000	-2.426063	-4.323319	-5.020836	-4.619930	-4.021136	3.013459	2.309506	-0.870926	0.091560	1.129240	0.122080	-0.898679	-0.393920	0.197448	-1.000000	-1.000000	-1.000000	-1.000000	-1.000000	-1.000000	-1.000000	60.000000	0.000000	-1.000000	-1.000000	277225.000000	1775717175.355822
-24195.870000	-8751.420000	-11502.180000	-5503.815000	-4001.490000	-28977.795000	-2475.945000	4282.785000	-4.304976	-6.694223	-8.254182	-8.565645	-8.141976	-3.933945	-0.440310	-2.912520	0.091560	1.129240	0.122080	-0.898679	-0.393920	0.197448	-1.000000	-1.000000	-1.000000	-1.000000	-1.000000	-1.000000	-1.000000	60.000000	0.000000	-1.000000	-1.000000	277226.000000	1775717175.355846
-24195.420000	-8749.530000	-11500.245000	-5501.295000	-3999.780000	-28982.520000	-2477.160000	4284.180000	-4.527429	-6.075420	-7.698681	-8.562047	-8.444015	-9.535530	-3.449210	-4.032988	0.091560	1.129240	0.122080	-0.898679	-0.393920	0.197448	-1.000000	-1.000000	-1.000000	-1.000000	-1.000000	-1.000000	-1.000000	60.000000	0.000000	-1.000000	-1.000000	277227.000000	1775717175.362368
-24197.625000	-8750.025000	-11500.605000	-5501.745000	-4002.255000	-28988.460000	-2488.905000	4279.995000	-2.867596	-3.004668	-4.050045	-5.038493	-5.343586	-11.473880	-5.192113	-3.459547	0.091560	1.129240	0.122080	-0.898679	-0.393920	0.197448	-1.000000	-1.000000	-1.000000	-1.000000	-1.000000	-1.000000	-1.000000	60.000000	0.000000	-1.000000	-1.000000	277228.000000	1775717175.362395
-24192.675000	-8744.715000	-11493.180000	-5494.365000	-3994.650000	-28974.690000	-2483.640000	4283.235000	-0.121477	0.985327	0.850515	0.189597	-0.494621	-8.634980	-5.014614	-1.540277	0.091560	1.129240	0.122080	-0.898679	-0.393920	0.197448	-1.000000	-1.000000	-1.000000	-1.000000	-1.000000	-1.000000	-1.000000	60.000000	0.000000	-1.000000	-1.000000	277229.000000	1775717175.363940
-24188.355000	-8744.355000	-11491.290000	-5492.970000	-3991.185000	-28954.485000	-2473.470000	4280.715000	2.627823	4.219299	5.027931	4.902879	4.186581	-1.384013	-2.693854	0.734364	0.091560	1.129240	0.122080	-0.898679	-0.393920	0.197448	-1.000000	-1.000000	-1.000000	-1.000000	-1.000000	-1.000000	-1.000000	60.000000	0.000000	-1.000000	-1.000000	277230.000000	1775717175.363956
-24194.745000	-8750.115000	-11497.140000	-5497.560000	-3994.740000	-28955.790000	-2464.470000	4280.625000	4.387392	5.428046	6.901816	7.238300	7.051721	7.793560	1.657513	2.421411	-0.793520	1.953280	-0.381500	-0.898374	-0.393187	0.198486	-1.000000	-1.000000	-1.000000	-1.000000	-1.000000	-1.000000	-1.000000	60.000000	0.000000	-1.000000	-1.000000	277231.000000	1775717175.371014
-24198.885000	-8753.670000	-11502.315000	-5502.195000	-3998.295000	-28962.270000	-2465.820000	4282.560000	4.134112	4.019845	5.529416	6.145683	6.849293	13.971837	6.370273	3.002078	-0.793520	1.953280	-0.381500	-0.898374	-0.393187	0.198486	-1.000000	-1.000000	-1.000000	-1.000000	-1.000000	-1.000000	-1.000000	60.000000	0.000000	-1.000000	-1.000000	277232.000000	1775717175.371038
-24193.620000	-8750.430000	-11499.570000	-5500.755000	-3997.035000	-28963.440000	-2465.595000	4287.330000	1.845851	0.816211	1.594049	2.285082	3.678281	13.003643	8.546668	2.696546	-0.793520	1.953280	-0.381500	-0.898374	-0.393187	0.198486	-1.000000	-1.000000	-1.000000	-1.000000	-1.000000	-1.000000	-1.000000	60.000000	0.000000	-1.000000	-1.000000	277233.000000	1775717175.372550
-24192.135000	-8747.865000	-11496.330000	-5497.695000	-3995.190000	-28967.085000	-2465.640000	4288.005000	-0.811222	-2.058561	-2.413426	-1.923396	-0.537852	5.495563	6.554003	2.082661	-0.793520	1.953280	-0.381500	-0.898374	-0.393187	0.198486	-1.000000	-1.000000	-1.000000	-1.000000	-1.000000	-1.000000	-1.000000	60.000000	0.000000	-1.000000	-1.000000	277234.000000	1775717175.372570
-24191.910000	-8747.055000	-11496.015000	-5497.515000	-3996.090000	-28972.035000	-2467.305000	4287.600000	-2.114227	-2.925028	-4.142838	-4.088092	-3.494017	-3.964005	1.490149	1.330956	-0.793520	1.953280	-0.381500	-0.898374	-0.393187	0.198486	-1.000000	-1.000000	-1.000000	-1.000000	-1.000000	-1.000000	-1.000000	60.000000	0.000000	-1.000000	-1.000000	277235.000000	1775717175.375955
-24191.010000	-8746.470000	-11497.275000	-5499.180000	-3998.745000	-28976.805000	-2469.555000	4287.735000	-1.863410	-1.873423	-3.302121	-3.680461	-4.267826	-10.668634	-3.956455	0.239820	-0.793520	1.953280	-0.381500	-0.898374	-0.393187	0.198486	-1.000000	-1.000000	-1.000000	-1.000000	-1.000000	-1.000000	-1.000000	60.000000	0.000000	-1.000000	-1.000000	277236.000000	1775717175.376016
-24186.285000	-8741.745000	-11493.270000	-5496.030000	-3994.875000	-28972.395000	-2466.450000	4291.110000	-0.834369	-0.120847	-1.240009	-1.839115	-3.347266	-12.152191	-7.324236	-1.062644	-0.793520	1.953280	-0.381500	-0.898374	-0.393187	0.198486	-1.000000	-1.000000	-1.000000	-1.000000	-1.000000	-1.000000	-1.000000	60.000000	0.000000	-1.000000	-1.000000	277237.000000	1775717175.394374
-24191.505000	-8746.110000	-11497.005000	-5499.090000	-3997.530000	-28971.720000	-2470.860000	4286.070000	0.158243	1.178264	0.610664	0.056456	-1.596280	-8.458915	-7.473441	-2.083134	-0.793520	1.953280	-0.381500	-0.898374	-0.393187	0.198486	-1.000000	-1.000000	-1.000000	-1.000000	-1.000000	-1.000000	-1.000000	60.000000	0.000000	-1.000000	-1.000000	277238.000000	1775717175.394401
-24188.670000	-8742.915000	-11492.460000	-5493.780000	-3991.365000	-28964.205000	-2467.665000	4289.265000	0.474008	1.368166	1.479701	1.216930	0.249924	-1.689570	-4.942736	-2.538425	-0.793520	1.953280	-0.381500	-0.898374	-0.393187	0.198486	-1.000000	-1.000000	-1.000000	-1.000000	-1.000000	-1.000000	-1.000000	60.000000	0.000000	-1.000000	-1.000000	277239.000000	1775717175.394428
-24186.690000	-8742.240000	-11492.415000	-5493.015000	-3989.970000	-28960.605000	-2468.205000	4289.220000	0.084409	0.577495	1.397277	1.596539	1.727923	5.079741	-1.243950	-2.326150	-0.793520	1.953280	-0.381500	-0.898374	-0.393187	0.198486	-1.000000	-1.000000	-1.000000	-1.000000	-1.000000	-1.000000	-1.000000	60.000000	0.000000	-1.000000	-1.000000	277240.000000	1775717175.394440
-24187.590000	-8744.355000	-11496.330000	-5496.705000	-3994.380000	-28965.420000	-2469.105000	4287.555000	-0.407737	-0.478969	0.771326	1.407682	2.448368	9.035541	2.084247	-1.466030	0.564620	1.526000	-0.869820	-0.899595	-0.391051	0.201599	-1.000000	-1.000000	-1.000000	-1.000000	-1.000000	-1.000000	-1.000000	60.000000	0.000000	-1.000000	-1.000000	277241.000000	1775717175.394453
-24183.540000	-8739.675000	-11491.830000	-5492.970000	-3990.510000	-28964.340000	-2463.615000	4291.335000	-0.547416	-1.195418	-0.098846	0.694155	2.012667	8.635168	4.033309	-0.292741	0.564620	1.526000	-0.869820	-0.899595	-0.391051	0.201599	-1.000000	-1.000000	-1.000000	-1.000000	-1.000000	-1.000000	-1.000000	60.000000	0.000000	-1.000000	-1.000000	277242.000000	1775717175.394464
-24188.175000	-8738.505000	-11486.880000	-5486.940000	-3984.480000	-28963.215000	-2461.815000	4287.915000	-0.363062	-1.209703	-0.681928	-0.127245	0.805491	4.614359	4.500595	0.773672	0.564620	1.526000	-0.869820	-0.899595	-0.391051	0.201599	-1.000000	-1.000000	-1.000000	-1.000000	-1.000000	-1.000000	-1.000000	60.000000	0.000000	-1.000000	-1.000000	277243.000000	1775717175.394477
-24194.745000	-8741.070000	-11486.475000	-5485.770000	-3982.905000	-28964.205000	-2461.995000	4284.720000	-0.347355	-0.594201	-0.440221	-0.340568	-0.109996	-0.460826	3.851089	1.291771	0.564620	1.526000	-0.869820	-0.899595	-0.391051	0.201599	-1.000000	-1.000000	-1.000000	-1.000000	-1.000000	-1.000000	-1.000000	60.000000	0.000000	-1.000000	-1.000000	277244.000000	1775717175.394488
-24184.845000	-8732.295000	-11479.545000	-5480.190000	-3980.430000	-28962.900000	-2457.720000	4295.070000	-0.746947	0.160147	0.413718	0.117910	-0.305276	-4.151650	2.390236	1.167285	0.564620	1.526000	-0.869820	-0.899595	-0.391051	0.201599	-1.000000	-1.000000	-1.000000	-1.000000	-1.000000	-1.000000	-1.000000	60.000000	0.000000	-1.000000	-1.000000	277245.000000	1775717175.401276
-24179.400000	-8726.715000	-11474.235000	-5477.130000	-3981.825000	-28964.385000	-2453.535000	4299.660000	-0.680137	0.921034	1.285433	0.696666	-0.273519	-5.388783	0.645549	1.157165	0.564620	1.526000	-0.869820	-0.899595	-0.391051	0.201599	-1.000000	-1.000000	-1.000000	-1.000000	-1.000000	-1.000000	-1.000000	60.000000	0.000000	-1.000000	-1.000000	277246.000000	1775717175.401305
-24176.295000	-8730.765000	-11479.050000	-5479.020000	-3975.390000	-28951.740000	-2455.740000	4302.720000	0.656683	1.623826	1.596867	0.792226	-0.497978	-4.245870	-0.789596	1.795789	0.564620	1.526000	-0.869820	-0.899595	-0.391051	0.201599	-1.000000	-1.000000	-1.000000	-1.000000	-1.000000	-1.000000	-1.000000	60.000000	0.000000	-1.000000	-1.000000	277247.000000	1775717175.401332
-24178.590000	-8734.365000	-11483.505000	-5483.880000	-3979.890000	-28951.605000	-2461.995000	4299.030000	2.391800	1.473804	0.653398	-0.083426	-0.917087	-1.393000	-1.950373	2.290998	0.564620	1.526000	-0.869820	-0.899595	-0.391051	0.201599	-1.000000	-1.000000	-1.000000	-1.000000	-1.000000	-1.000000	-1.000000	60.000000	0.000000	-1.000000	-1.000000	277248.000000	1775717175.401344
-24175.305000	-8728.245000	-11474.955000	-5475.645000	-3972.330000	-28947.330000	-2471.040000	4292.910000	2.900307	0.038073	-1.418340	-1.699620	-1.240592	1.771946	-3.297328	1.353848	0.564620	1.526000	-0.869820	-0.899595	-0.391051	0.201599	-1.000000	-1.000000	-1.000000	-1.000000	-1.000000	-1.000000	-1.000000	60.000000	0.000000	-1.000000	-1.000000	277249.000000	1775717175.406102
-24165.090000	-8718.705000	-11466.540000	-5468.400000	-3965.445000	-28942.920000	-2460.330000	4303.350000	1.859628	-1.474439	-2.905410	-2.654368	-1.044835	3.597031	-4.467303	-1.009117	0.564620	1.526000	-0.869820	-0.899595	-0.391051	0.201599	-1.000000	-1.000000	-1.000000	-1.000000	-1.000000	-1.000000	-1.000000	60.000000	0.000000	-1.000000	-1.000000	277250.000000	1775717175.406129
-24177.330000	-8731.530000	-11481.165000	-5484.195000	-3981.780000	-28960.650000	-2462.220000	4298.985000	0.170132	-1.761726	-2.557014	-2.085217	-0.376560	3.063877	-4.016576	-3.096131	-1.281840	2.502640	-1.083460	-0.898862	-0.388671	0.204101	-1.000000	-1.000000	-1.000000	-1.000000	-1.000000	-1.000000	-1.000000	60.000000	0.000000	-1.000000	-1.000000	277251.000000	1775717175.407628
-24184.980000	-8738.685000	-11487.195000	-5490.315000	-3989.070000	-28971.360000	-2467.665000	4292.595000	-1.872303	-1.528791	-1.579963	-1.273618	-0.506653	-0.147987	-1.510310	-3.651545	-1.281840	2.502640	-1.083460	-0.898862	-0.388671	0.204101	-1.000000	-1.000000	-1.000000	-1.000000	-1.000000	-1.000000	-1.000000	60.000000	0.000000	-1.000000	-1.000000	277252.000000	1775717175.407654
-24191.730000	-8745.390000	-11494.260000	-5497.830000	-3997.440000	-28977.705000	-2470.500000	4287.240000	-4.336985	-2.128245	-1.653531	-1.650609	-2.214198	-4.848846	1.391607	-3.180580	-1.281840	2.502640	-1.083460	-0.898862	-0.388671	0.204101	-1.000000	-1.000000	-1.000000	-1.000000	-1.000000	-1.000000	-1.000000	60.000000	0.000000	-1.000000	-1.000000	277253.000000	1775717175.412025
-24202.530000	-8760.870000	-11512.710000	-5515.470000	-4013.505000	-28985.580000	-2477.070000	4279.185000	-6.299925	-3.435592	-2.728253	-2.859103	-4.370308	-8.123602	2.852979	-2.576272	-1.281840	2.502640	-1.083460	-0.898862	-0.388671	0.204101	-1.000000	-1.000000	-1.000000	-1.000000	-1.000000	-1.000000	-1.000000	60.000000	0.000000	-1.000000	-1.000000	277254.000000	1775717175.412052
-24197.400000	-8757.720000	-11510.055000	-5511.915000	-4007.430000	-28976.715000	-2473.155000	4283.325000	-6.281740	-4.175826	-3.596142	-3.554949	-5.086806	-7.394106	2.599230	-1.851723	-1.281840	2.502640	-1.083460	-0.898862	-0.388671	0.204101	-1.000000	-1.000000	-1.000000	-1.000000	-1.000000	-1.000000	-1.000000	60.000000	0.000000	-1.000000	-1.000000	277255.000000	1775717175.415957
-24196.320000	-8755.380000	-11505.555000	-5507.685000	-4002.705000	-28972.440000	-2476.845000	4281.885000	-3.330766	-2.826854	-2.575693	-2.167486	-2.787351	-2.199846	1.680470	-0.350213	-1.281840	2.502640	-1.083460	-0.898862	-0.388671	0.204101	-1.000000	-1.000000	-1.000000	-1.000000	-1.000000	-1.000000	-1.000000	60.000000	0.000000	-1.000000	-1.000000	277256.000000	1775717175.415985
-24195.645000	-8754.300000	-11504.025000	-5506.380000	-4001.715000	-28970.280000	-2477.565000	4282.605000	1.911141	1.110132	1.256069	1.924633	2.507486	5.257722	1.074267	2.062512	-1.281840	2.502640	-1.083460	-0.898862	-0.388671	0.204101	-1.000000	-1.000000	-1.000000	-1.000000	-1.000000	-1.000000	-1.000000	60.000000	0.000000	-1.000000	-1.000000	277257.000000	1775717175.422255
-24195.375000	-8755.785000	-11506.140000	-5508.945000	-4004.145000	-28973.070000	-2476.665000	4283.595000	7.003112	5.922446	6.324412	6.897490	8.155661	10.985911	0.921334	4.421266	-1.281840	2.502640	-1.083460	-0.898862	-0.388671	0.204101	-1.000000	-1.000000	-1.000000	-1.000000	-1.000000	-1.000000	-1.000000	60.000000	0.000000	-1.000000	-1.000000	277258.000000	1775717175.422282
-24196.005000	-8754.480000	-11505.555000	-5508.540000	-4004.820000	-28979.550000	-2476.260000	4283.730000	9.392091	8.860214	9.521802	9.665811	10.721933	11.739068	0.999537	5.532257	-1.281840	2.502640	-1.083460	-0.898862	-0.388671	0.204101	-1.000000	-1.000000	-1.000000	-1.000000	-1.000000	-1.000000	-1.000000	60.000000	0.000000	-1.000000	-1.000000	277259.000000	1775717175.423616
-24198.660000	-8753.130000	-11506.995000	-5506.830000	-4002.930000	-28981.080000	-2475.585000	4282.290000	8.102015	8.436883	8.945013	8.636324	8.869126	7.216822	1.069875	4.825588	-1.281840	2.502640	-1.083460	-0.898862	-0.388671	0.204101	-1.000000	-1.000000	-1.000000	-1.000000	-1.000000	-1.000000	-1.000000	60.000000	0.000000	-1.000000	-1.000000	277260.000000	1775717175.423635
-24196.455000	-8751.915000	-11506.095000	-5503.005000	-3998.970000	-28978.605000	-2472.345000	4285.620000	4.063120	5.204114	5.089708	4.724155	4.087783	0.240801	0.950278	2.622026	-1.678600	2.762060	-1.403920	-0.898313	-0.390136	0.202026	-1.000000	-1.000000	-1.000000	-1.000000	-1.000000	-1.000000	-1.000000	60.000000	0.000000	-1.000000	-1.000000	277261.000000	1775717175.428328
-24192.945000	-8752.770000	-11504.160000	-5500.620000	-3996.630000	-28974.780000	-2470.725000	4287.645000	-0.523693	0.834807	0.073919	0.145849	-0.908385	-5.235855	0.648474	0.021737	-1.678600	2.762060	-1.403920	-0.898313	-0.390136	0.202026	-1.000000	-1.000000	-1.000000	-1.000000	-1.000000	-1.000000	-1.000000	60.000000	0.000000	-1.000000	-1.000000	277262.000000	1775717175.428355
-24190.065000	-8755.380000	-11500.830000	-5498.460000	-3994.065000	-28969.650000	-2469.330000	4288.860000	-3.539463	-3.094000	-3.815058	-3.287913	-4.174651	-6.801223	0.225690	-1.857377	-1.678600	2.762060	-1.403920	-0.898313	-0.390136	0.202026	-1.000000	-1.000000	-1.000000	-1.000000	-1.000000	-1.000000	-1.000000	60.000000	0.000000	-1.000000	-1.000000	277263.000000	1775717175.431940
-24192.990000	-8759.205000	-11498.445000	-5500.440000	-3995.865000	-28971.090000	-2472.120000	4285.845000	-4.314154	-5.676189	-5.326182	-4.988600	-5.323765	-4.817826	-0.404067	-2.707620	-1.678600	2.762060	-1.403920	-0.898313	-0.390136	0.202026	-1.000000	-1.000000	-1.000000	-1.000000	-1.000000	-1.000000	-1.000000	60.000000	0.000000	-1.000000	-1.000000	277264.000000	1775717175.431964
-24190.740000	-8753.715000	-11491.650000	-5495.490000	-3992.355000	-28974.870000	-2472.300000	4288.635000	-3.655799	-6.453918	-4.559067	-5.237987	-4.996004	-1.682339	-1.328844	-2.876753	-1.678600	2.762060	-1.403920	-0.898313	-0.390136	0.202026	-1.000000	-1.000000	-1.000000	-1.000000	-1.000000	-1.000000	-1.000000	60.000000	0.000000	-1.000000	-1.000000	277265.000000	1775717175.440942
-24197.040000	-8749.440000	-11494.215000	-5499.855000	-3998.250000	-28992.285000	-2486.430000	4282.920000	-2.700732	-5.098897	-2.562337	-4.490013	-3.994716	-0.068683	-2.521086	-2.696965	-1.678600	2.762060	-1.403920	-0.898313	-0.390136	0.202026	-1.000000	-1.000000	-1.000000	-1.000000	-1.000000	-1.000000	-1.000000	60.000000	0.000000	-1.000000	-1.000000	277266.000000	1775717175.440970
-24191.415000	-8739.405000	-11489.445000	-5495.490000	-3994.920000	-28985.175000	-2483.730000	4285.935000	-1.998134	-1.814114	-0.720529	-3.189704	-2.882439	-0.919775	-3.743840	-2.292927	-1.678600	2.762060	-1.403920	-0.898313	-0.390136	0.202026	-1.000000	-1.000000	-1.000000	-1.000000	-1.000000	-1.000000	-1.000000	60.000000	0.000000	-1.000000	-1.000000	277267.000000	1775717175.440997
-24188.040000	-8741.475000	-11490.840000	-5495.220000	-3991.095000	-28957.140000	-2462.445000	4290.705000	-1.237397	2.086808	0.100223	-1.660535	-1.683848	-1.936429	-3.703440	-1.481088	-1.678600	2.762060	-1.403920	-0.898313	-0.390136	0.202026	-1.000000	-1.000000	-1.000000	-1.000000	-1.000000	-1.000000	-1.000000	60.000000	0.000000	-1.000000	-1.000000	277268.000000	1775717175.441010
-24194.745000	-8749.170000	-11497.770000	-5500.800000	-3995.190000	-28964.880000	-2464.830000	4286.430000	-0.078925	4.357454	-0.221587	-0.216208	-0.196684	-0.019007	-0.856029	-0.097336	-1.678600	2.762060	-1.403920	-0.898313	-0.390136	0.202026	-1.000000	-1.000000	-1.000000	-1.000000	-1.000000	-1.000000	-1.000000	60.000000	0.000000	-1.000000	-1.000000	277269.000000	1775717175.444924
-24191.415000	-8743.320000	-11491.605000	-5494.995000	-3990.240000	-28974.690000	-2472.705000	4287.105000	0.943796	3.507697	-1.271572	0.722814	1.252645	3.684885	3.446101	1.268290	-1.678600	2.762060	-1.403920	-0.898313	-0.390136	0.202026	-1.000000	-1.000000	-1.000000	-1.000000	-1.000000	-1.000000	-1.000000	60.000000	0.000000	-1.000000	-1.000000	277270.000000	1775717175.444953
-24187.590000	-8740.170000	-11489.310000	-5491.305000	-3986.865000	-28968.345000	-2470.590000	4290.345000	1.364377	0.618100	-1.924701	1.271197	2.234383	5.063953	5.580486	1.877073	-1.983800	3.616620	-0.595140	-0.897153	-0.395751	0.202575	-1.000000	-1.000000	-1.000000	-1.000000	-1.000000	-1.000000	-1.000000	60.000000	0.000000	-1.000000	-1.000000	277271.000000	1775717175.448114
-24192.135000	-8744.985000	-11493.945000	-5496.705000	-3994.920000	-28965.915000	-2468.205000	4286.295000	1.394720	-1.929113	-1.307084	1.772605	2.528371	2.935197	4.108335	1.692669	-1.983800	3.616620	-0.595140	-0.897153	-0.395751	0.202575	-1.000000	-1.000000	-1.000000	-1.000000	-1.000000	-1.000000	-1.000000	60.000000	0.000000	-1.000000	-1.000000	277272.000000	1775717175.448140
-24190.695000	-8742.690000	-11490.345000	-5492.655000	-3990.330000	-28957.770000	-2463.165000	4288.635000	1.096666	-2.980741	0.093378	1.922122	1.832050	-0.284577	0.893028	0.989037	-1.983800	3.616620	-0.595140	-0.897153	-0.395751	0.202575	-1.000000	-1.000000	-1.000000	-1.000000	-1.000000	-1.000000	-1.000000	60.000000	0.000000	-1.000000	-1.000000	277273.000000	1775717175.451244
-24193.395000	-8747.145000	-11495.070000	-5496.300000	-3993.300000	-28963.890000	-2470.050000	4284.765000	0.396499	-2.737797	1.261704	1.382636	0.391253	-2.270709	-1.732740	0.057426	-1.983800	3.616620	-0.595140	-0.897153	-0.395751	0.202575	-1.000000	-1.000000	-1.000000	-1.000000	-1.000000	-1.000000	-1.000000	60.000000	0.000000	-1.000000	-1.000000	277274.000000	1775717175.451264
-24194.070000	-8748.090000	-11496.600000	-5498.280000	-3996.270000	-28969.560000	-2471.445000	4284.090000	-0.459087	-1.812339	1.598805	0.324168	-0.987638	-2.907288	-3.073180	-0.790582	-1.983800	3.616620	-0.595140	-0.897153	-0.395751	0.202575	-1.000000	-1.000000	-1.000000	-1.000000	-1.000000	-1.000000	-1.000000	60.000000	0.000000	-1.000000	-1.000000	277275.000000	1775717175.458289
-24191.460000	-8746.515000	-11495.475000	-5497.020000	-3995.505000	-28972.935000	-2469.555000	4286.565000	-1.014541	-0.690084	1.123413	-0.815429	-1.768414	-3.248192	-3.402690	-1.240535	-1.983800	3.616620	-0.595140	-0.897153	-0.395751	0.202575	-1.000000	-1.000000	-1.000000	-1.000000	-1.000000	-1.000000	-1.000000	60.000000	0.000000	-1.000000	-1.000000	277276.000000	1775717175.458317
-24183.855000	-8740.620000	-11491.245000	-5492.745000	-3992.040000	-28973.880000	-2465.145000	4292.415000	-0.736647	0.611092	0.544232	-1.346370	-1.640216	-3.518017	-2.670828	-0.876947	-1.983800	3.616620	-0.595140	-0.897153	-0.395751	0.202575	-1.000000	-1.000000	-1.000000	-1.000000	-1.000000	-1.000000	-1.000000	60.000000	0.000000	-1.000000	-1.000000	277277.000000	1775717175.472921
-24188.130000	-8743.230000	-11493.945000	-5496.525000	-3996.270000	-28978.875000	-2467.710000	4287.735000	0.431560	2.080175	0.525572	-0.858140	-0.591399	-3.060227	-0.895857	0.287152	-1.983800	3.616620	-0.595140	-0.897153	-0.395751	0.202575	-1.000000	-1.000000	-1.000000	-1.000000	-1.000000	-1.000000	-1.000000	60.000000	0.000000	-1.000000	-1.000000	277278.000000	1775717175.472950
-24194.745000	-8745.255000	-11493.090000	-5495.130000	-3993.210000	-28973.565000	-2467.665000	4284.135000	1.397127	3.014519	0.859497	0.134696	0.723997	-1.463243	1.060242	1.253964	-1.983800	3.616620	-0.595140	-0.897153	-0.395751	0.202575	-1.000000	-1.000000	-1.000000	-1.000000	-1.000000	-1.000000	-1.000000	60.000000	0.000000	-1.000000	-1.000000	277279.000000	1775717175.473069
-24192.765000	-8744.265000	-11491.515000	-5492.790000	-3989.790000	-28968.165000	-2467.845000	4285.215000	0.950597	2.628446	0.953523	0.857656	1.641156	1.174858	2.126777	1.036671	-1.983800	3.616620	-0.595140	-0.897153	-0.395751	0.202575	-1.000000	-1.000000	-1.000000	-1.000000	-1.000000	-1.000000	-1.000000	60.000000	0.000000	-1.000000	-1.000000	277280.000000	1775717175.473088
-24189.165000	-8744.895000	-11492.505000	-5493.420000	-3990.645000	-28966.995000	-2469.780000	4289.355000	-0.466808	1.130594	0.630225	1.087751	2.010359	4.166080	1.975191	0.020685	0.534100	4.944240	0.457800	-0.895322	-0.397399	0.203063	-1.000000	-1.000000	-1.000000	-1.000000	-1.000000	-1.000000	-1.000000	60.000000	0.000000	-1.000000	-1.000000	277281.000000	1775717175.473111
-24185.610000	-8740.755000	-11488.500000	-5489.730000	-3987.000000	-28962.765000	-2466.900000	4292.100000	-1.261737	-0.454333	0.099868	0.948480	1.811201	6.152063	1.049598	-0.554388	0.534100	4.944240	0.457800	-0.895322	-0.397399	0.203063	-1.000000	-1.000000	-1.000000	-1.000000	-1.000000	-1.000000	-1.000000	60.000000	0.000000	-1.000000	-1.000000	277282.000000	1775717175.473123
-24180.030000	-8734.275000	-11481.030000	-5482.440000	-3980.295000	-28961.190000	-2462.805000	4296.690000	-0.590096	-1.110617	-0.180160	0.749919	1.209913	6.016712	0.199693	-0.083970	0.534100	4.944240	0.457800	-0.895322	-0.397399	0.203063	-1.000000	-1.000000	-1.000000	-1.000000	-1.000000	-1.000000	-1.000000	60.000000	0.000000	-1.000000	-1.000000	277283.000000	1775717175.473138
-24179.580000	-8734.005000	-11479.770000	-5481.810000	-3979.845000	-28968.345000	-2463.390000	4297.185000	0.971868	-0.546807	0.147404	0.805081	0.614529	3.604134	0.032345	0.938196	0.534100	4.944240	0.457800	-0.895322	-0.397399	0.203063	-1.000000	-1.000000	-1.000000	-1.000000	-1.000000	-1.000000	-1.000000	60.000000	0.000000	-1.000000	-1.000000	277284.000000	1775717175.473149
-24182.505000	-8737.380000	-11483.640000	-5485.455000	-3984.165000	-28973.340000	-2461.815000	4296.195000	2.014844	0.366656	0.593233	0.769871	-0.036322	-0.466292	0.322679	1.477436	0.534100	4.944240	0.457800	-0.895322	-0.397399	0.203063	-1.000000	-1.000000	-1.000000	-1.000000	-1.000000	-1.000000	-1.000000	60.000000	0.000000	-1.000000	-1.000000	277285.000000	1775717175.487251
-24186.420000	-8741.250000	-11488.230000	-5490.270000	-3989.340000	-28977.570000	-2471.355000	4291.830000	1.393506	0.317918	0.095527	-0.161818	-1.284606	-4.789222	0.266801	0.768655	0.534100	4.944240	0.457800	-0.895322	-0.397399	0.203063	-1.000000	-1.000000	-1.000000	-1.000000	-1.000000	-1.000000	-1.000000	60.000000	0.000000	-1.000000	-1.000000	277286.000000	1775717175.487277
-24176.835000	-8731.080000	-11477.295000	-5478.345000	-3975.840000	-28963.980000	-2468.160000	4300.110000	-0.554179	-0.812656	-1.377178	-1.811468	-2.815765	-7.162008	-0.645677	-0.884636	0.534100	4.944240	0.457800	-0.895322	-0.397399	0.203063	-1.000000	-1.000000	-1.000000	-1.000000	-1.000000	-1.000000	-1.000000	60.000000	0.000000	-1.000000	-1.000000	277287.000000	1775717175.487306
-24169.365000	-8725.545000	-11470.275000	-5470.245000	-3966.030000	-28949.445000	-2456.775000	4308.975000	-1.964512	-1.562796	-2.229674	-2.514761	-2.949697	-5.558562	-1.621039	-1.973042	0.534100	4.944240	0.457800	-0.895322	-0.397399	0.203063	-1.000000	-1.000000	-1.000000	-1.000000	-1.000000	-1.000000	-1.000000	60.000000	0.000000	-1.000000	-1.000000	277288.000000	1775717175.487318
-24172.020000	-8727.930000	-11472.930000	-5472.540000	-3968.865000	-28947.150000	-2453.490000	4305.510000	-1.529494	-0.878083	-1.306663	-1.221424	-0.843153	-0.247371	-1.129544	-1.384596	0.534100	4.944240	0.457800	-0.895322	-0.397399	0.203063	-1.000000	-1.000000	-1.000000	-1.000000	-1.000000	-1.000000	-1.000000	60.000000	0.000000	-1.000000	-1.000000	277289.000000	1775717175.487332
-24179.715000	-8732.655000	-11479.320000	-5481.945000	-3983.670000	-28961.415000	-2462.400000	4295.295000	-0.266585	0.298323	0.259230	0.621474	1.498725	5.072418	0.677187	-0.159316	0.534100	4.944240	0.457800	-0.895322	-0.397399	0.203063	-1.000000	-1.000000	-1.000000	-1.000000	-1.000000	-1.000000	-1.000000	60.000000	0.000000	-1.000000	-1.000000	277290.000000	1775717175.487343
-24180.075000	-8732.880000	-11479.815000	-5481.630000	-3981.240000	-28960.335000	-2466.270000	4292.325000	-0.066855	0.425381	0.572710	0.801745	1.387774	6.109525	1.658411	-0.246192	-1.144500	4.440660	0.549360	-0.898008	-0.396544	0.202697	-1.000000	-1.000000	-1.000000	-1.000000	-1.000000	-1.000000	-1.000000	60.000000	0.000000	-1.000000	-1.000000	277291.000000	1775717175.488698
-24182.280000	-8741.655000	-11489.130000	-5490.045000	-3989.115000	-28970.145000	-2467.485000	4296.285000	-1.178136	-0.744413	-0.713669	-0.913394	-1.081993	2.250613	0.519152	-1.686698	-1.144500	4.440660	0.549360	-0.898008	-0.396544	0.202697	-1.000000	-1.000000	-1.000000	-1.000000	-1.000000	-1.000000	-1.000000	60.000000	0.000000	-1.000000	-1.000000	277292.000000	1775717175.488719
-24185.160000	-8746.560000	-11493.855000	-5493.330000	-3990.375000	-28969.965000	-2461.320000	4297.815000	-2.297688	-2.369959	-2.532430	-2.973218	-3.524416	-3.324662	-1.515242	-2.534406	-1.144500	4.440660	0.549360	-0.898008	-0.396544	0.202697	-1.000000	-1.000000	-1.000000	-1.000000	-1.000000	-1.000000	-1.000000	60.000000	0.000000	-1.000000	-1.000000	277293.000000	1775717175.493380
-24189.120000	-8749.755000	-11495.430000	-5496.255000	-3993.885000	-28976.040000	-2465.055000	4292.280000	-2.366529	-3.368164	-3.515553	-3.773718	-3.992347	-6.889606	-2.365076	-1.538736	-1.144500	4.440660	0.549360	-0.898008	-0.396544	0.202697	-1.000000	-1.000000	-1.000000	-1.000000	-1.000000	-1.000000	-1.000000	60.000000	0.000000	-1.000000	-1.000000	277294.000000	1775717175.493405
-24188.445000	-8746.200000	-11491.830000	-5493.555000	-3991.905000	-28975.455000	-2465.910000	4292.055000	-1.282209	-2.764068	-2.586127	-2.516464	-2.110462	-6.640456	-1.487617	0.481343	-1.144500	4.440660	0.549360	-0.898008	-0.396544	0.202697	-1.000000	-1.000000	-1.000000	-1.000000	-1.000000	-1.000000	-1.000000	60.000000	0.000000	-1.000000	-1.000000	277295.000000	1775717175.496104
-24186.465000	-8741.790000	-11486.745000	-5486.895000	-3984.615000	-28966.815000	-2463.435000	4294.755000	0.577264	-0.200444	0.421345	0.618020	1.334007	-2.963472	0.130983	2.143520	-1.144500	4.440660	0.549360	-0.898008	-0.396544	0.202697	-1.000000	-1.000000	-1.000000	-1.000000	-1.000000	-1.000000	-1.000000	60.000000	0.000000	-1.000000	-1.000000	277296.000000	1775717175.496131
-24191.865000	-8746.515000	-11490.435000	-5489.910000	-3986.775000	-28966.815000	-2468.295000	4289.985000	2.538751	3.353075	4.226040	4.384269	4.929536	2.413651	1.428026	2.868695	-1.144500	4.440660	0.549360	-0.898008	-0.396544	0.202697	-1.000000	-1.000000	-1.000000	-1.000000	-1.000000	-1.000000	-1.000000	60.000000	0.000000	-1.000000	-1.000000	277297.000000	1775717175.499977
-24191.145000	-8745.570000	-11489.715000	-5489.145000	-3986.145000	-28963.845000	-2468.295000	4289.985000	3.634833	5.830154	6.604791	6.761192	6.911687	6.988203	1.799636	2.569069	-1.144500	4.440660	0.549360	-0.898008	-0.396544	0.202697	-1.000000	-1.000000	-1.000000	-1.000000	-1.000000	-1.000000	-1.000000	60.000000	0.000000	-1.000000	-1.000000	277298.000000	1775717175.499997
-24189.840000	-8745.660000	-11490.570000	-5489.775000	-3987.270000	-28963.755000	-2467.890000	4290.210000	3.393686	5.787103	6.126761	6.323825	6.105668	8.557694	1.263664	1.487576	-1.144500	4.440660	0.549360	-0.898008	-0.396544	0.202697	-1.000000	-1.000000	-1.000000	-1.000000	-1.000000	-1.000000	-1.000000	60.000000	0.000000	-1.000000	-1.000000	277299.000000	1775717175.510501
-24182.865000	-8742.375000	-11488.770000	-5488.335000	-3986.955000	-28966.185000	-2466.090000	4294.935000	2.403182	3.605514	3.282559	3.439099	2.939947	6.541570	0.491827	0.373024	-1.144500	4.440660	0.549360	-0.898008	-0.396544	0.202697	-1.000000	-1.000000	-1.000000	-1.000000	-1.000000	-1.000000	-1.000000	60.000000	0.000000	-1.000000	-1.000000	277300.000000	1775717175.510528
-24176.250000	-8736.210000	-11483.190000	-5483.520000	-3984.390000	-28971.675000	-2462.220000	4300.605000	1.648944	0.867337	-0.122531	-0.153544	-0.881554	2.000194	0.185145	0.019387	-1.449700	4.318580	1.541260	-0.898618	-0.395751	0.200683	-1.000000	-1.000000	-1.000000	-1.000000	-1.000000	-1.000000	-1.000000	60.000000	0.000000	-1.000000	-1.000000	277301.000000	1775717175.510556
-24181.605000	-8737.920000	-11485.170000	-5486.400000	-3987.810000	-28977.570000	-2460.915000	4295.655000	1.317729	-1.067630	-2.416743	-2.742248	-3.639344	-3.164525	0.501266	0.418231	-1.449700	4.318580	1.541260	-0.898618	-0.395751	0.200683	-1.000000	-1.000000	-1.000000	-1.000000	-1.000000	-1.000000	-1.000000	60.000000	0.000000	-1.000000	-1.000000	277302.000000	1775717175.510566
-24184.530000	-8735.535000	-11480.445000	-5481.630000	-3984.165000	-28974.690000	-2457.405000	4293.180000	0.466640	-1.993014	-3.124484	-3.708376	-4.584919	-6.845583	1.018166	0.534305	-1.449700	4.318580	1.541260	-0.898618	-0.395751	0.200683	-1.000000	-1.000000	-1.000000	-1.000000	-1.000000	-1.000000	-1.000000	60.000000	0.000000	-1.000000	-1.000000	277303.000000	1775717175.511742
-24185.115000	-8736.750000	-11479.230000	-5478.795000	-3979.350000	-28968.480000	-2463.300000	4291.020000	-1.538912	-2.417880	-2.691432	-3.280241	-3.776282	-7.289559	1.042335	-0.475044	-1.449700	4.318580	1.541260	-0.898618	-0.395751	0.200683	-1.000000	-1.000000	-1.000000	-1.000000	-1.000000	-1.000000	-1.000000	60.000000	0.000000	-1.000000	-1.000000	277304.000000	1775717175.511764
-24178.005000	-8737.470000	-11482.380000	-5480.280000	-3975.930000	-28957.545000	-2461.005000	4303.620000	-3.679483	-2.691924	-1.835748	-2.019740	-1.666787	-4.013077	0.114730	-1.889034	-1.449700	4.318580	1.541260	-0.898618	-0.395751	0.200683	-1.000000	-1.000000	-1.000000	-1.000000	-1.000000	-1.000000	-1.000000	60.000000	0.000000	-1.000000	-1.000000	277305.000000	1775717175.520485
-24186.420000	-8746.470000	-11492.010000	-5489.280000	-3983.040000	-28957.860000	-2462.310000	4298.985000	-4.387232	-2.954686	-1.455625	-0.947441	0.603022	1.385435	-1.399038	-2.166103	-1.449700	4.318580	1.541260	-0.898618	-0.395751	0.200683	-1.000000	-1.000000	-1.000000	-1.000000	-1.000000	-1.000000	-1.000000	60.000000	0.000000	-1.000000	-1.000000	277306.000000	1775717175.520510
-24187.860000	-8747.370000	-11493.675000	-5492.025000	-3988.395000	-28962.765000	-2468.475000	4294.620000	-3.516402	-3.226382	-2.043542	-0.999320	1.447728	5.637991	-2.631901	-1.183873	-1.449700	4.318580	1.541260	-0.898618	-0.395751	0.200683	-1.000000	-1.000000	-1.000000	-1.000000	-1.000000	-1.000000	-1.000000	60.000000	0.000000	-1.000000	-1.000000	277307.000000	1775717175.520533
-24185.655000	-8745.795000	-11491.110000	-5490.540000	-3987.405000	-28968.255000	-2474.325000	4295.565000	-1.964655	-3.019931	-2.790501	-1.820065	0.355420	5.955247	-3.204172	-0.287176	-1.449700	4.318580	1.541260	-0.898618	-0.395751	0.200683	-1.000000	-1.000000	-1.000000	-1.000000	-1.000000	-1.000000	-1.000000	60.000000	0.000000	-1.000000	-1.000000	277308.000000	1775717175.520541
-24180.255000	-8737.785000	-11481.480000	-5480.190000	-3978.720000	-28967.040000	-2468.970000	4300.785000	-0.115354	-1.467655	-2.058586	-1.788794	-1.186859	2.385328	-2.996694	-0.050553	-1.449700	4.318580	1.541260	-0.898618	-0.395751	0.200683	-1.000000	-1.000000	-1.000000	-1.000000	-1.000000	-1.000000	-1.000000	60.000000	0.000000	-1.000000	-1.000000	277309.000000	1775717175.524204
-24179.220000	-8736.390000	-11480.085000	-5480.280000	-3981.690000	-28972.755000	-2469.015000	4297.095000	1.974313	1.544786	0.786469	0.193770	-1.269124	-2.357564	-1.593205	0.095456	-1.449700	4.318580	1.541260	-0.898618	-0.395751	0.200683	-1.000000	-1.000000	-1.000000	-1.000000	-1.000000	-1.000000	-1.000000	60.000000	0.000000	-1.000000	-1.000000	277310.000000	1775717175.524229
-24175.170000	-8731.440000	-11475.180000	-5474.970000	-3975.840000	-28966.365000	-2459.655000	4301.415000	3.715287	4.714117	4.335707	3.218115	0.266231	-5.284930	1.056036	0.457406	-1.892240	4.028640	1.678600	-0.900266	-0.393554	0.198730	-1.000000	-1.000000	-1.000000	-1.000000	-1.000000	-1.000000	-1.000000	60.000000	0.000000	-1.000000	-1.000000	277311.000000	1775717175.528166
-24168.600000	-8725.680000	-11471.220000	-5470.065000	-3967.740000	-28954.980000	-2455.380000	4306.860000	4.379323	6.333918	6.372307	5.300062	2.233609	-4.742478	4.103622	0.944152	-1.892240	4.028640	1.678600	-0.900266	-0.393554	0.198730	-1.000000	-1.000000	-1.000000	-1.000000	-1.000000	-1.000000	-1.000000	60.000000	0.000000	-1.000000	-1.000000	277312.000000	1775717175.528197
-24159.510000	-8718.480000	-11465.460000	-5463.810000	-3959.550000	-28943.955000	-2448.945000	4315.275000	3.910920	5.744857	5.818460	5.322593	3.701732	-0.850788	6.195618	1.621477	-1.892240	4.028640	1.678600	-0.900266	-0.393554	0.198730	-1.000000	-1.000000	-1.000000	-1.000000	-1.000000	-1.000000	-1.000000	60.000000	0.000000	-1.000000	-1.000000	277313.000000	1775717175.534505
-24170.805000	-8731.890000	-11478.195000	-5476.365000	-3971.565000	-28952.280000	-2455.020000	4307.985000	2.473987	3.160849	2.907179	3.208401	3.861150	4.018463	6.034678	2.190668	-1.892240	4.028640	1.678600	-0.900266	-0.393554	0.198730	-1.000000	-1.000000	-1.000000	-1.000000	-1.000000	-1.000000	-1.000000	60.000000	0.000000	-1.000000	-1.000000	277314.000000	1775717175.534533
-24192.765000	-8756.235000	-11502.540000	-5501.520000	-3997.575000	-28971.270000	-2467.890000	4293.180000	-0.584310	-1.468980	-1.998785	-1.129673	1.311717	5.916801	2.863971	1.394852	-1.892240	4.028640	1.678600	-0.900266	-0.393554	0.198730	-1.000000	-1.000000	-1.000000	-1.000000	-1.000000	-1.000000	-1.000000	60.000000	0.000000	-1.000000	-1.000000	277315.000000	1775717175.539331
-24195.645000	-8756.415000	-11501.190000	-5501.655000	-4001.175000	-28979.235000	-2472.705000	4289.985000	-5.469009	-7.481024	-7.863246	-6.975694	-4.250629	2.508891	-2.687713	-1.596163	-1.892240	4.028640	1.678600	-0.900266	-0.393554	0.198730	-1.000000	-1.000000	-1.000000	-1.000000	-1.000000	-1.000000	-1.000000	60.000000	0.000000	-1.000000	-1.000000	277316.000000	1775717175.539358
-24191.280000	-8749.935000	-11495.520000	-5496.030000	-3994.515000	-28976.310000	-2467.440000	4293.630000	-9.587027	-11.540193	-11.380692	-11.001679	-9.540300	-3.910131	-7.847528	-5.120962	-1.892240	4.028640	1.678600	-0.900266	-0.393554	0.198730	-1.000000	-1.000000	-1.000000	-1.000000	-1.000000	-1.000000	-1.000000	60.000000	0.000000	-1.000000	-1.000000	277317.000000	1775717175.540918
-24194.970000	-8752.095000	-11497.905000	-5499.045000	-3998.025000	-28984.590000	-2472.390000	4290.300000	-9.285329	-9.932153	-9.231256	-9.516672	-9.896481	-8.245117	-9.293116	-6.173050	-1.892240	4.028640	1.678600	-0.900266	-0.393554	0.198730	-1.000000	-1.000000	-1.000000	-1.000000	-1.000000	-1.000000	-1.000000	60.000000	0.000000	-1.000000	-1.000000	277318.000000	1775717175.540936
-24186.465000	-8744.895000	-11490.615000	-5492.655000	-3993.255000	-28988.055000	-2473.290000	4295.970000	-3.909168	-2.855459	-2.000389	-2.693067	-4.339666	-7.622735	-6.259262	-3.606387	-1.892240	4.028640	1.678600	-0.900266	-0.393554	0.198730	-1.000000	-1.000000	-1.000000	-1.000000	-1.000000	-1.000000	-1.000000	60.000000	0.000000	-1.000000	-1.000000	277319.000000	1775717175.550216
-24182.865000	-8743.365000	-11489.760000	-5492.295000	-3992.085000	-28986.390000	-2473.065000	4299.255000	3.809661	5.775898	6.344308	5.650651	3.792123	-3.023525	-0.890562	1.172290	-1.892240	4.028640	1.678600	-0.900266	-0.393554	0.198730	-1.000000	-1.000000	-1.000000	-1.000000	-1.000000	-1.000000	-1.000000	60.000000	0.000000	-1.000000	-1.000000	277320.000000	1775717175.550244
-24187.815000	-8747.640000	-11492.325000	-5493.780000	-3991.230000	-28974.645000	-2465.640000	4297.455000	9.959198	11.503044	11.594195	11.236564	10.098005	3.077565	4.174210	5.619897	-0.946120	4.349100	1.052940	-0.901365	-0.391906	0.196105	-1.000000	-1.000000	-1.000000	-1.000000	-1.000000	-1.000000	-1.000000	60.000000	0.000000	-1.000000	-1.000000	277321.000000	1775717175.550320
-24193.845000	-8751.915000	-11495.070000	-5494.815000	-3992.625000	-28968.030000	-2462.670000	4292.775000	11.364190	11.680151	11.462327	11.670404	11.772515	8.535026	7.399069	7.355622	-0.946120	4.349100	1.052940	-0.901365	-0.391906	0.196105	-1.000000	-1.000000	-1.000000	-1.000000	-1.000000	-1.000000	-1.000000	60.000000	0.000000	-1.000000	-1.000000	277322.000000	1775717175.550336
-24187.860000	-8742.690000	-11488.815000	-5486.040000	-3983.940000	-28962.090000	-2459.385000	4297.095000	7.611596	6.954698	6.725305	7.599152	8.806717	11.520032	8.171359	5.597134	-0.946120	4.349100	1.052940	-0.901365	-0.391906	0.196105	-1.000000	-1.000000	-1.000000	-1.000000	-1.000000	-1.000000	-1.000000	60.000000	0.000000	-1.000000	-1.000000	277323.000000	1775717175.552074
-24188.670000	-8743.590000	-11494.485000	-5488.020000	-3986.010000	-28972.755000	-2466.720000	4293.765000	1.527515	0.759857	0.460200	1.912011	3.497393	10.448933	6.285348	1.778408	-0.946120	4.349100	1.052940	-0.901365	-0.391906	0.196105	-1.000000	-1.000000	-1.000000	-1.000000	-1.000000	-1.000000	-1.000000	60.000000	0.000000	-1.000000	-1.000000	277324.000000	1775717175.552101
-24185.970000	-8745.165000	-11496.060000	-5488.470000	-3987.540000	-28987.470000	-2477.565000	4295.295000	-3.371339	-3.747866	-4.518671	-2.812786	-1.689114	4.696632	1.934220	-1.867369	-0.946120	4.349100	1.052940	-0.901365	-0.391906	0.196105	-1.000000	-1.000000	-1.000000	-1.000000	-1.000000	-1.000000	-1.000000	60.000000	0.000000	-1.000000	-1.000000	277325.000000	1775717175.560876
-24186.375000	-8752.455000	-11498.850000	-5492.970000	-3990.825000	-28986.525000	-2476.665000	4295.160000	-5.401704	-5.811718	-7.019958	-5.686658	-5.489058	-3.990742	-3.606948	-3.883708	-0.946120	4.349100	1.052940	-0.901365	-0.391906	0.196105	-1.000000	-1.000000	-1.000000	-1.000000	-1.000000	-1.000000	-1.000000	60.000000	0.000000	-1.000000	-1.000000	277326.000000	1775717175.560903
-24189.705000	-8759.925000	-11500.110000	-5497.515000	-3993.705000	-28971.090000	-2462.040000	4293.180000	-4.962006	-6.283045	-6.976532	-6.859216	-7.445547	-10.940591	-7.423685	-3.982188	-0.946120	4.349100	1.052940	-0.901365	-0.391906	0.196105	-1.000000	-1.000000	-1.000000	-1.000000	-1.000000	-1.000000	-1.000000	60.000000	0.000000	-1.000000	-1.000000	277327.000000	1775717175.560932
-24182.865000	-8754.345000	-11488.905000	-5490.090000	-3986.955000	-28963.575000	-2455.470000	4298.580000	-3.317137	-5.758832	-4.728838	-6.441674	-7.251201	-11.543766	-6.704224	-2.706211	-0.946120	4.349100	1.052940	-0.901365	-0.391906	0.196105	-1.000000	-1.000000	-1.000000	-1.000000	-1.000000	-1.000000	-1.000000	60.000000	0.000000	-1.000000	-1.000000	277328.000000	1775717175.560951
-24180.615000	-8744.805000	-11479.005000	-5482.305000	-3981.870000	-28966.095000	-2459.655000	4299.615000	-1.289626	-3.703510	-0.721728	-4.097302	-4.719100	-5.795797	-1.967660	-0.763996	-0.946120	4.349100	1.052940	-0.901365	-0.391906	0.196105	-1.000000	-1.000000	-1.000000	-1.000000	-1.000000	-1.000000	-1.000000	60.000000	0.000000	-1.000000	-1.000000	277329.000000	1775717175.569340
-24178.275000	-8730.855000	-11472.840000	-5477.220000	-3978.360000	-28960.560000	-2459.430000	4299.210000	0.701928	0.447891	3.921895	-0.004503	-0.514609	1.675383	2.931510	1.096611	-0.946120	4.349100	1.052940	-0.901365	-0.391906	0.196105	-1.000000	-1.000000	-1.000000	-1.000000	-1.000000	-1.000000	-1.000000	60.000000	0.000000	-1.000000	-1.000000	277330.000000	1775717175.569367
-24180.120000	-8731.620000	-11474.460000	-5476.815000	-3976.515000	-28957.230000	-2463.705000	4297.410000	1.987627	5.471208	6.981640	4.135832	3.517409	6.277723	4.590519	2.010043	-1.434440	3.677660	0.366240	-0.901548	-0.390685	0.194702	-1.000000	-1.000000	-1.000000	-1.000000	-1.000000	-1.000000	-1.000000	60.000000	0.000000	-1.000000	-1.000000	277331.000000	1775717175.569396
-24176.880000	-8732.385000	-11473.290000	-5474.025000	-3972.240000	-28951.245000	-2457.990000	4301.685000	2.008894	8.376211	6.476960	6.080080	5.518523	6.660946	2.772540	1.655430	-1.434440	3.677660	0.366240	-0.901548	-0.390685	0.194702	-1.000000	-1.000000	-1.000000	-1.000000	-1.000000	-1.000000	-1.000000	60.000000	0.000000	-1.000000	-1.000000	277332.000000	1775717175.569408
-24176.520000	-8734.545000	-11476.890000	-5478.615000	-3978.045000	-28957.770000	-2457.855000	4303.170000	0.997307	6.887665	2.466321	4.841284	4.794690	3.928652	-0.274335	0.670655	-1.434440	3.677660	0.366240	-0.901548	-0.390685	0.194702	-1.000000	-1.000000	-1.000000	-1.000000	-1.000000	-1.000000	-1.000000	60.000000	0.000000	-1.000000	-1.000000	277333.000000	1775717175.572175
-24179.445000	-8740.080000	-11485.170000	-5488.065000	-3988.080000	-28970.235000	-2463.570000	4298.940000	-0.333708	1.592789	-3.053114	1.050631	1.681957	-0.450239	-2.383010	-0.195911	-1.434440	3.677660	0.366240	-0.901548	-0.390685	0.194702	-1.000000	-1.000000	-1.000000	-1.000000	-1.000000	-1.000000	-1.000000	60.000000	0.000000	-1.000000	-1.000000	277334.000000	1775717175.572202
-24174.495000	-8735.805000	-11482.830000	-5487.300000	-3987.720000	-28974.195000	-2466.315000	4300.470000	-1.384806	-4.538734	-7.523406	-3.551944	-2.593546	-5.143958	-3.098077	-0.840506	-1.434440	3.677660	0.366240	-0.901548	-0.390685	0.194702	-1.000000	-1.000000	-1.000000	-1.000000	-1.000000	-1.000000	-1.000000	60.000000	0.000000	-1.000000	-1.000000	277335.000000	1775717175.576087
-24179.220000	-8737.425000	-11481.930000	-5486.175000	-3987.405000	-28976.175000	-2471.625000	4297.455000	-1.755789	-8.188344	-8.793341	-6.528661	-5.763670	-8.208409	-2.943130	-1.331738	-1.434440	3.677660	0.366240	-0.901548	-0.390685	0.194702	-1.000000	-1.000000	-1.000000	-1.000000	-1.000000	-1.000000	-1.000000	60.000000	0.000000	-1.000000	-1.000000	277336.000000	1775717175.576113
-24182.415000	-8739.675000	-11483.055000	-5485.140000	-3984.615000	-28972.395000	-2468.430000	4296.105000	-1.534021	-7.863315	-6.214719	-6.092891	-5.798268	-7.689626	-2.183588	-1.549589	-1.434440	3.677660	0.366240	-0.901548	-0.390685	0.194702	-1.000000	-1.000000	-1.000000	-1.000000	-1.000000	-1.000000	-1.000000	60.000000	0.000000	-1.000000	-1.000000	277337.000000	1775717175.581564
-24184.620000	-8742.285000	-11483.595000	-5483.835000	-3982.230000	-28966.815000	-2461.320000	4296.195000	-1.206228	-4.610576	-1.319395	-2.592328	-2.631911	-3.281323	-0.551131	-1.369073	-1.434440	3.677660	0.366240	-0.901548	-0.390685	0.194702	-1.000000	-1.000000	-1.000000	-1.000000	-1.000000	-1.000000	-1.000000	60.000000	0.000000	-1.000000	-1.000000	277338.000000	1775717175.581592
-24182.190000	-8738.100000	-11478.330000	-5478.075000	-3977.235000	-28959.525000	-2451.465000	4302.360000	-0.842425	-0.501145	3.442907	1.963544	1.920842	3.197533	2.167463	-0.603771	-1.434440	3.677660	0.366240	-0.901548	-0.390685	0.194702	-1.000000	-1.000000	-1.000000	-1.000000	-1.000000	-1.000000	-1.000000	60.000000	0.000000	-1.000000	-1.000000	277339.000000	1775717175.588835
-24179.535000	-8736.345000	-11476.395000	-5477.715000	-3979.575000	-28962.540000	-2455.470000	4303.080000	-0.013198	3.010689	6.429732	5.460547	5.488606	8.656830	5.070764	0.819639	-1.434440	3.677660	0.366240	-0.901548	-0.390685	0.194702	-1.000000	-1.000000	-1.000000	-1.000000	-1.000000	-1.000000	-1.000000	60.000000	0.000000	-1.000000	-1.000000	277340.000000	1775717175.588861
-24178.185000	-8734.905000	-11474.505000	-5475.150000	-3975.840000	-28958.670000	-2451.915000	4304.295000	1.403691	5.200224	7.089834	6.572080	6.409842	10.352278	6.205408	2.332551	-0.869820	2.762060	0.045780	-0.902830	-0.391051	0.194885	-1.000000	-1.000000	-1.000000	-1.000000	-1.000000	-1.000000	-1.000000	60.000000	0.000000	-1.000000	-1.000000	277341.000000	1775717175.590231
-24188.670000	-8743.680000	-11483.685000	-5484.195000	-3983.805000	-28967.130000	-2454.930000	4293.810000	2.577585	5.483547	5.389172	4.935876	4.453400	7.528849	4.404821	2.764938	-0.869820	2.762060	0.045780	-0.902830	-0.391051	0.194885	-1.000000	-1.000000	-1.000000	-1.000000	-1.000000	-1.000000	-1.000000	60.000000	0.000000	-1.000000	-1.000000	277342.000000	1775717175.590247
-24192.045000	-8743.590000	-11483.685000	-5484.465000	-3984.885000	-28974.465000	-2463.345000	4282.695000	2.248456	3.594818	1.764918	1.183122	0.641032	1.571013	0.319288	1.144702	-0.869820	2.762060	0.045780	-0.902830	-0.391051	0.194885	-1.000000	-1.000000	-1.000000	-1.000000	-1.000000	-1.000000	-1.000000	60.000000	0.000000	-1.000000	-1.000000	277343.000000	1775717175.597907
-24183.765000	-8738.505000	-11479.680000	-5480.955000	-3980.880000	-28977.705000	-2466.090000	4289.580000	0.508236	0.550599	-2.242535	-2.879318	-3.150984	-4.901300	-4.319338	-1.937545	-0.869820	2.762060	0.045780	-0.902830	-0.391051	0.194885	-1.000000	-1.000000	-1.000000	-1.000000	-1.000000	-1.000000	-1.000000	60.000000	0.000000	-1.000000	-1.000000	277344.000000	1775717175.597935
-24179.895000	-8744.175000	-11488.455000	-5489.865000	-3988.710000	-28983.105000	-2465.280000	4299.795000	-0.783967	-1.770969	-4.644827	-5.167128	-5.055781	-9.032898	-7.376368	-3.835450	-0.869820	2.762060	0.045780	-0.902830	-0.391051	0.194885	-1.000000	-1.000000	-1.000000	-1.000000	-1.000000	-1.000000	-1.000000	60.000000	0.000000	-1.000000	-1.000000	277345.000000	1775717175.600435
-24177.825000	-8742.420000	-11486.565000	-5488.785000	-3990.330000	-28977.075000	-2462.085000	4303.755000	-0.302368	-2.482672	-4.785271	-5.057631	-4.682933	-9.031652	-7.142382	-2.300849	-0.869820	2.762060	0.045780	-0.902830	-0.391051	0.194885	-1.000000	-1.000000	-1.000000	-1.000000	-1.000000	-1.000000	-1.000000	60.000000	0.000000	-1.000000	-1.000000	277346.000000	1775717175.600459
