Channel1	Channel2	Channel3	Channel4	Channel5	Channel6	Channel7	Channel8	FilteredChannel1	FilteredChannel2	FilteredChannel3	FilteredChannel4	FilteredChannel5	FilteredChannel6	FilteredChannel7	FilteredChannel8	GyroX	GyroY	GyroZ	AccX	AccY	AccZ	PPG1	PPG2	rawPPG1	rawPPG2	rawPPG3	Hr	Hrv	Battery	Trigger	PhysicalTrigger	AutoTrigger	NumMeasurements	Timestamp
-21064.635000	-40351.320000	-9109.170000	-2896.965000	-835.740000	-33650.145000	-439.200000	7592.130000	-4.577294	-2.903046	-2.957677	-3.279981	-4.034452	-7.268272	-4.168749	-4.378738	-0.427280	4.486440	0.488320	-0.865720	-0.404601	0.300109	-1.000000	-1.000000	-1.000000	-1.000000	-1.000000	-1.000000	-1.000000	58.000000	0.000000	-1.000000	-1.000000	582946.000000	1775717787.524959
-21067.020000	-40349.790000	-9104.355000	-2890.620000	-827.955000	-33643.665000	-435.600000	7593.660000	-2.947938	-2.917162	-3.020759	-3.240985	-3.824810	-5.654413	-1.114759	-2.032228	-0.427280	4.486440	0.488320	-0.865720	-0.404601	0.300109	-1.000000	-1.000000	-1.000000	-1.000000	-1.000000	-1.000000	-1.000000	58.000000	0.000000	-1.000000	-1.000000	582947.000000	1775717787.525576
-21067.245000	-40348.170000	-9101.520000	-2888.280000	-824.805000	-33640.695000	-437.130000	7592.985000	-0.419256	-1.692514	-1.572158	-1.563346	-1.642375	-1.009268	2.675066	1.183171	-0.427280	4.486440	0.488320	-0.865720	-0.404601	0.300109	-1.000000	-1.000000	-1.000000	-1.000000	-1.000000	-1.000000	-1.000000	58.000000	0.000000	-1.000000	-1.000000	582948.000000	1775717787.525594
-21065.715000	-40348.170000	-9103.680000	-2890.620000	-826.290000	-33640.830000	-441.540000	7592.220000	1.782823	0.372147	0.974826	1.223852	1.789203	3.801023	4.508135	3.477641	-0.427280	4.486440	0.488320	-0.865720	-0.404601	0.300109	-1.000000	-1.000000	-1.000000	-1.000000	-1.000000	-1.000000	-1.000000	58.000000	0.000000	-1.000000	-1.000000	582949.000000	1775717787.529811
-21067.245000	-40351.770000	-9107.550000	-2894.490000	-830.205000	-33643.305000	-446.040000	7589.745000	3.023732	2.254771	3.128568	3.485157	4.537151	6.132929	3.175489	3.801313	-0.427280	4.486440	0.488320	-0.865720	-0.404601	0.300109	-1.000000	-1.000000	-1.000000	-1.000000	-1.000000	-1.000000	-1.000000	58.000000	0.000000	-1.000000	-1.000000	582950.000000	1775717787.529834
-21066.435000	-40350.870000	-9105.615000	-2891.430000	-827.820000	-33642.135000	-441.090000	7593.120000	3.154894	2.924958	3.529733	3.833381	4.907769	5.013639	-0.200450	2.398546	0.152600	4.059160	-0.045780	-0.866209	-0.404052	0.300353	-1.000000	-1.000000	-1.000000	-1.000000	-1.000000	-1.000000	-1.000000	58.000000	0.000000	-1.000000	-1.000000	582951.000000	1775717787.535369
-21069.900000	-40352.400000	-9104.130000	-2889.225000	-826.560000	-33644.790000	-441.675000	7590.870000	2.311024	2.229692	2.324404	2.540090	3.081878	1.573809	-3.073666	0.444883	0.152600	4.059160	-0.045780	-0.866209	-0.404052	0.300353	-1.000000	-1.000000	-1.000000	-1.000000	-1.000000	-1.000000	-1.000000	58.000000	0.000000	-1.000000	-1.000000	582952.000000	1775717787.535392
-21062.655000	-40345.245000	-9095.265000	-2881.485000	-819.045000	-33641.730000	-436.545000	7597.530000	0.989276	0.981622	0.849916	1.008860	0.696936	-2.035972	-3.622288	-0.899574	0.152600	4.059160	-0.045780	-0.866209	-0.404052	0.300353	-1.000000	-1.000000	-1.000000	-1.000000	-1.000000	-1.000000	-1.000000	58.000000	0.000000	-1.000000	-1.000000	582953.000000	1775717787.537568
-21060.405000	-40343.355000	-9095.445000	-2882.745000	-820.215000	-33644.205000	-436.275000	7598.880000	0.030306	0.228806	0.218630	0.235238	-0.799519	-4.081747	-1.936212	-1.082584	0.152600	4.059160	-0.045780	-0.866209	-0.404052	0.300353	-1.000000	-1.000000	-1.000000	-1.000000	-1.000000	-1.000000	-1.000000	58.000000	0.000000	-1.000000	-1.000000	582954.000000	1775717787.537596
-21059.010000	-40342.860000	-9096.795000	-2883.645000	-820.665000	-33644.070000	-436.050000	7598.610000	-0.109184	0.259067	0.236819	-0.046481	-1.289622	-4.085298	0.503969	-0.397402	0.152600	4.059160	-0.045780	-0.866209	-0.404052	0.300353	-1.000000	-1.000000	-1.000000	-1.000000	-1.000000	-1.000000	-1.000000	58.000000	0.000000	-1.000000	-1.000000	582955.000000	1775717787.543222
-21058.920000	-40342.185000	-9096.840000	-2880.630000	-820.890000	-33643.440000	-437.040000	7597.755000	0.094173	0.404686	-0.111273	-0.612949	-1.543064	-2.655803	2.045454	0.197955	0.152600	4.059160	-0.045780	-0.866209	-0.404052	0.300353	-1.000000	-1.000000	-1.000000	-1.000000	-1.000000	-1.000000	-1.000000	58.000000	0.000000	-1.000000	-1.000000	582956.000000	1775717787.543247
-21058.380000	-40342.725000	-9097.785000	-2867.310000	-817.605000	-33640.065000	-438.255000	7597.395000	-0.087897	-0.013352	-1.213526	-1.278308	-1.910788	-0.648708	1.940908	0.005339	0.152600	4.059160	-0.045780	-0.866209	-0.404052	0.300353	-1.000000	-1.000000	-1.000000	-1.000000	-1.000000	-1.000000	-1.000000	58.000000	0.000000	-1.000000	-1.000000	582957.000000	1775717787.548391
-21063.870000	-40349.880000	-9104.895000	-2863.620000	-815.130000	-33635.295000	-440.730000	7593.255000	-0.909873	-1.112858	-2.591908	-1.073383	-1.990389	1.330185	0.568423	-0.876287	0.152600	4.059160	-0.045780	-0.866209	-0.404052	0.300353	-1.000000	-1.000000	-1.000000	-1.000000	-1.000000	-1.000000	-1.000000	58.000000	0.000000	-1.000000	-1.000000	582958.000000	1775717787.548417
-21067.830000	-40352.490000	-9104.490000	-2887.425000	-819.180000	-33637.905000	-440.010000	7591.230000	-2.183531	-2.596442	-3.593949	-0.448668	-1.502857	2.742361	-1.070886	-1.903702	0.152600	4.059160	-0.045780	-0.866209	-0.404052	0.300353	-1.000000	-1.000000	-1.000000	-1.000000	-1.000000	-1.000000	-1.000000	58.000000	0.000000	-1.000000	-1.000000	582959.000000	1775717787.553005
-21061.710000	-40343.445000	-9097.335000	-2905.965000	-828.315000	-33649.335000	-442.530000	7594.425000	-3.185088	-3.523866	-3.424360	-1.726458	-1.014611	2.731423	-2.006116	-2.373956	0.152600	4.059160	-0.045780	-0.866209	-0.404052	0.300353	-1.000000	-1.000000	-1.000000	-1.000000	-1.000000	-1.000000	-1.000000	58.000000	0.000000	-1.000000	-1.000000	582960.000000	1775717787.553032
-21055.590000	-40336.920000	-9089.100000	-2883.555000	-816.435000	-33641.550000	-435.060000	7601.625000	-2.714014	-2.539181	-1.343258	-5.058097	-1.001077	0.917391	-1.724701	-1.553529	1.083460	2.334780	0.015260	-0.867246	-0.402343	0.301025	-1.000000	-1.000000	-1.000000	-1.000000	-1.000000	-1.000000	-1.000000	58.000000	0.000000	-1.000000	-1.000000	582961.000000	1775717787.559698
-21058.830000	-40339.800000	-9090.855000	-2881.260000	-814.770000	-33641.280000	-433.665000	7600.410000	-0.438652	0.400276	2.117594	-6.377627	-0.651890	-1.343788	-0.243331	0.591641	1.083460	2.334780	0.015260	-0.867246	-0.402343	0.301025	-1.000000	-1.000000	-1.000000	-1.000000	-1.000000	-1.000000	-1.000000	58.000000	0.000000	-1.000000	-1.000000	582962.000000	1775717787.559727
-21058.065000	-40340.340000	-9093.105000	-2883.285000	-816.345000	-33639.120000	-429.435000	7601.310000	2.182675	3.265733	4.790687	-2.815475	0.737303	-2.168521	1.762378	2.818072	1.083460	2.334780	0.015260	-0.867246	-0.402343	0.301025	-1.000000	-1.000000	-1.000000	-1.000000	-1.000000	-1.000000	-1.000000	58.000000	0.000000	-1.000000	-1.000000	582963.000000	1775717787.559755
-21063.825000	-40346.910000	-9100.890000	-2891.700000	-825.975000	-33647.580000	-436.545000	7594.695000	3.266670	3.871855	4.599204	3.066721	2.080666	-1.391056	3.002346	3.478634	1.083460	2.334780	0.015260	-0.867246	-0.402343	0.301025	-1.000000	-1.000000	-1.000000	-1.000000	-1.000000	-1.000000	-1.000000	58.000000	0.000000	-1.000000	-1.000000	582964.000000	1775717787.559766
-21059.955000	-40341.690000	-9093.105000	-2882.475000	-818.055000	-33642.540000	-437.355000	7598.610000	2.298398	1.974035	1.641874	6.889719	1.984641	-0.264266	2.375151	2.053311	1.083460	2.334780	0.015260	-0.867246	-0.402343	0.301025	-1.000000	-1.000000	-1.000000	-1.000000	-1.000000	-1.000000	-1.000000	58.000000	0.000000	-1.000000	-1.000000	582965.000000	1775717787.561885
-21058.020000	-40339.710000	-9091.755000	-2880.675000	-816.165000	-33639.120000	-438.210000	7602.345000	0.419754	-0.643314	-1.701806	7.188043	0.885143	0.515839	0.098142	-0.249485	1.083460	2.334780	0.015260	-0.867246	-0.402343	0.301025	-1.000000	-1.000000	-1.000000	-1.000000	-1.000000	-1.000000	-1.000000	58.000000	0.000000	-1.000000	-1.000000	582966.000000	1775717787.561906
-21054.645000	-40335.615000	-9089.370000	-2879.145000	-815.625000	-33640.110000	-436.365000	7603.605000	-0.780899	-1.945309	-3.098599	5.171709	0.168577	1.149899	-2.246465	-1.648910	1.083460	2.334780	0.015260	-0.867246	-0.402343	0.301025	-1.000000	-1.000000	-1.000000	-1.000000	-1.000000	-1.000000	-1.000000	58.000000	0.000000	-1.000000	-1.000000	582967.000000	1775717787.567395
-21061.665000	-40344.300000	-9098.460000	-2888.640000	-825.255000	-33649.875000	-440.415000	7596.135000	-0.852321	-1.575287	-2.446009	2.100682	0.013163	1.387110	-3.189117	-1.690233	1.083460	2.334780	0.015260	-0.867246	-0.402343	0.301025	-1.000000	-1.000000	-1.000000	-1.000000	-1.000000	-1.000000	-1.000000	58.000000	0.000000	-1.000000	-1.000000	582968.000000	1775717787.567422
-21074.040000	-40355.190000	-9108.765000	-2898.945000	-836.055000	-33661.665000	-448.965000	7581.870000	-0.841771	-0.989230	-1.502509	-1.600976	-0.646803	0.341843	-2.705790	-1.587636	1.083460	2.334780	0.015260	-0.867246	-0.402343	0.301025	-1.000000	-1.000000	-1.000000	-1.000000	-1.000000	-1.000000	-1.000000	58.000000	0.000000	-1.000000	-1.000000	582969.000000	1775717787.569894
-21068.595000	-40349.205000	-9102.870000	-2892.420000	-830.655000	-33661.440000	-449.955000	7584.795000	-1.660741	-1.365367	-1.488118	-5.124520	-2.145267	-1.946429	-1.765300	-2.348014	1.083460	2.334780	0.015260	-0.867246	-0.402343	0.301025	-1.000000	-1.000000	-1.000000	-1.000000	-1.000000	-1.000000	-1.000000	58.000000	0.000000	-1.000000	-1.000000	582970.000000	1775717787.569920
-21059.235000	-40343.895000	-9097.920000	-2886.435000	-823.680000	-33652.890000	-440.460000	7596.045000	-2.246702	-1.751188	-1.461061	-6.452564	-2.893274	-3.541960	-0.653162	-2.829660	-1.632820	2.258480	0.076300	-0.867613	-0.398498	0.300048	-1.000000	-1.000000	-1.000000	-1.000000	-1.000000	-1.000000	-1.000000	58.000000	0.000000	-1.000000	-1.000000	582971.000000	1775717787.582000
-21066.390000	-40355.550000	-9108.270000	-2893.995000	-827.190000	-33648.120000	-436.590000	7595.910000	-1.020738	-0.790451	-0.171010	-4.378968	-1.334240	-2.269791	1.258332	-1.090204	-1.632820	2.258480	0.076300	-0.867613	-0.398498	0.300048	-1.000000	-1.000000	-1.000000	-1.000000	-1.000000	-1.000000	-1.000000	58.000000	0.000000	-1.000000	-1.000000	582972.000000	1775717787.582027
-21062.520000	-40348.890000	-9099.225000	-2883.870000	-817.065000	-33642.180000	-437.985000	7598.340000	1.422235	0.961376	1.792552	-0.327741	1.822313	1.691667	3.727379	2.502458	-1.632820	2.258480	0.076300	-0.867613	-0.398498	0.300048	-1.000000	-1.000000	-1.000000	-1.000000	-1.000000	-1.000000	-1.000000	58.000000	0.000000	-1.000000	-1.000000	582973.000000	1775717787.582085
-21058.920000	-40340.925000	-9090.585000	-2874.465000	-809.595000	-33649.020000	-453.510000	7597.935000	3.276825	2.466991	3.432863	3.537775	4.732758	5.614868	4.831074	5.422293	-1.632820	2.258480	0.076300	-0.867613	-0.398498	0.300048	-1.000000	-1.000000	-1.000000	-1.000000	-1.000000	-1.000000	-1.000000	58.000000	0.000000	-1.000000	-1.000000	582974.000000	1775717787.582102
-21060.045000	-40341.330000	-9090.720000	-2876.490000	-815.805000	-33656.715000	-455.580000	7597.935000	3.668382	3.571893	4.501995	5.947526	5.923276	6.374667	2.857995	5.680694	-1.632820	2.258480	0.076300	-0.867613	-0.398498	0.300048	-1.000000	-1.000000	-1.000000	-1.000000	-1.000000	-1.000000	-1.000000	58.000000	0.000000	-1.000000	-1.000000	582975.000000	1775717787.590491
-21065.760000	-40348.665000	-9100.755000	-2887.155000	-825.930000	-33646.365000	-438.390000	7594.335000	2.499424	3.740537	4.242976	5.709004	4.190195	3.264626	-0.919537	3.187532	-1.632820	2.258480	0.076300	-0.867613	-0.398498	0.300048	-1.000000	-1.000000	-1.000000	-1.000000	-1.000000	-1.000000	-1.000000	58.000000	0.000000	-1.000000	-1.000000	582976.000000	1775717787.590516
-21068.505000	-40352.400000	-9105.480000	-2891.160000	-827.145000	-33635.070000	-423.090000	7592.535000	0.035688	2.018036	1.631151	2.164209	-0.431136	-0.932943	-2.688576	-0.681809	-1.632820	2.258480	0.076300	-0.867613	-0.398498	0.300048	-1.000000	-1.000000	-1.000000	-1.000000	-1.000000	-1.000000	-1.000000	58.000000	0.000000	-1.000000	-1.000000	582977.000000	1775717787.590545
-21065.220000	-40348.170000	-9099.945000	-2884.905000	-821.160000	-33640.425000	-429.075000	7594.560000	-2.625336	-1.141086	-2.506279	-2.973753	-5.417517	-3.009554	-0.675629	-3.990741	-1.632820	2.258480	0.076300	-0.867613	-0.398498	0.300048	-1.000000	-1.000000	-1.000000	-1.000000	-1.000000	-1.000000	-1.000000	58.000000	0.000000	-1.000000	-1.000000	582978.000000	1775717787.590558
-21059.100000	-40342.005000	-9092.970000	-2878.200000	-814.365000	-33639.840000	-432.630000	7597.395000	-3.773972	-3.566080	-5.326024	-6.172795	-7.310546	-2.812150	2.339374	-5.133214	-1.632820	2.258480	0.076300	-0.867613	-0.398498	0.300048	-1.000000	-1.000000	-1.000000	-1.000000	-1.000000	-1.000000	-1.000000	58.000000	0.000000	-1.000000	-1.000000	582979.000000	1775717787.590572
-21055.905000	-40338.135000	-9088.740000	-2874.735000	-810.585000	-33637.545000	-434.745000	7600.410000	-2.497906	-3.447782	-4.688275	-5.262520	-4.836959	-2.085474	2.618258	-3.704670	-1.632820	2.258480	0.076300	-0.867613	-0.398498	0.300048	-1.000000	-1.000000	-1.000000	-1.000000	-1.000000	-1.000000	-1.000000	58.000000	0.000000	-1.000000	-1.000000	582980.000000	1775717787.590583
-21056.265000	-40343.040000	-9094.410000	-2879.865000	-814.905000	-33641.640000	-444.150000	7600.860000	0.261806	-1.253041	-1.425360	-1.473900	-0.050492	-1.797068	-0.462389	-0.770056	-3.769220	1.037680	0.045780	-0.870054	-0.398559	0.297057	-1.000000	-1.000000	-1.000000	-1.000000	-1.000000	-1.000000	-1.000000	58.000000	0.000000	-1.000000	-1.000000	582981.000000	1775717787.596726
-21055.995000	-40340.745000	-9090.945000	-2876.895000	-814.995000	-33641.595000	-443.970000	7601.445000	2.457999	0.887636	1.659248	2.039011	3.577392	-1.917328	-4.670055	1.886515	-3.769220	1.037680	0.045780	-0.870054	-0.398559	0.297057	-1.000000	-1.000000	-1.000000	-1.000000	-1.000000	-1.000000	-1.000000	58.000000	0.000000	-1.000000	-1.000000	582982.000000	1775717787.596754
-21056.175000	-40338.855000	-9086.805000	-2872.890000	-814.140000	-33638.670000	-439.515000	7600.005000	2.721198	1.535321	2.764956	3.333907	4.133982	-1.948329	-6.988876	2.932379	-3.769220	1.037680	0.045780	-0.870054	-0.398559	0.297057	-1.000000	-1.000000	-1.000000	-1.000000	-1.000000	-1.000000	-1.000000	58.000000	0.000000	-1.000000	-1.000000	582983.000000	1775717787.618860
-21060.540000	-40345.470000	-9095.130000	-2880.270000	-819.045000	-33640.290000	-438.165000	7595.910000	1.155977	0.809361	2.034157	2.574491	2.201465	-1.304458	-5.564628	2.099120	-3.769220	1.037680	0.045780	-0.870054	-0.398559	0.297057	-1.000000	-1.000000	-1.000000	-1.000000	-1.000000	-1.000000	-1.000000	58.000000	0.000000	-1.000000	-1.000000	582984.000000	1775717787.618886
-21060.900000	-40348.035000	-9099.990000	-2886.210000	-823.005000	-33641.865000	-432.765000	7597.440000	-1.181782	-0.658030	0.111228	0.515203	-0.598859	-0.061887	-1.059422	0.121134	-3.769220	1.037680	0.045780	-0.870054	-0.398559	0.297057	-1.000000	-1.000000	-1.000000	-1.000000	-1.000000	-1.000000	-1.000000	58.000000	0.000000	-1.000000	-1.000000	582985.000000	1775717787.618912
-21059.370000	-40347.720000	-9099.405000	-2885.175000	-821.700000	-33641.010000	-430.290000	7599.330000	-2.926722	-2.097420	-2.191650	-1.966293	-2.782955	1.101450	4.010403	-1.621979	-3.769220	1.037680	0.045780	-0.870054	-0.398559	0.297057	-1.000000	-1.000000	-1.000000	-1.000000	-1.000000	-1.000000	-1.000000	58.000000	0.000000	-1.000000	-1.000000	582986.000000	1775717787.618923
-21060.315000	-40347.855000	-9099.495000	-2884.905000	-823.005000	-33647.085000	-433.260000	7598.430000	-3.074367	-2.531525	-3.481796	-3.440578	-3.286497	1.630965	7.028811	-2.024499	-3.769220	1.037680	0.045780	-0.870054	-0.398559	0.297057	-1.000000	-1.000000	-1.000000	-1.000000	-1.000000	-1.000000	-1.000000	58.000000	0.000000	-1.000000	-1.000000	582987.000000	1775717787.618935
-21060.720000	-40347.225000	-9098.775000	-2885.175000	-823.230000	-33647.220000	-435.555000	7596.855000	-1.698644	-1.508456	-2.768729	-2.862543	-1.970729	1.349630	6.554366	-1.165991	-3.769220	1.037680	0.045780	-0.870054	-0.398559	0.297057	-1.000000	-1.000000	-1.000000	-1.000000	-1.000000	-1.000000	-1.000000	58.000000	0.000000	-1.000000	-1.000000	582988.000000	1775717787.618945
-21059.280000	-40344.165000	-9094.770000	-2880.900000	-818.955000	-33642.720000	-436.725000	7596.855000	0.258656	0.489233	-0.376663	-0.559196	0.342853	0.686205	3.073154	0.029971	-3.769220	1.037680	0.045780	-0.870054	-0.398559	0.297057	-1.000000	-1.000000	-1.000000	-1.000000	-1.000000	-1.000000	-1.000000	58.000000	0.000000	-1.000000	-1.000000	582989.000000	1775717787.618956
-21056.940000	-40342.095000	-9091.935000	-2877.885000	-815.805000	-33639.390000	-436.995000	7596.810000	1.897325	2.520685	2.487551	2.256407	2.638309	0.540518	-1.297110	0.832410	-3.769220	1.037680	0.045780	-0.870054	-0.398559	0.297057	-1.000000	-1.000000	-1.000000	-1.000000	-1.000000	-1.000000	-1.000000	58.000000	0.000000	-1.000000	-1.000000	582990.000000	1775717787.618966
-21051.720000	-40338.945000	-9090.540000	-2876.625000	-812.970000	-33634.710000	-434.430000	7601.310000	2.843123	3.731680	4.481556	4.283344	4.109567	1.285610	-4.230753	1.169868	-1.648080	1.648080	0.122080	-0.869016	-0.403380	0.295837	-1.000000	-1.000000	-1.000000	-1.000000	-1.000000	-1.000000	-1.000000	58.000000	0.000000	-1.000000	-1.000000	582991.000000	1775717787.618978
-21052.530000	-40340.655000	-9091.035000	-2876.310000	-813.915000	-33633.630000	-430.065000	7604.370000	3.034246	3.606467	4.648020	4.572299	4.147729	2.280955	-4.489489	1.383661	-1.648080	1.648080	0.122080	-0.869016	-0.403380	0.295837	-1.000000	-1.000000	-1.000000	-1.000000	-1.000000	-1.000000	-1.000000	58.000000	0.000000	-1.000000	-1.000000	582992.000000	1775717787.618989
-21062.970000	-40348.890000	-9097.290000	-2882.430000	-819.855000	-33640.515000	-433.530000	7598.430000	2.150647	1.941144	2.765222	2.860295	2.461892	2.344217	-2.488473	1.490888	-1.648080	1.648080	0.122080	-0.869016	-0.403380	0.295837	-1.000000	-1.000000	-1.000000	-1.000000	-1.000000	-1.000000	-1.000000	58.000000	0.000000	-1.000000	-1.000000	582993.000000	1775717787.618999
-21063.600000	-40347.720000	-9096.705000	-2882.430000	-819.945000	-33644.655000	-433.665000	7597.800000	-0.113877	-0.911889	-0.471279	-0.246517	-0.548316	0.641255	0.043121	0.932313	-1.648080	1.648080	0.122080	-0.869016	-0.403380	0.295837	-1.000000	-1.000000	-1.000000	-1.000000	-1.000000	-1.000000	-1.000000	58.000000	0.000000	-1.000000	-1.000000	582994.000000	1775717787.619009
-21057.390000	-40341.060000	-9090.540000	-2876.940000	-815.535000	-33643.620000	-433.935000	7600.815000	-2.740767	-3.458294	-3.375897	-3.184839	-3.431051	-2.246318	1.504558	-0.373321	-1.648080	1.648080	0.122080	-0.869016	-0.403380	0.295837	-1.000000	-1.000000	-1.000000	-1.000000	-1.000000	-1.000000	-1.000000	58.000000	0.000000	-1.000000	-1.000000	582995.000000	1775717787.621834
-21056.760000	-40341.105000	-9089.505000	-2875.500000	-813.825000	-33641.325000	-434.115000	7601.040000	-3.716760	-3.904357	-4.174817	-4.193687	-4.431345	-4.374352	1.561659	-1.506975	-1.648080	1.648080	0.122080	-0.869016	-0.403380	0.295837	-1.000000	-1.000000	-1.000000	-1.000000	-1.000000	-1.000000	-1.000000	58.000000	0.000000	-1.000000	-1.000000	582996.000000	1775717787.621858
-21060.495000	-40346.235000	-9093.825000	-2877.975000	-814.365000	-33638.445000	-435.510000	7597.485000	-2.394648	-2.209214	-2.740778	-2.946278	-3.118394	-4.128158	0.805163	-1.746262	-1.648080	1.648080	0.122080	-0.869016	-0.403380	0.295837	-1.000000	-1.000000	-1.000000	-1.000000	-1.000000	-1.000000	-1.000000	58.000000	0.000000	-1.000000	-1.000000	582997.000000	1775717787.626581
-21057.030000	-40343.445000	-9092.835000	-2877.165000	-814.815000	-33637.005000	-435.960000	7599.915000	-0.102992	-0.058894	-0.651840	-0.797584	-0.733053	-1.638533	-0.065192	-1.288101	-1.648080	1.648080	0.122080	-0.869016	-0.403380	0.295837	-1.000000	-1.000000	-1.000000	-1.000000	-1.000000	-1.000000	-1.000000	58.000000	0.000000	-1.000000	-1.000000	582998.000000	1775717787.626600
-21057.840000	-40346.235000	-9097.875000	-2883.870000	-823.500000	-33644.115000	-442.980000	7596.630000	1.662126	1.193961	0.607920	0.680361	0.988977	1.344770	-0.708382	-0.601965	-1.648080	1.648080	0.122080	-0.869016	-0.403380	0.295837	-1.000000	-1.000000	-1.000000	-1.000000	-1.000000	-1.000000	-1.000000	58.000000	0.000000	-1.000000	-1.000000	582999.000000	1775717787.632474
-21057.255000	-40345.605000	-9096.255000	-2882.295000	-822.645000	-33645.195000	-443.475000	7597.170000	2.306243	1.375316	0.718750	0.847102	1.096697	2.806699	-1.147960	0.002538	-1.648080	1.648080	0.122080	-0.869016	-0.403380	0.295837	-1.000000	-1.000000	-1.000000	-1.000000	-1.000000	-1.000000	-1.000000	58.000000	0.000000	-1.000000	-1.000000	583000.000000	1775717787.632501
-21053.655000	-40340.025000	-9087.615000	-2873.340000	-815.490000	-33641.865000	-437.805000	7600.905000	1.959443	1.036405	0.460335	0.393858	0.267829	2.239896	-1.156818	0.464444	1.190280	1.434440	0.366240	-0.868101	-0.406310	0.297363	-1.000000	-1.000000	-1.000000	-1.000000	-1.000000	-1.000000	-1.000000	58.000000	0.000000	-1.000000	-1.000000	583001.000000	1775717787.643699
-21055.365000	-40339.890000	-9085.590000	-2870.460000	-811.170000	-33640.020000	-433.755000	7601.535000	1.132300	0.893278	0.901685	0.643838	0.158956	0.916147	-0.149921	0.968338	1.190280	1.434440	0.366240	-0.868101	-0.406310	0.297363	-1.000000	-1.000000	-1.000000	-1.000000	-1.000000	-1.000000	-1.000000	58.000000	0.000000	-1.000000	-1.000000	583002.000000	1775717787.643725
-21054.285000	-40338.945000	-9085.005000	-2869.065000	-809.730000	-33641.280000	-431.100000	7604.460000	0.216492	1.064384	2.002832	1.809222	1.358647	0.146742	1.778535	1.504736	1.190280	1.434440	0.366240	-0.868101	-0.406310	0.297363	-1.000000	-1.000000	-1.000000	-1.000000	-1.000000	-1.000000	-1.000000	58.000000	0.000000	-1.000000	-1.000000	583003.000000	1775717787.643747
-21058.740000	-40343.535000	-9089.010000	-2873.025000	-813.780000	-33645.465000	-432.720000	7601.310000	-0.699618	0.949695	2.494436	2.601005	2.638303	-0.028538	3.399142	1.675132	1.190280	1.434440	0.366240	-0.868101	-0.406310	0.297363	-1.000000	-1.000000	-1.000000	-1.000000	-1.000000	-1.000000	-1.000000	58.000000	0.000000	-1.000000	-1.000000	583004.000000	1775717787.643755
-21055.815000	-40341.375000	-9086.265000	-2868.390000	-811.170000	-33640.875000	-429.615000	7603.920000	-1.510678	0.098114	1.452595	1.876863	2.478286	-0.180327	3.426737	1.111741	1.190280	1.434440	0.366240	-0.868101	-0.406310	0.297363	-1.000000	-1.000000	-1.000000	-1.000000	-1.000000	-1.000000	-1.000000	58.000000	0.000000	-1.000000	-1.000000	583005.000000	1775717787.645207
-21056.490000	-40342.140000	-9087.345000	-2856.555000	-812.565000	-33642.630000	-433.080000	7602.660000	-1.852678	-1.101675	-0.599615	0.205471	0.756879	-0.371413	1.696252	-0.024864	1.190280	1.434440	0.366240	-0.868101	-0.406310	0.297363	-1.000000	-1.000000	-1.000000	-1.000000	-1.000000	-1.000000	-1.000000	58.000000	0.000000	-1.000000	-1.000000	583006.000000	1775717787.645238
-21057.570000	-40346.055000	-9093.690000	-2852.235000	-813.645000	-33641.415000	-435.060000	7600.995000	-1.462115	-1.903507	-2.476092	-0.769441	-1.416662	-0.356846	-0.949883	-1.186268	1.190280	1.434440	0.366240	-0.868101	-0.406310	0.297363	-1.000000	-1.000000	-1.000000	-1.000000	-1.000000	-1.000000	-1.000000	58.000000	0.000000	-1.000000	-1.000000	583007.000000	1775717787.645936
-21056.265000	-40346.910000	-9095.850000	-2871.540000	-816.975000	-33639.345000	-433.665000	7602.390000	-0.572838	-2.039768	-3.534707	-0.890023	-2.965788	-0.122130	-3.307969	-1.910883	1.190280	1.434440	0.366240	-0.868101	-0.406310	0.297363	-1.000000	-1.000000	-1.000000	-1.000000	-1.000000	-1.000000	-1.000000	58.000000	0.000000	-1.000000	-1.000000	583008.000000	1775717787.645953
-21054.285000	-40340.340000	-9088.875000	-2896.290000	-820.800000	-33641.955000	-436.455000	7601.310000	0.421131	-1.466099	-3.410304	-2.264081	-3.469910	0.166018	-4.300484	-1.925912	1.190280	1.434440	0.366240	-0.868101	-0.406310	0.297363	-1.000000	-1.000000	-1.000000	-1.000000	-1.000000	-1.000000	-1.000000	58.000000	0.000000	-1.000000	-1.000000	583009.000000	1775717787.654908
-21055.905000	-40338.000000	-9083.430000	-2878.155000	-815.580000	-33642.450000	-433.530000	7601.535000	1.219475	-0.027652	-1.621650	-5.570336	-2.877329	0.211466	-3.562433	-1.253941	1.190280	1.434440	0.366240	-0.868101	-0.406310	0.297363	-1.000000	-1.000000	-1.000000	-1.000000	-1.000000	-1.000000	-1.000000	58.000000	0.000000	-1.000000	-1.000000	583010.000000	1775717787.654932
-21057.795000	-40338.315000	-9082.440000	-2872.665000	-814.365000	-33646.005000	-434.790000	7599.555000	1.457328	1.850346	1.466563	-7.264336	-1.156188	-0.188294	-1.569440	-0.286061	1.678600	1.052940	0.457800	-0.866941	-0.404784	0.299804	-1.000000	-1.000000	-1.000000	-1.000000	-1.000000	-1.000000	-1.000000	58.000000	0.000000	-1.000000	-1.000000	583011.000000	1775717787.655608
-21057.660000	-40341.195000	-9086.445000	-2875.635000	-817.380000	-33649.425000	-438.660000	7598.340000	0.945084	2.945250	4.076949	-4.030326	1.196096	-0.903865	0.638505	0.480922	1.678600	1.052940	0.457800	-0.866941	-0.404784	0.299804	-1.000000	-1.000000	-1.000000	-1.000000	-1.000000	-1.000000	-1.000000	58.000000	0.000000	-1.000000	-1.000000	583012.000000	1775717787.655631
-21048.300000	-40337.145000	-9085.545000	-2873.160000	-812.790000	-33641.730000	-432.495000	7607.340000	0.204960	2.432390	4.405776	2.408168	3.010456	-1.383044	2.080419	0.955880	1.678600	1.052940	0.457800	-0.866941	-0.404784	0.299804	-1.000000	-1.000000	-1.000000	-1.000000	-1.000000	-1.000000	-1.000000	58.000000	0.000000	-1.000000	-1.000000	583013.000000	1775717787.665011
-21045.780000	-40336.470000	-9088.245000	-2874.780000	-812.205000	-33633.405000	-430.470000	7609.320000	0.162485	0.829980	2.332767	7.664555	3.543503	-0.712310	2.653737	1.556566	1.678600	1.052940	0.457800	-0.866941	-0.404784	0.299804	-1.000000	-1.000000	-1.000000	-1.000000	-1.000000	-1.000000	-1.000000	58.000000	0.000000	-1.000000	-1.000000	583014.000000	1775717787.665037
-21045.555000	-40334.220000	-9084.195000	-2871.045000	-809.550000	-33632.325000	-429.480000	7609.995000	0.879928	-0.687958	-0.616133	9.029537	2.926308	1.323296	2.736179	2.286340	1.678600	1.052940	0.457800	-0.866941	-0.404784	0.299804	-1.000000	-1.000000	-1.000000	-1.000000	-1.000000	-1.000000	-1.000000	58.000000	0.000000	-1.000000	-1.000000	583015.000000	1775717787.665065
-21048.840000	-40336.020000	-9082.755000	-2870.010000	-811.260000	-33638.040000	-430.650000	7607.520000	1.250249	-1.472452	-2.587952	6.678274	1.582713	3.236437	2.289166	2.314741	1.678600	1.052940	0.457800	-0.866941	-0.404784	0.299804	-1.000000	-1.000000	-1.000000	-1.000000	-1.000000	-1.000000	-1.000000	58.000000	0.000000	-1.000000	-1.000000	583016.000000	1775717787.665076
-21059.955000	-40342.995000	-9087.525000	-2874.600000	-818.955000	-33650.595000	-436.815000	7599.420000	0.159251	-1.758470	-2.803848	2.420607	-0.241542	2.863158	0.998513	0.887917	1.678600	1.052940	0.457800	-0.866941	-0.404784	0.299804	-1.000000	-1.000000	-1.000000	-1.000000	-1.000000	-1.000000	-1.000000	58.000000	0.000000	-1.000000	-1.000000	583017.000000	1775717787.666777
-21057.345000	-40341.870000	-9083.295000	-2868.660000	-812.880000	-33643.845000	-435.510000	7601.175000	-2.268143	-2.047268	-1.864041	-1.818983	-2.211186	-0.185532	-1.014405	-1.690356	1.678600	1.052940	0.457800	-0.866941	-0.404784	0.299804	-1.000000	-1.000000	-1.000000	-1.000000	-1.000000	-1.000000	-1.000000	58.000000	0.000000	-1.000000	-1.000000	583018.000000	1775717787.666835
-21053.565000	-40342.860000	-9084.915000	-2868.705000	-808.245000	-33632.685000	-431.640000	7605.720000	-4.245517	-2.182989	-0.633546	-4.474619	-3.265637	-3.341633	-2.721213	-3.798883	1.678600	1.052940	0.457800	-0.866941	-0.404784	0.299804	-1.000000	-1.000000	-1.000000	-1.000000	-1.000000	-1.000000	-1.000000	58.000000	0.000000	-1.000000	-1.000000	583019.000000	1775717787.675132
-21056.895000	-40347.495000	-9092.880000	-2876.760000	-814.950000	-33640.965000	-432.270000	7605.720000	-3.895061	-1.661646	0.254147	-5.014661	-2.584489	-3.735084	-2.909993	-3.748225	1.678600	1.052940	0.457800	-0.866941	-0.404784	0.299804	-1.000000	-1.000000	-1.000000	-1.000000	-1.000000	-1.000000	-1.000000	58.000000	0.000000	-1.000000	-1.000000	583020.000000	1775717787.675160
-21050.865000	-40339.305000	-9085.230000	-2869.605000	-808.965000	-33641.055000	-431.820000	7608.420000	-1.273921	-0.406911	0.419716	-4.147411	-0.865241	-1.660598	-1.550243	-1.537789	-0.518840	0.656180	0.427280	-0.866026	-0.402343	0.302856	-1.000000	-1.000000	-1.000000	-1.000000	-1.000000	-1.000000	-1.000000	58.000000	0.000000	-1.000000	-1.000000	583021.000000	1775717787.675187
-21048.615000	-40336.695000	-9081.990000	-2866.230000	-804.105000	-33634.935000	-430.245000	7609.635000	2.082461	1.436776	0.401726	-2.443467	0.821493	0.652948	0.287907	1.307710	-0.518840	0.656180	0.427280	-0.866026	-0.402343	0.302856	-1.000000	-1.000000	-1.000000	-1.000000	-1.000000	-1.000000	-1.000000	58.000000	0.000000	-1.000000	-1.000000	583022.000000	1775717787.675198
-21046.320000	-40335.795000	-9081.225000	-2864.790000	-800.865000	-33634.665000	-435.870000	7613.820000	4.578775	3.364606	0.981048	-0.093994	2.121545	2.055927	1.482016	3.251664	-0.518840	0.656180	0.427280	-0.866026	-0.402343	0.302856	-1.000000	-1.000000	-1.000000	-1.000000	-1.000000	-1.000000	-1.000000	58.000000	0.000000	-1.000000	-1.000000	583023.000000	1775717787.681143
-21048.750000	-40337.370000	-9082.665000	-2866.545000	-805.140000	-33641.325000	-444.555000	7608.105000	5.095187	4.240211	1.796469	2.060050	2.656713	2.326561	1.277949	3.517019	-0.518840	0.656180	0.427280	-0.866026	-0.402343	0.302856	-1.000000	-1.000000	-1.000000	-1.000000	-1.000000	-1.000000	-1.000000	58.000000	0.000000	-1.000000	-1.000000	583024.000000	1775717787.681171
-21048.075000	-40335.480000	-9080.955000	-2865.960000	-808.245000	-33637.230000	-432.000000	7609.635000	3.387255	3.273148	1.881946	2.889938	1.787132	1.362970	-0.053251	2.060174	-0.518840	0.656180	0.427280	-0.866026	-0.402343	0.302856	-1.000000	-1.000000	-1.000000	-1.000000	-1.000000	-1.000000	-1.000000	58.000000	0.000000	-1.000000	-1.000000	583025.000000	1775717787.681802
-21057.210000	-40344.795000	-9089.415000	-2874.870000	-816.885000	-33630.525000	-417.735000	7603.290000	0.208454	0.767506	0.827490	1.979548	-0.540208	-0.074819	-0.615179	-0.415943	-0.518840	0.656180	0.427280	-0.866026	-0.402343	0.302856	-1.000000	-1.000000	-1.000000	-1.000000	-1.000000	-1.000000	-1.000000	58.000000	0.000000	-1.000000	-1.000000	583026.000000	1775717787.681817
-21052.980000	-40341.105000	-9085.455000	-2870.505000	-812.295000	-33635.340000	-421.650000	7606.125000	-3.075963	-2.218185	-0.986952	-0.095929	-3.212394	-0.785851	0.981659	-2.681394	-0.518840	0.656180	0.427280	-0.866026	-0.402343	0.302856	-1.000000	-1.000000	-1.000000	-1.000000	-1.000000	-1.000000	-1.000000	58.000000	0.000000	-1.000000	-1.000000	583027.000000	1775717787.687482
-21035.835000	-40329.270000	-9077.715000	-2864.250000	-805.320000	-33633.045000	-419.535000	7621.650000	-4.558786	-4.002267	-2.324972	-1.790733	-4.264976	-0.679168	3.216862	-3.283180	-0.518840	0.656180	0.427280	-0.866026	-0.402343	0.302856	-1.000000	-1.000000	-1.000000	-1.000000	-1.000000	-1.000000	-1.000000	58.000000	0.000000	-1.000000	-1.000000	583028.000000	1775717787.687507
-21036.420000	-40329.720000	-9079.470000	-2866.005000	-806.625000	-33634.620000	-425.925000	7619.670000	-2.839113	-3.162531	-1.955804	-1.693021	-2.525355	-0.467350	3.422002	-1.393040	-0.518840	0.656180	0.427280	-0.866026	-0.402343	0.302856	-1.000000	-1.000000	-1.000000	-1.000000	-1.000000	-1.000000	-1.000000	58.000000	0.000000	-1.000000	-1.000000	583029.000000	1775717787.690380
-21036.870000	-40320.450000	-9074.610000	-2860.605000	-799.920000	-33616.845000	-421.965000	7615.305000	0.818376	-0.248032	-0.180924	-0.051352	0.968740	-0.193063	0.910091	1.604546	-0.518840	0.656180	0.427280	-0.866026	-0.402343	0.302856	-1.000000	-1.000000	-1.000000	-1.000000	-1.000000	-1.000000	-1.000000	58.000000	0.000000	-1.000000	-1.000000	583030.000000	1775717787.690405
-21051.810000	-40335.930000	-9088.110000	-2873.655000	-813.060000	-33628.545000	-427.320000	7602.480000	3.031143	2.370167	1.325954	1.497643	3.774857	0.543541	-2.660529	2.784651	-2.197440	1.510740	0.488320	-0.864500	-0.401366	0.303466	-1.000000	-1.000000	-1.000000	-1.000000	-1.000000	-1.000000	-1.000000	58.000000	0.000000	-1.000000	-1.000000	583031.000000	1775717787.693248
-21062.250000	-40349.610000	-9097.740000	-2882.880000	-823.095000	-33643.080000	-437.895000	7592.220000	1.503066	2.170092	0.895762	1.239610	3.721141	0.793151	-5.321639	0.627425	-2.197440	1.510740	0.488320	-0.864500	-0.401366	0.303466	-1.000000	-1.000000	-1.000000	-1.000000	-1.000000	-1.000000	-1.000000	58.000000	0.000000	-1.000000	-1.000000	583032.000000	1775717787.693267
-21046.455000	-40334.715000	-9085.590000	-2871.540000	-813.240000	-33636.825000	-430.245000	7607.520000	-2.443866	-0.989536	-1.289966	-0.820452	0.817624	-0.790570	-6.093199	-3.084616	-2.197440	1.510740	0.488320	-0.864500	-0.401366	0.303466	-1.000000	-1.000000	-1.000000	-1.000000	-1.000000	-1.000000	-1.000000	58.000000	0.000000	-1.000000	-1.000000	583033.000000	1775717787.697226
-21044.340000	-40333.545000	-9083.745000	-2868.705000	-809.595000	-33635.295000	-427.230000	7609.455000	-4.666139	-3.792833	-2.674026	-2.290216	-2.064799	-3.004505	-4.399430	-4.512874	-2.197440	1.510740	0.488320	-0.864500	-0.401366	0.303466	-1.000000	-1.000000	-1.000000	-1.000000	-1.000000	-1.000000	-1.000000	58.000000	0.000000	-1.000000	-1.000000	583034.000000	1775717787.697244
-21046.365000	-40336.830000	-9082.080000	-2866.905000	-809.280000	-33635.745000	-426.870000	7609.095000	-2.808400	-3.330449	-1.355920	-1.239553	-2.265278	-3.355759	-0.472146	-1.925077	-2.197440	1.510740	0.488320	-0.864500	-0.401366	0.303466	-1.000000	-1.000000	-1.000000	-1.000000	-1.000000	-1.000000	-1.000000	58.000000	0.000000	-1.000000	-1.000000	583035.000000	1775717787.704292
-21053.745000	-40340.655000	-9082.665000	-2867.355000	-810.405000	-33640.425000	-430.290000	7605.405000	1.103166	-0.505326	1.577481	1.410336	-0.205298	-1.442920	3.734188	2.368065	-2.197440	1.510740	0.488320	-0.864500	-0.401366	0.303466	-1.000000	-1.000000	-1.000000	-1.000000	-1.000000	-1.000000	-1.000000	58.000000	0.000000	-1.000000	-1.000000	583036.000000	1775717787.704317
-21051.180000	-40337.280000	-9080.190000	-2864.655000	-808.155000	-33641.280000	-427.500000	7607.430000	3.649018	2.075658	3.750535	3.395241	1.896002	1.061646	5.905927	4.976766	-2.197440	1.510740	0.488320	-0.864500	-0.401366	0.303466	-1.000000	-1.000000	-1.000000	-1.000000	-1.000000	-1.000000	-1.000000	58.000000	0.000000	-1.000000	-1.000000	583037.000000	1775717787.706657
-21047.985000	-40332.870000	-9075.330000	-2860.245000	-803.745000	-33636.915000	-422.865000	7611.075000	3.696184	3.225442	3.957782	3.524986	2.634039	2.689209	5.439696	4.706466	-2.197440	1.510740	0.488320	-0.864500	-0.401366	0.303466	-1.000000	-1.000000	-1.000000	-1.000000	-1.000000	-1.000000	-1.000000	58.000000	0.000000	-1.000000	-1.000000	583038.000000	1775717787.706679
-21043.305000	-40326.975000	-9070.425000	-2855.205000	-798.570000	-33629.265000	-417.915000	7616.250000	2.477872	3.361761	2.663761	2.232534	2.156283	3.385069	3.502496	2.714558	-2.197440	1.510740	0.488320	-0.864500	-0.401366	0.303466	-1.000000	-1.000000	-1.000000	-1.000000	-1.000000	-1.000000	-1.000000	58.000000	0.000000	-1.000000	-1.000000	583039.000000	1775717787.716708
-21046.995000	-40332.555000	-9077.805000	-2862.090000	-804.240000	-33630.300000	-424.755000	7612.110000	1.319967	2.933822	0.757353	0.396418	1.073076	3.630085	1.306581	0.556765	-2.197440	1.510740	0.488320	-0.864500	-0.401366	0.303466	-1.000000	-1.000000	-1.000000	-1.000000	-1.000000	-1.000000	-1.000000	58.000000	0.000000	-1.000000	-1.000000	583040.000000	1775717787.716735
-21043.980000	-40329.225000	-9074.520000	-2858.895000	-801.045000	-33629.040000	-426.420000	7614.900000	0.399905	1.718560	-1.391811	-1.595776	-0.425148	3.225914	-0.948395	-1.181783	-2.578940	1.678600	0.900340	-0.865232	-0.401549	0.303710	-1.000000	-1.000000	-1.000000	-1.000000	-1.000000	-1.000000	-1.000000	58.000000	0.000000	-1.000000	-1.000000	583041.000000	1775717787.716813
-21039.210000	-40323.645000	-9066.960000	-2850.930000	-794.205000	-33629.670000	-428.805000	7617.600000	-0.421965	-0.131332	-3.151920	-3.143730	-1.899981	1.703314	-3.198349	-2.368262	-2.578940	1.678600	0.900340	-0.865232	-0.401549	0.303710	-1.000000	-1.000000	-1.000000	-1.000000	-1.000000	-1.000000	-1.000000	58.000000	0.000000	-1.000000	-1.000000	583042.000000	1775717787.716828
-21032.820000	-40317.390000	-9060.570000	-2844.720000	-788.535000	-33633.720000	-427.095000	7623.135000	-0.807546	-1.539694	-3.339195	-3.149469	-2.337917	-0.745621	-4.637959	-2.633527	-2.578940	1.678600	0.900340	-0.865232	-0.401549	0.303710	-1.000000	-1.000000	-1.000000	-1.000000	-1.000000	-1.000000	-1.000000	58.000000	0.000000	-1.000000	-1.000000	583043.000000	1775717787.718002
-21034.080000	-40319.280000	-9062.595000	-2847.420000	-789.660000	-33631.920000	-421.155000	7622.820000	-0.580432	-1.798437	-1.766846	-1.515051	-1.440048	-3.238180	-4.259904	-1.863748	-2.578940	1.678600	0.900340	-0.865232	-0.401549	0.303710	-1.000000	-1.000000	-1.000000	-1.000000	-1.000000	-1.000000	-1.000000	58.000000	0.000000	-1.000000	-1.000000	583044.000000	1775717787.718019
-21046.905000	-40332.555000	-9076.050000	-2862.045000	-806.760000	-33637.005000	-418.680000	7614.720000	-0.566675	-1.703934	-0.125978	0.009725	-0.549499	-4.701793	-1.871367	-0.854687	-2.578940	1.678600	0.900340	-0.865232	-0.401549	0.303710	-1.000000	-1.000000	-1.000000	-1.000000	-1.000000	-1.000000	-1.000000	58.000000	0.000000	-1.000000	-1.000000	583045.000000	1775717787.726371
-21050.955000	-40336.155000	-9080.280000	-2866.905000	-814.680000	-33641.595000	-419.265000	7611.975000	-1.858328	-2.572514	-0.368117	-0.492949	-1.428937	-4.656380	1.351166	-0.758358	-2.578940	1.678600	0.900340	-0.865232	-0.401549	0.303710	-1.000000	-1.000000	-1.000000	-1.000000	-1.000000	-1.000000	-1.000000	58.000000	0.000000	-1.000000	-1.000000	583046.000000	1775717787.726398
-21049.920000	-40333.995000	-9077.670000	-2862.270000	-804.870000	-33630.210000	-419.310000	7610.130000	-3.936555	-4.073824	-2.202267	-2.528615	-3.588030	-3.196532	3.515278	-1.646510	-2.578940	1.678600	0.900340	-0.865232	-0.401549	0.303710	-1.000000	-1.000000	-1.000000	-1.000000	-1.000000	-1.000000	-1.000000	58.000000	0.000000	-1.000000	-1.000000	583047.000000	1775717787.740417
-21050.820000	-40336.020000	-9080.145000	-2865.150000	-808.155000	-33631.875000	-425.610000	7607.430000	-4.734644	-4.297699	-3.294099	-3.510645	-4.205715	-0.445471	3.420732	-2.362092	-2.578940	1.678600	0.900340	-0.865232	-0.401549	0.303710	-1.000000	-1.000000	-1.000000	-1.000000	-1.000000	-1.000000	-1.000000	58.000000	0.000000	-1.000000	-1.000000	583048.000000	1775717787.740446
-21046.320000	-40332.645000	-9078.885000	-2864.295000	-809.865000	-33634.080000	-422.820000	7613.280000	-2.924236	-2.163194	-2.085181	-1.918527	-1.800969	2.686661	1.342257	-1.781063	-2.578940	1.678600	0.900340	-0.865232	-0.401549	0.303710	-1.000000	-1.000000	-1.000000	-1.000000	-1.000000	-1.000000	-1.000000	58.000000	0.000000	-1.000000	-1.000000	583049.000000	1775717787.740477
-21043.305000	-40330.620000	-9079.785000	-2863.485000	-807.525000	-33631.155000	-419.220000	7617.555000	0.886255	1.528186	0.838507	1.357614	2.122148	4.496201	-1.090872	0.390868	-2.578940	1.678600	0.900340	-0.865232	-0.401549	0.303710	-1.000000	-1.000000	-1.000000	-1.000000	-1.000000	-1.000000	-1.000000	58.000000	0.000000	-1.000000	-1.000000	583050.000000	1775717787.740489
-21044.700000	-40330.710000	-9077.265000	-2860.470000	-805.770000	-33631.875000	-422.595000	7615.485000	4.737194	4.957827	3.792255	4.455716	5.294168	4.202868	-2.206146	3.275199	-2.258480	3.662400	1.022420	-0.864439	-0.401610	0.305236	-1.000000	-1.000000	-1.000000	-1.000000	-1.000000	-1.000000	-1.000000	58.000000	0.000000	-1.000000	-1.000000	583051.000000	1775717787.740504
-21051.000000	-40335.165000	-9080.145000	-2863.530000	-807.615000	-33635.025000	-425.745000	7610.670000	6.422689	6.351327	5.317923	5.909466	6.401382	2.335830	-1.852260	4.992659	-2.258480	3.662400	1.022420	-0.864439	-0.401610	0.305236	-1.000000	-1.000000	-1.000000	-1.000000	-1.000000	-1.000000	-1.000000	58.000000	0.000000	-1.000000	-1.000000	583052.000000	1775717787.740514
-21043.395000	-40325.445000	-9072.675000	-2857.545000	-803.115000	-33631.830000	-422.460000	7615.395000	5.062902	5.151685	4.927981	5.200999	5.252968	-0.080392	-0.942277	4.268637	-2.258480	3.662400	1.022420	-0.864439	-0.401610	0.305236	-1.000000	-1.000000	-1.000000	-1.000000	-1.000000	-1.000000	-1.000000	58.000000	0.000000	-1.000000	-1.000000	583053.000000	1775717787.740528
-21043.530000	-40329.675000	-9076.230000	-2860.560000	-806.310000	-33638.175000	-422.190000	7616.655000	1.981015	2.476621	3.173999	2.913557	2.628015	-2.013351	0.001933	1.828158	-2.258480	3.662400	1.022420	-0.864439	-0.401610	0.305236	-1.000000	-1.000000	-1.000000	-1.000000	-1.000000	-1.000000	-1.000000	58.000000	0.000000	-1.000000	-1.000000	583054.000000	1775717787.740538
-21051.405000	-40338.585000	-9085.095000	-2860.155000	-813.105000	-33644.970000	-427.545000	7611.255000	-0.938950	-0.420855	0.697115	0.103815	-0.485284	-3.058253	0.783859	-0.693114	-2.258480	3.662400	1.022420	-0.864439	-0.401610	0.305236	-1.000000	-1.000000	-1.000000	-1.000000	-1.000000	-1.000000	-1.000000	58.000000	0.000000	-1.000000	-1.000000	583055.000000	1775717787.744446
-21057.390000	-40340.835000	-9086.355000	-2846.385000	-812.655000	-33648.525000	-432.225000	7606.620000	-3.116799	-3.157109	-2.192281	-2.093167	-3.348902	-3.434086	0.918764	-2.540295	-2.258480	3.662400	1.022420	-0.864439	-0.401610	0.305236	-1.000000	-1.000000	-1.000000	-1.000000	-1.000000	-1.000000	-1.000000	58.000000	0.000000	-1.000000	-1.000000	583056.000000	1775717787.744473
-21057.930000	-40340.790000	-9082.215000	-2844.765000	-808.020000	-33644.115000	-431.595000	7605.720000	-4.534176	-5.094822	-4.504518	-2.588201	-4.940088	-3.003556	0.233753	-3.643705	-2.258480	3.662400	1.022420	-0.864439	-0.401610	0.305236	-1.000000	-1.000000	-1.000000	-1.000000	-1.000000	-1.000000	-1.000000	58.000000	0.000000	-1.000000	-1.000000	583057.000000	1775717787.751519
-21046.905000	-40331.160000	-9073.530000	-2872.620000	-806.535000	-33630.480000	-421.740000	7613.595000	-4.414191	-4.954158	-4.601829	-2.039139	-4.277895	-1.023172	-0.363365	-3.556144	-2.258480	3.662400	1.022420	-0.864439	-0.401610	0.305236	-1.000000	-1.000000	-1.000000	-1.000000	-1.000000	-1.000000	-1.000000	58.000000	0.000000	-1.000000	-1.000000	583058.000000	1775717787.751550
-21040.830000	-40333.500000	-9078.840000	-2878.695000	-809.235000	-33626.880000	-421.515000	7618.995000	-1.876186	-2.249083	-2.104751	-2.904352	-1.755813	2.631096	0.267096	-1.675330	-2.258480	3.662400	1.022420	-0.864439	-0.401610	0.305236	-1.000000	-1.000000	-1.000000	-1.000000	-1.000000	-1.000000	-1.000000	58.000000	0.000000	-1.000000	-1.000000	583059.000000	1775717787.751578
-21044.070000	-40336.065000	-9081.765000	-2870.865000	-810.495000	-33637.770000	-429.345000	7615.215000	2.200009	1.495368	1.080585	-5.332692	0.876242	6.010755	1.680591	1.398973	-2.258480	3.662400	1.022420	-0.864439	-0.401610	0.305236	-1.000000	-1.000000	-1.000000	-1.000000	-1.000000	-1.000000	-1.000000	58.000000	0.000000	-1.000000	-1.000000	583060.000000	1775717787.751589
-21044.835000	-40335.300000	-9081.045000	-2869.290000	-811.575000	-33641.640000	-431.370000	7613.235000	5.105326	3.846021	2.619923	-5.993888	2.125104	6.129533	2.060302	3.623522	-0.610400	3.952340	0.595140	-0.865049	-0.402831	0.305358	-1.000000	-1.000000	-1.000000	-1.000000	-1.000000	-1.000000	-1.000000	58.000000	0.000000	-1.000000	-1.000000	583061.000000	1775717787.767588
-21042.945000	-40333.005000	-9077.580000	-2865.825000	-809.325000	-33638.220000	-427.680000	7615.485000	4.890158	3.803556	2.129157	-2.667756	1.875299	2.397483	0.719029	3.476214	-0.610400	3.952340	0.595140	-0.865049	-0.402831	0.305358	-1.000000	-1.000000	-1.000000	-1.000000	-1.000000	-1.000000	-1.000000	58.000000	0.000000	-1.000000	-1.000000	583062.000000	1775717787.767615
-21036.645000	-40326.840000	-9071.370000	-2858.940000	-802.035000	-33628.680000	-418.140000	7622.235000	2.229708	2.307103	0.981391	3.130384	1.132847	-2.242321	-0.869375	1.586658	-0.610400	3.952340	0.595140	-0.865049	-0.402831	0.305358	-1.000000	-1.000000	-1.000000	-1.000000	-1.000000	-1.000000	-1.000000	58.000000	0.000000	-1.000000	-1.000000	583063.000000	1775717787.767663
-21044.340000	-40331.565000	-9075.555000	-2862.495000	-805.140000	-33630.390000	-421.020000	7616.115000	-0.843025	0.706451	0.358368	8.035385	0.842167	-4.421208	-1.065945	-0.366300	-0.610400	3.952340	0.595140	-0.865049	-0.402831	0.305358	-1.000000	-1.000000	-1.000000	-1.000000	-1.000000	-1.000000	-1.000000	58.000000	0.000000	-1.000000	-1.000000	583064.000000	1775717787.767675
-21048.435000	-40333.230000	-9076.680000	-2862.630000	-806.040000	-33630.660000	-423.360000	7612.200000	-3.181999	-0.618297	0.083002	9.277947	0.819622	-3.593818	-0.178622	-1.712194	-0.610400	3.952340	0.595140	-0.865049	-0.402831	0.305358	-1.000000	-1.000000	-1.000000	-1.000000	-1.000000	-1.000000	-1.000000	58.000000	0.000000	-1.000000	-1.000000	583065.000000	1775717787.767693
-21046.140000	-40331.160000	-9074.385000	-2860.110000	-805.095000	-33628.320000	-426.555000	7610.895000	-4.523597	-1.808388	-0.479594	6.363982	0.333088	-1.549550	0.229272	-2.690638	-0.610400	3.952340	0.595140	-0.865049	-0.402831	0.305358	-1.000000	-1.000000	-1.000000	-1.000000	-1.000000	-1.000000	-1.000000	58.000000	0.000000	-1.000000	-1.000000	583066.000000	1775717787.767704
-21044.790000	-40336.245000	-9076.815000	-2862.315000	-806.040000	-33629.715000	-426.690000	7615.755000	-4.368970	-2.607731	-1.221274	1.247365	-0.649854	0.037780	-0.526266	-3.042341	-0.610400	3.952340	0.595140	-0.865049	-0.402831	0.305358	-1.000000	-1.000000	-1.000000	-1.000000	-1.000000	-1.000000	-1.000000	58.000000	0.000000	-1.000000	-1.000000	583067.000000	1775717787.767716
-21047.895000	-40339.890000	-9079.830000	-2864.835000	-806.670000	-33631.695000	-431.055000	7612.830000	-2.529268	-2.781569	-1.719844	-3.503340	-1.560817	0.537602	-1.757046	-2.161900	-0.610400	3.952340	0.595140	-0.865049	-0.402831	0.305358	-1.000000	-1.000000	-1.000000	-1.000000	-1.000000	-1.000000	-1.000000	58.000000	0.000000	-1.000000	-1.000000	583068.000000	1775717787.767725
-21046.860000	-40335.885000	-9075.825000	-2859.705000	-801.495000	-33633.765000	-431.100000	7613.325000	0.080300	-2.326542	-1.755684	-6.168920	-1.834288	0.063477	-2.454883	-0.308146	-0.610400	3.952340	0.595140	-0.865049	-0.402831	0.305358	-1.000000	-1.000000	-1.000000	-1.000000	-1.000000	-1.000000	-1.000000	58.000000	0.000000	-1.000000	-1.000000	583069.000000	1775717787.773330
-21040.245000	-40328.640000	-9069.345000	-2852.415000	-794.070000	-33639.615000	-437.850000	7618.320000	2.336625	-0.949620	-0.991727	-5.923272	-1.040260	-0.860359	-2.170131	1.566681	-0.610400	3.952340	0.595140	-0.865049	-0.402831	0.305358	-1.000000	-1.000000	-1.000000	-1.000000	-1.000000	-1.000000	-1.000000	58.000000	0.000000	-1.000000	-1.000000	583070.000000	1775717787.773351
-21045.870000	-40334.670000	-9074.565000	-2858.670000	-801.315000	-33643.800000	-440.415000	7614.135000	3.670359	1.285175	0.573186	-3.226412	0.546197	-1.682961	-1.183623	2.740970	-0.076300	3.647140	0.228900	-0.866270	-0.401427	0.304565	-1.000000	-1.000000	-1.000000	-1.000000	-1.000000	-1.000000	-1.000000	58.000000	0.000000	-1.000000	-1.000000	583071.000000	1775717787.774800
-21049.335000	-40340.880000	-9084.195000	-2867.985000	-813.555000	-33635.430000	-423.810000	7613.910000	3.575193	2.988625	1.735753	-0.261865	1.370475	-1.761706	0.318011	2.758503	-0.076300	3.647140	0.228900	-0.866270	-0.401427	0.304565	-1.000000	-1.000000	-1.000000	-1.000000	-1.000000	-1.000000	-1.000000	58.000000	0.000000	-1.000000	-1.000000	583072.000000	1775717787.774818
-21052.350000	-40345.065000	-9093.690000	-2872.350000	-814.095000	-33624.855000	-416.430000	7611.885000	1.827508	2.639131	1.016908	0.729554	0.109405	-0.231110	2.765809	1.552539	-0.076300	3.647140	0.228900	-0.866270	-0.401427	0.304565	-1.000000	-1.000000	-1.000000	-1.000000	-1.000000	-1.000000	-1.000000	58.000000	0.000000	-1.000000	-1.000000	583073.000000	1775717787.778207
-21051.090000	-40343.715000	-9095.130000	-2873.790000	-819.045000	-33637.005000	-428.445000	7609.005000	-0.665781	0.548002	-1.354374	-0.259883	-2.310223	2.629203	5.428583	-0.266885	-0.076300	3.647140	0.228900	-0.866270	-0.401427	0.304565	-1.000000	-1.000000	-1.000000	-1.000000	-1.000000	-1.000000	-1.000000	58.000000	0.000000	-1.000000	-1.000000	583074.000000	1775717787.778233
-21049.965000	-40344.930000	-9093.240000	-2872.260000	-818.820000	-33640.245000	-433.170000	7606.710000	-2.321180	-1.429058	-3.239341	-1.303945	-3.645683	4.472006	5.697427	-1.844501	-0.076300	3.647140	0.228900	-0.866270	-0.401427	0.304565	-1.000000	-1.000000	-1.000000	-1.000000	-1.000000	-1.000000	-1.000000	58.000000	0.000000	-1.000000	-1.000000	583075.000000	1775717787.781290
-21044.250000	-40342.635000	-9087.435000	-2868.480000	-814.275000	-33638.670000	-430.470000	7611.840000	-2.132884	-1.819358	-2.557745	-0.702257	-2.550931	3.447301	2.364211	-2.435761	-0.076300	3.647140	0.228900	-0.866270	-0.401427	0.304565	-1.000000	-1.000000	-1.000000	-1.000000	-1.000000	-1.000000	-1.000000	58.000000	0.000000	-1.000000	-1.000000	583076.000000	1775717787.781311
-21041.595000	-40340.565000	-9079.380000	-2861.460000	-805.635000	-33632.505000	-422.640000	7618.545000	-0.312308	-0.556227	0.866148	1.690832	0.776268	0.674397	-2.200296	-1.487887	-0.076300	3.647140	0.228900	-0.866270	-0.401427	0.304565	-1.000000	-1.000000	-1.000000	-1.000000	-1.000000	-1.000000	-1.000000	58.000000	0.000000	-1.000000	-1.000000	583077.000000	1775717787.790549
-21045.870000	-40346.145000	-9080.505000	-2863.530000	-806.850000	-33634.485000	-422.055000	7617.420000	1.783237	1.258987	5.098783	4.513709	4.769045	-1.417734	-4.630329	0.732801	-0.076300	3.647140	0.228900	-0.866270	-0.401427	0.304565	-1.000000	-1.000000	-1.000000	-1.000000	-1.000000	-1.000000	-1.000000	58.000000	0.000000	-1.000000	-1.000000	583078.000000	1775717787.790575
-21049.785000	-40342.995000	-9081.090000	-2866.815000	-811.980000	-33640.605000	-429.705000	7611.750000	2.431030	2.225837	7.315342	5.703784	6.959010	-1.975869	-4.104129	2.652490	-0.076300	3.647140	0.228900	-0.866270	-0.401427	0.304565	-1.000000	-1.000000	-1.000000	-1.000000	-1.000000	-1.000000	-1.000000	58.000000	0.000000	-1.000000	-1.000000	583079.000000	1775717787.790601
-21051.405000	-40337.280000	-9077.670000	-2863.755000	-806.805000	-33632.415000	-427.320000	7612.470000	0.999672	1.967477	5.944617	4.114969	5.726337	-1.699768	-2.344204	2.624214	-0.076300	3.647140	0.228900	-0.866270	-0.401427	0.304565	-1.000000	-1.000000	-1.000000	-1.000000	-1.000000	-1.000000	-1.000000	58.000000	0.000000	-1.000000	-1.000000	583080.000000	1775717787.790612
-21050.370000	-40338.000000	-9078.435000	-2863.890000	-804.105000	-33627.420000	-425.700000	7612.425000	-1.373465	1.224676	1.902115	0.688494	2.004474	-0.925308	-0.869533	0.739421	-0.976640	3.891300	-0.457800	-0.866392	-0.399840	0.303527	-1.000000	-1.000000	-1.000000	-1.000000	-1.000000	-1.000000	-1.000000	58.000000	0.000000	-1.000000	-1.000000	583081.000000	1775717787.798183
-21047.220000	-40336.425000	-9077.805000	-2864.025000	-807.480000	-33632.145000	-428.895000	7612.695000	-2.816496	0.506910	-2.545298	-2.565071	-1.836079	0.312044	0.119187	-1.415798	-0.976640	3.891300	-0.457800	-0.866392	-0.399840	0.303527	-1.000000	-1.000000	-1.000000	-1.000000	-1.000000	-1.000000	-1.000000	58.000000	0.000000	-1.000000	-1.000000	583082.000000	1775717787.798208
-21044.655000	-40331.970000	-9074.475000	-2861.460000	-808.380000	-33634.125000	-429.570000	7613.685000	-2.286326	-0.189479	-5.449598	-4.240078	-4.311736	1.120697	0.694234	-2.441481	-0.976640	3.891300	-0.457800	-0.866392	-0.399840	0.303527	-1.000000	-1.000000	-1.000000	-1.000000	-1.000000	-1.000000	-1.000000	58.000000	0.000000	-1.000000	-1.000000	583083.000000	1775717787.798248
-21047.670000	-40334.850000	-9077.085000	-2863.935000	-809.460000	-33634.755000	-430.470000	7610.220000	-0.333476	-0.827992	-5.962338	-4.059416	-5.148392	0.649300	0.830366	-2.080228	-0.976640	3.891300	-0.457800	-0.866392	-0.399840	0.303527	-1.000000	-1.000000	-1.000000	-1.000000	-1.000000	-1.000000	-1.000000	58.000000	0.000000	-1.000000	-1.000000	583084.000000	1775717787.798259
-21045.960000	-40334.805000	-9076.815000	-2864.340000	-809.145000	-33635.835000	-428.670000	7611.750000	1.490881	-1.436149	-4.543104	-2.695074	-4.498110	-0.684253	0.747763	-0.992727	-0.976640	3.891300	-0.457800	-0.866392	-0.399840	0.303527	-1.000000	-1.000000	-1.000000	-1.000000	-1.000000	-1.000000	-1.000000	58.000000	0.000000	-1.000000	-1.000000	583085.000000	1775717787.811604
-21044.340000	-40338.630000	-9082.755000	-2869.875000	-814.680000	-33641.370000	-430.470000	7614.135000	2.127712	-2.089751	-2.431566	-1.203481	-2.821235	-1.857344	0.741769	0.151774	-0.976640	3.891300	-0.457800	-0.866392	-0.399840	0.303527	-1.000000	-1.000000	-1.000000	-1.000000	-1.000000	-1.000000	-1.000000	58.000000	0.000000	-1.000000	-1.000000	583086.000000	1775717787.811632
-21040.605000	-40335.435000	-9077.940000	-2864.025000	-808.740000	-33637.005000	-425.745000	7622.055000	1.724101	-2.533691	-0.611531	-0.179334	-0.802880	-2.197180	0.892150	1.245249	-0.976640	3.891300	-0.457800	-0.866392	-0.399840	0.303527	-1.000000	-1.000000	-1.000000	-1.000000	-1.000000	-1.000000	-1.000000	58.000000	0.000000	-1.000000	-1.000000	583087.000000	1775717787.811656
-21041.955000	-40333.905000	-9073.620000	-2858.265000	-802.620000	-33630.480000	-424.170000	7623.045000	0.929707	-2.209159	0.873439	0.721222	1.264008	-1.280211	1.164287	2.312927	-0.976640	3.891300	-0.457800	-0.866392	-0.399840	0.303527	-1.000000	-1.000000	-1.000000	-1.000000	-1.000000	-1.000000	-1.000000	58.000000	0.000000	-1.000000	-1.000000	583088.000000	1775717787.811667
-21041.145000	-40334.490000	-9075.015000	-2858.355000	-803.340000	-33627.870000	-425.925000	7621.335000	0.077129	-0.904709	2.321497	1.971950	3.251642	0.888049	1.349283	2.813837	-0.976640	3.891300	-0.457800	-0.866392	-0.399840	0.303527	-1.000000	-1.000000	-1.000000	-1.000000	-1.000000	-1.000000	-1.000000	58.000000	0.000000	-1.000000	-1.000000	583089.000000	1775717787.829332
-21050.820000	-40345.965000	-9087.210000	-2871.135000	-817.290000	-33637.905000	-433.665000	7609.860000	-0.927006	0.560496	3.100711	2.806011	4.117686	3.033998	0.864175	1.777292	-0.976640	3.891300	-0.457800	-0.866392	-0.399840	0.303527	-1.000000	-1.000000	-1.000000	-1.000000	-1.000000	-1.000000	-1.000000	58.000000	0.000000	-1.000000	-1.000000	583090.000000	1775717787.829358
-21059.730000	-40350.015000	-9088.515000	-2871.180000	-817.470000	-33641.280000	-439.695000	7598.880000	-2.335146	0.896053	2.143384	1.867434	2.603452	3.207392	-0.734634	-1.198896	-1.724380	3.876040	-0.427280	-0.866819	-0.398681	0.301513	-1.000000	-1.000000	-1.000000	-1.000000	-1.000000	-1.000000	-1.000000	58.000000	0.000000	-1.000000	-1.000000	583091.000000	1775717787.829387
-21048.210000	-40336.695000	-9076.140000	-2858.445000	-805.815000	-33636.600000	-435.015000	7611.480000	-3.630918	0.230353	0.089731	-0.325767	-0.384973	1.093181	-2.754385	-4.676510	-1.724380	3.876040	-0.427280	-0.866819	-0.398681	0.301513	-1.000000	-1.000000	-1.000000	-1.000000	-1.000000	-1.000000	-1.000000	58.000000	0.000000	-1.000000	-1.000000	583092.000000	1775717787.829398
-21043.260000	-40332.780000	-9072.630000	-2855.745000	-803.430000	-33636.420000	-430.515000	7616.205000	-3.123796	0.386334	-0.773009	-1.397270	-2.052502	-1.360021	-3.423879	-5.632336	-1.724380	3.876040	-0.427280	-0.866819	-0.398681	0.301513	-1.000000	-1.000000	-1.000000	-1.000000	-1.000000	-1.000000	-1.000000	58.000000	0.000000	-1.000000	-1.000000	583093.000000	1775717787.829476
-21047.040000	-40338.360000	-9078.345000	-2862.000000	-809.055000	-33636.465000	-425.385000	7612.830000	-0.163462	2.059980	0.374449	-0.436609	-1.248031	-2.263878	-1.634268	-2.684278	-1.724380	3.876040	-0.427280	-0.866819	-0.398681	0.301513	-1.000000	-1.000000	-1.000000	-1.000000	-1.000000	-1.000000	-1.000000	58.000000	0.000000	-1.000000	-1.000000	583094.000000	1775717787.829492
-21050.370000	-40343.355000	-9084.555000	-2868.030000	-813.780000	-33637.545000	-423.630000	7610.130000	3.212649	3.396688	1.640867	0.742905	0.259713	-1.535007	1.697512	1.881651	-1.724380	3.876040	-0.427280	-0.866819	-0.398681	0.301513	-1.000000	-1.000000	-1.000000	-1.000000	-1.000000	-1.000000	-1.000000	58.000000	0.000000	-1.000000	-1.000000	583095.000000	1775717787.829509
-21045.375000	-40338.990000	-9079.335000	-2863.260000	-809.505000	-33635.610000	-422.595000	7613.955000	4.564929	2.640277	1.205401	0.432835	0.579050	-0.197778	4.369445	4.789024	-1.724380	3.876040	-0.427280	-0.866819	-0.398681	0.301513	-1.000000	-1.000000	-1.000000	-1.000000	-1.000000	-1.000000	-1.000000	58.000000	0.000000	-1.000000	-1.000000	583096.000000	1775717787.829519
-21047.130000	-40340.205000	-9079.020000	-2862.720000	-808.380000	-33633.180000	-425.070000	7613.055000	3.575285	0.388343	-0.385588	-0.787540	-0.095884	0.911108	4.644513	4.897033	-1.724380	3.876040	-0.427280	-0.866819	-0.398681	0.301513	-1.000000	-1.000000	-1.000000	-1.000000	-1.000000	-1.000000	-1.000000	58.000000	0.000000	-1.000000	-1.000000	583097.000000	1775717787.832664
-21051.000000	-40344.030000	-9082.260000	-2864.790000	-809.550000	-33632.190000	-428.490000	7609.545000	1.353342	-1.704391	-1.575517	-1.447748	-0.594055	1.502535	2.312539	2.970541	-1.724380	3.876040	-0.427280	-0.866819	-0.398681	0.301513	-1.000000	-1.000000	-1.000000	-1.000000	-1.000000	-1.000000	-1.000000	58.000000	0.000000	-1.000000	-1.000000	583098.000000	1775717787.832690
-21050.370000	-40342.455000	-9080.820000	-2862.630000	-806.535000	-33629.490000	-431.415000	7608.825000	-1.027283	-2.752950	-1.787604	-1.104509	-0.458895	1.541131	-1.377296	0.221749	-1.724380	3.876040	-0.427280	-0.866819	-0.398681	0.301513	-1.000000	-1.000000	-1.000000	-1.000000	-1.000000	-1.000000	-1.000000	58.000000	0.000000	-1.000000	-1.000000	583099.000000	1775717787.832716
-21052.800000	-40342.320000	-9080.280000	-2862.720000	-809.595000	-33637.590000	-436.905000	7607.700000	-2.696311	-2.590733	-1.248629	-0.182141	0.019142	0.940166	-4.579737	-2.161031	-1.724380	3.876040	-0.427280	-0.866819	-0.398681	0.301513	-1.000000	-1.000000	-1.000000	-1.000000	-1.000000	-1.000000	-1.000000	58.000000	0.000000	-1.000000	-1.000000	583100.000000	1775717787.832726
-21054.105000	-40343.985000	-9080.730000	-2865.015000	-816.255000	-33648.210000	-436.095000	7606.710000	-3.122118	-1.458074	-0.318085	0.704722	0.210209	-0.594345	-5.854014	-3.268493	-2.426340	3.509800	-0.122080	-0.866819	-0.400451	0.301025	-1.000000	-1.000000	-1.000000	-1.000000	-1.000000	-1.000000	-1.000000	58.000000	0.000000	-1.000000	-1.000000	583101.000000	1775717787.838049
-21048.030000	-40340.520000	-9076.635000	-2861.370000	-809.820000	-33636.330000	-418.815000	7615.170000	-2.269713	0.023729	0.622949	1.085924	-0.231270	-2.656205	-4.351338	-2.734674	-2.426340	3.509800	-0.122080	-0.866819	-0.400451	0.301025	-1.000000	-1.000000	-1.000000	-1.000000	-1.000000	-1.000000	-1.000000	58.000000	0.000000	-1.000000	-1.000000	583102.000000	1775717787.838076
-21043.710000	-40338.495000	-9076.995000	-2862.585000	-809.190000	-33635.880000	-415.305000	7618.770000	-0.343882	1.318977	1.309737	0.976121	-0.653411	-3.433815	-0.070107	-0.705379	-2.426340	3.509800	-0.122080	-0.866819	-0.400451	0.301025	-1.000000	-1.000000	-1.000000	-1.000000	-1.000000	-1.000000	-1.000000	58.000000	0.000000	-1.000000	-1.000000	583103.000000	1775717787.838102
-21037.770000	-40332.105000	-9071.370000	-2856.420000	-804.735000	-33639.570000	-423.315000	7619.040000	2.075492	2.233334	1.619170	0.734498	-0.209772	-1.846030	4.840743	1.861230	-2.426340	3.509800	-0.122080	-0.866819	-0.400451	0.301025	-1.000000	-1.000000	-1.000000	-1.000000	-1.000000	-1.000000	-1.000000	58.000000	0.000000	-1.000000	-1.000000	583104.000000	1775717787.838113
-21035.925000	-40330.890000	-9070.380000	-2853.990000	-800.460000	-33631.335000	-421.020000	7620.165000	3.893558	2.661309	1.540919	0.694169	1.018547	0.918913	6.898678	3.366263	-2.426340	3.509800	-0.122080	-0.866819	-0.400451	0.301025	-1.000000	-1.000000	-1.000000	-1.000000	-1.000000	-1.000000	-1.000000	58.000000	0.000000	-1.000000	-1.000000	583105.000000	1775717787.842096
-21036.420000	-40331.115000	-9069.030000	-2845.980000	-795.015000	-33620.490000	-426.330000	7617.105000	4.011028	2.316349	1.081609	0.960465	2.285379	3.365942	4.720672	2.799993	-2.426340	3.509800	-0.122080	-0.866819	-0.400451	0.301025	-1.000000	-1.000000	-1.000000	-1.000000	-1.000000	-1.000000	-1.000000	58.000000	0.000000	-1.000000	-1.000000	583106.000000	1775717787.842112
-21041.955000	-40337.505000	-9077.805000	-2841.390000	-804.780000	-33637.455000	-446.040000	7612.200000	1.996296	0.838108	0.045781	1.349013	2.604777	4.556362	-0.275339	0.414542	-2.426340	3.509800	-0.122080	-0.866819	-0.400451	0.301025	-1.000000	-1.000000	-1.000000	-1.000000	-1.000000	-1.000000	-1.000000	58.000000	0.000000	-1.000000	-1.000000	583107.000000	1775717787.853667
-21043.575000	-40341.195000	-9081.675000	-2842.740000	-812.565000	-33657.390000	-453.645000	7614.855000	-1.486378	-1.665512	-1.740623	1.355780	1.001257	2.946787	-5.827915	-2.510005	-2.426340	3.509800	-0.122080	-0.866819	-0.400451	0.301025	-1.000000	-1.000000	-1.000000	-1.000000	-1.000000	-1.000000	-1.000000	58.000000	0.000000	-1.000000	-1.000000	583108.000000	1775717787.853693
-21042.630000	-40340.475000	-9079.380000	-2869.380000	-813.105000	-33637.905000	-426.690000	7619.715000	-4.714964	-4.141513	-3.622588	-0.110295	-2.291311	-1.560665	-8.837222	-4.153863	-2.426340	3.509800	-0.122080	-0.866819	-0.400451	0.301025	-1.000000	-1.000000	-1.000000	-1.000000	-1.000000	-1.000000	-1.000000	58.000000	0.000000	-1.000000	-1.000000	583109.000000	1775717787.853721
-21048.885000	-40345.245000	-9083.925000	-2886.885000	-819.990000	-33625.125000	-413.010000	7613.055000	-5.972226	-5.113121	-4.220658	-4.059719	-5.292507	-5.086769	-5.927659	-3.498096	-2.426340	3.509800	-0.122080	-0.866819	-0.400451	0.301025	-1.000000	-1.000000	-1.000000	-1.000000	-1.000000	-1.000000	-1.000000	58.000000	0.000000	-1.000000	-1.000000	583110.000000	1775717787.853732
-21046.815000	-40342.995000	-9081.630000	-2871.450000	-815.940000	-33634.080000	-423.450000	7611.390000	-4.832934	-3.940194	-2.876689	-8.753548	-5.922660	-4.015489	2.146477	-1.435134	-2.411080	3.570840	0.518840	-0.866758	-0.403014	0.299987	-1.000000	-1.000000	-1.000000	-1.000000	-1.000000	-1.000000	-1.000000	58.000000	0.000000	-1.000000	-1.000000	583111.000000	1775717787.859504
-21041.955000	-40338.270000	-9076.995000	-2865.285000	-810.855000	-33635.385000	-423.855000	7615.665000	-1.938104	-1.076485	-0.121801	-9.441314	-3.473335	0.011274	9.297084	0.498811	-2.411080	3.570840	0.518840	-0.866758	-0.403014	0.299987	-1.000000	-1.000000	-1.000000	-1.000000	-1.000000	-1.000000	-1.000000	58.000000	0.000000	-1.000000	-1.000000	583112.000000	1775717787.859525
-21036.555000	-40332.510000	-9071.550000	-2858.130000	-804.240000	-33628.590000	-421.020000	7620.795000	1.793806	2.505103	3.043007	-3.567680	1.198669	3.027781	10.313067	1.881261	-2.411080	3.570840	0.518840	-0.866758	-0.403014	0.299987	-1.000000	-1.000000	-1.000000	-1.000000	-1.000000	-1.000000	-1.000000	58.000000	0.000000	-1.000000	-1.000000	583113.000000	1775717787.859549
-21045.195000	-40343.265000	-9080.505000	-2865.825000	-809.775000	-33628.860000	-423.180000	7616.655000	4.926707	5.264067	5.246949	5.555406	5.793331	3.528569	5.545887	2.847634	-2.411080	3.570840	0.518840	-0.866758	-0.403014	0.299987	-1.000000	-1.000000	-1.000000	-1.000000	-1.000000	-1.000000	-1.000000	58.000000	0.000000	-1.000000	-1.000000	583114.000000	1775717787.859560
-21046.095000	-40341.915000	-9078.840000	-2864.025000	-809.460000	-33629.715000	-426.465000	7614.045000	5.683468	5.474140	5.061773	11.849096	7.630756	2.224856	-1.243143	2.923723	-2.411080	3.570840	0.518840	-0.866758	-0.403014	0.299987	-1.000000	-1.000000	-1.000000	-1.000000	-1.000000	-1.000000	-1.000000	58.000000	0.000000	-1.000000	-1.000000	583115.000000	1775717787.861468
-21045.195000	-40340.205000	-9078.660000	-2863.305000	-810.270000	-33629.850000	-427.050000	7613.280000	3.643791	3.015128	2.485314	11.923708	5.720105	0.149460	-6.511966	1.653569	-2.411080	3.570840	0.518840	-0.866758	-0.403014	0.299987	-1.000000	-1.000000	-1.000000	-1.000000	-1.000000	-1.000000	-1.000000	58.000000	0.000000	-1.000000	-1.000000	583116.000000	1775717787.861486
-21042.405000	-40338.180000	-9077.490000	-2862.135000	-809.505000	-33630.255000	-425.520000	7614.900000	0.478492	-0.182939	-0.740257	6.963026	1.531797	-1.770080	-8.318827	-0.326160	-2.411080	3.570840	0.518840	-0.866758	-0.403014	0.299987	-1.000000	-1.000000	-1.000000	-1.000000	-1.000000	-1.000000	-1.000000	58.000000	0.000000	-1.000000	-1.000000	583117.000000	1775717787.865460
-21039.840000	-40334.580000	-9074.160000	-2859.165000	-806.805000	-33629.535000	-422.595000	7617.105000	-1.692366	-2.111702	-2.763799	0.509330	-2.418388	-2.787402	-6.467845	-1.708186	-2.411080	3.570840	0.518840	-0.866758	-0.403014	0.299987	-1.000000	-1.000000	-1.000000	-1.000000	-1.000000	-1.000000	-1.000000	58.000000	0.000000	-1.000000	-1.000000	583118.000000	1775717787.865482
-21039.930000	-40335.030000	-9074.025000	-2858.490000	-805.950000	-33632.190000	-423.225000	7617.780000	-2.048505	-2.213258	-2.902259	-4.329505	-4.334156	-2.660340	-2.326676	-1.734193	-2.411080	3.570840	0.518840	-0.866758	-0.403014	0.299987	-1.000000	-1.000000	-1.000000	-1.000000	-1.000000	-1.000000	-1.000000	58.000000	0.000000	-1.000000	-1.000000	583119.000000	1775717787.880477
-21037.230000	-40335.795000	-9072.810000	-2856.105000	-802.080000	-33632.865000	-428.040000	7618.455000	-1.195760	-1.296954	-1.724064	-6.226379	-3.910642	-1.744213	1.788032	-0.731446	-2.411080	3.570840	0.518840	-0.866758	-0.403014	0.299987	-1.000000	-1.000000	-1.000000	-1.000000	-1.000000	-1.000000	-1.000000	58.000000	0.000000	-1.000000	-1.000000	583120.000000	1775717787.880504
-21034.845000	-40336.065000	-9071.505000	-2853.630000	-795.915000	-33623.775000	-419.895000	7623.270000	-0.137702	-0.525638	-0.321788	-5.518684	-1.936754	-0.425464	4.044385	0.461397	0.198380	3.219860	0.320460	-0.867307	-0.406310	0.298827	-1.000000	-1.000000	-1.000000	-1.000000	-1.000000	-1.000000	-1.000000	58.000000	0.000000	-1.000000	-1.000000	583121.000000	1775717787.880528
-21037.005000	-40338.180000	-9075.195000	-2859.390000	-805.455000	-33630.615000	-423.495000	7620.975000	0.452944	-0.436620	0.471679	-3.491760	0.241378	1.104716	4.257085	1.218645	0.198380	3.219860	0.320460	-0.867307	-0.406310	0.298827	-1.000000	-1.000000	-1.000000	-1.000000	-1.000000	-1.000000	-1.000000	58.000000	0.000000	-1.000000	-1.000000	583122.000000	1775717787.880539
-21034.980000	-40333.545000	-9069.075000	-2852.370000	-801.090000	-33627.915000	-422.865000	7621.965000	0.294883	-0.741014	0.445282	-1.520097	1.179536	2.214427	3.153834	1.185364	0.198380	3.219860	0.320460	-0.867307	-0.406310	0.298827	-1.000000	-1.000000	-1.000000	-1.000000	-1.000000	-1.000000	-1.000000	58.000000	0.000000	-1.000000	-1.000000	583123.000000	1775717787.880550
-21045.420000	-40341.510000	-9075.645000	-2857.185000	-804.690000	-33629.580000	-430.380000	7613.865000	-0.573604	-0.891904	-0.015375	-0.188692	0.527228	2.211387	1.262533	0.225652	0.198380	3.219860	0.320460	-0.867307	-0.406310	0.298827	-1.000000	-1.000000	-1.000000	-1.000000	-1.000000	-1.000000	-1.000000	58.000000	0.000000	-1.000000	-1.000000	583124.000000	1775717787.880560
-21052.530000	-40349.115000	-9085.095000	-2867.805000	-816.210000	-33641.190000	-440.145000	7608.915000	-2.009057	-0.967075	-0.718967	0.315664	-0.957021	1.023745	-1.126842	-1.468287	0.198380	3.219860	0.320460	-0.867307	-0.406310	0.298827	-1.000000	-1.000000	-1.000000	-1.000000	-1.000000	-1.000000	-1.000000	58.000000	0.000000	-1.000000	-1.000000	583125.000000	1775717787.887520
-21053.205000	-40349.295000	-9084.555000	-2867.580000	-815.670000	-33642.855000	-440.595000	7607.430000	-3.461094	-1.325340	-1.748397	-0.206380	-2.487561	-1.012863	-3.439202	-3.156569	0.198380	3.219860	0.320460	-0.867307	-0.406310	0.298827	-1.000000	-1.000000	-1.000000	-1.000000	-1.000000	-1.000000	-1.000000	58.000000	0.000000	-1.000000	-1.000000	583126.000000	1775717787.887545
-21051.810000	-40348.755000	-9084.015000	-2866.320000	-813.690000	-33638.130000	-430.965000	7608.960000	-3.652754	-1.472135	-2.400638	-1.019180	-3.063700	-2.780811	-4.257982	-3.614157	0.198380	3.219860	0.320460	-0.867307	-0.406310	0.298827	-1.000000	-1.000000	-1.000000	-1.000000	-1.000000	-1.000000	-1.000000	58.000000	0.000000	-1.000000	-1.000000	583127.000000	1775717787.887571
-21050.190000	-40348.530000	-9084.555000	-2866.950000	-814.365000	-33634.755000	-423.090000	7611.480000	-1.681230	-0.557509	-1.639215	-0.784994	-1.750466	-2.644018	-2.172355	-2.052452	0.198380	3.219860	0.320460	-0.867307	-0.406310	0.298827	-1.000000	-1.000000	-1.000000	-1.000000	-1.000000	-1.000000	-1.000000	58.000000	0.000000	-1.000000	-1.000000	583128.000000	1775717787.887581
-21049.920000	-40348.395000	-9085.545000	-2869.290000	-820.215000	-33644.520000	-430.875000	7610.535000	1.775128	1.324810	0.427887	0.722528	0.917253	-0.465672	2.039036	0.964604	0.198380	3.219860	0.320460	-0.867307	-0.406310	0.298827	-1.000000	-1.000000	-1.000000	-1.000000	-1.000000	-1.000000	-1.000000	58.000000	0.000000	-1.000000	-1.000000	583129.000000	1775717787.889418
-21046.680000	-40345.290000	-9082.755000	-2866.140000	-817.065000	-33640.875000	-429.885000	7612.560000	4.918206	3.198974	2.648136	2.497912	3.239420	1.909812	5.291593	3.801229	0.198380	3.219860	0.320460	-0.867307	-0.406310	0.298827	-1.000000	-1.000000	-1.000000	-1.000000	-1.000000	-1.000000	-1.000000	58.000000	0.000000	-1.000000	-1.000000	583130.000000	1775717787.889435
-21047.265000	-40344.795000	-9081.855000	-2865.465000	-815.490000	-33637.005000	-429.345000	7612.020000	6.210396	4.130636	3.976995	3.574063	4.181614	3.009227	5.291973	4.999040	0.778260	3.357200	0.412020	-0.866819	-0.405761	0.299621	-1.000000	-1.000000	-1.000000	-1.000000	-1.000000	-1.000000	-1.000000	58.000000	0.000000	-1.000000	-1.000000	583131.000000	1775717787.893446
-21042.360000	-40338.000000	-9074.745000	-2857.815000	-807.525000	-33625.080000	-424.035000	7615.080000	5.240257	3.806458	4.092854	3.699907	4.007930	3.172565	2.660703	4.209460	0.778260	3.357200	0.412020	-0.866819	-0.405761	0.299621	-1.000000	-1.000000	-1.000000	-1.000000	-1.000000	-1.000000	-1.000000	58.000000	0.000000	-1.000000	-1.000000	583132.000000	1775717787.893464
-21044.925000	-40341.690000	-9076.995000	-2859.210000	-807.795000	-33625.395000	-426.060000	7614.270000	2.673625	2.465133	3.203270	3.064898	3.331835	3.203299	-0.439745	2.111964	0.778260	3.357200	0.412020	-0.866819	-0.405761	0.299621	-1.000000	-1.000000	-1.000000	-1.000000	-1.000000	-1.000000	-1.000000	58.000000	0.000000	-1.000000	-1.000000	583133.000000	1775717787.897063
-21045.240000	-40342.815000	-9078.120000	-2860.605000	-809.955000	-33629.760000	-426.915000	7615.350000	-0.443182	0.394426	1.477269	1.699575	2.153373	2.727596	-2.557107	-0.275772	0.778260	3.357200	0.412020	-0.866819	-0.405761	0.299621	-1.000000	-1.000000	-1.000000	-1.000000	-1.000000	-1.000000	-1.000000	58.000000	0.000000	-1.000000	-1.000000	583134.000000	1775717787.897078
-21046.770000	-40343.085000	-9078.705000	-2860.695000	-811.305000	-33634.755000	-426.060000	7614.900000	-3.181564	-2.023712	-0.891764	-0.417906	0.118778	0.699292	-3.433440	-2.151841	0.778260	3.357200	0.412020	-0.866819	-0.405761	0.299621	-1.000000	-1.000000	-1.000000	-1.000000	-1.000000	-1.000000	-1.000000	58.000000	0.000000	-1.000000	-1.000000	583135.000000	1775717787.904564
-21048.435000	-40345.065000	-9080.325000	-2863.080000	-814.365000	-33640.830000	-425.970000	7613.100000	-4.795844	-3.963865	-3.193914	-2.736068	-2.486632	-2.805823	-3.237142	-3.125107	0.778260	3.357200	0.412020	-0.866819	-0.405761	0.299621	-1.000000	-1.000000	-1.000000	-1.000000	-1.000000	-1.000000	-1.000000	58.000000	0.000000	-1.000000	-1.000000	583136.000000	1775717787.904592
-21049.785000	-40345.740000	-9080.415000	-2864.025000	-814.995000	-33642.495000	-426.015000	7612.290000	-4.915178	-4.627010	-4.487334	-4.325564	-4.622924	-6.137485	-2.237850	-3.213030	0.778260	3.357200	0.412020	-0.866819	-0.405761	0.299621	-1.000000	-1.000000	-1.000000	-1.000000	-1.000000	-1.000000	-1.000000	58.000000	0.000000	-1.000000	-1.000000	583137.000000	1775717787.905208
-21046.050000	-40343.490000	-9076.500000	-2859.795000	-809.820000	-33636.555000	-427.095000	7614.180000	-3.597679	-3.763356	-4.177042	-4.449752	-5.145331	-7.162013	-0.904677	-2.567996	0.778260	3.357200	0.412020	-0.866819	-0.405761	0.299621	-1.000000	-1.000000	-1.000000	-1.000000	-1.000000	-1.000000	-1.000000	58.000000	0.000000	-1.000000	-1.000000	583138.000000	1775717787.905226
-21043.395000	-40342.680000	-9074.700000	-2857.770000	-805.320000	-33627.600000	-427.455000	7617.015000	-1.186023	-1.675486	-2.284594	-2.863823	-3.464295	-4.643769	0.245633	-1.265949	0.778260	3.357200	0.412020	-0.866819	-0.405761	0.299621	-1.000000	-1.000000	-1.000000	-1.000000	-1.000000	-1.000000	-1.000000	58.000000	0.000000	-1.000000	-1.000000	583139.000000	1775717787.909482
-21044.205000	-40343.805000	-9077.040000	-2860.155000	-808.290000	-33627.915000	-428.130000	7616.610000	1.527187	0.790154	0.310499	-0.246458	-0.286279	0.541979	0.918491	0.423547	0.778260	3.357200	0.412020	-0.866819	-0.405761	0.299621	-1.000000	-1.000000	-1.000000	-1.000000	-1.000000	-1.000000	-1.000000	58.000000	0.000000	-1.000000	-1.000000	583140.000000	1775717787.909502
-21047.715000	-40347.045000	-9081.045000	-2864.160000	-813.555000	-33632.010000	-432.495000	7613.460000	3.284761	2.481881	2.135066	1.882838	2.401046	5.385697	1.046873	1.754525	-0.183120	2.716280	1.159760	-0.867796	-0.403502	0.298888	-1.000000	-1.000000	-1.000000	-1.000000	-1.000000	-1.000000	-1.000000	58.000000	0.000000	-1.000000	-1.000000	583141.000000	1775717787.920251
-21039.120000	-40338.270000	-9072.495000	-2856.240000	-805.815000	-33627.285000	-431.415000	7617.960000	3.353411	2.844361	2.408917	2.516693	3.080615	7.006494	0.714668	2.055467	-0.183120	2.716280	1.159760	-0.867796	-0.403502	0.298888	-1.000000	-1.000000	-1.000000	-1.000000	-1.000000	-1.000000	-1.000000	58.000000	0.000000	-1.000000	-1.000000	583142.000000	1775717787.920279
-21034.530000	-40334.715000	-9069.840000	-2853.945000	-802.845000	-33627.645000	-427.005000	7620.795000	2.409030	2.489012	1.856958	2.162266	2.255446	5.098940	0.373186	1.557173	-0.183120	2.716280	1.159760	-0.867796	-0.403502	0.298888	-1.000000	-1.000000	-1.000000	-1.000000	-1.000000	-1.000000	-1.000000	58.000000	0.000000	-1.000000	-1.000000	583143.000000	1775717787.920307
-21034.215000	-40335.030000	-9070.605000	-2854.035000	-803.475000	-33631.065000	-428.670000	7620.435000	1.508193	2.132072	1.440177	1.732341	1.281752	1.424953	0.559986	0.959599	-0.183120	2.716280	1.159760	-0.867796	-0.403502	0.298888	-1.000000	-1.000000	-1.000000	-1.000000	-1.000000	-1.000000	-1.000000	58.000000	0.000000	-1.000000	-1.000000	583144.000000	1775717787.920317
-21033.900000	-40336.920000	-9073.350000	-2857.230000	-806.985000	-33638.040000	-429.390000	7625.070000	0.717517	1.507394	1.009088	1.198508	0.496524	-2.262313	1.080005	0.530436	-0.183120	2.716280	1.159760	-0.867796	-0.403502	0.298888	-1.000000	-1.000000	-1.000000	-1.000000	-1.000000	-1.000000	-1.000000	58.000000	0.000000	-1.000000	-1.000000	583145.000000	1775717787.924355
-21033.765000	-40336.965000	-9073.665000	-2857.320000	-808.470000	-33640.515000	-432.180000	7626.510000	-0.399943	0.114309	0.008389	0.117402	-0.517006	-4.898630	1.173070	0.225186	-0.183120	2.716280	1.159760	-0.867796	-0.403502	0.298888	-1.000000	-1.000000	-1.000000	-1.000000	-1.000000	-1.000000	-1.000000	58.000000	0.000000	-1.000000	-1.000000	583146.000000	1775717787.924381
-21036.645000	-40336.200000	-9070.335000	-2852.460000	-803.295000	-33631.470000	-426.870000	7624.665000	-1.826233	-1.698005	-1.304991	-1.210613	-1.613177	-5.533286	0.582723	-0.092375	-0.183120	2.716280	1.159760	-0.867796	-0.403502	0.298888	-1.000000	-1.000000	-1.000000	-1.000000	-1.000000	-1.000000	-1.000000	58.000000	0.000000	-1.000000	-1.000000	583147.000000	1775717787.940084
-21051.630000	-40351.455000	-9084.420000	-2866.725000	-816.615000	-33632.865000	-427.050000	7610.355000	-3.334503	-3.231061	-2.272633	-2.108389	-2.196304	-3.523467	-0.114636	-0.922383	-0.183120	2.716280	1.159760	-0.867796	-0.403502	0.298888	-1.000000	-1.000000	-1.000000	-1.000000	-1.000000	-1.000000	-1.000000	58.000000	0.000000	-1.000000	-1.000000	583148.000000	1775717787.940112
-21064.140000	-40364.280000	-9096.570000	-2879.415000	-827.055000	-33642.180000	-438.390000	7593.705000	-4.926255	-4.489392	-3.052947	-2.826979	-2.478841	0.045612	-0.590436	-2.907849	-0.183120	2.716280	1.159760	-0.867796	-0.403502	0.298888	-1.000000	-1.000000	-1.000000	-1.000000	-1.000000	-1.000000	-1.000000	58.000000	0.000000	-1.000000	-1.000000	583149.000000	1775717787.940139
-21051.945000	-40354.965000	-9089.370000	-2873.700000	-823.005000	-33644.160000	-439.965000	7604.505000	-5.813622	-5.225020	-3.758866	-3.665266	-2.838275	2.649803	-1.321601	-5.328612	-0.183120	2.716280	1.159760	-0.867796	-0.403502	0.298888	-1.000000	-1.000000	-1.000000	-1.000000	-1.000000	-1.000000	-1.000000	58.000000	0.000000	-1.000000	-1.000000	583150.000000	1775717787.940150
-21052.170000	-40353.255000	-9086.760000	-2870.820000	-820.665000	-33641.820000	-437.670000	7606.080000	-4.072495	-3.878475	-3.067627	-3.334615	-2.325644	3.012866	-2.232186	-5.526081	-1.999060	2.929920	1.068200	-0.867674	-0.400878	0.298522	-1.000000	-1.000000	-1.000000	-1.000000	-1.000000	-1.000000	-1.000000	58.000000	0.000000	-1.000000	-1.000000	583151.000000	1775717787.940209
-21052.710000	-40352.805000	-9085.005000	-2867.490000	-816.480000	-33634.665000	-431.055000	7606.800000	0.689884	0.253164	0.021160	-0.566393	0.096922	2.217608	-2.110383	-1.893657	-1.999060	2.929920	1.068200	-0.867674	-0.400878	0.298522	-1.000000	-1.000000	-1.000000	-1.000000	-1.000000	-1.000000	-1.000000	58.000000	0.000000	-1.000000	-1.000000	583152.000000	1775717787.940221
-21044.025000	-40343.850000	-9077.130000	-2859.795000	-810.090000	-33632.370000	-424.440000	7614.495000	6.078659	5.346423	4.300299	3.762006	3.763398	1.879750	-0.130346	3.815934	-1.999060	2.929920	1.068200	-0.867674	-0.400878	0.298522	-1.000000	-1.000000	-1.000000	-1.000000	-1.000000	-1.000000	-1.000000	58.000000	0.000000	-1.000000	-1.000000	583153.000000	1775717787.940236
-21046.005000	-40344.165000	-9077.130000	-2859.930000	-811.260000	-33636.510000	-425.835000	7613.820000	9.297965	8.777514	7.463912	7.327378	6.711516	2.134756	2.826945	8.360021	-1.999060	2.929920	1.068200	-0.867674	-0.400878	0.298522	-1.000000	-1.000000	-1.000000	-1.000000	-1.000000	-1.000000	-1.000000	58.000000	0.000000	-1.000000	-1.000000	583154.000000	1775717787.940242
-21051.765000	-40348.755000	-9080.640000	-2863.890000	-817.290000	-33640.695000	-430.920000	7608.195000	8.809287	8.781220	7.686133	7.959080	6.952767	1.746312	4.559091	9.295101	-1.999060	2.929920	1.068200	-0.867674	-0.400878	0.298522	-1.000000	-1.000000	-1.000000	-1.000000	-1.000000	-1.000000	-1.000000	58.000000	0.000000	-1.000000	-1.000000	583155.000000	1775717787.941735
-21048.615000	-40345.020000	-9075.780000	-2859.165000	-813.510000	-33638.040000	-432.405000	7609.005000	4.739086	5.157664	4.615629	5.022223	3.902260	0.030279	3.454447	6.049526	-1.999060	2.929920	1.068200	-0.867674	-0.400878	0.298522	-1.000000	-1.000000	-1.000000	-1.000000	-1.000000	-1.000000	-1.000000	58.000000	0.000000	-1.000000	-1.000000	583156.000000	1775717787.941761
-21047.940000	-40349.340000	-9081.360000	-2862.135000	-809.190000	-33627.285000	-431.730000	7609.320000	-0.766870	-0.310896	-0.203458	0.100755	-0.678598	-1.869625	0.150544	0.471612	-1.999060	2.929920	1.068200	-0.867674	-0.400878	0.298522	-1.000000	-1.000000	-1.000000	-1.000000	-1.000000	-1.000000	-1.000000	58.000000	0.000000	-1.000000	-1.000000	583157.000000	1775717787.950435
-21046.095000	-40349.295000	-9081.405000	-2861.325000	-806.535000	-33623.325000	-431.190000	7612.065000	-4.878488	-5.057318	-4.551011	-4.312004	-4.031429	-2.170314	-3.064801	-4.351613	-1.999060	2.929920	1.068200	-0.867674	-0.400878	0.298522	-1.000000	-1.000000	-1.000000	-1.000000	-1.000000	-1.000000	-1.000000	58.000000	0.000000	-1.000000	-1.000000	583158.000000	1775717787.950464
-21040.290000	-40345.380000	-9077.580000	-2857.320000	-802.485000	-33622.965000	-432.495000	7617.600000	-6.039123	-7.265453	-6.789082	-6.463841	-4.753615	-0.712825	-4.345494	-6.221652	-1.999060	2.929920	1.068200	-0.867674	-0.400878	0.298522	-1.000000	-1.000000	-1.000000	-1.000000	-1.000000	-1.000000	-1.000000	58.000000	0.000000	-1.000000	-1.000000	583159.000000	1775717787.956849
-21041.820000	-40347.810000	-9082.530000	-2865.060000	-815.490000	-33639.660000	-438.165000	7615.080000	-4.504873	-6.425350	-6.292145	-5.982733	-3.621271	0.536327	-3.579116	-4.976102	-1.999060	2.929920	1.068200	-0.867674	-0.400878	0.298522	-1.000000	-1.000000	-1.000000	-1.000000	-1.000000	-1.000000	-1.000000	58.000000	0.000000	-1.000000	-1.000000	583160.000000	1775717787.956877
-21038.760000	-40343.040000	-9078.345000	-2861.595000	-816.120000	-33640.470000	-428.490000	7618.995000	-1.823060	-3.447766	-3.763363	-3.868795	-2.536417	-0.417688	-1.712292	-2.200872	-2.044840	2.655240	0.473060	-0.868101	-0.400573	0.299316	-1.000000	-1.000000	-1.000000	-1.000000	-1.000000	-1.000000	-1.000000	58.000000	0.000000	-1.000000	-1.000000	583161.000000	1775717787.956901
-21041.190000	-40345.425000	-9078.570000	-2860.155000	-810.630000	-33632.820000	-422.640000	7618.275000	0.313807	0.000125	-0.587344	-1.342098	-2.223862	-2.863134	0.682396	0.247510	-2.044840	2.655240	0.473060	-0.868101	-0.400573	0.299316	-1.000000	-1.000000	-1.000000	-1.000000	-1.000000	-1.000000	-1.000000	58.000000	0.000000	-1.000000	-1.000000	583162.000000	1775717787.956912
-21038.715000	-40344.795000	-9078.390000	-2861.415000	-811.890000	-33645.735000	-439.695000	7619.085000	1.099488	2.434882	2.054502	0.959812	-1.620619	-4.146954	2.857357	1.414334	-2.044840	2.655240	0.473060	-0.868101	-0.400573	0.299316	-1.000000	-1.000000	-1.000000	-1.000000	-1.000000	-1.000000	-1.000000	58.000000	0.000000	-1.000000	-1.000000	583163.000000	1775717787.960889
-21041.010000	-40346.730000	-9081.855000	-2865.780000	-821.880000	-33660.180000	-451.890000	7615.845000	0.744210	3.110887	3.319446	2.442737	-0.201856	-3.466965	2.922584	1.234136	-2.044840	2.655240	0.473060	-0.868101	-0.400573	0.299316	-1.000000	-1.000000	-1.000000	-1.000000	-1.000000	-1.000000	-1.000000	58.000000	0.000000	-1.000000	-1.000000	583164.000000	1775717787.960913
-21044.520000	-40349.790000	-9083.115000	-2856.690000	-817.020000	-33641.820000	-437.850000	7615.800000	-0.131892	2.200426	2.916475	2.761128	1.132500	-1.806126	0.371687	0.191502	-2.044840	2.655240	0.473060	-0.868101	-0.400573	0.299316	-1.000000	-1.000000	-1.000000	-1.000000	-1.000000	-1.000000	-1.000000	58.000000	0.000000	-1.000000	-1.000000	583165.000000	1775717787.964722
-21052.440000	-40356.360000	-9088.515000	-2846.295000	-814.770000	-33626.475000	-424.215000	7611.660000	-1.138038	0.397129	1.301866	2.639532	1.901569	1.166984	-1.790378	-0.975478	-2.044840	2.655240	0.473060	-0.868101	-0.400573	0.299316	-1.000000	-1.000000	-1.000000	-1.000000	-1.000000	-1.000000	-1.000000	58.000000	0.000000	-1.000000	-1.000000	583166.000000	1775717787.964749
-21049.470000	-40351.725000	-9080.505000	-2841.480000	-806.220000	-33627.420000	-424.620000	7613.865000	-1.932911	-1.353394	-0.440718	3.014507	2.634143	5.760024	-0.643007	-1.594534	-2.044840	2.655240	0.473060	-0.868101	-0.400573	0.299316	-1.000000	-1.000000	-1.000000	-1.000000	-1.000000	-1.000000	-1.000000	58.000000	0.000000	-1.000000	-1.000000	583167.000000	1775717787.966891
-21044.880000	-40345.605000	-9074.205000	-2872.620000	-811.215000	-33627.510000	-419.580000	7616.340000	-1.725774	-1.827710	-0.948990	2.890008	3.459821	9.397172	2.699440	-1.209579	-2.044840	2.655240	0.473060	-0.868101	-0.400573	0.299316	-1.000000	-1.000000	-1.000000	-1.000000	-1.000000	-1.000000	-1.000000	58.000000	0.000000	-1.000000	-1.000000	583168.000000	1775717787.966913
-21045.780000	-40346.055000	-9076.320000	-2874.870000	-815.265000	-33630.840000	-419.490000	7615.170000	0.007874	-0.429958	0.218973	-0.012643	3.387090	8.796361	4.886081	0.138495	-2.044840	2.655240	0.473060	-0.868101	-0.400573	0.299316	-1.000000	-1.000000	-1.000000	-1.000000	-1.000000	-1.000000	-1.000000	58.000000	0.000000	-1.000000	-1.000000	583169.000000	1775717787.972131
-21037.275000	-40337.685000	-9072.090000	-2861.730000	-810.180000	-33630.885000	-421.605000	7619.985000	2.556652	1.925427	1.829022	-4.837791	1.655523	3.658274	3.950461	1.739082	-2.044840	2.655240	0.473060	-0.868101	-0.400573	0.299316	-1.000000	-1.000000	-1.000000	-1.000000	-1.000000	-1.000000	-1.000000	58.000000	0.000000	-1.000000	-1.000000	583170.000000	1775717787.972153
-21039.570000	-40341.285000	-9076.500000	-2863.845000	-811.260000	-33630.390000	-422.415000	7620.120000	4.516521	3.611069	2.281728	-7.172050	-0.854101	-3.146217	0.334360	2.777757	0.045780	3.998120	-0.305200	-0.867735	-0.401427	0.299071	-1.000000	-1.000000	-1.000000	-1.000000	-1.000000	-1.000000	-1.000000	58.000000	0.000000	-1.000000	-1.000000	583171.000000	1775717787.974233
-21050.865000	-40352.085000	-9085.320000	-2870.280000	-817.290000	-33633.855000	-426.105000	7614.585000	4.495611	3.228751	0.882717	-4.840538	-2.746863	-8.084282	-3.939650	2.689618	0.045780	3.998120	-0.305200	-0.867735	-0.401427	0.299071	-1.000000	-1.000000	-1.000000	-1.000000	-1.000000	-1.000000	-1.000000	58.000000	0.000000	-1.000000	-1.000000	583172.000000	1775717787.974252
-21044.340000	-40344.795000	-9077.175000	-2862.360000	-811.215000	-33629.850000	-424.755000	7618.860000	1.956489	0.510247	-1.749402	-0.060039	-3.476023	-9.251540	-6.673684	1.318554	0.045780	3.998120	-0.305200	-0.867735	-0.401427	0.299071	-1.000000	-1.000000	-1.000000	-1.000000	-1.000000	-1.000000	-1.000000	58.000000	0.000000	-1.000000	-1.000000	583173.000000	1775717787.978708
-21046.635000	-40346.865000	-9076.455000	-2861.595000	-811.620000	-33632.370000	-428.805000	7615.125000	-1.606613	-2.766428	-3.659002	4.190384	-2.897198	-6.839956	-6.694874	-0.633758	0.045780	3.998120	-0.305200	-0.867735	-0.401427	0.299071	-1.000000	-1.000000	-1.000000	-1.000000	-1.000000	-1.000000	-1.000000	58.000000	0.000000	-1.000000	-1.000000	583174.000000	1775717787.978732
-21041.010000	-40341.555000	-9071.865000	-2856.240000	-806.760000	-33630.840000	-427.365000	7619.625000	-3.783567	-4.241747	-3.233289	6.404959	-1.145086	-2.516414	-4.291812	-2.041389	0.045780	3.998120	-0.305200	-0.867735	-0.401427	0.299071	-1.000000	-1.000000	-1.000000	-1.000000	-1.000000	-1.000000	-1.000000	58.000000	0.000000	-1.000000	-1.000000	583175.000000	1775717787.982510
-21048.930000	-40349.295000	-9079.605000	-2862.450000	-810.720000	-33630.075000	-430.740000	7614.630000	-3.632597	-3.329516	-0.997993	6.100906	0.931945	1.650046	-0.772848	-2.315116	0.045780	3.998120	-0.305200	-0.867735	-0.401427	0.299071	-1.000000	-1.000000	-1.000000	-1.000000	-1.000000	-1.000000	-1.000000	58.000000	0.000000	-1.000000	-1.000000	583176.000000	1775717787.982534
-21054.780000	-40355.595000	-9086.085000	-2868.660000	-815.715000	-33632.775000	-431.145000	7611.120000	-2.238368	-1.451035	0.932674	3.334380	2.045212	4.208427	2.361930	-1.783496	0.045780	3.998120	-0.305200	-0.867735	-0.401427	0.299071	-1.000000	-1.000000	-1.000000	-1.000000	-1.000000	-1.000000	-1.000000	58.000000	0.000000	-1.000000	-1.000000	583177.000000	1775717787.986734
-21052.170000	-40353.480000	-9083.970000	-2866.770000	-816.390000	-33636.330000	-429.570000	7613.505000	-1.072269	-0.205407	1.117601	-0.913159	1.466812	4.568506	4.157308	-1.108483	0.045780	3.998120	-0.305200	-0.867735	-0.401427	0.299071	-1.000000	-1.000000	-1.000000	-1.000000	-1.000000	-1.000000	-1.000000	58.000000	0.000000	-1.000000	-1.000000	583178.000000	1775717787.986761
-21046.815000	-40350.870000	-9083.205000	-2865.825000	-814.680000	-33636.375000	-429.840000	7617.285000	-0.195166	0.377713	0.229781	-4.487839	-0.100261	3.059191	4.515889	-0.321170	0.045780	3.998120	-0.305200	-0.867735	-0.401427	0.299071	-1.000000	-1.000000	-1.000000	-1.000000	-1.000000	-1.000000	-1.000000	58.000000	0.000000	-1.000000	-1.000000	583179.000000	1775717787.989618
-21048.030000	-40351.500000	-9084.195000	-2867.580000	-815.175000	-33635.070000	-433.395000	7614.675000	1.089269	1.144704	-0.207270	-5.514178	-1.179043	0.909546	3.727145	0.805393	0.045780	3.998120	-0.305200	-0.867735	-0.401427	0.299071	-1.000000	-1.000000	-1.000000	-1.000000	-1.000000	-1.000000	-1.000000	58.000000	0.000000	-1.000000	-1.000000	583180.000000	1775717787.989638
-21052.350000	-40353.840000	-9085.140000	-2866.995000	-814.905000	-33633.000000	-432.405000	7612.020000	2.446977	2.121830	0.278118	-3.951723	-1.025219	-0.503101	2.104129	1.772161	-0.732480	3.799740	-0.350980	-0.867613	-0.398742	0.300475	-1.000000	-1.000000	-1.000000	-1.000000	-1.000000	-1.000000	-1.000000	58.000000	0.000000	-1.000000	-1.000000	583181.000000	1775717787.994523
-21053.700000	-40356.000000	-9085.365000	-2866.905000	-816.435000	-33632.595000	-430.380000	7612.785000	2.733723	2.514078	1.090643	-1.150489	-0.049535	-0.632203	0.280403	1.827583	-0.732480	3.799740	-0.350980	-0.867613	-0.398742	0.300475	-1.000000	-1.000000	-1.000000	-1.000000	-1.000000	-1.000000	-1.000000	58.000000	0.000000	-1.000000	-1.000000	583182.000000	1775717787.994543
-21050.055000	-40351.590000	-9081.450000	-2864.925000	-819.495000	-33638.850000	-432.540000	7615.575000	1.678791	1.943847	1.625563	1.445360	0.829649	-0.085992	-0.977303	1.076490	-0.732480	3.799740	-0.350980	-0.867613	-0.398742	0.300475	-1.000000	-1.000000	-1.000000	-1.000000	-1.000000	-1.000000	-1.000000	58.000000	0.000000	-1.000000	-1.000000	583183.000000	1775717787.997619
-21050.910000	-40354.650000	-9086.040000	-2868.165000	-818.730000	-33638.580000	-437.265000	7612.785000	0.251001	0.906153	1.676071	2.907060	1.000796	0.075285	-1.543373	0.249746	-0.732480	3.799740	-0.350980	-0.867613	-0.398742	0.300475	-1.000000	-1.000000	-1.000000	-1.000000	-1.000000	-1.000000	-1.000000	58.000000	0.000000	-1.000000	-1.000000	583184.000000	1775717787.997635
-21049.380000	-40355.145000	-9086.220000	-2866.365000	-815.715000	-33636.555000	-434.070000	7614.945000	-0.608787	-0.058864	1.108399	2.905843	0.661959	-0.389507	-1.762786	-0.257347	-0.732480	3.799740	-0.350980	-0.867613	-0.398742	0.300475	-1.000000	-1.000000	-1.000000	-1.000000	-1.000000	-1.000000	-1.000000	58.000000	0.000000	-1.000000	-1.000000	583185.000000	1775717788.003572
-21048.075000	-40352.310000	-9082.215000	-2864.835000	-814.815000	-33638.265000	-435.015000	7614.720000	-0.735028	-0.757504	0.075943	1.840188	0.460631	-0.791657	-1.624619	-0.454716	-0.732480	3.799740	-0.350980	-0.867613	-0.398742	0.300475	-1.000000	-1.000000	-1.000000	-1.000000	-1.000000	-1.000000	-1.000000	58.000000	0.000000	-1.000000	-1.000000	583186.000000	1775717788.003595
-21048.390000	-40352.085000	-9081.855000	-2864.655000	-815.130000	-33640.020000	-432.495000	7614.135000	-0.447814	-0.993107	-0.730752	0.561106	0.601882	-0.699103	-0.918487	-0.444558	-0.732480	3.799740	-0.350980	-0.867613	-0.398742	0.300475	-1.000000	-1.000000	-1.000000	-1.000000	-1.000000	-1.000000	-1.000000	58.000000	0.000000	-1.000000	-1.000000	583187.000000	1775717788.006350
-21047.310000	-40350.870000	-9080.730000	-2863.170000	-813.690000	-33636.465000	-429.840000	7616.205000	-0.174831	-0.724587	-0.854960	-0.340393	0.712507	-0.271142	0.223303	-0.357572	-0.732480	3.799740	-0.350980	-0.867613	-0.398742	0.300475	-1.000000	-1.000000	-1.000000	-1.000000	-1.000000	-1.000000	-1.000000	58.000000	0.000000	-1.000000	-1.000000	583188.000000	1775717788.006377
-21050.415000	-40355.730000	-9085.410000	-2867.985000	-818.730000	-33639.030000	-435.105000	7612.695000	-0.211913	-0.352558	-0.632331	-0.845241	0.380514	0.277479	1.243300	-0.291753	-0.732480	3.799740	-0.350980	-0.867613	-0.398742	0.300475	-1.000000	-1.000000	-1.000000	-1.000000	-1.000000	-1.000000	-1.000000	58.000000	0.000000	-1.000000	-1.000000	583189.000000	1775717788.009625
-21051.630000	-40356.315000	-9086.895000	-2868.075000	-818.190000	-33635.925000	-435.690000	7611.345000	-0.628410	-0.400168	-0.704517	-1.255611	-0.495259	0.743306	1.384365	-0.382446	-0.732480	3.799740	-0.350980	-0.867613	-0.398742	0.300475	-1.000000	-1.000000	-1.000000	-1.000000	-1.000000	-1.000000	-1.000000	58.000000	0.000000	-1.000000	-1.000000	583190.000000	1775717788.009651
-21054.330000	-40358.295000	-9087.165000	-2868.030000	-818.145000	-33633.405000	-433.980000	7609.545000	-1.229072	-0.898950	-1.187091	-1.610917	-1.484553	0.993556	0.513842	-0.685656	-2.136400	3.235120	-0.625660	-0.867307	-0.398436	0.300353	-1.000000	-1.000000	-1.000000	-1.000000	-1.000000	-1.000000	-1.000000	58.000000	0.000000	-1.000000	-1.000000	583191.000000	1775717788.017094
-21053.520000	-40354.740000	-9082.890000	-2863.620000	-815.895000	-33634.305000	-432.990000	7609.860000	-1.575790	-1.248711	-1.428487	-1.464382	-1.822211	1.031527	-0.530304	-0.933553	-2.136400	3.235120	-0.625660	-0.867307	-0.398436	0.300353	-1.000000	-1.000000	-1.000000	-1.000000	-1.000000	-1.000000	-1.000000	58.000000	0.000000	-1.000000	-1.000000	583192.000000	1775717788.017123
-21046.320000	-40345.920000	-9074.880000	-2856.465000	-810.630000	-33635.745000	-430.740000	7614.855000	-1.118850	-0.668923	-0.628117	-0.369337	-1.061541	0.705560	-0.877520	-0.657300	-2.136400	3.235120	-0.625660	-0.867307	-0.398436	0.300353	-1.000000	-1.000000	-1.000000	-1.000000	-1.000000	-1.000000	-1.000000	58.000000	0.000000	-1.000000	-1.000000	583193.000000	1775717788.020355
-21044.790000	-40347.540000	-9077.265000	-2860.650000	-815.355000	-33646.635000	-436.680000	7615.035000	0.395066	0.983455	1.169014	1.361815	0.427490	-0.306855	-0.530085	0.363342	-2.136400	3.235120	-0.625660	-0.867307	-0.398436	0.300353	-1.000000	-1.000000	-1.000000	-1.000000	-1.000000	-1.000000	-1.000000	58.000000	0.000000	-1.000000	-1.000000	583194.000000	1775717788.020375
-21048.210000	-40355.100000	-9085.005000	-2869.200000	-821.790000	-33650.415000	-441.765000	7611.795000	2.204047	2.461569	2.540847	2.308636	1.406118	-2.049490	-0.299302	1.562267	-2.136400	3.235120	-0.625660	-0.867307	-0.398436	0.300353	-1.000000	-1.000000	-1.000000	-1.000000	-1.000000	-1.000000	-1.000000	58.000000	0.000000	-1.000000	-1.000000	583195.000000	1775717788.021049
-21056.040000	-40364.235000	-9093.465000	-2875.770000	-823.725000	-33640.515000	-436.500000	7608.870000	2.727881	1.969407	1.798404	1.124477	0.842206	-3.482224	-0.643951	1.863302	-2.136400	3.235120	-0.625660	-0.867307	-0.398436	0.300353	-1.000000	-1.000000	-1.000000	-1.000000	-1.000000	-1.000000	-1.000000	58.000000	0.000000	-1.000000	-1.000000	583196.000000	1775717788.021066
-21050.640000	-40355.190000	-9084.780000	-2866.590000	-815.535000	-33629.130000	-435.195000	7609.725000	1.275189	-0.516258	-0.820164	-1.487840	-0.615484	-2.681650	-0.847534	0.886353	-2.136400	3.235120	-0.625660	-0.867307	-0.398436	0.300353	-1.000000	-1.000000	-1.000000	-1.000000	-1.000000	-1.000000	-1.000000	58.000000	0.000000	-1.000000	-1.000000	583197.000000	1775717788.025601
-21041.955000	-40349.115000	-9077.490000	-2857.770000	-807.120000	-33623.685000	-429.930000	7621.245000	-0.734553	-2.590518	-2.779865	-2.873444	-1.046597	0.936208	-0.063344	-0.358328	-2.136400	3.235120	-0.625660	-0.867307	-0.398436	0.300353	-1.000000	-1.000000	-1.000000	-1.000000	-1.000000	-1.000000	-1.000000	58.000000	0.000000	-1.000000	-1.000000	583198.000000	1775717788.025617
-21036.240000	-40344.120000	-9071.325000	-2851.740000	-800.865000	-33623.820000	-435.105000	7626.735000	-1.196529	-2.042949	-1.916994	-1.236448	0.549222	5.164334	1.365331	-0.371889	-2.136400	3.235120	-0.625660	-0.867307	-0.398436	0.300353	-1.000000	-1.000000	-1.000000	-1.000000	-1.000000	-1.000000	-1.000000	58.000000	0.000000	-1.000000	-1.000000	583199.000000	1775717788.030405
-21037.185000	-40345.515000	-9073.665000	-2853.495000	-799.785000	-33622.785000	-433.890000	7626.780000	0.146869	0.594895	1.063162	2.196476	2.988207	6.796475	2.180254	0.960370	-2.136400	3.235120	-0.625660	-0.867307	-0.398436	0.300353	-1.000000	-1.000000	-1.000000	-1.000000	-1.000000	-1.000000	-1.000000	58.000000	0.000000	-1.000000	-1.000000	583200.000000	1775717788.030425
-21043.395000	-40352.355000	-9081.315000	-2861.955000	-808.785000	-33627.645000	-430.920000	7621.785000	1.427925	2.733513	3.292182	4.270597	3.870758	4.466518	1.693996	1.937515	-1.510740	3.219860	-0.503580	-0.867246	-0.401061	0.300231	-1.000000	-1.000000	-1.000000	-1.000000	-1.000000	-1.000000	-1.000000	58.000000	0.000000	-1.000000	-1.000000	583201.000000	1775717788.036942
-21046.995000	-40355.415000	-9085.095000	-2868.210000	-819.225000	-33634.215000	-428.040000	7613.505000	0.802125	2.321454	2.561398	2.827185	1.569422	-0.646347	0.523613	0.839985	-1.510740	3.219860	-0.503580	-0.867246	-0.401061	0.300231	-1.000000	-1.000000	-1.000000	-1.000000	-1.000000	-1.000000	-1.000000	58.000000	0.000000	-1.000000	-1.000000	583202.000000	1775717788.036967
-21045.150000	-40352.400000	-9081.720000	-2863.350000	-813.285000	-33631.965000	-428.085000	7613.460000	-1.525855	-0.246669	-0.544800	-1.216383	-2.991910	-5.865271	-0.405447	-2.177733	-1.510740	3.219860	-0.503580	-0.867246	-0.401061	0.300231	-1.000000	-1.000000	-1.000000	-1.000000	-1.000000	-1.000000	-1.000000	58.000000	0.000000	-1.000000	-1.000000	583203.000000	1775717788.037591
-21054.375000	-40360.410000	-9088.290000	-2868.930000	-817.785000	-33636.420000	-432.405000	7608.690000	-3.725852	-2.816330	-3.455373	-4.721708	-6.587931	-8.466753	-0.938882	-5.069531	-1.510740	3.219860	-0.503580	-0.867246	-0.401061	0.300231	-1.000000	-1.000000	-1.000000	-1.000000	-1.000000	-1.000000	-1.000000	58.000000	0.000000	-1.000000	-1.000000	583204.000000	1775717788.037615
-21055.005000	-40360.635000	-9088.290000	-2869.470000	-820.215000	-33636.735000	-432.045000	7609.905000	-4.404105	-3.818829	-4.319900	-5.437011	-6.749915	-7.337569	-1.446958	-5.733975	-1.510740	3.219860	-0.503580	-0.867246	-0.401061	0.300231	-1.000000	-1.000000	-1.000000	-1.000000	-1.000000	-1.000000	-1.000000	58.000000	0.000000	-1.000000	-1.000000	583205.000000	1775717788.051379
-21054.420000	-40358.880000	-9088.470000	-2872.080000	-827.055000	-33642.270000	-436.095000	7607.430000	-3.268017	-2.994118	-3.037485	-3.496190	-3.891309	-3.546597	-1.987426	-3.649237	-1.510740	3.219860	-0.503580	-0.867246	-0.401061	0.300231	-1.000000	-1.000000	-1.000000	-1.000000	-1.000000	-1.000000	-1.000000	58.000000	0.000000	-1.000000	-1.000000	583206.000000	1775717788.051405
-21059.820000	-40364.460000	-9092.565000	-2874.915000	-826.065000	-33640.020000	-438.030000	7604.280000	-0.756677	-0.856129	-0.549506	-0.414150	-0.070015	0.825066	-2.233698	-0.013398	-1.510740	3.219860	-0.503580	-0.867246	-0.401061	0.300231	-1.000000	-1.000000	-1.000000	-1.000000	-1.000000	-1.000000	-1.000000	58.000000	0.000000	-1.000000	-1.000000	583207.000000	1775717788.051431
-21054.645000	-40360.050000	-9088.695000	-2869.470000	-819.990000	-33635.565000	-435.240000	7610.085000	2.076685	1.524518	1.884964	2.339397	3.209502	4.261903	-1.826082	3.368545	-1.510740	3.219860	-0.503580	-0.867246	-0.401061	0.300231	-1.000000	-1.000000	-1.000000	-1.000000	-1.000000	-1.000000	-1.000000	58.000000	0.000000	-1.000000	-1.000000	583208.000000	1775717788.051442
-21053.520000	-40359.375000	-9088.245000	-2869.830000	-821.655000	-33637.815000	-435.645000	7609.995000	4.252773	3.226375	3.452906	4.104589	5.467911	6.182617	-0.563732	5.411738	-1.510740	3.219860	-0.503580	-0.867246	-0.401061	0.300231	-1.000000	-1.000000	-1.000000	-1.000000	-1.000000	-1.000000	-1.000000	58.000000	0.000000	-1.000000	-1.000000	583209.000000	1775717788.055631
-21057.570000	-40362.705000	-9092.430000	-2874.420000	-826.515000	-33644.745000	-439.380000	7606.395000	5.172165	3.837336	3.857660	4.592592	6.185715	6.134416	1.133089	5.718248	-1.510740	3.219860	-0.503580	-0.867246	-0.401061	0.300231	-1.000000	-1.000000	-1.000000	-1.000000	-1.000000	-1.000000	-1.000000	58.000000	0.000000	-1.000000	-1.000000	583210.000000	1775717788.055657
-21058.560000	-40362.840000	-9090.495000	-2872.620000	-824.355000	-33645.375000	-438.030000	7606.395000	4.360593	3.130145	2.980055	3.540830	4.821583	3.892211	2.314198	4.156985	-0.320460	2.929920	-0.671440	-0.867368	-0.401305	0.297301	-1.000000	-1.000000	-1.000000	-1.000000	-1.000000	-1.000000	-1.000000	58.000000	0.000000	-1.000000	-1.000000	583211.000000	1775717788.055683
-21056.355000	-40359.465000	-9084.465000	-2867.670000	-820.305000	-33644.880000	-438.345000	7608.645000	2.073624	1.432761	1.350084	1.494591	2.047323	0.473515	2.482099	1.386691	-0.320460	2.929920	-0.671440	-0.867368	-0.401305	0.297301	-1.000000	-1.000000	-1.000000	-1.000000	-1.000000	-1.000000	-1.000000	58.000000	0.000000	-1.000000	-1.000000	583212.000000	1775717788.055694
-21048.480000	-40350.960000	-9077.715000	-2860.560000	-815.040000	-33650.055000	-446.310000	7614.540000	-0.320962	-0.117171	0.149971	-0.169306	-0.447394	-2.340574	1.751483	-1.102249	-0.320460	2.929920	-0.671440	-0.867368	-0.401305	0.297301	-1.000000	-1.000000	-1.000000	-1.000000	-1.000000	-1.000000	-1.000000	58.000000	0.000000	-1.000000	-1.000000	583213.000000	1775717788.059264
-21048.525000	-40352.355000	-9081.270000	-2862.900000	-817.560000	-33653.970000	-450.900000	7612.155000	-1.461024	-0.594394	-0.099199	-0.666556	-1.625762	-3.603398	0.276975	-2.189343	-0.320460	2.929920	-0.671440	-0.867368	-0.401305	0.297301	-1.000000	-1.000000	-1.000000	-1.000000	-1.000000	-1.000000	-1.000000	58.000000	0.000000	-1.000000	-1.000000	583214.000000	1775717788.059282
-21046.635000	-40351.815000	-9080.505000	-2862.450000	-815.580000	-33635.205000	-432.495000	7614.630000	-1.318256	-0.367849	-0.185605	-0.622597	-1.855361	-3.098016	-1.119184	-2.047112	-0.320460	2.929920	-0.671440	-0.867368	-0.401305	0.297301	-1.000000	-1.000000	-1.000000	-1.000000	-1.000000	-1.000000	-1.000000	58.000000	0.000000	-1.000000	-1.000000	583215.000000	1775717788.061632
-21050.955000	-40361.175000	-9091.890000	-2868.795000	-823.590000	-33625.440000	-418.140000	7610.535000	-0.977617	-0.640587	-1.155398	-1.127127	-2.065891	-0.475063	-0.580248	-1.600155	-0.320460	2.929920	-0.671440	-0.867368	-0.401305	0.297301	-1.000000	-1.000000	-1.000000	-1.000000	-1.000000	-1.000000	-1.000000	58.000000	0.000000	-1.000000	-1.000000	583216.000000	1775717788.061648
-21045.285000	-40357.980000	-9089.370000	-2852.145000	-820.215000	-33632.910000	-422.955000	7614.720000	-1.229105	-1.957732	-3.047926	-2.138305	-2.665967	3.298545	2.259641	-1.432297	-0.320460	2.929920	-0.671440	-0.867368	-0.401305	0.297301	-1.000000	-1.000000	-1.000000	-1.000000	-1.000000	-1.000000	-1.000000	58.000000	0.000000	-1.000000	-1.000000	583217.000000	1775717788.068227
-21053.655000	-40363.650000	-9088.830000	-2844.315000	-815.400000	-33635.295000	-428.715000	7609.770000	-1.902329	-3.475936	-4.538578	-2.174255	-3.008698	5.173653	4.510933	-1.458368	-0.320460	2.929920	-0.671440	-0.867368	-0.401305	0.297301	-1.000000	-1.000000	-1.000000	-1.000000	-1.000000	-1.000000	-1.000000	58.000000	0.000000	-1.000000	-1.000000	583218.000000	1775717788.068252
-21053.700000	-40360.140000	-9081.495000	-2866.095000	-813.150000	-33631.605000	-430.560000	7611.795000	-2.531960	-3.859320	-3.962704	-0.828054	-2.082195	3.229056	3.145594	-1.383697	-0.320460	2.929920	-0.671440	-0.867368	-0.401305	0.297301	-1.000000	-1.000000	-1.000000	-1.000000	-1.000000	-1.000000	-1.000000	58.000000	0.000000	-1.000000	-1.000000	583219.000000	1775717788.069598
-21050.145000	-40357.845000	-9081.405000	-2882.790000	-818.235000	-33632.820000	-432.945000	7613.955000	-2.641318	-2.462693	-1.052832	-0.514892	-0.090962	-1.020156	-1.394059	-0.965870	-0.320460	2.929920	-0.671440	-0.867368	-0.401305	0.297301	-1.000000	-1.000000	-1.000000	-1.000000	-1.000000	-1.000000	-1.000000	58.000000	0.000000	-1.000000	-1.000000	583220.000000	1775717788.069615
-21055.995000	-40364.280000	-9087.345000	-2874.915000	-822.735000	-33636.465000	-435.690000	7609.455000	-1.773751	0.154086	2.449480	-2.753098	1.431753	-4.719757	-6.007745	-0.146420	-2.243220	1.938020	-0.961380	-0.870176	-0.399291	0.295531	-1.000000	-1.000000	-1.000000	-1.000000	-1.000000	-1.000000	-1.000000	58.000000	0.000000	-1.000000	-1.000000	583221.000000	1775717788.073662
-21053.070000	-40360.680000	-9084.735000	-2869.425000	-817.245000	-33630.300000	-432.270000	7610.805000	-0.178733	2.489350	4.227122	-4.830640	1.494368	-6.113247	-7.858177	0.664962	-2.243220	1.938020	-0.961380	-0.870176	-0.399291	0.295531	-1.000000	-1.000000	-1.000000	-1.000000	-1.000000	-1.000000	-1.000000	58.000000	0.000000	-1.000000	-1.000000	583222.000000	1775717788.073681
-21048.840000	-40355.595000	-9077.670000	-2861.505000	-810.540000	-33625.530000	-431.370000	7615.620000	1.497113	3.577480	3.707514	-3.208584	0.900148	-4.725023	-6.002028	1.146929	-2.243220	1.938020	-0.961380	-0.870176	-0.399291	0.295531	-1.000000	-1.000000	-1.000000	-1.000000	-1.000000	-1.000000	-1.000000	58.000000	0.000000	-1.000000	-1.000000	583223.000000	1775717788.081777
-21051.810000	-40359.060000	-9080.505000	-2863.935000	-813.105000	-33630.705000	-440.145000	7611.840000	2.822789	3.561210	2.144537	1.889904	0.888530	-1.399298	-1.770124	1.426253	-2.243220	1.938020	-0.961380	-0.870176	-0.399291	0.295531	-1.000000	-1.000000	-1.000000	-1.000000	-1.000000	-1.000000	-1.000000	58.000000	0.000000	-1.000000	-1.000000	583224.000000	1775717788.081802
-21050.685000	-40359.870000	-9082.665000	-2866.410000	-818.595000	-33636.015000	-439.110000	7611.885000	3.275269	2.616365	0.529366	6.799453	1.205483	1.672155	2.188444	1.402624	-2.243220	1.938020	-0.961380	-0.870176	-0.399291	0.295531	-1.000000	-1.000000	-1.000000	-1.000000	-1.000000	-1.000000	-1.000000	58.000000	0.000000	-1.000000	-1.000000	583225.000000	1775717788.082358
-21047.670000	-40357.530000	-9083.385000	-2868.300000	-821.520000	-33639.615000	-433.890000	7613.910000	2.588149	0.894383	-1.021133	8.069312	0.685974	2.598378	4.266202	0.874294	-2.243220	1.938020	-0.961380	-0.870176	-0.399291	0.295531	-1.000000	-1.000000	-1.000000	-1.000000	-1.000000	-1.000000	-1.000000	58.000000	0.000000	-1.000000	-1.000000	583226.000000	1775717788.082375
-21047.715000	-40357.530000	-9085.545000	-2869.965000	-820.260000	-33637.230000	-430.110000	7613.460000	1.241050	-0.881145	-2.317816	5.214114	-0.790961	1.537765	4.824411	0.131022	-2.243220	1.938020	-0.961380	-0.870176	-0.399291	0.295531	-1.000000	-1.000000	-1.000000	-1.000000	-1.000000	-1.000000	-1.000000	58.000000	0.000000	-1.000000	-1.000000	583227.000000	1775717788.097771
-21045.870000	-40354.155000	-9084.330000	-2865.240000	-815.670000	-33635.655000	-428.535000	7615.845000	-0.098448	-1.883274	-2.878789	0.497572	-1.950188	0.238395	4.646437	-0.381853	-2.243220	1.938020	-0.961380	-0.870176	-0.399291	0.295531	-1.000000	-1.000000	-1.000000	-1.000000	-1.000000	-1.000000	-1.000000	58.000000	0.000000	-1.000000	-1.000000	583228.000000	1775717788.097795
-21047.580000	-40356.630000	-9090.450000	-2868.255000	-819.315000	-33637.950000	-429.480000	7615.305000	-1.101047	-1.889414	-2.477508	-3.223110	-1.681565	0.043122	3.751597	-0.509965	-2.243220	1.938020	-0.961380	-0.870176	-0.399291	0.295531	-1.000000	-1.000000	-1.000000	-1.000000	-1.000000	-1.000000	-1.000000	58.000000	0.000000	-1.000000	-1.000000	583229.000000	1775717788.098091
-21053.655000	-40364.460000	-9097.380000	-2873.160000	-823.545000	-33639.300000	-436.050000	7609.680000	-1.839442	-1.492307	-1.576305	-4.649893	-0.417522	0.743956	1.763337	-0.508997	-2.243220	1.938020	-0.961380	-0.870176	-0.399291	0.295531	-1.000000	-1.000000	-1.000000	-1.000000	-1.000000	-1.000000	-1.000000	58.000000	0.000000	-1.000000	-1.000000	583230.000000	1775717788.098113
-21053.655000	-40369.365000	-9097.965000	-2874.780000	-825.345000	-33639.570000	-438.840000	7608.015000	-2.491181	-1.571602	-0.830398	-4.306443	0.531568	1.363284	-1.233245	-0.828717	-0.701960	1.968540	-1.815940	-0.869016	-0.400023	0.295531	-1.000000	-1.000000	-1.000000	-1.000000	-1.000000	-1.000000	-1.000000	58.000000	0.000000	-1.000000	-1.000000	583231.000000	1775717788.098147
-21049.830000	-40367.070000	-9090.000000	-2868.075000	-818.145000	-33632.190000	-433.215000	7612.155000	-2.686275	-2.091920	-0.025436	-2.941566	0.746428	1.503317	-4.045733	-1.325371	-0.701960	1.968540	-1.815940	-0.869016	-0.400023	0.295531	-1.000000	-1.000000	-1.000000	-1.000000	-1.000000	-1.000000	-1.000000	58.000000	0.000000	-1.000000	-1.000000	583232.000000	1775717788.098158
-21051.765000	-40369.005000	-9086.850000	-2867.850000	-817.425000	-33631.920000	-433.890000	7610.850000	-1.786156	-1.983925	1.603184	-0.763148	0.945689	1.500172	-4.945971	-1.219425	-0.701960	1.968540	-1.815940	-0.869016	-0.400023	0.295531	-1.000000	-1.000000	-1.000000	-1.000000	-1.000000	-1.000000	-1.000000	58.000000	0.000000	-1.000000	-1.000000	583233.000000	1775717788.099049
-21057.120000	-40372.650000	-9089.370000	-2872.350000	-822.690000	-33638.715000	-438.120000	7606.575000	-0.098500	-0.672264	3.738528	1.593008	1.414813	1.323778	-3.504449	-0.328858	-0.701960	1.968540	-1.815940	-0.869016	-0.400023	0.295531	-1.000000	-1.000000	-1.000000	-1.000000	-1.000000	-1.000000	-1.000000	58.000000	0.000000	-1.000000	-1.000000	583234.000000	1775717788.099066
-21051.270000	-40359.555000	-9081.990000	-2866.680000	-818.370000	-33637.635000	-433.575000	7612.470000	1.327738	1.402503	4.913143	2.947829	1.482580	0.365393	-0.980845	0.693533	-0.701960	1.968540	-1.815940	-0.869016	-0.400023	0.295531	-1.000000	-1.000000	-1.000000	-1.000000	-1.000000	-1.000000	-1.000000	58.000000	0.000000	-1.000000	-1.000000	583235.000000	1775717788.102878
-21051.765000	-40359.870000	-9082.935000	-2867.760000	-820.575000	-33642.180000	-434.430000	7612.155000	2.076271	3.654933	4.250320	2.884431	0.815743	-1.333597	1.275632	1.445534	-0.701960	1.968540	-1.815940	-0.869016	-0.400023	0.295531	-1.000000	-1.000000	-1.000000	-1.000000	-1.000000	-1.000000	-1.000000	58.000000	0.000000	-1.000000	-1.000000	583236.000000	1775717788.102902
-21051.540000	-40357.260000	-9079.380000	-2862.900000	-817.470000	-33643.485000	-433.800000	7614.045000	2.308597	5.221785	2.094114	1.956248	-0.132408	-2.857357	2.601313	1.885048	-0.701960	1.968540	-1.815940	-0.869016	-0.400023	0.295531	-1.000000	-1.000000	-1.000000	-1.000000	-1.000000	-1.000000	-1.000000	58.000000	0.000000	-1.000000	-1.000000	583237.000000	1775717788.106519
-21057.435000	-40359.825000	-9081.315000	-2865.465000	-821.430000	-33650.145000	-439.515000	7609.680000	1.900972	4.911521	-0.663717	0.796800	-0.872746	-3.428775	2.657798	1.757024	-0.701960	1.968540	-1.815940	-0.869016	-0.400023	0.295531	-1.000000	-1.000000	-1.000000	-1.000000	-1.000000	-1.000000	-1.000000	58.000000	0.000000	-1.000000	-1.000000	583238.000000	1775717788.106538
-21055.455000	-40356.900000	-9078.705000	-2862.585000	-819.090000	-33645.555000	-438.570000	7609.185000	0.709484	2.439393	-3.068714	-0.297634	-1.257132	-2.807895	1.483681	0.797684	-0.701960	1.968540	-1.815940	-0.869016	-0.400023	0.295531	-1.000000	-1.000000	-1.000000	-1.000000	-1.000000	-1.000000	-1.000000	58.000000	0.000000	-1.000000	-1.000000	583239.000000	1775717788.114949
-21050.595000	-40353.795000	-9076.455000	-2859.255000	-812.430000	-33628.905000	-428.760000	7612.290000	-0.634585	-0.967957	-4.313433	-1.113385	-1.139098	-0.735316	0.004259	-0.623224	-0.701960	1.968540	-1.815940	-0.869016	-0.400023	0.295531	-1.000000	-1.000000	-1.000000	-1.000000	-1.000000	-1.000000	-1.000000	58.000000	0.000000	-1.000000	-1.000000	583240.000000	1775717788.114979
-21047.490000	-40356.945000	-9081.090000	-2862.045000	-810.765000	-33621.840000	-431.055000	7613.910000	-1.054768	-3.609522	-4.122335	-1.440285	-0.289104	2.877348	-0.487185	-1.536812	-1.297100	1.526000	-1.693860	-0.869444	-0.399169	0.296508	-1.000000	-1.000000	-1.000000	-1.000000	-1.000000	-1.000000	-1.000000	58.000000	0.000000	-1.000000	-1.000000	583241.000000	1775717788.115008
-21042.450000	-40355.280000	-9080.595000	-2862.135000	-809.685000	-33621.255000	-427.140000	7621.290000	-0.242996	-4.666604	-3.018073	-1.445097	0.924214	6.518827	0.128841	-1.245905	-1.297100	1.526000	-1.693860	-0.869444	-0.399169	0.296508	-1.000000	-1.000000	-1.000000	-1.000000	-1.000000	-1.000000	-1.000000	58.000000	0.000000	-1.000000	-1.000000	583242.000000	1775717788.115018
-21030.930000	-40339.530000	-9068.265000	-2852.190000	-804.105000	-33621.615000	-425.700000	7628.310000	1.207889	-3.957948	-1.452965	-1.246812	1.648778	7.449033	0.851913	0.173753	-1.297100	1.526000	-1.693860	-0.869444	-0.399169	0.296508	-1.000000	-1.000000	-1.000000	-1.000000	-1.000000	-1.000000	-1.000000	58.000000	0.000000	-1.000000	-1.000000	583243.000000	1775717788.119864
-21030.885000	-40338.855000	-9065.295000	-2848.995000	-802.710000	-33628.320000	-425.925000	7629.705000	2.447889	-1.481730	0.734384	-0.446043	1.506373	4.269721	0.884636	1.896684	-1.297100	1.526000	-1.693860	-0.869444	-0.399169	0.296508	-1.000000	-1.000000	-1.000000	-1.000000	-1.000000	-1.000000	-1.000000	58.000000	0.000000	-1.000000	-1.000000	583244.000000	1775717788.119889
-21033.720000	-40341.915000	-9067.095000	-2848.995000	-799.830000	-33623.595000	-421.470000	7629.660000	2.412194	1.507309	3.037723	0.883496	0.698253	-1.601216	0.152882	2.610414	-1.297100	1.526000	-1.693860	-0.869444	-0.399169	0.296508	-1.000000	-1.000000	-1.000000	-1.000000	-1.000000	-1.000000	-1.000000	58.000000	0.000000	-1.000000	-1.000000	583245.000000	1775717788.121968
-21049.110000	-40360.140000	-9085.590000	-2865.600000	-810.765000	-33622.830000	-424.305000	7616.430000	0.137817	2.481383	3.604357	1.400890	-0.624032	-6.810323	-0.874059	1.249206	-1.297100	1.526000	-1.693860	-0.869444	-0.399169	0.296508	-1.000000	-1.000000	-1.000000	-1.000000	-1.000000	-1.000000	-1.000000	58.000000	0.000000	-1.000000	-1.000000	583246.000000	1775717788.121986
-21051.720000	-40360.995000	-9087.615000	-2867.130000	-814.410000	-33628.365000	-432.855000	7608.960000	-4.037109	0.122811	1.101145	-0.191298	-2.501709	-8.684628	-1.890892	-2.192045	-1.297100	1.526000	-1.693860	-0.869444	-0.399169	0.296508	-1.000000	-1.000000	-1.000000	-1.000000	-1.000000	-1.000000	-1.000000	58.000000	0.000000	-1.000000	-1.000000	583247.000000	1775717788.126359
-21047.985000	-40357.125000	-9081.180000	-2862.450000	-814.185000	-33631.875000	-433.440000	7613.730000	-7.678817	-3.591663	-2.864136	-2.924928	-4.331367	-7.170665	-2.924176	-5.930358	-1.297100	1.526000	-1.693860	-0.869444	-0.399169	0.296508	-1.000000	-1.000000	-1.000000	-1.000000	-1.000000	-1.000000	-1.000000	58.000000	0.000000	-1.000000	-1.000000	583248.000000	1775717788.126377
-21050.145000	-40358.115000	-9081.630000	-2864.565000	-820.350000	-33635.790000	-433.800000	7612.020000	-7.842608	-5.059572	-4.753380	-4.102533	-4.793847	-3.943869	-3.480909	-7.103076	-1.297100	1.526000	-1.693860	-0.869444	-0.399169	0.296508	-1.000000	-1.000000	-1.000000	-1.000000	-1.000000	-1.000000	-1.000000	58.000000	0.000000	-1.000000	-1.000000	583249.000000	1775717788.129718
-21047.355000	-40354.650000	-9078.840000	-2860.425000	-816.840000	-33631.785000	-432.720000	7612.830000	-3.955241	-2.799480	-2.932119	-2.393986	-3.217984	-0.464692	-2.684267	-4.449230	-1.297100	1.526000	-1.693860	-0.869444	-0.399169	0.296508	-1.000000	-1.000000	-1.000000	-1.000000	-1.000000	-1.000000	-1.000000	58.000000	0.000000	-1.000000	-1.000000	583250.000000	1775717788.129738
-21044.655000	-40355.370000	-9079.605000	-2860.965000	-814.725000	-33630.930000	-431.460000	7617.825000	1.849578	1.596404	1.035706	1.085207	-0.059868	2.669235	-0.423782	0.576656	-1.632820	1.434440	-2.853620	-0.868528	-0.399596	0.298339	-1.000000	-1.000000	-1.000000	-1.000000	-1.000000	-1.000000	-1.000000	58.000000	0.000000	-1.000000	-1.000000	583251.000000	1775717788.137823
-21044.115000	-40357.845000	-9081.270000	-2863.170000	-816.165000	-33633.630000	-433.125000	7618.905000	6.704917	5.311784	4.365797	4.138273	3.476673	5.010680	2.303322	5.410159	-1.632820	1.434440	-2.853620	-0.868528	-0.399596	0.298339	-1.000000	-1.000000	-1.000000	-1.000000	-1.000000	-1.000000	-1.000000	58.000000	0.000000	-1.000000	-1.000000	583252.000000	1775717788.137852
-21047.805000	-40360.005000	-9083.970000	-2866.725000	-820.035000	-33639.435000	-434.970000	7614.945000	8.519599	6.288517	5.159796	4.995247	5.714948	5.715587	4.064140	7.849290	-1.632820	1.434440	-2.853620	-0.868528	-0.399596	0.298339	-1.000000	-1.000000	-1.000000	-1.000000	-1.000000	-1.000000	-1.000000	58.000000	0.000000	-1.000000	-1.000000	583253.000000	1775717788.139140
-21056.580000	-40368.105000	-9092.565000	-2874.915000	-828.315000	-33646.050000	-441.630000	7608.105000	6.601475	4.242952	3.213374	3.245597	5.358623	4.214528	3.906321	6.733864	-1.632820	1.434440	-2.853620	-0.868528	-0.399596	0.298339	-1.000000	-1.000000	-1.000000	-1.000000	-1.000000	-1.000000	-1.000000	58.000000	0.000000	-1.000000	-1.000000	583254.000000	1775717788.139163
-21056.085000	-40367.880000	-9092.745000	-2874.240000	-827.955000	-33643.890000	-442.215000	7607.610000	1.998372	0.493218	-0.247539	-0.025237	2.581556	1.215051	1.968579	2.665415	-1.632820	1.434440	-2.853620	-0.868528	-0.399596	0.298339	-1.000000	-1.000000	-1.000000	-1.000000	-1.000000	-1.000000	-1.000000	58.000000	0.000000	-1.000000	-1.000000	583255.000000	1775717788.148823
-21050.685000	-40362.840000	-9088.380000	-2869.470000	-822.960000	-33638.850000	-439.920000	7610.670000	-2.621880	-2.714853	-3.105560	-2.701860	-0.710585	-1.325819	-0.440048	-1.946011	-1.632820	1.434440	-2.853620	-0.868528	-0.399596	0.298339	-1.000000	-1.000000	-1.000000	-1.000000	-1.000000	-1.000000	-1.000000	58.000000	0.000000	-1.000000	-1.000000	583256.000000	1775717788.148846
-21044.700000	-40356.270000	-9082.395000	-2863.305000	-816.840000	-33632.055000	-435.555000	7615.485000	-4.496604	-3.383223	-3.447813	-2.907639	-2.185744	-1.661371	-1.645228	-4.387335	-1.632820	1.434440	-2.853620	-0.868528	-0.399596	0.298339	-1.000000	-1.000000	-1.000000	-1.000000	-1.000000	-1.000000	-1.000000	58.000000	0.000000	-1.000000	-1.000000	583257.000000	1775717788.148883
-21045.420000	-40356.225000	-9083.745000	-2865.060000	-818.190000	-33633.315000	-437.175000	7614.540000	-3.006041	-1.353937	-1.176318	-0.661472	-1.188526	0.097666	-1.040326	-3.700480	-1.632820	1.434440	-2.853620	-0.868528	-0.399596	0.298339	-1.000000	-1.000000	-1.000000	-1.000000	-1.000000	-1.000000	-1.000000	58.000000	0.000000	-1.000000	-1.000000	583258.000000	1775717788.148894
-21047.265000	-40357.845000	-9085.095000	-2866.140000	-820.260000	-33641.280000	-441.270000	7612.380000	-0.105188	1.415809	1.729700	1.995351	0.704051	1.889699	0.328774	-1.259943	-1.632820	1.434440	-2.853620	-0.868528	-0.399596	0.298339	-1.000000	-1.000000	-1.000000	-1.000000	-1.000000	-1.000000	-1.000000	58.000000	0.000000	-1.000000	-1.000000	583259.000000	1775717788.152142
-21043.755000	-40354.830000	-9080.280000	-2862.675000	-819.090000	-33654.105000	-447.120000	7615.260000	1.758485	2.695071	3.134083	3.002173	1.482469	1.413965	0.829201	0.808492	-1.632820	1.434440	-2.853620	-0.868528	-0.399596	0.298339	-1.000000	-1.000000	-1.000000	-1.000000	-1.000000	-1.000000	-1.000000	58.000000	0.000000	-1.000000	-1.000000	583260.000000	1775717788.152170
-21040.830000	-40354.380000	-9080.370000	-2863.440000	-821.700000	-33665.940000	-451.665000	7617.645000	1.804041	1.907925	2.575193	2.036008	0.590737	-1.806854	-0.187683	1.554558	-1.770160	1.724380	-1.892240	-0.867796	-0.401366	0.300109	-1.000000	-1.000000	-1.000000	-1.000000	-1.000000	-1.000000	-1.000000	58.000000	0.000000	-1.000000	-1.000000	583261.000000	1775717788.154637
