Channel1	Channel2	Channel3	Channel4	Channel5	Channel6	Channel7	Channel8	FilteredChannel1	FilteredChannel2	FilteredChannel3	FilteredChannel4	FilteredChannel5	FilteredChannel6	FilteredChannel7	FilteredChannel8	GyroX	GyroY	GyroZ	AccX	AccY	AccZ	PPG1	PPG2	rawPPG1	rawPPG2	rawPPG3	Hr	Hrv	Battery	Trigger	PhysicalTrigger	AutoTrigger	NumMeasurements	Timestamp
-21251.520000	-14665.365000	-11419.785000	-6242.850000	-3974.580000	-32889.690000	-3236.445000	400.680000	5.784352	3.798646	3.987712	4.205588	4.493375	6.346030	3.212847	3.614821	0.198380	1.236060	0.854560	-0.870115	-0.342162	0.358275	-1.000000	-1.000000	-1.000000	-1.000000	-1.000000	-1.000000	-1.000000	59.000000	0.000000	-1.000000	-1.000000	355121.000000	1775717331.322468
-21244.680000	-14659.290000	-11414.295000	-6238.080000	-3969.900000	-32886.540000	-3229.785000	407.295000	4.758489	4.117104	3.072426	3.498665	3.482335	1.684395	3.374896	4.207394	0.198380	1.236060	0.854560	-0.870115	-0.342162	0.358275	-1.000000	-1.000000	-1.000000	-1.000000	-1.000000	-1.000000	-1.000000	59.000000	0.000000	-1.000000	-1.000000	355122.000000	1775717331.322480
-21241.260000	-14658.165000	-11415.600000	-6238.980000	-3970.305000	-32885.190000	-3230.820000	408.555000	3.462342	4.086987	2.779791	3.261351	3.030144	-1.604395	3.585404	4.440737	0.198380	1.236060	0.854560	-0.870115	-0.342162	0.358275	-1.000000	-1.000000	-1.000000	-1.000000	-1.000000	-1.000000	-1.000000	59.000000	0.000000	-1.000000	-1.000000	355123.000000	1775717331.326653
-21253.140000	-14670.450000	-11430.225000	-6252.255000	-3981.285000	-32894.640000	-3238.650000	399.105000	1.991909	3.268840	2.168619	2.514826	2.352064	-2.874374	3.129210	3.794793	0.198380	1.236060	0.854560	-0.870115	-0.342162	0.358275	-1.000000	-1.000000	-1.000000	-1.000000	-1.000000	-1.000000	-1.000000	59.000000	0.000000	-1.000000	-1.000000	355124.000000	1775717331.326684
-21258.990000	-14676.840000	-11436.930000	-6258.330000	-3984.750000	-32893.245000	-3241.080000	392.580000	-0.476598	0.737446	-0.194011	-0.000038	0.248327	-3.120292	1.102035	1.410128	0.198380	1.236060	0.854560	-0.870115	-0.342162	0.358275	-1.000000	-1.000000	-1.000000	-1.000000	-1.000000	-1.000000	-1.000000	59.000000	0.000000	-1.000000	-1.000000	355125.000000	1775717331.330420
-21262.050000	-14680.755000	-11439.045000	-6263.505000	-3991.140000	-32895.180000	-3244.995000	389.970000	-3.925912	-3.145146	-3.886238	-3.813280	-3.030296	-3.128082	-2.089794	-2.390714	0.198380	1.236060	0.854560	-0.870115	-0.342162	0.358275	-1.000000	-1.000000	-1.000000	-1.000000	-1.000000	-1.000000	-1.000000	59.000000	0.000000	-1.000000	-1.000000	355126.000000	1775717331.330453
-21264.615000	-14684.940000	-11441.790000	-6266.205000	-3997.170000	-32902.470000	-3247.920000	388.755000	-6.609594	-6.277527	-6.463231	-6.652527	-5.760557	-2.855185	-4.772665	-5.600164	0.198380	1.236060	0.854560	-0.870115	-0.342162	0.358275	-1.000000	-1.000000	-1.000000	-1.000000	-1.000000	-1.000000	-1.000000	59.000000	0.000000	-1.000000	-1.000000	355127.000000	1775717331.337242
-21276.765000	-14693.445000	-11443.455000	-6264.810000	-3996.495000	-32904.990000	-3249.045000	381.735000	-6.916411	-6.828947	-5.980673	-6.506435	-6.323485	-2.306829	-5.491471	-6.329324	0.198380	1.236060	0.854560	-0.870115	-0.342162	0.358275	-1.000000	-1.000000	-1.000000	-1.000000	-1.000000	-1.000000	-1.000000	59.000000	0.000000	-1.000000	-1.000000	355128.000000	1775717331.337279
-21283.740000	-14693.085000	-11439.315000	-6262.335000	-3995.190000	-32910.030000	-3248.280000	376.920000	-5.050547	-4.704437	-2.594617	-3.156033	-4.152284	-1.601404	-3.911679	-4.528751	0.198380	1.236060	0.854560	-0.870115	-0.342162	0.358275	-1.000000	-1.000000	-1.000000	-1.000000	-1.000000	-1.000000	-1.000000	59.000000	0.000000	-1.000000	-1.000000	355129.000000	1775717331.342815
-21275.370000	-14680.440000	-11427.840000	-6253.695000	-3989.565000	-32916.060000	-3249.180000	382.770000	-1.977501	-0.705248	2.215143	1.925848	0.062721	-0.757747	-0.823975	-1.369887	0.198380	1.236060	0.854560	-0.870115	-0.342162	0.358275	-1.000000	-1.000000	-1.000000	-1.000000	-1.000000	-1.000000	-1.000000	59.000000	0.000000	-1.000000	-1.000000	355130.000000	1775717331.342846
-21262.635000	-14669.640000	-11419.875000	-6243.840000	-3977.595000	-32908.230000	-3245.265000	395.820000	2.131189	4.368346	6.742407	6.653945	4.757486	0.316009	2.377823	2.368135	0.488320	0.610400	1.098720	-0.869260	-0.340148	0.359008	-1.000000	-1.000000	-1.000000	-1.000000	-1.000000	-1.000000	-1.000000	59.000000	0.000000	-1.000000	-1.000000	355131.000000	1775717331.342876
-21249.000000	-14660.550000	-11413.890000	-6234.660000	-3965.760000	-32890.455000	-3236.490000	406.305000	7.085959	9.067536	9.272942	9.306120	8.351694	2.219651	4.638200	6.273463	0.488320	0.610400	1.098720	-0.869260	-0.340148	0.359008	-1.000000	-1.000000	-1.000000	-1.000000	-1.000000	-1.000000	-1.000000	59.000000	0.000000	-1.000000	-1.000000	355132.000000	1775717331.342890
-21238.110000	-14653.395000	-11408.940000	-6227.820000	-3954.780000	-32867.055000	-3213.855000	416.205000	11.266255	11.167383	8.507892	8.918367	9.668136	5.581015	5.953421	9.197468	0.488320	0.610400	1.098720	-0.869260	-0.340148	0.359008	-1.000000	-1.000000	-1.000000	-1.000000	-1.000000	-1.000000	-1.000000	59.000000	0.000000	-1.000000	-1.000000	355133.000000	1775717331.354118
-21235.950000	-14653.170000	-11407.050000	-6226.965000	-3953.295000	-32863.905000	-3212.190000	415.575000	12.154661	9.088295	4.468566	5.438782	7.944119	9.307208	6.647619	9.331005	0.488320	0.610400	1.098720	-0.869260	-0.340148	0.359008	-1.000000	-1.000000	-1.000000	-1.000000	-1.000000	-1.000000	-1.000000	59.000000	0.000000	-1.000000	-1.000000	355134.000000	1775717331.354148
-21229.155000	-14642.910000	-11391.930000	-6215.445000	-3943.620000	-32860.845000	-3210.480000	421.245000	8.301833	3.298917	-1.096618	-0.006983	3.275479	10.221335	5.852591	5.669504	0.488320	0.610400	1.098720	-0.869260	-0.340148	0.359008	-1.000000	-1.000000	-1.000000	-1.000000	-1.000000	-1.000000	-1.000000	59.000000	0.000000	-1.000000	-1.000000	355135.000000	1775717331.354177
-21219.075000	-14630.670000	-11379.330000	-6203.430000	-3933.270000	-32854.905000	-3204.090000	431.640000	0.997496	-3.450349	-5.376930	-5.055047	-2.650492	6.027142	2.404695	-0.496117	0.488320	0.610400	1.098720	-0.869260	-0.340148	0.359008	-1.000000	-1.000000	-1.000000	-1.000000	-1.000000	-1.000000	-1.000000	59.000000	0.000000	-1.000000	-1.000000	355136.000000	1775717331.354190
-21213.630000	-14625.765000	-11375.505000	-6198.615000	-3929.040000	-32854.815000	-3199.680000	436.275000	-6.326208	-7.931332	-6.581318	-7.500014	-7.286247	-1.909742	-2.819866	-6.105694	0.488320	0.610400	1.098720	-0.869260	-0.340148	0.359008	-1.000000	-1.000000	-1.000000	-1.000000	-1.000000	-1.000000	-1.000000	59.000000	0.000000	-1.000000	-1.000000	355137.000000	1775717331.367940
-21213.855000	-14626.800000	-11377.890000	-6202.125000	-3932.145000	-32859.270000	-3199.815000	435.600000	-10.804579	-9.049366	-5.569233	-7.268209	-9.323214	-9.869460	-7.393832	-8.936415	0.488320	0.610400	1.098720	-0.869260	-0.340148	0.359008	-1.000000	-1.000000	-1.000000	-1.000000	-1.000000	-1.000000	-1.000000	59.000000	0.000000	-1.000000	-1.000000	355138.000000	1775717331.367967
-21231.540000	-14642.910000	-11394.765000	-6218.640000	-3946.905000	-32872.950000	-3213.135000	416.295000	-12.108057	-8.314315	-4.822901	-6.346810	-9.497440	-14.862253	-9.796724	-9.320191	0.488320	0.610400	1.098720	-0.869260	-0.340148	0.359008	-1.000000	-1.000000	-1.000000	-1.000000	-1.000000	-1.000000	-1.000000	59.000000	0.000000	-1.000000	-1.000000	355139.000000	1775717331.367993
-21230.055000	-14640.255000	-11393.145000	-6215.535000	-3944.070000	-32867.685000	-3209.445000	419.535000	-11.520924	-7.607468	-5.742877	-6.337484	-8.971590	-15.596814	-9.995964	-8.809527	0.488320	0.610400	1.098720	-0.869260	-0.340148	0.359008	-1.000000	-1.000000	-1.000000	-1.000000	-1.000000	-1.000000	-1.000000	59.000000	0.000000	-1.000000	-1.000000	355140.000000	1775717331.368003
-21226.410000	-14636.970000	-11389.905000	-6211.845000	-3939.570000	-32859.315000	-3208.455000	422.370000	-9.329674	-6.676637	-6.835010	-6.251269	-7.308982	-11.566286	-7.983426	-7.417900	-2.365300	0.656180	-0.076300	-0.870664	-0.336303	0.359130	-1.000000	-1.000000	-1.000000	-1.000000	-1.000000	-1.000000	-1.000000	59.000000	0.000000	-1.000000	-1.000000	355141.000000	1775717331.368014
-21223.845000	-14635.665000	-11388.465000	-6210.765000	-3938.310000	-32853.465000	-3206.115000	425.295000	-4.714638	-3.880993	-5.360162	-3.901429	-3.314662	-3.359648	-3.646021	-3.850810	-2.365300	0.656180	-0.076300	-0.870664	-0.336303	0.359130	-1.000000	-1.000000	-1.000000	-1.000000	-1.000000	-1.000000	-1.000000	59.000000	0.000000	-1.000000	-1.000000	355142.000000	1775717331.368023
-21223.755000	-14637.105000	-11386.980000	-6210.045000	-3939.300000	-32853.915000	-3202.740000	428.310000	1.780545	0.869855	-0.740234	0.870953	2.396772	6.056815	1.985663	1.739175	-2.365300	0.656180	-0.076300	-0.870664	-0.336303	0.359130	-1.000000	-1.000000	-1.000000	-1.000000	-1.000000	-1.000000	-1.000000	59.000000	0.000000	-1.000000	-1.000000	355143.000000	1775717331.368034
-21228.030000	-14642.325000	-11389.140000	-6212.970000	-3944.250000	-32863.905000	-3207.735000	423.900000	7.616887	5.487767	4.813665	5.810828	7.264771	12.243997	6.768787	7.079310	-2.365300	0.656180	-0.076300	-0.870664	-0.336303	0.359130	-1.000000	-1.000000	-1.000000	-1.000000	-1.000000	-1.000000	-1.000000	59.000000	0.000000	-1.000000	-1.000000	355144.000000	1775717331.368043
-21223.710000	-14636.340000	-11384.595000	-6207.705000	-3938.040000	-32861.025000	-3203.865000	426.645000	10.306151	7.826364	8.501555	8.509714	9.132525	12.403253	8.758271	9.611106	-2.365300	0.656180	-0.076300	-0.870664	-0.336303	0.359130	-1.000000	-1.000000	-1.000000	-1.000000	-1.000000	-1.000000	-1.000000	59.000000	0.000000	-1.000000	-1.000000	355145.000000	1775717331.370304
-21221.595000	-14630.130000	-11383.425000	-6207.255000	-3938.940000	-32863.545000	-3204.270000	426.510000	9.408258	7.644598	9.039103	8.249607	7.961978	7.589175	7.583555	8.513371	-2.365300	0.656180	-0.076300	-0.870664	-0.336303	0.359130	-1.000000	-1.000000	-1.000000	-1.000000	-1.000000	-1.000000	-1.000000	59.000000	0.000000	-1.000000	-1.000000	355146.000000	1775717331.370334
-21220.245000	-14627.115000	-11383.020000	-6208.560000	-3940.605000	-32868.180000	-3206.880000	426.600000	6.295381	6.129438	6.877598	5.785865	5.063960	1.318588	4.401001	4.971580	-2.365300	0.656180	-0.076300	-0.870664	-0.336303	0.359130	-1.000000	-1.000000	-1.000000	-1.000000	-1.000000	-1.000000	-1.000000	59.000000	0.000000	-1.000000	-1.000000	355147.000000	1775717331.374424
-21216.060000	-14624.640000	-11378.610000	-6203.970000	-3935.430000	-32865.750000	-3202.965000	430.785000	2.630231	4.122405	3.307210	2.330918	1.748880	-3.367126	0.772779	0.937488	-2.365300	0.656180	-0.076300	-0.870664	-0.336303	0.359130	-1.000000	-1.000000	-1.000000	-1.000000	-1.000000	-1.000000	-1.000000	59.000000	0.000000	-1.000000	-1.000000	355148.000000	1775717331.374448
-21218.265000	-14626.755000	-11381.085000	-6205.680000	-3934.980000	-32862.195000	-3202.830000	430.020000	-0.480093	1.678321	-0.258235	-0.848055	-0.871763	-4.950096	-1.915289	-1.990096	-2.365300	0.656180	-0.076300	-0.870664	-0.336303	0.359130	-1.000000	-1.000000	-1.000000	-1.000000	-1.000000	-1.000000	-1.000000	59.000000	0.000000	-1.000000	-1.000000	355149.000000	1775717331.381426
-21223.665000	-14631.480000	-11386.350000	-6210.045000	-3938.355000	-32857.965000	-3206.790000	425.430000	-2.762568	-1.268977	-3.002117	-3.000133	-2.285974	-3.424046	-3.037324	-3.341622	-2.365300	0.656180	-0.076300	-0.870664	-0.336303	0.359130	-1.000000	-1.000000	-1.000000	-1.000000	-1.000000	-1.000000	-1.000000	59.000000	0.000000	-1.000000	-1.000000	355150.000000	1775717331.381458
-21232.845000	-14642.235000	-11397.780000	-6220.665000	-3950.190000	-32860.080000	-3214.125000	418.860000	-4.544931	-4.448605	-4.962671	-4.305535	-3.060321	-0.301632	-3.138419	-3.769021	-2.609460	1.785420	1.281840	-0.870176	-0.333007	0.359374	-1.000000	-1.000000	-1.000000	-1.000000	-1.000000	-1.000000	-1.000000	59.000000	0.000000	-1.000000	-1.000000	355151.000000	1775717331.401278
-21232.980000	-14642.460000	-11397.105000	-6220.620000	-3950.910000	-32862.285000	-3219.525000	418.365000	-5.815418	-7.008692	-6.170385	-5.076632	-3.929062	2.148770	-3.115033	-3.897467	-2.609460	1.785420	1.281840	-0.870176	-0.333007	0.359374	-1.000000	-1.000000	-1.000000	-1.000000	-1.000000	-1.000000	-1.000000	59.000000	0.000000	-1.000000	-1.000000	355152.000000	1775717331.401313
-21232.530000	-14641.200000	-11394.000000	-6219.405000	-3951.540000	-32869.260000	-3218.670000	419.445000	-5.705555	-7.509209	-5.799382	-4.782043	-4.443714	2.348604	-3.033994	-3.444922	-2.609460	1.785420	1.281840	-0.870176	-0.333007	0.359374	-1.000000	-1.000000	-1.000000	-1.000000	-1.000000	-1.000000	-1.000000	59.000000	0.000000	-1.000000	-1.000000	355153.000000	1775717331.401346
-21237.930000	-14646.555000	-11396.745000	-6221.745000	-3955.185000	-32878.215000	-3216.015000	415.980000	-3.557640	-5.095756	-3.105076	-2.722888	-3.516187	0.268214	-2.084134	-1.900551	-2.609460	1.785420	1.281840	-0.870176	-0.333007	0.359374	-1.000000	-1.000000	-1.000000	-1.000000	-1.000000	-1.000000	-1.000000	59.000000	0.000000	-1.000000	-1.000000	355154.000000	1775717331.401361
-21234.330000	-14642.820000	-11390.715000	-6215.265000	-3948.300000	-32874.705000	-3203.730000	420.660000	-0.074123	-0.714914	1.112138	0.684889	-0.945365	-2.607720	0.405929	0.460252	-2.609460	1.785420	1.281840	-0.870176	-0.333007	0.359374	-1.000000	-1.000000	-1.000000	-1.000000	-1.000000	-1.000000	-1.000000	59.000000	0.000000	-1.000000	-1.000000	355155.000000	1775717331.401378
-21218.670000	-14622.705000	-11376.270000	-6200.235000	-3933.090000	-32860.755000	-3196.080000	431.145000	3.609267	4.045993	5.254150	4.381998	2.702587	-3.776723	4.069557	2.988384	-2.609460	1.785420	1.281840	-0.870176	-0.333007	0.359374	-1.000000	-1.000000	-1.000000	-1.000000	-1.000000	-1.000000	-1.000000	59.000000	0.000000	-1.000000	-1.000000	355156.000000	1775717331.401390
-21214.035000	-14617.035000	-11373.570000	-6196.770000	-3928.905000	-32852.295000	-3198.780000	436.275000	6.849073	8.226837	8.123913	7.394369	6.503258	-1.457745	7.127096	5.198891	-2.609460	1.785420	1.281840	-0.870176	-0.333007	0.359374	-1.000000	-1.000000	-1.000000	-1.000000	-1.000000	-1.000000	-1.000000	59.000000	0.000000	-1.000000	-1.000000	355157.000000	1775717331.401405
-21222.945000	-14628.465000	-11387.520000	-6210.900000	-3941.595000	-32859.090000	-3208.185000	431.730000	8.371794	10.206772	8.280920	8.075650	8.395938	3.062492	7.059846	6.139910	-2.609460	1.785420	1.281840	-0.870176	-0.333007	0.359374	-1.000000	-1.000000	-1.000000	-1.000000	-1.000000	-1.000000	-1.000000	59.000000	0.000000	-1.000000	-1.000000	355158.000000	1775717331.401416
-21233.025000	-14639.715000	-11396.205000	-6219.630000	-3949.020000	-32862.510000	-3209.715000	425.520000	6.207692	7.583124	4.314218	4.605666	5.996917	5.948183	2.864278	4.467805	-2.609460	1.785420	1.281840	-0.870176	-0.333007	0.359374	-1.000000	-1.000000	-1.000000	-1.000000	-1.000000	-1.000000	-1.000000	59.000000	0.000000	-1.000000	-1.000000	355159.000000	1775717331.401430
-21232.035000	-14637.015000	-11392.470000	-6216.165000	-3945.645000	-32860.035000	-3209.940000	426.735000	0.346479	0.452187	-2.609087	-2.151434	-0.273636	4.724421	-3.320866	0.178900	-2.609460	1.785420	1.281840	-0.870176	-0.333007	0.359374	-1.000000	-1.000000	-1.000000	-1.000000	-1.000000	-1.000000	-1.000000	59.000000	0.000000	-1.000000	-1.000000	355160.000000	1775717331.401441
-21226.995000	-14629.725000	-11385.270000	-6208.605000	-3938.625000	-32858.100000	-3209.265000	430.470000	-5.891335	-6.997317	-8.234910	-7.954658	-6.388084	0.659515	-7.748801	-4.451360	-2.136400	3.158820	0.488320	-0.868589	-0.332763	0.361510	-1.000000	-1.000000	-1.000000	-1.000000	-1.000000	-1.000000	-1.000000	59.000000	0.000000	-1.000000	-1.000000	355161.000000	1775717331.413206
-21231.540000	-14635.890000	-11391.480000	-6214.230000	-3943.035000	-32865.435000	-3212.730000	427.635000	-8.647126	-10.125242	-9.018987	-9.038082	-8.431327	-3.299724	-8.191220	-6.692745	-2.136400	3.158820	0.488320	-0.868589	-0.332763	0.361510	-1.000000	-1.000000	-1.000000	-1.000000	-1.000000	-1.000000	-1.000000	59.000000	0.000000	-1.000000	-1.000000	355162.000000	1775717331.413236
-21229.470000	-14641.245000	-11395.395000	-6217.155000	-3944.880000	-32867.865000	-3207.780000	432.630000	-6.986242	-8.190106	-5.502735	-5.688859	-6.162734	-5.444720	-5.113021	-5.700008	-2.136400	3.158820	0.488320	-0.868589	-0.332763	0.361510	-1.000000	-1.000000	-1.000000	-1.000000	-1.000000	-1.000000	-1.000000	59.000000	0.000000	-1.000000	-1.000000	355163.000000	1775717331.413286
-21229.470000	-14650.470000	-11401.020000	-6222.870000	-3950.595000	-32872.455000	-3209.220000	431.055000	-2.762713	-3.971014	-0.959019	-1.091436	-2.228855	-5.587197	-0.491257	-2.576456	-2.136400	3.158820	0.488320	-0.868589	-0.332763	0.361510	-1.000000	-1.000000	-1.000000	-1.000000	-1.000000	-1.000000	-1.000000	59.000000	0.000000	-1.000000	-1.000000	355164.000000	1775717331.413301
-21219.255000	-14632.875000	-11390.175000	-6215.490000	-3945.060000	-32866.245000	-3205.620000	435.420000	1.733791	0.017529	2.271146	2.222959	0.949419	-3.965894	3.562484	0.883064	-2.136400	3.158820	0.488320	-0.868589	-0.332763	0.361510	-1.000000	-1.000000	-1.000000	-1.000000	-1.000000	-1.000000	-1.000000	59.000000	0.000000	-1.000000	-1.000000	355165.000000	1775717331.413320
-21210.705000	-14613.345000	-11378.565000	-6204.915000	-3933.855000	-32854.545000	-3201.525000	438.435000	5.182249	3.803951	4.314986	4.082101	2.960338	-0.711649	5.696874	3.287501	-2.136400	3.158820	0.488320	-0.868589	-0.332763	0.361510	-1.000000	-1.000000	-1.000000	-1.000000	-1.000000	-1.000000	-1.000000	59.000000	0.000000	-1.000000	-1.000000	355166.000000	1775717331.413333
-21214.080000	-14614.650000	-11377.890000	-6203.700000	-3931.965000	-32850.090000	-3197.565000	439.020000	6.819386	7.818944	5.958182	5.327424	4.499464	3.599684	5.733198	4.095008	-2.136400	3.158820	0.488320	-0.868589	-0.332763	0.361510	-1.000000	-1.000000	-1.000000	-1.000000	-1.000000	-1.000000	-1.000000	59.000000	0.000000	-1.000000	-1.000000	355167.000000	1775717331.413347
-21221.820000	-14622.435000	-11383.560000	-6210.405000	-3939.615000	-32853.510000	-3200.535000	432.180000	5.665800	9.885317	6.391307	5.592094	5.211638	7.042900	4.122495	3.208931	-2.136400	3.158820	0.488320	-0.868589	-0.332763	0.361510	-1.000000	-1.000000	-1.000000	-1.000000	-1.000000	-1.000000	-1.000000	59.000000	0.000000	-1.000000	-1.000000	355168.000000	1775717331.413359
-21216.555000	-14617.395000	-11377.575000	-6205.005000	-3935.385000	-32851.620000	-3198.555000	433.350000	1.642154	7.312552	4.269966	3.784982	3.881285	7.301444	1.397986	0.888322	-2.136400	3.158820	0.488320	-0.868589	-0.332763	0.361510	-1.000000	-1.000000	-1.000000	-1.000000	-1.000000	-1.000000	-1.000000	59.000000	0.000000	-1.000000	-1.000000	355169.000000	1775717331.432172
-21216.555000	-14619.825000	-11379.780000	-6205.815000	-3937.005000	-32857.470000	-3201.480000	434.970000	-3.123329	0.910908	0.163977	0.320757	0.691707	3.903801	-1.641201	-1.719277	-2.136400	3.158820	0.488320	-0.868589	-0.332763	0.361510	-1.000000	-1.000000	-1.000000	-1.000000	-1.000000	-1.000000	-1.000000	59.000000	0.000000	-1.000000	-1.000000	355170.000000	1775717331.432202
-21214.215000	-14618.610000	-11378.835000	-6203.880000	-3934.350000	-32859.585000	-3206.565000	437.715000	-5.864811	-5.658537	-3.831867	-2.970789	-2.564805	-1.385907	-4.069032	-3.024941	-0.305200	3.387720	0.076300	-0.868894	-0.334167	0.361938	-1.000000	-1.000000	-1.000000	-1.000000	-1.000000	-1.000000	-1.000000	59.000000	0.000000	-1.000000	-1.000000	355171.000000	1775717331.432232
-21213.720000	-14615.190000	-11376.540000	-6201.630000	-3931.965000	-32856.390000	-3200.490000	438.615000	-5.535232	-9.154697	-5.978285	-4.605943	-4.212939	-5.851480	-5.149814	-2.375195	-0.305200	3.387720	0.076300	-0.868894	-0.334167	0.361938	-1.000000	-1.000000	-1.000000	-1.000000	-1.000000	-1.000000	-1.000000	59.000000	0.000000	-1.000000	-1.000000	355172.000000	1775717331.432245
-21208.995000	-14608.440000	-11371.005000	-6198.705000	-3929.535000	-32854.545000	-3198.015000	442.980000	-2.968991	-8.356765	-5.576956	-4.196291	-3.729997	-7.248829	-4.274185	-0.453718	-0.305200	3.387720	0.076300	-0.868894	-0.334167	0.361938	-1.000000	-1.000000	-1.000000	-1.000000	-1.000000	-1.000000	-1.000000	59.000000	0.000000	-1.000000	-1.000000	355173.000000	1775717331.432261
-21204.360000	-14603.220000	-11361.195000	-6187.455000	-3919.815000	-32851.845000	-3202.110000	449.235000	0.319360	-4.148644	-2.907721	-2.162234	-1.648110	-5.130798	-1.666960	1.609309	-0.305200	3.387720	0.076300	-0.868894	-0.334167	0.361938	-1.000000	-1.000000	-1.000000	-1.000000	-1.000000	-1.000000	-1.000000	59.000000	0.000000	-1.000000	-1.000000	355174.000000	1775717331.432272
-21197.295000	-14601.825000	-11353.995000	-6176.655000	-3907.170000	-32839.200000	-3194.505000	457.830000	3.059252	1.061478	0.914019	0.790247	1.185377	-0.846075	1.268370	3.083981	-0.305200	3.387720	0.076300	-0.868894	-0.334167	0.361938	-1.000000	-1.000000	-1.000000	-1.000000	-1.000000	-1.000000	-1.000000	59.000000	0.000000	-1.000000	-1.000000	355175.000000	1775717331.432287
-21199.545000	-14604.930000	-11360.475000	-6183.630000	-3912.390000	-32848.695000	-3196.935000	455.355000	4.368093	4.542390	3.981535	3.412048	3.650554	3.435335	3.224741	3.521395	-0.305200	3.387720	0.076300	-0.868894	-0.334167	0.361938	-1.000000	-1.000000	-1.000000	-1.000000	-1.000000	-1.000000	-1.000000	59.000000	0.000000	-1.000000	-1.000000	355176.000000	1775717331.432298
-21208.770000	-14611.590000	-11366.190000	-6191.280000	-3921.255000	-32855.895000	-3203.955000	441.855000	3.504425	4.653176	4.208561	3.689299	3.918507	5.236545	3.518637	2.163317	-0.305200	3.387720	0.076300	-0.868894	-0.334167	0.361938	-1.000000	-1.000000	-1.000000	-1.000000	-1.000000	-1.000000	-1.000000	59.000000	0.000000	-1.000000	-1.000000	355177.000000	1775717331.438164
-21218.895000	-14620.950000	-11375.640000	-6200.505000	-3929.220000	-32850.720000	-3202.155000	431.820000	0.249733	1.644515	1.029547	0.572675	0.830219	3.448942	2.002010	-1.496643	-0.305200	3.387720	0.076300	-0.868894	-0.334167	0.361938	-1.000000	-1.000000	-1.000000	-1.000000	-1.000000	-1.000000	-1.000000	59.000000	0.000000	-1.000000	-1.000000	355178.000000	1775717331.438195
-21221.460000	-14625.945000	-11382.615000	-6206.895000	-3934.530000	-32840.145000	-3186.270000	433.980000	-4.100028	-2.565974	-3.757412	-4.361167	-4.205757	0.100567	-0.043228	-6.023734	-0.305200	3.387720	0.076300	-0.868894	-0.334167	0.361938	-1.000000	-1.000000	-1.000000	-1.000000	-1.000000	-1.000000	-1.000000	59.000000	0.000000	-1.000000	-1.000000	355179.000000	1775717331.438223
-21221.640000	-14627.430000	-11384.370000	-6210.045000	-3939.255000	-32854.230000	-3194.730000	432.720000	-6.880577	-5.382859	-7.170200	-7.913270	-7.983224	-1.938428	-0.728251	-8.248156	-0.305200	3.387720	0.076300	-0.868894	-0.334167	0.361938	-1.000000	-1.000000	-1.000000	-1.000000	-1.000000	-1.000000	-1.000000	59.000000	0.000000	-1.000000	-1.000000	355180.000000	1775717331.438236
-21221.280000	-14627.655000	-11385.990000	-6211.620000	-3941.145000	-32859.180000	-3200.445000	432.630000	-6.027718	-4.991718	-6.970169	-7.656468	-8.054437	-2.412986	-0.245175	-6.204946	-0.366240	3.341940	-0.137340	-0.869383	-0.333922	0.362243	-1.000000	-1.000000	-1.000000	-1.000000	-1.000000	-1.000000	-1.000000	59.000000	0.000000	-1.000000	-1.000000	355181.000000	1775717331.447921
-21219.210000	-14624.280000	-11384.955000	-6211.395000	-3940.020000	-32856.840000	-3201.030000	433.710000	-1.808016	-1.469005	-3.050880	-3.490975	-4.232795	-2.515194	-0.340555	-0.959834	-0.366240	3.341940	-0.137340	-0.869383	-0.333922	0.362243	-1.000000	-1.000000	-1.000000	-1.000000	-1.000000	-1.000000	-1.000000	59.000000	0.000000	-1.000000	-1.000000	355182.000000	1775717331.447956
-21219.795000	-14622.570000	-11382.435000	-6209.145000	-3938.670000	-32853.330000	-3200.355000	433.260000	3.483892	3.388378	2.651591	2.559335	1.685931	-2.136070	-1.364756	4.616344	-0.366240	3.341940	-0.137340	-0.869383	-0.333922	0.362243	-1.000000	-1.000000	-1.000000	-1.000000	-1.000000	-1.000000	-1.000000	59.000000	0.000000	-1.000000	-1.000000	355183.000000	1775717331.447988
-21226.140000	-14626.080000	-11384.190000	-6209.820000	-3939.705000	-32853.555000	-3203.865000	428.715000	7.046208	7.092193	7.453239	7.729014	7.035129	-0.574898	-2.164459	7.848744	-0.366240	3.341940	-0.137340	-0.869383	-0.333922	0.362243	-1.000000	-1.000000	-1.000000	-1.000000	-1.000000	-1.000000	-1.000000	59.000000	0.000000	-1.000000	-1.000000	355184.000000	1775717331.448049
-21226.050000	-14626.215000	-11384.955000	-6209.820000	-3939.480000	-32853.555000	-3206.790000	427.770000	7.185509	7.748752	9.252315	9.888764	9.564962	1.687604	-1.994000	7.531902	-0.366240	3.341940	-0.137340	-0.869383	-0.333922	0.362243	-1.000000	-1.000000	-1.000000	-1.000000	-1.000000	-1.000000	-1.000000	59.000000	0.000000	-1.000000	-1.000000	355185.000000	1775717331.453934
-21231.540000	-14633.955000	-11390.895000	-6214.590000	-3943.440000	-32855.220000	-3207.690000	425.070000	4.304239	5.116131	7.420698	8.365067	8.470594	3.289818	-1.046297	4.393418	-0.366240	3.341940	-0.137340	-0.869383	-0.333922	0.362243	-1.000000	-1.000000	-1.000000	-1.000000	-1.000000	-1.000000	-1.000000	59.000000	0.000000	-1.000000	-1.000000	355186.000000	1775717331.453964
-21228.480000	-14629.230000	-11384.415000	-6208.335000	-3937.275000	-32853.240000	-3201.885000	430.155000	0.376404	0.690179	3.137796	4.198356	4.706136	3.352052	0.333085	0.496829	-0.366240	3.341940	-0.137340	-0.869383	-0.333922	0.362243	-1.000000	-1.000000	-1.000000	-1.000000	-1.000000	-1.000000	-1.000000	59.000000	0.000000	-1.000000	-1.000000	355187.000000	1775717331.453993
-21234.015000	-14633.595000	-11388.600000	-6211.395000	-3940.695000	-32859.945000	-3204.720000	425.385000	-2.557759	-3.195747	-1.259850	-0.409883	0.339848	1.999314	1.911071	-2.195527	-0.366240	3.341940	-0.137340	-0.869383	-0.333922	0.362243	-1.000000	-1.000000	-1.000000	-1.000000	-1.000000	-1.000000	-1.000000	59.000000	0.000000	-1.000000	-1.000000	355188.000000	1775717331.454005
-21240.225000	-14639.085000	-11394.855000	-6219.090000	-3950.055000	-32871.915000	-3213.900000	418.950000	-3.705710	-5.010731	-4.085017	-3.763910	-3.089247	-0.304572	2.900639	-3.198558	-0.366240	3.341940	-0.137340	-0.869383	-0.333922	0.362243	-1.000000	-1.000000	-1.000000	-1.000000	-1.000000	-1.000000	-1.000000	59.000000	0.000000	-1.000000	-1.000000	355189.000000	1775717331.457958
-21232.395000	-14632.065000	-11388.285000	-6214.140000	-3947.715000	-32869.305000	-3211.335000	425.610000	-3.353711	-4.682078	-5.042965	-5.448545	-5.228586	-2.886400	2.356596	-3.127921	-0.366240	3.341940	-0.137340	-0.869383	-0.333922	0.362243	-1.000000	-1.000000	-1.000000	-1.000000	-1.000000	-1.000000	-1.000000	59.000000	0.000000	-1.000000	-1.000000	355190.000000	1775717331.457987
-21218.985000	-14619.375000	-11376.360000	-6200.775000	-3933.045000	-32851.440000	-3196.980000	438.210000	-1.506416	-2.439430	-3.991634	-5.087549	-5.511853	-3.965499	0.935031	-1.999111	-2.655240	2.517900	-0.564620	-0.870420	-0.333007	0.360961	-1.000000	-1.000000	-1.000000	-1.000000	-1.000000	-1.000000	-1.000000	59.000000	0.000000	-1.000000	-1.000000	355191.000000	1775717331.462028
-21212.280000	-14609.340000	-11364.570000	-6188.085000	-3919.320000	-32835.870000	-3193.335000	441.675000	1.829140	1.392530	-0.799198	-2.152401	-2.927995	-1.522618	0.531206	0.502261	-2.655240	2.517900	-0.564620	-0.870420	-0.333007	0.360961	-1.000000	-1.000000	-1.000000	-1.000000	-1.000000	-1.000000	-1.000000	59.000000	0.000000	-1.000000	-1.000000	355192.000000	1775717331.462052
-21212.820000	-14610.780000	-11366.100000	-6189.795000	-3918.780000	-32832.315000	-3188.070000	444.060000	5.091462	5.181985	3.197602	2.246304	1.803091	3.776505	1.597807	3.283214	-2.655240	2.517900	-0.564620	-0.870420	-0.333007	0.360961	-1.000000	-1.000000	-1.000000	-1.000000	-1.000000	-1.000000	-1.000000	59.000000	0.000000	-1.000000	-1.000000	355193.000000	1775717331.469228
-21216.555000	-14614.965000	-11371.680000	-6195.735000	-3925.035000	-32841.225000	-3192.705000	441.000000	5.713286	6.257715	5.157765	4.990971	5.402904	7.863896	2.474098	4.229286	-2.655240	2.517900	-0.564620	-0.870420	-0.333007	0.360961	-1.000000	-1.000000	-1.000000	-1.000000	-1.000000	-1.000000	-1.000000	59.000000	0.000000	-1.000000	-1.000000	355194.000000	1775717331.469258
-21211.515000	-14610.330000	-11368.170000	-6192.810000	-3923.055000	-32843.565000	-3189.285000	444.780000	2.718696	3.388377	3.261534	3.739346	4.873212	6.781259	1.483651	2.367386	-2.655240	2.517900	-0.564620	-0.870420	-0.333007	0.360961	-1.000000	-1.000000	-1.000000	-1.000000	-1.000000	-1.000000	-1.000000	59.000000	0.000000	-1.000000	-1.000000	355195.000000	1775717331.471015
-21208.320000	-14606.415000	-11365.605000	-6191.100000	-3922.290000	-32846.940000	-3187.890000	446.940000	-1.997356	-1.570590	-1.137388	-0.473702	0.648910	0.646897	-1.185634	-1.095481	-2.655240	2.517900	-0.564620	-0.870420	-0.333007	0.360961	-1.000000	-1.000000	-1.000000	-1.000000	-1.000000	-1.000000	-1.000000	59.000000	0.000000	-1.000000	-1.000000	355196.000000	1775717331.471056
-21208.275000	-14605.695000	-11364.660000	-6190.470000	-3921.390000	-32848.560000	-3187.440000	447.435000	-5.509956	-5.419701	-4.891085	-4.463085	-4.093414	-6.571217	-3.833577	-3.971558	-2.655240	2.517900	-0.564620	-0.870420	-0.333007	0.360961	-1.000000	-1.000000	-1.000000	-1.000000	-1.000000	-1.000000	-1.000000	59.000000	0.000000	-1.000000	-1.000000	355197.000000	1775717331.473930
-21209.580000	-14605.605000	-11364.075000	-6189.345000	-3919.275000	-32845.140000	-3187.575000	445.500000	-6.409033	-6.452921	-5.991957	-5.929744	-6.483544	-10.538222	-5.012053	-4.992703	-2.655240	2.517900	-0.564620	-0.870420	-0.333007	0.360961	-1.000000	-1.000000	-1.000000	-1.000000	-1.000000	-1.000000	-1.000000	59.000000	0.000000	-1.000000	-1.000000	355198.000000	1775717331.473957
-21214.755000	-14608.305000	-11365.470000	-6190.155000	-3921.210000	-32845.275000	-3191.940000	440.010000	-5.234537	-5.108001	-4.565369	-4.676911	-5.727372	-9.354261	-4.502131	-4.388238	-2.655240	2.517900	-0.564620	-0.870420	-0.333007	0.360961	-1.000000	-1.000000	-1.000000	-1.000000	-1.000000	-1.000000	-1.000000	59.000000	0.000000	-1.000000	-1.000000	355199.000000	1775717331.478064
-21213.225000	-14608.620000	-11367.315000	-6191.865000	-3921.615000	-32845.680000	-3193.515000	442.170000	-3.214396	-2.780825	-1.999197	-1.983140	-2.944083	-4.258924	-3.004494	-3.000852	-2.655240	2.517900	-0.564620	-0.870420	-0.333007	0.360961	-1.000000	-1.000000	-1.000000	-1.000000	-1.000000	-1.000000	-1.000000	59.000000	0.000000	-1.000000	-1.000000	355200.000000	1775717331.478091
-21219.930000	-14620.905000	-11379.240000	-6201.045000	-3927.330000	-32845.770000	-3197.655000	437.445000	-1.170892	-0.778493	0.106890	0.433293	0.014175	1.656386	-1.320561	-1.332218	-3.708180	2.121140	-0.793520	-0.871336	-0.334289	0.358642	-1.000000	-1.000000	-1.000000	-1.000000	-1.000000	-1.000000	-1.000000	59.000000	0.000000	-1.000000	-1.000000	355201.000000	1775717331.485169
-21229.155000	-14632.155000	-11389.545000	-6209.640000	-3936.150000	-32848.740000	-3202.335000	430.335000	0.358402	-0.034996	0.625187	1.295538	1.661089	5.616199	0.082498	0.251343	-3.708180	2.121140	-0.793520	-0.871336	-0.334289	0.358642	-1.000000	-1.000000	-1.000000	-1.000000	-1.000000	-1.000000	-1.000000	59.000000	0.000000	-1.000000	-1.000000	355202.000000	1775717331.485201
-21231.720000	-14629.140000	-11390.040000	-6214.590000	-3946.860000	-32860.575000	-3208.320000	426.735000	1.000262	-0.424182	-0.242888	0.554435	1.428232	6.266630	0.976520	1.223399	-3.708180	2.121140	-0.793520	-0.871336	-0.334289	0.358642	-1.000000	-1.000000	-1.000000	-1.000000	-1.000000	-1.000000	-1.000000	59.000000	0.000000	-1.000000	-1.000000	355203.000000	1775717331.486535
-21232.755000	-14624.820000	-11388.105000	-6215.130000	-3947.445000	-32865.750000	-3212.955000	424.035000	1.160504	-0.287177	-0.762921	-0.470234	0.034738	3.785942	1.341987	1.512466	-3.708180	2.121140	-0.793520	-0.871336	-0.334289	0.358642	-1.000000	-1.000000	-1.000000	-1.000000	-1.000000	-1.000000	-1.000000	59.000000	0.000000	-1.000000	-1.000000	355204.000000	1775717331.486558
-21231.765000	-14620.095000	-11382.075000	-6211.170000	-3943.350000	-32865.930000	-3211.335000	423.450000	1.742922	1.847204	0.707351	-0.158005	-0.694891	0.000572	1.514185	1.654538	-3.708180	2.121140	-0.793520	-0.871336	-0.334289	0.358642	-1.000000	-1.000000	-1.000000	-1.000000	-1.000000	-1.000000	-1.000000	59.000000	0.000000	-1.000000	-1.000000	355205.000000	1775717331.494322
-21237.030000	-14627.520000	-11386.575000	-6213.510000	-3942.045000	-32862.555000	-3209.265000	419.940000	2.927555	5.120645	3.826973	1.904127	0.669164	-2.400415	2.072089	2.052928	-3.708180	2.121140	-0.793520	-0.871336	-0.334289	0.358642	-1.000000	-1.000000	-1.000000	-1.000000	-1.000000	-1.000000	-1.000000	59.000000	0.000000	-1.000000	-1.000000	355206.000000	1775717331.494352
-21231.540000	-14618.385000	-11377.980000	-6204.240000	-3931.830000	-32849.595000	-3208.050000	422.595000	3.970303	7.100870	6.520350	4.573253	3.735422	-1.669671	3.175251	2.581652	-3.708180	2.121140	-0.793520	-0.871336	-0.334289	0.358642	-1.000000	-1.000000	-1.000000	-1.000000	-1.000000	-1.000000	-1.000000	59.000000	0.000000	-1.000000	-1.000000	355207.000000	1775717331.494380
-21229.515000	-14614.290000	-11379.105000	-6204.735000	-3929.805000	-32844.150000	-3211.785000	422.865000	4.268468	6.559331	7.044143	6.292097	6.713031	1.820378	4.066203	2.934876	-3.708180	2.121140	-0.793520	-0.871336	-0.334289	0.358642	-1.000000	-1.000000	-1.000000	-1.000000	-1.000000	-1.000000	-1.000000	59.000000	0.000000	-1.000000	-1.000000	355208.000000	1775717331.494392
-21236.490000	-14626.530000	-11396.700000	-6222.330000	-3948.615000	-32855.805000	-3214.440000	423.270000	3.608312	3.915478	4.749086	5.663011	7.270448	5.379605	3.630315	2.863843	-3.708180	2.121140	-0.793520	-0.871336	-0.334289	0.358642	-1.000000	-1.000000	-1.000000	-1.000000	-1.000000	-1.000000	-1.000000	59.000000	0.000000	-1.000000	-1.000000	355209.000000	1775717331.504448
-21240.990000	-14631.615000	-11400.255000	-6226.830000	-3955.635000	-32866.200000	-3220.650000	419.670000	1.666256	-0.287470	-0.183833	1.850568	3.664451	5.472070	1.494226	2.084146	-3.708180	2.121140	-0.793520	-0.871336	-0.334289	0.358642	-1.000000	-1.000000	-1.000000	-1.000000	-1.000000	-1.000000	-1.000000	59.000000	0.000000	-1.000000	-1.000000	355210.000000	1775717331.504476
-21243.060000	-14634.450000	-11403.225000	-6231.825000	-3962.970000	-32880.105000	-3230.820000	416.250000	-1.324162	-4.977769	-5.791446	-3.767711	-3.007799	0.885937	-1.676954	0.445157	-3.357200	2.289000	-0.503580	-0.871092	-0.337524	0.357726	-1.000000	-1.000000	-1.000000	-1.000000	-1.000000	-1.000000	-1.000000	59.000000	0.000000	-1.000000	-1.000000	355211.000000	1775717331.504504
-21242.790000	-14633.775000	-11403.405000	-6233.130000	-3964.815000	-32883.255000	-3231.135000	415.800000	-3.976997	-7.960955	-8.836210	-7.849998	-8.803437	-5.767386	-4.572127	-1.652734	-3.357200	2.289000	-0.503580	-0.871092	-0.337524	0.357726	-1.000000	-1.000000	-1.000000	-1.000000	-1.000000	-1.000000	-1.000000	59.000000	0.000000	-1.000000	-1.000000	355212.000000	1775717331.504516
-21257.190000	-14646.420000	-11416.455000	-6245.595000	-3978.090000	-32885.640000	-3227.985000	405.585000	-5.036656	-7.733613	-7.764223	-8.150637	-10.387554	-10.027119	-5.552846	-3.403825	-3.357200	2.289000	-0.503580	-0.871092	-0.337524	0.357726	-1.000000	-1.000000	-1.000000	-1.000000	-1.000000	-1.000000	-1.000000	59.000000	0.000000	-1.000000	-1.000000	355213.000000	1775717331.505155
-21277.755000	-14665.005000	-11432.655000	-6259.950000	-3992.040000	-32896.485000	-3237.075000	389.700000	-4.932614	-5.261478	-4.194824	-5.422476	-7.747497	-9.191559	-3.820053	-4.516672	-3.357200	2.289000	-0.503580	-0.871092	-0.337524	0.357726	-1.000000	-1.000000	-1.000000	-1.000000	-1.000000	-1.000000	-1.000000	59.000000	0.000000	-1.000000	-1.000000	355214.000000	1775717331.505174
-21287.205000	-14675.310000	-11442.780000	-6269.130000	-3999.465000	-32903.190000	-3246.390000	383.895000	-4.850103	-2.789210	-0.951992	-2.030552	-3.236960	-4.295171	-0.720266	-5.161376	-3.357200	2.289000	-0.503580	-0.871092	-0.337524	0.357726	-1.000000	-1.000000	-1.000000	-1.000000	-1.000000	-1.000000	-1.000000	59.000000	0.000000	-1.000000	-1.000000	355215.000000	1775717331.517167
-21284.370000	-14674.770000	-11443.815000	-6270.435000	-3999.780000	-32900.580000	-3249.765000	385.965000	-4.344055	-1.005169	0.926213	0.705031	1.232307	1.669923	1.517609	-4.705421	-3.357200	2.289000	-0.503580	-0.871092	-0.337524	0.357726	-1.000000	-1.000000	-1.000000	-1.000000	-1.000000	-1.000000	-1.000000	59.000000	0.000000	-1.000000	-1.000000	355216.000000	1775717331.517197
-21289.410000	-14677.155000	-11446.650000	-6272.820000	-4002.885000	-32901.390000	-3256.650000	381.060000	-1.740462	1.269523	2.471083	3.080872	5.087160	6.497788	2.084896	-2.116478	-3.357200	2.289000	-0.503580	-0.871092	-0.337524	0.357726	-1.000000	-1.000000	-1.000000	-1.000000	-1.000000	-1.000000	-1.000000	59.000000	0.000000	-1.000000	-1.000000	355217.000000	1775717331.527876
-21285.315000	-14671.170000	-11441.205000	-6266.745000	-3996.990000	-32895.675000	-3250.710000	384.840000	3.084550	4.746077	4.664352	5.547811	8.038396	9.227398	1.816620	2.205157	-3.357200	2.289000	-0.503580	-0.871092	-0.337524	0.357726	-1.000000	-1.000000	-1.000000	-1.000000	-1.000000	-1.000000	-1.000000	59.000000	0.000000	-1.000000	-1.000000	355218.000000	1775717331.527906
-21266.595000	-14651.325000	-11422.305000	-6248.655000	-3979.305000	-32882.490000	-3239.055000	398.025000	8.420484	8.758176	7.456300	8.025556	9.845086	9.759240	2.172399	6.643613	-3.357200	2.289000	-0.503580	-0.871092	-0.337524	0.357726	-1.000000	-1.000000	-1.000000	-1.000000	-1.000000	-1.000000	-1.000000	59.000000	0.000000	-1.000000	-1.000000	355219.000000	1775717331.534205
-21254.085000	-14639.310000	-11411.460000	-6239.520000	-3972.780000	-32874.840000	-3234.195000	403.920000	12.514416	12.068819	10.119951	10.024130	10.457616	8.619843	3.877421	9.774449	-3.357200	2.289000	-0.503580	-0.871092	-0.337524	0.357726	-1.000000	-1.000000	-1.000000	-1.000000	-1.000000	-1.000000	-1.000000	59.000000	0.000000	-1.000000	-1.000000	355220.000000	1775717331.534235
-21258.900000	-14640.300000	-11412.855000	-6240.870000	-3974.085000	-32886.720000	-3233.520000	403.290000	13.560890	12.804050	10.928445	10.116118	9.112681	5.830793	5.716918	10.305010	-0.717220	2.212700	-0.885080	-0.870847	-0.340636	0.356078	-1.000000	-1.000000	-1.000000	-1.000000	-1.000000	-1.000000	-1.000000	59.000000	0.000000	-1.000000	-1.000000	355221.000000	1775717331.534264
-21246.705000	-14627.205000	-11401.695000	-6230.205000	-3963.375000	-32878.935000	-3221.685000	415.395000	9.911826	9.181143	7.930231	6.698109	4.834288	0.915039	5.672429	7.418959	-0.717220	2.212700	-0.885080	-0.870847	-0.340636	0.356078	-1.000000	-1.000000	-1.000000	-1.000000	-1.000000	-1.000000	-1.000000	59.000000	0.000000	-1.000000	-1.000000	355222.000000	1775717331.534277
-21230.550000	-14606.640000	-11380.905000	-6209.865000	-3943.305000	-32863.050000	-3206.970000	429.930000	2.572696	2.131093	1.725969	0.601946	-1.192801	-4.729010	3.457489	2.314331	-0.717220	2.212700	-0.885080	-0.870847	-0.340636	0.356078	-1.000000	-1.000000	-1.000000	-1.000000	-1.000000	-1.000000	-1.000000	59.000000	0.000000	-1.000000	-1.000000	355223.000000	1775717331.534292
-21234.105000	-14605.515000	-11377.845000	-6204.960000	-3936.555000	-32856.840000	-3212.190000	427.455000	-4.968316	-4.941994	-4.517844	-5.044888	-5.968589	-7.925880	0.305779	-2.595614	-0.717220	2.212700	-0.885080	-0.870847	-0.340636	0.356078	-1.000000	-1.000000	-1.000000	-1.000000	-1.000000	-1.000000	-1.000000	59.000000	0.000000	-1.000000	-1.000000	355224.000000	1775717331.534305
-21242.430000	-14619.150000	-11392.830000	-6217.965000	-3946.545000	-32857.245000	-3214.350000	426.105000	-10.447897	-10.053446	-8.923761	-8.560749	-8.231350	-7.431838	-3.211190	-6.253788	-0.717220	2.212700	-0.885080	-0.870847	-0.340636	0.356078	-1.000000	-1.000000	-1.000000	-1.000000	-1.000000	-1.000000	-1.000000	59.000000	0.000000	-1.000000	-1.000000	355225.000000	1775717331.534319
-21261.555000	-14636.430000	-11411.550000	-6238.485000	-3968.955000	-32873.895000	-3228.930000	406.620000	-13.980715	-13.856321	-12.383562	-11.181164	-9.742509	-5.418329	-7.159062	-9.186284	-0.717220	2.212700	-0.885080	-0.870847	-0.340636	0.356078	-1.000000	-1.000000	-1.000000	-1.000000	-1.000000	-1.000000	-1.000000	59.000000	0.000000	-1.000000	-1.000000	355226.000000	1775717331.534330
-21260.340000	-14636.520000	-11411.505000	-6237.765000	-3965.895000	-32873.220000	-3233.295000	402.345000	-15.663180	-16.518475	-15.306779	-13.797878	-11.945737	-4.640579	-10.758032	-11.676770	-0.717220	2.212700	-0.885080	-0.870847	-0.340636	0.356078	-1.000000	-1.000000	-1.000000	-1.000000	-1.000000	-1.000000	-1.000000	59.000000	0.000000	-1.000000	-1.000000	355227.000000	1775717331.534344
-21250.935000	-14631.795000	-11407.410000	-6232.455000	-3960.315000	-32871.690000	-3225.420000	412.605000	-13.856862	-15.784506	-15.288426	-14.184196	-12.786897	-5.078767	-11.913844	-12.197260	-0.717220	2.212700	-0.885080	-0.870847	-0.340636	0.356078	-1.000000	-1.000000	-1.000000	-1.000000	-1.000000	-1.000000	-1.000000	59.000000	0.000000	-1.000000	-1.000000	355228.000000	1775717331.534355
-21253.500000	-14631.165000	-11409.570000	-6234.660000	-3964.095000	-32878.395000	-3227.895000	410.355000	-7.141046	-9.586265	-9.875680	-9.545378	-9.154962	-4.575419	-8.665412	-8.492235	-0.717220	2.212700	-0.885080	-0.870847	-0.340636	0.356078	-1.000000	-1.000000	-1.000000	-1.000000	-1.000000	-1.000000	-1.000000	59.000000	0.000000	-1.000000	-1.000000	355229.000000	1775717331.542992
-21254.490000	-14626.845000	-11404.665000	-6231.150000	-3961.800000	-32879.745000	-3226.995000	409.230000	2.492289	0.638812	-0.231681	-0.636208	-1.400720	-2.120741	-1.717846	-1.020405	-0.717220	2.212700	-0.885080	-0.870847	-0.340636	0.356078	-1.000000	-1.000000	-1.000000	-1.000000	-1.000000	-1.000000	-1.000000	59.000000	0.000000	-1.000000	-1.000000	355230.000000	1775717331.543020
-21253.770000	-14622.570000	-11398.590000	-6226.335000	-3957.255000	-32874.300000	-3224.790000	410.760000	10.567900	10.622090	9.614319	8.657730	6.966963	1.517823	5.647461	6.660704	1.129240	2.853620	-0.244160	-0.868955	-0.341674	0.358153	-1.000000	-1.000000	-1.000000	-1.000000	-1.000000	-1.000000	-1.000000	59.000000	0.000000	-1.000000	-1.000000	355231.000000	1775717331.543046
-21248.190000	-14617.395000	-11395.215000	-6223.680000	-3954.645000	-32868.720000	-3221.505000	415.890000	13.970902	16.411566	15.834667	14.550936	12.546016	5.268096	10.330501	11.236449	1.129240	2.853620	-0.244160	-0.868955	-0.341674	0.358153	-1.000000	-1.000000	-1.000000	-1.000000	-1.000000	-1.000000	-1.000000	59.000000	0.000000	-1.000000	-1.000000	355232.000000	1775717331.543059
-21250.890000	-14618.880000	-11398.950000	-6228.540000	-3958.740000	-32868.855000	-3223.755000	413.595000	12.510038	16.307040	16.380730	15.091038	13.563651	8.028011	11.026239	11.628693	1.129240	2.853620	-0.244160	-0.868955	-0.341674	0.358153	-1.000000	-1.000000	-1.000000	-1.000000	-1.000000	-1.000000	-1.000000	59.000000	0.000000	-1.000000	-1.000000	355233.000000	1775717331.547471
-21259.170000	-14626.530000	-11406.735000	-6235.920000	-3966.390000	-32872.950000	-3230.730000	407.475000	7.586038	10.866903	11.263898	10.357460	9.893043	8.443798	7.964336	8.352343	1.129240	2.853620	-0.244160	-0.868955	-0.341674	0.358153	-1.000000	-1.000000	-1.000000	-1.000000	-1.000000	-1.000000	-1.000000	59.000000	0.000000	-1.000000	-1.000000	355234.000000	1775717331.547496
-21261.195000	-14632.425000	-11412.810000	-6241.860000	-3971.520000	-32876.730000	-3235.005000	405.180000	1.036445	2.288877	2.582521	2.391912	3.077922	5.767958	2.462966	2.781235	1.129240	2.853620	-0.244160	-0.868955	-0.341674	0.358153	-1.000000	-1.000000	-1.000000	-1.000000	-1.000000	-1.000000	-1.000000	59.000000	0.000000	-1.000000	-1.000000	355235.000000	1775717331.550425
-21256.425000	-14627.340000	-11409.705000	-6238.845000	-3968.550000	-32876.055000	-3230.685000	408.915000	-4.689407	-5.962180	-5.909006	-5.270046	-3.827577	0.977740	-3.100602	-2.791395	1.129240	2.853620	-0.244160	-0.868955	-0.341674	0.358153	-1.000000	-1.000000	-1.000000	-1.000000	-1.000000	-1.000000	-1.000000	59.000000	0.000000	-1.000000	-1.000000	355236.000000	1775717331.550447
-21234.240000	-14602.455000	-11385.900000	-6214.950000	-3946.275000	-32865.705000	-3218.895000	423.045000	-6.807518	-9.890316	-10.019231	-8.766142	-7.220472	-3.351713	-5.905116	-5.677459	1.129240	2.853620	-0.244160	-0.868955	-0.341674	0.358153	-1.000000	-1.000000	-1.000000	-1.000000	-1.000000	-1.000000	-1.000000	59.000000	0.000000	-1.000000	-1.000000	355237.000000	1775717331.553236
-21217.410000	-14582.340000	-11366.370000	-6196.140000	-3929.085000	-32870.520000	-3217.455000	436.230000	-3.893045	-7.097638	-7.312880	-5.916967	-4.939989	-4.943991	-4.597027	-4.367886	1.129240	2.853620	-0.244160	-0.868955	-0.341674	0.358153	-1.000000	-1.000000	-1.000000	-1.000000	-1.000000	-1.000000	-1.000000	59.000000	0.000000	-1.000000	-1.000000	355238.000000	1775717331.553254
-21215.745000	-14583.195000	-11367.765000	-6196.860000	-3928.500000	-32869.980000	-3212.640000	440.730000	2.092786	0.395582	0.231411	1.278863	1.323251	-3.871167	-0.706265	-0.029561	1.129240	2.853620	-0.244160	-0.868955	-0.341674	0.358153	-1.000000	-1.000000	-1.000000	-1.000000	-1.000000	-1.000000	-1.000000	59.000000	0.000000	-1.000000	-1.000000	355239.000000	1775717331.558076
-21209.220000	-14579.010000	-11364.210000	-6191.010000	-3920.580000	-32839.335000	-3187.575000	449.055000	6.465153	6.664712	6.696603	7.174554	6.539917	-1.384430	3.120689	4.002659	1.129240	2.853620	-0.244160	-0.868955	-0.341674	0.358153	-1.000000	-1.000000	-1.000000	-1.000000	-1.000000	-1.000000	-1.000000	59.000000	0.000000	-1.000000	-1.000000	355240.000000	1775717331.558095
-21203.640000	-14569.605000	-11353.275000	-6179.175000	-3907.440000	-32815.665000	-3170.835000	454.995000	5.917347	7.186709	7.499826	7.566605	6.975252	2.422511	5.754878	4.966012	-0.808780	2.090620	1.922760	-0.870237	-0.339904	0.358398	-1.000000	-1.000000	-1.000000	-1.000000	-1.000000	-1.000000	-1.000000	59.000000	0.000000	-1.000000	-1.000000	355241.000000	1775717331.561344
-21195.045000	-14557.815000	-11343.195000	-6169.770000	-3897.630000	-32814.540000	-3172.275000	460.845000	1.218642	2.689629	3.272146	3.184336	3.211932	6.810112	6.668142	2.595188	-0.808780	2.090620	1.922760	-0.870237	-0.339904	0.358398	-1.000000	-1.000000	-1.000000	-1.000000	-1.000000	-1.000000	-1.000000	59.000000	0.000000	-1.000000	-1.000000	355242.000000	1775717331.561358
-21186.045000	-14545.080000	-11331.495000	-6158.655000	-3885.345000	-32805.405000	-3165.975000	468.585000	-4.232584	-2.760961	-2.113317	-2.348413	-1.713231	8.534217	4.547469	-1.371944	-0.808780	2.090620	1.922760	-0.870237	-0.339904	0.358398	-1.000000	-1.000000	-1.000000	-1.000000	-1.000000	-1.000000	-1.000000	59.000000	0.000000	-1.000000	-1.000000	355243.000000	1775717331.567314
-21189.735000	-14551.020000	-11335.365000	-6162.345000	-3886.920000	-32807.430000	-3164.715000	466.425000	-7.557785	-6.071732	-5.667255	-6.227744	-5.422692	5.050371	-0.761205	-4.841643	-0.808780	2.090620	1.922760	-0.870237	-0.339904	0.358398	-1.000000	-1.000000	-1.000000	-1.000000	-1.000000	-1.000000	-1.000000	59.000000	0.000000	-1.000000	-1.000000	355244.000000	1775717331.567339
-21181.365000	-14545.170000	-11327.580000	-6155.910000	-3883.905000	-32811.255000	-3161.295000	473.130000	-8.065345	-7.023926	-6.915066	-7.855499	-7.387301	-2.564425	-6.941013	-6.626532	-0.808780	2.090620	1.922760	-0.870237	-0.339904	0.358398	-1.000000	-1.000000	-1.000000	-1.000000	-1.000000	-1.000000	-1.000000	59.000000	0.000000	-1.000000	-1.000000	355245.000000	1775717331.569247
-21173.895000	-14542.155000	-11322.450000	-6151.860000	-3884.895000	-32817.330000	-3158.955000	479.745000	-6.271527	-6.532234	-6.438686	-7.593958	-7.982925	-10.719718	-10.930855	-6.328335	-0.808780	2.090620	1.922760	-0.870237	-0.339904	0.358398	-1.000000	-1.000000	-1.000000	-1.000000	-1.000000	-1.000000	-1.000000	59.000000	0.000000	-1.000000	-1.000000	355246.000000	1775717331.569261
-21168.855000	-14536.440000	-11318.355000	-6147.405000	-3878.730000	-32811.570000	-3153.150000	485.010000	-2.877818	-4.867708	-4.587862	-5.659252	-7.229479	-15.463182	-10.935321	-4.029073	-0.808780	2.090620	1.922760	-0.870237	-0.339904	0.358398	-1.000000	-1.000000	-1.000000	-1.000000	-1.000000	-1.000000	-1.000000	59.000000	0.000000	-1.000000	-1.000000	355247.000000	1775717331.576535
-21168.225000	-14531.310000	-11318.805000	-6147.045000	-3877.470000	-32808.870000	-3150.900000	484.965000	0.829004	-2.119939	-1.982812	-2.597268	-4.877606	-14.234147	-7.182461	-0.731774	-0.808780	2.090620	1.922760	-0.870237	-0.339904	0.358398	-1.000000	-1.000000	-1.000000	-1.000000	-1.000000	-1.000000	-1.000000	59.000000	0.000000	-1.000000	-1.000000	355248.000000	1775717331.576554
-21163.680000	-14523.345000	-11309.220000	-6137.190000	-3867.480000	-32800.140000	-3145.860000	489.510000	3.280661	1.145980	0.466127	0.619008	-1.152138	-7.320095	-1.561062	1.964114	-0.808780	2.090620	1.922760	-0.870237	-0.339904	0.358398	-1.000000	-1.000000	-1.000000	-1.000000	-1.000000	-1.000000	-1.000000	59.000000	0.000000	-1.000000	-1.000000	355249.000000	1775717331.579246
-21171.060000	-14529.780000	-11307.690000	-6133.995000	-3862.980000	-32797.215000	-3151.665000	483.480000	3.639454	3.805013	2.305892	3.265012	3.034557	2.142139	3.412965	2.966165	-0.808780	2.090620	1.922760	-0.870237	-0.339904	0.358398	-1.000000	-1.000000	-1.000000	-1.000000	-1.000000	-1.000000	-1.000000	59.000000	0.000000	-1.000000	-1.000000	355250.000000	1775717331.579263
-21169.080000	-14524.515000	-11305.755000	-6131.880000	-3858.480000	-32787.360000	-3149.910000	485.685000	2.099378	4.598580	3.343847	4.819647	6.305723	10.040267	5.798943	2.184201	-1.815940	2.227960	0.183120	-0.870908	-0.338439	0.358275	-1.000000	-1.000000	-1.000000	-1.000000	-1.000000	-1.000000	-1.000000	59.000000	0.000000	-1.000000	-1.000000	355251.000000	1775717331.583221
-21169.620000	-14520.285000	-11313.765000	-6142.275000	-3869.865000	-32790.645000	-3153.150000	483.885000	-0.151911	3.440114	3.125646	4.558123	7.119093	13.428286	5.273232	0.498023	-1.815940	2.227960	0.183120	-0.870908	-0.338439	0.358275	-1.000000	-1.000000	-1.000000	-1.000000	-1.000000	-1.000000	-1.000000	59.000000	0.000000	-1.000000	-1.000000	355252.000000	1775717331.583239
-21169.305000	-14517.675000	-11320.155000	-6150.105000	-3883.680000	-32808.150000	-3159.045000	481.995000	-1.559220	1.628192	1.314628	2.018028	4.427731	11.147933	2.957214	-0.853530	-1.815940	2.227960	0.183120	-0.870908	-0.338439	0.358275	-1.000000	-1.000000	-1.000000	-1.000000	-1.000000	-1.000000	-1.000000	59.000000	0.000000	-1.000000	-1.000000	355253.000000	1775717331.585336
-21176.280000	-14524.020000	-11321.415000	-6152.130000	-3885.345000	-32815.260000	-3163.140000	475.110000	-1.512850	0.169061	-1.416611	-1.864354	-0.933576	3.974754	0.260877	-1.307525	-1.815940	2.227960	0.183120	-0.870908	-0.338439	0.358275	-1.000000	-1.000000	-1.000000	-1.000000	-1.000000	-1.000000	-1.000000	59.000000	0.000000	-1.000000	-1.000000	355254.000000	1775717331.585351
-21180.870000	-14526.360000	-11320.065000	-6150.915000	-3884.535000	-32820.840000	-3164.040000	472.860000	-0.692868	-1.034242	-3.277220	-4.662858	-5.702000	-4.701799	-1.621397	-1.101342	-1.815940	2.227960	0.183120	-0.870908	-0.338439	0.358275	-1.000000	-1.000000	-1.000000	-1.000000	-1.000000	-1.000000	-1.000000	59.000000	0.000000	-1.000000	-1.000000	355255.000000	1775717331.593187
-21185.055000	-14529.600000	-11322.270000	-6153.435000	-3887.505000	-32826.825000	-3170.385000	468.540000	0.008073	-2.161999	-2.808883	-4.385531	-6.611568	-10.281347	-1.959044	-0.546409	-1.815940	2.227960	0.183120	-0.870908	-0.338439	0.358275	-1.000000	-1.000000	-1.000000	-1.000000	-1.000000	-1.000000	-1.000000	59.000000	0.000000	-1.000000	-1.000000	355256.000000	1775717331.593205
-21192.660000	-14539.815000	-11334.870000	-6164.100000	-3895.965000	-32825.295000	-3178.395000	460.620000	0.330434	-2.910934	-0.521105	-1.466795	-3.469432	-10.133850	-1.047597	0.170660	-1.815940	2.227960	0.183120	-0.870908	-0.338439	0.358275	-1.000000	-1.000000	-1.000000	-1.000000	-1.000000	-1.000000	-1.000000	59.000000	0.000000	-1.000000	-1.000000	355257.000000	1775717331.595287
-21199.455000	-14552.325000	-11349.630000	-6177.690000	-3905.370000	-32816.160000	-3175.875000	458.775000	0.394876	-3.154463	1.391114	1.577297	0.984650	-4.717360	0.239689	0.807908	-1.815940	2.227960	0.183120	-0.870908	-0.338439	0.358275	-1.000000	-1.000000	-1.000000	-1.000000	-1.000000	-1.000000	-1.000000	59.000000	0.000000	-1.000000	-1.000000	355258.000000	1775717331.595299
-21213.180000	-14566.275000	-11362.320000	-6190.515000	-3917.070000	-32821.470000	-3184.245000	448.695000	0.244101	-3.116176	1.246198	2.515033	3.782542	3.138319	1.430604	1.209308	-1.815940	2.227960	0.183120	-0.870908	-0.338439	0.358275	-1.000000	-1.000000	-1.000000	-1.000000	-1.000000	-1.000000	-1.000000	59.000000	0.000000	-1.000000	-1.000000	355259.000000	1775717331.599860
-21224.160000	-14576.535000	-11372.130000	-6200.820000	-3926.880000	-32833.395000	-3193.380000	439.695000	-0.190597	-2.752862	-0.455509	1.267852	3.837406	9.127899	2.133948	1.218829	-1.815940	2.227960	0.183120	-0.870908	-0.338439	0.358275	-1.000000	-1.000000	-1.000000	-1.000000	-1.000000	-1.000000	-1.000000	59.000000	0.000000	-1.000000	-1.000000	355260.000000	1775717331.599886
-21230.640000	-14581.800000	-11377.350000	-6206.985000	-3934.215000	-32844.195000	-3202.875000	431.730000	-0.661643	-1.521260	-1.691981	-0.401448	2.115584	9.738784	1.761716	0.715691	-2.517900	1.876980	0.854560	-0.870359	-0.336364	0.357726	-1.000000	-1.000000	-1.000000	-1.000000	-1.000000	-1.000000	-1.000000	59.000000	0.000000	-1.000000	-1.000000	355261.000000	1775717331.603826
-21226.950000	-14578.380000	-11375.190000	-6206.625000	-3934.395000	-32850.900000	-3212.820000	430.875000	-0.269261	1.183061	-0.730416	-0.526268	0.560619	5.040552	0.340075	0.143163	-2.517900	1.876980	0.854560	-0.870359	-0.336364	0.357726	-1.000000	-1.000000	-1.000000	-1.000000	-1.000000	-1.000000	-1.000000	59.000000	0.000000	-1.000000	-1.000000	355262.000000	1775717331.603851
-21219.345000	-14573.250000	-11373.345000	-6205.545000	-3932.640000	-32851.305000	-3210.840000	437.985000	1.908930	5.285554	2.620247	1.632364	0.717605	-1.344494	-1.083245	0.513079	-2.517900	1.876980	0.854560	-0.870359	-0.336364	0.357726	-1.000000	-1.000000	-1.000000	-1.000000	-1.000000	-1.000000	-1.000000	59.000000	0.000000	-1.000000	-1.000000	355263.000000	1775717331.615083
-21230.415000	-14585.985000	-11385.945000	-6216.660000	-3942.180000	-32855.085000	-3208.095000	430.920000	5.258353	9.187272	6.513447	4.837454	2.473748	-5.270568	-1.011862	2.236291	-2.517900	1.876980	0.854560	-0.870359	-0.336364	0.357726	-1.000000	-1.000000	-1.000000	-1.000000	-1.000000	-1.000000	-1.000000	59.000000	0.000000	-1.000000	-1.000000	355264.000000	1775717331.615113
-21239.505000	-14594.445000	-11394.045000	-6221.295000	-3945.330000	-32855.535000	-3205.170000	424.980000	7.113099	10.077758	7.959941	6.546145	4.006295	-5.042274	1.136139	3.974673	-2.517900	1.876980	0.854560	-0.870359	-0.336364	0.357726	-1.000000	-1.000000	-1.000000	-1.000000	-1.000000	-1.000000	-1.000000	59.000000	0.000000	-1.000000	-1.000000	355265.000000	1775717331.615143
-21243.555000	-14596.695000	-11396.070000	-6220.530000	-3943.395000	-32850.090000	-3206.475000	423.405000	5.292279	6.601282	5.553893	5.343157	3.804467	-1.713322	4.091687	3.868907	-2.517900	1.876980	0.854560	-0.870359	-0.336364	0.357726	-1.000000	-1.000000	-1.000000	-1.000000	-1.000000	-1.000000	-1.000000	59.000000	0.000000	-1.000000	-1.000000	355266.000000	1775717331.615156
-21247.650000	-14596.875000	-11395.890000	-6222.690000	-3945.240000	-32849.370000	-3212.595000	420.120000	0.699687	0.752308	1.028346	2.265567	2.173647	2.501962	5.550708	1.745641	-2.517900	1.876980	0.854560	-0.870359	-0.336364	0.357726	-1.000000	-1.000000	-1.000000	-1.000000	-1.000000	-1.000000	-1.000000	59.000000	0.000000	-1.000000	-1.000000	355267.000000	1775717331.615179
-21248.865000	-14596.965000	-11392.290000	-6223.275000	-3949.425000	-32854.050000	-3220.560000	418.680000	-3.707651	-3.987445	-2.552540	-0.743897	0.166822	5.311116	3.955660	-0.985409	-2.517900	1.876980	0.854560	-0.870359	-0.336364	0.357726	-1.000000	-1.000000	-1.000000	-1.000000	-1.000000	-1.000000	-1.000000	59.000000	0.000000	-1.000000	-1.000000	355268.000000	1775717331.615191
-21249.765000	-14596.785000	-11390.805000	-6225.660000	-3956.625000	-32864.760000	-3223.755000	417.015000	-5.574502	-5.594439	-3.440999	-2.582363	-1.730898	4.985381	-0.200095	-2.854503	-2.517900	1.876980	0.854560	-0.870359	-0.336364	0.357726	-1.000000	-1.000000	-1.000000	-1.000000	-1.000000	-1.000000	-1.000000	59.000000	0.000000	-1.000000	-1.000000	355269.000000	1775717331.618645
-21257.640000	-14606.145000	-11400.885000	-6232.590000	-3963.420000	-32872.545000	-3227.175000	411.615000	-4.605547	-4.527680	-2.298918	-3.279493	-3.440570	1.381519	-4.571322	-3.291167	-2.517900	1.876980	0.854560	-0.870359	-0.336364	0.357726	-1.000000	-1.000000	-1.000000	-1.000000	-1.000000	-1.000000	-1.000000	59.000000	0.000000	-1.000000	-1.000000	355270.000000	1775717331.618669
-21263.940000	-14611.815000	-11406.015000	-6235.650000	-3965.805000	-32877.765000	-3230.820000	409.275000	-2.342987	-2.772677	-1.280087	-3.435412	-4.598998	-3.552102	-6.742460	-2.684129	-0.656180	1.892240	-0.320460	-0.870969	-0.336730	0.356628	-1.000000	-1.000000	-1.000000	-1.000000	-1.000000	-1.000000	-1.000000	59.000000	0.000000	-1.000000	-1.000000	355271.000000	1775717331.631372
-21262.005000	-14611.185000	-11407.320000	-6238.395000	-3968.280000	-32881.500000	-3231.720000	411.660000	-0.413028	-1.743817	-1.636132	-3.335774	-4.488445	-6.893441	-5.867790	-1.589605	-0.656180	1.892240	-0.320460	-0.870969	-0.336730	0.356628	-1.000000	-1.000000	-1.000000	-1.000000	-1.000000	-1.000000	-1.000000	59.000000	0.000000	-1.000000	-1.000000	355272.000000	1775717331.631401
-21262.995000	-14612.670000	-11409.750000	-6241.320000	-3971.880000	-32879.880000	-3228.750000	412.110000	0.875724	-1.180871	-2.583651	-2.748957	-2.811780	-6.709262	-2.681053	-0.174982	-0.656180	1.892240	-0.320460	-0.870969	-0.336730	0.356628	-1.000000	-1.000000	-1.000000	-1.000000	-1.000000	-1.000000	-1.000000	59.000000	0.000000	-1.000000	-1.000000	355273.000000	1775717331.631429
-21277.395000	-14623.695000	-11418.930000	-6249.240000	-3979.530000	-32881.950000	-3235.725000	396.180000	1.624884	-0.475073	-2.865507	-1.639152	-0.332207	-3.164071	1.196685	1.046081	-0.656180	1.892240	-0.320460	-0.870969	-0.336730	0.356628	-1.000000	-1.000000	-1.000000	-1.000000	-1.000000	-1.000000	-1.000000	59.000000	0.000000	-1.000000	-1.000000	355274.000000	1775717331.631441
-21272.220000	-14613.390000	-11406.240000	-6235.110000	-3964.410000	-32870.295000	-3235.590000	394.200000	1.491476	0.329433	-1.982231	-0.163617	1.969718	1.938908	3.883236	0.991290	-0.656180	1.892240	-0.320460	-0.870969	-0.336730	0.356628	-1.000000	-1.000000	-1.000000	-1.000000	-1.000000	-1.000000	-1.000000	59.000000	0.000000	-1.000000	-1.000000	355275.000000	1775717331.631457
-21264.165000	-14603.085000	-11394.225000	-6222.375000	-3951.765000	-32857.245000	-3229.245000	401.130000	0.965492	1.540783	0.420188	2.087308	4.200960	6.670076	4.505105	-0.181818	-0.656180	1.892240	-0.320460	-0.870969	-0.336730	0.356628	-1.000000	-1.000000	-1.000000	-1.000000	-1.000000	-1.000000	-1.000000	59.000000	0.000000	-1.000000	-1.000000	355276.000000	1775717331.631468
-21273.930000	-14615.235000	-11409.030000	-6236.865000	-3965.940000	-32867.370000	-3237.570000	395.820000	1.107249	3.275534	3.745988	4.802432	6.197185	9.330933	3.589376	-0.770688	-0.656180	1.892240	-0.320460	-0.870969	-0.336730	0.356628	-1.000000	-1.000000	-1.000000	-1.000000	-1.000000	-1.000000	-1.000000	59.000000	0.000000	-1.000000	-1.000000	355277.000000	1775717331.639453
-21284.865000	-14630.715000	-11430.540000	-6260.040000	-3988.215000	-32887.305000	-3251.520000	389.520000	1.319354	3.706760	5.025045	5.227788	5.578536	7.758459	1.523069	-0.120358	-0.656180	1.892240	-0.320460	-0.870969	-0.336730	0.356628	-1.000000	-1.000000	-1.000000	-1.000000	-1.000000	-1.000000	-1.000000	59.000000	0.000000	-1.000000	-1.000000	355278.000000	1775717331.639480
-21295.845000	-14643.270000	-11444.715000	-6276.015000	-4002.030000	-32900.265000	-3260.385000	380.430000	0.029139	0.873534	1.645738	0.892972	0.340712	1.037505	-1.725924	0.564364	-0.656180	1.892240	-0.320460	-0.870969	-0.336730	0.356628	-1.000000	-1.000000	-1.000000	-1.000000	-1.000000	-1.000000	-1.000000	59.000000	0.000000	-1.000000	-1.000000	355279.000000	1775717331.642124
-21298.860000	-14646.870000	-11446.830000	-6279.840000	-4007.430000	-32906.295000	-3262.050000	378.270000	-2.626267	-4.074655	-4.619940	-6.230255	-7.244978	-7.864975	-5.011699	0.252416	-0.656180	1.892240	-0.320460	-0.870969	-0.336730	0.356628	-1.000000	-1.000000	-1.000000	-1.000000	-1.000000	-1.000000	-1.000000	59.000000	0.000000	-1.000000	-1.000000	355280.000000	1775717331.642147
-21293.055000	-14641.245000	-11437.920000	-6272.145000	-4004.145000	-32906.340000	-3260.295000	381.330000	-4.413184	-7.305380	-8.522226	-10.580542	-11.783278	-13.441259	-6.050608	-0.501689	0.534100	2.731540	0.366240	-0.871092	-0.334899	0.357421	-1.000000	-1.000000	-1.000000	-1.000000	-1.000000	-1.000000	-1.000000	59.000000	0.000000	-1.000000	-1.000000	355281.000000	1775717331.642171
-21290.895000	-14637.330000	-11432.115000	-6264.450000	-3995.595000	-32897.565000	-3256.920000	382.545000	-3.194095	-5.776895	-6.212250	-8.006436	-9.458546	-11.889033	-3.544599	-0.362116	0.534100	2.731540	0.366240	-0.871092	-0.334899	0.357421	-1.000000	-1.000000	-1.000000	-1.000000	-1.000000	-1.000000	-1.000000	59.000000	0.000000	-1.000000	-1.000000	355282.000000	1775717331.642184
-21287.745000	-14638.140000	-11432.520000	-6262.290000	-3990.825000	-32890.590000	-3254.355000	385.830000	0.784183	-0.082887	1.167815	0.466554	-1.098901	-3.735305	1.428642	1.081179	0.534100	2.731540	0.366240	-0.871092	-0.334899	0.357421	-1.000000	-1.000000	-1.000000	-1.000000	-1.000000	-1.000000	-1.000000	59.000000	0.000000	-1.000000	-1.000000	355283.000000	1775717331.651806
-21291.255000	-14644.080000	-11438.100000	-6267.825000	-3994.560000	-32889.465000	-3255.975000	383.625000	4.939324	5.934990	8.468003	9.367739	8.379836	6.579425	6.092191	2.823479	0.534100	2.731540	0.366240	-0.871092	-0.334899	0.357421	-1.000000	-1.000000	-1.000000	-1.000000	-1.000000	-1.000000	-1.000000	59.000000	0.000000	-1.000000	-1.000000	355284.000000	1775717331.651839
-21286.170000	-14636.520000	-11431.440000	-6262.380000	-3990.105000	-32885.955000	-3253.050000	387.360000	6.622950	8.583596	11.066878	13.249761	13.505617	13.507912	7.909084	3.480527	0.534100	2.731540	0.366240	-0.871092	-0.334899	0.357421	-1.000000	-1.000000	-1.000000	-1.000000	-1.000000	-1.000000	-1.000000	59.000000	0.000000	-1.000000	-1.000000	355285.000000	1775717331.652889
-21288.420000	-14638.095000	-11433.870000	-6264.405000	-3993.660000	-32892.030000	-3255.300000	384.930000	5.131206	7.173099	8.299227	10.679668	12.040504	13.795303	6.201106	2.494804	0.534100	2.731540	0.366240	-0.871092	-0.334899	0.357421	-1.000000	-1.000000	-1.000000	-1.000000	-1.000000	-1.000000	-1.000000	59.000000	0.000000	-1.000000	-1.000000	355286.000000	1775717331.652905
-21285.315000	-14634.450000	-11429.685000	-6260.445000	-3990.195000	-32892.750000	-3251.880000	388.485000	1.656826	3.426696	2.680602	4.147379	5.709999	7.928960	2.213720	0.385056	0.534100	2.731540	0.366240	-0.871092	-0.334899	0.357421	-1.000000	-1.000000	-1.000000	-1.000000	-1.000000	-1.000000	-1.000000	59.000000	0.000000	-1.000000	-1.000000	355287.000000	1775717331.657038
-21284.820000	-14633.325000	-11427.075000	-6258.420000	-3989.430000	-32895.405000	-3254.130000	388.395000	-1.952901	-0.572371	-2.677653	-2.601614	-1.754162	-0.679039	-1.999761	-1.775070	0.534100	2.731540	0.366240	-0.871092	-0.334899	0.357421	-1.000000	-1.000000	-1.000000	-1.000000	-1.000000	-1.000000	-1.000000	59.000000	0.000000	-1.000000	-1.000000	355288.000000	1775717331.657068
-21290.625000	-14637.420000	-11429.955000	-6261.120000	-3992.715000	-32896.485000	-3258.855000	382.185000	-4.370388	-3.508482	-5.808781	-6.889689	-7.084614	-7.816664	-4.916703	-3.200002	0.534100	2.731540	0.366240	-0.871092	-0.334899	0.357421	-1.000000	-1.000000	-1.000000	-1.000000	-1.000000	-1.000000	-1.000000	59.000000	0.000000	-1.000000	-1.000000	355289.000000	1775717331.665359
-21292.920000	-14638.275000	-11431.305000	-6262.020000	-3992.670000	-32896.260000	-3258.135000	380.565000	-5.353059	-5.085195	-6.534801	-8.105525	-9.006200	-10.735195	-6.061318	-3.857540	0.534100	2.731540	0.366240	-0.871092	-0.334899	0.357421	-1.000000	-1.000000	-1.000000	-1.000000	-1.000000	-1.000000	-1.000000	59.000000	0.000000	-1.000000	-1.000000	355290.000000	1775717331.665385
-21291.390000	-14636.880000	-11431.845000	-6262.695000	-3992.040000	-32892.795000	-3259.035000	380.430000	-5.083252	-5.381922	-5.686708	-7.021288	-7.900472	-9.045455	-5.451409	-3.819232	-1.129240	1.678600	-0.717220	-0.872434	-0.335326	0.357238	-1.000000	-1.000000	-1.000000	-1.000000	-1.000000	-1.000000	-1.000000	59.000000	0.000000	-1.000000	-1.000000	355291.000000	1775717331.665413
-21292.200000	-14638.005000	-11435.265000	-6265.530000	-3993.705000	-32890.095000	-3259.530000	379.980000	-3.553196	-4.375953	-4.032007	-4.679222	-4.867483	-4.249728	-3.386076	-2.839513	-1.129240	1.678600	-0.717220	-0.872434	-0.335326	0.357238	-1.000000	-1.000000	-1.000000	-1.000000	-1.000000	-1.000000	-1.000000	59.000000	0.000000	-1.000000	-1.000000	355292.000000	1775717331.665425
-21288.330000	-14633.595000	-11432.160000	-6262.155000	-3990.240000	-32884.965000	-3256.110000	384.255000	-1.002494	-2.287554	-2.038063	-1.937586	-1.243441	1.258107	-0.592111	-0.877339	-1.129240	1.678600	-0.717220	-0.872434	-0.335326	0.357238	-1.000000	-1.000000	-1.000000	-1.000000	-1.000000	-1.000000	-1.000000	59.000000	0.000000	-1.000000	-1.000000	355293.000000	1775717331.669434
-21285.045000	-14631.165000	-11429.640000	-6259.635000	-3987.945000	-32886.990000	-3254.805000	386.235000	1.848262	0.302265	0.114547	0.723531	1.900926	5.207030	2.072088	1.591730	-1.129240	1.678600	-0.717220	-0.872434	-0.335326	0.357238	-1.000000	-1.000000	-1.000000	-1.000000	-1.000000	-1.000000	-1.000000	59.000000	0.000000	-1.000000	-1.000000	355294.000000	1775717331.669459
-21287.475000	-14633.550000	-11430.360000	-6260.715000	-3991.005000	-32893.470000	-3259.485000	382.905000	3.995427	2.519992	2.197981	2.932162	3.860713	6.078428	3.735702	3.582748	-1.129240	1.678600	-0.717220	-0.872434	-0.335326	0.357238	-1.000000	-1.000000	-1.000000	-1.000000	-1.000000	-1.000000	-1.000000	59.000000	0.000000	-1.000000	-1.000000	355295.000000	1775717331.670104
-21291.705000	-14636.340000	-11429.640000	-6260.985000	-3993.165000	-32902.605000	-3264.705000	380.520000	4.383318	3.341397	3.568176	4.055984	4.089750	3.581060	3.590254	3.960384	-1.129240	1.678600	-0.717220	-0.872434	-0.335326	0.357238	-1.000000	-1.000000	-1.000000	-1.000000	-1.000000	-1.000000	-1.000000	59.000000	0.000000	-1.000000	-1.000000	355296.000000	1775717331.670127
-21292.740000	-14635.260000	-11427.300000	-6259.365000	-3990.330000	-32908.905000	-3267.360000	381.915000	2.674293	2.405115	3.685768	3.701870	2.691555	-0.948006	1.622397	2.471908	-1.129240	1.678600	-0.717220	-0.872434	-0.335326	0.357238	-1.000000	-1.000000	-1.000000	-1.000000	-1.000000	-1.000000	-1.000000	59.000000	0.000000	-1.000000	-1.000000	355297.000000	1775717331.680061
-21291.480000	-14635.890000	-11430.045000	-6261.255000	-3991.545000	-32904.585000	-3266.190000	384.975000	-0.082608	0.543716	2.644356	2.225564	0.716329	-4.833009	-0.904750	0.241434	-1.129240	1.678600	-0.717220	-0.872434	-0.335326	0.357238	-1.000000	-1.000000	-1.000000	-1.000000	-1.000000	-1.000000	-1.000000	59.000000	0.000000	-1.000000	-1.000000	355298.000000	1775717331.680088
-21293.595000	-14638.815000	-11432.340000	-6261.390000	-3987.855000	-32884.605000	-3253.320000	385.380000	-2.196426	-1.041719	0.866256	0.365354	-0.680834	-5.185183	-2.072505	-1.259548	-1.129240	1.678600	-0.717220	-0.872434	-0.335326	0.357238	-1.000000	-1.000000	-1.000000	-1.000000	-1.000000	-1.000000	-1.000000	59.000000	0.000000	-1.000000	-1.000000	355299.000000	1775717331.680115
-21286.980000	-14633.280000	-11428.290000	-6258.015000	-3986.505000	-32878.125000	-3246.570000	389.295000	-2.629697	-1.659258	-1.011624	-1.131677	-1.003961	-0.944381	-0.687589	-1.453256	-1.129240	1.678600	-0.717220	-0.872434	-0.335326	0.357238	-1.000000	-1.000000	-1.000000	-1.000000	-1.000000	-1.000000	-1.000000	59.000000	0.000000	-1.000000	-1.000000	355300.000000	1775717331.680127
-21274.875000	-14619.690000	-11414.160000	-6245.370000	-3976.020000	-32871.735000	-3245.805000	394.830000	-1.181624	-0.880394	-1.843211	-1.459342	-0.324728	5.400736	2.331653	-0.645676	-0.747740	1.800680	-0.671440	-0.870237	-0.337951	0.359252	-1.000000	-1.000000	-1.000000	-1.000000	-1.000000	-1.000000	-1.000000	59.000000	0.000000	-1.000000	-1.000000	355301.000000	1775717331.686637
-21282.705000	-14629.185000	-11419.830000	-6249.915000	-3978.855000	-32886.180000	-3257.640000	391.005000	1.379294	1.086916	-0.898166	-0.358297	0.864977	9.071088	4.145081	0.416418	-0.747740	1.800680	-0.671440	-0.870237	-0.337951	0.359252	-1.000000	-1.000000	-1.000000	-1.000000	-1.000000	-1.000000	-1.000000	59.000000	0.000000	-1.000000	-1.000000	355302.000000	1775717331.686667
-21293.145000	-14643.315000	-11431.350000	-6260.445000	-3989.070000	-32904.945000	-3269.880000	384.885000	2.844912	2.285907	0.485359	0.801159	1.351900	6.501504	2.306972	0.646754	-0.747740	1.800680	-0.671440	-0.870237	-0.337951	0.359252	-1.000000	-1.000000	-1.000000	-1.000000	-1.000000	-1.000000	-1.000000	59.000000	0.000000	-1.000000	-1.000000	355303.000000	1775717331.686696
-21301.470000	-14652.135000	-11441.115000	-6270.660000	-3998.790000	-32900.445000	-3265.380000	376.245000	1.246510	0.585820	-0.039184	-0.011801	-0.187239	-1.463450	-2.572367	-0.704215	-0.747740	1.800680	-0.671440	-0.870237	-0.337951	0.359252	-1.000000	-1.000000	-1.000000	-1.000000	-1.000000	-1.000000	-1.000000	59.000000	0.000000	-1.000000	-1.000000	355304.000000	1775717331.686708
-21299.805000	-14649.210000	-11442.420000	-6274.305000	-4003.740000	-32887.980000	-3250.125000	375.930000	-2.537070	-3.153913	-2.671424	-2.862738	-3.403485	-9.118104	-6.509663	-3.008250	-0.747740	1.800680	-0.671440	-0.870237	-0.337951	0.359252	-1.000000	-1.000000	-1.000000	-1.000000	-1.000000	-1.000000	-1.000000	59.000000	0.000000	-1.000000	-1.000000	355305.000000	1775717331.690224
-21290.220000	-14636.025000	-11433.240000	-6267.780000	-4000.140000	-32894.460000	-3252.690000	380.205000	-5.131273	-5.264990	-4.763577	-5.245537	-5.892326	-10.747954	-5.833608	-4.322775	-0.747740	1.800680	-0.671440	-0.870237	-0.337951	0.359252	-1.000000	-1.000000	-1.000000	-1.000000	-1.000000	-1.000000	-1.000000	59.000000	0.000000	-1.000000	-1.000000	355306.000000	1775717331.690250
-21283.380000	-14626.215000	-11425.410000	-6257.790000	-3990.555000	-32887.260000	-3249.720000	386.505000	-3.808980	-2.905299	-3.481269	-4.308964	-5.056779	-6.015045	-1.183271	-2.942453	-0.747740	1.800680	-0.671440	-0.870237	-0.337951	0.359252	-1.000000	-1.000000	-1.000000	-1.000000	-1.000000	-1.000000	-1.000000	59.000000	0.000000	-1.000000	-1.000000	355307.000000	1775717331.695490
-21285.090000	-14625.090000	-11426.085000	-6256.620000	-3989.250000	-32884.695000	-3250.305000	384.930000	0.789776	2.862064	1.112221	0.300220	-0.501545	1.127626	3.621728	0.813236	-0.747740	1.800680	-0.671440	-0.870237	-0.337951	0.359252	-1.000000	-1.000000	-1.000000	-1.000000	-1.000000	-1.000000	-1.000000	59.000000	0.000000	-1.000000	-1.000000	355308.000000	1775717331.695508
-21284.595000	-14626.035000	-11424.375000	-6255.180000	-3985.065000	-32876.910000	-3245.220000	389.070000	5.192783	7.779054	5.874235	5.727144	5.236322	6.729440	5.651315	4.634809	-0.747740	1.800680	-0.671440	-0.870237	-0.337951	0.359252	-1.000000	-1.000000	-1.000000	-1.000000	-1.000000	-1.000000	-1.000000	59.000000	0.000000	-1.000000	-1.000000	355309.000000	1775717331.698452
-21276.720000	-14619.375000	-11415.510000	-6244.965000	-3973.770000	-32867.415000	-3239.730000	398.655000	6.523537	8.351842	7.737420	8.549900	8.880803	8.927778	4.695333	6.432894	-0.747740	1.800680	-0.671440	-0.870237	-0.337951	0.359252	-1.000000	-1.000000	-1.000000	-1.000000	-1.000000	-1.000000	-1.000000	59.000000	0.000000	-1.000000	-1.000000	355310.000000	1775717331.698471
-21268.665000	-14619.465000	-11410.695000	-6237.045000	-3963.240000	-32861.700000	-3237.570000	406.980000	4.847287	4.643170	6.268812	7.756572	9.109820	7.860454	2.259090	5.974930	-1.388660	1.342880	-0.122080	-0.869749	-0.337401	0.359252	-1.000000	-1.000000	-1.000000	-1.000000	-1.000000	-1.000000	-1.000000	59.000000	0.000000	-1.000000	-1.000000	355311.000000	1775717331.703794
-21270.645000	-14629.770000	-11417.355000	-6244.065000	-3968.955000	-32869.125000	-3240.945000	406.575000	1.914620	-0.994778	2.733919	4.341169	6.358574	4.372352	-0.321872	4.004099	-1.388660	1.342880	-0.122080	-0.869749	-0.337401	0.359252	-1.000000	-1.000000	-1.000000	-1.000000	-1.000000	-1.000000	-1.000000	59.000000	0.000000	-1.000000	-1.000000	355312.000000	1775717331.703820
-21277.710000	-14630.895000	-11413.755000	-6242.985000	-3971.295000	-32876.190000	-3245.805000	398.835000	-1.237568	-6.268011	-1.604845	-0.532480	1.310102	-0.858629	-2.651429	0.802529	-1.388660	1.342880	-0.122080	-0.869749	-0.337401	0.359252	-1.000000	-1.000000	-1.000000	-1.000000	-1.000000	-1.000000	-1.000000	59.000000	0.000000	-1.000000	-1.000000	355313.000000	1775717331.705719
-21294.630000	-14637.780000	-11425.770000	-6256.935000	-3985.245000	-32888.790000	-3261.105000	378.180000	-4.647966	-9.382055	-5.554092	-5.670213	-5.002151	-6.713086	-4.788830	-3.752875	-1.388660	1.342880	-0.122080	-0.869749	-0.337401	0.359252	-1.000000	-1.000000	-1.000000	-1.000000	-1.000000	-1.000000	-1.000000	59.000000	0.000000	-1.000000	-1.000000	355314.000000	1775717331.705746
-21287.565000	-14629.950000	-11425.410000	-6258.330000	-3989.565000	-32890.680000	-3257.415000	381.195000	-7.795159	-9.061281	-7.989761	-9.554349	-10.622722	-11.085244	-6.378729	-8.753159	-1.388660	1.342880	-0.122080	-0.869749	-0.337401	0.359252	-1.000000	-1.000000	-1.000000	-1.000000	-1.000000	-1.000000	-1.000000	59.000000	0.000000	-1.000000	-1.000000	355315.000000	1775717331.709638
-21278.295000	-14624.595000	-11418.255000	-6251.085000	-3981.330000	-32880.240000	-3243.600000	392.355000	-8.450986	-5.075292	-7.906315	-10.431710	-12.907380	-11.431818	-5.877449	-11.155432	-1.388660	1.342880	-0.122080	-0.869749	-0.337401	0.359252	-1.000000	-1.000000	-1.000000	-1.000000	-1.000000	-1.000000	-1.000000	59.000000	0.000000	-1.000000	-1.000000	355316.000000	1775717331.709660
-21287.790000	-14634.495000	-11425.680000	-6256.620000	-3984.750000	-32878.935000	-3248.235000	386.415000	-4.983937	0.943996	-4.878204	-7.244129	-9.991398	-6.530470	-2.022919	-8.206505	-1.388660	1.342880	-0.122080	-0.869749	-0.337401	0.359252	-1.000000	-1.000000	-1.000000	-1.000000	-1.000000	-1.000000	-1.000000	59.000000	0.000000	-1.000000	-1.000000	355317.000000	1775717331.724377
-21292.605000	-14638.275000	-11428.245000	-6258.015000	-3986.055000	-32878.575000	-3250.215000	383.895000	0.662105	5.655479	-0.321630	-1.341860	-3.010509	1.589496	3.464402	-1.248716	-1.388660	1.342880	-0.122080	-0.869749	-0.337401	0.359252	-1.000000	-1.000000	-1.000000	-1.000000	-1.000000	-1.000000	-1.000000	59.000000	0.000000	-1.000000	-1.000000	355318.000000	1775717331.724408
-21289.815000	-14633.820000	-11423.160000	-6254.145000	-3982.275000	-32879.295000	-3249.900000	385.335000	4.922473	6.780812	3.465239	4.298629	4.419939	8.566815	7.057832	5.428570	-1.388660	1.342880	-0.122080	-0.869749	-0.337401	0.359252	-1.000000	-1.000000	-1.000000	-1.000000	-1.000000	-1.000000	-1.000000	59.000000	0.000000	-1.000000	-1.000000	355319.000000	1775717331.724466
-21288.465000	-14634.540000	-11424.285000	-6255.945000	-3983.895000	-32883.840000	-3249.810000	386.505000	6.364895	5.074181	5.446402	7.584353	9.164951	10.997063	7.022668	8.799091	-1.388660	1.342880	-0.122080	-0.869749	-0.337401	0.359252	-1.000000	-1.000000	-1.000000	-1.000000	-1.000000	-1.000000	-1.000000	59.000000	0.000000	-1.000000	-1.000000	355320.000000	1775717331.724481
-21283.515000	-14631.165000	-11422.440000	-6253.740000	-3982.545000	-32886.540000	-3250.620000	389.205000	5.796975	2.643326	5.705736	7.967867	10.015307	8.388557	4.223508	8.538511	-3.570840	1.052940	0.350980	-0.871214	-0.336181	0.358092	-1.000000	-1.000000	-1.000000	-1.000000	-1.000000	-1.000000	-1.000000	59.000000	0.000000	-1.000000	-1.000000	355321.000000	1775717331.724500
-21276.225000	-14625.585000	-11417.895000	-6249.240000	-3978.630000	-32882.940000	-3250.170000	392.760000	4.502210	0.924808	4.643447	6.059618	7.575901	2.958004	0.595749	5.941166	-3.570840	1.052940	0.350980	-0.871214	-0.336181	0.358092	-1.000000	-1.000000	-1.000000	-1.000000	-1.000000	-1.000000	-1.000000	59.000000	0.000000	-1.000000	-1.000000	355322.000000	1775717331.724512
-21279.195000	-14628.195000	-11417.445000	-6249.870000	-3979.620000	-32878.530000	-3250.440000	390.375000	3.116463	0.215346	2.885786	3.138455	3.590404	-1.915428	-2.194693	2.546895	-3.570840	1.052940	0.350980	-0.871214	-0.336181	0.358092	-1.000000	-1.000000	-1.000000	-1.000000	-1.000000	-1.000000	-1.000000	59.000000	0.000000	-1.000000	-1.000000	355323.000000	1775717331.725826
-21296.340000	-14644.080000	-11430.675000	-6263.280000	-3991.680000	-32882.940000	-3258.225000	376.650000	1.037488	-0.455057	0.691077	-0.003844	-0.511222	-4.057396	-3.505795	-0.932540	-3.570840	1.052940	0.350980	-0.871214	-0.336181	0.358092	-1.000000	-1.000000	-1.000000	-1.000000	-1.000000	-1.000000	-1.000000	59.000000	0.000000	-1.000000	-1.000000	355324.000000	1775717331.725851
-21304.395000	-14653.620000	-11439.630000	-6268.410000	-3994.785000	-32884.380000	-3258.270000	371.880000	-2.636522	-2.425998	-2.249743	-3.339569	-4.192636	-3.778100	-3.678440	-4.424395	-3.570840	1.052940	0.350980	-0.871214	-0.336181	0.358092	-1.000000	-1.000000	-1.000000	-1.000000	-1.000000	-1.000000	-1.000000	59.000000	0.000000	-1.000000	-1.000000	355325.000000	1775717331.732098
-21298.275000	-14651.460000	-11435.895000	-6261.885000	-3986.685000	-32881.635000	-3253.815000	380.385000	-6.737821	-5.218275	-5.336804	-6.058356	-6.532882	-2.551209	-2.985847	-6.909332	-3.570840	1.052940	0.350980	-0.871214	-0.336181	0.358092	-1.000000	-1.000000	-1.000000	-1.000000	-1.000000	-1.000000	-1.000000	59.000000	0.000000	-1.000000	-1.000000	355326.000000	1775717331.732128
-21305.745000	-14657.130000	-11442.780000	-6272.415000	-4000.230000	-32895.270000	-3262.185000	376.380000	-8.273276	-6.401406	-6.609655	-6.475170	-6.282124	-1.473041	-1.433471	-6.533263	-3.570840	1.052940	0.350980	-0.871214	-0.336181	0.358092	-1.000000	-1.000000	-1.000000	-1.000000	-1.000000	-1.000000	-1.000000	59.000000	0.000000	-1.000000	-1.000000	355327.000000	1775717331.737676
-21315.420000	-14659.335000	-11446.380000	-6279.615000	-4008.645000	-32903.280000	-3273.705000	364.410000	-6.035120	-4.453841	-4.989855	-4.408603	-3.974963	-1.317322	0.119756	-3.343416	-3.570840	1.052940	0.350980	-0.871214	-0.336181	0.358092	-1.000000	-1.000000	-1.000000	-1.000000	-1.000000	-1.000000	-1.000000	59.000000	0.000000	-1.000000	-1.000000	355328.000000	1775717331.737706
-21314.205000	-14650.245000	-11441.790000	-6278.535000	-4007.565000	-32908.320000	-3279.285000	363.780000	-1.749030	-0.123397	-1.355618	-1.391489	-1.419605	-2.129287	0.421525	0.245249	-3.570840	1.052940	0.350980	-0.871214	-0.336181	0.358092	-1.000000	-1.000000	-1.000000	-1.000000	-1.000000	-1.000000	-1.000000	59.000000	0.000000	-1.000000	-1.000000	355329.000000	1775717331.744656
-21307.005000	-14644.395000	-11436.885000	-6273.855000	-4004.685000	-32913.720000	-3279.645000	371.655000	2.630765	4.896000	2.853510	1.556175	0.802445	-2.735420	-0.322168	2.581115	-3.570840	1.052940	0.350980	-0.871214	-0.336181	0.358092	-1.000000	-1.000000	-1.000000	-1.000000	-1.000000	-1.000000	-1.000000	59.000000	0.000000	-1.000000	-1.000000	355330.000000	1775717331.744684
-21303.540000	-14650.020000	-11437.155000	-6269.040000	-3998.520000	-32903.415000	-3273.165000	374.760000	6.290328	8.573623	6.291836	4.312327	3.183413	-1.690816	-0.434730	4.082806	-0.427280	1.312360	0.732480	-0.869688	-0.339965	0.357848	-1.000000	-1.000000	-1.000000	-1.000000	-1.000000	-1.000000	-1.000000	59.000000	0.000000	-1.000000	-1.000000	355331.000000	1775717331.744710
-21307.905000	-14659.290000	-11443.680000	-6273.810000	-4001.940000	-32894.145000	-3267.990000	370.485000	8.361643	8.675866	7.444149	6.304605	5.483946	1.648656	1.331402	5.113885	-0.427280	1.312360	0.732480	-0.869688	-0.339965	0.357848	-1.000000	-1.000000	-1.000000	-1.000000	-1.000000	-1.000000	-1.000000	59.000000	0.000000	-1.000000	-1.000000	355332.000000	1775717331.744722
-21314.295000	-14663.655000	-11449.440000	-6280.830000	-4008.195000	-32895.990000	-3271.320000	366.165000	7.537421	4.478784	5.337719	6.179724	6.265402	6.157915	4.216786	4.779757	-0.427280	1.312360	0.732480	-0.869688	-0.339965	0.357848	-1.000000	-1.000000	-1.000000	-1.000000	-1.000000	-1.000000	-1.000000	59.000000	0.000000	-1.000000	-1.000000	355333.000000	1775717331.747031
-21332.205000	-14682.105000	-11469.015000	-6300.315000	-4028.130000	-32912.550000	-3285.765000	352.350000	3.293477	-2.142329	0.470220	2.966912	4.038399	8.641137	5.653704	2.217942	-0.427280	1.312360	0.732480	-0.869688	-0.339965	0.357848	-1.000000	-1.000000	-1.000000	-1.000000	-1.000000	-1.000000	-1.000000	59.000000	0.000000	-1.000000	-1.000000	355334.000000	1775717331.747054
-21336.390000	-14686.515000	-11473.335000	-6304.230000	-4032.945000	-32917.455000	-3289.275000	349.380000	-3.028881	-8.074654	-5.231811	-2.516063	-1.012960	6.294573	3.600392	-1.992378	-0.427280	1.312360	0.732480	-0.869688	-0.339965	0.357848	-1.000000	-1.000000	-1.000000	-1.000000	-1.000000	-1.000000	-1.000000	59.000000	0.000000	-1.000000	-1.000000	355335.000000	1775717331.754123
-21333.870000	-14683.815000	-11469.555000	-6299.640000	-4028.175000	-32916.015000	-3285.405000	353.205000	-8.167905	-10.414401	-8.777738	-7.176607	-6.049889	0.117523	-0.888185	-5.564355	-0.427280	1.312360	0.732480	-0.869688	-0.339965	0.357848	-1.000000	-1.000000	-1.000000	-1.000000	-1.000000	-1.000000	-1.000000	59.000000	0.000000	-1.000000	-1.000000	355336.000000	1775717331.754153
-21336.615000	-14687.190000	-11473.470000	-6303.465000	-4032.765000	-32922.900000	-3288.555000	351.585000	-8.909330	-7.680699	-7.694519	-7.677849	-7.440684	-5.712331	-4.455691	-6.012327	-0.427280	1.312360	0.732480	-0.869688	-0.339965	0.357848	-1.000000	-1.000000	-1.000000	-1.000000	-1.000000	-1.000000	-1.000000	59.000000	0.000000	-1.000000	-1.000000	355337.000000	1775717331.754181
-21348.405000	-14699.520000	-11485.440000	-6316.335000	-4045.815000	-32936.760000	-3299.760000	340.470000	-5.156711	-1.485528	-2.691206	-3.932762	-4.563071	-8.161096	-5.138961	-3.249406	-0.427280	1.312360	0.732480	-0.869688	-0.339965	0.357848	-1.000000	-1.000000	-1.000000	-1.000000	-1.000000	-1.000000	-1.000000	59.000000	0.000000	-1.000000	-1.000000	355338.000000	1775717331.754194
-21355.065000	-14707.215000	-11492.955000	-6324.165000	-4053.690000	-32942.700000	-3305.565000	333.810000	-0.028724	4.221250	2.628520	0.788345	-0.290252	-7.323397	-3.816470	0.217050	-0.427280	1.312360	0.732480	-0.869688	-0.339965	0.357848	-1.000000	-1.000000	-1.000000	-1.000000	-1.000000	-1.000000	-1.000000	59.000000	0.000000	-1.000000	-1.000000	355339.000000	1775717331.758471
-21354.210000	-14705.325000	-11490.975000	-6321.825000	-4051.665000	-32937.210000	-3303.720000	333.945000	3.514069	6.706859	5.422023	3.636933	2.640839	-4.355995	-1.964900	2.180654	-0.427280	1.312360	0.732480	-0.869688	-0.339965	0.357848	-1.000000	-1.000000	-1.000000	-1.000000	-1.000000	-1.000000	-1.000000	59.000000	0.000000	-1.000000	-1.000000	355340.000000	1775717331.758495
-21357.675000	-14708.115000	-11492.370000	-6323.670000	-4053.150000	-32935.905000	-3306.645000	331.290000	4.881659	6.303363	5.699452	4.475074	3.944601	0.105288	0.048436	2.610325	2.456860	2.914660	-0.045780	-0.868772	-0.340819	0.358581	-1.000000	-1.000000	-1.000000	-1.000000	-1.000000	-1.000000	-1.000000	59.000000	0.000000	-1.000000	-1.000000	355341.000000	1775717331.764967
-21359.430000	-14712.795000	-11498.130000	-6330.510000	-4058.550000	-32938.155000	-3313.800000	328.005000	4.801040	4.616083	4.719165	4.279343	4.357709	4.929987	2.014916	2.465292	2.456860	2.914660	-0.045780	-0.868772	-0.340819	0.358581	-1.000000	-1.000000	-1.000000	-1.000000	-1.000000	-1.000000	-1.000000	59.000000	0.000000	-1.000000	-1.000000	355342.000000	1775717331.764992
-21358.530000	-14709.015000	-11494.395000	-6326.505000	-4054.635000	-32937.030000	-3314.790000	326.475000	3.915095	2.681368	3.212534	3.451140	4.075345	8.052319	3.161151	2.197186	2.456860	2.914660	-0.045780	-0.868772	-0.340819	0.358581	-1.000000	-1.000000	-1.000000	-1.000000	-1.000000	-1.000000	-1.000000	59.000000	0.000000	-1.000000	-1.000000	355343.000000	1775717331.765642
-21365.775000	-14711.985000	-11496.375000	-6325.110000	-4052.340000	-32937.030000	-3317.265000	318.780000	2.547929	1.040751	1.604687	2.316001	3.234157	8.061756	3.091530	1.685139	2.456860	2.914660	-0.045780	-0.868772	-0.340819	0.358581	-1.000000	-1.000000	-1.000000	-1.000000	-1.000000	-1.000000	-1.000000	59.000000	0.000000	-1.000000	-1.000000	355344.000000	1775717331.765663
-21360.960000	-14705.730000	-11488.770000	-6317.415000	-4042.935000	-32928.975000	-3310.470000	323.235000	0.874301	-0.027511	0.365598	1.465947	2.341398	5.411778	2.370170	0.830203	2.456860	2.914660	-0.045780	-0.868772	-0.340819	0.358581	-1.000000	-1.000000	-1.000000	-1.000000	-1.000000	-1.000000	-1.000000	59.000000	0.000000	-1.000000	-1.000000	355345.000000	1775717331.773527
-21347.595000	-14699.475000	-11484.630000	-6314.850000	-4038.840000	-32923.665000	-3302.775000	337.230000	-0.391638	-0.412735	-0.179104	1.134402	1.747452	1.905846	1.991576	0.327354	2.456860	2.914660	-0.045780	-0.868772	-0.340819	0.358581	-1.000000	-1.000000	-1.000000	-1.000000	-1.000000	-1.000000	-1.000000	59.000000	0.000000	-1.000000	-1.000000	355346.000000	1775717331.773546
-21348.180000	-14704.245000	-11492.595000	-6325.380000	-4054.950000	-32940.450000	-3303.945000	339.570000	-0.332624	-0.324057	-0.336655	0.644059	0.825387	-1.217121	2.277237	1.118594	2.456860	2.914660	-0.045780	-0.868772	-0.340819	0.358581	-1.000000	-1.000000	-1.000000	-1.000000	-1.000000	-1.000000	-1.000000	59.000000	0.000000	-1.000000	-1.000000	355347.000000	1775717331.774302
-21344.130000	-14695.155000	-11481.525000	-6314.985000	-4047.930000	-32943.735000	-3305.835000	342.495000	0.556041	-0.447918	-0.904806	-0.890239	-1.515112	-4.259592	2.233809	2.597420	2.456860	2.914660	-0.045780	-0.868772	-0.340819	0.358581	-1.000000	-1.000000	-1.000000	-1.000000	-1.000000	-1.000000	-1.000000	59.000000	0.000000	-1.000000	-1.000000	355348.000000	1775717331.774320
-21339.405000	-14687.820000	-11472.975000	-6305.715000	-4037.130000	-32946.435000	-3311.955000	345.915000	0.815053	-0.941145	-1.692299	-2.746431	-4.426013	-7.145787	0.626298	2.944320	2.456860	2.914660	-0.045780	-0.868772	-0.340819	0.358581	-1.000000	-1.000000	-1.000000	-1.000000	-1.000000	-1.000000	-1.000000	59.000000	0.000000	-1.000000	-1.000000	355349.000000	1775717331.779659
-21340.890000	-14691.240000	-11474.865000	-6308.550000	-4038.795000	-32942.340000	-3313.530000	342.945000	-0.199694	-1.348808	-1.795352	-3.305537	-5.459695	-8.194029	-2.444915	1.196641	2.456860	2.914660	-0.045780	-0.868772	-0.340819	0.358581	-1.000000	-1.000000	-1.000000	-1.000000	-1.000000	-1.000000	-1.000000	59.000000	0.000000	-1.000000	-1.000000	355350.000000	1775717331.779680
-21347.370000	-14694.570000	-11477.655000	-6310.575000	-4038.165000	-32915.205000	-3295.080000	338.760000	-2.253065	-1.876526	-1.516343	-2.631241	-3.987519	-5.530392	-5.032695	-2.151471	-0.091560	2.258480	0.106820	-0.870908	-0.335876	0.359801	-1.000000	-1.000000	-1.000000	-1.000000	-1.000000	-1.000000	-1.000000	59.000000	0.000000	-1.000000	-1.000000	355351.000000	1775717331.784890
-21347.955000	-14694.030000	-11480.940000	-6311.340000	-4038.030000	-32909.715000	-3287.835000	339.660000	-4.675327	-2.949921	-1.925126	-2.069900	-1.640213	0.944033	-4.637048	-5.636924	-0.091560	2.258480	0.106820	-0.870908	-0.335876	0.359801	-1.000000	-1.000000	-1.000000	-1.000000	-1.000000	-1.000000	-1.000000	59.000000	0.000000	-1.000000	-1.000000	355352.000000	1775717331.784908
-21340.440000	-14689.395000	-11473.515000	-6302.520000	-4030.965000	-32914.980000	-3287.115000	347.220000	-6.076931	-3.905833	-2.937779	-1.973125	0.139233	7.903646	-1.132579	-7.288648	-0.091560	2.258480	0.106820	-0.870908	-0.335876	0.359801	-1.000000	-1.000000	-1.000000	-1.000000	-1.000000	-1.000000	-1.000000	59.000000	0.000000	-1.000000	-1.000000	355353.000000	1775717331.785604
-21345.480000	-14694.930000	-11471.220000	-6300.450000	-4030.695000	-32921.865000	-3287.205000	347.220000	-5.115978	-3.652154	-3.184952	-1.460262	1.132892	10.212302	2.535752	-5.829118	-0.091560	2.258480	0.106820	-0.870908	-0.335876	0.359801	-1.000000	-1.000000	-1.000000	-1.000000	-1.000000	-1.000000	-1.000000	59.000000	0.000000	-1.000000	-1.000000	355354.000000	1775717331.785623
-21343.590000	-14690.700000	-11466.900000	-6297.885000	-4029.030000	-32924.790000	-3287.070000	348.885000	-2.131530	-2.101807	-1.758677	-0.086046	1.515012	5.827286	3.467312	-2.017807	-0.091560	2.258480	0.106820	-0.870908	-0.335876	0.359801	-1.000000	-1.000000	-1.000000	-1.000000	-1.000000	-1.000000	-1.000000	59.000000	0.000000	-1.000000	-1.000000	355355.000000	1775717331.791470
-21334.995000	-14682.645000	-11466.855000	-6299.055000	-4029.840000	-32924.115000	-3288.780000	352.395000	1.343064	0.169859	0.666001	1.365460	1.251245	-2.172879	1.342120	1.959859	-0.091560	2.258480	0.106820	-0.870908	-0.335876	0.359801	-1.000000	-1.000000	-1.000000	-1.000000	-1.000000	-1.000000	-1.000000	59.000000	0.000000	-1.000000	-1.000000	355356.000000	1775717331.791485
-21332.340000	-14681.655000	-11472.840000	-6304.905000	-4032.540000	-32918.130000	-3289.590000	351.225000	4.196437	2.637669	2.446983	1.732147	0.348757	-8.440267	-2.053811	4.310706	-0.091560	2.258480	0.106820	-0.870908	-0.335876	0.359801	-1.000000	-1.000000	-1.000000	-1.000000	-1.000000	-1.000000	-1.000000	59.000000	0.000000	-1.000000	-1.000000	355357.000000	1775717331.792920
-21330.495000	-14681.520000	-11472.030000	-6304.095000	-4030.605000	-32911.740000	-3287.700000	352.035000	5.687529	4.367070	2.373372	0.618292	-0.842442	-9.378561	-4.501802	4.410513	-0.091560	2.258480	0.106820	-0.870908	-0.335876	0.359801	-1.000000	-1.000000	-1.000000	-1.000000	-1.000000	-1.000000	-1.000000	59.000000	0.000000	-1.000000	-1.000000	355358.000000	1775717331.792933
-21333.465000	-14681.655000	-11467.170000	-6299.190000	-4025.970000	-32909.265000	-3288.780000	351.000000	5.114803	4.283304	0.883458	-0.990827	-1.544023	-5.195462	-4.676392	2.704135	-0.091560	2.258480	0.106820	-0.870908	-0.335876	0.359801	-1.000000	-1.000000	-1.000000	-1.000000	-1.000000	-1.000000	-1.000000	59.000000	0.000000	-1.000000	-1.000000	355359.000000	1775717331.798676
-21334.860000	-14679.855000	-11462.265000	-6293.655000	-4021.920000	-32907.465000	-3287.835000	351.315000	2.451627	2.347159	-0.323512	-1.452599	-1.036321	0.865411	-2.740409	0.324260	-0.091560	2.258480	0.106820	-0.870908	-0.335876	0.359801	-1.000000	-1.000000	-1.000000	-1.000000	-1.000000	-1.000000	-1.000000	59.000000	0.000000	-1.000000	-1.000000	355360.000000	1775717331.798699
-21326.670000	-14673.870000	-11456.865000	-6289.020000	-4017.735000	-32907.195000	-3286.080000	358.380000	-1.035823	-0.201328	-0.104228	-0.123947	0.543972	5.157963	0.113387	-1.434118	-2.639980	1.556520	-0.335720	-0.871336	-0.332763	0.359923	-1.000000	-1.000000	-1.000000	-1.000000	-1.000000	-1.000000	-1.000000	59.000000	0.000000	-1.000000	-1.000000	355361.000000	1775717331.801577
-21330.045000	-14676.390000	-11457.990000	-6292.215000	-4021.245000	-32915.610000	-3292.380000	356.310000	-3.410238	-1.926646	1.093426	1.920500	2.091438	5.753581	2.488204	-1.744963	-2.639980	1.556520	-0.335720	-0.871336	-0.332763	0.359923	-1.000000	-1.000000	-1.000000	-1.000000	-1.000000	-1.000000	-1.000000	59.000000	0.000000	-1.000000	-1.000000	355362.000000	1775717331.801595
-21328.695000	-14675.355000	-11457.270000	-6293.115000	-4022.730000	-32918.490000	-3289.590000	359.820000	-3.793212	-2.425915	1.846545	2.832249	2.297279	2.902797	3.379389	-0.880212	-2.639980	1.556520	-0.335720	-0.871336	-0.332763	0.359923	-1.000000	-1.000000	-1.000000	-1.000000	-1.000000	-1.000000	-1.000000	59.000000	0.000000	-1.000000	-1.000000	355363.000000	1775717331.806315
-21336.480000	-14687.235000	-11463.030000	-6295.095000	-4023.495000	-32917.680000	-3288.195000	351.720000	-2.908321	-2.380013	1.115711	1.712306	0.821614	-1.279907	2.853775	0.037309	-2.639980	1.556520	-0.335720	-0.871336	-0.332763	0.359923	-1.000000	-1.000000	-1.000000	-1.000000	-1.000000	-1.000000	-1.000000	59.000000	0.000000	-1.000000	-1.000000	355364.000000	1775717331.806330
-21332.070000	-14682.915000	-11451.465000	-6281.730000	-4008.915000	-32903.145000	-3281.985000	353.160000	-1.828278	-2.486570	-0.721160	-0.413216	-1.053735	-3.764429	1.941896	0.062879	-2.639980	1.556520	-0.335720	-0.871336	-0.332763	0.359923	-1.000000	-1.000000	-1.000000	-1.000000	-1.000000	-1.000000	-1.000000	59.000000	0.000000	-1.000000	-1.000000	355365.000000	1775717331.822151
-21328.965000	-14675.445000	-11446.470000	-6278.040000	-4005.450000	-32899.005000	-3282.570000	353.475000	-0.746936	-2.260234	-1.978687	-1.498571	-1.432658	-2.615797	1.452428	-0.664058	-2.639980	1.556520	-0.335720	-0.871336	-0.332763	0.359923	-1.000000	-1.000000	-1.000000	-1.000000	-1.000000	-1.000000	-1.000000	59.000000	0.000000	-1.000000	-1.000000	355366.000000	1775717331.822179
-21330.675000	-14673.195000	-11455.065000	-6287.220000	-4014.810000	-32904.045000	-3290.625000	350.055000	0.639654	-0.618960	-1.660984	-0.948545	-0.202258	1.029988	1.058606	-1.209547	-2.639980	1.556520	-0.335720	-0.871336	-0.332763	0.359923	-1.000000	-1.000000	-1.000000	-1.000000	-1.000000	-1.000000	-1.000000	59.000000	0.000000	-1.000000	-1.000000	355367.000000	1775717331.822205
-21342.555000	-14688.225000	-11472.570000	-6306.480000	-4033.530000	-32918.400000	-3303.450000	342.045000	1.772699	1.831082	-1.132535	-0.675933	0.294713	3.534396	-0.334811	-1.193654	-2.639980	1.556520	-0.335720	-0.871336	-0.332763	0.359923	-1.000000	-1.000000	-1.000000	-1.000000	-1.000000	-1.000000	-1.000000	59.000000	0.000000	-1.000000	-1.000000	355368.000000	1775717331.822216
-21342.645000	-14688.900000	-11470.545000	-6304.185000	-4030.065000	-32917.455000	-3300.210000	341.775000	1.575079	2.860659	-2.072949	-2.365549	-1.647618	2.349152	-2.860307	-0.969176	-2.639980	1.556520	-0.335720	-0.871336	-0.332763	0.359923	-1.000000	-1.000000	-1.000000	-1.000000	-1.000000	-1.000000	-1.000000	59.000000	0.000000	-1.000000	-1.000000	355369.000000	1775717331.822687
-21340.395000	-14689.350000	-11471.130000	-6305.445000	-4031.100000	-32921.640000	-3292.740000	346.770000	0.310085	1.653773	-3.541655	-4.584735	-4.308406	-1.331894	-4.567853	-0.476273	-2.639980	1.556520	-0.335720	-0.871336	-0.332763	0.359923	-1.000000	-1.000000	-1.000000	-1.000000	-1.000000	-1.000000	-1.000000	59.000000	0.000000	-1.000000	-1.000000	355370.000000	1775717331.822713
-21346.560000	-14697.540000	-11479.545000	-6314.760000	-4041.045000	-32933.295000	-3298.500000	344.430000	-0.577285	-0.341811	-3.337479	-4.656185	-4.778502	-4.431363	-3.442900	0.744053	-3.219860	1.999060	-0.564620	-0.869871	-0.333007	0.361388	-1.000000	-1.000000	-1.000000	-1.000000	-1.000000	-1.000000	-1.000000	59.000000	0.000000	-1.000000	-1.000000	355371.000000	1775717331.822737
-21345.030000	-14696.505000	-11476.980000	-6310.395000	-4039.380000	-32933.115000	-3299.445000	345.285000	-0.396468	-1.574422	-1.021778	-2.015106	-2.498204	-5.171839	-0.153020	2.361635	-3.219860	1.999060	-0.564620	-0.869871	-0.333007	0.361388	-1.000000	-1.000000	-1.000000	-1.000000	-1.000000	-1.000000	-1.000000	59.000000	0.000000	-1.000000	-1.000000	355372.000000	1775717331.822749
-21341.745000	-14694.795000	-11472.435000	-6305.850000	-4037.715000	-32926.095000	-3293.010000	348.075000	0.560456	-1.374643	2.328600	2.109961	1.194542	-3.226760	2.984229	3.393915	-3.219860	1.999060	-0.564620	-0.869871	-0.333007	0.361388	-1.000000	-1.000000	-1.000000	-1.000000	-1.000000	-1.000000	-1.000000	59.000000	0.000000	-1.000000	-1.000000	355373.000000	1775717331.829605
-21347.055000	-14699.745000	-11474.415000	-6306.435000	-4035.780000	-32918.355000	-3290.760000	343.935000	1.726800	0.117423	5.437691	6.110324	4.826977	1.039454	4.656264	3.233134	-3.219860	1.999060	-0.564620	-0.869871	-0.333007	0.361388	-1.000000	-1.000000	-1.000000	-1.000000	-1.000000	-1.000000	-1.000000	59.000000	0.000000	-1.000000	-1.000000	355374.000000	1775717331.829633
-21345.615000	-14691.690000	-11466.720000	-6300.405000	-4030.020000	-32914.215000	-3287.700000	343.845000	2.301467	1.978364	7.068137	8.315482	7.180963	6.059636	4.750841	1.833384	-3.219860	1.999060	-0.564620	-0.869871	-0.333007	0.361388	-1.000000	-1.000000	-1.000000	-1.000000	-1.000000	-1.000000	-1.000000	59.000000	0.000000	-1.000000	-1.000000	355375.000000	1775717331.833982
-21342.825000	-14680.350000	-11460.240000	-6294.870000	-4024.800000	-32911.155000	-3288.915000	343.035000	1.895611	3.535151	6.700503	7.873159	7.577055	9.265083	3.429696	-0.278097	-3.219860	1.999060	-0.564620	-0.869871	-0.333007	0.361388	-1.000000	-1.000000	-1.000000	-1.000000	-1.000000	-1.000000	-1.000000	59.000000	0.000000	-1.000000	-1.000000	355376.000000	1775717331.834012
-21341.025000	-14686.020000	-11469.420000	-6302.520000	-4029.930000	-32915.160000	-3293.235000	344.385000	1.009204	4.503412	4.557513	5.062468	5.879720	8.659630	0.940579	-2.081623	-3.219860	1.999060	-0.564620	-0.869871	-0.333007	0.361388	-1.000000	-1.000000	-1.000000	-1.000000	-1.000000	-1.000000	-1.000000	59.000000	0.000000	-1.000000	-1.000000	355377.000000	1775717331.838333
-21343.320000	-14698.035000	-11479.005000	-6310.890000	-4038.390000	-32923.080000	-3303.495000	344.160000	0.180691	3.755349	0.681164	0.445926	2.112113	4.053576	-2.281615	-2.747973	-3.219860	1.999060	-0.564620	-0.869871	-0.333007	0.361388	-1.000000	-1.000000	-1.000000	-1.000000	-1.000000	-1.000000	-1.000000	59.000000	0.000000	-1.000000	-1.000000	355378.000000	1775717331.838362
-21352.275000	-14702.940000	-11483.055000	-6315.030000	-4042.935000	-32928.345000	-3305.340000	338.985000	-0.757338	0.260913	-4.377140	-4.928570	-3.046337	-2.763676	-5.368043	-2.299175	-3.219860	1.999060	-0.564620	-0.869871	-0.333007	0.361388	-1.000000	-1.000000	-1.000000	-1.000000	-1.000000	-1.000000	-1.000000	59.000000	0.000000	-1.000000	-1.000000	355379.000000	1775717331.842524
-21357.090000	-14705.145000	-11482.425000	-6313.950000	-4042.305000	-32929.425000	-3302.865000	337.860000	-2.199437	-4.625004	-8.450522	-8.884055	-7.559171	-8.663204	-6.798924	-1.472968	-3.219860	1.999060	-0.564620	-0.869871	-0.333007	0.361388	-1.000000	-1.000000	-1.000000	-1.000000	-1.000000	-1.000000	-1.000000	59.000000	0.000000	-1.000000	-1.000000	355380.000000	1775717331.842546
-21358.530000	-14708.340000	-11488.455000	-6318.270000	-4046.670000	-32932.170000	-3306.330000	334.440000	-3.712200	-7.819123	-9.171250	-9.326926	-9.090266	-10.803212	-5.361507	-0.857797	-1.495480	1.922760	-0.579880	-0.869688	-0.337035	0.359984	-1.000000	-1.000000	-1.000000	-1.000000	-1.000000	-1.000000	-1.000000	59.000000	0.000000	-1.000000	-1.000000	355381.000000	1775717331.842571
-21344.850000	-14699.655000	-11480.805000	-6309.990000	-4037.310000	-32922.180000	-3299.130000	344.025000	-3.799973	-7.173689	-6.073514	-5.978055	-6.803185	-8.238432	-1.486725	-0.268362	-1.495480	1.922760	-0.579880	-0.869688	-0.337035	0.359984	-1.000000	-1.000000	-1.000000	-1.000000	-1.000000	-1.000000	-1.000000	59.000000	0.000000	-1.000000	-1.000000	355382.000000	1775717331.842583
-21339.360000	-14692.590000	-11471.895000	-6303.105000	-4029.390000	-32915.745000	-3295.710000	347.895000	-1.223974	-2.712951	-0.450201	-0.265481	-1.598435	-2.118413	3.130750	0.941845	-1.495480	1.922760	-0.579880	-0.869688	-0.337035	0.359984	-1.000000	-1.000000	-1.000000	-1.000000	-1.000000	-1.000000	-1.000000	59.000000	0.000000	-1.000000	-1.000000	355383.000000	1775717331.853455
-21342.105000	-14693.445000	-11468.565000	-6302.205000	-4030.740000	-32916.735000	-3298.005000	346.095000	3.021436	3.382718	5.563349	5.485121	4.304675	4.748211	6.531994	2.653738	-1.495480	1.922760	-0.579880	-0.869688	-0.337035	0.359984	-1.000000	-1.000000	-1.000000	-1.000000	-1.000000	-1.000000	-1.000000	59.000000	0.000000	-1.000000	-1.000000	355384.000000	1775717331.853487
-21334.320000	-14683.680000	-11459.115000	-6294.015000	-4022.415000	-32910.030000	-3289.905000	353.025000	6.049852	7.869240	9.502895	8.810688	8.077033	9.025769	7.262626	3.673167	-1.495480	1.922760	-0.579880	-0.869688	-0.337035	0.359984	-1.000000	-1.000000	-1.000000	-1.000000	-1.000000	-1.000000	-1.000000	59.000000	0.000000	-1.000000	-1.000000	355385.000000	1775717331.853516
-21330.585000	-14680.395000	-11455.290000	-6288.120000	-4015.215000	-32905.080000	-3284.415000	357.030000	6.038025	8.755940	9.784517	8.571508	8.239993	9.087567	5.438621	3.250244	-1.495480	1.922760	-0.579880	-0.869688	-0.337035	0.359984	-1.000000	-1.000000	-1.000000	-1.000000	-1.000000	-1.000000	-1.000000	59.000000	0.000000	-1.000000	-1.000000	355386.000000	1775717331.853530
-21319.155000	-14668.695000	-11442.465000	-6273.495000	-3999.915000	-32895.495000	-3274.605000	367.335000	3.629338	6.378348	6.690909	5.662535	5.697502	5.910348	2.563655	1.879445	-1.495480	1.922760	-0.579880	-0.869688	-0.337035	0.359984	-1.000000	-1.000000	-1.000000	-1.000000	-1.000000	-1.000000	-1.000000	59.000000	0.000000	-1.000000	-1.000000	355387.000000	1775717331.856996
-21307.140000	-14656.995000	-11430.855000	-6262.245000	-3989.655000	-32888.790000	-3267.540000	378.495000	0.749981	2.572415	2.088873	2.055957	2.456624	1.717139	0.084523	0.583424	-1.495480	1.922760	-0.579880	-0.869688	-0.337035	0.359984	-1.000000	-1.000000	-1.000000	-1.000000	-1.000000	-1.000000	-1.000000	59.000000	0.000000	-1.000000	-1.000000	355388.000000	1775717331.857023
-21312.810000	-14662.800000	-11438.910000	-6273.315000	-4006.125000	-32905.305000	-3274.425000	372.195000	-1.330908	-1.010541	-2.208462	-1.127769	-0.629244	-2.122005	-1.713639	-0.269657	-1.495480	1.922760	-0.579880	-0.869688	-0.337035	0.359984	-1.000000	-1.000000	-1.000000	-1.000000	-1.000000	-1.000000	-1.000000	59.000000	0.000000	-1.000000	-1.000000	355389.000000	1775717331.884299
-21320.775000	-14670.810000	-11447.505000	-6281.505000	-4013.820000	-32906.565000	-3279.330000	365.985000	-3.169461	-4.281304	-5.999481	-4.541092	-4.479745	-5.726573	-3.656485	-1.603510	-1.495480	1.922760	-0.579880	-0.869688	-0.337035	0.359984	-1.000000	-1.000000	-1.000000	-1.000000	-1.000000	-1.000000	-1.000000	59.000000	0.000000	-1.000000	-1.000000	355390.000000	1775717331.884331
-21333.240000	-14680.215000	-11454.570000	-6287.400000	-4019.265000	-32907.915000	-3283.560000	357.795000	-5.846206	-7.728283	-9.566625	-8.577657	-9.159717	-8.712078	-6.112371	-4.253726	0.061040	2.289000	0.228900	-0.869566	-0.338805	0.359130	-1.000000	-1.000000	-1.000000	-1.000000	-1.000000	-1.000000	-1.000000	59.000000	0.000000	-1.000000	-1.000000	355391.000000	1775717331.884357
-21337.290000	-14684.670000	-11459.520000	-6291.315000	-4020.345000	-32903.955000	-3283.470000	356.760000	-8.791570	-10.510803	-11.810237	-11.519859	-12.203331	-9.261795	-7.880961	-7.210061	0.061040	2.289000	0.228900	-0.869566	-0.338805	0.359130	-1.000000	-1.000000	-1.000000	-1.000000	-1.000000	-1.000000	-1.000000	59.000000	0.000000	-1.000000	-1.000000	355392.000000	1775717331.884371
-21330.855000	-14678.280000	-11452.050000	-6283.980000	-4012.740000	-32898.510000	-3279.825000	360.810000	-9.624431	-10.539989	-10.757213	-10.853103	-10.791658	-6.142693	-7.208099	-8.097248	0.061040	2.289000	0.228900	-0.869566	-0.338805	0.359130	-1.000000	-1.000000	-1.000000	-1.000000	-1.000000	-1.000000	-1.000000	59.000000	0.000000	-1.000000	-1.000000	355393.000000	1775717331.884387
-21325.320000	-14672.790000	-11446.155000	-6279.390000	-4008.465000	-32904.585000	-3287.115000	359.955000	-6.203158	-6.312773	-5.420356	-5.594383	-4.461750	-0.481113	-3.702953	-5.380725	0.061040	2.289000	0.228900	-0.869566	-0.338805	0.359130	-1.000000	-1.000000	-1.000000	-1.000000	-1.000000	-1.000000	-1.000000	59.000000	0.000000	-1.000000	-1.000000	355394.000000	1775717331.884402
-21326.535000	-14678.595000	-11454.660000	-6287.850000	-4015.530000	-32912.595000	-3292.290000	358.200000	0.815361	1.018141	2.506645	2.269660	3.982850	4.578415	0.867884	-0.070626	0.061040	2.289000	0.228900	-0.869566	-0.338805	0.359130	-1.000000	-1.000000	-1.000000	-1.000000	-1.000000	-1.000000	-1.000000	59.000000	0.000000	-1.000000	-1.000000	355395.000000	1775717331.884417
-21338.595000	-14692.995000	-11469.735000	-6303.330000	-4030.425000	-32921.370000	-3296.745000	350.730000	7.619635	7.480979	8.753777	8.348173	9.808290	6.209603	4.102082	4.904149	0.061040	2.289000	0.228900	-0.869566	-0.338805	0.359130	-1.000000	-1.000000	-1.000000	-1.000000	-1.000000	-1.000000	-1.000000	59.000000	0.000000	-1.000000	-1.000000	355396.000000	1775717331.884430
-21332.295000	-14685.525000	-11461.140000	-6293.835000	-4019.940000	-32908.815000	-3287.880000	357.795000	10.342491	9.559544	10.022921	9.491617	10.124584	4.500431	5.232764	7.192453	0.061040	2.289000	0.228900	-0.869566	-0.338805	0.359130	-1.000000	-1.000000	-1.000000	-1.000000	-1.000000	-1.000000	-1.000000	59.000000	0.000000	-1.000000	-1.000000	355397.000000	1775717331.884446
-21327.975000	-14682.195000	-11456.910000	-6289.020000	-4013.775000	-32901.840000	-3286.305000	359.955000	8.595247	7.606272	7.337072	6.913547	6.628194	2.350745	5.293771	6.786517	0.061040	2.289000	0.228900	-0.869566	-0.338805	0.359130	-1.000000	-1.000000	-1.000000	-1.000000	-1.000000	-1.000000	-1.000000	59.000000	0.000000	-1.000000	-1.000000	355398.000000	1775717331.884458
-21325.320000	-14680.530000	-11454.840000	-6288.705000	-4016.070000	-32905.620000	-3289.230000	362.520000	4.932946	4.532016	4.103452	3.995815	3.029045	2.002271	5.093436	5.097378	0.061040	2.289000	0.228900	-0.869566	-0.338805	0.359130	-1.000000	-1.000000	-1.000000	-1.000000	-1.000000	-1.000000	-1.000000	59.000000	0.000000	-1.000000	-1.000000	355399.000000	1775717331.884474
-21320.595000	-14676.210000	-11448.315000	-6282.495000	-4010.355000	-32899.635000	-3286.125000	368.370000	1.667549	2.269045	2.208004	2.354641	0.956849	2.720379	4.219825	3.174928	0.061040	2.289000	0.228900	-0.869566	-0.338805	0.359130	-1.000000	-1.000000	-1.000000	-1.000000	-1.000000	-1.000000	-1.000000	59.000000	0.000000	-1.000000	-1.000000	355400.000000	1775717331.884487
-21322.575000	-14674.680000	-11442.015000	-6274.800000	-4001.940000	-32888.790000	-3276.765000	369.855000	-0.519817	0.960270	1.507927	1.690352	0.098699	2.909214	2.489519	1.395588	-1.480220	1.922760	0.122080	-0.870786	-0.338683	0.357421	-1.000000	-1.000000	-1.000000	-1.000000	-1.000000	-1.000000	-1.000000	59.000000	0.000000	-1.000000	-1.000000	355401.000000	1775717331.884502
-21330.540000	-14676.930000	-11444.625000	-6277.635000	-4006.305000	-32895.855000	-3281.130000	360.360000	-2.175112	-0.075731	1.033042	1.182563	-0.217898	2.068761	0.577441	-0.451971	-1.480220	1.922760	0.122080	-0.870786	-0.338683	0.357421	-1.000000	-1.000000	-1.000000	-1.000000	-1.000000	-1.000000	-1.000000	59.000000	0.000000	-1.000000	-1.000000	355402.000000	1775717331.884513
-21321.810000	-14669.280000	-11437.965000	-6269.220000	-3997.935000	-32901.480000	-3283.965000	364.905000	-3.794075	-1.337190	-0.154845	0.063668	-0.750334	-0.054602	-1.251418	-2.720757	-1.480220	1.922760	0.122080	-0.870786	-0.338683	0.357421	-1.000000	-1.000000	-1.000000	-1.000000	-1.000000	-1.000000	-1.000000	59.000000	0.000000	-1.000000	-1.000000	355403.000000	1775717331.900366
-21311.820000	-14663.745000	-11430.720000	-6262.335000	-3992.445000	-32912.370000	-3284.370000	375.075000	-4.475675	-2.387550	-1.928179	-1.559656	-1.632702	-3.523190	-3.175334	-4.554637	-1.480220	1.922760	0.122080	-0.870786	-0.338683	0.357421	-1.000000	-1.000000	-1.000000	-1.000000	-1.000000	-1.000000	-1.000000	59.000000	0.000000	-1.000000	-1.000000	355404.000000	1775717331.900398
-21312.900000	-14663.520000	-11432.475000	-6265.620000	-3996.945000	-32910.345000	-3280.275000	373.185000	-3.094249	-2.550800	-3.305243	-2.901071	-2.373104	-7.044496	-4.625157	-4.413405	-1.480220	1.922760	0.122080	-0.870786	-0.338683	0.357421	-1.000000	-1.000000	-1.000000	-1.000000	-1.000000	-1.000000	-1.000000	59.000000	0.000000	-1.000000	-1.000000	355405.000000	1775717331.900429
-21313.305000	-14663.160000	-11437.110000	-6269.850000	-3997.980000	-32884.155000	-3261.960000	371.655000	-0.507445	-2.080498	-3.987278	-3.847015	-2.967120	-7.808391	-4.251869	-2.438906	-1.480220	1.922760	0.122080	-0.870786	-0.338683	0.357421	-1.000000	-1.000000	-1.000000	-1.000000	-1.000000	-1.000000	-1.000000	59.000000	0.000000	-1.000000	-1.000000	355406.000000	1775717331.900443
-21312.405000	-14664.420000	-11440.890000	-6273.675000	-3999.105000	-32878.530000	-3259.170000	372.645000	1.251940	-1.763945	-4.455974	-4.766262	-3.586568	-3.630104	-1.365980	-0.363484	-1.480220	1.922760	0.122080	-0.870786	-0.338683	0.357421	-1.000000	-1.000000	-1.000000	-1.000000	-1.000000	-1.000000	-1.000000	59.000000	0.000000	-1.000000	-1.000000	355407.000000	1775717331.900458
-21311.280000	-14661.180000	-11435.850000	-6270.435000	-3998.655000	-32887.710000	-3270.330000	372.645000	1.289194	-1.834298	-4.614936	-5.267203	-3.771608	3.469246	2.261206	0.656072	-1.480220	1.922760	0.122080	-0.870786	-0.338683	0.357421	-1.000000	-1.000000	-1.000000	-1.000000	-1.000000	-1.000000	-1.000000	59.000000	0.000000	-1.000000	-1.000000	355408.000000	1775717331.900470
-21308.940000	-14657.265000	-11432.025000	-6267.150000	-3996.000000	-32891.760000	-3275.730000	373.005000	0.264892	-1.747682	-3.511940	-4.269964	-2.865764	7.969866	3.297528	0.710922	-1.480220	1.922760	0.122080	-0.870786	-0.338683	0.357421	-1.000000	-1.000000	-1.000000	-1.000000	-1.000000	-1.000000	-1.000000	59.000000	0.000000	-1.000000	-1.000000	355409.000000	1775717331.900490
-21307.005000	-14656.995000	-11431.035000	-6265.665000	-3993.480000	-32887.890000	-3273.390000	374.265000	-0.676488	-0.961251	-0.751199	-1.379470	-0.759001	6.684184	0.704331	0.412540	-1.480220	1.922760	0.122080	-0.870786	-0.338683	0.357421	-1.000000	-1.000000	-1.000000	-1.000000	-1.000000	-1.000000	-1.000000	59.000000	0.000000	-1.000000	-1.000000	355410.000000	1775717331.900501
-21309.660000	-14659.695000	-11433.105000	-6266.745000	-3993.435000	-32881.095000	-3264.615000	373.500000	-0.947495	0.214226	2.488409	2.255929	1.831253	1.716153	-2.809830	0.246297	-0.961380	1.266580	0.488320	-0.870359	-0.339843	0.358275	-1.000000	-1.000000	-1.000000	-1.000000	-1.000000	-1.000000	-1.000000	59.000000	0.000000	-1.000000	-1.000000	355411.000000	1775717331.901714
-21313.125000	-14666.220000	-11438.325000	-6271.830000	-3999.015000	-32886.360000	-3266.235000	371.655000	-0.833651	0.814423	4.311045	4.680029	3.595302	-2.788608	-3.924226	0.263620	-0.961380	1.266580	0.488320	-0.870359	-0.339843	0.358275	-1.000000	-1.000000	-1.000000	-1.000000	-1.000000	-1.000000	-1.000000	59.000000	0.000000	-1.000000	-1.000000	355412.000000	1775717331.901732
-21320.325000	-14673.555000	-11442.240000	-6277.590000	-4007.070000	-32900.760000	-3274.515000	367.695000	-0.947521	0.197996	3.711446	4.585213	3.382118	-4.998693	-2.259625	0.175943	-0.961380	1.266580	0.488320	-0.870359	-0.339843	0.358275	-1.000000	-1.000000	-1.000000	-1.000000	-1.000000	-1.000000	-1.000000	59.000000	0.000000	-1.000000	-1.000000	355413.000000	1775717331.914477
-21335.535000	-14688.270000	-11452.995000	-6287.625000	-4017.645000	-32910.255000	-3285.225000	357.030000	-1.669371	-1.436674	1.196377	2.132923	1.068946	-5.757646	-0.196378	-0.364507	-0.961380	1.266580	0.488320	-0.870359	-0.339843	0.358275	-1.000000	-1.000000	-1.000000	-1.000000	-1.000000	-1.000000	-1.000000	59.000000	0.000000	-1.000000	-1.000000	355414.000000	1775717331.914510
-21341.880000	-14694.120000	-11455.605000	-6289.425000	-4017.285000	-32904.180000	-3288.915000	351.585000	-2.851680	-3.195749	-1.764387	-1.191240	-2.013105	-5.630738	0.265349	-1.439806	-0.961380	1.266580	0.488320	-0.870359	-0.339843	0.358275	-1.000000	-1.000000	-1.000000	-1.000000	-1.000000	-1.000000	-1.000000	59.000000	0.000000	-1.000000	-1.000000	355415.000000	1775717331.914538
-21339.855000	-14691.780000	-11453.985000	-6285.780000	-4010.940000	-32893.695000	-3287.745000	352.530000	-3.354861	-3.614136	-3.401840	-3.237782	-3.530911	-3.465008	-0.423145	-2.344047	-0.961380	1.266580	0.488320	-0.870359	-0.339843	0.358275	-1.000000	-1.000000	-1.000000	-1.000000	-1.000000	-1.000000	-1.000000	59.000000	0.000000	-1.000000	-1.000000	355416.000000	1775717331.914551
-21353.310000	-14708.430000	-11473.065000	-6303.690000	-4025.700000	-32899.140000	-3295.530000	343.305000	-1.910430	-1.728391	-2.847737	-2.818317	-2.190597	1.262932	-0.558320	-2.013336	-0.961380	1.266580	0.488320	-0.870359	-0.339843	0.358275	-1.000000	-1.000000	-1.000000	-1.000000	-1.000000	-1.000000	-1.000000	59.000000	0.000000	-1.000000	-1.000000	355417.000000	1775717331.914567
-21355.965000	-14710.185000	-11476.665000	-6311.070000	-4036.905000	-32910.390000	-3301.515000	339.570000	1.042648	1.471505	-1.139656	-1.080863	0.432520	6.075323	0.403554	-0.423734	-0.961380	1.266580	0.488320	-0.870359	-0.339843	0.358275	-1.000000	-1.000000	-1.000000	-1.000000	-1.000000	-1.000000	-1.000000	59.000000	0.000000	-1.000000	-1.000000	355418.000000	1775717331.914579
-21361.365000	-14715.945000	-11480.895000	-6315.840000	-4044.825000	-32922.405000	-3309.660000	333.630000	3.850716	4.151459	0.376698	0.205378	1.742359	7.345056	1.558875	1.414972	-0.961380	1.266580	0.488320	-0.870359	-0.339843	0.358275	-1.000000	-1.000000	-1.000000	-1.000000	-1.000000	-1.000000	-1.000000	59.000000	0.000000	-1.000000	-1.000000	355419.000000	1775717331.917585
-21364.200000	-14720.580000	-11484.270000	-6317.460000	-4045.500000	-32925.870000	-3310.155000	332.235000	5.398558	5.417465	1.619257	0.903891	1.300142	4.179309	2.101341	2.676424	-0.961380	1.266580	0.488320	-0.870359	-0.339843	0.358275	-1.000000	-1.000000	-1.000000	-1.000000	-1.000000	-1.000000	-1.000000	59.000000	0.000000	-1.000000	-1.000000	355420.000000	1775717331.917612
-21373.785000	-14728.995000	-11494.440000	-6327.765000	-4056.480000	-32936.760000	-3316.815000	324.855000	5.334406	5.130477	2.716271	1.662204	0.553225	-0.842919	2.097255	3.108466	-0.412020	2.563680	0.793520	-0.869199	-0.339538	0.358947	-1.000000	-1.000000	-1.000000	-1.000000	-1.000000	-1.000000	-1.000000	59.000000	0.000000	-1.000000	-1.000000	355421.000000	1775717331.924268
-21375.585000	-14729.940000	-11495.025000	-6328.125000	-4058.055000	-32938.965000	-3320.595000	321.615000	3.779589	3.561123	3.243997	2.433234	0.524018	-4.383993	1.867875	2.710853	-0.412020	2.563680	0.793520	-0.869199	-0.339538	0.358947	-1.000000	-1.000000	-1.000000	-1.000000	-1.000000	-1.000000	-1.000000	59.000000	0.000000	-1.000000	-1.000000	355422.000000	1775717331.924295
-21375.315000	-14728.815000	-11491.290000	-6325.245000	-4055.580000	-32935.950000	-3321.945000	321.210000	1.569278	1.619970	3.154284	2.970756	1.310193	-4.568977	1.534480	1.764000	-0.412020	2.563680	0.793520	-0.869199	-0.339538	0.358947	-1.000000	-1.000000	-1.000000	-1.000000	-1.000000	-1.000000	-1.000000	59.000000	0.000000	-1.000000	-1.000000	355423.000000	1775717331.925627
-21388.545000	-14744.115000	-11505.105000	-6339.780000	-4069.395000	-32943.960000	-3332.925000	310.590000	-0.289588	0.110399	2.775375	3.141587	2.456642	-1.610732	1.074695	0.721360	-0.412020	2.563680	0.793520	-0.869199	-0.339538	0.358947	-1.000000	-1.000000	-1.000000	-1.000000	-1.000000	-1.000000	-1.000000	59.000000	0.000000	-1.000000	-1.000000	355424.000000	1775717331.925645
-21387.195000	-14745.960000	-11508.390000	-6343.335000	-4070.790000	-32941.755000	-3332.340000	312.975000	-1.562442	-1.163955	1.774235	2.321853	2.860441	2.382595	0.357679	-0.214318	-0.412020	2.563680	0.793520	-0.869199	-0.339538	0.358947	-1.000000	-1.000000	-1.000000	-1.000000	-1.000000	-1.000000	-1.000000	59.000000	0.000000	-1.000000	-1.000000	355425.000000	1775717331.934599
-21380.760000	-14737.680000	-11501.640000	-6336.090000	-4063.185000	-32935.590000	-3328.020000	317.790000	-2.045125	-2.159325	0.094674	0.513737	2.101787	5.223137	-0.264517	-0.664018	-0.412020	2.563680	0.793520	-0.869199	-0.339538	0.358947	-1.000000	-1.000000	-1.000000	-1.000000	-1.000000	-1.000000	-1.000000	59.000000	0.000000	-1.000000	-1.000000	355426.000000	1775717331.934630
-21378.015000	-14733.900000	-11498.175000	-6332.220000	-4060.305000	-32934.465000	-3326.220000	318.555000	-1.108724	-1.771044	-0.980130	-0.736971	1.313796	6.166197	0.012167	-0.070278	-0.412020	2.563680	0.793520	-0.869199	-0.339538	0.358947	-1.000000	-1.000000	-1.000000	-1.000000	-1.000000	-1.000000	-1.000000	59.000000	0.000000	-1.000000	-1.000000	355427.000000	1775717331.934659
-21372.525000	-14726.880000	-11490.570000	-6325.245000	-4054.005000	-32932.620000	-3319.200000	323.775000	0.998164	0.364914	-0.414003	-0.230058	1.414119	5.274354	1.267808	1.274203	-0.412020	2.563680	0.793520	-0.869199	-0.339538	0.358947	-1.000000	-1.000000	-1.000000	-1.000000	-1.000000	-1.000000	-1.000000	59.000000	0.000000	-1.000000	-1.000000	355428.000000	1775717331.934673
-21377.340000	-14731.470000	-11490.435000	-6324.930000	-4055.265000	-32940.315000	-3320.640000	320.580000	2.756043	2.754681	1.155110	1.341444	1.844485	2.667156	2.548315	2.236280	-0.412020	2.563680	0.793520	-0.869199	-0.339538	0.358947	-1.000000	-1.000000	-1.000000	-1.000000	-1.000000	-1.000000	-1.000000	59.000000	0.000000	-1.000000	-1.000000	355429.000000	1775717331.942793
-21377.970000	-14730.075000	-11486.970000	-6320.790000	-4050.225000	-32936.130000	-3316.365000	320.535000	2.573696	3.309378	2.100593	2.255426	1.452902	-1.107265	2.671323	1.789517	-0.412020	2.563680	0.793520	-0.869199	-0.339538	0.358947	-1.000000	-1.000000	-1.000000	-1.000000	-1.000000	-1.000000	-1.000000	59.000000	0.000000	-1.000000	-1.000000	355430.000000	1775717331.942814
-21361.050000	-14710.455000	-11471.130000	-6304.095000	-4032.720000	-32920.470000	-3305.790000	334.980000	0.544928	1.684464	1.610538	1.721945	0.144549	-4.292152	1.397588	0.123022	-0.381500	2.319520	0.808780	-0.869749	-0.338134	0.359069	-1.000000	-1.000000	-1.000000	-1.000000	-1.000000	-1.000000	-1.000000	59.000000	0.000000	-1.000000	-1.000000	355431.000000	1775717331.942834
-21345.615000	-14699.790000	-11465.775000	-6295.590000	-4023.180000	-32908.860000	-3295.440000	349.110000	-1.121081	-0.119960	0.450884	0.608110	-0.836620	-4.645553	-0.185561	-1.056734	-0.381500	2.319520	0.808780	-0.869749	-0.338134	0.359069	-1.000000	-1.000000	-1.000000	-1.000000	-1.000000	-1.000000	-1.000000	59.000000	0.000000	-1.000000	-1.000000	355432.000000	1775717331.942841
-21332.025000	-14687.730000	-11453.580000	-6286.095000	-4016.610000	-32900.940000	-3287.745000	358.875000	-0.575499	-0.414737	-0.437676	-0.156113	-0.821940	-1.905691	-0.982436	-0.423450	-0.381500	2.319520	0.808780	-0.869749	-0.338134	0.359069	-1.000000	-1.000000	-1.000000	-1.000000	-1.000000	-1.000000	-1.000000	59.000000	0.000000	-1.000000	-1.000000	355433.000000	1775717331.961744
-21332.565000	-14688.765000	-11456.370000	-6290.190000	-4018.635000	-32898.960000	-3289.905000	358.110000	1.244547	0.082940	-1.149747	-0.955101	-0.844845	1.478439	-1.232038	1.045285	-0.381500	2.319520	0.808780	-0.869749	-0.338134	0.359069	-1.000000	-1.000000	-1.000000	-1.000000	-1.000000	-1.000000	-1.000000	59.000000	0.000000	-1.000000	-1.000000	355434.000000	1775717331.961774
