Channel1	Channel2	Channel3	Channel4	Channel5	Channel6	Channel7	Channel8	FilteredChannel1	FilteredChannel2	FilteredChannel3	FilteredChannel4	FilteredChannel5	FilteredChannel6	FilteredChannel7	FilteredChannel8	GyroX	GyroY	GyroZ	AccX	AccY	AccZ	PPG1	PPG2	rawPPG1	rawPPG2	rawPPG3	Hr	Hrv	Battery	Trigger	PhysicalTrigger	AutoTrigger	NumMeasurements	Timestamp
-26690.985000	-1903.320000	-9851.220000	-4490.100000	-2873.610000	-22741.155000	-1635.840000	3897.540000	2.448827	1.596283	1.245429	0.889796	1.351385	1.036504	1.150142	1.674786	-1.464960	3.448760	-0.061040	-0.943784	-0.243713	0.219238	-1.000000	-1.000000	-1.000000	-1.000000	-1.000000	-1.000000	-1.000000	61.000000	0.000000	-1.000000	-1.000000	99911.000000	1775716820.370859
-26699.625000	-1914.030000	-9863.415000	-4502.340000	-2885.895000	-22749.975000	-1635.165000	3892.860000	0.528784	0.431693	0.307442	0.581046	1.214894	2.232000	1.228010	0.747615	-1.464960	3.448760	-0.061040	-0.943784	-0.243713	0.219238	-1.000000	-1.000000	-1.000000	-1.000000	-1.000000	-1.000000	-1.000000	61.000000	0.000000	-1.000000	-1.000000	99912.000000	1775716820.370882
-26695.215000	-1907.910000	-9857.610000	-4495.590000	-2879.010000	-22746.015000	-1628.595000	3895.920000	-2.066780	-1.697357	-1.697725	-1.103714	-0.994553	1.032388	0.198433	-0.754828	-1.464960	3.448760	-0.061040	-0.943784	-0.243713	0.219238	-1.000000	-1.000000	-1.000000	-1.000000	-1.000000	-1.000000	-1.000000	61.000000	0.000000	-1.000000	-1.000000	99913.000000	1775716820.375068
-26703.405000	-1917.405000	-9866.115000	-4504.590000	-2886.705000	-22756.275000	-1638.000000	3889.485000	-3.916487	-3.430643	-3.471339	-2.857994	-3.340750	-1.204286	-0.707519	-1.966480	-1.464960	3.448760	-0.061040	-0.943784	-0.243713	0.219238	-1.000000	-1.000000	-1.000000	-1.000000	-1.000000	-1.000000	-1.000000	61.000000	0.000000	-1.000000	-1.000000	99914.000000	1775716820.375096
-26709.795000	-1924.470000	-9873.180000	-4512.150000	-2894.220000	-22765.455000	-1657.980000	3883.770000	-4.181239	-3.729223	-3.788131	-3.347520	-3.930091	-2.876915	-1.439816	-2.440587	-1.464960	3.448760	-0.061040	-0.943784	-0.243713	0.219238	-1.000000	-1.000000	-1.000000	-1.000000	-1.000000	-1.000000	-1.000000	61.000000	0.000000	-1.000000	-1.000000	99915.000000	1775716820.378386
-26711.775000	-1925.820000	-9874.665000	-4513.725000	-2896.785000	-22760.145000	-1653.525000	3881.205000	-3.121683	-2.755629	-2.686471	-2.537477	-2.740068	-3.238328	-2.715682	-2.310502	-1.464960	3.448760	-0.061040	-0.943784	-0.243713	0.219238	-1.000000	-1.000000	-1.000000	-1.000000	-1.000000	-1.000000	-1.000000	61.000000	0.000000	-1.000000	-1.000000	99916.000000	1775716820.378409
-26704.215000	-1918.125000	-9866.745000	-4505.940000	-2888.910000	-22747.185000	-1636.380000	3888.180000	-1.033873	-0.730986	-0.482880	-0.632840	-0.397581	-1.524569	-3.245676	-1.450489	-1.464960	3.448760	-0.061040	-0.943784	-0.243713	0.219238	-1.000000	-1.000000	-1.000000	-1.000000	-1.000000	-1.000000	-1.000000	61.000000	0.000000	-1.000000	-1.000000	99917.000000	1775716820.381530
-26705.970000	-1917.315000	-9865.530000	-4504.275000	-2887.470000	-22748.895000	-1637.010000	3885.795000	1.960727	2.315151	2.659180	2.346025	2.753635	2.393334	-0.753647	0.468957	-1.464960	3.448760	-0.061040	-0.943784	-0.243713	0.219238	-1.000000	-1.000000	-1.000000	-1.000000	-1.000000	-1.000000	-1.000000	61.000000	0.000000	-1.000000	-1.000000	99918.000000	1775716820.381555
-26697.825000	-1907.865000	-9855.540000	-4493.385000	-2876.490000	-22740.345000	-1633.005000	3892.500000	5.014918	5.560382	5.888663	5.635670	5.949901	6.562978	4.018383	2.958429	-1.464960	3.448760	-0.061040	-0.943784	-0.243713	0.219238	-1.000000	-1.000000	-1.000000	-1.000000	-1.000000	-1.000000	-1.000000	61.000000	0.000000	-1.000000	-1.000000	99919.000000	1775716820.386752
-26698.500000	-1908.090000	-9854.595000	-4491.585000	-2873.790000	-22737.690000	-1637.235000	3890.430000	6.770987	7.505423	7.761255	7.770894	7.909023	8.373237	7.510915	4.780452	-1.464960	3.448760	-0.061040	-0.943784	-0.243713	0.219238	-1.000000	-1.000000	-1.000000	-1.000000	-1.000000	-1.000000	-1.000000	61.000000	0.000000	-1.000000	-1.000000	99920.000000	1775716820.386780
-26684.415000	-1899.675000	-9847.755000	-4484.520000	-2866.185000	-22728.915000	-1628.370000	3905.865000	6.497479	7.038195	7.190148	7.514463	7.574085	6.888106	7.230927	5.127439	-2.990960	2.578940	-1.175020	-0.944700	-0.243652	0.215942	-1.000000	-1.000000	-1.000000	-1.000000	-1.000000	-1.000000	-1.000000	61.000000	0.000000	-1.000000	-1.000000	99921.000000	1775716820.400965
-26680.050000	-1895.760000	-9844.605000	-4481.145000	-2862.405000	-22726.440000	-1624.995000	3910.950000	4.618309	4.276173	4.208362	4.685292	4.802091	3.070761	3.817734	4.293850	-2.990960	2.578940	-1.175020	-0.944700	-0.243652	0.215942	-1.000000	-1.000000	-1.000000	-1.000000	-1.000000	-1.000000	-1.000000	61.000000	0.000000	-1.000000	-1.000000	99922.000000	1775716820.400995
-26687.745000	-1900.755000	-9849.420000	-4487.895000	-2873.520000	-22740.120000	-1632.240000	3903.570000	1.753932	0.266597	-0.153163	0.158756	0.271835	-1.684027	-0.521716	2.632681	-2.990960	2.578940	-1.175020	-0.944700	-0.243652	0.215942	-1.000000	-1.000000	-1.000000	-1.000000	-1.000000	-1.000000	-1.000000	61.000000	0.000000	-1.000000	-1.000000	99923.000000	1775716820.401025
-26686.845000	-1899.180000	-9847.440000	-4487.175000	-2874.600000	-22742.415000	-1632.240000	3902.760000	-2.014522	-3.907302	-4.588658	-4.772611	-5.017333	-6.482808	-4.297216	-0.271749	-2.990960	2.578940	-1.175020	-0.944700	-0.243652	0.215942	-1.000000	-1.000000	-1.000000	-1.000000	-1.000000	-1.000000	-1.000000	61.000000	0.000000	-1.000000	-1.000000	99924.000000	1775716820.401038
-26686.800000	-1899.360000	-9847.530000	-4487.355000	-2874.105000	-22740.120000	-1631.745000	3901.545000	-5.926259	-7.064993	-7.675254	-8.464236	-9.325666	-9.927641	-6.642173	-4.119505	-2.990960	2.578940	-1.175020	-0.944700	-0.243652	0.215942	-1.000000	-1.000000	-1.000000	-1.000000	-1.000000	-1.000000	-1.000000	61.000000	0.000000	-1.000000	-1.000000	99925.000000	1775716820.416093
-26686.800000	-1899.810000	-9847.800000	-4488.435000	-2873.655000	-22739.355000	-1632.600000	3899.880000	-8.193499	-8.030233	-8.252626	-9.361585	-10.481887	-10.013560	-6.783437	-7.153278	-2.990960	2.578940	-1.175020	-0.944700	-0.243652	0.215942	-1.000000	-1.000000	-1.000000	-1.000000	-1.000000	-1.000000	-1.000000	61.000000	0.000000	-1.000000	-1.000000	99926.000000	1775716820.416121
-26689.995000	-1902.870000	-9850.050000	-4489.695000	-2875.365000	-22745.970000	-1638.765000	3896.820000	-7.698279	-6.573799	-6.314719	-7.200117	-7.779424	-6.350238	-4.845697	-7.774508	-2.990960	2.578940	-1.175020	-0.944700	-0.243652	0.215942	-1.000000	-1.000000	-1.000000	-1.000000	-1.000000	-1.000000	-1.000000	61.000000	0.000000	-1.000000	-1.000000	99927.000000	1775716820.416151
-26689.635000	-1902.330000	-9849.015000	-4487.400000	-2872.755000	-22741.290000	-1630.980000	3901.095000	-4.903312	-3.569818	-2.952725	-3.115365	-2.649987	-0.893388	-1.867512	-5.707452	-2.990960	2.578940	-1.175020	-0.944700	-0.243652	0.215942	-1.000000	-1.000000	-1.000000	-1.000000	-1.000000	-1.000000	-1.000000	61.000000	0.000000	-1.000000	-1.000000	99928.000000	1775716820.416164
-26698.095000	-1913.310000	-9861.255000	-4499.820000	-2884.230000	-22745.250000	-1630.890000	3895.920000	-1.277942	-0.386908	0.317986	1.064488	2.399903	3.930136	1.276154	-1.864133	-2.990960	2.578940	-1.175020	-0.944700	-0.243652	0.215942	-1.000000	-1.000000	-1.000000	-1.000000	-1.000000	-1.000000	-1.000000	61.000000	0.000000	-1.000000	-1.000000	99929.000000	1775716820.416179
-26706.555000	-1922.310000	-9870.660000	-4509.630000	-2891.295000	-22750.425000	-1637.955000	3886.965000	1.499801	1.592950	2.033340	3.392817	5.036981	6.503744	3.757597	1.904040	-2.990960	2.578940	-1.175020	-0.944700	-0.243652	0.215942	-1.000000	-1.000000	-1.000000	-1.000000	-1.000000	-1.000000	-1.000000	61.000000	0.000000	-1.000000	-1.000000	99930.000000	1775716820.416191
-26698.275000	-1912.230000	-9861.165000	-4500.630000	-2883.015000	-22745.790000	-1634.355000	3892.275000	2.717958	2.087339	2.007491	3.324851	4.741561	6.357267	4.536684	3.910782	-1.480220	2.990960	-0.396760	-0.944944	-0.245422	0.213439	-1.000000	-1.000000	-1.000000	-1.000000	-1.000000	-1.000000	-1.000000	61.000000	0.000000	-1.000000	-1.000000	99931.000000	1775716820.416204
-26695.935000	-1912.905000	-9862.290000	-4501.440000	-2884.770000	-22748.400000	-1636.695000	3895.830000	3.332762	2.464260	1.892374	2.571911	3.318290	4.436556	3.504374	4.253586	-1.480220	2.990960	-0.396760	-0.944944	-0.245422	0.213439	-1.000000	-1.000000	-1.000000	-1.000000	-1.000000	-1.000000	-1.000000	61.000000	0.000000	-1.000000	-1.000000	99932.000000	1775716820.416216
-26682.615000	-1901.295000	-9851.130000	-4489.470000	-2872.665000	-22737.960000	-1630.305000	3907.260000	4.557736	3.892833	3.116206	2.992653	2.739889	2.330057	1.756560	4.304428	-1.480220	2.990960	-0.396760	-0.944944	-0.245422	0.213439	-1.000000	-1.000000	-1.000000	-1.000000	-1.000000	-1.000000	-1.000000	61.000000	0.000000	-1.000000	-1.000000	99933.000000	1775716820.417454
-26681.670000	-1897.965000	-9847.980000	-4485.780000	-2869.515000	-22736.115000	-1629.180000	3907.260000	6.197318	5.873461	5.251788	4.619168	3.385058	1.142796	0.490816	4.711794	-1.480220	2.990960	-0.396760	-0.944944	-0.245422	0.213439	-1.000000	-1.000000	-1.000000	-1.000000	-1.000000	-1.000000	-1.000000	61.000000	0.000000	-1.000000	-1.000000	99934.000000	1775716820.417472
-26686.170000	-1901.250000	-9849.330000	-4486.950000	-2869.695000	-22735.665000	-1627.785000	3904.785000	6.583054	6.720619	6.543986	5.859193	4.113189	0.823554	0.083180	4.549904	-1.480220	2.990960	-0.396760	-0.944944	-0.245422	0.213439	-1.000000	-1.000000	-1.000000	-1.000000	-1.000000	-1.000000	-1.000000	61.000000	0.000000	-1.000000	-1.000000	99935.000000	1775716820.417493
-26685.180000	-1899.360000	-9846.630000	-4485.150000	-2868.300000	-22735.530000	-1630.125000	3904.560000	4.138619	4.907816	5.343795	4.881554	3.317171	0.362377	-0.023446	2.543233	-1.480220	2.990960	-0.396760	-0.944944	-0.245422	0.213439	-1.000000	-1.000000	-1.000000	-1.000000	-1.000000	-1.000000	-1.000000	61.000000	0.000000	-1.000000	-1.000000	99936.000000	1775716820.417503
-26687.565000	-1901.295000	-9848.700000	-4488.255000	-2871.765000	-22741.740000	-1638.405000	3902.130000	-0.633126	0.662157	1.639819	1.361820	0.505422	-1.020043	-0.669405	-1.109623	-1.480220	2.990960	-0.396760	-0.944944	-0.245422	0.213439	-1.000000	-1.000000	-1.000000	-1.000000	-1.000000	-1.000000	-1.000000	61.000000	0.000000	-1.000000	-1.000000	99937.000000	1775716820.423677
-26676.945000	-1891.215000	-9838.215000	-4478.130000	-2860.515000	-22731.570000	-1629.090000	3911.130000	-5.185969	-3.863443	-2.736362	-3.026457	-3.044540	-2.932127	-1.937089	-4.565107	-1.480220	2.990960	-0.396760	-0.944944	-0.245422	0.213439	-1.000000	-1.000000	-1.000000	-1.000000	-1.000000	-1.000000	-1.000000	61.000000	0.000000	-1.000000	-1.000000	99938.000000	1775716820.423702
-26668.665000	-1883.520000	-9830.430000	-4469.805000	-2851.245000	-22719.150000	-1615.005000	3919.545000	-6.821257	-6.109889	-5.346880	-5.718657	-5.057237	-3.734587	-2.421626	-5.655315	-1.480220	2.990960	-0.396760	-0.944944	-0.245422	0.213439	-1.000000	-1.000000	-1.000000	-1.000000	-1.000000	-1.000000	-1.000000	61.000000	0.000000	-1.000000	-1.000000	99939.000000	1775716820.430631
-26675.415000	-1892.655000	-9840.105000	-4479.120000	-2860.470000	-22722.165000	-1613.295000	3916.620000	-4.976348	-5.304382	-5.231880	-5.509282	-4.449698	-2.267641	-0.743011	-3.792360	-1.480220	2.990960	-0.396760	-0.944944	-0.245422	0.213439	-1.000000	-1.000000	-1.000000	-1.000000	-1.000000	-1.000000	-1.000000	61.000000	0.000000	-1.000000	-1.000000	99940.000000	1775716820.430658
-26683.605000	-1899.270000	-9847.350000	-4486.320000	-2870.235000	-22736.700000	-1624.815000	3908.295000	-2.013227	-3.342611	-3.981265	-3.917028	-2.873831	-0.049812	1.848473	-0.936331	-1.495480	2.609460	-0.656180	-0.945981	-0.246276	0.212585	-1.000000	-1.000000	-1.000000	-1.000000	-1.000000	-1.000000	-1.000000	61.000000	0.000000	-1.000000	-1.000000	99941.000000	1775716820.434431
-26683.785000	-1899.045000	-9849.465000	-4489.425000	-2875.140000	-22741.515000	-1623.150000	3910.230000	-0.627433	-2.364843	-3.510513	-3.060267	-2.564127	0.157066	2.482317	0.400046	-1.495480	2.609460	-0.656180	-0.945981	-0.246276	0.212585	-1.000000	-1.000000	-1.000000	-1.000000	-1.000000	-1.000000	-1.000000	61.000000	0.000000	-1.000000	-1.000000	99942.000000	1775716820.434459
-26687.205000	-1902.780000	-9851.805000	-4491.360000	-2874.915000	-22740.660000	-1626.480000	3903.930000	-1.016926	-2.320812	-3.638927	-3.028561	-3.372943	-1.919596	0.356945	-0.209421	-1.495480	2.609460	-0.656180	-0.945981	-0.246276	0.212585	-1.000000	-1.000000	-1.000000	-1.000000	-1.000000	-1.000000	-1.000000	61.000000	0.000000	-1.000000	-1.000000	99943.000000	1775716820.434487
-26687.340000	-1903.680000	-9850.770000	-4490.145000	-2872.125000	-22739.220000	-1628.640000	3902.490000	-1.552946	-1.924469	-2.917943	-2.429394	-3.259458	-3.685334	-2.634346	-1.426611	-1.495480	2.609460	-0.656180	-0.945981	-0.246276	0.212585	-1.000000	-1.000000	-1.000000	-1.000000	-1.000000	-1.000000	-1.000000	61.000000	0.000000	-1.000000	-1.000000	99944.000000	1775716820.434500
-26683.830000	-1900.305000	-9847.440000	-4486.230000	-2868.930000	-22736.610000	-1630.080000	3905.595000	-0.880397	-0.421875	-0.561203	-0.309509	-0.867332	-2.844795	-4.316399	-1.807623	-1.495480	2.609460	-0.656180	-0.945981	-0.246276	0.212585	-1.000000	-1.000000	-1.000000	-1.000000	-1.000000	-1.000000	-1.000000	61.000000	0.000000	-1.000000	-1.000000	99945.000000	1775716820.438465
-26687.160000	-1904.355000	-9851.580000	-4490.235000	-2873.205000	-22748.715000	-1639.215000	3902.400000	1.092121	1.920541	2.761896	2.831394	2.965534	0.204669	-3.933726	-0.685614	-1.495480	2.609460	-0.656180	-0.945981	-0.246276	0.212585	-1.000000	-1.000000	-1.000000	-1.000000	-1.000000	-1.000000	-1.000000	61.000000	0.000000	-1.000000	-1.000000	99946.000000	1775716820.438491
-26695.305000	-1912.635000	-9859.410000	-4498.650000	-2882.790000	-22769.595000	-1652.940000	3894.705000	3.076365	3.821283	5.191050	5.157165	5.751461	2.668806	-2.392574	1.227572	-1.495480	2.609460	-0.656180	-0.945981	-0.246276	0.212585	-1.000000	-1.000000	-1.000000	-1.000000	-1.000000	-1.000000	-1.000000	61.000000	0.000000	-1.000000	-1.000000	99947.000000	1775716820.443272
-26696.880000	-1911.915000	-9857.520000	-4496.535000	-2880.540000	-22757.940000	-1644.705000	3895.335000	3.505461	3.979258	5.216976	5.084421	5.600051	2.495756	-0.838451	2.468431	-1.495480	2.609460	-0.656180	-0.945981	-0.246276	0.212585	-1.000000	-1.000000	-1.000000	-1.000000	-1.000000	-1.000000	-1.000000	61.000000	0.000000	-1.000000	-1.000000	99948.000000	1775716820.443332
-26705.610000	-1920.240000	-9865.530000	-4502.970000	-2885.805000	-22739.130000	-1630.710000	3889.080000	2.113872	2.452046	3.133751	2.916005	3.026408	1.479673	1.217319	2.421810	-1.495480	2.609460	-0.656180	-0.945981	-0.246276	0.212585	-1.000000	-1.000000	-1.000000	-1.000000	-1.000000	-1.000000	-1.000000	61.000000	0.000000	-1.000000	-1.000000	99949.000000	1775716820.446278
-26699.850000	-1914.390000	-9861.840000	-4499.235000	-2882.565000	-22740.300000	-1629.585000	3892.725000	0.085210	0.480990	0.481914	0.301877	0.097910	2.706876	4.645569	1.620254	-1.495480	2.609460	-0.656180	-0.945981	-0.246276	0.212585	-1.000000	-1.000000	-1.000000	-1.000000	-1.000000	-1.000000	-1.000000	61.000000	0.000000	-1.000000	-1.000000	99950.000000	1775716820.446300
-26692.335000	-1907.955000	-9855.900000	-4494.645000	-2878.425000	-22740.750000	-1629.855000	3897.720000	-0.809430	-0.427497	-1.099980	-1.153733	-1.411270	5.543000	7.996702	1.070557	0.198380	1.419180	0.808780	-0.947324	-0.248046	0.212036	-1.000000	-1.000000	-1.000000	-1.000000	-1.000000	-1.000000	-1.000000	61.000000	0.000000	-1.000000	-1.000000	99951.000000	1775716820.451106
-26693.190000	-1909.980000	-9857.520000	-4497.885000	-2881.035000	-22744.755000	-1634.040000	3896.505000	0.328712	0.377272	-0.798860	-0.868577	-1.034720	6.468756	8.406038	1.370937	0.198380	1.419180	0.808780	-0.947324	-0.248046	0.212036	-1.000000	-1.000000	-1.000000	-1.000000	-1.000000	-1.000000	-1.000000	61.000000	0.000000	-1.000000	-1.000000	99952.000000	1775716820.451134
-26689.995000	-1906.560000	-9852.615000	-4492.080000	-2874.240000	-22739.130000	-1627.695000	3902.940000	2.388518	1.859667	0.647759	0.337354	0.308114	3.728677	4.910341	2.064647	0.198380	1.419180	0.808780	-0.947324	-0.248046	0.212036	-1.000000	-1.000000	-1.000000	-1.000000	-1.000000	-1.000000	-1.000000	61.000000	0.000000	-1.000000	-1.000000	99953.000000	1775716820.453521
-26700.255000	-1916.370000	-9861.750000	-4499.415000	-2881.170000	-22746.105000	-1636.290000	3894.030000	3.231386	2.262425	1.619229	1.138741	1.283186	-1.178307	-0.632842	2.120260	0.198380	1.419180	0.808780	-0.947324	-0.248046	0.212036	-1.000000	-1.000000	-1.000000	-1.000000	-1.000000	-1.000000	-1.000000	61.000000	0.000000	-1.000000	-1.000000	99954.000000	1775716820.453540
-26695.800000	-1912.815000	-9858.960000	-4495.905000	-2878.380000	-22746.150000	-1637.685000	3895.830000	1.717507	0.768095	1.002511	0.766163	1.043168	-5.640696	-5.613803	0.813732	0.198380	1.419180	0.808780	-0.947324	-0.248046	0.212036	-1.000000	-1.000000	-1.000000	-1.000000	-1.000000	-1.000000	-1.000000	61.000000	0.000000	-1.000000	-1.000000	99955.000000	1775716820.457542
-26695.080000	-1912.995000	-9859.410000	-4496.220000	-2877.840000	-22749.030000	-1640.070000	3898.305000	-1.168461	-1.705088	-0.840845	-0.501707	-0.262830	-7.858863	-8.294768	-1.422812	0.198380	1.419180	0.808780	-0.947324	-0.248046	0.212036	-1.000000	-1.000000	-1.000000	-1.000000	-1.000000	-1.000000	-1.000000	61.000000	0.000000	-1.000000	-1.000000	99956.000000	1775716820.457566
-26696.610000	-1913.040000	-9859.995000	-4497.885000	-2879.865000	-22752.495000	-1641.735000	3897.495000	-3.360221	-3.376238	-2.475024	-1.695733	-1.661010	-7.300828	-7.972827	-3.133277	0.198380	1.419180	0.808780	-0.947324	-0.248046	0.212036	-1.000000	-1.000000	-1.000000	-1.000000	-1.000000	-1.000000	-1.000000	61.000000	0.000000	-1.000000	-1.000000	99957.000000	1775716820.461602
-26704.890000	-1921.140000	-9866.880000	-4504.680000	-2886.615000	-22753.215000	-1642.545000	3889.575000	-3.940977	-3.489227	-3.016059	-2.307603	-2.513241	-4.619020	-5.088432	-3.523147	0.198380	1.419180	0.808780	-0.947324	-0.248046	0.212036	-1.000000	-1.000000	-1.000000	-1.000000	-1.000000	-1.000000	-1.000000	61.000000	0.000000	-1.000000	-1.000000	99958.000000	1775716820.461624
-26711.415000	-1928.205000	-9873.810000	-4510.305000	-2889.630000	-22748.895000	-1636.830000	3885.480000	-3.553929	-2.774279	-2.778963	-2.564868	-2.886132	-0.949058	-0.894293	-3.125927	0.198380	1.419180	0.808780	-0.947324	-0.248046	0.212036	-1.000000	-1.000000	-1.000000	-1.000000	-1.000000	-1.000000	-1.000000	61.000000	0.000000	-1.000000	-1.000000	99959.000000	1775716820.472385
-26708.805000	-1926.000000	-9872.775000	-4510.800000	-2893.725000	-22758.390000	-1642.230000	3887.460000	-2.836457	-2.019372	-2.275840	-2.580752	-2.824336	2.521047	3.126534	-2.472496	0.198380	1.419180	0.808780	-0.947324	-0.248046	0.212036	-1.000000	-1.000000	-1.000000	-1.000000	-1.000000	-1.000000	-1.000000	61.000000	0.000000	-1.000000	-1.000000	99960.000000	1775716820.472415
-26698.680000	-1916.505000	-9863.370000	-4502.520000	-2886.570000	-22750.020000	-1637.730000	3895.740000	-1.306110	-0.802680	-1.131191	-1.750769	-1.940436	4.625636	5.547830	-1.132059	0.061040	2.319520	0.854560	-0.945432	-0.247619	0.212341	-1.000000	-1.000000	-1.000000	-1.000000	-1.000000	-1.000000	-1.000000	61.000000	0.000000	-1.000000	-1.000000	99961.000000	1775716820.472441
-26695.260000	-1912.095000	-9859.095000	-4497.480000	-2879.325000	-22742.640000	-1635.750000	3897.405000	1.637618	1.652943	1.313257	0.584331	0.261921	5.184618	5.762602	1.342173	0.061040	2.319520	0.854560	-0.945432	-0.247619	0.212341	-1.000000	-1.000000	-1.000000	-1.000000	-1.000000	-1.000000	-1.000000	61.000000	0.000000	-1.000000	-1.000000	99962.000000	1775716820.472453
-26696.520000	-1911.915000	-9858.330000	-4496.490000	-2879.820000	-22748.040000	-1639.530000	3895.020000	4.951874	4.636547	4.358927	3.769466	3.380307	4.822401	4.219706	4.000875	0.061040	2.319520	0.854560	-0.945432	-0.247619	0.212341	-1.000000	-1.000000	-1.000000	-1.000000	-1.000000	-1.000000	-1.000000	61.000000	0.000000	-1.000000	-1.000000	99963.000000	1775716820.474543
-26700.975000	-1916.370000	-9861.795000	-4500.855000	-2883.105000	-22749.300000	-1641.240000	3890.295000	6.306414	6.024167	5.947343	5.749207	5.585418	3.458078	1.614861	4.925222	0.061040	2.319520	0.854560	-0.945432	-0.247619	0.212341	-1.000000	-1.000000	-1.000000	-1.000000	-1.000000	-1.000000	-1.000000	61.000000	0.000000	-1.000000	-1.000000	99964.000000	1775716820.474561
-26699.850000	-1917.045000	-9861.480000	-4500.945000	-2881.395000	-22739.130000	-1627.515000	3893.670000	4.427976	4.369752	4.622570	4.855940	5.134400	1.034219	-0.999508	3.266015	0.061040	2.319520	0.854560	-0.945432	-0.247619	0.212341	-1.000000	-1.000000	-1.000000	-1.000000	-1.000000	-1.000000	-1.000000	61.000000	0.000000	-1.000000	-1.000000	99965.000000	1775716820.483399
-26706.420000	-1922.535000	-9868.005000	-4506.030000	-2885.850000	-22745.025000	-1623.600000	3891.465000	0.346550	0.357465	0.904429	1.402031	2.167396	-1.376793	-2.083989	0.208238	0.061040	2.319520	0.854560	-0.945432	-0.247619	0.212341	-1.000000	-1.000000	-1.000000	-1.000000	-1.000000	-1.000000	-1.000000	61.000000	0.000000	-1.000000	-1.000000	99966.000000	1775716820.483426
-26698.635000	-1912.545000	-9858.420000	-4497.795000	-2881.080000	-22751.055000	-1637.640000	3895.650000	-3.574342	-3.666853	-3.116877	-2.537820	-1.546420	-3.027502	-1.523589	-2.287374	0.061040	2.319520	0.854560	-0.945432	-0.247619	0.212341	-1.000000	-1.000000	-1.000000	-1.000000	-1.000000	-1.000000	-1.000000	61.000000	0.000000	-1.000000	-1.000000	99967.000000	1775716820.483454
-26699.895000	-1912.275000	-9857.655000	-4497.930000	-2882.205000	-22752.990000	-1645.020000	3892.950000	-5.217076	-5.282471	-5.089235	-4.610731	-4.010252	-4.145943	-1.359467	-3.096917	0.061040	2.319520	0.854560	-0.945432	-0.247619	0.212341	-1.000000	-1.000000	-1.000000	-1.000000	-1.000000	-1.000000	-1.000000	61.000000	0.000000	-1.000000	-1.000000	99968.000000	1775716820.483465
-26693.415000	-1910.070000	-9855.855000	-4496.040000	-2878.110000	-22744.215000	-1635.075000	3900.510000	-3.975052	-3.859287	-4.139296	-3.956339	-4.222249	-4.437835	-2.644045	-2.291748	0.061040	2.319520	0.854560	-0.945432	-0.247619	0.212341	-1.000000	-1.000000	-1.000000	-1.000000	-1.000000	-1.000000	-1.000000	61.000000	0.000000	-1.000000	-1.000000	99969.000000	1775716820.485527
-26698.590000	-1916.685000	-9862.290000	-4501.980000	-2884.230000	-22746.870000	-1634.040000	3898.395000	-1.082730	-1.060150	-1.633074	-1.779405	-2.686650	-3.049357	-3.562935	-0.618503	0.061040	2.319520	0.854560	-0.945432	-0.247619	0.212341	-1.000000	-1.000000	-1.000000	-1.000000	-1.000000	-1.000000	-1.000000	61.000000	0.000000	-1.000000	-1.000000	99970.000000	1775716820.485550
-26705.205000	-1919.025000	-9862.470000	-4500.900000	-2882.070000	-22745.565000	-1635.210000	3890.115000	1.264402	0.822630	0.291630	0.037575	-0.803180	-0.285360	-2.343853	0.733393	-1.068200	1.892240	1.022420	-0.945737	-0.246703	0.212402	-1.000000	-1.000000	-1.000000	-1.000000	-1.000000	-1.000000	-1.000000	61.000000	0.000000	-1.000000	-1.000000	99971.000000	1775716820.490486
-26705.250000	-1917.810000	-9859.635000	-4497.435000	-2879.640000	-22746.915000	-1639.710000	3887.460000	1.565622	0.914160	0.787483	0.737039	0.482869	2.275416	0.223961	0.612083	-1.068200	1.892240	1.022420	-0.945737	-0.246703	0.212402	-1.000000	-1.000000	-1.000000	-1.000000	-1.000000	-1.000000	-1.000000	61.000000	0.000000	-1.000000	-1.000000	99972.000000	1775716820.490512
-26691.570000	-1911.420000	-9854.595000	-4492.530000	-2874.150000	-22741.920000	-1634.265000	3901.725000	0.557343	0.247215	0.674582	0.955834	1.286969	3.432716	2.262906	-0.536416	-1.068200	1.892240	1.022420	-0.945737	-0.246703	0.212402	-1.000000	-1.000000	-1.000000	-1.000000	-1.000000	-1.000000	-1.000000	61.000000	0.000000	-1.000000	-1.000000	99973.000000	1775716820.500278
-26698.230000	-1922.670000	-9868.050000	-4507.155000	-2885.805000	-22748.490000	-1636.020000	3898.530000	0.188984	0.069393	0.715137	1.125759	1.743393	3.064100	2.980258	-0.830712	-1.068200	1.892240	1.022420	-0.945737	-0.246703	0.212402	-1.000000	-1.000000	-1.000000	-1.000000	-1.000000	-1.000000	-1.000000	61.000000	0.000000	-1.000000	-1.000000	99974.000000	1775716820.500306
-26709.615000	-1932.705000	-9878.715000	-4519.665000	-2900.880000	-22761.720000	-1640.160000	3888.585000	0.607953	0.030702	0.247350	0.367709	1.005936	1.302958	2.529889	0.140776	-1.068200	1.892240	1.022420	-0.945737	-0.246703	0.212402	-1.000000	-1.000000	-1.000000	-1.000000	-1.000000	-1.000000	-1.000000	61.000000	0.000000	-1.000000	-1.000000	99975.000000	1775716820.500336
-26702.865000	-1925.055000	-9871.290000	-4511.565000	-2893.545000	-22757.040000	-1637.280000	3893.310000	0.391146	-0.612221	-1.181719	-1.648897	-1.271265	-1.438906	1.250108	0.822003	-1.068200	1.892240	1.022420	-0.945737	-0.246703	0.212402	-1.000000	-1.000000	-1.000000	-1.000000	-1.000000	-1.000000	-1.000000	61.000000	0.000000	-1.000000	-1.000000	99976.000000	1775716820.500348
-26703.225000	-1925.955000	-9872.190000	-4512.735000	-2896.470000	-22764.105000	-1646.145000	3890.745000	-0.488130	-1.023943	-2.102215	-3.016822	-3.228811	-3.641169	-0.309509	0.475975	-1.068200	1.892240	1.022420	-0.945737	-0.246703	0.212402	-1.000000	-1.000000	-1.000000	-1.000000	-1.000000	-1.000000	-1.000000	61.000000	0.000000	-1.000000	-1.000000	99977.000000	1775716820.504160
-26695.845000	-1920.510000	-9866.925000	-4506.345000	-2888.055000	-22752.270000	-1642.950000	3895.335000	-0.687553	-0.025153	-0.959371	-1.802463	-2.648190	-3.591620	-1.576191	-0.092136	-1.068200	1.892240	1.022420	-0.945737	-0.246703	0.212402	-1.000000	-1.000000	-1.000000	-1.000000	-1.000000	-1.000000	-1.000000	61.000000	0.000000	-1.000000	-1.000000	99978.000000	1775716820.504186
-26705.970000	-1928.430000	-9873.315000	-4511.295000	-2890.665000	-22751.820000	-1646.595000	3888.270000	0.170127	1.906280	1.670628	1.433331	0.450441	-0.921184	-2.083810	-0.192877	-1.068200	1.892240	1.022420	-0.945737	-0.246703	0.212402	-1.000000	-1.000000	-1.000000	-1.000000	-1.000000	-1.000000	-1.000000	61.000000	0.000000	-1.000000	-1.000000	99979.000000	1775716820.506448
-26710.470000	-1929.060000	-9873.720000	-4511.880000	-2892.645000	-22753.980000	-1646.460000	3885.795000	0.856628	3.059192	3.706064	4.282301	3.876515	2.854215	-1.600820	-0.093370	-1.068200	1.892240	1.022420	-0.945737	-0.246703	0.212402	-1.000000	-1.000000	-1.000000	-1.000000	-1.000000	-1.000000	-1.000000	61.000000	0.000000	-1.000000	-1.000000	99980.000000	1775716820.506476
-26705.655000	-1924.740000	-9870.210000	-4508.865000	-2891.700000	-22753.440000	-1642.455000	3891.195000	0.375781	2.505427	3.770423	4.873241	5.255686	5.187110	-0.339300	-0.168705	-2.945180	1.541260	-0.595140	-0.945737	-0.245788	0.212707	-1.000000	-1.000000	-1.000000	-1.000000	-1.000000	-1.000000	-1.000000	61.000000	0.000000	-1.000000	-1.000000	99981.000000	1775716820.510925
-26702.505000	-1921.230000	-9867.105000	-4506.840000	-2889.540000	-22753.755000	-1642.095000	3892.320000	-0.459052	1.092372	2.364557	3.354351	4.034812	4.687661	1.257096	-0.021537	-2.945180	1.541260	-0.595140	-0.945737	-0.245788	0.212707	-1.000000	-1.000000	-1.000000	-1.000000	-1.000000	-1.000000	-1.000000	61.000000	0.000000	-1.000000	-1.000000	99982.000000	1775716820.510959
-26690.940000	-1909.440000	-9856.710000	-4496.490000	-2879.415000	-22746.105000	-1633.320000	3901.680000	-0.175438	0.268400	0.926610	1.235118	1.620269	2.175165	2.671818	0.842698	-2.945180	1.541260	-0.595140	-0.945737	-0.245788	0.212707	-1.000000	-1.000000	-1.000000	-1.000000	-1.000000	-1.000000	-1.000000	61.000000	0.000000	-1.000000	-1.000000	99983.000000	1775716820.513572
-26695.845000	-1914.795000	-9861.345000	-4500.900000	-2884.545000	-22752.900000	-1638.495000	3898.305000	1.371720	0.463334	0.246123	-0.241901	-0.324137	-0.565390	3.334408	2.089115	-2.945180	1.541260	-0.595140	-0.945737	-0.245788	0.212707	-1.000000	-1.000000	-1.000000	-1.000000	-1.000000	-1.000000	-1.000000	61.000000	0.000000	-1.000000	-1.000000	99984.000000	1775716820.513591
-26697.735000	-1917.180000	-9862.290000	-4501.980000	-2886.750000	-22757.940000	-1643.445000	3896.595000	2.585019	0.571527	-0.250372	-1.169717	-1.534756	-2.635211	2.544996	2.556897	-2.945180	1.541260	-0.595140	-0.945737	-0.245788	0.212707	-1.000000	-1.000000	-1.000000	-1.000000	-1.000000	-1.000000	-1.000000	61.000000	0.000000	-1.000000	-1.000000	99985.000000	1775716820.519043
-26701.875000	-1920.465000	-9864.990000	-4504.905000	-2888.865000	-22757.985000	-1644.795000	3890.745000	1.794057	-0.675746	-1.475310	-2.302471	-2.672025	-4.035682	0.076460	1.250533	-2.945180	1.541260	-0.595140	-0.945737	-0.245788	0.212707	-1.000000	-1.000000	-1.000000	-1.000000	-1.000000	-1.000000	-1.000000	61.000000	0.000000	-1.000000	-1.000000	99986.000000	1775716820.519064
-26703.090000	-1921.410000	-9865.170000	-4504.770000	-2886.435000	-22748.715000	-1632.960000	3889.800000	-0.836086	-2.951555	-3.213550	-3.601786	-3.680296	-4.261436	-2.689625	-1.466585	-2.945180	1.541260	-0.595140	-0.945737	-0.245788	0.212707	-1.000000	-1.000000	-1.000000	-1.000000	-1.000000	-1.000000	-1.000000	61.000000	0.000000	-1.000000	-1.000000	99987.000000	1775716820.524114
-26703.000000	-1924.290000	-9866.565000	-4506.210000	-2888.010000	-22746.780000	-1633.815000	3888.630000	-3.515856	-4.701485	-4.338291	-4.220867	-3.765640	-2.524514	-3.598994	-3.962056	-2.945180	1.541260	-0.595140	-0.945737	-0.245788	0.212707	-1.000000	-1.000000	-1.000000	-1.000000	-1.000000	-1.000000	-1.000000	61.000000	0.000000	-1.000000	-1.000000	99988.000000	1775716820.524143
-26689.455000	-1911.510000	-9856.215000	-4497.075000	-2879.820000	-22746.060000	-1634.985000	3899.745000	-4.227005	-4.471390	-3.805611	-3.355688	-2.445810	0.608580	-2.235645	-4.442154	-2.945180	1.541260	-0.595140	-0.945737	-0.245788	0.212707	-1.000000	-1.000000	-1.000000	-1.000000	-1.000000	-1.000000	-1.000000	61.000000	0.000000	-1.000000	-1.000000	99989.000000	1775716820.528952
-26688.240000	-1910.385000	-9857.115000	-4496.940000	-2879.640000	-22747.590000	-1635.930000	3903.795000	-2.087687	-1.756410	-1.377377	-0.886825	-0.008383	3.173265	-0.267668	-2.144866	-2.945180	1.541260	-0.595140	-0.945737	-0.245788	0.212707	-1.000000	-1.000000	-1.000000	-1.000000	-1.000000	-1.000000	-1.000000	61.000000	0.000000	-1.000000	-1.000000	99990.000000	1775716820.528980
-26696.115000	-1917.945000	-9863.415000	-4503.915000	-2887.155000	-22762.665000	-1644.795000	3898.395000	1.411631	2.044822	1.657096	1.982423	2.302596	3.344274	0.570445	1.625709	-1.007160	1.037680	0.366240	-0.945127	-0.247009	0.214172	-1.000000	-1.000000	-1.000000	-1.000000	-1.000000	-1.000000	-1.000000	61.000000	0.000000	-1.000000	-1.000000	99991.000000	1775716820.537313
-26697.285000	-1918.980000	-9864.495000	-4505.895000	-2891.070000	-22783.140000	-1654.110000	3897.990000	3.327646	4.216036	3.175788	3.281438	2.835672	0.422993	-0.325400	4.103813	-1.007160	1.037680	0.366240	-0.945127	-0.247009	0.214172	-1.000000	-1.000000	-1.000000	-1.000000	-1.000000	-1.000000	-1.000000	61.000000	0.000000	-1.000000	-1.000000	99992.000000	1775716820.537340
-26700.435000	-1920.375000	-9866.385000	-4507.560000	-2893.140000	-22778.145000	-1651.680000	3895.470000	2.309656	3.461234	2.401410	2.300346	1.233226	-4.213615	-2.153445	3.636540	-1.007160	1.037680	0.366240	-0.945127	-0.247009	0.214172	-1.000000	-1.000000	-1.000000	-1.000000	-1.000000	-1.000000	-1.000000	61.000000	0.000000	-1.000000	-1.000000	99993.000000	1775716820.537372
-26713.620000	-1932.030000	-9875.430000	-4513.590000	-2895.480000	-22748.445000	-1636.695000	3882.600000	-0.578706	0.770686	0.313913	0.142313	-1.066220	-6.399132	-2.724628	0.777253	-1.007160	1.037680	0.366240	-0.945127	-0.247009	0.214172	-1.000000	-1.000000	-1.000000	-1.000000	-1.000000	-1.000000	-1.000000	61.000000	0.000000	-1.000000	-1.000000	99994.000000	1775716820.537384
-26716.545000	-1935.630000	-9878.760000	-4517.370000	-2897.190000	-22737.375000	-1627.695000	3882.285000	-3.552163	-2.219725	-1.783871	-1.740571	-2.339949	-2.321752	-0.171780	-2.805576	-1.007160	1.037680	0.366240	-0.945127	-0.247009	0.214172	-1.000000	-1.000000	-1.000000	-1.000000	-1.000000	-1.000000	-1.000000	61.000000	0.000000	-1.000000	-1.000000	99995.000000	1775716820.538514
-26717.265000	-1935.405000	-9878.940000	-4518.000000	-2899.080000	-22748.490000	-1637.505000	3881.160000	-4.923230	-3.999738	-2.838237	-2.455496	-1.934536	6.003940	4.336339	-5.065584	-1.007160	1.037680	0.366240	-0.945127	-0.247009	0.214172	-1.000000	-1.000000	-1.000000	-1.000000	-1.000000	-1.000000	-1.000000	61.000000	0.000000	-1.000000	-1.000000	99996.000000	1775716820.538532
-26720.190000	-1938.510000	-9881.820000	-4520.610000	-2901.690000	-22756.545000	-1645.200000	3877.020000	-3.622269	-3.475061	-2.175786	-1.710396	-0.370577	11.394598	6.819817	-4.562226	-1.007160	1.037680	0.366240	-0.945127	-0.247009	0.214172	-1.000000	-1.000000	-1.000000	-1.000000	-1.000000	-1.000000	-1.000000	61.000000	0.000000	-1.000000	-1.000000	99997.000000	1775716820.557203
-26711.190000	-1930.230000	-9874.755000	-4512.600000	-2892.465000	-22751.505000	-1637.955000	3885.930000	-0.015593	-0.737122	0.035939	0.223884	1.500832	9.163170	4.825188	-1.526061	-1.007160	1.037680	0.366240	-0.945127	-0.247009	0.214172	-1.000000	-1.000000	-1.000000	-1.000000	-1.000000	-1.000000	-1.000000	61.000000	0.000000	-1.000000	-1.000000	99998.000000	1775716820.557232
-26713.305000	-1932.165000	-9877.545000	-4517.010000	-2900.790000	-22760.370000	-1640.520000	3884.850000	4.326965	2.956030	2.832426	2.601800	3.056917	1.416356	0.163917	2.607645	-1.007160	1.037680	0.366240	-0.945127	-0.247009	0.214172	-1.000000	-1.000000	-1.000000	-1.000000	-1.000000	-1.000000	-1.000000	61.000000	0.000000	-1.000000	-1.000000	99999.000000	1775716820.557262
-26715.870000	-1934.865000	-9880.065000	-4519.890000	-2904.975000	-22767.930000	-1644.750000	3882.375000	7.250894	5.675277	4.735253	4.137355	3.442429	-6.619040	-3.808190	5.856132	-1.007160	1.037680	0.366240	-0.945127	-0.247009	0.214172	-1.000000	-1.000000	-1.000000	-1.000000	-1.000000	-1.000000	-1.000000	61.000000	0.000000	-1.000000	-1.000000	100000.000000	1775716820.557275
-26717.805000	-1936.845000	-9882.180000	-4521.420000	-2905.335000	-22768.020000	-1646.955000	3880.890000	7.041085	5.765591	4.494625	3.696752	2.060688	-11.095574	-5.475867	6.435845	0.167860	1.312360	0.198380	-0.943784	-0.248229	0.216064	-1.000000	-1.000000	-1.000000	-1.000000	-1.000000	-1.000000	-1.000000	61.000000	0.000000	-1.000000	-1.000000	100001.000000	1775716820.557291
-26721.090000	-1941.120000	-9886.770000	-4526.145000	-2909.790000	-22770.090000	-1652.310000	3877.515000	3.790201	3.145129	2.151971	1.451696	-0.321571	-10.533961	-4.988222	4.086815	0.167860	1.312360	0.198380	-0.943784	-0.248229	0.216064	-1.000000	-1.000000	-1.000000	-1.000000	-1.000000	-1.000000	-1.000000	61.000000	0.000000	-1.000000	-1.000000	100002.000000	1775716820.557302
-26717.805000	-1938.015000	-9883.530000	-4523.085000	-2904.930000	-22763.880000	-1647.090000	3880.980000	-0.611878	-0.603488	-0.934635	-1.244553	-2.165901	-5.634808	-3.053153	0.316026	0.167860	1.312360	0.198380	-0.943784	-0.248229	0.216064	-1.000000	-1.000000	-1.000000	-1.000000	-1.000000	-1.000000	-1.000000	61.000000	0.000000	-1.000000	-1.000000	100003.000000	1775716820.557316
-26720.820000	-1941.030000	-9886.905000	-4526.370000	-2909.205000	-22768.470000	-1652.895000	3876.480000	-3.885684	-3.418283	-3.067675	-2.898374	-2.457814	1.133934	-0.382417	-2.809223	0.167860	1.312360	0.198380	-0.943784	-0.248229	0.216064	-1.000000	-1.000000	-1.000000	-1.000000	-1.000000	-1.000000	-1.000000	61.000000	0.000000	-1.000000	-1.000000	100004.000000	1775716820.557326
-26713.665000	-1935.000000	-9881.145000	-4520.115000	-2902.680000	-22761.945000	-1650.420000	3882.645000	-4.759178	-4.079522	-3.314353	-2.788590	-1.279920	6.707851	2.139422	-4.020529	0.167860	1.312360	0.198380	-0.943784	-0.248229	0.216064	-1.000000	-1.000000	-1.000000	-1.000000	-1.000000	-1.000000	-1.000000	61.000000	0.000000	-1.000000	-1.000000	100005.000000	1775716820.563631
-26710.740000	-1932.525000	-9877.455000	-4516.695000	-2899.215000	-22757.670000	-1648.215000	3886.155000	-3.293419	-2.635725	-1.804677	-1.138211	0.606400	9.156126	3.716081	-3.145318	0.167860	1.312360	0.198380	-0.943784	-0.248229	0.216064	-1.000000	-1.000000	-1.000000	-1.000000	-1.000000	-1.000000	-1.000000	61.000000	0.000000	-1.000000	-1.000000	100006.000000	1775716820.563657
-26712.765000	-1932.930000	-9877.905000	-4517.415000	-2902.275000	-22765.680000	-1648.305000	3884.445000	-0.665952	-0.167093	0.506714	1.083499	2.239108	8.211463	4.134132	-0.954512	0.167860	1.312360	0.198380	-0.943784	-0.248229	0.216064	-1.000000	-1.000000	-1.000000	-1.000000	-1.000000	-1.000000	-1.000000	61.000000	0.000000	-1.000000	-1.000000	100007.000000	1775716820.563685
-26712.675000	-1932.750000	-9877.635000	-4517.865000	-2904.030000	-22769.055000	-1641.960000	3883.455000	1.331640	1.730580	2.164324	2.453341	2.539581	4.400880	3.577340	1.005056	0.167860	1.312360	0.198380	-0.943784	-0.248229	0.216064	-1.000000	-1.000000	-1.000000	-1.000000	-1.000000	-1.000000	-1.000000	61.000000	0.000000	-1.000000	-1.000000	100008.000000	1775716820.563698
-26706.240000	-1931.355000	-9875.430000	-4515.795000	-2901.330000	-22755.510000	-1638.630000	3882.375000	1.724227	2.053531	2.217309	2.126901	1.179757	-0.612726	2.471223	1.498155	0.167860	1.312360	0.198380	-0.943784	-0.248229	0.216064	-1.000000	-1.000000	-1.000000	-1.000000	-1.000000	-1.000000	-1.000000	61.000000	0.000000	-1.000000	-1.000000	100009.000000	1775716820.566204
-26709.930000	-1934.415000	-9877.365000	-4516.740000	-2900.070000	-22757.040000	-1644.480000	3883.905000	0.970661	0.973802	0.906177	0.535236	-0.817135	-4.056520	1.080459	0.609804	0.167860	1.312360	0.198380	-0.943784	-0.248229	0.216064	-1.000000	-1.000000	-1.000000	-1.000000	-1.000000	-1.000000	-1.000000	61.000000	0.000000	-1.000000	-1.000000	100010.000000	1775716820.566222
-26714.160000	-1933.830000	-9878.265000	-4516.290000	-2898.090000	-22759.560000	-1649.745000	3885.030000	-0.255844	-0.685786	-0.900242	-1.255716	-2.091584	-4.623211	-0.880978	-0.597424	0.534100	2.273740	0.442540	-0.942991	-0.247436	0.215820	-1.000000	-1.000000	-1.000000	-1.000000	-1.000000	-1.000000	-1.000000	61.000000	0.000000	-1.000000	-1.000000	100011.000000	1775716820.574782
-26712.360000	-1932.075000	-9877.140000	-4514.580000	-2895.120000	-22751.955000	-1644.570000	3885.390000	-1.613178	-1.966588	-2.337048	-2.358993	-2.081277	-3.362373	-3.245382	-1.161041	0.534100	2.273740	0.442540	-0.942991	-0.247436	0.215820	-1.000000	-1.000000	-1.000000	-1.000000	-1.000000	-1.000000	-1.000000	61.000000	0.000000	-1.000000	-1.000000	100012.000000	1775716820.574811
-26705.250000	-1921.545000	-9867.195000	-4505.310000	-2888.100000	-22746.645000	-1636.695000	3891.780000	-2.332266	-1.974922	-2.581923	-2.211242	-1.007402	-1.508451	-4.531126	-0.794720	0.534100	2.273740	0.442540	-0.942991	-0.247436	0.215820	-1.000000	-1.000000	-1.000000	-1.000000	-1.000000	-1.000000	-1.000000	61.000000	0.000000	-1.000000	-1.000000	100013.000000	1775716820.589613
-26708.085000	-1921.095000	-9864.585000	-4504.725000	-2891.430000	-22753.845000	-1637.775000	3889.935000	-1.628564	-0.445224	-1.195194	-0.758079	0.433123	0.186474	-3.454003	0.208336	0.534100	2.273740	0.442540	-0.942991	-0.247436	0.215820	-1.000000	-1.000000	-1.000000	-1.000000	-1.000000	-1.000000	-1.000000	61.000000	0.000000	-1.000000	-1.000000	100014.000000	1775716820.589639
-26706.285000	-1923.390000	-9866.295000	-4506.570000	-2891.430000	-22755.285000	-1638.315000	3893.130000	0.047145	1.535855	1.013651	1.033397	1.192363	0.732755	-0.799634	1.130895	0.534100	2.273740	0.442540	-0.942991	-0.247436	0.215820	-1.000000	-1.000000	-1.000000	-1.000000	-1.000000	-1.000000	-1.000000	61.000000	0.000000	-1.000000	-1.000000	100015.000000	1775716820.589678
-26711.055000	-1931.895000	-9875.070000	-4515.525000	-2898.090000	-22760.100000	-1640.520000	3890.835000	1.356242	2.084649	2.140760	1.549120	0.532697	-0.286841	1.364256	1.282474	0.534100	2.273740	0.442540	-0.942991	-0.247436	0.215820	-1.000000	-1.000000	-1.000000	-1.000000	-1.000000	-1.000000	-1.000000	61.000000	0.000000	-1.000000	-1.000000	100016.000000	1775716820.589688
-26707.545000	-1927.395000	-9871.200000	-4510.980000	-2892.780000	-22754.430000	-1635.525000	3892.860000	1.486647	0.483508	1.065150	0.166306	-1.134515	-1.836052	1.893077	0.554785	0.534100	2.273740	0.442540	-0.942991	-0.247436	0.215820	-1.000000	-1.000000	-1.000000	-1.000000	-1.000000	-1.000000	-1.000000	61.000000	0.000000	-1.000000	-1.000000	100017.000000	1775716820.589702
-26710.290000	-1929.915000	-9875.475000	-4515.255000	-2899.035000	-22761.135000	-1646.640000	3886.920000	0.728099	-1.875513	-1.223692	-1.875478	-2.488889	-2.389508	1.073499	-0.652028	0.534100	2.273740	0.442540	-0.942991	-0.247436	0.215820	-1.000000	-1.000000	-1.000000	-1.000000	-1.000000	-1.000000	-1.000000	61.000000	0.000000	-1.000000	-1.000000	100018.000000	1775716820.589711
-26706.555000	-1926.765000	-9871.740000	-4511.565000	-2895.840000	-22757.040000	-1642.140000	3891.150000	-0.092774	-3.014373	-2.775767	-2.803250	-2.560327	-1.455346	-0.364484	-1.755073	0.534100	2.273740	0.442540	-0.942991	-0.247436	0.215820	-1.000000	-1.000000	-1.000000	-1.000000	-1.000000	-1.000000	-1.000000	61.000000	0.000000	-1.000000	-1.000000	100019.000000	1775716820.589720
-26709.840000	-1929.510000	-9873.180000	-4511.205000	-2892.150000	-22749.165000	-1636.470000	3890.205000	-0.426316	-2.245916	-2.507498	-1.906522	-1.260859	0.521151	-1.384320	-2.104228	0.534100	2.273740	0.442540	-0.942991	-0.247436	0.215820	-1.000000	-1.000000	-1.000000	-1.000000	-1.000000	-1.000000	-1.000000	61.000000	0.000000	-1.000000	-1.000000	100020.000000	1775716820.589729
-26711.145000	-1930.545000	-9874.170000	-4513.500000	-2896.245000	-22754.970000	-1645.470000	3886.920000	-0.355682	-0.384839	-0.778776	0.175554	0.825792	2.768248	-1.114085	-1.464228	-2.029580	2.731540	0.030520	-0.943845	-0.245483	0.215393	-1.000000	-1.000000	-1.000000	-1.000000	-1.000000	-1.000000	-1.000000	61.000000	0.000000	-1.000000	-1.000000	100021.000000	1775716820.591816
-26711.685000	-1931.670000	-9875.835000	-4515.975000	-2901.915000	-22764.555000	-1649.880000	3885.525000	-0.268123	1.265614	1.144500	2.010535	2.408424	3.817218	-0.186978	-0.398281	-2.029580	2.731540	0.030520	-0.943845	-0.245483	0.215393	-1.000000	-1.000000	-1.000000	-1.000000	-1.000000	-1.000000	-1.000000	61.000000	0.000000	-1.000000	-1.000000	100022.000000	1775716820.591843
-26704.755000	-1923.390000	-9867.735000	-4508.280000	-2893.140000	-22755.600000	-1639.665000	3893.085000	-0.135505	2.128894	2.341675	2.674915	2.539409	2.625104	0.368209	0.573653	-2.029580	2.731540	0.030520	-0.943845	-0.245483	0.215393	-1.000000	-1.000000	-1.000000	-1.000000	-1.000000	-1.000000	-1.000000	61.000000	0.000000	-1.000000	-1.000000	100023.000000	1775716820.595687
-26708.490000	-1926.810000	-9870.390000	-4510.935000	-2894.940000	-22758.345000	-1642.905000	3888.810000	0.359048	2.461315	2.795122	2.442217	1.782423	0.306533	0.814168	1.482159	-2.029580	2.731540	0.030520	-0.943845	-0.245483	0.215393	-1.000000	-1.000000	-1.000000	-1.000000	-1.000000	-1.000000	-1.000000	61.000000	0.000000	-1.000000	-1.000000	100024.000000	1775716820.595714
-26705.340000	-1923.840000	-9866.970000	-4507.155000	-2892.015000	-22755.825000	-1640.115000	3891.420000	0.999910	2.359918	2.625179	1.845360	1.123709	-1.243286	1.528934	2.134982	-2.029580	2.731540	0.030520	-0.943845	-0.245483	0.215393	-1.000000	-1.000000	-1.000000	-1.000000	-1.000000	-1.000000	-1.000000	61.000000	0.000000	-1.000000	-1.000000	100025.000000	1775716820.604281
-26695.125000	-1914.390000	-9858.780000	-4499.415000	-2884.500000	-22752.315000	-1634.895000	3899.610000	1.414396	1.795579	1.923046	1.180154	0.868314	-1.342761	2.122565	2.234602	-2.029580	2.731540	0.030520	-0.943845	-0.245483	0.215393	-1.000000	-1.000000	-1.000000	-1.000000	-1.000000	-1.000000	-1.000000	61.000000	0.000000	-1.000000	-1.000000	100026.000000	1775716820.604308
-26694.180000	-1913.355000	-9859.860000	-4501.620000	-2886.570000	-22757.130000	-1638.495000	3900.780000	1.714758	1.164794	1.065883	0.682245	0.890102	-0.507851	2.155610	2.009591	-2.029580	2.731540	0.030520	-0.943845	-0.245483	0.215393	-1.000000	-1.000000	-1.000000	-1.000000	-1.000000	-1.000000	-1.000000	61.000000	0.000000	-1.000000	-1.000000	100027.000000	1775716820.604336
-26693.370000	-1912.050000	-9858.240000	-4499.910000	-2885.580000	-22756.230000	-1642.230000	3900.510000	1.742623	0.588071	0.149604	0.139776	0.674421	0.198067	1.247280	1.539560	-2.029580	2.731540	0.030520	-0.943845	-0.245483	0.215393	-1.000000	-1.000000	-1.000000	-1.000000	-1.000000	-1.000000	-1.000000	61.000000	0.000000	-1.000000	-1.000000	100028.000000	1775716820.604348
-26693.460000	-1912.275000	-9857.340000	-4498.245000	-2883.015000	-22745.655000	-1637.055000	3902.310000	0.887961	-0.359523	-1.019705	-0.791825	-0.211569	0.328704	-0.547878	0.483491	-2.029580	2.731540	0.030520	-0.943845	-0.245483	0.215393	-1.000000	-1.000000	-1.000000	-1.000000	-1.000000	-1.000000	-1.000000	61.000000	0.000000	-1.000000	-1.000000	100029.000000	1775716820.605713
-26690.805000	-1908.135000	-9852.480000	-4493.925000	-2877.345000	-22735.980000	-1629.945000	3903.300000	-0.842305	-1.707328	-2.161038	-1.788491	-1.323992	0.657127	-2.049574	-1.064030	-2.029580	2.731540	0.030520	-0.943845	-0.245483	0.215393	-1.000000	-1.000000	-1.000000	-1.000000	-1.000000	-1.000000	-1.000000	61.000000	0.000000	-1.000000	-1.000000	100030.000000	1775716820.605732
-26688.870000	-1907.865000	-9852.030000	-4493.475000	-2876.625000	-22734.270000	-1620.765000	3906.180000	-2.534824	-2.791000	-2.643298	-2.203922	-1.836558	1.684602	-1.869773	-2.390885	-1.342880	2.197440	0.763000	-0.943723	-0.247314	0.216064	-1.000000	-1.000000	-1.000000	-1.000000	-1.000000	-1.000000	-1.000000	61.000000	0.000000	-1.000000	-1.000000	100031.000000	1775716820.609626
-26686.665000	-1906.605000	-9850.815000	-4492.890000	-2876.850000	-22737.015000	-1619.415000	3909.015000	-3.212124	-3.008254	-2.264985	-1.893721	-1.610674	2.353813	-0.053109	-2.793065	-1.342880	2.197440	0.763000	-0.943723	-0.247314	0.216064	-1.000000	-1.000000	-1.000000	-1.000000	-1.000000	-1.000000	-1.000000	61.000000	0.000000	-1.000000	-1.000000	100032.000000	1775716820.609647
-26689.950000	-1910.835000	-9855.090000	-4496.670000	-2880.945000	-22740.930000	-1622.115000	3908.430000	-2.700623	-2.441658	-1.502538	-1.328398	-1.274035	1.184697	1.688046	-2.154484	-1.342880	2.197440	0.763000	-0.943723	-0.247314	0.216064	-1.000000	-1.000000	-1.000000	-1.000000	-1.000000	-1.000000	-1.000000	61.000000	0.000000	-1.000000	-1.000000	100033.000000	1775716820.620667
-26699.040000	-1918.485000	-9861.435000	-4501.485000	-2886.120000	-22745.250000	-1633.680000	3899.160000	-1.806166	-1.764745	-1.092406	-1.104041	-1.446835	-1.858615	1.369730	-1.216713	-1.342880	2.197440	0.763000	-0.943723	-0.247314	0.216064	-1.000000	-1.000000	-1.000000	-1.000000	-1.000000	-1.000000	-1.000000	61.000000	0.000000	-1.000000	-1.000000	100034.000000	1775716820.620692
-26689.365000	-1909.530000	-9853.020000	-4493.655000	-2876.175000	-22733.280000	-1625.715000	3907.710000	-1.248767	-1.330559	-1.145255	-1.185971	-1.860081	-4.881254	-1.245774	-0.791855	-1.342880	2.197440	0.763000	-0.943723	-0.247314	0.216064	-1.000000	-1.000000	-1.000000	-1.000000	-1.000000	-1.000000	-1.000000	61.000000	0.000000	-1.000000	-1.000000	100035.000000	1775716820.620719
-26684.730000	-1904.445000	-9849.420000	-4490.505000	-2874.330000	-22731.525000	-1624.005000	3909.780000	-0.454562	-0.396681	-0.694623	-0.676872	-1.349575	-5.401417	-3.931761	-0.512225	-1.342880	2.197440	0.763000	-0.943723	-0.247314	0.216064	-1.000000	-1.000000	-1.000000	-1.000000	-1.000000	-1.000000	-1.000000	61.000000	0.000000	-1.000000	-1.000000	100036.000000	1775716820.620746
-26686.350000	-1906.830000	-9850.005000	-4491.855000	-2876.355000	-22735.530000	-1626.570000	3908.790000	1.275390	1.585903	0.913090	0.873126	0.482330	-2.919330	-4.307343	0.389062	-1.342880	2.197440	0.763000	-0.943723	-0.247314	0.216064	-1.000000	-1.000000	-1.000000	-1.000000	-1.000000	-1.000000	-1.000000	61.000000	0.000000	-1.000000	-1.000000	100037.000000	1775716820.623390
-26687.565000	-1909.080000	-9850.905000	-4491.765000	-2876.625000	-22735.215000	-1628.100000	3909.555000	3.059635	3.485320	2.728278	2.485214	2.362319	0.458986	-2.377872	1.569556	-1.342880	2.197440	0.763000	-0.943723	-0.247314	0.216064	-1.000000	-1.000000	-1.000000	-1.000000	-1.000000	-1.000000	-1.000000	61.000000	0.000000	-1.000000	-1.000000	100038.000000	1775716820.623412
-26685.990000	-1906.425000	-9848.520000	-4490.055000	-2874.735000	-22734.315000	-1627.020000	3910.185000	3.483237	3.785013	3.351100	2.947276	2.941922	2.537925	0.223633	2.150545	-1.342880	2.197440	0.763000	-0.943723	-0.247314	0.216064	-1.000000	-1.000000	-1.000000	-1.000000	-1.000000	-1.000000	-1.000000	61.000000	0.000000	-1.000000	-1.000000	100039.000000	1775716820.627203
-26695.350000	-1914.525000	-9856.170000	-4497.570000	-2882.070000	-22743.000000	-1628.685000	3903.750000	2.173837	2.286011	2.353548	1.973934	2.032272	2.691408	2.168442	1.710554	-1.342880	2.197440	0.763000	-0.943723	-0.247314	0.216064	-1.000000	-1.000000	-1.000000	-1.000000	-1.000000	-1.000000	-1.000000	61.000000	0.000000	-1.000000	-1.000000	100040.000000	1775716820.627224
-26694.990000	-1913.940000	-9855.630000	-4497.705000	-2884.500000	-22763.475000	-1640.835000	3903.660000	-0.255666	-0.167761	0.218600	0.005108	0.138494	0.985198	2.733023	0.352278	-0.106820	2.304260	0.991900	-0.942808	-0.249816	0.217224	-1.000000	-1.000000	-1.000000	-1.000000	-1.000000	-1.000000	-1.000000	61.000000	0.000000	-1.000000	-1.000000	100041.000000	1775716820.630548
-26686.530000	-1905.435000	-9848.115000	-4491.180000	-2879.145000	-22763.250000	-1641.555000	3909.510000	-2.350821	-2.153596	-1.800290	-1.844535	-1.729967	-2.026141	1.670491	-1.088903	-0.106820	2.304260	0.991900	-0.942808	-0.249816	0.217224	-1.000000	-1.000000	-1.000000	-1.000000	-1.000000	-1.000000	-1.000000	61.000000	0.000000	-1.000000	-1.000000	100042.000000	1775716820.630570
-26689.590000	-1909.890000	-9852.345000	-4494.555000	-2879.280000	-22738.635000	-1629.225000	3908.205000	-2.541486	-2.346587	-2.311587	-2.266752	-2.253908	-3.828417	0.092123	-1.437010	-0.106820	2.304260	0.991900	-0.942808	-0.249816	0.217224	-1.000000	-1.000000	-1.000000	-1.000000	-1.000000	-1.000000	-1.000000	61.000000	0.000000	-1.000000	-1.000000	100043.000000	1775716820.633701
-26695.935000	-1916.865000	-9858.645000	-4499.775000	-2881.665000	-22723.830000	-1618.425000	3903.255000	-1.022009	-1.108986	-1.421673	-1.287258	-1.126563	-1.143599	0.173835	-0.620451	-0.106820	2.304260	0.991900	-0.942808	-0.249816	0.217224	-1.000000	-1.000000	-1.000000	-1.000000	-1.000000	-1.000000	-1.000000	61.000000	0.000000	-1.000000	-1.000000	100044.000000	1775716820.633718
-26697.420000	-1917.855000	-9860.220000	-4501.305000	-2883.285000	-22734.945000	-1628.775000	3898.755000	0.412758	-0.110220	-0.535195	-0.205668	0.505025	5.283533	2.300447	0.164468	-0.106820	2.304260	0.991900	-0.942808	-0.249816	0.217224	-1.000000	-1.000000	-1.000000	-1.000000	-1.000000	-1.000000	-1.000000	61.000000	0.000000	-1.000000	-1.000000	100045.000000	1775716820.639082
-26692.380000	-1912.095000	-9854.865000	-4496.490000	-2878.065000	-22734.180000	-1631.115000	3901.725000	0.808588	0.050082	-0.230071	0.293381	1.506797	9.942266	3.892421	0.136753	-0.106820	2.304260	0.991900	-0.942808	-0.249816	0.217224	-1.000000	-1.000000	-1.000000	-1.000000	-1.000000	-1.000000	-1.000000	61.000000	0.000000	-1.000000	-1.000000	100046.000000	1775716820.639107
-26689.455000	-1910.340000	-9853.065000	-4494.195000	-2875.230000	-22731.255000	-1627.290000	3905.055000	0.851977	0.268419	0.217589	0.721750	1.834006	8.637847	2.731331	-0.112714	-0.106820	2.304260	0.991900	-0.942808	-0.249816	0.217224	-1.000000	-1.000000	-1.000000	-1.000000	-1.000000	-1.000000	-1.000000	61.000000	0.000000	-1.000000	-1.000000	100047.000000	1775716820.645531
-26692.380000	-1912.095000	-9853.695000	-4495.905000	-2878.335000	-22736.880000	-1627.380000	3904.335000	1.223035	1.080324	1.234747	1.456553	1.794615	2.468937	-0.312636	0.282855	-0.106820	2.304260	0.991900	-0.942808	-0.249816	0.217224	-1.000000	-1.000000	-1.000000	-1.000000	-1.000000	-1.000000	-1.000000	61.000000	0.000000	-1.000000	-1.000000	100048.000000	1775716820.645557
-26691.300000	-1911.420000	-9853.560000	-4495.995000	-2881.170000	-22744.755000	-1629.135000	3905.505000	1.523243	1.818524	2.150460	1.953191	1.164834	-4.763073	-2.990571	1.176349	-0.106820	2.304260	0.991900	-0.942808	-0.249816	0.217224	-1.000000	-1.000000	-1.000000	-1.000000	-1.000000	-1.000000	-1.000000	61.000000	0.000000	-1.000000	-1.000000	100049.000000	1775716820.646213
-26689.545000	-1909.980000	-9853.155000	-4495.500000	-2880.720000	-22747.095000	-1630.035000	3906.720000	1.195054	1.736779	2.147713	1.594725	-0.218868	-9.835000	-4.088371	1.772890	-0.106820	2.304260	0.991900	-0.942808	-0.249816	0.217224	-1.000000	-1.000000	-1.000000	-1.000000	-1.000000	-1.000000	-1.000000	61.000000	0.000000	-1.000000	-1.000000	100050.000000	1775716820.646236
-26686.440000	-1906.290000	-9849.015000	-4491.180000	-2875.410000	-22736.115000	-1625.580000	3910.185000	0.433214	0.954786	1.241557	0.590732	-1.610820	-10.692554	-3.534158	1.661577	1.022420	2.792580	0.930860	-0.943540	-0.248290	0.217285	-1.000000	-1.000000	-1.000000	-1.000000	-1.000000	-1.000000	-1.000000	61.000000	0.000000	-1.000000	-1.000000	100051.000000	1775716820.649681
-26676.225000	-1895.760000	-9838.170000	-4482.090000	-2868.525000	-22725.630000	-1611.495000	3921.885000	-0.060500	0.263874	0.303288	-0.164583	-1.817853	-6.617198	-1.492303	1.206032	1.022420	2.792580	0.930860	-0.943540	-0.248290	0.217285	-1.000000	-1.000000	-1.000000	-1.000000	-1.000000	-1.000000	-1.000000	61.000000	0.000000	-1.000000	-1.000000	100052.000000	1775716820.649699
-26677.755000	-1896.930000	-9839.205000	-4482.045000	-2868.255000	-22726.395000	-1605.870000	3920.985000	0.132958	0.249961	0.124586	-0.048718	-0.529216	0.646744	1.674902	0.983331	1.022420	2.792580	0.930860	-0.943540	-0.248290	0.217285	-1.000000	-1.000000	-1.000000	-1.000000	-1.000000	-1.000000	-1.000000	61.000000	0.000000	-1.000000	-1.000000	100053.000000	1775716820.659155
-26692.785000	-1914.615000	-9857.115000	-4498.200000	-2880.945000	-22737.285000	-1617.165000	3907.665000	0.180913	0.114857	-0.012684	0.129217	0.891151	6.826594	4.347208	0.500169	1.022420	2.792580	0.930860	-0.943540	-0.248290	0.217285	-1.000000	-1.000000	-1.000000	-1.000000	-1.000000	-1.000000	-1.000000	61.000000	0.000000	-1.000000	-1.000000	100054.000000	1775716820.659183
-26699.175000	-1923.615000	-9865.395000	-4506.165000	-2886.300000	-22745.610000	-1644.165000	3900.105000	-1.387849	-1.753867	-1.792795	-1.283151	0.519348	7.968526	3.677946	-1.518622	1.022420	2.792580	0.930860	-0.943540	-0.248290	0.217285	-1.000000	-1.000000	-1.000000	-1.000000	-1.000000	-1.000000	-1.000000	61.000000	0.000000	-1.000000	-1.000000	100055.000000	1775716820.659211
-26707.230000	-1927.620000	-9868.545000	-4508.370000	-2888.955000	-22747.860000	-1646.595000	3890.160000	-4.364759	-5.093587	-5.020743	-4.195247	-1.758836	3.865497	-1.423321	-4.915927	1.022420	2.792580	0.930860	-0.943540	-0.248290	0.217285	-1.000000	-1.000000	-1.000000	-1.000000	-1.000000	-1.000000	-1.000000	61.000000	0.000000	-1.000000	-1.000000	100056.000000	1775716820.659223
-26705.565000	-1923.255000	-9863.595000	-4505.490000	-2893.410000	-22755.465000	-1641.780000	3892.860000	-6.442886	-7.096245	-6.908083	-6.077824	-3.926339	-2.001689	-7.478561	-7.448848	1.022420	2.792580	0.930860	-0.943540	-0.248290	0.217285	-1.000000	-1.000000	-1.000000	-1.000000	-1.000000	-1.000000	-1.000000	61.000000	0.000000	-1.000000	-1.000000	100057.000000	1775716820.667163
-26697.915000	-1918.305000	-9860.085000	-4502.655000	-2889.090000	-22751.955000	-1635.480000	3901.635000	-5.263196	-5.169481	-4.942272	-4.590611	-3.963249	-5.682117	-9.004899	-6.515482	1.022420	2.792580	0.930860	-0.943540	-0.248290	0.217285	-1.000000	-1.000000	-1.000000	-1.000000	-1.000000	-1.000000	-1.000000	61.000000	0.000000	-1.000000	-1.000000	100058.000000	1775716820.667190
-26696.655000	-1917.405000	-9859.275000	-4500.630000	-2884.140000	-22746.870000	-1633.455000	3902.670000	-0.508215	0.369513	0.428919	0.008863	-1.324327	-5.179795	-4.123466	-1.493866	1.022420	2.792580	0.930860	-0.943540	-0.248290	0.217285	-1.000000	-1.000000	-1.000000	-1.000000	-1.000000	-1.000000	-1.000000	61.000000	0.000000	-1.000000	-1.000000	100059.000000	1775716820.671858
-26699.265000	-1919.520000	-9860.580000	-4501.215000	-2885.400000	-22747.815000	-1637.910000	3899.295000	5.358255	6.343496	6.077530	5.122273	2.818105	-1.111036	3.783640	5.037174	1.022420	2.792580	0.930860	-0.943540	-0.248290	0.217285	-1.000000	-1.000000	-1.000000	-1.000000	-1.000000	-1.000000	-1.000000	61.000000	0.000000	-1.000000	-1.000000	100060.000000	1775716820.671885
-26694.630000	-1915.425000	-9857.385000	-4497.300000	-2882.070000	-22742.145000	-1633.095000	3904.425000	8.889075	9.339307	8.840148	7.959768	6.144300	3.834341	9.541703	9.206154	-0.763000	2.746800	1.281840	-0.943662	-0.244445	0.216674	-1.000000	-1.000000	-1.000000	-1.000000	-1.000000	-1.000000	-1.000000	61.000000	0.000000	-1.000000	-1.000000	100061.000000	1775716820.671910
-26697.780000	-1919.520000	-9862.560000	-4502.970000	-2887.065000	-22745.520000	-1633.815000	3901.860000	8.443147	8.186522	7.672343	7.337380	6.760558	6.796797	10.400181	9.107298	-0.763000	2.746800	1.281840	-0.943662	-0.244445	0.216674	-1.000000	-1.000000	-1.000000	-1.000000	-1.000000	-1.000000	-1.000000	61.000000	0.000000	-1.000000	-1.000000	100062.000000	1775716820.671921
-26688.780000	-1912.680000	-9856.305000	-4497.255000	-2881.125000	-22738.590000	-1627.515000	3907.845000	4.918026	4.123555	3.719414	3.934704	4.480526	6.506778	7.091096	5.598094	-0.763000	2.746800	1.281840	-0.943662	-0.244445	0.216674	-1.000000	-1.000000	-1.000000	-1.000000	-1.000000	-1.000000	-1.000000	61.000000	0.000000	-1.000000	-1.000000	100063.000000	1775716820.679203
-26692.605000	-1917.225000	-9861.210000	-4502.295000	-2886.210000	-22743.495000	-1630.845000	3904.470000	0.513600	-0.535153	-0.789146	-0.378367	0.733313	3.588505	2.064477	0.888148	-0.763000	2.746800	1.281840	-0.943662	-0.244445	0.216674	-1.000000	-1.000000	-1.000000	-1.000000	-1.000000	-1.000000	-1.000000	61.000000	0.000000	-1.000000	-1.000000	100064.000000	1775716820.679224
-26700.840000	-1923.930000	-9867.150000	-4508.190000	-2891.655000	-22752.225000	-1637.190000	3897.090000	-3.170888	-4.101010	-4.135988	-3.883587	-2.807392	-0.555261	-2.645972	-3.224484	-0.763000	2.746800	1.281840	-0.943662	-0.244445	0.216674	-1.000000	-1.000000	-1.000000	-1.000000	-1.000000	-1.000000	-1.000000	61.000000	0.000000	-1.000000	-1.000000	100065.000000	1775716820.679239
-26696.610000	-1918.305000	-9861.300000	-4503.780000	-2888.505000	-22757.445000	-1637.865000	3900.465000	-5.662134	-5.989191	-5.695993	-5.732801	-5.107046	-4.694806	-6.063992	-5.915699	-0.763000	2.746800	1.281840	-0.943662	-0.244445	0.216674	-1.000000	-1.000000	-1.000000	-1.000000	-1.000000	-1.000000	-1.000000	61.000000	0.000000	-1.000000	-1.000000	100066.000000	1775716820.679245
-26696.790000	-1916.865000	-9859.770000	-4502.205000	-2889.630000	-22761.135000	-1641.195000	3899.835000	-6.424047	-5.781517	-5.135037	-5.407626	-5.444995	-7.477685	-7.543042	-6.565809	-0.763000	2.746800	1.281840	-0.943662	-0.244445	0.216674	-1.000000	-1.000000	-1.000000	-1.000000	-1.000000	-1.000000	-1.000000	61.000000	0.000000	-1.000000	-1.000000	100067.000000	1775716820.683222
-26705.250000	-1926.630000	-9868.275000	-4510.395000	-2896.740000	-22756.680000	-1641.600000	3892.815000	-5.150044	-3.657282	-2.804526	-3.141363	-3.852882	-7.490195	-6.686080	-5.050456	-0.763000	2.746800	1.281840	-0.943662	-0.244445	0.216674	-1.000000	-1.000000	-1.000000	-1.000000	-1.000000	-1.000000	-1.000000	61.000000	0.000000	-1.000000	-1.000000	100068.000000	1775716820.683250
-26707.950000	-1932.120000	-9876.015000	-4518.360000	-2904.930000	-22754.745000	-1639.755000	3891.960000	-2.800079	-1.195941	-0.420136	-0.585731	-1.638275	-4.265472	-3.824763	-2.428186	-0.763000	2.746800	1.281840	-0.943662	-0.244445	0.216674	-1.000000	-1.000000	-1.000000	-1.000000	-1.000000	-1.000000	-1.000000	61.000000	0.000000	-1.000000	-1.000000	100069.000000	1775716820.700525
-26703.630000	-1931.130000	-9875.385000	-4517.190000	-2901.960000	-22753.845000	-1640.790000	3898.215000	-0.481108	0.213018	0.558661	0.721979	-0.054811	0.907727	-0.001507	0.193908	-0.763000	2.746800	1.281840	-0.943662	-0.244445	0.216674	-1.000000	-1.000000	-1.000000	-1.000000	-1.000000	-1.000000	-1.000000	61.000000	0.000000	-1.000000	-1.000000	100070.000000	1775716820.700551
-26699.715000	-1925.055000	-9865.440000	-4507.515000	-2892.015000	-22744.980000	-1636.110000	3902.355000	1.724618	0.960244	0.721085	1.188322	1.201932	5.631987	3.420443	2.612976	-2.212700	2.762060	1.648080	-0.945371	-0.242553	0.215576	-1.000000	-1.000000	-1.000000	-1.000000	-1.000000	-1.000000	-1.000000	61.000000	0.000000	-1.000000	-1.000000	100071.000000	1775716820.700614
-26707.500000	-1930.050000	-9870.255000	-4511.430000	-2895.705000	-22748.265000	-1638.495000	3896.730000	3.709735	2.026723	1.529458	2.128138	2.984920	7.972540	5.338523	4.509083	-2.212700	2.762060	1.648080	-0.945371	-0.242553	0.215576	-1.000000	-1.000000	-1.000000	-1.000000	-1.000000	-1.000000	-1.000000	61.000000	0.000000	-1.000000	-1.000000	100072.000000	1775716820.700627
-26700.255000	-1921.545000	-9862.110000	-4503.330000	-2889.315000	-22748.895000	-1636.965000	3903.255000	4.605843	3.313184	3.033992	3.560432	4.780185	7.074890	5.254409	4.945028	-2.212700	2.762060	1.648080	-0.945371	-0.242553	0.215576	-1.000000	-1.000000	-1.000000	-1.000000	-1.000000	-1.000000	-1.000000	61.000000	0.000000	-1.000000	-1.000000	100073.000000	1775716820.700643
-26701.155000	-1923.660000	-9864.585000	-4505.850000	-2892.780000	-22756.365000	-1642.860000	3900.780000	4.015177	4.050437	4.060904	4.359882	5.206167	3.243681	3.328549	3.612131	-2.212700	2.762060	1.648080	-0.945371	-0.242553	0.215576	-1.000000	-1.000000	-1.000000	-1.000000	-1.000000	-1.000000	-1.000000	61.000000	0.000000	-1.000000	-1.000000	100074.000000	1775716820.700654
-26707.770000	-1930.950000	-9871.740000	-4513.365000	-2899.845000	-22762.170000	-1646.010000	3894.660000	2.331614	3.495085	3.493620	3.470962	3.451235	-2.001339	0.298397	1.104212	-2.212700	2.762060	1.648080	-0.945371	-0.242553	0.215576	-1.000000	-1.000000	-1.000000	-1.000000	-1.000000	-1.000000	-1.000000	61.000000	0.000000	-1.000000	-1.000000	100075.000000	1775716820.700668
-26699.895000	-1921.860000	-9862.920000	-4504.860000	-2890.080000	-22750.065000	-1632.510000	3901.680000	0.100364	1.428141	1.150239	0.793252	0.032309	-6.179862	-2.399051	-1.667007	-2.212700	2.762060	1.648080	-0.945371	-0.242553	0.215576	-1.000000	-1.000000	-1.000000	-1.000000	-1.000000	-1.000000	-1.000000	61.000000	0.000000	-1.000000	-1.000000	100076.000000	1775716820.700678
-26697.825000	-1920.195000	-9862.425000	-4504.410000	-2888.865000	-22742.955000	-1624.860000	3903.840000	-1.666027	-0.986874	-1.559722	-2.151321	-3.029134	-6.743464	-2.905726	-3.371820	-2.212700	2.762060	1.648080	-0.945371	-0.242553	0.215576	-1.000000	-1.000000	-1.000000	-1.000000	-1.000000	-1.000000	-1.000000	61.000000	0.000000	-1.000000	-1.000000	100077.000000	1775716820.712444
-26692.605000	-1916.865000	-9860.580000	-4503.015000	-2886.750000	-22741.470000	-1628.415000	3905.685000	-1.989602	-2.204693	-2.934239	-3.567868	-3.954345	-3.273713	-0.919996	-3.093583	-2.212700	2.762060	1.648080	-0.945371	-0.242553	0.215576	-1.000000	-1.000000	-1.000000	-1.000000	-1.000000	-1.000000	-1.000000	61.000000	0.000000	-1.000000	-1.000000	100078.000000	1775716820.712473
-26691.255000	-1913.895000	-9856.485000	-4499.640000	-2883.105000	-22738.995000	-1629.945000	3906.765000	-1.048613	-1.963097	-2.645382	-3.132503	-2.854250	1.605453	1.339788	-1.393840	-2.212700	2.762060	1.648080	-0.945371	-0.242553	0.215576	-1.000000	-1.000000	-1.000000	-1.000000	-1.000000	-1.000000	-1.000000	61.000000	0.000000	-1.000000	-1.000000	100079.000000	1775716820.712503
-26696.205000	-1917.855000	-9859.455000	-4502.115000	-2886.255000	-22742.640000	-1633.185000	3902.265000	-0.037320	-1.142149	-1.471403	-1.705436	-1.062532	4.541595	1.542613	0.263422	-2.212700	2.762060	1.648080	-0.945371	-0.242553	0.215576	-1.000000	-1.000000	-1.000000	-1.000000	-1.000000	-1.000000	-1.000000	61.000000	0.000000	-1.000000	-1.000000	100080.000000	1775716820.712516
-26696.115000	-1918.485000	-9859.590000	-4502.340000	-2887.875000	-22745.520000	-1632.555000	3901.320000	-0.110788	-0.814417	-0.487796	-0.425132	0.047297	3.969990	-0.398833	0.727214	-1.602300	2.487380	0.808780	-0.945493	-0.244628	0.215454	-1.000000	-1.000000	-1.000000	-1.000000	-1.000000	-1.000000	-1.000000	61.000000	0.000000	-1.000000	-1.000000	100081.000000	1775716820.712532
-26694.990000	-1917.180000	-9857.700000	-4500.990000	-2886.615000	-22746.600000	-1630.170000	3902.535000	-1.224750	-1.267981	-0.265167	0.071060	-0.047573	0.729994	-2.681342	0.018969	-1.602300	2.487380	0.808780	-0.945493	-0.244628	0.215454	-1.000000	-1.000000	-1.000000	-1.000000	-1.000000	-1.000000	-1.000000	61.000000	0.000000	-1.000000	-1.000000	100082.000000	1775716820.712543
-26692.110000	-1914.930000	-9854.730000	-4497.210000	-2881.440000	-22742.100000	-1626.165000	3905.595000	-2.171615	-1.747830	-0.416835	0.075449	-0.617877	-2.739049	-3.396661	-0.774309	-1.602300	2.487380	0.808780	-0.945493	-0.244628	0.215454	-1.000000	-1.000000	-1.000000	-1.000000	-1.000000	-1.000000	-1.000000	61.000000	0.000000	-1.000000	-1.000000	100083.000000	1775716820.717064
-26701.785000	-1926.405000	-9867.645000	-4509.945000	-2893.320000	-22750.020000	-1633.680000	3897.585000	-2.117787	-1.646683	-0.525218	-0.015690	-0.800009	-4.294941	-2.164796	-0.833396	-1.602300	2.487380	0.808780	-0.945493	-0.244628	0.215454	-1.000000	-1.000000	-1.000000	-1.000000	-1.000000	-1.000000	-1.000000	61.000000	0.000000	-1.000000	-1.000000	100084.000000	1775716820.717093
-26703.990000	-1927.800000	-9870.795000	-4514.805000	-2901.555000	-22757.805000	-1638.000000	3895.380000	-1.511225	-1.345830	-0.951762	-0.553299	-0.932429	-3.806695	-0.376132	-0.509282	-1.602300	2.487380	0.808780	-0.945493	-0.244628	0.215454	-1.000000	-1.000000	-1.000000	-1.000000	-1.000000	-1.000000	-1.000000	61.000000	0.000000	-1.000000	-1.000000	100085.000000	1775716820.718283
-26702.865000	-1926.495000	-9867.870000	-4511.205000	-2897.505000	-22754.340000	-1635.930000	3895.965000	-0.950084	-1.118886	-1.680266	-1.544359	-1.494017	-2.411263	0.566824	-0.366730	-1.602300	2.487380	0.808780	-0.945493	-0.244628	0.215454	-1.000000	-1.000000	-1.000000	-1.000000	-1.000000	-1.000000	-1.000000	61.000000	0.000000	-1.000000	-1.000000	100086.000000	1775716820.718300
-26694.720000	-1919.340000	-9860.400000	-4502.430000	-2887.515000	-22743.855000	-1628.865000	3903.030000	-0.038287	-0.275158	-1.465533	-1.623839	-1.413313	-0.413140	0.893473	-0.056819	-1.602300	2.487380	0.808780	-0.945493	-0.244628	0.215454	-1.000000	-1.000000	-1.000000	-1.000000	-1.000000	-1.000000	-1.000000	61.000000	0.000000	-1.000000	-1.000000	100087.000000	1775716820.726812
-26696.430000	-1922.220000	-9864.045000	-4506.795000	-2891.250000	-22747.095000	-1633.455000	3901.545000	1.708493	1.621642	0.486166	0.224975	0.509602	2.395335	1.516455	0.985504	-1.602300	2.487380	0.808780	-0.945493	-0.244628	0.215454	-1.000000	-1.000000	-1.000000	-1.000000	-1.000000	-1.000000	-1.000000	61.000000	0.000000	-1.000000	-1.000000	100088.000000	1775716820.726840
-26688.330000	-1914.390000	-9857.925000	-4501.170000	-2887.200000	-22752.855000	-1640.205000	3906.630000	3.671655	3.721869	3.103370	2.925560	3.349130	4.823538	2.129463	2.379240	-1.602300	2.487380	0.808780	-0.945493	-0.244628	0.215454	-1.000000	-1.000000	-1.000000	-1.000000	-1.000000	-1.000000	-1.000000	61.000000	0.000000	-1.000000	-1.000000	100089.000000	1775716820.726869
-26690.895000	-1915.065000	-9856.305000	-4498.740000	-2885.715000	-22768.245000	-1650.420000	3905.280000	4.637630	4.766251	4.689760	4.599309	5.047330	4.713356	1.505315	3.118571	-1.602300	2.487380	0.808780	-0.945493	-0.244628	0.215454	-1.000000	-1.000000	-1.000000	-1.000000	-1.000000	-1.000000	-1.000000	61.000000	0.000000	-1.000000	-1.000000	100090.000000	1775716820.726882
-26689.590000	-1911.150000	-9850.095000	-4492.755000	-2879.910000	-22756.410000	-1640.340000	3908.970000	3.809195	4.143646	4.530108	4.470636	4.666982	1.690220	-0.367594	2.594584	0.930860	2.456860	0.763000	-0.944578	-0.245483	0.215148	-1.000000	-1.000000	-1.000000	-1.000000	-1.000000	-1.000000	-1.000000	61.000000	0.000000	-1.000000	-1.000000	100091.000000	1775716820.731485
-26691.480000	-1915.560000	-9854.235000	-4497.255000	-2881.215000	-22726.845000	-1613.790000	3911.355000	1.298387	1.986462	2.839263	2.788489	2.669119	-1.145633	-1.180082	1.057350	0.930860	2.456860	0.763000	-0.944578	-0.245483	0.215148	-1.000000	-1.000000	-1.000000	-1.000000	-1.000000	-1.000000	-1.000000	61.000000	0.000000	-1.000000	-1.000000	100092.000000	1775716820.731511
-26692.065000	-1917.720000	-9856.935000	-4500.405000	-2883.600000	-22726.845000	-1612.215000	3910.095000	-1.834738	-1.059470	0.074224	0.000858	-0.105365	-0.273763	1.214404	-0.724636	0.930860	2.456860	0.763000	-0.944578	-0.245483	0.215148	-1.000000	-1.000000	-1.000000	-1.000000	-1.000000	-1.000000	-1.000000	61.000000	0.000000	-1.000000	-1.000000	100093.000000	1775716820.739596
-26692.515000	-1917.765000	-9857.925000	-4501.890000	-2886.255000	-22737.105000	-1622.205000	3905.910000	-4.199903	-3.932891	-3.040526	-3.178542	-2.936818	3.026681	4.928092	-2.250733	0.930860	2.456860	0.763000	-0.944578	-0.245483	0.215148	-1.000000	-1.000000	-1.000000	-1.000000	-1.000000	-1.000000	-1.000000	61.000000	0.000000	-1.000000	-1.000000	100094.000000	1775716820.739627
-26690.265000	-1914.660000	-9855.000000	-4498.695000	-2882.295000	-22734.225000	-1621.665000	3908.115000	-4.816045	-5.326556	-5.211572	-5.404453	-4.926095	4.015826	5.511214	-3.325365	0.930860	2.456860	0.763000	-0.944578	-0.245483	0.215148	-1.000000	-1.000000	-1.000000	-1.000000	-1.000000	-1.000000	-1.000000	61.000000	0.000000	-1.000000	-1.000000	100095.000000	1775716820.745701
-26687.520000	-1912.140000	-9851.490000	-4494.330000	-2877.930000	-22730.085000	-1619.820000	3912.030000	-3.490267	-4.434538	-5.198308	-5.334473	-5.027085	0.911582	1.567430	-3.467802	0.930860	2.456860	0.763000	-0.944578	-0.245483	0.215148	-1.000000	-1.000000	-1.000000	-1.000000	-1.000000	-1.000000	-1.000000	61.000000	0.000000	-1.000000	-1.000000	100096.000000	1775716820.745725
-26694.135000	-1919.655000	-9858.330000	-4501.935000	-2886.030000	-22739.850000	-1627.515000	3907.755000	-1.049477	-1.873929	-3.066507	-2.999975	-3.145511	-3.846743	-4.111175	-2.326298	0.930860	2.456860	0.763000	-0.944578	-0.245483	0.215148	-1.000000	-1.000000	-1.000000	-1.000000	-1.000000	-1.000000	-1.000000	61.000000	0.000000	-1.000000	-1.000000	100097.000000	1775716820.761591
-26691.660000	-1917.630000	-9855.720000	-4499.280000	-2884.725000	-22742.190000	-1628.955000	3909.555000	1.038386	0.624949	-0.329499	-0.049238	-0.674220	-7.401519	-8.148138	-0.496196	0.930860	2.456860	0.763000	-0.944578	-0.245483	0.215148	-1.000000	-1.000000	-1.000000	-1.000000	-1.000000	-1.000000	-1.000000	61.000000	0.000000	-1.000000	-1.000000	100098.000000	1775716820.761618
-26698.995000	-1924.920000	-9863.685000	-4507.695000	-2893.275000	-22750.515000	-1633.095000	3902.985000	1.813599	1.782770	1.471693	1.805015	0.861513	-8.441405	-8.871640	0.939715	0.930860	2.456860	0.763000	-0.944578	-0.245483	0.215148	-1.000000	-1.000000	-1.000000	-1.000000	-1.000000	-1.000000	-1.000000	61.000000	0.000000	-1.000000	-1.000000	100099.000000	1775716820.761648
-26697.870000	-1924.335000	-9862.830000	-4506.795000	-2893.545000	-22751.865000	-1633.320000	3903.075000	1.355999	1.560727	1.827909	2.029476	1.055027	-6.836276	-6.337093	1.346629	0.930860	2.456860	0.763000	-0.944578	-0.245483	0.215148	-1.000000	-1.000000	-1.000000	-1.000000	-1.000000	-1.000000	-1.000000	61.000000	0.000000	-1.000000	-1.000000	100100.000000	1775716820.761661
-26697.015000	-1923.255000	-9862.290000	-4505.715000	-2891.745000	-22750.335000	-1633.140000	3902.985000	0.495961	0.808116	1.294442	1.303751	0.630107	-3.133460	-1.808600	0.951053	-1.236060	2.136400	0.106820	-0.945188	-0.242370	0.214233	-1.000000	-1.000000	-1.000000	-1.000000	-1.000000	-1.000000	-1.000000	61.000000	0.000000	-1.000000	-1.000000	100101.000000	1775716820.761677
-26691.120000	-1916.910000	-9856.170000	-4499.460000	-2884.500000	-22742.595000	-1629.450000	3908.430000	0.282592	0.636002	0.993267	0.901905	0.814091	1.790134	2.999292	0.642269	-1.236060	2.136400	0.106820	-0.945188	-0.242370	0.214233	-1.000000	-1.000000	-1.000000	-1.000000	-1.000000	-1.000000	-1.000000	61.000000	0.000000	-1.000000	-1.000000	100102.000000	1775716820.761689
-26685.180000	-1910.385000	-9849.375000	-4493.430000	-2879.370000	-22734.630000	-1623.195000	3914.730000	1.196878	1.587586	1.666720	1.592863	2.200907	6.747055	6.660367	1.177275	-1.236060	2.136400	0.106820	-0.945188	-0.242370	0.214233	-1.000000	-1.000000	-1.000000	-1.000000	-1.000000	-1.000000	-1.000000	61.000000	0.000000	-1.000000	-1.000000	100103.000000	1775716820.761702
-26690.445000	-1914.435000	-9853.695000	-4497.615000	-2885.490000	-22737.465000	-1625.310000	3910.320000	2.547849	2.989331	2.865899	2.820798	3.869502	10.032097	8.242411	2.300467	-1.236060	2.136400	0.106820	-0.945188	-0.242370	0.214233	-1.000000	-1.000000	-1.000000	-1.000000	-1.000000	-1.000000	-1.000000	61.000000	0.000000	-1.000000	-1.000000	100104.000000	1775716820.761713
-26692.830000	-1915.830000	-9854.685000	-4497.615000	-2886.255000	-22737.690000	-1619.460000	3908.430000	2.779920	3.257076	3.115704	3.063239	3.983092	9.854583	7.295754	2.687051	-1.236060	2.136400	0.106820	-0.945188	-0.242370	0.214233	-1.000000	-1.000000	-1.000000	-1.000000	-1.000000	-1.000000	-1.000000	61.000000	0.000000	-1.000000	-1.000000	100105.000000	1775716820.761726
-26697.375000	-1919.700000	-9858.510000	-4501.440000	-2888.325000	-22740.705000	-1619.370000	3904.290000	1.003693	1.440359	1.432620	1.410030	1.775804	5.816694	4.256957	1.323256	-1.236060	2.136400	0.106820	-0.945188	-0.242370	0.214233	-1.000000	-1.000000	-1.000000	-1.000000	-1.000000	-1.000000	-1.000000	61.000000	0.000000	-1.000000	-1.000000	100106.000000	1775716820.761737
-26699.130000	-1923.975000	-9862.605000	-4505.085000	-2888.865000	-22751.730000	-1631.745000	3903.030000	-1.940606	-1.741859	-1.571758	-1.501576	-1.544381	-0.486359	0.135161	-1.269015	-1.236060	2.136400	0.106820	-0.945188	-0.242370	0.214233	-1.000000	-1.000000	-1.000000	-1.000000	-1.000000	-1.000000	-1.000000	61.000000	0.000000	-1.000000	-1.000000	100107.000000	1775716820.763047
-26694.495000	-1920.465000	-9858.780000	-4502.160000	-2889.900000	-22763.295000	-1651.545000	3904.965000	-4.130944	-4.481572	-4.197371	-4.067261	-4.050194	-6.692074	-4.503875	-3.455706	-1.236060	2.136400	0.106820	-0.945188	-0.242370	0.214233	-1.000000	-1.000000	-1.000000	-1.000000	-1.000000	-1.000000	-1.000000	61.000000	0.000000	-1.000000	-1.000000	100108.000000	1775716820.763071
-26693.190000	-1919.745000	-9858.060000	-4501.980000	-2890.935000	-22755.915000	-1639.755000	3907.170000	-4.011179	-5.072951	-4.789881	-4.747318	-4.596022	-10.430241	-8.615777	-3.775957	-1.236060	2.136400	0.106820	-0.945188	-0.242370	0.214233	-1.000000	-1.000000	-1.000000	-1.000000	-1.000000	-1.000000	-1.000000	61.000000	0.000000	-1.000000	-1.000000	100109.000000	1775716820.766768
-26694.495000	-1921.680000	-9861.120000	-4503.825000	-2889.495000	-22738.320000	-1628.280000	3907.440000	-1.692491	-3.187252	-3.034832	-3.196561	-3.246668	-9.363942	-9.345228	-2.046985	-1.236060	2.136400	0.106820	-0.945188	-0.242370	0.214233	-1.000000	-1.000000	-1.000000	-1.000000	-1.000000	-1.000000	-1.000000	61.000000	0.000000	-1.000000	-1.000000	100110.000000	1775716820.766795
-26678.115000	-1904.220000	-9843.795000	-4486.320000	-2870.460000	-22719.240000	-1618.515000	3919.995000	1.427870	0.138340	0.040230	-0.236194	-0.523460	-2.728136	-4.605635	0.754224	-2.472120	1.495480	0.488320	-0.946043	-0.242004	0.213745	-1.000000	-1.000000	-1.000000	-1.000000	-1.000000	-1.000000	-1.000000	61.000000	0.000000	-1.000000	-1.000000	100111.000000	1775716820.772004
-26666.505000	-1891.935000	-9832.590000	-4474.530000	-2857.140000	-22708.665000	-1611.630000	3930.750000	4.338140	3.893964	3.514754	3.352622	3.228384	6.705371	3.544708	3.618371	-2.472120	1.495480	0.488320	-0.946043	-0.242004	0.213745	-1.000000	-1.000000	-1.000000	-1.000000	-1.000000	-1.000000	-1.000000	61.000000	0.000000	-1.000000	-1.000000	100112.000000	1775716820.772030
-26669.430000	-1895.625000	-9833.895000	-4475.070000	-2858.490000	-22710.465000	-1610.550000	3930.705000	6.210464	6.862866	6.360656	6.461165	6.756480	13.425984	10.158172	5.583453	-2.472120	1.495480	0.488320	-0.946043	-0.242004	0.213745	-1.000000	-1.000000	-1.000000	-1.000000	-1.000000	-1.000000	-1.000000	61.000000	0.000000	-1.000000	-1.000000	100113.000000	1775716820.776725
-26677.440000	-1905.300000	-9844.290000	-4487.490000	-2874.060000	-22727.835000	-1615.545000	3923.730000	5.397447	6.783618	6.484135	6.777822	7.190381	12.624096	11.236276	5.172756	-2.472120	1.495480	0.488320	-0.946043	-0.242004	0.213745	-1.000000	-1.000000	-1.000000	-1.000000	-1.000000	-1.000000	-1.000000	61.000000	0.000000	-1.000000	-1.000000	100114.000000	1775716820.776748
-26690.895000	-1918.665000	-9858.420000	-4502.430000	-2892.105000	-22747.590000	-1625.625000	3910.770000	0.845205	2.203906	2.322141	2.513679	2.344655	3.528552	6.100382	1.369136	-2.472120	1.495480	0.488320	-0.946043	-0.242004	0.213745	-1.000000	-1.000000	-1.000000	-1.000000	-1.000000	-1.000000	-1.000000	61.000000	0.000000	-1.000000	-1.000000	100115.000000	1775716820.781855
-26694.360000	-1919.655000	-9856.395000	-4500.315000	-2890.440000	-22749.390000	-1630.665000	3903.705000	-5.862032	-5.084592	-4.627516	-4.823690	-6.029880	-9.316647	-2.499734	-4.740011	-2.472120	1.495480	0.488320	-0.946043	-0.242004	0.213745	-1.000000	-1.000000	-1.000000	-1.000000	-1.000000	-1.000000	-1.000000	61.000000	0.000000	-1.000000	-1.000000	100116.000000	1775716820.781881
-26695.350000	-1920.915000	-9857.880000	-4501.080000	-2889.855000	-22747.185000	-1629.360000	3904.695000	-10.878710	-10.658446	-10.035961	-10.565511	-12.432541	-18.194157	-9.906022	-9.853751	-2.472120	1.495480	0.488320	-0.946043	-0.242004	0.213745	-1.000000	-1.000000	-1.000000	-1.000000	-1.000000	-1.000000	-1.000000	61.000000	0.000000	-1.000000	-1.000000	100117.000000	1775716820.783256
-26703.180000	-1930.635000	-9870.525000	-4514.040000	-2900.340000	-22754.835000	-1637.235000	3898.080000	-11.032026	-11.090958	-10.523603	-11.009844	-12.423759	-17.753470	-12.329498	-10.668472	-2.472120	1.495480	0.488320	-0.946043	-0.242004	0.213745	-1.000000	-1.000000	-1.000000	-1.000000	-1.000000	-1.000000	-1.000000	61.000000	0.000000	-1.000000	-1.000000	100118.000000	1775716820.783274
-26702.775000	-1929.195000	-9869.130000	-4512.105000	-2898.495000	-22752.360000	-1638.630000	3898.665000	-6.359800	-6.609266	-6.478488	-6.569824	-6.489329	-8.974851	-9.268689	-6.596532	-2.472120	1.495480	0.488320	-0.946043	-0.242004	0.213745	-1.000000	-1.000000	-1.000000	-1.000000	-1.000000	-1.000000	-1.000000	61.000000	0.000000	-1.000000	-1.000000	100119.000000	1775716820.791994
-26691.570000	-1918.665000	-9860.175000	-4503.195000	-2889.495000	-22742.865000	-1630.305000	3906.405000	0.775901	0.314648	-0.261007	0.115998	1.819048	2.934794	-2.892440	0.270802	-2.472120	1.495480	0.488320	-0.946043	-0.242004	0.213745	-1.000000	-1.000000	-1.000000	-1.000000	-1.000000	-1.000000	-1.000000	61.000000	0.000000	-1.000000	-1.000000	100120.000000	1775716820.792020
-26694.270000	-1923.030000	-9864.450000	-4508.055000	-2892.780000	-22743.630000	-1632.690000	3904.560000	7.681935	7.066488	5.956119	6.594708	9.075785	12.750947	4.059127	7.028475	-1.159760	1.739640	-0.152600	-0.945310	-0.245056	0.213195	-1.000000	-1.000000	-1.000000	-1.000000	-1.000000	-1.000000	-1.000000	61.000000	0.000000	-1.000000	-1.000000	100121.000000	1775716820.792046
-26694.000000	-1921.320000	-9861.885000	-4505.265000	-2891.475000	-22742.010000	-1633.365000	3905.370000	11.722288	11.074534	9.984161	10.548912	12.654875	16.986082	8.947700	10.974012	-1.159760	1.739640	-0.152600	-0.945310	-0.245056	0.213195	-1.000000	-1.000000	-1.000000	-1.000000	-1.000000	-1.000000	-1.000000	61.000000	0.000000	-1.000000	-1.000000	100122.000000	1775716820.792057
-26689.140000	-1915.695000	-9855.765000	-4498.695000	-2886.480000	-22739.265000	-1628.055000	3910.455000	11.274455	10.819611	10.367179	10.623203	11.484195	14.701952	10.041480	10.698264	-1.159760	1.739640	-0.152600	-0.945310	-0.245056	0.213195	-1.000000	-1.000000	-1.000000	-1.000000	-1.000000	-1.000000	-1.000000	61.000000	0.000000	-1.000000	-1.000000	100123.000000	1775716820.796726
-26694.495000	-1920.330000	-9859.995000	-4504.230000	-2892.825000	-22748.175000	-1633.005000	3906.495000	6.984478	7.000913	7.485212	7.406247	6.709096	7.677909	7.570613	6.910206	-1.159760	1.739640	-0.152600	-0.945310	-0.245056	0.213195	-1.000000	-1.000000	-1.000000	-1.000000	-1.000000	-1.000000	-1.000000	61.000000	0.000000	-1.000000	-1.000000	100124.000000	1775716820.796756
-26701.695000	-1927.125000	-9867.240000	-4511.475000	-2899.980000	-22762.395000	-1644.795000	3900.960000	0.831462	1.397343	2.596916	2.264566	0.384060	-1.212886	2.851914	1.397041	-1.159760	1.739640	-0.152600	-0.945310	-0.245056	0.213195	-1.000000	-1.000000	-1.000000	-1.000000	-1.000000	-1.000000	-1.000000	61.000000	0.000000	-1.000000	-1.000000	100125.000000	1775716820.798095
-26702.280000	-1927.215000	-9868.095000	-4511.610000	-2898.405000	-22760.595000	-1646.280000	3900.735000	-5.069062	-4.193352	-2.887669	-3.338082	-5.465420	-9.058994	-2.628036	-4.007030	-1.159760	1.739640	-0.152600	-0.945310	-0.245056	0.213195	-1.000000	-1.000000	-1.000000	-1.000000	-1.000000	-1.000000	-1.000000	61.000000	0.000000	-1.000000	-1.000000	100126.000000	1775716820.798121
-26695.665000	-1920.060000	-9859.185000	-4501.755000	-2888.145000	-22744.170000	-1634.850000	3907.395000	-8.480083	-7.694693	-6.878910	-7.218252	-8.562152	-12.568729	-6.571003	-7.342514	-1.159760	1.739640	-0.152600	-0.945310	-0.245056	0.213195	-1.000000	-1.000000	-1.000000	-1.000000	-1.000000	-1.000000	-1.000000	61.000000	0.000000	-1.000000	-1.000000	100127.000000	1775716820.808990
-26697.645000	-1924.110000	-9862.695000	-4506.255000	-2891.070000	-22741.065000	-1626.840000	3906.360000	-7.936391	-7.602312	-7.461444	-7.486712	-7.485172	-9.614630	-6.517861	-7.239919	-1.159760	1.739640	-0.152600	-0.945310	-0.245056	0.213195	-1.000000	-1.000000	-1.000000	-1.000000	-1.000000	-1.000000	-1.000000	61.000000	0.000000	-1.000000	-1.000000	100128.000000	1775716820.809015
-26695.305000	-1925.640000	-9866.070000	-4510.170000	-2894.535000	-22742.730000	-1626.120000	3908.835000	-4.199618	-4.601639	-4.950232	-4.705941	-3.514459	-2.142150	-2.475055	-4.239930	-1.159760	1.739640	-0.152600	-0.945310	-0.245056	0.213195	-1.000000	-1.000000	-1.000000	-1.000000	-1.000000	-1.000000	-1.000000	61.000000	0.000000	-1.000000	-1.000000	100129.000000	1775716820.809042
-26690.355000	-1919.520000	-9859.725000	-4503.465000	-2889.990000	-22741.155000	-1623.915000	3912.660000	0.390775	-0.836834	-1.474008	-1.216745	0.428549	4.789758	2.482520	-0.344206	-1.159760	1.739640	-0.152600	-0.945310	-0.245056	0.213195	-1.000000	-1.000000	-1.000000	-1.000000	-1.000000	-1.000000	-1.000000	61.000000	0.000000	-1.000000	-1.000000	100130.000000	1775716820.809050
-26700.030000	-1922.760000	-9858.285000	-4500.180000	-2887.605000	-22742.955000	-1629.945000	3903.075000	3.616595	2.101251	1.392942	1.506037	2.647759	7.396923	4.888964	2.437780	-0.045780	0.503580	0.244160	-0.946165	-0.244933	0.214111	-1.000000	-1.000000	-1.000000	-1.000000	-1.000000	-1.000000	-1.000000	61.000000	0.000000	-1.000000	-1.000000	100131.000000	1775716820.817835
-26700.030000	-1920.735000	-9854.550000	-4497.705000	-2884.815000	-22739.625000	-1625.400000	3905.370000	4.124987	3.498311	3.163150	3.207305	3.222639	5.482080	3.561427	2.901931	-0.045780	0.503580	0.244160	-0.946165	-0.244933	0.214111	-1.000000	-1.000000	-1.000000	-1.000000	-1.000000	-1.000000	-1.000000	61.000000	0.000000	-1.000000	-1.000000	100132.000000	1775716820.817862
-26694.990000	-1920.555000	-9857.745000	-4502.790000	-2891.070000	-22746.375000	-1625.445000	3910.815000	2.282788	3.259282	3.588599	3.608809	2.602440	1.271689	0.070698	1.524913	-0.045780	0.503580	0.244160	-0.946165	-0.244933	0.214111	-1.000000	-1.000000	-1.000000	-1.000000	-1.000000	-1.000000	-1.000000	61.000000	0.000000	-1.000000	-1.000000	100133.000000	1775716820.817951
-26697.420000	-1927.395000	-9867.330000	-4512.780000	-2899.755000	-22753.800000	-1633.905000	3908.070000	0.038678	1.823626	2.363230	2.199977	0.837209	-2.914599	-3.159217	0.062420	-0.045780	0.503580	0.244160	-0.946165	-0.244933	0.214111	-1.000000	-1.000000	-1.000000	-1.000000	-1.000000	-1.000000	-1.000000	61.000000	0.000000	-1.000000	-1.000000	100134.000000	1775716820.817967
-26704.395000	-1932.705000	-9872.640000	-4518.045000	-2904.930000	-22757.940000	-1641.510000	3900.780000	-1.273473	-0.305809	-0.423461	-0.877948	-1.832748	-5.720664	-5.013783	-0.633983	-0.045780	0.503580	0.244160	-0.946165	-0.244933	0.214111	-1.000000	-1.000000	-1.000000	-1.000000	-1.000000	-1.000000	-1.000000	61.000000	0.000000	-1.000000	-1.000000	100135.000000	1775716820.820659
-26703.315000	-1931.175000	-9869.805000	-4515.120000	-2901.645000	-22753.665000	-1640.070000	3901.995000	-1.787779	-2.390886	-3.448746	-4.003297	-4.094224	-6.228973	-5.377744	-1.027695	-0.045780	0.503580	0.244160	-0.946165	-0.244933	0.214111	-1.000000	-1.000000	-1.000000	-1.000000	-1.000000	-1.000000	-1.000000	61.000000	0.000000	-1.000000	-1.000000	100136.000000	1775716820.820682
-26706.555000	-1937.430000	-9876.330000	-4520.655000	-2904.930000	-22753.620000	-1640.205000	3900.105000	-1.798732	-3.347088	-4.708829	-4.992053	-4.234701	-3.952433	-3.966820	-1.313813	-0.045780	0.503580	0.244160	-0.946165	-0.244933	0.214111	-1.000000	-1.000000	-1.000000	-1.000000	-1.000000	-1.000000	-1.000000	61.000000	0.000000	-1.000000	-1.000000	100137.000000	1775716820.823164
-26711.865000	-1941.795000	-9879.120000	-4523.940000	-2909.700000	-22759.200000	-1646.100000	3894.030000	-1.346363	-2.766824	-3.504392	-3.261066	-2.029374	0.133147	-0.947356	-1.205264	-0.045780	0.503580	0.244160	-0.946165	-0.244933	0.214111	-1.000000	-1.000000	-1.000000	-1.000000	-1.000000	-1.000000	-1.000000	61.000000	0.000000	-1.000000	-1.000000	100138.000000	1775716820.823189
-26710.200000	-1939.230000	-9876.510000	-4521.105000	-2907.630000	-22759.020000	-1645.200000	3895.245000	-0.610489	-1.159604	-0.777224	-0.075541	1.038613	3.756680	2.367508	-0.706211	-0.045780	0.503580	0.244160	-0.946165	-0.244933	0.214111	-1.000000	-1.000000	-1.000000	-1.000000	-1.000000	-1.000000	-1.000000	61.000000	0.000000	-1.000000	-1.000000	100139.000000	1775716820.829874
-26703.855000	-1932.930000	-9871.380000	-4515.615000	-2903.445000	-22755.105000	-1638.495000	3901.995000	0.454126	1.030246	2.320736	3.147435	3.547164	5.344508	4.715251	0.213078	-0.045780	0.503580	0.244160	-0.946165	-0.244933	0.214111	-1.000000	-1.000000	-1.000000	-1.000000	-1.000000	-1.000000	-1.000000	61.000000	0.000000	-1.000000	-1.000000	100140.000000	1775716820.829901
-26710.155000	-1938.330000	-9876.465000	-4520.970000	-2908.800000	-22759.470000	-1638.540000	3897.855000	1.886909	3.335850	4.803747	5.404053	4.852669	4.945976	5.802601	1.636488	-2.258480	1.724380	-0.518840	-0.945066	-0.244689	0.213867	-1.000000	-1.000000	-1.000000	-1.000000	-1.000000	-1.000000	-1.000000	61.000000	0.000000	-1.000000	-1.000000	100141.000000	1775716820.831927
-26707.455000	-1935.495000	-9872.370000	-4517.730000	-2906.505000	-22760.910000	-1640.340000	3899.160000	2.936039	4.648347	5.601679	5.760588	4.551958	3.189192	5.510668	2.878646	-2.258480	1.724380	-0.518840	-0.945066	-0.244689	0.213867	-1.000000	-1.000000	-1.000000	-1.000000	-1.000000	-1.000000	-1.000000	61.000000	0.000000	-1.000000	-1.000000	100142.000000	1775716820.831955
-26698.095000	-1926.405000	-9863.145000	-4508.955000	-2897.370000	-22751.595000	-1636.290000	3905.100000	2.977059	4.294505	4.526305	4.189123	2.938047	0.921862	3.685124	3.092746	-2.258480	1.724380	-0.518840	-0.945066	-0.244689	0.213867	-1.000000	-1.000000	-1.000000	-1.000000	-1.000000	-1.000000	-1.000000	61.000000	0.000000	-1.000000	-1.000000	100143.000000	1775716820.835137
-26695.080000	-1924.605000	-9862.245000	-4507.020000	-2893.365000	-22748.400000	-1637.280000	3905.730000	2.462147	2.915651	2.608302	1.922049	1.242368	-0.588001	0.898898	2.355464	-2.258480	1.724380	-0.518840	-0.945066	-0.244689	0.213867	-1.000000	-1.000000	-1.000000	-1.000000	-1.000000	-1.000000	-1.000000	61.000000	0.000000	-1.000000	-1.000000	100144.000000	1775716820.835164
-26692.155000	-1921.140000	-9858.870000	-4502.835000	-2888.460000	-22751.235000	-1640.070000	3909.555000	1.833735	1.296830	0.685278	0.008731	0.280003	-0.841052	-1.843944	1.183434	-2.258480	1.724380	-0.518840	-0.945066	-0.244689	0.213867	-1.000000	-1.000000	-1.000000	-1.000000	-1.000000	-1.000000	-1.000000	61.000000	0.000000	-1.000000	-1.000000	100145.000000	1775716820.840186
-26690.985000	-1918.305000	-9855.090000	-4499.460000	-2886.840000	-22764.465000	-1647.720000	3911.040000	0.820437	-0.380419	-1.099167	-1.398415	-0.275592	-0.997455	-3.979931	-0.088774	-2.258480	1.724380	-0.518840	-0.945066	-0.244689	0.213867	-1.000000	-1.000000	-1.000000	-1.000000	-1.000000	-1.000000	-1.000000	61.000000	0.000000	-1.000000	-1.000000	100146.000000	1775716820.840212
-26692.695000	-1919.970000	-9856.755000	-4502.610000	-2893.320000	-22766.805000	-1646.145000	3908.970000	-0.847035	-2.059262	-2.653673	-2.516520	-1.240313	-2.375968	-5.232661	-1.306188	-2.258480	1.724380	-0.518840	-0.945066	-0.244689	0.213867	-1.000000	-1.000000	-1.000000	-1.000000	-1.000000	-1.000000	-1.000000	61.000000	0.000000	-1.000000	-1.000000	100147.000000	1775716820.845934
-26688.555000	-1916.730000	-9855.000000	-4500.315000	-2889.090000	-22736.250000	-1621.080000	3913.560000	-2.807233	-3.509963	-3.815036	-3.523387	-2.954743	-3.827931	-4.614266	-2.344864	-2.258480	1.724380	-0.518840	-0.945066	-0.244689	0.213867	-1.000000	-1.000000	-1.000000	-1.000000	-1.000000	-1.000000	-1.000000	61.000000	0.000000	-1.000000	-1.000000	100148.000000	1775716820.845961
-26693.280000	-1920.555000	-9859.680000	-4504.770000	-2892.780000	-22728.690000	-1612.980000	3911.670000	-4.214157	-4.343711	-4.425791	-4.263594	-4.642593	-2.318750	-0.952787	-2.888259	-2.258480	1.724380	-0.518840	-0.945066	-0.244689	0.213867	-1.000000	-1.000000	-1.000000	-1.000000	-1.000000	-1.000000	-1.000000	61.000000	0.000000	-1.000000	-1.000000	100149.000000	1775716820.845991
-26689.950000	-1916.415000	-9856.350000	-4501.620000	-2890.710000	-22738.230000	-1621.305000	3913.335000	-4.450768	-4.227590	-4.292904	-4.295225	-5.101830	2.153291	4.237204	-2.696167	-2.258480	1.724380	-0.518840	-0.945066	-0.244689	0.213867	-1.000000	-1.000000	-1.000000	-1.000000	-1.000000	-1.000000	-1.000000	61.000000	0.000000	-1.000000	-1.000000	100150.000000	1775716820.846003
-26687.610000	-1914.750000	-9852.705000	-4496.670000	-2885.580000	-22735.980000	-1622.565000	3914.595000	-3.371676	-3.017769	-3.125742	-3.151279	-3.756340	5.345615	6.746078	-1.873907	0.839300	1.251320	0.274680	-0.945188	-0.246826	0.212951	-1.000000	-1.000000	-1.000000	-1.000000	-1.000000	-1.000000	-1.000000	61.000000	0.000000	-1.000000	-1.000000	100151.000000	1775716820.851206
-26690.580000	-1917.675000	-9854.055000	-4498.065000	-2885.715000	-22736.565000	-1623.870000	3912.390000	-1.301661	-1.002020	-0.916843	-0.810800	-0.932673	4.178691	4.266025	-0.743500	0.839300	1.251320	0.274680	-0.945188	-0.246826	0.212951	-1.000000	-1.000000	-1.000000	-1.000000	-1.000000	-1.000000	-1.000000	61.000000	0.000000	-1.000000	-1.000000	100152.000000	1775716820.851235
-26682.030000	-1907.775000	-9845.325000	-4489.740000	-2877.165000	-22729.545000	-1619.685000	3919.590000	0.962719	1.090038	1.640271	1.900754	2.250608	-0.022684	-1.153069	0.357245	0.839300	1.251320	0.274680	-0.945188	-0.246826	0.212951	-1.000000	-1.000000	-1.000000	-1.000000	-1.000000	-1.000000	-1.000000	61.000000	0.000000	-1.000000	-1.000000	100153.000000	1775716820.856017
-26678.070000	-1904.130000	-9842.130000	-4486.860000	-2874.600000	-22724.010000	-1617.885000	3921.615000	2.822570	2.813858	3.705800	3.953214	4.571590	-3.773397	-5.561066	1.363187	0.839300	1.251320	0.274680	-0.945188	-0.246826	0.212951	-1.000000	-1.000000	-1.000000	-1.000000	-1.000000	-1.000000	-1.000000	61.000000	0.000000	-1.000000	-1.000000	100154.000000	1775716820.856044
-26678.205000	-1905.390000	-9843.795000	-4488.345000	-2876.490000	-22725.045000	-1607.670000	3923.910000	3.930219	3.866344	4.597518	4.623388	5.167494	-4.817961	-6.366770	2.205878	0.839300	1.251320	0.274680	-0.945188	-0.246826	0.212951	-1.000000	-1.000000	-1.000000	-1.000000	-1.000000	-1.000000	-1.000000	61.000000	0.000000	-1.000000	-1.000000	100155.000000	1775716820.859162
-26686.890000	-1915.155000	-9852.750000	-4497.300000	-2885.715000	-22736.745000	-1608.705000	3917.700000	3.565297	3.400070	3.559444	3.315200	3.468683	-3.728213	-3.639133	2.326703	0.839300	1.251320	0.274680	-0.945188	-0.246826	0.212951	-1.000000	-1.000000	-1.000000	-1.000000	-1.000000	-1.000000	-1.000000	61.000000	0.000000	-1.000000	-1.000000	100156.000000	1775716820.859184
-26684.505000	-1913.310000	-9849.825000	-4495.140000	-2883.330000	-22737.735000	-1616.940000	3920.445000	1.325027	0.959715	0.577281	0.184829	-0.140417	-2.551247	0.181786	1.221873	0.839300	1.251320	0.274680	-0.945188	-0.246826	0.212951	-1.000000	-1.000000	-1.000000	-1.000000	-1.000000	-1.000000	-1.000000	61.000000	0.000000	-1.000000	-1.000000	100157.000000	1775716820.865783
-26680.815000	-1909.980000	-9845.820000	-4490.460000	-2880.315000	-22733.595000	-1625.220000	3922.470000	-1.600821	-2.117545	-2.655234	-3.027794	-3.671516	-1.991539	2.057941	-0.563994	0.839300	1.251320	0.274680	-0.945188	-0.246826	0.212951	-1.000000	-1.000000	-1.000000	-1.000000	-1.000000	-1.000000	-1.000000	61.000000	0.000000	-1.000000	-1.000000	100158.000000	1775716820.865808
-26681.040000	-1909.530000	-9846.405000	-4489.920000	-2880.675000	-22733.865000	-1620.180000	3920.040000	-3.197371	-3.618390	-3.957574	-4.143063	-4.878091	-1.015390	1.116666	-1.824368	0.839300	1.251320	0.274680	-0.945188	-0.246826	0.212951	-1.000000	-1.000000	-1.000000	-1.000000	-1.000000	-1.000000	-1.000000	61.000000	0.000000	-1.000000	-1.000000	100159.000000	1775716820.880171
-26671.185000	-1898.505000	-9836.730000	-4479.660000	-2870.055000	-22723.650000	-1609.965000	3927.690000	-2.543227	-2.548104	-2.683578	-2.535111	-3.170494	1.141690	-0.476351	-1.890463	0.839300	1.251320	0.274680	-0.945188	-0.246826	0.212951	-1.000000	-1.000000	-1.000000	-1.000000	-1.000000	-1.000000	-1.000000	61.000000	0.000000	-1.000000	-1.000000	100160.000000	1775716820.880200
-26667.270000	-1894.140000	-9832.365000	-4476.510000	-2865.780000	-22719.195000	-1607.085000	3931.110000	-0.175715	0.419802	0.232326	0.693681	0.385416	4.015641	-0.133612	-0.767699	-0.076300	1.159760	-0.152600	-0.945493	-0.243774	0.213500	-1.000000	-1.000000	-1.000000	-1.000000	-1.000000	-1.000000	-1.000000	61.000000	0.000000	-1.000000	-1.000000	100161.000000	1775716820.880228
-26669.070000	-1894.320000	-9832.140000	-4476.420000	-2865.825000	-22717.620000	-1606.905000	3930.885000	2.371808	3.459232	3.082357	3.573021	3.814295	6.223843	2.117649	0.934538	-0.076300	1.159760	-0.152600	-0.945493	-0.243774	0.213500	-1.000000	-1.000000	-1.000000	-1.000000	-1.000000	-1.000000	-1.000000	61.000000	0.000000	-1.000000	-1.000000	100162.000000	1775716820.880240
-26671.770000	-1897.290000	-9834.705000	-4479.255000	-2868.300000	-22720.005000	-1609.965000	3928.050000	3.230169	4.437528	4.046703	4.222057	5.010657	6.169500	3.953631	1.973152	-0.076300	1.159760	-0.152600	-0.945493	-0.243774	0.213500	-1.000000	-1.000000	-1.000000	-1.000000	-1.000000	-1.000000	-1.000000	61.000000	0.000000	-1.000000	-1.000000	100163.000000	1775716820.880258
-26679.915000	-1906.470000	-9843.030000	-4486.545000	-2873.655000	-22724.640000	-1614.960000	3922.110000	1.530401	2.359323	2.267234	2.033261	3.098948	3.250859	3.393148	1.350015	-0.076300	1.159760	-0.152600	-0.945493	-0.243774	0.213500	-1.000000	-1.000000	-1.000000	-1.000000	-1.000000	-1.000000	-1.000000	61.000000	0.000000	-1.000000	-1.000000	100164.000000	1775716820.880269
-26676.180000	-1903.365000	-9839.250000	-4483.485000	-2872.395000	-22728.060000	-1612.395000	3925.710000	-1.733131	-1.716290	-1.333772	-1.766968	-0.794315	-1.452290	0.574731	-0.630635	-0.076300	1.159760	-0.152600	-0.945493	-0.243774	0.213500	-1.000000	-1.000000	-1.000000	-1.000000	-1.000000	-1.000000	-1.000000	61.000000	0.000000	-1.000000	-1.000000	100165.000000	1775716820.880283
-26672.985000	-1902.825000	-9838.980000	-4485.465000	-2880.270000	-22737.780000	-1619.640000	3926.745000	-4.186155	-5.125649	-4.373284	-4.770994	-4.371070	-5.843451	-2.633206	-2.378124	-0.076300	1.159760	-0.152600	-0.945493	-0.243774	0.213500	-1.000000	-1.000000	-1.000000	-1.000000	-1.000000	-1.000000	-1.000000	61.000000	0.000000	-1.000000	-1.000000	100166.000000	1775716820.880294
-26671.770000	-1903.365000	-9839.565000	-4484.610000	-2877.840000	-22732.515000	-1619.595000	3926.340000	-3.955254	-5.632777	-4.860900	-5.170562	-5.827092	-7.964413	-4.455572	-2.494470	-0.076300	1.159760	-0.152600	-0.945493	-0.243774	0.213500	-1.000000	-1.000000	-1.000000	-1.000000	-1.000000	-1.000000	-1.000000	61.000000	0.000000	-1.000000	-1.000000	100167.000000	1775716820.887188
-26680.455000	-1914.435000	-9852.255000	-4496.625000	-2884.725000	-22732.245000	-1620.225000	3921.885000	-1.506531	-3.436493	-3.056013	-3.230269	-4.738587	-6.667997	-4.219222	-1.163098	-0.076300	1.159760	-0.152600	-0.945493	-0.243774	0.213500	-1.000000	-1.000000	-1.000000	-1.000000	-1.000000	-1.000000	-1.000000	61.000000	0.000000	-1.000000	-1.000000	100168.000000	1775716820.887214
-26678.430000	-1910.160000	-9848.295000	-4493.475000	-2881.935000	-22730.445000	-1618.290000	3923.415000	1.013189	-0.511017	-0.771916	-0.663298	-1.897734	-2.354910	-2.155665	0.385256	-0.076300	1.159760	-0.152600	-0.945493	-0.243774	0.213500	-1.000000	-1.000000	-1.000000	-1.000000	-1.000000	-1.000000	-1.000000	61.000000	0.000000	-1.000000	-1.000000	100169.000000	1775716820.887293
-26684.100000	-1912.770000	-9850.770000	-4496.040000	-2885.265000	-22735.440000	-1621.845000	3918.645000	2.121043	1.752854	0.934804	1.345100	1.366155	2.739025	0.729296	1.259454	-0.076300	1.159760	-0.152600	-0.945493	-0.243774	0.213500	-1.000000	-1.000000	-1.000000	-1.000000	-1.000000	-1.000000	-1.000000	61.000000	0.000000	-1.000000	-1.000000	100170.000000	1775716820.887310
-26684.145000	-1913.940000	-9851.355000	-4496.895000	-2885.535000	-22734.990000	-1622.610000	3917.745000	1.860014	3.120472	2.173159	2.680749	3.839599	5.962268	2.988659	1.294626	-3.647140	1.739640	0.442540	-0.944761	-0.240783	0.214782	-1.000000	-1.000000	-1.000000	-1.000000	-1.000000	-1.000000	-1.000000	61.000000	0.000000	-1.000000	-1.000000	100171.000000	1775716820.891218
-26680.590000	-1909.305000	-9846.180000	-4491.945000	-2881.080000	-22733.595000	-1621.980000	3920.445000	1.134599	3.674604	3.123253	3.481200	4.880010	6.207030	3.692639	0.873417	-3.647140	1.739640	0.442540	-0.944761	-0.240783	0.214782	-1.000000	-1.000000	-1.000000	-1.000000	-1.000000	-1.000000	-1.000000	61.000000	0.000000	-1.000000	-1.000000	100172.000000	1775716820.891241
-26673.975000	-1899.945000	-9836.190000	-4481.550000	-2870.775000	-22724.190000	-1615.545000	3926.790000	1.011520	3.785079	3.926687	4.021476	4.808547	4.452020	3.115177	0.768173	-3.647140	1.739640	0.442540	-0.944761	-0.240783	0.214782	-1.000000	-1.000000	-1.000000	-1.000000	-1.000000	-1.000000	-1.000000	61.000000	0.000000	-1.000000	-1.000000	100173.000000	1775716820.903323
-26679.015000	-1904.715000	-9839.745000	-4483.485000	-2870.595000	-22723.020000	-1616.220000	3923.460000	1.720868	3.727941	4.495000	4.417584	4.298591	2.451543	2.173351	1.335723	-3.647140	1.739640	0.442540	-0.944761	-0.240783	0.214782	-1.000000	-1.000000	-1.000000	-1.000000	-1.000000	-1.000000	-1.000000	61.000000	0.000000	-1.000000	-1.000000	100174.000000	1775716820.903350
-26678.790000	-1906.920000	-9842.850000	-4485.555000	-2871.270000	-22723.290000	-1616.760000	3924.225000	2.206620	2.862328	3.896337	3.884868	3.202678	0.952910	1.250525	1.864583	-3.647140	1.739640	0.442540	-0.944761	-0.240783	0.214782	-1.000000	-1.000000	-1.000000	-1.000000	-1.000000	-1.000000	-1.000000	61.000000	0.000000	-1.000000	-1.000000	100175.000000	1775716820.903377
-26683.965000	-1913.580000	-9850.815000	-4494.600000	-2884.410000	-22736.250000	-1621.665000	3921.345000	1.375397	0.442874	1.226879	1.425995	0.706893	-0.700490	0.022567	1.415247	-3.647140	1.739640	0.442540	-0.944761	-0.240783	0.214782	-1.000000	-1.000000	-1.000000	-1.000000	-1.000000	-1.000000	-1.000000	61.000000	0.000000	-1.000000	-1.000000	100176.000000	1775716820.903390
-26693.010000	-1921.320000	-9857.745000	-4503.330000	-2896.380000	-22749.615000	-1634.805000	3912.165000	-0.789619	-3.073880	-2.971632	-2.752236	-3.435361	-3.410215	-1.876420	-0.217052	-3.647140	1.739640	0.442540	-0.944761	-0.240783	0.214782	-1.000000	-1.000000	-1.000000	-1.000000	-1.000000	-1.000000	-1.000000	61.000000	0.000000	-1.000000	-1.000000	100177.000000	1775716820.903451
-26692.470000	-1919.790000	-9855.585000	-4500.900000	-2893.950000	-22749.480000	-1639.080000	3910.185000	-3.311070	-6.060552	-6.652686	-6.802095	-7.748136	-6.632566	-4.237013	-2.481961	-3.647140	1.739640	0.442540	-0.944761	-0.240783	0.214782	-1.000000	-1.000000	-1.000000	-1.000000	-1.000000	-1.000000	-1.000000	61.000000	0.000000	-1.000000	-1.000000	100178.000000	1775716820.903467
-26688.645000	-1916.010000	-9852.120000	-4497.525000	-2890.305000	-22750.740000	-1639.395000	3912.570000	-4.530534	-6.580224	-7.447912	-8.105771	-9.274783	-8.027797	-5.783671	-4.087134	-3.647140	1.739640	0.442540	-0.944761	-0.240783	0.214782	-1.000000	-1.000000	-1.000000	-1.000000	-1.000000	-1.000000	-1.000000	61.000000	0.000000	-1.000000	-1.000000	100179.000000	1775716820.905592
-26686.485000	-1914.795000	-9850.590000	-4495.140000	-2885.985000	-22739.490000	-1624.815000	3916.755000	-3.186093	-3.840757	-4.510431	-5.366850	-6.130808	-5.527054	-4.644865	-3.589507	-3.647140	1.739640	0.442540	-0.944761	-0.240783	0.214782	-1.000000	-1.000000	-1.000000	-1.000000	-1.000000	-1.000000	-1.000000	61.000000	0.000000	-1.000000	-1.000000	100180.000000	1775716820.905619
-26681.940000	-1913.445000	-9850.185000	-4495.140000	-2884.320000	-22728.330000	-1613.520000	3923.055000	0.238638	0.795706	0.535558	-0.025126	0.339432	0.646487	-0.027916	-0.736773	-3.082520	0.854560	0.213640	-0.945005	-0.243224	0.216369	-1.000000	-1.000000	-1.000000	-1.000000	-1.000000	-1.000000	-1.000000	61.000000	0.000000	-1.000000	-1.000000	100181.000000	1775716820.910563
-26687.700000	-1919.115000	-9855.180000	-4500.315000	-2890.395000	-22733.910000	-1617.660000	3917.115000	3.683143	4.668623	4.748264	4.759799	6.415740	7.626357	6.116030	2.926806	-3.082520	0.854560	0.213640	-0.945005	-0.243224	0.216369	-1.000000	-1.000000	-1.000000	-1.000000	-1.000000	-1.000000	-1.000000	61.000000	0.000000	-1.000000	-1.000000	100182.000000	1775716820.910583
-26682.570000	-1912.815000	-9847.665000	-4493.070000	-2883.870000	-22733.640000	-1619.370000	3919.230000	5.069443	5.841582	6.113307	6.595297	8.868950	11.243430	9.681972	5.008682	-3.082520	0.854560	0.213640	-0.945005	-0.243224	0.216369	-1.000000	-1.000000	-1.000000	-1.000000	-1.000000	-1.000000	-1.000000	61.000000	0.000000	-1.000000	-1.000000	100183.000000	1775716820.914831
-26689.455000	-1920.150000	-9855.045000	-4500.270000	-2889.900000	-22739.490000	-1626.615000	3913.110000	3.816190	4.324087	4.721388	5.355962	7.164036	9.157964	7.860792	4.206892	-3.082520	0.854560	0.213640	-0.945005	-0.243224	0.216369	-1.000000	-1.000000	-1.000000	-1.000000	-1.000000	-1.000000	-1.000000	61.000000	0.000000	-1.000000	-1.000000	100184.000000	1775716820.914857
-26686.215000	-1917.585000	-9851.805000	-4496.895000	-2887.065000	-22735.800000	-1622.295000	3916.620000	0.911619	1.403099	1.872606	2.382884	3.002768	2.823308	1.736630	1.262938	-3.082520	0.854560	0.213640	-0.945005	-0.243224	0.216369	-1.000000	-1.000000	-1.000000	-1.000000	-1.000000	-1.000000	-1.000000	61.000000	0.000000	-1.000000	-1.000000	100185.000000	1775716820.923721
-26682.615000	-1914.885000	-9849.150000	-4493.970000	-2885.085000	-22732.245000	-1621.935000	3919.320000	-1.889769	-1.341849	-0.928108	-0.650341	-1.267254	-3.811064	-4.723868	-1.768058	-3.082520	0.854560	0.213640	-0.945005	-0.243224	0.216369	-1.000000	-1.000000	-1.000000	-1.000000	-1.000000	-1.000000	-1.000000	61.000000	0.000000	-1.000000	-1.000000	100186.000000	1775716820.923748
-26682.165000	-1912.815000	-9847.845000	-4492.800000	-2883.105000	-22730.760000	-1621.665000	3922.335000	-3.073192	-2.600780	-2.414571	-2.342400	-3.767267	-7.276834	-7.950566	-3.051053	-3.082520	0.854560	0.213640	-0.945005	-0.243224	0.216369	-1.000000	-1.000000	-1.000000	-1.000000	-1.000000	-1.000000	-1.000000	61.000000	0.000000	-1.000000	-1.000000	100187.000000	1775716820.934064
-26688.915000	-1919.475000	-9854.865000	-4499.145000	-2887.515000	-22735.980000	-1625.760000	3917.430000	-2.596953	-2.278388	-2.459476	-2.516697	-4.066214	-6.877108	-7.190237	-2.385069	-3.082520	0.854560	0.213640	-0.945005	-0.243224	0.216369	-1.000000	-1.000000	-1.000000	-1.000000	-1.000000	-1.000000	-1.000000	61.000000	0.000000	-1.000000	-1.000000	100188.000000	1775716820.934089
-26698.815000	-1930.410000	-9866.205000	-4511.025000	-2900.205000	-22746.060000	-1631.880000	3909.330000	-1.857667	-1.678312	-2.229059	-2.345311	-3.346250	-4.537544	-4.183793	-1.210570	-3.082520	0.854560	0.213640	-0.945005	-0.243224	0.216369	-1.000000	-1.000000	-1.000000	-1.000000	-1.000000	-1.000000	-1.000000	61.000000	0.000000	-1.000000	-1.000000	100189.000000	1775716820.934116
-26697.420000	-1930.770000	-9867.420000	-4512.780000	-2902.365000	-22748.580000	-1629.495000	3909.195000	-1.894248	-1.935522	-2.679280	-2.839827	-3.031460	-2.529647	-1.070884	-0.922842	-3.082520	0.854560	0.213640	-0.945005	-0.243224	0.216369	-1.000000	-1.000000	-1.000000	-1.000000	-1.000000	-1.000000	-1.000000	61.000000	0.000000	-1.000000	-1.000000	100190.000000	1775716820.934128
-26702.640000	-1934.865000	-9872.235000	-4517.730000	-2908.395000	-22756.725000	-1636.785000	3899.250000	-2.153974	-2.552406	-3.235462	-3.479537	-3.144276	-1.524072	1.129377	-1.492253	-1.464960	1.617560	-1.098720	-0.943662	-0.246765	0.218017	-1.000000	-1.000000	-1.000000	-1.000000	-1.000000	-1.000000	-1.000000	61.000000	0.000000	-1.000000	-1.000000	100191.000000	1775716820.934142
-26704.755000	-1935.360000	-9870.705000	-4516.920000	-2908.530000	-22760.325000	-1639.440000	3897.495000	-1.581471	-2.219266	-2.592430	-2.928156	-2.577170	-0.868523	2.238335	-2.022760	-1.464960	1.617560	-1.098720	-0.943662	-0.246765	0.218017	-1.000000	-1.000000	-1.000000	-1.000000	-1.000000	-1.000000	-1.000000	61.000000	0.000000	-1.000000	-1.000000	100192.000000	1775716820.934153
-26704.170000	-1932.705000	-9865.575000	-4512.150000	-2903.355000	-22754.070000	-1636.065000	3901.140000	0.021380	-0.409873	-0.202445	-0.564298	-0.521480	0.331390	2.488866	-1.607846	-1.464960	1.617560	-1.098720	-0.943662	-0.246765	0.218017	-1.000000	-1.000000	-1.000000	-1.000000	-1.000000	-1.000000	-1.000000	61.000000	0.000000	-1.000000	-1.000000	100193.000000	1775716820.936206
-26709.345000	-1939.365000	-9872.640000	-4519.665000	-2911.230000	-22769.955000	-1649.790000	3896.730000	2.028458	2.171838	3.111077	2.827297	2.618968	2.299143	2.309278	0.185479	-1.464960	1.617560	-1.098720	-0.943662	-0.246765	0.218017	-1.000000	-1.000000	-1.000000	-1.000000	-1.000000	-1.000000	-1.000000	61.000000	0.000000	-1.000000	-1.000000	100194.000000	1775716820.936221
-26702.100000	-1932.840000	-9866.565000	-4513.680000	-2905.020000	-22772.745000	-1650.960000	3902.985000	3.591483	4.152368	5.533055	5.426353	5.262701	3.865233	1.656317	2.714361	-1.464960	1.617560	-1.098720	-0.943662	-0.246765	0.218017	-1.000000	-1.000000	-1.000000	-1.000000	-1.000000	-1.000000	-1.000000	61.000000	0.000000	-1.000000	-1.000000	100195.000000	1775716820.939130
-26699.805000	-1930.770000	-9864.765000	-4511.205000	-2902.590000	-22756.005000	-1640.115000	3904.785000	4.350494	4.760975	5.884460	6.025904	6.152087	4.193780	0.796859	4.783873	-1.464960	1.617560	-1.098720	-0.943662	-0.246765	0.218017	-1.000000	-1.000000	-1.000000	-1.000000	-1.000000	-1.000000	-1.000000	61.000000	0.000000	-1.000000	-1.000000	100196.000000	1775716820.939158
-26710.740000	-1941.210000	-9875.475000	-4522.230000	-2910.465000	-22740.120000	-1628.865000	3896.820000	4.099775	3.948549	4.206094	4.613180	5.115468	4.563925	1.074350	5.339706	-1.464960	1.617560	-1.098720	-0.943662	-0.246765	0.218017	-1.000000	-1.000000	-1.000000	-1.000000	-1.000000	-1.000000	-1.000000	61.000000	0.000000	-1.000000	-1.000000	100197.000000	1775716820.942911
-26712.270000	-1944.630000	-9878.490000	-4524.705000	-2913.165000	-22749.030000	-1634.490000	3894.975000	2.267317	1.600973	0.896304	1.483731	2.334256	5.756420	2.847593	3.649065	-1.464960	1.617560	-1.098720	-0.943662	-0.246765	0.218017	-1.000000	-1.000000	-1.000000	-1.000000	-1.000000	-1.000000	-1.000000	61.000000	0.000000	-1.000000	-1.000000	100198.000000	1775716820.942937
-26711.190000	-1941.840000	-9877.095000	-4523.130000	-2912.850000	-22755.285000	-1636.920000	3896.055000	-0.799951	-1.636896	-2.908646	-2.315307	-1.357517	5.598681	4.060359	0.256340	-1.464960	1.617560	-1.098720	-0.943662	-0.246765	0.218017	-1.000000	-1.000000	-1.000000	-1.000000	-1.000000	-1.000000	-1.000000	61.000000	0.000000	-1.000000	-1.000000	100199.000000	1775716820.945968
-26720.595000	-1949.130000	-9882.765000	-4529.475000	-2920.140000	-22765.590000	-1645.335000	3886.560000	-3.493226	-4.037857	-5.301306	-4.892709	-4.338593	1.752860	2.500615	-3.065129	-1.464960	1.617560	-1.098720	-0.943662	-0.246765	0.218017	-1.000000	-1.000000	-1.000000	-1.000000	-1.000000	-1.000000	-1.000000	61.000000	0.000000	-1.000000	-1.000000	100200.000000	1775716820.945987
-26721.630000	-1950.750000	-9883.170000	-4529.115000	-2920.140000	-22766.220000	-1645.875000	3886.695000	-4.665061	-4.527019	-5.261097	-5.175944	-5.466030	-4.712575	-1.577003	-4.940484	0.427280	2.334780	-0.457800	-0.941709	-0.247985	0.218627	-1.000000	-1.000000	-1.000000	-1.000000	-1.000000	-1.000000	-1.000000	61.000000	0.000000	-1.000000	-1.000000	100201.000000	1775716820.949641
-26710.515000	-1943.505000	-9877.230000	-4522.815000	-2913.255000	-22758.255000	-1640.565000	3897.135000	-3.917844	-3.191715	-3.121136	-3.352379	-4.436807	-9.789373	-5.529359	-4.679845	0.427280	2.334780	-0.457800	-0.941709	-0.247985	0.218627	-1.000000	-1.000000	-1.000000	-1.000000	-1.000000	-1.000000	-1.000000	61.000000	0.000000	-1.000000	-1.000000	100202.000000	1775716820.949661
-26705.655000	-1938.690000	-9871.785000	-4517.415000	-2907.855000	-22754.160000	-1637.820000	3898.980000	-1.067524	-0.416592	0.288602	-0.099792	-1.430146	-9.907116	-6.536232	-2.026169	0.427280	2.334780	-0.457800	-0.941709	-0.247985	0.218627	-1.000000	-1.000000	-1.000000	-1.000000	-1.000000	-1.000000	-1.000000	61.000000	0.000000	-1.000000	-1.000000	100203.000000	1775716820.955179
-26704.305000	-1936.575000	-9870.705000	-4516.380000	-2907.540000	-22754.745000	-1640.070000	3899.070000	2.871816	2.876874	3.721869	3.343755	2.403269	-5.061695	-4.085324	1.828951	0.427280	2.334780	-0.457800	-0.941709	-0.247985	0.218627	-1.000000	-1.000000	-1.000000	-1.000000	-1.000000	-1.000000	-1.000000	61.000000	0.000000	-1.000000	-1.000000	100204.000000	1775716820.955204
-26697.330000	-1929.240000	-9863.865000	-4509.945000	-2901.915000	-22752.180000	-1633.770000	3905.775000	5.658811	5.135500	5.652463	5.350505	5.090283	1.366674	-0.114402	4.601584	0.427280	2.334780	-0.457800	-0.941709	-0.247985	0.218627	-1.000000	-1.000000	-1.000000	-1.000000	-1.000000	-1.000000	-1.000000	61.000000	0.000000	-1.000000	-1.000000	100205.000000	1775716820.958734
-26692.290000	-1925.865000	-9860.895000	-4507.920000	-2900.565000	-22754.205000	-1636.965000	3908.745000	5.824688	5.321147	5.303831	5.046153	5.330815	5.703397	3.064889	5.005392	0.427280	2.334780	-0.457800	-0.941709	-0.247985	0.218627	-1.000000	-1.000000	-1.000000	-1.000000	-1.000000	-1.000000	-1.000000	61.000000	0.000000	-1.000000	-1.000000	100206.000000	1775716820.958758
-26697.510000	-1933.245000	-9868.050000	-4514.895000	-2907.180000	-22753.575000	-1636.470000	3907.305000	3.469441	3.306764	2.876307	2.609148	3.128069	6.340197	4.128147	3.268541	0.427280	2.334780	-0.457800	-0.941709	-0.247985	0.218627	-1.000000	-1.000000	-1.000000	-1.000000	-1.000000	-1.000000	-1.000000	61.000000	0.000000	-1.000000	-1.000000	100207.000000	1775716820.962393
-26700.120000	-1934.550000	-9867.870000	-4514.265000	-2907.765000	-22751.280000	-1634.760000	3903.885000	-0.564940	-0.470737	-0.945924	-1.182472	-0.661951	4.017057	3.041372	0.179251	0.427280	2.334780	-0.457800	-0.941709	-0.247985	0.218627	-1.000000	-1.000000	-1.000000	-1.000000	-1.000000	-1.000000	-1.000000	61.000000	0.000000	-1.000000	-1.000000	100208.000000	1775716820.962418
-26703.135000	-1933.065000	-9864.855000	-4510.440000	-2904.525000	-22752.090000	-1633.095000	3902.850000	-4.901018	-4.597314	-4.694276	-4.738445	-4.339848	0.738032	0.939770	-3.218235	0.427280	2.334780	-0.457800	-0.941709	-0.247985	0.218627	-1.000000	-1.000000	-1.000000	-1.000000	-1.000000	-1.000000	-1.000000	61.000000	0.000000	-1.000000	-1.000000	100209.000000	1775716820.981240
-26700.480000	-1930.770000	-9862.740000	-4508.055000	-2901.510000	-22748.805000	-1633.545000	3905.730000	-7.641534	-6.900946	-6.416008	-6.122556	-5.889546	-1.741962	-0.855687	-5.516246	0.427280	2.334780	-0.457800	-0.941709	-0.247985	0.218627	-1.000000	-1.000000	-1.000000	-1.000000	-1.000000	-1.000000	-1.000000	61.000000	0.000000	-1.000000	-1.000000	100210.000000	1775716820.981267
-26693.865000	-1925.370000	-9858.015000	-4503.555000	-2894.670000	-22738.500000	-1624.680000	3913.695000	-7.241388	-6.051992	-5.217692	-4.632863	-4.450997	-2.486965	-1.606741	-5.414079	-0.900340	3.525060	-0.061040	-0.941709	-0.246398	0.219177	-1.000000	-1.000000	-1.000000	-1.000000	-1.000000	-1.000000	-1.000000	61.000000	0.000000	-1.000000	-1.000000	100211.000000	1775716820.981294
-26690.715000	-1923.165000	-9855.540000	-4500.900000	-2891.565000	-22735.260000	-1624.275000	3915.630000	-3.631899	-2.578139	-1.933894	-1.313906	-0.945137	-1.374192	-1.150116	-2.726936	-0.900340	3.525060	-0.061040	-0.941709	-0.246398	0.219177	-1.000000	-1.000000	-1.000000	-1.000000	-1.000000	-1.000000	-1.000000	61.000000	0.000000	-1.000000	-1.000000	100212.000000	1775716820.981304
-26689.320000	-1920.870000	-9852.975000	-4498.335000	-2889.765000	-22735.620000	-1626.840000	3915.135000	1.361622	1.563862	1.608727	1.973973	2.589392	0.526494	-0.133982	1.010526	-0.900340	3.525060	-0.061040	-0.941709	-0.246398	0.219177	-1.000000	-1.000000	-1.000000	-1.000000	-1.000000	-1.000000	-1.000000	61.000000	0.000000	-1.000000	-1.000000	100213.000000	1775716820.981316
-26695.080000	-1926.045000	-9856.890000	-4502.880000	-2895.300000	-22741.065000	-1629.675000	3911.580000	4.978270	4.174034	3.646240	3.610082	4.145601	1.368342	0.223772	3.454743	-0.900340	3.525060	-0.061040	-0.941709	-0.246398	0.219177	-1.000000	-1.000000	-1.000000	-1.000000	-1.000000	-1.000000	-1.000000	61.000000	0.000000	-1.000000	-1.000000	100214.000000	1775716820.981326
-26699.760000	-1929.555000	-9860.940000	-4507.695000	-2900.565000	-22746.240000	-1630.395000	3907.485000	5.305834	4.002677	3.267061	2.848498	2.831795	0.085179	-0.582632	3.247158	-0.900340	3.525060	-0.061040	-0.941709	-0.246398	0.219177	-1.000000	-1.000000	-1.000000	-1.000000	-1.000000	-1.000000	-1.000000	61.000000	0.000000	-1.000000	-1.000000	100215.000000	1775716820.981339
-26698.995000	-1927.890000	-9859.185000	-4505.625000	-2899.305000	-22745.430000	-1620.945000	3909.285000	2.636330	1.560074	0.971530	0.319106	-0.438290	-2.535533	-1.625248	0.975487	-0.900340	3.525060	-0.061040	-0.941709	-0.246398	0.219177	-1.000000	-1.000000	-1.000000	-1.000000	-1.000000	-1.000000	-1.000000	61.000000	0.000000	-1.000000	-1.000000	100216.000000	1775716820.981349
-26708.130000	-1938.915000	-9869.805000	-4516.425000	-2909.160000	-22753.800000	-1623.645000	3900.780000	-0.933447	-1.368921	-1.674991	-2.305514	-3.528115	-4.550821	-1.541876	-1.560591	-0.900340	3.525060	-0.061040	-0.941709	-0.246398	0.219177	-1.000000	-1.000000	-1.000000	-1.000000	-1.000000	-1.000000	-1.000000	61.000000	0.000000	-1.000000	-1.000000	100217.000000	1775716820.997275
-26710.605000	-1943.055000	-9875.790000	-4522.365000	-2913.480000	-22762.080000	-1641.690000	3896.505000	-3.420124	-3.377644	-3.459285	-3.805396	-4.884647	-4.778876	-0.592512	-3.034803	-0.900340	3.525060	-0.061040	-0.941709	-0.246398	0.219177	-1.000000	-1.000000	-1.000000	-1.000000	-1.000000	-1.000000	-1.000000	61.000000	0.000000	-1.000000	-1.000000	100218.000000	1775716820.997302
-26707.455000	-1941.390000	-9875.070000	-4521.195000	-2912.985000	-22759.695000	-1649.475000	3900.600000	-3.837843	-3.828176	-3.872452	-3.803578	-4.167132	-3.318706	-0.613174	-3.003611	-0.900340	3.525060	-0.061040	-0.941709	-0.246398	0.219177	-1.000000	-1.000000	-1.000000	-1.000000	-1.000000	-1.000000	-1.000000	61.000000	0.000000	-1.000000	-1.000000	100219.000000	1775716820.997330
-26709.660000	-1943.550000	-9877.950000	-4525.155000	-2918.565000	-22763.025000	-1648.665000	3898.260000	-2.040472	-2.384644	-2.569901	-2.150912	-1.715266	-0.588442	-2.013924	-1.368298	-0.900340	3.525060	-0.061040	-0.941709	-0.246398	0.219177	-1.000000	-1.000000	-1.000000	-1.000000	-1.000000	-1.000000	-1.000000	61.000000	0.000000	-1.000000	-1.000000	100220.000000	1775716820.997340
-26700.255000	-1932.750000	-9866.070000	-4513.005000	-2904.165000	-22748.985000	-1637.460000	3906.990000	1.155788	0.654890	0.373618	0.910333	1.714101	2.946703	-2.564609	1.397335	-3.036740	3.876040	0.030520	-0.943113	-0.244079	0.217895	-1.000000	-1.000000	-1.000000	-1.000000	-1.000000	-1.000000	-1.000000	61.000000	0.000000	-1.000000	-1.000000	100221.000000	1775716820.997353
-26697.150000	-1929.870000	-9861.570000	-4507.290000	-2898.495000	-22743.270000	-1631.475000	3910.095000	4.383329	4.257902	4.198827	4.627701	5.348416	6.585238	-0.115830	4.241763	-3.036740	3.876040	0.030520	-0.943113	-0.244079	0.217895	-1.000000	-1.000000	-1.000000	-1.000000	-1.000000	-1.000000	-1.000000	61.000000	0.000000	-1.000000	-1.000000	100222.000000	1775716820.997362
-26699.265000	-1931.355000	-9861.840000	-4509.045000	-2902.635000	-22751.730000	-1633.770000	3908.160000	6.192339	6.795790	7.315873	7.564850	7.983287	8.854965	4.446944	5.875330	-3.036740	3.876040	0.030520	-0.943113	-0.244079	0.217895	-1.000000	-1.000000	-1.000000	-1.000000	-1.000000	-1.000000	-1.000000	61.000000	0.000000	-1.000000	-1.000000	100223.000000	1775716820.997374
-26700.030000	-1931.715000	-9862.965000	-4511.655000	-2906.820000	-22764.375000	-1642.635000	3905.955000	5.399138	6.603470	7.723114	7.751615	7.698253	7.542765	7.576977	5.132221	-3.036740	3.876040	0.030520	-0.943113	-0.244079	0.217895	-1.000000	-1.000000	-1.000000	-1.000000	-1.000000	-1.000000	-1.000000	61.000000	0.000000	-1.000000	-1.000000	100224.000000	1775716820.997384
-26688.600000	-1921.365000	-9853.740000	-4503.870000	-2898.855000	-22760.190000	-1639.080000	3914.595000	2.321409	3.629705	4.861242	4.554493	3.943740	2.184112	6.559873	2.154574	-3.036740	3.876040	0.030520	-0.943113	-0.244079	0.217895	-1.000000	-1.000000	-1.000000	-1.000000	-1.000000	-1.000000	-1.000000	61.000000	0.000000	-1.000000	-1.000000	100225.000000	1775716821.005563
