Channel1	Channel2	Channel3	Channel4	Channel5	Channel6	Channel7	Channel8	FilteredChannel1	FilteredChannel2	FilteredChannel3	FilteredChannel4	FilteredChannel5	FilteredChannel6	FilteredChannel7	FilteredChannel8	GyroX	GyroY	GyroZ	AccX	AccY	AccZ	PPG1	PPG2	rawPPG1	rawPPG2	rawPPG3	Hr	Hrv	Battery	Trigger	PhysicalTrigger	AutoTrigger	NumMeasurements	Timestamp
89948.115000	-37146.735000	18182.835000	46422.225000	29425.545000	26410.635000	39119.535000	-13069.620000	-7.266012	7.120504	8.280638	12.279935	3.261998	9.837900	-21.662635	-7.181107	32.686920	-76.666240	11.017720	-0.882261	-0.198852	0.470885	-1.000000	-1.000000	-1.000000	-1.000000	-1.000000	-1.000000	-1.000000	65.000000	0.000000	-1.000000	-1.000000	419617.000000	1776577238.163160
89936.955000	-37150.650000	18192.195000	46433.340000	29436.885000	26479.620000	39131.955000	-13068.180000	6.699683	2.930965	0.678470	4.223479	3.140110	29.474703	-20.091012	0.304649	32.686920	-76.666240	11.017720	-0.882261	-0.198852	0.470885	-1.000000	-1.000000	-1.000000	-1.000000	-1.000000	-1.000000	-1.000000	65.000000	0.000000	-1.000000	-1.000000	419618.000000	1776577238.163172
89929.530000	-37144.620000	18203.670000	46446.660000	29449.215000	26528.355000	39129.660000	-13070.565000	19.033442	0.185715	-2.878504	-0.787035	3.353900	39.207459	-9.453932	8.082262	32.686920	-76.666240	11.017720	-0.882261	-0.198852	0.470885	-1.000000	-1.000000	-1.000000	-1.000000	-1.000000	-1.000000	-1.000000	65.000000	0.000000	-1.000000	-1.000000	419619.000000	1776577238.167074
89948.655000	-37118.655000	18238.005000	46496.295000	29503.440000	26512.155000	39123.495000	-13067.100000	23.199676	-0.523023	-2.857377	-3.325977	3.339550	43.249732	4.530696	12.262116	32.686920	-76.666240	11.017720	-0.882261	-0.198852	0.470885	-1.000000	-1.000000	-1.000000	-1.000000	-1.000000	-1.000000	-1.000000	65.000000	0.000000	-1.000000	-1.000000	419620.000000	1776577238.167083
89945.415000	-37094.130000	18280.080000	46556.235000	29556.810000	26465.085000	39120.480000	-13067.685000	18.978909	1.309829	-0.266239	-2.788137	4.702149	37.200708	14.314568	11.357268	32.686920	-76.666240	11.017720	-0.882261	-0.198852	0.470885	-1.000000	-1.000000	-1.000000	-1.000000	-1.000000	-1.000000	-1.000000	65.000000	0.000000	-1.000000	-1.000000	419621.000000	1776577238.170981
89873.775000	-37117.845000	18268.695000	46542.330000	29561.895000	26502.975000	39121.785000	-13084.470000	8.823439	4.068864	2.906892	0.097980	7.388460	16.592689	16.159362	6.282534	32.686920	-76.666240	11.017720	-0.882261	-0.198852	0.470885	-1.000000	-1.000000	-1.000000	-1.000000	-1.000000	-1.000000	-1.000000	65.000000	0.000000	-1.000000	-1.000000	419622.000000	1776577238.170991
89827.335000	-37117.395000	18235.935000	46483.605000	29510.775000	26564.805000	39105.495000	-13113.540000	-6.490387	3.371523	1.682254	-1.233831	5.594017	-9.204206	11.326492	-1.449250	32.686920	-76.666240	11.017720	-0.882261	-0.198852	0.470885	-1.000000	-1.000000	-1.000000	-1.000000	-1.000000	-1.000000	-1.000000	65.000000	0.000000	-1.000000	-1.000000	419623.000000	1776577238.174911
89905.635000	-37143.090000	18208.755000	46425.915000	29451.870000	26548.380000	39100.905000	-13106.970000	-21.399644	-3.088873	-7.891166	-13.847888	-7.580764	-24.532725	3.302551	-9.497219	32.686920	-76.666240	11.017720	-0.882261	-0.198852	0.470885	-1.000000	-1.000000	-1.000000	-1.000000	-1.000000	-1.000000	-1.000000	65.000000	0.000000	-1.000000	-1.000000	419624.000000	1776577238.174920
89985.645000	-37183.320000	18151.605000	46383.930000	29430.855000	26490.150000	39097.935000	-13095.045000	-22.021515	-12.929225	-22.835331	-34.316890	-29.557632	-26.643788	-4.112097	-13.386783	32.686920	-76.666240	11.017720	-0.882261	-0.198852	0.470885	-1.000000	-1.000000	-1.000000	-1.000000	-1.000000	-1.000000	-1.000000	65.000000	0.000000	-1.000000	-1.000000	419625.000000	1776577238.179128
90007.740000	-37106.415000	18152.415000	46398.960000	29446.425000	26431.425000	39090.285000	-13079.340000	-1.704672	-19.808473	-34.272058	-47.890896	-45.758579	-25.896498	-7.894607	-9.367410	32.686920	-76.666240	11.017720	-0.882261	-0.198852	0.470885	-1.000000	-1.000000	-1.000000	-1.000000	-1.000000	-1.000000	-1.000000	65.000000	0.000000	-1.000000	-1.000000	419626.000000	1776577238.179154
89980.200000	-37117.215000	18154.755000	46394.955000	29444.805000	26482.635000	39087.900000	-13083.570000	25.035086	-15.887898	-32.727895	-40.368230	-41.450550	-27.440720	-7.295508	0.801353	9.339120	-48.877780	20.784120	-0.835081	-0.179870	0.486022	-1.000000	-1.000000	-1.000000	-1.000000	-1.000000	-1.000000	-1.000000	65.000000	0.000000	-1.000000	-1.000000	419627.000000	1776577238.183057
89967.285000	-37182.060000	18163.350000	46394.010000	29449.575000	26496.540000	39092.130000	-13094.280000	34.912130	-2.402961	-14.846248	-11.431987	-15.907774	-23.290818	-3.598574	10.156068	9.339120	-48.877780	20.784120	-0.835081	-0.179870	0.486022	-1.000000	-1.000000	-1.000000	-1.000000	-1.000000	-1.000000	-1.000000	65.000000	0.000000	-1.000000	-1.000000	419628.000000	1776577238.183065
89968.275000	-37186.245000	18177.120000	46395.315000	29444.085000	26474.220000	39088.035000	-13098.060000	19.434457	8.272908	12.516786	24.417336	17.117328	-7.031327	1.215041	12.376657	9.339120	-48.877780	20.784120	-0.835081	-0.179870	0.486022	-1.000000	-1.000000	-1.000000	-1.000000	-1.000000	-1.000000	-1.000000	65.000000	0.000000	-1.000000	-1.000000	419629.000000	1776577238.186900
89966.610000	-37146.645000	18186.930000	46406.205000	29438.370000	26466.255000	39080.835000	-13101.345000	-9.242707	9.692480	36.601192	49.873623	40.810173	13.821697	4.873398	6.983384	9.339120	-48.877780	20.784120	-0.835081	-0.179870	0.486022	-1.000000	-1.000000	-1.000000	-1.000000	-1.000000	-1.000000	-1.000000	65.000000	0.000000	-1.000000	-1.000000	419630.000000	1776577238.186907
89954.910000	-37128.915000	18208.710000	46438.560000	29471.220000	26522.730000	39090.915000	-13094.145000	-32.362288	8.328044	47.114411	56.279388	46.548988	27.917530	5.840915	-1.213546	9.339120	-48.877780	20.784120	-0.835081	-0.179870	0.486022	-1.000000	-1.000000	-1.000000	-1.000000	-1.000000	-1.000000	-1.000000	65.000000	0.000000	-1.000000	-1.000000	419631.000000	1776577238.191022
89947.170000	-37125.900000	18214.830000	46436.220000	29478.870000	26541.045000	39094.920000	-13088.340000	-39.157658	10.372680	41.231963	45.340070	37.080201	32.497307	4.712248	-6.610985	9.339120	-48.877780	20.784120	-0.835081	-0.179870	0.486022	-1.000000	-1.000000	-1.000000	-1.000000	-1.000000	-1.000000	-1.000000	65.000000	0.000000	-1.000000	-1.000000	419632.000000	1776577238.191037
89972.235000	-37122.975000	18220.950000	46449.135000	29524.770000	26493.255000	39095.955000	-13080.780000	-29.462238	13.330399	23.005772	23.734187	20.941422	28.558676	3.026372	-6.669793	9.339120	-48.877780	20.784120	-0.835081	-0.179870	0.486022	-1.000000	-1.000000	-1.000000	-1.000000	-1.000000	-1.000000	-1.000000	65.000000	0.000000	-1.000000	-1.000000	419633.000000	1776577238.195111
89984.520000	-37149.210000	18191.790000	46419.120000	29486.250000	26407.755000	39087.630000	-13086.945000	-9.155259	11.267497	-0.558188	-1.459308	4.724102	13.365482	1.130118	-2.960162	9.339120	-48.877780	20.784120	-0.835081	-0.179870	0.486022	-1.000000	-1.000000	-1.000000	-1.000000	-1.000000	-1.000000	-1.000000	65.000000	0.000000	-1.000000	-1.000000	419634.000000	1776577238.195125
89963.955000	-37176.345000	18153.135000	46362.870000	29401.920000	26407.170000	39047.085000	-13115.115000	12.376198	1.565625	-23.096000	-24.940246	-11.692934	-12.350039	-2.152852	0.265375	9.339120	-48.877780	20.784120	-0.835081	-0.179870	0.486022	-1.000000	-1.000000	-1.000000	-1.000000	-1.000000	-1.000000	-1.000000	65.000000	0.000000	-1.000000	-1.000000	419635.000000	1776577238.199065
89937.630000	-37186.245000	18148.815000	46365.525000	29410.245000	26460.135000	39057.210000	-13129.740000	24.505212	-12.418827	-39.035586	-42.283487	-29.955433	-34.572813	-7.290499	-0.616076	9.339120	-48.877780	20.784120	-0.835081	-0.179870	0.486022	-1.000000	-1.000000	-1.000000	-1.000000	-1.000000	-1.000000	-1.000000	65.000000	0.000000	-1.000000	-1.000000	419636.000000	1776577238.199084
89935.605000	-37181.790000	18161.325000	46390.185000	29440.485000	26424.360000	39069.585000	-13121.550000	22.181427	-22.574817	-42.227029	-46.615679	-42.232743	-36.393797	-10.854699	-4.629185	5.112100	-28.002100	24.568600	-0.796018	-0.158508	0.509215	-1.000000	-1.000000	-1.000000	-1.000000	-1.000000	-1.000000	-1.000000	65.000000	0.000000	-1.000000	-1.000000	419637.000000	1776577238.202984
89907.345000	-37188.495000	18181.620000	46420.785000	29483.820000	26456.265000	39068.595000	-13123.215000	9.892813	-22.038242	-29.194648	-32.341618	-35.855417	-17.170481	-8.264514	-6.709377	5.112100	-28.002100	24.568600	-0.796018	-0.158508	0.509215	-1.000000	-1.000000	-1.000000	-1.000000	-1.000000	-1.000000	-1.000000	65.000000	0.000000	-1.000000	-1.000000	419638.000000	1776577238.202993
89913.555000	-37170.630000	18210.870000	46454.760000	29503.395000	26482.230000	39063.105000	-13113.990000	-3.207389	-10.744370	-4.077155	-3.459745	-9.749363	9.532458	-0.291719	-3.421816	5.112100	-28.002100	24.568600	-0.796018	-0.158508	0.509215	-1.000000	-1.000000	-1.000000	-1.000000	-1.000000	-1.000000	-1.000000	65.000000	0.000000	-1.000000	-1.000000	419639.000000	1776577238.207084
89977.185000	-37128.960000	18235.125000	46485.900000	29517.165000	26472.150000	39059.280000	-13093.245000	-8.563399	6.068052	22.385099	26.749041	21.671078	29.775574	7.422185	4.092288	5.112100	-28.002100	24.568600	-0.796018	-0.158508	0.509215	-1.000000	-1.000000	-1.000000	-1.000000	-1.000000	-1.000000	-1.000000	65.000000	0.000000	-1.000000	-1.000000	419640.000000	1776577238.207092
90017.280000	-37104.165000	18222.120000	46452.510000	29482.110000	26456.085000	39061.305000	-13087.620000	-1.389264	22.078697	38.233472	43.298585	39.622138	34.380790	10.379025	11.989526	5.112100	-28.002100	24.568600	-0.796018	-0.158508	0.509215	-1.000000	-1.000000	-1.000000	-1.000000	-1.000000	-1.000000	-1.000000	65.000000	0.000000	-1.000000	-1.000000	419641.000000	1776577238.211296
89988.120000	-37136.745000	18171.630000	46363.635000	29408.400000	26449.335000	39055.005000	-13109.490000	13.135825	30.100320	35.178161	35.870476	32.974909	21.805288	8.218878	15.393358	5.112100	-28.002100	24.568600	-0.796018	-0.158508	0.509215	-1.000000	-1.000000	-1.000000	-1.000000	-1.000000	-1.000000	-1.000000	65.000000	0.000000	-1.000000	-1.000000	419642.000000	1776577238.211323
89952.435000	-37174.365000	18155.160000	46360.305000	29420.280000	26330.895000	39050.055000	-13126.455000	20.320815	23.209844	13.569919	6.017670	5.597327	-1.951647	3.182739	10.520913	5.112100	-28.002100	24.568600	-0.796018	-0.158508	0.509215	-1.000000	-1.000000	-1.000000	-1.000000	-1.000000	-1.000000	-1.000000	65.000000	0.000000	-1.000000	-1.000000	419643.000000	1776577238.215043
89940.600000	-37171.935000	18172.170000	46394.145000	29451.420000	26342.820000	39051.945000	-13126.455000	10.341088	2.189147	-14.338226	-27.629512	-23.170825	-27.648028	-1.992266	-1.190201	5.112100	-28.002100	24.568600	-0.796018	-0.158508	0.509215	-1.000000	-1.000000	-1.000000	-1.000000	-1.000000	-1.000000	-1.000000	65.000000	0.000000	-1.000000	-1.000000	419644.000000	1776577238.215056
89931.780000	-37150.515000	18191.835000	46413.135000	29470.725000	26395.020000	39054.285000	-13120.920000	-10.773468	-20.452756	-30.910433	-41.230525	-32.587258	-41.525188	-4.963918	-12.503995	5.112100	-28.002100	24.568600	-0.796018	-0.158508	0.509215	-1.000000	-1.000000	-1.000000	-1.000000	-1.000000	-1.000000	-1.000000	65.000000	0.000000	-1.000000	-1.000000	419645.000000	1776577238.219354
89934.255000	-37171.440000	18182.970000	46402.920000	29462.715000	26444.295000	39057.660000	-13129.245000	-27.776792	-30.430313	-27.406795	-27.539597	-18.904599	-30.353744	-4.706505	-16.450785	5.112100	-28.002100	24.568600	-0.796018	-0.158508	0.509215	-1.000000	-1.000000	-1.000000	-1.000000	-1.000000	-1.000000	-1.000000	65.000000	0.000000	-1.000000	-1.000000	419646.000000	1776577238.219367
89951.805000	-37197.315000	18163.620000	46389.105000	29449.035000	26450.505000	39072.420000	-13133.655000	-29.586463	-25.013337	-10.547949	-0.533641	3.733443	2.584991	-1.848508	-12.153992	17.549000	-10.926160	15.488900	-0.795164	-0.161193	0.539488	-1.000000	-1.000000	-1.000000	-1.000000	-1.000000	-1.000000	-1.000000	65.000000	0.000000	-1.000000	-1.000000	419647.000000	1776577238.223020
89952.480000	-37177.785000	18159.705000	46387.620000	29469.240000	26541.720000	39083.850000	-13135.770000	-15.901004	-11.670417	5.902570	20.392623	18.988562	37.471332	2.158493	-3.821971	17.549000	-10.926160	15.488900	-0.795164	-0.161193	0.539488	-1.000000	-1.000000	-1.000000	-1.000000	-1.000000	-1.000000	-1.000000	65.000000	0.000000	-1.000000	-1.000000	419648.000000	1776577238.223029
89964.495000	-37153.170000	18186.885000	46420.830000	29514.960000	26634.735000	39073.500000	-13125.375000	4.415937	2.986772	14.096394	26.528288	21.973750	57.200670	5.182468	4.088838	17.549000	-10.926160	15.488900	-0.795164	-0.161193	0.539488	-1.000000	-1.000000	-1.000000	-1.000000	-1.000000	-1.000000	-1.000000	65.000000	0.000000	-1.000000	-1.000000	419649.000000	1776577238.227067
89969.310000	-37162.935000	18177.660000	46407.780000	29488.455000	26548.245000	39046.410000	-13122.945000	20.368913	15.689445	15.112188	21.316821	17.166164	54.480857	4.279212	9.372272	17.549000	-10.926160	15.488900	-0.795164	-0.161193	0.539488	-1.000000	-1.000000	-1.000000	-1.000000	-1.000000	-1.000000	-1.000000	65.000000	0.000000	-1.000000	-1.000000	419650.000000	1776577238.227080
89957.070000	-37181.520000	18147.780000	46357.470000	29434.905000	26509.680000	39039.885000	-13134.330000	25.204046	22.033145	11.612290	10.152813	7.114478	25.480997	-1.771495	11.027851	17.549000	-10.926160	15.488900	-0.795164	-0.161193	0.539488	-1.000000	-1.000000	-1.000000	-1.000000	-1.000000	-1.000000	-1.000000	65.000000	0.000000	-1.000000	-1.000000	419651.000000	1776577238.231126
89960.760000	-37169.865000	18164.475000	46376.955000	29459.745000	26482.635000	39050.550000	-13134.555000	18.394101	18.589600	4.532950	-3.985044	-7.670188	-23.120877	-9.245038	8.449381	17.549000	-10.926160	15.488900	-0.795164	-0.161193	0.539488	-1.000000	-1.000000	-1.000000	-1.000000	-1.000000	-1.000000	-1.000000	65.000000	0.000000	-1.000000	-1.000000	419652.000000	1776577238.231145
89957.430000	-37154.970000	18186.300000	46408.005000	29484.225000	26455.680000	39047.715000	-13131.315000	5.027008	8.467200	-2.629589	-14.948125	-20.085020	-68.069662	-11.897856	2.888602	17.549000	-10.926160	15.488900	-0.795164	-0.161193	0.539488	-1.000000	-1.000000	-1.000000	-1.000000	-1.000000	-1.000000	-1.000000	65.000000	0.000000	-1.000000	-1.000000	419653.000000	1776577238.235061
89929.845000	-37131.435000	18202.905000	46424.295000	29489.175000	26427.015000	39026.025000	-13129.740000	-8.028747	-0.813804	-4.684581	-15.174385	-20.756785	-85.697627	-7.818470	-2.472929	17.549000	-10.926160	15.488900	-0.795164	-0.161193	0.539488	-1.000000	-1.000000	-1.000000	-1.000000	-1.000000	-1.000000	-1.000000	65.000000	0.000000	-1.000000	-1.000000	419654.000000	1776577238.235070
89932.320000	-37125.225000	18208.260000	46425.420000	29477.610000	26405.505000	39007.935000	-13129.785000	-16.365491	-4.521522	-1.065583	-5.187627	-10.016111	-69.144247	-1.246508	-5.157914	17.549000	-10.926160	15.488900	-0.795164	-0.161193	0.539488	-1.000000	-1.000000	-1.000000	-1.000000	-1.000000	-1.000000	-1.000000	65.000000	0.000000	-1.000000	-1.000000	419655.000000	1776577238.239033
89983.530000	-37134.720000	18207.000000	46422.945000	29472.030000	26441.460000	39017.925000	-13128.345000	-16.915663	-4.105390	3.417817	6.068064	2.741776	-28.126971	3.313348	-4.957606	17.549000	-10.926160	15.488900	-0.795164	-0.161193	0.539488	-1.000000	-1.000000	-1.000000	-1.000000	-1.000000	-1.000000	-1.000000	65.000000	0.000000	-1.000000	-1.000000	419656.000000	1776577238.239040
89978.580000	-37167.210000	18163.755000	46381.455000	29459.835000	26495.505000	39029.760000	-13136.265000	-8.008498	-4.679010	3.054804	9.510865	9.181587	21.309712	5.936772	-3.267986	43.094240	-14.359660	18.739280	-0.819517	-0.152465	0.548888	-1.000000	-1.000000	-1.000000	-1.000000	-1.000000	-1.000000	-1.000000	65.000000	0.000000	-1.000000	-1.000000	419657.000000	1776577238.243570
89945.370000	-37198.530000	18133.020000	46356.660000	29443.230000	26490.735000	39042.090000	-13139.055000	4.920094	-9.696781	-4.663450	2.161837	7.560044	62.603833	8.839276	-1.796211	43.094240	-14.359660	18.739280	-0.819517	-0.152465	0.548888	-1.000000	-1.000000	-1.000000	-1.000000	-1.000000	-1.000000	-1.000000	65.000000	0.000000	-1.000000	-1.000000	419658.000000	1776577238.243605
89942.940000	-37195.740000	18135.540000	46357.740000	29444.220000	26494.830000	39051.045000	-13128.840000	11.497530	-16.794677	-15.796132	-10.641339	1.484170	80.313140	11.944365	-1.058108	43.094240	-14.359660	18.739280	-0.819517	-0.152465	0.548888	-1.000000	-1.000000	-1.000000	-1.000000	-1.000000	-1.000000	-1.000000	65.000000	0.000000	-1.000000	-1.000000	419659.000000	1776577238.247236
89956.080000	-37187.595000	18144.270000	46367.190000	29442.105000	26468.010000	39053.970000	-13119.210000	8.180279	-18.782545	-21.093275	-18.354088	-3.507393	67.065019	12.739553	0.047450	43.094240	-14.359660	18.739280	-0.819517	-0.152465	0.548888	-1.000000	-1.000000	-1.000000	-1.000000	-1.000000	-1.000000	-1.000000	65.000000	0.000000	-1.000000	-1.000000	419660.000000	1776577238.247254
89968.860000	-37185.480000	18139.095000	46350.000000	29418.480000	26463.285000	39053.745000	-13109.940000	1.193726	-10.725610	-14.408129	-14.396854	-4.224006	29.922371	9.055723	2.384450	43.094240	-14.359660	18.739280	-0.819517	-0.152465	0.548888	-1.000000	-1.000000	-1.000000	-1.000000	-1.000000	-1.000000	-1.000000	65.000000	0.000000	-1.000000	-1.000000	419661.000000	1776577238.251003
89972.505000	-37180.665000	18143.415000	46350.810000	29425.410000	26460.360000	39054.825000	-13106.070000	-2.405860	4.446338	1.012066	-1.912349	-1.673645	-12.940360	1.304199	4.955717	43.094240	-14.359660	18.739280	-0.819517	-0.152465	0.548888	-1.000000	-1.000000	-1.000000	-1.000000	-1.000000	-1.000000	-1.000000	65.000000	0.000000	-1.000000	-1.000000	419662.000000	1776577238.251009
89968.635000	-37179.810000	18151.245000	46361.385000	29439.135000	26433.315000	39055.410000	-13113.315000	-1.530317	18.546641	16.336262	11.115044	2.279655	-43.180282	-7.445999	5.556570	43.094240	-14.359660	18.739280	-0.819517	-0.152465	0.548888	-1.000000	-1.000000	-1.000000	-1.000000	-1.000000	-1.000000	-1.000000	65.000000	0.000000	-1.000000	-1.000000	419663.000000	1776577238.256431
89960.445000	-37185.705000	18147.420000	46358.235000	29432.160000	26460.360000	39048.480000	-13122.315000	0.320609	24.499874	24.330371	18.978268	6.716164	-51.678125	-13.593501	2.627729	43.094240	-14.359660	18.739280	-0.819517	-0.152465	0.548888	-1.000000	-1.000000	-1.000000	-1.000000	-1.000000	-1.000000	-1.000000	65.000000	0.000000	-1.000000	-1.000000	419664.000000	1776577238.256441
89964.405000	-37177.245000	18157.230000	46370.160000	29441.070000	26510.805000	39044.520000	-13124.295000	0.128014	20.397646	22.571024	19.749286	9.801674	-38.545334	-15.281438	-3.008029	43.094240	-14.359660	18.739280	-0.819517	-0.152465	0.548888	-1.000000	-1.000000	-1.000000	-1.000000	-1.000000	-1.000000	-1.000000	65.000000	0.000000	-1.000000	-1.000000	419665.000000	1776577238.259150
89971.695000	-37156.185000	18176.535000	46388.385000	29453.535000	26481.060000	39036.465000	-13115.160000	-1.653413	10.179957	13.750379	14.758065	9.778198	-11.593815	-12.787911	-7.944200	43.094240	-14.359660	18.739280	-0.819517	-0.152465	0.548888	-1.000000	-1.000000	-1.000000	-1.000000	-1.000000	-1.000000	-1.000000	65.000000	0.000000	-1.000000	-1.000000	419666.000000	1776577238.259172
89990.325000	-37138.230000	18199.530000	46414.665000	29473.605000	26427.645000	39032.730000	-13105.935000	-2.332529	0.448140	3.633665	7.705367	7.213991	12.950010	-7.609258	-8.528203	39.859120	-9.262820	19.944820	-0.824827	-0.114380	0.557250	-1.000000	-1.000000	-1.000000	-1.000000	-1.000000	-1.000000	-1.000000	65.000000	0.000000	-1.000000	-1.000000	419667.000000	1776577238.263198
89997.120000	-37133.550000	18208.665000	46428.255000	29499.615000	26423.505000	39023.910000	-13099.905000	-0.286076	-4.886015	-3.354729	1.825180	4.131095	20.405333	-1.602555	-4.038684	39.859120	-9.262820	19.944820	-0.824827	-0.114380	0.557250	-1.000000	-1.000000	-1.000000	-1.000000	-1.000000	-1.000000	-1.000000	65.000000	0.000000	-1.000000	-1.000000	419668.000000	1776577238.263237
89974.080000	-37156.320000	18183.195000	46402.650000	29494.485000	26472.285000	39024.945000	-13111.200000	2.622821	-7.180038	-7.439827	-3.034278	1.466223	12.438881	3.649239	2.331354	39.859120	-9.262820	19.944820	-0.824827	-0.114380	0.557250	-1.000000	-1.000000	-1.000000	-1.000000	-1.000000	-1.000000	-1.000000	65.000000	0.000000	-1.000000	-1.000000	419669.000000	1776577238.267005
89955.000000	-37168.335000	18175.185000	46403.370000	29503.530000	26536.275000	39042.810000	-13113.405000	2.216798	-10.174800	-11.788460	-9.296542	-1.943363	4.528940	7.665323	5.984431	39.859120	-9.262820	19.944820	-0.824827	-0.114380	0.557250	-1.000000	-1.000000	-1.000000	-1.000000	-1.000000	-1.000000	-1.000000	65.000000	0.000000	-1.000000	-1.000000	419670.000000	1776577238.267015
89919.900000	-37175.265000	18174.105000	46403.820000	29497.455000	26485.695000	39045.510000	-13115.745000	-3.421116	-14.609924	-16.896688	-16.490937	-7.024950	6.339251	10.801826	4.956459	39.859120	-9.262820	19.944820	-0.824827	-0.114380	0.557250	-1.000000	-1.000000	-1.000000	-1.000000	-1.000000	-1.000000	-1.000000	65.000000	0.000000	-1.000000	-1.000000	419671.000000	1776577238.271070
89926.470000	-37184.175000	18173.475000	46397.655000	29473.245000	26371.080000	39019.995000	-13129.155000	-10.976958	-17.090526	-18.991053	-20.339574	-12.845549	8.869918	11.873016	0.909973	39.859120	-9.262820	19.944820	-0.824827	-0.114380	0.557250	-1.000000	-1.000000	-1.000000	-1.000000	-1.000000	-1.000000	-1.000000	65.000000	0.000000	-1.000000	-1.000000	419672.000000	1776577238.271084
89970.570000	-37187.550000	18178.650000	46412.595000	29499.795000	26425.395000	39012.345000	-13128.255000	-13.035884	-14.256811	-14.684978	-17.499850	-16.956279	-0.602850	8.249713	-3.257184	39.859120	-9.262820	19.944820	-0.824827	-0.114380	0.557250	-1.000000	-1.000000	-1.000000	-1.000000	-1.000000	-1.000000	-1.000000	65.000000	0.000000	-1.000000	-1.000000	419673.000000	1776577238.275143
90010.170000	-37183.815000	18180.990000	46425.375000	29519.055000	26420.670000	39015.945000	-13115.115000	-3.686435	-5.976044	-4.704907	-8.119144	-15.388341	-16.021915	0.429858	-4.874050	39.859120	-9.262820	19.944820	-0.824827	-0.114380	0.557250	-1.000000	-1.000000	-1.000000	-1.000000	-1.000000	-1.000000	-1.000000	65.000000	0.000000	-1.000000	-1.000000	419674.000000	1776577238.275157
89976.510000	-37191.420000	18172.710000	46400.175000	29485.485000	26441.145000	39018.375000	-13118.625000	13.183983	4.770075	6.519115	3.817833	-6.997640	-20.808951	-6.679595	-2.549013	39.859120	-9.262820	19.944820	-0.824827	-0.114380	0.557250	-1.000000	-1.000000	-1.000000	-1.000000	-1.000000	-1.000000	-1.000000	65.000000	0.000000	-1.000000	-1.000000	419675.000000	1776577238.279032
89902.620000	-37208.790000	18141.930000	46347.345000	29432.970000	26449.785000	39013.605000	-13144.455000	23.019619	13.202344	13.256041	10.919490	1.752676	-9.808761	-8.801027	1.633098	39.859120	-9.262820	19.944820	-0.824827	-0.114380	0.557250	-1.000000	-1.000000	-1.000000	-1.000000	-1.000000	-1.000000	-1.000000	65.000000	0.000000	-1.000000	-1.000000	419676.000000	1776577238.279046
89905.905000	-37188.495000	18158.805000	46387.260000	29475.360000	26460.405000	39017.655000	-13139.685000	14.695980	15.911909	12.571507	8.989198	4.276860	8.504776	-5.967772	3.586703	5.936140	4.013380	21.074060	-0.812315	-0.065185	0.561583	-1.000000	-1.000000	-1.000000	-1.000000	-1.000000	-1.000000	-1.000000	65.000000	0.000000	-1.000000	-1.000000	419677.000000	1776577238.283077
89969.130000	-37180.935000	18158.670000	46383.615000	29471.490000	26440.065000	39013.425000	-13123.215000	-4.188639	13.941422	7.453742	3.359054	3.498541	21.753080	-1.066563	2.654286	5.936140	4.013380	21.074060	-0.812315	-0.065185	0.561583	-1.000000	-1.000000	-1.000000	-1.000000	-1.000000	-1.000000	-1.000000	65.000000	0.000000	-1.000000	-1.000000	419678.000000	1776577238.283087
90014.850000	-37160.100000	18173.970000	46371.915000	29462.580000	26464.545000	39010.995000	-13111.920000	-14.003034	10.715119	3.467528	1.475895	5.320312	22.488536	2.840514	2.118604	5.936140	4.013380	21.074060	-0.812315	-0.065185	0.561583	-1.000000	-1.000000	-1.000000	-1.000000	-1.000000	-1.000000	-1.000000	65.000000	0.000000	-1.000000	-1.000000	419679.000000	1776577238.287006
90024.975000	-37139.715000	18181.710000	46383.480000	29476.215000	26504.775000	39014.145000	-13101.300000	-5.824568	8.149575	3.086348	3.730165	9.375537	13.411804	4.159545	3.917811	5.936140	4.013380	21.074060	-0.812315	-0.065185	0.561583	-1.000000	-1.000000	-1.000000	-1.000000	-1.000000	-1.000000	-1.000000	65.000000	0.000000	-1.000000	-1.000000	419680.000000	1776577238.287016
89987.940000	-37159.695000	18179.955000	46387.305000	29489.625000	26512.650000	39022.830000	-13110.660000	9.350939	5.370383	4.607600	6.724460	12.412377	3.188266	3.456733	6.034708	5.936140	4.013380	21.074060	-0.812315	-0.065185	0.561583	-1.000000	-1.000000	-1.000000	-1.000000	-1.000000	-1.000000	-1.000000	65.000000	0.000000	-1.000000	-1.000000	419681.000000	1776577238.291133
89960.535000	-37194.705000	18145.170000	46361.745000	29467.350000	26361.810000	39020.400000	-13132.080000	13.997719	-0.782159	3.986515	7.603887	12.303481	-6.215165	2.256831	4.675023	5.936140	4.013380	21.074060	-0.812315	-0.065185	0.561583	-1.000000	-1.000000	-1.000000	-1.000000	-1.000000	-1.000000	-1.000000	65.000000	0.000000	-1.000000	-1.000000	419682.000000	1776577238.291180
89963.685000	-37205.100000	18111.645000	46342.710000	29435.130000	26322.300000	38997.225000	-13139.685000	2.522440	-11.575833	-2.093570	4.093674	6.977962	-21.186069	0.704135	-1.698077	5.936140	4.013380	21.074060	-0.812315	-0.065185	0.561583	-1.000000	-1.000000	-1.000000	-1.000000	-1.000000	-1.000000	-1.000000	65.000000	0.000000	-1.000000	-1.000000	419683.000000	1776577238.295001
89972.730000	-37183.275000	18136.260000	46361.430000	29456.910000	26422.155000	39000.645000	-13126.680000	-14.596672	-21.589473	-11.499061	-2.865894	-3.038991	-37.348683	-2.111351	-9.523345	5.936140	4.013380	21.074060	-0.812315	-0.065185	0.561583	-1.000000	-1.000000	-1.000000	-1.000000	-1.000000	-1.000000	-1.000000	65.000000	0.000000	-1.000000	-1.000000	419684.000000	1776577238.295008
89966.115000	-37186.335000	18135.360000	46352.925000	29454.930000	26463.510000	39003.840000	-13125.420000	-23.275177	-22.457359	-16.292065	-8.102365	-11.701572	-34.789744	-5.123843	-12.650275	5.936140	4.013380	21.074060	-0.812315	-0.065185	0.561583	-1.000000	-1.000000	-1.000000	-1.000000	-1.000000	-1.000000	-1.000000	65.000000	0.000000	-1.000000	-1.000000	419685.000000	1776577238.299030
89974.665000	-37193.850000	18135.945000	46355.985000	29466.990000	26486.145000	39009.420000	-13125.330000	-18.531873	-12.413481	-11.211339	-7.803798	-12.854675	-5.378598	-5.511774	-8.594542	5.936140	4.013380	21.074060	-0.812315	-0.065185	0.561583	-1.000000	-1.000000	-1.000000	-1.000000	-1.000000	-1.000000	-1.000000	65.000000	0.000000	-1.000000	-1.000000	419686.000000	1776577238.299039
89994.330000	-37178.595000	18145.620000	46368.180000	29481.120000	26454.330000	39008.430000	-13123.665000	-4.749718	2.158153	0.545945	-2.937941	-6.334122	31.835795	-2.365160	-0.543189	-10.361540	10.239460	17.655820	-0.804258	-0.047363	0.549193	-1.000000	-1.000000	-1.000000	-1.000000	-1.000000	-1.000000	-1.000000	65.000000	0.000000	-1.000000	-1.000000	419687.000000	1776577238.303020
89998.380000	-37178.595000	18144.270000	46361.925000	29475.270000	26461.485000	39004.200000	-13121.460000	10.444702	13.886602	11.704530	3.140651	3.003553	50.079567	2.081205	6.498992	-10.361540	10.239460	17.655820	-0.804258	-0.047363	0.549193	-1.000000	-1.000000	-1.000000	-1.000000	-1.000000	-1.000000	-1.000000	65.000000	0.000000	-1.000000	-1.000000	419688.000000	1776577238.303027
89992.575000	-37180.080000	18145.800000	46363.005000	29471.310000	26469.720000	39000.420000	-13120.605000	19.858803	18.704063	16.679920	6.894354	8.976389	39.801555	4.702856	9.487161	-10.361540	10.239460	17.655820	-0.804258	-0.047363	0.549193	-1.000000	-1.000000	-1.000000	-1.000000	-1.000000	-1.000000	-1.000000	65.000000	0.000000	-1.000000	-1.000000	419689.000000	1776577238.307285
89994.285000	-37168.245000	18169.110000	46393.335000	29498.355000	26448.030000	39000.285000	-13112.280000	19.392647	16.074904	14.363405	6.928928	8.665973	11.815220	4.188353	8.277712	-10.361540	10.239460	17.655820	-0.804258	-0.047363	0.549193	-1.000000	-1.000000	-1.000000	-1.000000	-1.000000	-1.000000	-1.000000	65.000000	0.000000	-1.000000	-1.000000	419690.000000	1776577238.307301
89994.780000	-37162.260000	18178.920000	46401.120000	29498.175000	26460.135000	38999.205000	-13106.655000	10.537840	8.856763	8.062737	5.184263	4.502700	-16.631946	1.660812	4.785055	-10.361540	10.239460	17.655820	-0.804258	-0.047363	0.549193	-1.000000	-1.000000	-1.000000	-1.000000	-1.000000	-1.000000	-1.000000	65.000000	0.000000	-1.000000	-1.000000	419691.000000	1776577238.311119
89995.320000	-37167.930000	18160.920000	46371.510000	29466.900000	26468.955000	38993.355000	-13110.300000	-0.991305	0.930769	1.203565	2.823359	-0.551170	-32.655451	-0.952835	1.033777	-10.361540	10.239460	17.655820	-0.804258	-0.047363	0.549193	-1.000000	-1.000000	-1.000000	-1.000000	-1.000000	-1.000000	-1.000000	65.000000	0.000000	-1.000000	-1.000000	419692.000000	1776577238.311134
89993.070000	-37171.305000	18158.535000	46377.900000	29492.820000	26465.310000	39004.245000	-13115.700000	-9.596802	-5.580871	-5.636329	-1.743697	-5.826983	-31.851977	-2.311262	-2.305163	-10.361540	10.239460	17.655820	-0.804258	-0.047363	0.549193	-1.000000	-1.000000	-1.000000	-1.000000	-1.000000	-1.000000	-1.000000	65.000000	0.000000	-1.000000	-1.000000	419693.000000	1776577238.315081
89996.310000	-37168.695000	18157.545000	46373.580000	29487.195000	26438.355000	39013.155000	-13114.620000	-12.606397	-9.830255	-11.890935	-8.039295	-9.398051	-19.526833	-1.610563	-5.153318	-10.361540	10.239460	17.655820	-0.804258	-0.047363	0.549193	-1.000000	-1.000000	-1.000000	-1.000000	-1.000000	-1.000000	-1.000000	65.000000	0.000000	-1.000000	-1.000000	419694.000000	1776577238.315087
89993.745000	-37170.450000	18160.470000	46372.995000	29478.510000	26502.210000	38996.235000	-13118.625000	-10.381692	-10.982055	-14.970960	-12.193162	-8.983115	-4.421453	0.583045	-6.803155	-10.361540	10.239460	17.655820	-0.804258	-0.047363	0.549193	-1.000000	-1.000000	-1.000000	-1.000000	-1.000000	-1.000000	-1.000000	65.000000	0.000000	-1.000000	-1.000000	419695.000000	1776577238.318968
89994.645000	-37171.755000	18162.405000	46381.905000	29495.520000	26509.500000	38996.910000	-13115.115000	-5.224074	-8.877839	-12.808853	-11.236792	-5.259147	9.328569	1.833044	-6.387147	-10.361540	10.239460	17.655820	-0.804258	-0.047363	0.549193	-1.000000	-1.000000	-1.000000	-1.000000	-1.000000	-1.000000	-1.000000	65.000000	0.000000	-1.000000	-1.000000	419696.000000	1776577238.318981
90002.970000	-37166.445000	18164.970000	46389.105000	29503.845000	26502.255000	39003.345000	-13108.815000	0.293284	-4.566950	-6.199816	-5.276239	0.107839	19.377234	0.827658	-3.712078	-11.765460	14.786940	8.301440	-0.814207	-0.060058	0.543639	-1.000000	-1.000000	-1.000000	-1.000000	-1.000000	-1.000000	-1.000000	65.000000	0.000000	-1.000000	-1.000000	419697.000000	1776577238.322982
90004.095000	-37165.455000	18163.170000	46380.555000	29499.570000	26518.365000	39010.365000	-13106.430000	4.571345	0.413637	1.692843	2.693244	5.447287	21.373717	-0.747056	0.465178	-11.765460	14.786940	8.301440	-0.814207	-0.060058	0.543639	-1.000000	-1.000000	-1.000000	-1.000000	-1.000000	-1.000000	-1.000000	65.000000	0.000000	-1.000000	-1.000000	419698.000000	1776577238.322988
89990.595000	-37181.340000	18147.285000	46362.960000	29482.425000	26526.510000	39012.255000	-13111.695000	6.455509	4.204265	7.121208	7.953727	7.876220	14.371385	-0.901781	4.277559	-11.765460	14.786940	8.301440	-0.814207	-0.060058	0.543639	-1.000000	-1.000000	-1.000000	-1.000000	-1.000000	-1.000000	-1.000000	65.000000	0.000000	-1.000000	-1.000000	419699.000000	1776577238.327054
89981.370000	-37191.870000	18137.610000	46358.685000	29472.975000	26491.365000	39012.255000	-13114.485000	4.899674	4.865012	7.678801	7.446261	5.226971	2.266105	0.199634	5.609464	-11.765460	14.786940	8.301440	-0.814207	-0.060058	0.543639	-1.000000	-1.000000	-1.000000	-1.000000	-1.000000	-1.000000	-1.000000	65.000000	0.000000	-1.000000	-1.000000	419700.000000	1776577238.327064
89976.735000	-37195.515000	18132.975000	46352.520000	29444.625000	26335.170000	39002.265000	-13118.175000	0.535849	2.287732	4.045861	2.620335	-1.407846	-13.385042	0.848910	3.859818	-11.765460	14.786940	8.301440	-0.814207	-0.060058	0.543639	-1.000000	-1.000000	-1.000000	-1.000000	-1.000000	-1.000000	-1.000000	65.000000	0.000000	-1.000000	-1.000000	419701.000000	1776577238.331002
89980.695000	-37193.940000	18136.215000	46357.065000	29451.420000	26396.505000	38997.675000	-13113.270000	-3.677540	-0.924521	-0.257734	-2.087822	-8.089545	-31.252225	-0.290321	0.568746	-11.765460	14.786940	8.301440	-0.814207	-0.060058	0.543639	-1.000000	-1.000000	-1.000000	-1.000000	-1.000000	-1.000000	-1.000000	65.000000	0.000000	-1.000000	-1.000000	419702.000000	1776577238.331009
89978.355000	-37195.155000	18140.805000	46368.990000	29479.275000	26435.430000	38990.970000	-13115.700000	-4.729280	-1.832976	-1.710075	-3.004617	-9.625424	-38.774804	-2.792130	-1.918524	-11.765460	14.786940	8.301440	-0.814207	-0.060058	0.543639	-1.000000	-1.000000	-1.000000	-1.000000	-1.000000	-1.000000	-1.000000	65.000000	0.000000	-1.000000	-1.000000	419703.000000	1776577238.335086
89967.420000	-37186.245000	18156.915000	46389.150000	29498.670000	26444.745000	38987.505000	-13114.890000	-2.393552	0.299318	0.730891	0.717743	-2.794614	-22.086246	-4.822880	-2.409103	-11.765460	14.786940	8.301440	-0.814207	-0.060058	0.543639	-1.000000	-1.000000	-1.000000	-1.000000	-1.000000	-1.000000	-1.000000	65.000000	0.000000	-1.000000	-1.000000	419704.000000	1776577238.335096
89959.320000	-37186.740000	18158.220000	46382.985000	29487.330000	26445.150000	38989.440000	-13119.165000	0.788861	3.962668	5.300689	6.576341	8.993634	12.175489	-4.677243	-1.431839	-11.765460	14.786940	8.301440	-0.814207	-0.060058	0.543639	-1.000000	-1.000000	-1.000000	-1.000000	-1.000000	-1.000000	-1.000000	65.000000	0.000000	-1.000000	-1.000000	419705.000000	1776577238.339211
89980.065000	-37182.690000	18149.445000	46367.055000	29472.165000	26443.935000	38986.470000	-13121.325000	2.874116	6.705297	8.332463	9.531847	16.673774	41.691185	-1.975202	-0.246111	-11.765460	14.786940	8.301440	-0.814207	-0.060058	0.543639	-1.000000	-1.000000	-1.000000	-1.000000	-1.000000	-1.000000	-1.000000	65.000000	0.000000	-1.000000	-1.000000	419706.000000	1776577238.339226
90007.740000	-37177.245000	18145.260000	46367.010000	29474.820000	26443.845000	38986.470000	-13114.890000	4.911176	6.794091	6.632253	5.990326	13.956050	49.713536	2.005472	0.467882	-2.090620	14.344400	9.369640	-0.828855	-0.086975	0.541625	-1.000000	-1.000000	-1.000000	-1.000000	-1.000000	-1.000000	-1.000000	65.000000	0.000000	-1.000000	-1.000000	419707.000000	1776577238.343137
90018.045000	-37168.605000	18149.760000	46373.355000	29475.720000	26460.540000	38990.880000	-13105.305000	8.266781	4.397686	0.613915	-1.995824	3.340090	35.527663	5.332387	1.164846	-2.090620	14.344400	9.369640	-0.828855	-0.086975	0.541625	-1.000000	-1.000000	-1.000000	-1.000000	-1.000000	-1.000000	-1.000000	65.000000	0.000000	-1.000000	-1.000000	419708.000000	1776577238.343149
90017.370000	-37166.760000	18152.010000	46373.985000	29474.010000	26478.675000	38995.380000	-13097.070000	10.821342	0.950063	-5.762911	-8.599340	-7.480498	10.824861	6.880669	2.484426	-2.090620	14.344400	9.369640	-0.828855	-0.086975	0.541625	-1.000000	-1.000000	-1.000000	-1.000000	-1.000000	-1.000000	-1.000000	65.000000	0.000000	-1.000000	-1.000000	419709.000000	1776577238.347055
90019.035000	-37164.015000	18155.880000	46377.090000	29477.745000	26485.335000	38997.090000	-13089.420000	8.690322	-2.330181	-8.672614	-9.959312	-12.731823	-10.863519	6.498280	4.006980	-2.090620	14.344400	9.369640	-0.828855	-0.086975	0.541625	-1.000000	-1.000000	-1.000000	-1.000000	-1.000000	-1.000000	-1.000000	65.000000	0.000000	-1.000000	-1.000000	419710.000000	1776577238.347066
90023.895000	-37151.730000	18173.745000	46399.995000	29500.560000	26417.790000	39002.130000	-13081.545000	1.199288	-4.656293	-6.954243	-6.133165	-10.916462	-23.840444	4.488431	4.532665	-2.090620	14.344400	9.369640	-0.828855	-0.086975	0.541625	-1.000000	-1.000000	-1.000000	-1.000000	-1.000000	-1.000000	-1.000000	65.000000	0.000000	-1.000000	-1.000000	419711.000000	1776577238.351143
90017.280000	-37152.225000	18177.030000	46403.010000	29501.055000	26390.070000	38997.945000	-13084.425000	-8.115842	-5.383630	-1.921637	0.567899	-3.857487	-30.960217	1.413892	3.127755	-2.090620	14.344400	9.369640	-0.828855	-0.086975	0.541625	-1.000000	-1.000000	-1.000000	-1.000000	-1.000000	-1.000000	-1.000000	65.000000	0.000000	-1.000000	-1.000000	419712.000000	1776577238.351149
90014.220000	-37153.485000	18179.055000	46407.510000	29506.005000	26446.860000	38995.695000	-13084.290000	-14.909633	-4.751703	3.324215	6.523862	4.025951	-33.051426	-2.087168	-0.302064	-2.090620	14.344400	9.369640	-0.828855	-0.086975	0.541625	-1.000000	-1.000000	-1.000000	-1.000000	-1.000000	-1.000000	-1.000000	65.000000	0.000000	-1.000000	-1.000000	419713.000000	1776577238.355029
90023.580000	-37148.310000	18180.675000	46408.995000	29509.245000	26467.605000	38995.110000	-13078.935000	-16.483609	-3.752083	5.546785	8.305908	8.112152	-24.000713	-5.200360	-4.537494	-2.090620	14.344400	9.369640	-0.828855	-0.086975	0.541625	-1.000000	-1.000000	-1.000000	-1.000000	-1.000000	-1.000000	-1.000000	65.000000	0.000000	-1.000000	-1.000000	419714.000000	1776577238.355038
90023.175000	-37152.990000	18165.780000	46387.935000	29493.360000	26460.225000	39001.635000	-13079.790000	-12.228603	-2.865137	3.511174	4.786079	6.540577	-2.809755	-6.693505	-7.407811	-2.090620	14.344400	9.369640	-0.828855	-0.086975	0.541625	-1.000000	-1.000000	-1.000000	-1.000000	-1.000000	-1.000000	-1.000000	65.000000	0.000000	-1.000000	-1.000000	419715.000000	1776577238.361992
89986.455000	-37188.135000	18130.230000	46354.230000	29460.600000	26411.310000	38993.400000	-13106.070000	-4.820741	-2.685809	-2.199417	-3.043961	-0.007679	18.342436	-5.788561	-8.019087	-2.090620	14.344400	9.369640	-0.828855	-0.086975	0.541625	-1.000000	-1.000000	-1.000000	-1.000000	-1.000000	-1.000000	-1.000000	65.000000	0.000000	-1.000000	-1.000000	419716.000000	1776577238.362025
89976.870000	-37180.485000	18139.230000	46363.995000	29468.655000	26418.330000	39002.085000	-13101.390000	0.694993	-3.946792	-9.280742	-11.920423	-8.633965	25.513657	-3.118774	-7.373996	4.257540	16.206120	10.834600	-0.832884	-0.106994	0.527648	-1.000000	-1.000000	-1.000000	-1.000000	-1.000000	-1.000000	-1.000000	65.000000	0.000000	-1.000000	-1.000000	419717.000000	1776577238.363100
89966.610000	-37166.310000	18148.815000	46373.850000	29476.710000	26418.735000	39002.085000	-13088.970000	2.090701	-4.680584	-12.716006	-15.785670	-13.629974	17.571896	0.069796	-5.434807	4.257540	16.206120	10.834600	-0.832884	-0.106994	0.527648	-1.000000	-1.000000	-1.000000	-1.000000	-1.000000	-1.000000	-1.000000	65.000000	0.000000	-1.000000	-1.000000	419718.000000	1776577238.363106
89964.855000	-37158.075000	18166.725000	46396.890000	29502.315000	26439.615000	38997.630000	-13086.360000	1.907541	-1.354557	-8.046307	-9.976416	-9.969561	4.987377	2.639304	-0.819457	4.257540	16.206120	10.834600	-0.832884	-0.106994	0.527648	-1.000000	-1.000000	-1.000000	-1.000000	-1.000000	-1.000000	-1.000000	65.000000	0.000000	-1.000000	-1.000000	419719.000000	1776577238.367027
89995.005000	-37149.480000	18182.295000	46411.740000	29512.080000	26439.840000	38993.175000	-13087.620000	3.951078	5.860099	3.531111	3.628051	1.545785	-2.329944	3.464514	5.560461	4.257540	16.206120	10.834600	-0.832884	-0.106994	0.527648	-1.000000	-1.000000	-1.000000	-1.000000	-1.000000	-1.000000	-1.000000	65.000000	0.000000	-1.000000	-1.000000	419720.000000	1776577238.367041
90005.580000	-37159.740000	18171.225000	46395.180000	29498.040000	26410.725000	38975.130000	-13091.715000	9.790659	12.314399	15.200201	16.954396	13.744232	-3.072424	1.972596	10.106355	4.257540	16.206120	10.834600	-0.832884	-0.106994	0.527648	-1.000000	-1.000000	-1.000000	-1.000000	-1.000000	-1.000000	-1.000000	65.000000	0.000000	-1.000000	-1.000000	419721.000000	1776577238.371104
89999.640000	-37185.030000	18155.925000	46393.290000	29508.480000	26390.025000	38979.990000	-13091.355000	16.396069	12.705593	19.069232	21.218429	18.409339	-2.706516	-1.061944	10.111357	4.257540	16.206120	10.834600	-0.832884	-0.106994	0.527648	-1.000000	-1.000000	-1.000000	-1.000000	-1.000000	-1.000000	-1.000000	65.000000	0.000000	-1.000000	-1.000000	419722.000000	1776577238.371118
89993.745000	-37175.625000	18149.625000	46376.010000	29492.505000	26373.960000	38986.695000	-13090.545000	17.640189	5.701921	12.120171	13.699073	13.024780	-5.358270	-3.194499	6.076479	4.257540	16.206120	10.834600	-0.832884	-0.106994	0.527648	-1.000000	-1.000000	-1.000000	-1.000000	-1.000000	-1.000000	-1.000000	65.000000	0.000000	-1.000000	-1.000000	419723.000000	1776577238.375012
90000.630000	-37184.715000	18126.945000	46346.130000	29465.595000	26520.480000	38988.450000	-13092.255000	10.645911	-4.042032	-1.387428	-1.044822	1.084246	-6.534983	-2.115150	0.713516	4.257540	16.206120	10.834600	-0.832884	-0.106994	0.527648	-1.000000	-1.000000	-1.000000	-1.000000	-1.000000	-1.000000	-1.000000	65.000000	0.000000	-1.000000	-1.000000	419724.000000	1776577238.375027
90019.035000	-37189.305000	18116.955000	46335.555000	29452.455000	26518.680000	38988.450000	-13084.110000	-0.674912	-10.289724	-13.884985	-15.485359	-11.870313	2.571531	1.608973	-3.280875	4.257540	16.206120	10.834600	-0.832884	-0.106994	0.527648	-1.000000	-1.000000	-1.000000	-1.000000	-1.000000	-1.000000	-1.000000	65.000000	0.000000	-1.000000	-1.000000	419725.000000	1776577238.378991
90022.005000	-37176.660000	18130.770000	46353.735000	29473.785000	26483.490000	38996.145000	-13079.700000	-9.541243	-10.283544	-19.049024	-22.235277	-19.511268	18.032946	5.205674	-4.426411	4.257540	16.206120	10.834600	-0.832884	-0.106994	0.527648	-1.000000	-1.000000	-1.000000	-1.000000	-1.000000	-1.000000	-1.000000	65.000000	0.000000	-1.000000	-1.000000	419726.000000	1776577238.379002
90010.575000	-37175.580000	18140.175000	46367.325000	29490.615000	26481.195000	39002.265000	-13082.940000	-12.802883	-4.858954	-14.006614	-16.799480	-16.541591	22.744692	6.634922	-3.063554	-0.579880	20.311060	8.347220	-0.831968	-0.100769	0.520140	-1.000000	-1.000000	-1.000000	-1.000000	-1.000000	-1.000000	-1.000000	65.000000	0.000000	-1.000000	-1.000000	419727.000000	1776577238.383162
89996.760000	-37180.305000	18143.595000	46373.580000	29494.890000	26473.365000	39001.455000	-13083.570000	-12.422630	2.540556	-1.366124	-1.588072	-3.668895	8.864716	5.528843	-1.120541	-0.579880	20.311060	8.347220	-0.831968	-0.100769	0.520140	-1.000000	-1.000000	-1.000000	-1.000000	-1.000000	-1.000000	-1.000000	65.000000	0.000000	-1.000000	-1.000000	419728.000000	1776577238.383179
90004.005000	-37178.100000	18151.650000	46387.935000	29503.935000	26453.655000	38994.435000	-13075.425000	-11.031018	7.516881	11.688996	14.707469	11.347386	-14.088174	2.229142	-0.128047	-0.579880	20.311060	8.347220	-0.831968	-0.100769	0.520140	-1.000000	-1.000000	-1.000000	-1.000000	-1.000000	-1.000000	-1.000000	65.000000	0.000000	-1.000000	-1.000000	419729.000000	1776577238.387461
90027.990000	-37149.660000	18172.980000	46409.085000	29514.420000	26433.180000	38982.105000	-13064.940000	-8.052621	8.409462	18.784547	23.823105	19.969676	-31.901018	-2.629390	0.240824	-0.579880	20.311060	8.347220	-0.831968	-0.100769	0.520140	-1.000000	-1.000000	-1.000000	-1.000000	-1.000000	-1.000000	-1.000000	65.000000	0.000000	-1.000000	-1.000000	419730.000000	1776577238.387501
90017.640000	-37148.580000	18177.660000	46415.295000	29520.090000	26446.320000	38981.205000	-13065.705000	-2.000007	7.036102	18.146227	22.860218	18.885322	-35.784740	-7.542078	0.871721	-0.579880	20.311060	8.347220	-0.831968	-0.100769	0.520140	-1.000000	-1.000000	-1.000000	-1.000000	-1.000000	-1.000000	-1.000000	65.000000	0.000000	-1.000000	-1.000000	419731.000000	1776577238.391129
89991.495000	-37168.965000	18166.545000	46406.745000	29518.200000	26477.055000	38992.185000	-13074.705000	4.555583	4.432674	11.062711	13.295296	10.127618	-23.752430	-9.846327	1.227102	-0.579880	20.311060	8.347220	-0.831968	-0.100769	0.520140	-1.000000	-1.000000	-1.000000	-1.000000	-1.000000	-1.000000	-1.000000	65.000000	0.000000	-1.000000	-1.000000	419732.000000	1776577238.391144
89992.035000	-37180.755000	18161.280000	46402.830000	29514.195000	26450.235000	38996.820000	-13079.610000	6.760566	-0.752845	-0.205590	-1.233504	-1.811863	-1.191613	-7.359031	-0.033727	-0.579880	20.311060	8.347220	-0.831968	-0.100769	0.520140	-1.000000	-1.000000	-1.000000	-1.000000	-1.000000	-1.000000	-1.000000	65.000000	0.000000	-1.000000	-1.000000	419733.000000	1776577238.395133
90019.395000	-37190.070000	18147.600000	46381.545000	29494.485000	26437.860000	39000.735000	-13072.455000	4.593611	-8.164398	-12.032832	-15.704926	-12.540571	19.562830	-0.943593	-2.583433	-0.579880	20.311060	8.347220	-0.831968	-0.100769	0.520140	-1.000000	-1.000000	-1.000000	-1.000000	-1.000000	-1.000000	-1.000000	65.000000	0.000000	-1.000000	-1.000000	419734.000000	1776577238.395158
90022.635000	-37170.855000	18145.575000	46372.860000	29499.120000	26477.415000	38999.745000	-13072.995000	2.951168	-13.533419	-19.888297	-25.164250	-18.869033	28.443352	5.629059	-4.160337	-0.579880	20.311060	8.347220	-0.831968	-0.100769	0.520140	-1.000000	-1.000000	-1.000000	-1.000000	-1.000000	-1.000000	-1.000000	65.000000	0.000000	-1.000000	-1.000000	419735.000000	1776577238.399184
90025.425000	-37149.930000	18142.380000	46368.270000	29505.060000	26571.555000	38994.660000	-13072.320000	4.273082	-11.861182	-20.508270	-26.337881	-18.535848	27.598070	8.588170	-3.234583	-0.579880	20.311060	8.347220	-0.831968	-0.100769	0.520140	-1.000000	-1.000000	-1.000000	-1.000000	-1.000000	-1.000000	-1.000000	65.000000	0.000000	-1.000000	-1.000000	419736.000000	1776577238.399195
90034.110000	-37147.095000	18149.805000	46367.235000	29498.895000	26581.410000	38992.320000	-13065.840000	6.165215	-2.641936	-13.591249	-18.648382	-11.329240	25.348931	6.673635	-0.421552	-7.980980	16.221380	4.013380	-0.842649	-0.083740	0.507262	-1.000000	-1.000000	-1.000000	-1.000000	-1.000000	-1.000000	-1.000000	65.000000	0.000000	-1.000000	-1.000000	419737.000000	1776577238.403055
90027.495000	-37158.840000	18147.825000	46367.910000	29497.590000	26479.935000	38995.470000	-13068.945000	5.623404	8.134414	-2.103578	-4.961713	-0.736388	20.181831	1.724226	2.620107	-7.980980	16.221380	4.013380	-0.842649	-0.083740	0.507262	-1.000000	-1.000000	-1.000000	-1.000000	-1.000000	-1.000000	-1.000000	65.000000	0.000000	-1.000000	-1.000000	419738.000000	1776577238.403060
90023.490000	-37163.655000	18145.845000	46373.715000	29490.660000	26384.355000	38995.560000	-13071.870000	1.751448	12.809654	8.915947	9.463288	8.080274	0.859907	-2.873052	4.213948	-7.980980	16.221380	4.013380	-0.842649	-0.083740	0.507262	-1.000000	-1.000000	-1.000000	-1.000000	-1.000000	-1.000000	-1.000000	65.000000	0.000000	-1.000000	-1.000000	419739.000000	1776577238.408422
90018.225000	-37166.490000	18145.125000	46376.325000	29493.855000	26459.595000	38996.550000	-13074.255000	-4.115452	8.969692	14.962664	19.574216	11.980502	-31.151312	-4.776354	3.467125	-7.980980	16.221380	4.013380	-0.842649	-0.083740	0.507262	-1.000000	-1.000000	-1.000000	-1.000000	-1.000000	-1.000000	-1.000000	65.000000	0.000000	-1.000000	-1.000000	419740.000000	1776577238.408434
90022.500000	-37161.315000	18150.885000	46380.645000	29497.680000	26513.730000	39000.960000	-13064.220000	-9.008107	0.702104	14.685298	22.524222	11.219174	-51.677192	-3.814825	1.218350	-7.980980	16.221380	4.013380	-0.842649	-0.083740	0.507262	-1.000000	-1.000000	-1.000000	-1.000000	-1.000000	-1.000000	-1.000000	65.000000	0.000000	-1.000000	-1.000000	419741.000000	1776577238.411097
90011.700000	-37160.685000	18147.960000	46375.605000	29488.410000	26477.820000	38986.695000	-13063.140000	-10.306938	-5.899543	9.957772	18.248405	7.855446	-40.760186	-1.496004	-0.535815	-7.980980	16.221380	4.013380	-0.842649	-0.083740	0.507262	-1.000000	-1.000000	-1.000000	-1.000000	-1.000000	-1.000000	-1.000000	65.000000	0.000000	-1.000000	-1.000000	419742.000000	1776577238.411107
90015.885000	-37164.195000	18146.610000	46376.955000	29490.840000	26380.845000	38982.015000	-13064.130000	-7.692286	-7.604881	3.608054	9.025963	3.548177	-9.560457	0.000227	-0.792108	-7.980980	16.221380	4.013380	-0.842649	-0.083740	0.507262	-1.000000	-1.000000	-1.000000	-1.000000	-1.000000	-1.000000	-1.000000	65.000000	0.000000	-1.000000	-1.000000	419743.000000	1776577238.415262
90018.045000	-37168.065000	18146.565000	46379.160000	29498.580000	26409.960000	38977.020000	-13065.795000	-2.637621	-5.306902	-2.149115	-1.323370	-0.340776	14.977847	-0.314861	-0.365430	-7.980980	16.221380	4.013380	-0.842649	-0.083740	0.507262	-1.000000	-1.000000	-1.000000	-1.000000	-1.000000	-1.000000	-1.000000	65.000000	0.000000	-1.000000	-1.000000	419744.000000	1776577238.415279
90023.400000	-37167.390000	18146.565000	46379.835000	29501.010000	26450.370000	38978.595000	-13060.395000	3.022141	-1.708323	-5.830464	-8.933081	-2.373112	22.979834	-1.275463	-0.281553	-7.980980	16.221380	4.013380	-0.842649	-0.083740	0.507262	-1.000000	-1.000000	-1.000000	-1.000000	-1.000000	-1.000000	-1.000000	65.000000	0.000000	-1.000000	-1.000000	419745.000000	1776577238.419202
90028.350000	-37166.265000	18145.620000	46378.125000	29489.940000	26426.205000	38977.695000	-13054.995000	7.507036	1.295581	-6.830075	-11.843345	-2.544548	23.117730	-1.107476	-0.421598	-7.980980	16.221380	4.013380	-0.842649	-0.083740	0.507262	-1.000000	-1.000000	-1.000000	-1.000000	-1.000000	-1.000000	-1.000000	65.000000	0.000000	-1.000000	-1.000000	419746.000000	1776577238.419223
90031.365000	-37166.940000	18144.225000	46378.800000	29489.130000	26437.770000	38976.570000	-13052.295000	9.412564	3.113957	-5.604081	-10.539196	-2.478948	21.702890	0.644922	-0.174294	-1.602300	12.848920	1.297100	-0.855222	-0.078552	0.504637	-1.000000	-1.000000	-1.000000	-1.000000	-1.000000	-1.000000	-1.000000	65.000000	0.000000	-1.000000	-1.000000	419747.000000	1776577238.423182
90037.080000	-37158.525000	18154.980000	46392.480000	29509.155000	26459.820000	38981.835000	-13047.120000	8.267861	3.846216	-3.051871	-6.551113	-2.712420	18.093206	2.997800	0.457711	-1.602300	12.848920	1.297100	-0.855222	-0.078552	0.504637	-1.000000	-1.000000	-1.000000	-1.000000	-1.000000	-1.000000	-1.000000	65.000000	0.000000	-1.000000	-1.000000	419748.000000	1776577238.423203
90038.160000	-37153.530000	18164.160000	46403.505000	29524.860000	26480.925000	38985.840000	-13044.105000	4.747684	3.949210	0.252924	-1.155351	-1.566481	12.383665	4.775094	0.954040	-1.602300	12.848920	1.297100	-0.855222	-0.078552	0.504637	-1.000000	-1.000000	-1.000000	-1.000000	-1.000000	-1.000000	-1.000000	65.000000	0.000000	-1.000000	-1.000000	419749.000000	1776577238.427178
90043.830000	-37151.100000	18164.700000	46404.945000	29527.245000	26464.095000	38993.400000	-13037.130000	0.303533	3.676793	3.534353	4.099404	1.694040	5.518140	5.371161	0.958635	-1.602300	12.848920	1.297100	-0.855222	-0.078552	0.504637	-1.000000	-1.000000	-1.000000	-1.000000	-1.000000	-1.000000	-1.000000	65.000000	0.000000	-1.000000	-1.000000	419750.000000	1776577238.427192
90039.060000	-37159.200000	18152.910000	46388.385000	29485.845000	26404.920000	38983.185000	-13041.495000	-3.605052	2.514530	4.970531	6.592394	3.892943	-4.122435	4.397820	0.392499	-1.602300	12.848920	1.297100	-0.855222	-0.078552	0.504637	-1.000000	-1.000000	-1.000000	-1.000000	-1.000000	-1.000000	-1.000000	65.000000	0.000000	-1.000000	-1.000000	419751.000000	1776577238.431283
90026.280000	-37170.045000	18140.085000	46373.130000	29464.920000	26413.515000	38979.675000	-13052.520000	-6.386044	-0.295429	2.797856	4.086882	0.502339	-17.386077	1.446664	-1.008248	-1.602300	12.848920	1.297100	-0.855222	-0.078552	0.504637	-1.000000	-1.000000	-1.000000	-1.000000	-1.000000	-1.000000	-1.000000	65.000000	0.000000	-1.000000	-1.000000	419752.000000	1776577238.431312
90017.280000	-37178.910000	18131.625000	46368.270000	29474.730000	26455.860000	38984.940000	-13059.405000	-8.244427	-4.449783	-2.443821	-2.430022	-7.600294	-27.462249	-2.760044	-3.409386	-1.602300	12.848920	1.297100	-0.855222	-0.078552	0.504637	-1.000000	-1.000000	-1.000000	-1.000000	-1.000000	-1.000000	-1.000000	65.000000	0.000000	-1.000000	-1.000000	419753.000000	1776577238.435044
90018.675000	-37177.380000	18135.270000	46375.155000	29488.095000	26459.325000	38991.420000	-13054.995000	-8.780066	-7.912945	-7.400303	-8.287524	-12.818156	-24.458083	-5.788744	-5.648790	-1.602300	12.848920	1.297100	-0.855222	-0.078552	0.504637	-1.000000	-1.000000	-1.000000	-1.000000	-1.000000	-1.000000	-1.000000	65.000000	0.000000	-1.000000	-1.000000	419754.000000	1776577238.435056
90021.510000	-37174.545000	18137.070000	46378.485000	29492.955000	26451.810000	38985.390000	-13051.710000	-6.673835	-8.059392	-8.262730	-8.748889	-8.985030	-8.706653	-5.790276	-5.508607	-1.602300	12.848920	1.297100	-0.855222	-0.078552	0.504637	-1.000000	-1.000000	-1.000000	-1.000000	-1.000000	-1.000000	-1.000000	65.000000	0.000000	-1.000000	-1.000000	419755.000000	1776577238.439097
90027.225000	-37168.605000	18138.915000	46377.270000	29493.765000	26440.650000	38983.860000	-13046.040000	-1.471506	-3.949221	-4.019248	-3.271823	1.866417	8.355901	-3.557187	-2.009137	-1.602300	12.848920	1.297100	-0.855222	-0.078552	0.504637	-1.000000	-1.000000	-1.000000	-1.000000	-1.000000	-1.000000	-1.000000	65.000000	0.000000	-1.000000	-1.000000	419756.000000	1776577238.439107
90031.770000	-37163.115000	18145.935000	46384.245000	29499.345000	26443.260000	38981.385000	-13045.005000	5.150465	2.643613	2.859503	4.403460	12.294165	16.353835	-1.165067	3.272658	-1.571780	11.048240	4.623780	-0.854002	-0.085815	0.511351	-1.000000	-1.000000	-1.000000	-1.000000	-1.000000	-1.000000	-1.000000	65.000000	0.000000	-1.000000	-1.000000	419757.000000	1776577238.443178
90034.740000	-37158.480000	18152.460000	46394.730000	29506.860000	26449.830000	38982.060000	-13044.015000	10.252183	8.435408	8.756919	10.063307	16.470710	14.039852	0.285959	7.372295	-1.571780	11.048240	4.623780	-0.854002	-0.085815	0.511351	-1.000000	-1.000000	-1.000000	-1.000000	-1.000000	-1.000000	-1.000000	65.000000	0.000000	-1.000000	-1.000000	419758.000000	1776577238.443211
90037.350000	-37156.500000	18155.295000	46397.835000	29502.945000	26446.275000	38976.570000	-13043.565000	11.507718	10.670723	11.142918	11.703670	13.376517	6.759705	0.875674	8.128303	-1.571780	11.048240	4.623780	-0.854002	-0.085815	0.511351	-1.000000	-1.000000	-1.000000	-1.000000	-1.000000	-1.000000	-1.000000	65.000000	0.000000	-1.000000	-1.000000	419759.000000	1776577238.447227
90040.995000	-37152.180000	18160.380000	46403.010000	29508.345000	26436.600000	38975.940000	-13039.740000	8.583175	8.556421	9.303557	9.265524	5.490651	-0.280525	0.957060	5.544351	-1.571780	11.048240	4.623780	-0.854002	-0.085815	0.511351	-1.000000	-1.000000	-1.000000	-1.000000	-1.000000	-1.000000	-1.000000	65.000000	0.000000	-1.000000	-1.000000	419760.000000	1776577238.447258
90038.610000	-37155.330000	18157.725000	46402.695000	29513.430000	26442.720000	38981.295000	-13039.605000	3.053106	3.372848	4.256182	3.903947	-3.168071	-4.801843	0.978349	1.393825	-1.571780	11.048240	4.623780	-0.854002	-0.085815	0.511351	-1.000000	-1.000000	-1.000000	-1.000000	-1.000000	-1.000000	-1.000000	65.000000	0.000000	-1.000000	-1.000000	419761.000000	1776577238.451238
90038.745000	-37156.995000	18154.575000	46399.320000	29513.970000	26444.295000	38984.400000	-13036.635000	-2.825385	-2.640411	-2.030036	-2.489925	-8.955287	-6.031055	1.515155	-2.288586	-1.571780	11.048240	4.623780	-0.854002	-0.085815	0.511351	-1.000000	-1.000000	-1.000000	-1.000000	-1.000000	-1.000000	-1.000000	65.000000	0.000000	-1.000000	-1.000000	419762.000000	1776577238.451250
90028.980000	-37169.505000	18140.265000	46382.760000	29498.895000	26414.595000	38979.810000	-13043.385000	-7.254711	-7.541875	-7.673362	-8.189161	-10.777302	-4.684683	2.437727	-4.427261	-1.571780	11.048240	4.623780	-0.854002	-0.085815	0.511351	-1.000000	-1.000000	-1.000000	-1.000000	-1.000000	-1.000000	-1.000000	65.000000	0.000000	-1.000000	-1.000000	419763.000000	1776577238.455042
90030.735000	-37164.780000	18150.210000	46395.405000	29513.070000	26410.950000	38978.820000	-13041.045000	-9.279921	-10.043290	-11.035734	-11.702618	-9.726923	-3.280137	2.662417	-5.041210	-1.571780	11.048240	4.623780	-0.854002	-0.085815	0.511351	-1.000000	-1.000000	-1.000000	-1.000000	-1.000000	-1.000000	-1.000000	65.000000	0.000000	-1.000000	-1.000000	419764.000000	1776577238.455051
90036.450000	-37151.640000	18163.530000	46403.820000	29521.260000	26417.655000	38976.705000	-13033.665000	-8.364891	-8.972236	-10.265530	-11.105289	-6.427979	-2.784823	1.481670	-4.285505	-1.571780	11.048240	4.623780	-0.854002	-0.085815	0.511351	-1.000000	-1.000000	-1.000000	-1.000000	-1.000000	-1.000000	-1.000000	65.000000	0.000000	-1.000000	-1.000000	419765.000000	1776577238.462180
90029.205000	-37159.425000	18152.955000	46392.840000	29510.595000	26472.735000	38975.850000	-13034.295000	-4.667926	-4.129596	-4.978267	-5.922569	-1.387338	-0.294973	-0.546437	-2.146078	-1.571780	11.048240	4.623780	-0.854002	-0.085815	0.511351	-1.000000	-1.000000	-1.000000	-1.000000	-1.000000	-1.000000	-1.000000	65.000000	0.000000	-1.000000	-1.000000	419766.000000	1776577238.462219
90026.010000	-37171.755000	18141.570000	46385.235000	29503.035000	26517.060000	38972.610000	-13037.175000	0.017260	1.782462	1.522064	0.681115	2.944123	7.544577	-2.280559	0.530468	-8.667680	12.574240	4.471180	-0.845274	-0.088806	0.514952	-1.000000	-1.000000	-1.000000	-1.000000	-1.000000	-1.000000	-1.000000	65.000000	0.000000	-1.000000	-1.000000	419767.000000	1776577238.463174
90023.400000	-37163.970000	18141.435000	46380.330000	29497.995000	26459.190000	38968.155000	-13029.120000	3.352869	5.101183	4.950445	4.652430	4.079739	17.190820	-3.019440	2.350654	-8.667680	12.574240	4.471180	-0.845274	-0.088806	0.514952	-1.000000	-1.000000	-1.000000	-1.000000	-1.000000	-1.000000	-1.000000	65.000000	0.000000	-1.000000	-1.000000	419768.000000	1776577238.463179
89998.380000	-37153.350000	18141.390000	46374.255000	29494.710000	26447.670000	38973.240000	-13023.990000	4.027550	5.369704	4.532361	4.880833	2.344746	17.732894	-2.622790	2.972916	-8.667680	12.574240	4.471180	-0.845274	-0.088806	0.514952	-1.000000	-1.000000	-1.000000	-1.000000	-1.000000	-1.000000	-1.000000	65.000000	0.000000	-1.000000	-1.000000	419769.000000	1776577238.467204
89974.665000	-37158.255000	18151.965000	46396.485000	29516.805000	26454.510000	38982.690000	-13031.055000	1.598347	4.617673	2.797726	3.441768	0.513461	4.405105	-0.953662	2.745973	-8.667680	12.574240	4.471180	-0.845274	-0.088806	0.514952	-1.000000	-1.000000	-1.000000	-1.000000	-1.000000	-1.000000	-1.000000	65.000000	0.000000	-1.000000	-1.000000	419770.000000	1776577238.467215
90015.390000	-37152.945000	18163.935000	46412.055000	29526.390000	26445.960000	38981.430000	-13022.730000	-1.945112	3.760618	2.421609	3.534443	1.421139	-13.721451	1.747147	1.667123	-8.667680	12.574240	4.471180	-0.845274	-0.088806	0.514952	-1.000000	-1.000000	-1.000000	-1.000000	-1.000000	-1.000000	-1.000000	65.000000	0.000000	-1.000000	-1.000000	419771.000000	1776577238.471106
90072.450000	-37139.040000	18166.995000	46408.635000	29521.305000	26498.790000	38974.770000	-13011.255000	-0.738615	2.670248	3.895461	5.948775	4.792041	-23.419582	3.904323	0.291870	-8.667680	12.574240	4.471180	-0.845274	-0.088806	0.514952	-1.000000	-1.000000	-1.000000	-1.000000	-1.000000	-1.000000	-1.000000	65.000000	0.000000	-1.000000	-1.000000	419772.000000	1776577238.471116
90096.165000	-37137.375000	18159.570000	46396.125000	29515.860000	26565.930000	38972.880000	-13004.640000	8.724246	1.666416	5.102273	7.367395	6.847307	-17.157693	3.628724	-0.142526	-8.667680	12.574240	4.471180	-0.845274	-0.088806	0.514952	-1.000000	-1.000000	-1.000000	-1.000000	-1.000000	-1.000000	-1.000000	65.000000	0.000000	-1.000000	-1.000000	419773.000000	1776577238.475218
90070.560000	-37146.645000	18153.675000	46395.045000	29529.405000	26593.380000	38973.330000	-13010.760000	19.707097	0.516358	3.397263	4.247970	4.835883	2.568039	0.956181	0.322861	-8.667680	12.574240	4.471180	-0.845274	-0.088806	0.514952	-1.000000	-1.000000	-1.000000	-1.000000	-1.000000	-1.000000	-1.000000	65.000000	0.000000	-1.000000	-1.000000	419774.000000	1776577238.475235
90040.320000	-37163.070000	18135.405000	46372.095000	29499.345000	26424.135000	38978.820000	-13021.245000	19.627952	-2.044582	-1.687119	-2.918403	-0.292449	19.477024	-1.995852	-0.068888	-8.667680	12.574240	4.471180	-0.845274	-0.088806	0.514952	-1.000000	-1.000000	-1.000000	-1.000000	-1.000000	-1.000000	-1.000000	65.000000	0.000000	-1.000000	-1.000000	419775.000000	1776577238.479341
90022.185000	-37177.920000	18120.510000	46355.085000	29467.755000	26302.725000	38972.205000	-13031.775000	3.686440	-6.383936	-8.091836	-10.675440	-6.828842	11.703475	-3.240982	-2.587837	-8.667680	12.574240	4.471180	-0.845274	-0.088806	0.514952	-1.000000	-1.000000	-1.000000	-1.000000	-1.000000	-1.000000	-1.000000	65.000000	0.000000	-1.000000	-1.000000	419776.000000	1776577238.479389
90018.495000	-37183.230000	18117.360000	46357.065000	29483.460000	26395.830000	38969.235000	-13035.555000	-19.051227	-10.487161	-12.476304	-15.117025	-12.798627	-20.311543	-2.739036	-6.118716	-17.320100	13.077820	5.402040	-0.844541	-0.083557	0.511656	-1.000000	-1.000000	-1.000000	-1.000000	-1.000000	-1.000000	-1.000000	65.000000	0.000000	-1.000000	-1.000000	419777.000000	1776577238.483224
90019.845000	-37171.845000	18135.495000	46380.555000	29509.920000	26448.030000	38975.625000	-13031.775000	-33.613457	-10.846996	-11.448385	-12.737173	-13.398762	-43.747982	-1.524105	-7.769192	-17.320100	13.077820	5.402040	-0.844541	-0.083557	0.511656	-1.000000	-1.000000	-1.000000	-1.000000	-1.000000	-1.000000	-1.000000	65.000000	0.000000	-1.000000	-1.000000	419778.000000	1776577238.483236
89984.520000	-37171.395000	18163.305000	46414.620000	29541.015000	26482.410000	38982.420000	-13028.985000	-31.919652	-5.402362	-3.393580	-2.265207	-4.626827	-29.913538	0.077928	-5.356464	-17.320100	13.077820	5.402040	-0.844541	-0.083557	0.511656	-1.000000	-1.000000	-1.000000	-1.000000	-1.000000	-1.000000	-1.000000	65.000000	0.000000	-1.000000	-1.000000	419779.000000	1776577238.487106
89920.935000	-37187.145000	18174.780000	46434.195000	29563.605000	26525.565000	38985.390000	-13040.595000	-18.694949	3.491850	9.173478	12.750831	10.567825	13.373901	2.079450	0.260754	-17.320100	13.077820	5.402040	-0.844541	-0.083557	0.511656	-1.000000	-1.000000	-1.000000	-1.000000	-1.000000	-1.000000	-1.000000	65.000000	0.000000	-1.000000	-1.000000	419780.000000	1776577238.487114
89974.935000	-37169.865000	18160.380000	46412.685000	29537.595000	26510.220000	38975.310000	-13034.340000	-3.455841	10.634201	19.171621	23.822687	22.592513	54.303477	3.471248	5.710337	-17.320100	13.077820	5.402040	-0.844541	-0.083557	0.511656	-1.000000	-1.000000	-1.000000	-1.000000	-1.000000	-1.000000	-1.000000	65.000000	0.000000	-1.000000	-1.000000	419781.000000	1776577238.491205
90077.805000	-37142.370000	18138.015000	46386.180000	29515.950000	26503.470000	38973.510000	-13012.650000	12.726428	13.614680	19.041428	22.175268	21.712285	65.738387	2.738591	8.792687	-17.320100	13.077820	5.402040	-0.844541	-0.083557	0.511656	-1.000000	-1.000000	-1.000000	-1.000000	-1.000000	-1.000000	-1.000000	65.000000	0.000000	-1.000000	-1.000000	419782.000000	1776577238.491224
90113.985000	-37131.390000	18131.085000	46382.040000	29490.930000	26353.485000	38980.170000	-13000.275000	33.346901	13.777041	7.405850	6.710201	6.307745	39.761830	0.056331	10.052691	-17.320100	13.077820	5.402040	-0.844541	-0.083557	0.511656	-1.000000	-1.000000	-1.000000	-1.000000	-1.000000	-1.000000	-1.000000	65.000000	0.000000	-1.000000	-1.000000	419783.000000	1776577238.495122
90074.070000	-37144.845000	18136.890000	46388.970000	29497.095000	26379.585000	38981.790000	-13005.720000	50.259267	11.442619	-8.527860	-13.053955	-14.450942	-10.846246	-2.352248	9.794732	-17.320100	13.077820	5.402040	-0.844541	-0.083557	0.511656	-1.000000	-1.000000	-1.000000	-1.000000	-1.000000	-1.000000	-1.000000	65.000000	0.000000	-1.000000	-1.000000	419784.000000	1776577238.495144
90066.510000	-37143.315000	18151.020000	46394.775000	29511.225000	26434.710000	38983.500000	-12998.115000	46.540247	4.983033	-18.348465	-24.476592	-27.050682	-55.471141	-2.730619	6.701389	-17.320100	13.077820	5.402040	-0.844541	-0.083557	0.511656	-1.000000	-1.000000	-1.000000	-1.000000	-1.000000	-1.000000	-1.000000	65.000000	0.000000	-1.000000	-1.000000	419785.000000	1776577238.499128
90068.985000	-37141.830000	18153.405000	46384.020000	29497.185000	26379.135000	38970.135000	-12993.885000	17.929925	-4.778665	-16.666116	-22.187200	-24.138834	-65.417415	-1.627456	0.704597	-17.320100	13.077820	5.402040	-0.844541	-0.083557	0.511656	-1.000000	-1.000000	-1.000000	-1.000000	-1.000000	-1.000000	-1.000000	65.000000	0.000000	-1.000000	-1.000000	419786.000000	1776577238.499138
90060.435000	-37144.980000	18151.290000	46382.670000	29501.595000	26366.445000	38958.705000	-13000.725000	-20.125629	-13.471186	-6.571029	-10.581111	-9.687354	-40.647234	-1.051525	-5.925848	-17.869460	10.590440	0.976640	-0.851133	-0.077331	0.500121	-1.000000	-1.000000	-1.000000	-1.000000	-1.000000	-1.000000	-1.000000	65.000000	0.000000	-1.000000	-1.000000	419787.000000	1776577238.503129
90059.535000	-37143.540000	18145.620000	46396.440000	29516.535000	26382.960000	38954.205000	-12998.880000	-47.248739	-17.045517	4.100534	2.479270	6.727201	-3.491957	-2.022574	-10.749431	-17.869460	10.590440	0.976640	-0.851133	-0.077331	0.500121	-1.000000	-1.000000	-1.000000	-1.000000	-1.000000	-1.000000	-1.000000	65.000000	0.000000	-1.000000	-1.000000	419788.000000	1776577238.503136
90051.255000	-37152.315000	18141.795000	46396.215000	29513.205000	26473.950000	38956.680000	-13001.535000	-52.720969	-14.642299	9.250352	11.852517	17.898212	28.204937	-3.160455	-12.306189	-17.869460	10.590440	0.976640	-0.851133	-0.077331	0.500121	-1.000000	-1.000000	-1.000000	-1.000000	-1.000000	-1.000000	-1.000000	65.000000	0.000000	-1.000000	-1.000000	419789.000000	1776577238.507132
90043.110000	-37158.840000	18137.655000	46386.270000	29512.755000	26506.215000	38967.480000	-13003.920000	-38.566030	-8.442523	7.864728	15.301880	20.608875	48.954538	-2.106641	-10.280400	-17.869460	10.590440	0.976640	-0.851133	-0.077331	0.500121	-1.000000	-1.000000	-1.000000	-1.000000	-1.000000	-1.000000	-1.000000	65.000000	0.000000	-1.000000	-1.000000	419790.000000	1776577238.507141
90040.860000	-37164.465000	18133.605000	46386.360000	29514.915000	26513.235000	38976.615000	-13002.030000	-14.709929	-1.667558	2.861308	12.366086	15.184811	55.521386	1.953868	-5.655418	-17.869460	10.590440	0.976640	-0.851133	-0.077331	0.500121	-1.000000	-1.000000	-1.000000	-1.000000	-1.000000	-1.000000	-1.000000	65.000000	0.000000	-1.000000	-1.000000	419791.000000	1776577238.511238
90042.615000	-37165.995000	18131.175000	46384.020000	29503.935000	26496.045000	38974.005000	-13002.705000	8.236819	3.590250	-1.964243	5.206054	5.115955	42.839622	7.028585	-0.105688	-17.869460	10.590440	0.976640	-0.851133	-0.077331	0.500121	-1.000000	-1.000000	-1.000000	-1.000000	-1.000000	-1.000000	-1.000000	65.000000	0.000000	-1.000000	-1.000000	419792.000000	1776577238.511287
90051.750000	-37157.805000	18139.455000	46391.670000	29511.135000	26472.960000	38969.235000	-13000.770000	23.642139	7.010640	-4.009560	-2.018202	-4.958347	11.736118	9.434630	4.684960	-17.869460	10.590440	0.976640	-0.851133	-0.077331	0.500121	-1.000000	-1.000000	-1.000000	-1.000000	-1.000000	-1.000000	-1.000000	65.000000	0.000000	-1.000000	-1.000000	419793.000000	1776577238.515122
90058.005000	-37150.650000	18148.320000	46404.090000	29521.260000	26460.495000	38969.280000	-12995.460000	29.519781	9.235313	-2.432110	-5.654638	-10.925507	-26.240145	6.977896	7.553806	-17.869460	10.590440	0.976640	-0.851133	-0.077331	0.500121	-1.000000	-1.000000	-1.000000	-1.000000	-1.000000	-1.000000	-1.000000	65.000000	0.000000	-1.000000	-1.000000	419794.000000	1776577238.515131
90063.540000	-37145.340000	18154.260000	46415.745000	29532.645000	26463.060000	38972.295000	-12988.305000	26.933888	10.458407	1.639676	-4.506961	-10.589227	-54.028555	1.099857	8.294502	-17.869460	10.590440	0.976640	-0.851133	-0.077331	0.500121	-1.000000	-1.000000	-1.000000	-1.000000	-1.000000	-1.000000	-1.000000	65.000000	0.000000	-1.000000	-1.000000	419795.000000	1776577238.519195
90061.560000	-37147.860000	18150.120000	46411.920000	29530.305000	26469.900000	38972.160000	-12986.730000	18.291160	9.796059	5.362339	-0.571572	-5.354019	-59.111906	-4.569970	7.289824	-17.869460	10.590440	0.976640	-0.851133	-0.077331	0.500121	-1.000000	-1.000000	-1.000000	-1.000000	-1.000000	-1.000000	-1.000000	65.000000	0.000000	-1.000000	-1.000000	419796.000000	1776577238.519208
90048.330000	-37158.930000	18136.980000	46391.535000	29507.310000	26465.850000	38965.095000	-12994.245000	6.353056	6.128028	5.676621	1.939362	0.077812	-41.053487	-7.459423	4.686462	-3.494540	7.950460	-1.129240	-0.858762	-0.082824	0.495421	-1.000000	-1.000000	-1.000000	-1.000000	-1.000000	-1.000000	-1.000000	65.000000	0.000000	-1.000000	-1.000000	419797.000000	1776577238.523357
90046.845000	-37157.490000	18142.740000	46401.030000	29511.180000	26462.835000	38964.330000	-12990.780000	-5.869765	-0.239671	1.798580	0.210997	1.430170	-10.971084	-7.397507	0.652373	-3.494540	7.950460	-1.129240	-0.858762	-0.082824	0.495421	-1.000000	-1.000000	-1.000000	-1.000000	-1.000000	-1.000000	-1.000000	65.000000	0.000000	-1.000000	-1.000000	419798.000000	1776577238.523377
90048.510000	-37159.425000	18141.795000	46400.670000	29512.575000	26468.820000	38964.960000	-12986.010000	-14.733052	-6.700100	-3.557804	-3.912003	-0.893324	16.627966	-5.339610	-3.451402	-3.494540	7.950460	-1.129240	-0.858762	-0.082824	0.495421	-1.000000	-1.000000	-1.000000	-1.000000	-1.000000	-1.000000	-1.000000	65.000000	0.000000	-1.000000	-1.000000	419799.000000	1776577238.527241
90051.885000	-37160.550000	18139.005000	46396.710000	29510.370000	26479.710000	38966.355000	-12983.355000	-17.123776	-10.071217	-6.719593	-6.342025	-3.007951	32.476258	-2.144895	-5.572718	-3.494540	7.950460	-1.129240	-0.858762	-0.082824	0.495421	-1.000000	-1.000000	-1.000000	-1.000000	-1.000000	-1.000000	-1.000000	65.000000	0.000000	-1.000000	-1.000000	419800.000000	1776577238.527255
90058.185000	-37152.855000	18144.675000	46405.530000	29518.920000	26479.305000	38971.845000	-12976.515000	-12.708988	-8.999463	-6.240718	-5.227571	-2.300788	34.838421	1.387836	-4.868377	-3.494540	7.950460	-1.129240	-0.858762	-0.082824	0.495421	-1.000000	-1.000000	-1.000000	-1.000000	-1.000000	-1.000000	-1.000000	65.000000	0.000000	-1.000000	-1.000000	419801.000000	1776577238.531168
90066.600000	-37141.245000	18154.305000	46413.675000	29521.755000	26448.840000	38973.195000	-12971.655000	-4.214099	-4.190123	-2.795143	-1.226073	0.994639	26.103553	4.344607	-2.175605	-3.494540	7.950460	-1.129240	-0.858762	-0.082824	0.495421	-1.000000	-1.000000	-1.000000	-1.000000	-1.000000	-1.000000	-1.000000	65.000000	0.000000	-1.000000	-1.000000	419802.000000	1776577238.531177
90070.245000	-37135.080000	18163.755000	46421.910000	29523.195000	26415.045000	38967.345000	-12969.090000	4.292731	2.250627	2.061886	3.866710	4.826496	9.702204	5.651548	0.825516	-3.494540	7.950460	-1.129240	-0.858762	-0.082824	0.495421	-1.000000	-1.000000	-1.000000	-1.000000	-1.000000	-1.000000	-1.000000	65.000000	0.000000	-1.000000	-1.000000	419803.000000	1776577238.535215
90071.910000	-37137.465000	18160.830000	46413.180000	29523.105000	26463.600000	38967.165000	-12964.950000	9.278514	7.218610	6.096072	7.454478	6.743281	-7.911621	4.528307	2.575807	-3.494540	7.950460	-1.129240	-0.858762	-0.082824	0.495421	-1.000000	-1.000000	-1.000000	-1.000000	-1.000000	-1.000000	-1.000000	65.000000	0.000000	-1.000000	-1.000000	419804.000000	1776577238.535224
90064.170000	-37149.480000	18147.015000	46402.785000	29527.155000	26487.045000	38970.855000	-12968.055000	9.040950	7.813536	6.738090	7.011837	5.636555	-16.545072	1.599936	2.388093	-3.494540	7.950460	-1.129240	-0.858762	-0.082824	0.495421	-1.000000	-1.000000	-1.000000	-1.000000	-1.000000	-1.000000	-1.000000	65.000000	0.000000	-1.000000	-1.000000	419805.000000	1776577238.539480
90045.405000	-37157.760000	18139.635000	46396.620000	29508.480000	26396.820000	38969.550000	-12978.270000	3.981252	3.325685	2.817360	2.156504	2.048066	-12.888878	-1.271888	0.374810	-3.494540	7.950460	-1.129240	-0.858762	-0.082824	0.495421	-1.000000	-1.000000	-1.000000	-1.000000	-1.000000	-1.000000	-1.000000	65.000000	0.000000	-1.000000	-1.000000	419806.000000	1776577238.539496
90036.180000	-37164.960000	18136.170000	46395.450000	29505.645000	26418.285000	38970.990000	-12985.065000	-3.646068	-3.741651	-3.632062	-4.254486	-2.836171	-6.045976	-2.703611	-2.795680	3.906560	5.295220	2.380560	-0.858335	-0.102417	0.503478	-1.000000	-1.000000	-1.000000	-1.000000	-1.000000	-1.000000	-1.000000	65.000000	0.000000	-1.000000	-1.000000	419807.000000	1776577238.543303
90045.180000	-37166.220000	18132.525000	46396.305000	29523.915000	26528.805000	38974.860000	-12982.365000	-9.773283	-9.108751	-8.465877	-8.088774	-6.710386	-1.223456	-2.525430	-5.510400	3.906560	5.295220	2.380560	-0.858335	-0.102417	0.503478	-1.000000	-1.000000	-1.000000	-1.000000	-1.000000	-1.000000	-1.000000	65.000000	0.000000	-1.000000	-1.000000	419808.000000	1776577238.543319
90063.315000	-37159.245000	18136.260000	46398.510000	29527.650000	26544.555000	38968.830000	-12976.560000	-9.971205	-9.482962	-8.679006	-7.108200	-6.519170	7.603629	-1.385722	-5.582182	3.906560	5.295220	2.380560	-0.858335	-0.102417	0.503478	-1.000000	-1.000000	-1.000000	-1.000000	-1.000000	-1.000000	-1.000000	65.000000	0.000000	-1.000000	-1.000000	419809.000000	1776577238.547130
90065.070000	-37155.870000	18139.005000	46396.530000	29515.815000	26444.475000	38964.600000	-12973.275000	-3.189177	-4.479290	-4.209939	-2.316791	-2.232573	18.384632	-0.440482	-2.139450	3.906560	5.295220	2.380560	-0.858335	-0.102417	0.503478	-1.000000	-1.000000	-1.000000	-1.000000	-1.000000	-1.000000	-1.000000	65.000000	0.000000	-1.000000	-1.000000	419810.000000	1776577238.547140
90064.485000	-37154.520000	18145.170000	46405.530000	29518.785000	26380.935000	38959.155000	-12972.330000	6.208650	3.105022	2.531313	3.327759	2.324293	15.382064	-0.536578	3.117619	3.906560	5.295220	2.380560	-0.858335	-0.102417	0.503478	-1.000000	-1.000000	-1.000000	-1.000000	-1.000000	-1.000000	-1.000000	65.000000	0.000000	-1.000000	-1.000000	419811.000000	1776577238.551258
90067.860000	-37150.020000	18149.175000	46407.780000	29525.445000	26457.165000	38957.535000	-12967.245000	11.938996	9.115314	8.269567	7.257106	4.159125	-5.553675	-1.357606	7.194753	3.906560	5.295220	2.380560	-0.858335	-0.102417	0.503478	-1.000000	-1.000000	-1.000000	-1.000000	-1.000000	-1.000000	-1.000000	65.000000	0.000000	-1.000000	-1.000000	419812.000000	1776577238.551268
90075.195000	-37146.240000	18149.625000	46404.945000	29529.045000	26500.635000	38965.365000	-12958.650000	11.203340	10.874078	10.506164	8.154862	3.672140	-24.479415	-1.632510	8.273716	3.906560	5.295220	2.380560	-0.858335	-0.102417	0.503478	-1.000000	-1.000000	-1.000000	-1.000000	-1.000000	-1.000000	-1.000000	65.000000	0.000000	-1.000000	-1.000000	419813.000000	1776577238.555172
90068.580000	-37151.145000	18147.285000	46409.220000	29541.105000	26540.910000	38970.180000	-12959.910000	5.650726	8.227169	8.417175	5.847158	2.598148	-21.430115	-0.211004	6.477978	3.906560	5.295220	2.380560	-0.858335	-0.102417	0.503478	-1.000000	-1.000000	-1.000000	-1.000000	-1.000000	-1.000000	-1.000000	65.000000	0.000000	-1.000000	-1.000000	419814.000000	1776577238.555180
90063.495000	-37153.395000	18150.480000	46416.195000	29542.995000	26487.045000	38979.990000	-12959.325000	-1.568975	2.656376	3.151699	1.715452	1.923210	-0.566145	2.728997	2.764167	3.906560	5.295220	2.380560	-0.858335	-0.102417	0.503478	-1.000000	-1.000000	-1.000000	-1.000000	-1.000000	-1.000000	-1.000000	65.000000	0.000000	-1.000000	-1.000000	419815.000000	1776577238.559157
90070.605000	-37147.005000	18158.985000	46426.905000	29540.835000	26364.645000	38974.140000	-12953.385000	-7.555510	-3.358636	-2.510806	-1.817779	1.281064	14.783316	5.423191	-1.570215	3.906560	5.295220	2.380560	-0.858335	-0.102417	0.503478	-1.000000	-1.000000	-1.000000	-1.000000	-1.000000	-1.000000	-1.000000	65.000000	0.000000	-1.000000	-1.000000	419816.000000	1776577238.559183
90079.785000	-37141.470000	18159.480000	46419.930000	29526.975000	26357.805000	38968.065000	-12946.995000	-9.733812	-6.978020	-5.824160	-3.361297	-0.541811	7.262903	5.545807	-4.755644	-0.045780	5.768280	-0.213640	-0.851011	-0.108215	0.506774	-1.000000	-1.000000	-1.000000	-1.000000	-1.000000	-1.000000	-1.000000	65.000000	0.000000	-1.000000	-1.000000	419817.000000	1776577238.564863
90064.620000	-37159.740000	18136.035000	46389.150000	29499.660000	26418.780000	38962.260000	-12957.840000	-7.486817	-7.142282	-6.498707	-4.207909	-4.375120	-13.575970	2.147538	-5.774968	-0.045780	5.768280	-0.213640	-0.851011	-0.108215	0.506774	-1.000000	-1.000000	-1.000000	-1.000000	-1.000000	-1.000000	-1.000000	65.000000	0.000000	-1.000000	-1.000000	419818.000000	1776577238.564900
90054.540000	-37170.765000	18126.045000	46383.615000	29510.190000	26480.835000	38966.760000	-12963.195000	-3.503298	-5.717691	-6.638425	-6.550553	-9.013349	-21.167337	-2.963636	-5.455213	-0.045780	5.768280	-0.213640	-0.851011	-0.108215	0.506774	-1.000000	-1.000000	-1.000000	-1.000000	-1.000000	-1.000000	-1.000000	65.000000	0.000000	-1.000000	-1.000000	419819.000000	1776577238.567605
90047.520000	-37168.965000	18124.515000	46375.560000	29498.985000	26461.080000	38963.160000	-12962.970000	-1.018431	-4.655646	-7.189448	-9.525931	-10.844613	-3.832878	-6.492285	-4.913102	-0.045780	5.768280	-0.213640	-0.851011	-0.108215	0.506774	-1.000000	-1.000000	-1.000000	-1.000000	-1.000000	-1.000000	-1.000000	65.000000	0.000000	-1.000000	-1.000000	419820.000000	1776577238.567618
90054.630000	-37162.440000	18130.320000	46385.235000	29502.720000	26436.735000	38962.710000	-12958.920000	-0.280736	-3.236324	-6.241971	-9.406882	-7.305375	22.494532	-6.555176	-3.788743	-0.045780	5.768280	-0.213640	-0.851011	-0.108215	0.506774	-1.000000	-1.000000	-1.000000	-1.000000	-1.000000	-1.000000	-1.000000	65.000000	0.000000	-1.000000	-1.000000	419821.000000	1776577238.571245
90070.920000	-37148.760000	18147.330000	46407.555000	29519.865000	26443.530000	38962.395000	-12951.045000	1.055344	0.290031	-1.683733	-3.565732	0.583078	34.505660	-3.766033	-1.124047	-0.045780	5.768280	-0.213640	-0.851011	-0.108215	0.506774	-1.000000	-1.000000	-1.000000	-1.000000	-1.000000	-1.000000	-1.000000	65.000000	0.000000	-1.000000	-1.000000	419822.000000	1776577238.571256
90078.615000	-37138.095000	18162.675000	46424.610000	29533.050000	26446.410000	38968.650000	-12946.050000	4.631563	5.793738	6.024474	6.911865	9.797287	25.260144	0.130846	2.897056	-0.045780	5.768280	-0.213640	-0.851011	-0.108215	0.506774	-1.000000	-1.000000	-1.000000	-1.000000	-1.000000	-1.000000	-1.000000	65.000000	0.000000	-1.000000	-1.000000	419823.000000	1776577238.575272
90079.245000	-37140.255000	18157.230000	46418.085000	29528.775000	26438.310000	38975.985000	-12943.845000	8.870792	10.586780	13.260368	16.810809	16.419642	4.623767	3.714437	6.565947	-0.045780	5.768280	-0.213640	-0.851011	-0.108215	0.506774	-1.000000	-1.000000	-1.000000	-1.000000	-1.000000	-1.000000	-1.000000	65.000000	0.000000	-1.000000	-1.000000	419824.000000	1776577238.575283
90085.905000	-37136.565000	18157.680000	46411.335000	29514.060000	26410.995000	38971.845000	-12937.275000	10.333501	11.283254	15.185541	19.464146	16.363716	-14.779866	5.928267	7.904478	-0.045780	5.768280	-0.213640	-0.851011	-0.108215	0.506774	-1.000000	-1.000000	-1.000000	-1.000000	-1.000000	-1.000000	-1.000000	65.000000	0.000000	-1.000000	-1.000000	419825.000000	1776577238.579131
90081.270000	-37140.615000	18156.105000	46411.110000	29519.865000	26454.555000	38964.735000	-12936.870000	7.252956	6.775972	9.857081	12.295919	8.582438	-25.045019	5.625293	6.250561	-0.045780	5.768280	-0.213640	-0.851011	-0.108215	0.506774	-1.000000	-1.000000	-1.000000	-1.000000	-1.000000	-1.000000	-1.000000	65.000000	0.000000	-1.000000	-1.000000	419826.000000	1776577238.579140
90063.540000	-37149.165000	18148.365000	46406.835000	29525.130000	26502.705000	38956.635000	-12943.710000	0.464474	-0.964539	0.005073	-0.608071	-2.602057	-21.732251	2.338493	2.296582	-5.936140	8.316700	-0.396760	-0.848020	-0.093200	0.505431	-1.000000	-1.000000	-1.000000	-1.000000	-1.000000	-1.000000	-1.000000	65.000000	0.000000	-1.000000	-1.000000	419827.000000	1776577238.583323
90055.755000	-37169.055000	18141.525000	46402.155000	29537.055000	26480.835000	38961.630000	-12947.220000	-7.694158	-8.834570	-9.551591	-12.186007	-10.540945	-6.515229	-2.394597	-2.677870	-5.936140	8.316700	-0.396760	-0.848020	-0.093200	0.505431	-1.000000	-1.000000	-1.000000	-1.000000	-1.000000	-1.000000	-1.000000	65.000000	0.000000	-1.000000	-1.000000	419828.000000	1776577238.583335
90053.235000	-37185.570000	18133.830000	46399.230000	29548.395000	26520.570000	38968.200000	-12950.280000	-13.743261	-14.333666	-14.981026	-17.478839	-11.518660	10.197912	-5.454428	-6.915385	-5.936140	8.316700	-0.396760	-0.848020	-0.093200	0.505431	-1.000000	-1.000000	-1.000000	-1.000000	-1.000000	-1.000000	-1.000000	65.000000	0.000000	-1.000000	-1.000000	419829.000000	1776577238.587277
90053.820000	-37178.415000	18131.670000	46396.035000	29535.795000	26490.870000	38967.030000	-12949.560000	-14.312746	-15.414543	-14.690398	-15.515469	-7.016206	17.631522	-4.779314	-8.566019	-5.936140	8.316700	-0.396760	-0.848020	-0.093200	0.505431	-1.000000	-1.000000	-1.000000	-1.000000	-1.000000	-1.000000	-1.000000	65.000000	0.000000	-1.000000	-1.000000	419830.000000	1776577238.587286
90060.660000	-37151.370000	18138.825000	46400.670000	29527.470000	26450.640000	38962.980000	-12945.330000	-8.586417	-10.034087	-9.198333	-8.414065	-2.041000	11.712596	-1.441786	-6.729043	-5.936140	8.316700	-0.396760	-0.848020	-0.093200	0.505431	-1.000000	-1.000000	-1.000000	-1.000000	-1.000000	-1.000000	-1.000000	65.000000	0.000000	-1.000000	-1.000000	419831.000000	1776577238.591192
90076.680000	-37146.015000	18138.960000	46403.280000	29526.345000	26428.095000	38960.820000	-12940.515000	1.139054	1.588305	-0.633454	0.472836	-0.399930	-4.714081	1.650686	-2.069178	-5.936140	8.316700	-0.396760	-0.848020	-0.093200	0.505431	-1.000000	-1.000000	-1.000000	-1.000000	-1.000000	-1.000000	-1.000000	65.000000	0.000000	-1.000000	-1.000000	419832.000000	1776577238.591202
90077.355000	-37154.115000	18133.695000	46398.375000	29527.155000	26461.485000	38958.795000	-12937.680000	10.757622	14.069511	7.503486	7.784736	-1.499743	-21.197375	2.635136	3.381756	-5.936140	8.316700	-0.396760	-0.848020	-0.093200	0.505431	-1.000000	-1.000000	-1.000000	-1.000000	-1.000000	-1.000000	-1.000000	65.000000	0.000000	-1.000000	-1.000000	419833.000000	1776577238.595174
90080.640000	-37150.245000	18141.840000	46408.545000	29534.445000	26465.355000	38962.260000	-12932.235000	15.898792	19.815881	11.842891	11.157555	-2.221749	-24.984936	1.803843	7.234224	-5.936140	8.316700	-0.396760	-0.848020	-0.093200	0.505431	-1.000000	-1.000000	-1.000000	-1.000000	-1.000000	-1.000000	-1.000000	65.000000	0.000000	-1.000000	-1.000000	419834.000000	1776577238.595186
90087.255000	-37145.565000	18149.940000	46417.455000	29540.205000	26461.485000	38968.830000	-12924.810000	14.293884	15.965645	11.599235	10.553302	-0.485035	-12.884802	0.725871	8.148721	-5.936140	8.316700	-0.396760	-0.848020	-0.093200	0.505431	-1.000000	-1.000000	-1.000000	-1.000000	-1.000000	-1.000000	-1.000000	65.000000	0.000000	-1.000000	-1.000000	419835.000000	1776577238.599372
90088.470000	-37147.230000	18138.285000	46396.755000	29516.580000	26442.630000	38961.900000	-12925.980000	7.379706	6.055636	8.147704	7.239400	2.682798	5.573662	0.475563	6.263729	-5.936140	8.316700	-0.396760	-0.848020	-0.093200	0.505431	-1.000000	-1.000000	-1.000000	-1.000000	-1.000000	-1.000000	-1.000000	65.000000	0.000000	-1.000000	-1.000000	419836.000000	1776577238.599394
90080.235000	-37142.145000	18146.700000	46406.700000	29529.765000	26464.005000	38960.100000	-12925.530000	-1.367821	-4.204103	2.936806	2.014107	4.332128	18.432072	0.538885	2.463474	-12.177480	7.446880	1.815940	-0.850523	-0.079895	0.501647	-1.000000	-1.000000	-1.000000	-1.000000	-1.000000	-1.000000	-1.000000	65.000000	0.000000	-1.000000	-1.000000	419837.000000	1776577238.603234
90049.950000	-37142.460000	18158.265000	46424.430000	29553.345000	26509.275000	38964.240000	-12928.320000	-9.370259	-10.641429	-2.135972	-3.165915	4.014400	22.139095	0.068914	-2.041971	-12.177480	7.446880	1.815940	-0.850523	-0.079895	0.501647	-1.000000	-1.000000	-1.000000	-1.000000	-1.000000	-1.000000	-1.000000	65.000000	0.000000	-1.000000	-1.000000	419838.000000	1776577238.603239
90070.110000	-37133.775000	18163.170000	46432.575000	29562.885000	26510.670000	38966.310000	-12920.040000	-14.851977	-11.786243	-4.754736	-5.087491	4.238692	20.370553	-0.591191	-5.614164	-12.177480	7.446880	1.815940	-0.850523	-0.079895	0.501647	-1.000000	-1.000000	-1.000000	-1.000000	-1.000000	-1.000000	-1.000000	65.000000	0.000000	-1.000000	-1.000000	419839.000000	1776577238.607197
90102.510000	-37136.925000	18155.610000	46427.265000	29550.780000	26421.885000	38961.720000	-12910.005000	-14.454980	-8.643862	-4.636952	-3.300958	5.323421	13.692052	-0.784926	-6.523182	-12.177480	7.446880	1.815940	-0.850523	-0.079895	0.501647	-1.000000	-1.000000	-1.000000	-1.000000	-1.000000	-1.000000	-1.000000	65.000000	0.000000	-1.000000	-1.000000	419840.000000	1776577238.607225
90126.675000	-37142.460000	18146.205000	46405.800000	29516.220000	26352.315000	38955.330000	-12906.585000	-5.560671	-3.904819	-3.956874	-1.298897	3.691397	-2.518558	-0.809664	-4.231383	-12.177480	7.446880	1.815940	-0.850523	-0.079895	0.501647	-1.000000	-1.000000	-1.000000	-1.000000	-1.000000	-1.000000	-1.000000	65.000000	0.000000	-1.000000	-1.000000	419841.000000	1776577238.611286
90102.915000	-37150.785000	18144.270000	46398.870000	29510.730000	26405.505000	38947.860000	-12920.940000	7.611384	-0.452091	-4.472681	-2.488540	-3.113139	-24.747287	-1.359054	-0.659411	-12.177480	7.446880	1.815940	-0.850523	-0.079895	0.501647	-1.000000	-1.000000	-1.000000	-1.000000	-1.000000	-1.000000	-1.000000	65.000000	0.000000	-1.000000	-1.000000	419842.000000	1776577238.611334
90096.120000	-37144.395000	18161.460000	46418.985000	29539.755000	26495.730000	38957.670000	-12920.445000	15.228999	0.714218	-5.124871	-5.704043	-11.049029	-34.629998	-2.116650	1.127645	-12.177480	7.446880	1.815940	-0.850523	-0.079895	0.501647	-1.000000	-1.000000	-1.000000	-1.000000	-1.000000	-1.000000	-1.000000	65.000000	0.000000	-1.000000	-1.000000	419843.000000	1776577238.615229
90096.480000	-37145.070000	18160.785000	46420.605000	29549.340000	26544.465000	38967.345000	-12915.945000	11.709315	0.921923	-3.457285	-6.253138	-12.331928	-17.291246	-1.532658	0.348304	-12.177480	7.446880	1.815940	-0.850523	-0.079895	0.501647	-1.000000	-1.000000	-1.000000	-1.000000	-1.000000	-1.000000	-1.000000	65.000000	0.000000	-1.000000	-1.000000	419844.000000	1776577238.615240
90093.645000	-37149.525000	18132.120000	46412.235000	29536.470000	26417.970000	38966.130000	-12912.165000	0.995218	1.601664	0.123451	-2.241727	-4.933777	15.576294	1.132709	-0.875792	-12.177480	7.446880	1.815940	-0.850523	-0.079895	0.501647	-1.000000	-1.000000	-1.000000	-1.000000	-1.000000	-1.000000	-1.000000	65.000000	0.000000	-1.000000	-1.000000	419845.000000	1776577238.619148
90089.460000	-37145.205000	18116.685000	46410.255000	29528.280000	26407.395000	38961.405000	-12908.070000	-8.875999	2.668274	1.836285	3.082133	4.611028	33.418222	4.053887	-0.528176	-12.177480	7.446880	1.815940	-0.850523	-0.079895	0.501647	-1.000000	-1.000000	-1.000000	-1.000000	-1.000000	-1.000000	-1.000000	65.000000	0.000000	-1.000000	-1.000000	419846.000000	1776577238.619157
90094.185000	-37150.605000	18129.285000	46421.370000	29538.585000	26461.620000	38965.860000	-12900.555000	-12.624077	3.373078	0.172596	6.097585	9.258237	22.726568	4.688765	1.407601	-13.596660	8.072540	0.946120	-0.852781	-0.082641	0.498595	-1.000000	-1.000000	-1.000000	-1.000000	-1.000000	-1.000000	-1.000000	65.000000	0.000000	-1.000000	-1.000000	419847.000000	1776577238.623312
90098.055000	-37155.015000	18153.855000	46430.010000	29552.535000	26516.250000	38971.845000	-12899.655000	-9.469015	3.104762	-1.001963	6.515349	8.347360	1.165812	2.788173	3.571416	-13.596660	8.072540	0.946120	-0.852781	-0.082641	0.498595	-1.000000	-1.000000	-1.000000	-1.000000	-1.000000	-1.000000	-1.000000	65.000000	0.000000	-1.000000	-1.000000	419848.000000	1776577238.623322
90109.620000	-37140.930000	18158.130000	46416.060000	29546.235000	26517.645000	38974.185000	-12895.605000	-1.913180	1.959414	2.314659	5.400509	5.242989	-9.138612	0.180075	4.421749	-13.596660	8.072540	0.946120	-0.852781	-0.082641	0.498595	-1.000000	-1.000000	-1.000000	-1.000000	-1.000000	-1.000000	-1.000000	65.000000	0.000000	-1.000000	-1.000000	419849.000000	1776577238.627310
90111.195000	-37142.640000	18149.985000	46408.905000	29539.530000	26479.980000	38971.395000	-12893.940000	6.073511	1.066862	8.201431	2.578781	1.835070	-6.373415	-1.695471	3.287885	-13.596660	8.072540	0.946120	-0.852781	-0.082641	0.498595	-1.000000	-1.000000	-1.000000	-1.000000	-1.000000	-1.000000	-1.000000	65.000000	0.000000	-1.000000	-1.000000	419850.000000	1776577238.627324
90108.990000	-37145.925000	18147.330000	46409.850000	29535.345000	26482.455000	38969.235000	-12890.340000	10.677652	0.897967	10.784585	-1.837569	-1.956638	-2.860924	-2.797609	0.777444	-13.596660	8.072540	0.946120	-0.852781	-0.082641	0.498595	-1.000000	-1.000000	-1.000000	-1.000000	-1.000000	-1.000000	-1.000000	65.000000	0.000000	-1.000000	-1.000000	419851.000000	1776577238.631426
90103.680000	-37149.660000	18144.675000	46403.865000	29518.515000	26407.080000	38965.545000	-12890.565000	9.795105	0.429458	7.035766	-5.749123	-5.803208	-7.004798	-3.532580	-1.857273	-13.596660	8.072540	0.946120	-0.852781	-0.082641	0.498595	-1.000000	-1.000000	-1.000000	-1.000000	-1.000000	-1.000000	-1.000000	65.000000	0.000000	-1.000000	-1.000000	419852.000000	1776577238.631462
90098.280000	-37148.355000	18153.720000	46408.185000	29524.770000	26413.605000	38965.770000	-12894.570000	4.201479	-0.990586	-0.499511	-6.859653	-8.362520	-16.987278	-3.828731	-3.710857	-13.596660	8.072540	0.946120	-0.852781	-0.082641	0.498595	-1.000000	-1.000000	-1.000000	-1.000000	-1.000000	-1.000000	-1.000000	65.000000	0.000000	-1.000000	-1.000000	419853.000000	1776577238.635267
90098.235000	-37144.305000	18151.290000	46419.210000	29542.680000	26451.090000	38970.000000	-12893.715000	-2.858692	-2.484951	-6.833779	-4.413869	-7.534525	-23.005077	-3.133626	-4.518366	-13.596660	8.072540	0.946120	-0.852781	-0.082641	0.498595	-1.000000	-1.000000	-1.000000	-1.000000	-1.000000	-1.000000	-1.000000	65.000000	0.000000	-1.000000	-1.000000	419854.000000	1776577238.635278
90107.190000	-37136.475000	18156.420000	46430.370000	29554.695000	26494.020000	38969.955000	-12888.270000	-7.462496	-2.629016	-8.905744	0.767292	-2.005347	-14.486957	-1.130880	-4.073134	-13.596660	8.072540	0.946120	-0.852781	-0.082641	0.498595	-1.000000	-1.000000	-1.000000	-1.000000	-1.000000	-1.000000	-1.000000	65.000000	0.000000	-1.000000	-1.000000	419855.000000	1776577238.639339
90119.070000	-37125.180000	18173.835000	46446.210000	29574.765000	26550.990000	38969.190000	-12882.510000	-7.102588	-0.835294	-6.637798	6.539556	6.351796	8.786681	1.480704	-2.094536	-13.596660	8.072540	0.946120	-0.852781	-0.082641	0.498595	-1.000000	-1.000000	-1.000000	-1.000000	-1.000000	-1.000000	-1.000000	65.000000	0.000000	-1.000000	-1.000000	419856.000000	1776577238.639349
90132.030000	-37114.560000	18186.705000	46457.820000	29582.595000	26559.900000	38977.470000	-12871.395000	-2.165400	2.162583	-1.456222	10.303337	13.116234	34.320789	3.487673	1.119241	-7.340060	6.577060	0.274680	-0.853513	-0.099548	0.502074	-1.000000	-1.000000	-1.000000	-1.000000	-1.000000	-1.000000	-1.000000	65.000000	0.000000	-1.000000	-1.000000	419857.000000	1776577238.643189
90130.680000	-37117.215000	18181.395000	46454.850000	29574.270000	26484.120000	38976.930000	-12868.380000	4.092356	4.522385	3.963969	10.022646	14.067066	44.217139	4.288619	4.386389	-7.340060	6.577060	0.274680	-0.853513	-0.099548	0.502074	-1.000000	-1.000000	-1.000000	-1.000000	-1.000000	-1.000000	-1.000000	65.000000	0.000000	-1.000000	-1.000000	419858.000000	1776577238.643198
90115.290000	-37133.145000	18161.505000	46436.445000	29544.435000	26381.655000	38962.170000	-12882.510000	7.170877	3.926019	5.792975	4.672237	7.136921	25.961543	3.513031	5.727419	-7.340060	6.577060	0.274680	-0.853513	-0.099548	0.502074	-1.000000	-1.000000	-1.000000	-1.000000	-1.000000	-1.000000	-1.000000	65.000000	0.000000	-1.000000	-1.000000	419859.000000	1776577238.647334
90099.495000	-37151.280000	18141.840000	46409.355000	29518.605000	26381.160000	38951.145000	-12896.100000	4.218195	-0.818059	1.663692	-5.049804	-6.079557	-14.578388	0.605970	3.293259	-7.340060	6.577060	0.274680	-0.853513	-0.099548	0.502074	-1.000000	-1.000000	-1.000000	-1.000000	-1.000000	-1.000000	-1.000000	65.000000	0.000000	-1.000000	-1.000000	419860.000000	1776577238.647343
90101.520000	-37153.530000	18137.295000	46405.485000	29525.940000	26422.200000	38957.670000	-12890.025000	-3.159122	-7.778376	-6.283707	-15.546587	-19.285472	-50.538018	-3.494119	-2.187945	-7.340060	6.577060	0.274680	-0.853513	-0.099548	0.502074	-1.000000	-1.000000	-1.000000	-1.000000	-1.000000	-1.000000	-1.000000	65.000000	0.000000	-1.000000	-1.000000	419861.000000	1776577238.651349
90106.830000	-37145.790000	18145.620000	46418.445000	29549.385000	26473.455000	38965.005000	-12882.735000	-9.375298	-12.104802	-12.000158	-20.614208	-23.630521	-54.181848	-5.689862	-6.647519	-7.340060	6.577060	0.274680	-0.853513	-0.099548	0.502074	-1.000000	-1.000000	-1.000000	-1.000000	-1.000000	-1.000000	-1.000000	65.000000	0.000000	-1.000000	-1.000000	419862.000000	1776577238.651358
90105.885000	-37145.340000	18149.535000	46423.935000	29549.385000	26464.095000	38963.655000	-12881.205000	-9.638941	-9.848539	-10.355318	-15.579410	-14.686834	-22.476183	-3.789523	-6.378098	-7.340060	6.577060	0.274680	-0.853513	-0.099548	0.502074	-1.000000	-1.000000	-1.000000	-1.000000	-1.000000	-1.000000	-1.000000	65.000000	0.000000	-1.000000	-1.000000	419863.000000	1776577238.655230
90109.935000	-37140.795000	18152.415000	46420.560000	29543.130000	26443.305000	38962.305000	-12874.455000	-4.027498	-1.779160	-1.720321	-2.353644	2.195755	20.444835	0.767458	-1.696631	-7.340060	6.577060	0.274680	-0.853513	-0.099548	0.502074	-1.000000	-1.000000	-1.000000	-1.000000	-1.000000	-1.000000	-1.000000	65.000000	0.000000	-1.000000	-1.000000	419864.000000	1776577238.655239
90120.510000	-37129.770000	18165.375000	46435.410000	29549.520000	26413.785000	38960.685000	-12866.265000	3.712973	7.576869	8.759369	11.664213	16.339705	45.377113	4.530484	4.131473	-7.340060	6.577060	0.274680	-0.853513	-0.099548	0.502074	-1.000000	-1.000000	-1.000000	-1.000000	-1.000000	-1.000000	-1.000000	65.000000	0.000000	-1.000000	-1.000000	419865.000000	1776577238.659176
90129.240000	-37123.065000	18171.495000	46446.030000	29551.185000	26447.445000	38965.545000	-12857.445000	9.790875	13.810082	15.708359	19.988308	20.989009	41.457810	5.421481	8.028457	-7.340060	6.577060	0.274680	-0.853513	-0.099548	0.502074	-1.000000	-1.000000	-1.000000	-1.000000	-1.000000	-1.000000	-1.000000	65.000000	0.000000	-1.000000	-1.000000	419866.000000	1776577238.659200
90131.805000	-37122.795000	18169.335000	46448.685000	29556.810000	26497.080000	38969.775000	-12853.890000	11.959099	14.616396	16.278710	20.422296	16.514844	20.669678	3.918850	8.517883	-1.632820	9.598540	-0.854560	-0.849973	-0.108703	0.504820	-1.000000	-1.000000	-1.000000	-1.000000	-1.000000	-1.000000	-1.000000	65.000000	0.000000	-1.000000	-1.000000	419867.000000	1776577238.666145
90122.805000	-37132.965000	18160.920000	46446.885000	29571.030000	26510.220000	38979.225000	-12859.380000	9.344155	9.734722	10.295486	13.872507	7.573362	2.027199	1.802993	5.488483	-1.632820	9.598540	-0.854560	-0.849973	-0.108703	0.504820	-1.000000	-1.000000	-1.000000	-1.000000	-1.000000	-1.000000	-1.000000	65.000000	0.000000	-1.000000	-1.000000	419868.000000	1776577238.666170
90113.265000	-37137.780000	18158.895000	46442.430000	29577.285000	26449.920000	38983.815000	-12863.250000	2.521277	0.896623	0.210280	3.090371	-0.685106	-7.594246	0.418685	-0.134203	-1.632820	9.598540	-0.854560	-0.849973	-0.108703	0.504820	-1.000000	-1.000000	-1.000000	-1.000000	-1.000000	-1.000000	-1.000000	65.000000	0.000000	-1.000000	-1.000000	419869.000000	1776577238.667259
90104.940000	-37128.240000	18166.500000	46445.760000	29568.780000	26540.190000	38965.635000	-12866.220000	-6.016028	-8.006301	-9.303811	-7.818600	-5.802749	-12.683877	-0.548338	-6.256673	-1.632820	9.598540	-0.854560	-0.849973	-0.108703	0.504820	-1.000000	-1.000000	-1.000000	-1.000000	-1.000000	-1.000000	-1.000000	65.000000	0.000000	-1.000000	-1.000000	419870.000000	1776577238.667265
90102.510000	-37121.040000	18169.110000	46440.675000	29568.195000	26632.710000	38961.180000	-12868.470000	-12.416357	-12.371528	-13.666876	-14.775488	-8.488807	-12.761943	-2.599168	-10.181808	-1.632820	9.598540	-0.854560	-0.849973	-0.108703	0.504820	-1.000000	-1.000000	-1.000000	-1.000000	-1.000000	-1.000000	-1.000000	65.000000	0.000000	-1.000000	-1.000000	419871.000000	1776577238.671269
90113.760000	-37129.455000	18163.035000	46439.730000	29579.175000	26540.235000	38973.285000	-12870.630000	-13.308137	-10.479074	-11.685738	-15.819561	-9.613905	-5.328781	-5.479078	-10.184690	-1.632820	9.598540	-0.854560	-0.849973	-0.108703	0.504820	-1.000000	-1.000000	-1.000000	-1.000000	-1.000000	-1.000000	-1.000000	65.000000	0.000000	-1.000000	-1.000000	419872.000000	1776577238.671279
90115.020000	-37134.675000	18152.730000	46425.825000	29549.205000	26381.025000	38961.945000	-12872.340000	-7.870877	-5.098668	-6.261242	-11.986725	-9.094052	-2.820125	-6.629246	-6.528352	-1.632820	9.598540	-0.854560	-0.849973	-0.108703	0.504820	-1.000000	-1.000000	-1.000000	-1.000000	-1.000000	-1.000000	-1.000000	65.000000	0.000000	-1.000000	-1.000000	419873.000000	1776577238.675309
90113.940000	-37139.220000	18146.655000	46420.065000	29548.980000	26448.435000	38958.885000	-12867.705000	0.996217	-0.357112	-1.374196	-6.132048	-7.673270	-17.951737	-4.902570	-0.959812	-1.632820	9.598540	-0.854560	-0.849973	-0.108703	0.504820	-1.000000	-1.000000	-1.000000	-1.000000	-1.000000	-1.000000	-1.000000	65.000000	0.000000	-1.000000	-1.000000	419874.000000	1776577238.675322
90115.470000	-37141.875000	18145.485000	46423.035000	29558.520000	26471.115000	38962.935000	-12860.280000	8.365579	1.889933	1.230699	-0.564869	-5.657874	-36.509572	-1.595701	4.577783	-1.632820	9.598540	-0.854560	-0.849973	-0.108703	0.504820	-1.000000	-1.000000	-1.000000	-1.000000	-1.000000	-1.000000	-1.000000	65.000000	0.000000	-1.000000	-1.000000	419875.000000	1776577238.679317
90125.550000	-37133.865000	18149.985000	46425.870000	29558.070000	26466.975000	38966.535000	-12848.130000	11.103138	2.442380	2.463428	4.181213	-1.725874	-33.683648	1.966517	8.725268	-1.632820	9.598540	-0.854560	-0.849973	-0.108703	0.504820	-1.000000	-1.000000	-1.000000	-1.000000	-1.000000	-1.000000	-1.000000	65.000000	0.000000	-1.000000	-1.000000	419876.000000	1776577238.679334
90133.650000	-37125.045000	18158.895000	46438.425000	29574.135000	26489.880000	38974.770000	-12841.065000	9.575739	3.126578	3.972821	8.260003	4.283969	-6.749735	5.104487	10.629137	-0.763000	6.332900	0.442540	-0.852232	-0.102234	0.502928	-1.000000	-1.000000	-1.000000	-1.000000	-1.000000	-1.000000	-1.000000	65.000000	0.000000	-1.000000	-1.000000	419877.000000	1776577238.683463
90132.570000	-37128.870000	18158.985000	46441.260000	29589.120000	26525.880000	38980.440000	-12839.985000	5.783185	4.611174	6.124826	11.186408	10.442043	27.076269	7.147440	9.603428	-0.763000	6.332900	0.442540	-0.852232	-0.102234	0.502928	-1.000000	-1.000000	-1.000000	-1.000000	-1.000000	-1.000000	-1.000000	65.000000	0.000000	-1.000000	-1.000000	419878.000000	1776577238.683483
90122.130000	-37137.555000	18148.815000	46428.660000	29576.835000	26520.075000	38974.995000	-12847.365000	0.951059	5.345994	7.299206	11.398506	13.906267	49.588779	7.201876	5.281667	-0.763000	6.332900	0.442540	-0.852232	-0.102234	0.502928	-1.000000	-1.000000	-1.000000	-1.000000	-1.000000	-1.000000	-1.000000	65.000000	0.000000	-1.000000	-1.000000	419879.000000	1776577238.687213
90112.095000	-37137.465000	18148.410000	46424.655000	29545.110000	26445.375000	38962.710000	-12853.080000	-4.502334	3.531267	5.522612	7.350662	11.346756	49.238680	4.339961	-1.572886	-0.763000	6.332900	0.442540	-0.852232	-0.102234	0.502928	-1.000000	-1.000000	-1.000000	-1.000000	-1.000000	-1.000000	-1.000000	65.000000	0.000000	-1.000000	-1.000000	419880.000000	1776577238.687240
90108.855000	-37140.705000	18145.755000	46423.620000	29535.570000	26413.650000	38957.670000	-12852.045000	-9.380091	-0.300514	1.072205	0.046685	1.727916	24.222642	-1.194389	-8.457883	-0.763000	6.332900	0.442540	-0.852232	-0.102234	0.502928	-1.000000	-1.000000	-1.000000	-1.000000	-1.000000	-1.000000	-1.000000	65.000000	0.000000	-1.000000	-1.000000	419881.000000	1776577238.691242
90114.210000	-37147.995000	18140.985000	46423.485000	29538.630000	26465.805000	38960.460000	-12848.805000	-11.288209	-3.927239	-3.615765	-6.773308	-10.137047	-11.717286	-6.857012	-12.023385	-0.763000	6.332900	0.442540	-0.852232	-0.102234	0.502928	-1.000000	-1.000000	-1.000000	-1.000000	-1.000000	-1.000000	-1.000000	65.000000	0.000000	-1.000000	-1.000000	419882.000000	1776577238.691253
90122.220000	-37143.675000	18145.980000	46428.435000	29548.260000	26459.730000	38958.480000	-12847.995000	-8.355349	-5.570338	-6.175758	-9.618323	-16.165544	-35.253702	-9.229587	-10.422298	-0.763000	6.332900	0.442540	-0.852232	-0.102234	0.502928	-1.000000	-1.000000	-1.000000	-1.000000	-1.000000	-1.000000	-1.000000	65.000000	0.000000	-1.000000	-1.000000	419883.000000	1776577238.695141
90139.680000	-37121.400000	18161.280000	46438.020000	29550.330000	26452.035000	38961.855000	-12838.770000	-1.101591	-4.143589	-5.312574	-7.485933	-12.232995	-34.362839	-6.966468	-4.664676	-0.763000	6.332900	0.442540	-0.852232	-0.102234	0.502928	-1.000000	-1.000000	-1.000000	-1.000000	-1.000000	-1.000000	-1.000000	65.000000	0.000000	-1.000000	-1.000000	419884.000000	1776577238.695151
90144.270000	-37122.840000	18159.525000	46435.320000	29547.585000	26449.020000	38966.895000	-12829.320000	7.398544	0.376098	-1.326414	-2.103483	-1.603414	-16.753093	-1.556658	2.501593	-0.763000	6.332900	0.442540	-0.852232	-0.102234	0.502928	-1.000000	-1.000000	-1.000000	-1.000000	-1.000000	-1.000000	-1.000000	65.000000	0.000000	-1.000000	-1.000000	419885.000000	1776577238.699254
90141.975000	-37125.405000	18158.760000	46435.905000	29559.240000	26502.210000	38973.735000	-12823.875000	12.764069	5.344416	3.178686	3.061378	8.722855	3.675858	4.279750	8.222640	-0.763000	6.332900	0.442540	-0.852232	-0.102234	0.502928	-1.000000	-1.000000	-1.000000	-1.000000	-1.000000	-1.000000	-1.000000	65.000000	0.000000	-1.000000	-1.000000	419886.000000	1776577238.699261
90132.795000	-37130.040000	18157.545000	46437.480000	29580.255000	26573.805000	38980.350000	-12826.395000	11.670215	6.864442	4.999867	5.189456	14.153811	20.059089	8.171401	10.249214	-6.836480	4.074420	0.518840	-0.857542	-0.087829	0.495970	-1.000000	-1.000000	-1.000000	-1.000000	-1.000000	-1.000000	-1.000000	65.000000	0.000000	-1.000000	-1.000000	419887.000000	1776577238.703211
90130.590000	-37129.500000	18158.715000	46441.035000	29585.340000	26591.625000	38983.995000	-12826.530000	4.408174	3.716509	3.246077	4.045699	14.278445	30.742452	8.843996	7.699683	-6.836480	4.074420	0.518840	-0.857542	-0.087829	0.495970	-1.000000	-1.000000	-1.000000	-1.000000	-1.000000	-1.000000	-1.000000	65.000000	0.000000	-1.000000	-1.000000	419888.000000	1776577238.703221
90134.415000	-37132.920000	18151.335000	46434.150000	29573.685000	26486.055000	38984.895000	-12824.775000	-4.783729	-1.730522	-0.484814	1.200434	9.876410	29.714821	6.261073	1.949200	-6.836480	4.074420	0.518840	-0.857542	-0.087829	0.495970	-1.000000	-1.000000	-1.000000	-1.000000	-1.000000	-1.000000	-1.000000	65.000000	0.000000	-1.000000	-1.000000	419889.000000	1776577238.707324
90130.770000	-37133.505000	18148.230000	46429.515000	29550.240000	26379.495000	38969.460000	-12832.065000	-10.704429	-6.058372	-4.052296	-1.882448	1.225866	7.719929	1.205933	-4.077040	-6.836480	4.074420	0.518840	-0.857542	-0.087829	0.495970	-1.000000	-1.000000	-1.000000	-1.000000	-1.000000	-1.000000	-1.000000	65.000000	0.000000	-1.000000	-1.000000	419890.000000	1776577238.707354
90131.265000	-37134.225000	18150.390000	46434.555000	29563.155000	26478.945000	38966.625000	-12833.145000	-10.958086	-7.217717	-5.837614	-4.123501	-9.506794	-29.156005	-4.973877	-7.936489	-6.836480	4.074420	0.518840	-0.857542	-0.087829	0.495970	-1.000000	-1.000000	-1.000000	-1.000000	-1.000000	-1.000000	-1.000000	65.000000	0.000000	-1.000000	-1.000000	419891.000000	1776577238.711568
90133.785000	-37132.560000	18154.035000	46441.170000	29569.905000	26481.735000	38971.395000	-12828.780000	-6.671506	-5.150108	-4.896884	-4.293421	-16.719966	-53.226175	-9.796155	-8.471399	-6.836480	4.074420	0.518840	-0.857542	-0.087829	0.495970	-1.000000	-1.000000	-1.000000	-1.000000	-1.000000	-1.000000	-1.000000	65.000000	0.000000	-1.000000	-1.000000	419892.000000	1776577238.711612
90139.005000	-37127.385000	18159.885000	46446.885000	29566.935000	26451.900000	38971.035000	-12824.325000	-0.524283	-1.154194	-1.452372	-1.870599	-15.815088	-44.513621	-10.444521	-5.579118	-6.836480	4.074420	0.518840	-0.857542	-0.087829	0.495970	-1.000000	-1.000000	-1.000000	-1.000000	-1.000000	-1.000000	-1.000000	65.000000	0.000000	-1.000000	-1.000000	419893.000000	1776577238.715346
90132.570000	-37122.885000	18167.625000	46453.230000	29572.965000	26461.260000	38971.935000	-12819.960000	4.743711	3.057084	2.995559	1.955266	-7.982219	-12.764834	-6.415555	-0.466942	-6.836480	4.074420	0.518840	-0.857542	-0.087829	0.495970	-1.000000	-1.000000	-1.000000	-1.000000	-1.000000	-1.000000	-1.000000	65.000000	0.000000	-1.000000	-1.000000	419894.000000	1776577238.715353
90126.180000	-37122.570000	18168.705000	46454.760000	29577.510000	26472.645000	38973.510000	-12817.170000	6.904039	5.892087	6.394455	4.970857	1.757472	19.501274	-0.105540	4.541997	-6.836480	4.074420	0.518840	-0.857542	-0.087829	0.495970	-1.000000	-1.000000	-1.000000	-1.000000	-1.000000	-1.000000	-1.000000	65.000000	0.000000	-1.000000	-1.000000	419895.000000	1776577238.719297
90130.410000	-37126.665000	18159.030000	46445.490000	29572.695000	26481.285000	38972.340000	-12817.935000	5.423605	6.150581	6.854330	5.243544	8.765790	38.016342	5.278438	7.191479	-6.836480	4.074420	0.518840	-0.857542	-0.087829	0.495970	-1.000000	-1.000000	-1.000000	-1.000000	-1.000000	-1.000000	-1.000000	65.000000	0.000000	-1.000000	-1.000000	419896.000000	1776577238.719309
90151.380000	-37123.470000	18164.655000	46456.245000	29579.490000	26491.635000	38971.620000	-12813.165000	2.518988	3.713790	3.771042	2.427357	10.693769	39.609639	7.614049	6.563804	-10.163160	5.341000	0.015260	-0.860044	-0.080627	0.493651	-1.000000	-1.000000	-1.000000	-1.000000	-1.000000	-1.000000	-1.000000	65.000000	0.000000	-1.000000	-1.000000	419897.000000	1776577238.726703
90157.545000	-37114.470000	18173.295000	46461.195000	29579.400000	26488.800000	38970.585000	-12805.695000	1.322267	0.175227	-0.890870	-1.403720	8.107707	28.032875	6.586286	3.659307	-10.163160	5.341000	0.015260	-0.860044	-0.080627	0.493651	-1.000000	-1.000000	-1.000000	-1.000000	-1.000000	-1.000000	-1.000000	65.000000	0.000000	-1.000000	-1.000000	419898.000000	1776577238.726721
90162.360000	-37102.815000	18183.105000	46467.270000	29583.945000	26488.845000	38973.735000	-12793.320000	2.321766	-2.027403	-3.811776	-3.495227	3.499947	9.924392	3.494466	0.651192	-10.163160	5.341000	0.015260	-0.860044	-0.080627	0.493651	-1.000000	-1.000000	-1.000000	-1.000000	-1.000000	-1.000000	-1.000000	65.000000	0.000000	-1.000000	-1.000000	419899.000000	1776577238.727377
90167.085000	-37103.715000	18180.810000	46466.235000	29582.280000	26480.205000	38974.950000	-12787.830000	3.178209	-1.835423	-3.563342	-3.121386	-0.753305	-7.968445	0.287908	-0.862294	-10.163160	5.341000	0.015260	-0.860044	-0.080627	0.493651	-1.000000	-1.000000	-1.000000	-1.000000	-1.000000	-1.000000	-1.000000	65.000000	0.000000	-1.000000	-1.000000	419900.000000	1776577238.727412
90172.035000	-37103.715000	18179.550000	46461.285000	29564.595000	26489.295000	38979.810000	-12786.525000	1.940277	-0.606461	-1.729488	-1.760412	-3.793537	-20.207476	-1.615234	-1.087287	-10.163160	5.341000	0.015260	-0.860044	-0.080627	0.493651	-1.000000	-1.000000	-1.000000	-1.000000	-1.000000	-1.000000	-1.000000	65.000000	0.000000	-1.000000	-1.000000	419901.000000	1776577238.731368
90162.405000	-37120.365000	18166.185000	46448.955000	29557.305000	26431.245000	38983.230000	-12795.120000	-1.379629	-0.650420	-0.885390	-1.355346	-6.101501	-24.681638	-1.879208	-1.576514	-10.163160	5.341000	0.015260	-0.860044	-0.080627	0.493651	-1.000000	-1.000000	-1.000000	-1.000000	-1.000000	-1.000000	-1.000000	65.000000	0.000000	-1.000000	-1.000000	419902.000000	1776577238.731390
90140.490000	-37137.690000	18150.345000	46434.690000	29565.855000	26391.150000	38989.260000	-12803.895000	-5.962969	-3.202903	-2.358733	-2.735925	-7.351463	-24.119068	-1.022513	-3.551042	-10.163160	5.341000	0.015260	-0.860044	-0.080627	0.493651	-1.000000	-1.000000	-1.000000	-1.000000	-1.000000	-1.000000	-1.000000	65.000000	0.000000	-1.000000	-1.000000	419903.000000	1776577238.735265
90131.850000	-37148.400000	18147.060000	46438.650000	29572.830000	26491.455000	38981.070000	-12809.565000	-10.652654	-7.247488	-5.238708	-4.750405	-5.694464	-19.570408	-0.110704	-6.481999	-10.163160	5.341000	0.015260	-0.860044	-0.080627	0.493651	-1.000000	-1.000000	-1.000000	-1.000000	-1.000000	-1.000000	-1.000000	65.000000	0.000000	-1.000000	-1.000000	419904.000000	1776577238.735276
90135.495000	-37149.930000	18151.695000	46448.640000	29581.695000	26548.470000	38966.805000	-12809.430000	-12.923200	-9.656945	-6.617689	-4.626435	-0.446972	-5.095772	-0.549155	-8.191455	-10.163160	5.341000	0.015260	-0.860044	-0.080627	0.493651	-1.000000	-1.000000	-1.000000	-1.000000	-1.000000	-1.000000	-1.000000	65.000000	0.000000	-1.000000	-1.000000	419905.000000	1776577238.739434
90165.735000	-37106.370000	18174.195000	46463.760000	29585.295000	26513.370000	38970.405000	-12794.265000	-9.422893	-6.704253	-3.593605	-0.369503	6.094499	18.942896	-2.762674	-6.368151	-10.163160	5.341000	0.015260	-0.860044	-0.080627	0.493651	-1.000000	-1.000000	-1.000000	-1.000000	-1.000000	-1.000000	-1.000000	65.000000	0.000000	-1.000000	-1.000000	419906.000000	1776577238.739443
90164.610000	-37115.190000	18159.660000	46442.430000	29572.740000	26504.415000	38972.205000	-12792.330000	0.504278	2.697664	3.541434	6.221727	9.983689	36.407921	-4.841002	-0.548791	-8.393000	7.111160	1.022420	-0.856077	-0.091430	0.492186	-1.000000	-1.000000	-1.000000	-1.000000	-1.000000	-1.000000	-1.000000	65.000000	0.000000	-1.000000	-1.000000	419907.000000	1776577238.743276
90146.205000	-37135.125000	18144.135000	46428.660000	29568.600000	26501.220000	38968.245000	-12800.790000	11.635702	13.187425	9.923192	9.869787	8.399798	32.577830	-4.408729	6.457442	-8.393000	7.111160	1.022420	-0.856077	-0.091430	0.492186	-1.000000	-1.000000	-1.000000	-1.000000	-1.000000	-1.000000	-1.000000	65.000000	0.000000	-1.000000	-1.000000	419908.000000	1776577238.743284
90148.950000	-37126.755000	18156.330000	46444.005000	29577.825000	26498.340000	38975.580000	-12794.895000	16.314520	16.599115	10.620243	7.465390	2.364790	10.634864	-1.315757	10.316637	-8.393000	7.111160	1.022420	-0.856077	-0.091430	0.492186	-1.000000	-1.000000	-1.000000	-1.000000	-1.000000	-1.000000	-1.000000	65.000000	0.000000	-1.000000	-1.000000	419909.000000	1776577239.002013
90128.430000	-37114.425000	18156.240000	46438.920000	29574.855000	26488.305000	38966.040000	-12787.020000	11.859646	11.288724	6.245571	1.874030	-3.780578	-14.472151	2.601810	9.394173	-8.393000	7.111160	1.022420	-0.856077	-0.091430	0.492186	-1.000000	-1.000000	-1.000000	-1.000000	-1.000000	-1.000000	-1.000000	65.000000	0.000000	-1.000000	-1.000000	419910.000000	1776577239.002030
90126.495000	-37108.530000	18155.970000	46436.850000	29575.935000	26489.295000	38962.710000	-12781.080000	1.953615	2.784787	0.952331	-2.401323	-6.574549	-29.608168	4.995735	5.649974	-8.393000	7.111160	1.022420	-0.856077	-0.091430	0.492186	-1.000000	-1.000000	-1.000000	-1.000000	-1.000000	-1.000000	-1.000000	65.000000	0.000000	-1.000000	-1.000000	419911.000000	1776577239.002043
90158.805000	-37115.865000	18164.970000	46449.945000	29584.260000	26506.665000	38972.520000	-12783.780000	-6.597714	-3.725688	-2.414601	-3.629370	-5.608821	-29.516051	4.819714	1.549042	-8.393000	7.111160	1.022420	-0.856077	-0.091430	0.492186	-1.000000	-1.000000	-1.000000	-1.000000	-1.000000	-1.000000	-1.000000	65.000000	0.000000	-1.000000	-1.000000	419912.000000	1776577239.002048
90148.455000	-37116.495000	18172.215000	46458.225000	29594.925000	26521.200000	38973.375000	-12786.345000	-8.157472	-7.175701	-3.084773	-2.001954	-2.104681	-16.396679	3.284943	-2.000626	-8.393000	7.111160	1.022420	-0.856077	-0.091430	0.492186	-1.000000	-1.000000	-1.000000	-1.000000	-1.000000	-1.000000	-1.000000	65.000000	0.000000	-1.000000	-1.000000	419913.000000	1776577239.002054
90105.165000	-37124.280000	18185.760000	46481.805000	29609.730000	26501.850000	38973.960000	-12796.515000	-4.152793	-8.548908	-1.548935	1.511438	2.350534	1.731567	1.909512	-5.047148	-8.393000	7.111160	1.022420	-0.856077	-0.091430	0.492186	-1.000000	-1.000000	-1.000000	-1.000000	-1.000000	-1.000000	-1.000000	65.000000	0.000000	-1.000000	-1.000000	419914.000000	1776577239.002059
90099.585000	-37124.685000	18197.505000	46504.350000	29625.210000	26488.935000	38975.715000	-12799.890000	-1.545427	-8.458258	0.904690	5.441284	6.106530	14.491841	0.861296	-7.380608	-8.393000	7.111160	1.022420	-0.856077	-0.091430	0.492186	-1.000000	-1.000000	-1.000000	-1.000000	-1.000000	-1.000000	-1.000000	65.000000	0.000000	-1.000000	-1.000000	419915.000000	1776577239.002064
90150.210000	-37111.140000	18189.945000	46492.785000	29609.460000	26488.260000	38971.260000	-12788.415000	-2.093821	-6.541823	2.452178	7.591637	7.262380	16.143053	-0.315119	-7.849075	-8.393000	7.111160	1.022420	-0.856077	-0.091430	0.492186	-1.000000	-1.000000	-1.000000	-1.000000	-1.000000	-1.000000	-1.000000	65.000000	0.000000	-1.000000	-1.000000	419916.000000	1776577239.002069
90200.385000	-37105.515000	18162.630000	46444.005000	29559.060000	26465.940000	38961.135000	-12779.460000	0.570236	-2.234730	0.796719	4.308934	3.164735	9.073602	-1.977812	-4.983225	-4.928980	10.346280	-1.846460	-0.851743	-0.102966	0.494322	-1.000000	-1.000000	-1.000000	-1.000000	-1.000000	-1.000000	-1.000000	65.000000	0.000000	-1.000000	-1.000000	419917.000000	1776577239.002074
90194.310000	-37115.775000	18151.380000	46435.545000	29560.725000	26451.855000	38966.895000	-12777.840000	9.680284	3.168187	-4.999671	-6.217954	-6.749829	-0.566785	-3.874786	0.782741	-4.928980	10.346280	-1.846460	-0.851743	-0.102966	0.494322	-1.000000	-1.000000	-1.000000	-1.000000	-1.000000	-1.000000	-1.000000	65.000000	0.000000	-1.000000	-1.000000	419918.000000	1776577239.002078
90176.400000	-37117.485000	18160.335000	46450.485000	29584.935000	26459.730000	38974.860000	-12772.395000	17.547767	6.419400	-11.644664	-18.291681	-16.202896	-7.305047	-4.548358	6.422858	-4.928980	10.346280	-1.846460	-0.851743	-0.102966	0.494322	-1.000000	-1.000000	-1.000000	-1.000000	-1.000000	-1.000000	-1.000000	65.000000	0.000000	-1.000000	-1.000000	419919.000000	1776577239.002083
90173.160000	-37112.490000	18167.850000	46455.795000	29588.175000	26488.530000	38974.770000	-12770.370000	14.275317	5.769899	-13.132724	-21.786465	-16.155874	-7.115677	-2.703239	8.828560	-4.928980	10.346280	-1.846460	-0.851743	-0.102966	0.494322	-1.000000	-1.000000	-1.000000	-1.000000	-1.000000	-1.000000	-1.000000	65.000000	0.000000	-1.000000	-1.000000	419920.000000	1776577239.002088
90172.800000	-37112.220000	18166.410000	46453.995000	29586.420000	26532.225000	38975.355000	-12768.975000	0.011294	2.771744	-6.867351	-12.832489	-5.362244	1.269078	0.740748	7.111836	-4.928980	10.346280	-1.846460	-0.851743	-0.102966	0.494322	-1.000000	-1.000000	-1.000000	-1.000000	-1.000000	-1.000000	-1.000000	65.000000	0.000000	-1.000000	-1.000000	419921.000000	1776577239.002093
90173.205000	-37111.005000	18168.210000	46457.145000	29596.005000	26568.495000	38986.695000	-12765.060000	-15.733210	-0.050502	3.481999	2.655261	8.527800	14.404349	3.623206	2.639835	-4.928980	10.346280	-1.846460	-0.851743	-0.102966	0.494322	-1.000000	-1.000000	-1.000000	-1.000000	-1.000000	-1.000000	-1.000000	65.000000	0.000000	-1.000000	-1.000000	419922.000000	1776577239.002098
90166.185000	-37124.100000	18159.840000	46451.070000	29580.480000	26474.130000	38986.065000	-12771.900000	-23.692050	-1.722963	11.606079	15.422432	17.008361	22.654552	4.763104	-2.295106	-4.928980	10.346280	-1.846460	-0.851743	-0.102966	0.494322	-1.000000	-1.000000	-1.000000	-1.000000	-1.000000	-1.000000	-1.000000	65.000000	0.000000	-1.000000	-1.000000	419923.000000	1776577239.002102
90171.360000	-37125.000000	18168.255000	46464.120000	29582.955000	26452.620000	38978.145000	-12767.490000	-21.021401	-2.754841	13.625508	19.904669	16.286211	14.689410	3.812087	-5.863884	-4.928980	10.346280	-1.846460	-0.851743	-0.102966	0.494322	-1.000000	-1.000000	-1.000000	-1.000000	-1.000000	-1.000000	-1.000000	65.000000	0.000000	-1.000000	-1.000000	419924.000000	1776577239.002106
90176.715000	-37117.125000	18176.400000	46480.320000	29605.995000	26472.015000	38979.900000	-12759.705000	-10.555286	-3.194787	10.274163	16.707641	8.790670	-8.096849	0.812981	-6.873485	-4.928980	10.346280	-1.846460	-0.851743	-0.102966	0.494322	-1.000000	-1.000000	-1.000000	-1.000000	-1.000000	-1.000000	-1.000000	65.000000	0.000000	-1.000000	-1.000000	419925.000000	1776577239.002114
90180.405000	-37100.340000	18177.660000	46480.995000	29607.255000	26480.970000	38983.680000	-12755.925000	2.408578	-1.814415	4.962269	9.934382	0.792992	-28.258901	-2.817362	-4.865475	-4.928980	10.346280	-1.846460	-0.851743	-0.102966	0.494322	-1.000000	-1.000000	-1.000000	-1.000000	-1.000000	-1.000000	-1.000000	65.000000	0.000000	-1.000000	-1.000000	419926.000000	1776577239.002119
90174.555000	-37095.930000	18173.160000	46468.035000	29596.995000	26484.435000	38979.405000	-12762.585000	12.409438	1.895803	0.109796	2.382366	-3.902694	-30.611416	-4.912245	-1.120504	0.549360	7.935200	-3.128300	-0.857359	-0.104614	0.493773	-1.000000	-1.000000	-1.000000	-1.000000	-1.000000	-1.000000	-1.000000	65.000000	0.000000	-1.000000	-1.000000	419927.000000	1776577239.002124
