Channel1	Channel2	Channel3	Channel4	Channel5	Channel6	Channel7	Channel8	FilteredChannel1	FilteredChannel2	FilteredChannel3	FilteredChannel4	FilteredChannel5	FilteredChannel6	FilteredChannel7	FilteredChannel8	GyroX	GyroY	GyroZ	AccX	AccY	AccZ	PPG1	PPG2	rawPPG1	rawPPG2	rawPPG3	Hr	Hrv	Battery	Trigger	PhysicalTrigger	AutoTrigger	NumMeasurements	Timestamp
-17510.265000	-35537.715000	10159.335000	42419.430000	-12843.585000	-12338.325000	-40592.745000	15714.720000	0.448669	-1.921367	6.692206	-9.185311	-4.052769	35.949187	-1.790534	-0.471862	-1.007160	3.372460	-1.464960	-0.680601	-0.226989	0.687559	-1.000000	-1.000000	-1.000000	-1.000000	-1.000000	-1.000000	-1.000000	65.000000	0.000000	-1.000000	-1.000000	605878.000000	1776577610.952377
-17509.590000	-35539.515000	10160.325000	42420.060000	-12855.420000	-12345.570000	-40595.940000	15716.610000	0.217004	-4.216068	1.952256	-11.900457	-4.195269	46.558698	-2.864017	-1.084377	-1.007160	3.372460	-1.464960	-0.680601	-0.226989	0.687559	-1.000000	-1.000000	-1.000000	-1.000000	-1.000000	-1.000000	-1.000000	65.000000	0.000000	-1.000000	-1.000000	605879.000000	1776577610.952417
-17507.340000	-35538.210000	10163.880000	42412.950000	-12873.915000	-12360.870000	-40594.905000	15718.815000	-0.538114	-5.967385	-3.574120	-7.488462	0.476746	38.909174	-3.749354	-2.153931	-1.007160	3.372460	-1.464960	-0.680601	-0.226989	0.687559	-1.000000	-1.000000	-1.000000	-1.000000	-1.000000	-1.000000	-1.000000	65.000000	0.000000	-1.000000	-1.000000	605880.000000	1776577610.956147
-17512.785000	-35543.250000	10162.080000	42413.445000	-12875.940000	-12443.940000	-40598.145000	15715.305000	-0.330150	-4.953766	-4.956729	1.150498	4.076395	12.936998	-3.609340	-1.988548	-1.007160	3.372460	-1.464960	-0.680601	-0.226989	0.687559	-1.000000	-1.000000	-1.000000	-1.000000	-1.000000	-1.000000	-1.000000	65.000000	0.000000	-1.000000	-1.000000	605881.000000	1776577610.956154
-17515.755000	-35544.555000	10161.315000	42418.035000	-12863.970000	-12427.830000	-40596.390000	15714.135000	0.580261	-1.603026	-2.116179	8.770922	3.651514	-22.306511	-2.178407	-0.627105	-1.007160	3.372460	-1.464960	-0.680601	-0.226989	0.687559	-1.000000	-1.000000	-1.000000	-1.000000	-1.000000	-1.000000	-1.000000	65.000000	0.000000	-1.000000	-1.000000	605882.000000	1776577610.960193
-17515.440000	-35549.055000	10145.160000	42414.705000	-12867.615000	-12402.495000	-40590.540000	15715.710000	1.255407	2.121209	1.801450	12.263452	1.546072	-48.498861	0.131745	0.923193	-1.007160	3.372460	-1.464960	-0.680601	-0.226989	0.687559	-1.000000	-1.000000	-1.000000	-1.000000	-1.000000	-1.000000	-1.000000	65.000000	0.000000	-1.000000	-1.000000	605883.000000	1776577610.960200
-17519.445000	-35556.120000	10146.960000	42418.260000	-12867.345000	-12379.995000	-40584.870000	15715.260000	1.371797	4.418206	3.670124	11.147688	0.339574	-49.242201	2.712122	1.995044	-1.007160	3.372460	-1.464960	-0.680601	-0.226989	0.687559	-1.000000	-1.000000	-1.000000	-1.000000	-1.000000	-1.000000	-1.000000	65.000000	0.000000	-1.000000	-1.000000	605884.000000	1776577610.964255
-17518.365000	-35545.140000	10171.935000	42455.655000	-12825.315000	-12366.675000	-40580.595000	15717.465000	1.141186	4.801399	3.502636	7.448950	0.917766	-24.897256	4.757530	2.435657	-1.007160	3.372460	-1.464960	-0.680601	-0.226989	0.687559	-1.000000	-1.000000	-1.000000	-1.000000	-1.000000	-1.000000	-1.000000	65.000000	0.000000	-1.000000	-1.000000	605885.000000	1776577610.964266
-17522.775000	-35525.790000	10198.350000	42474.150000	-12802.590000	-12373.020000	-40576.635000	15714.720000	0.816916	4.643648	4.294230	4.765651	4.022738	7.891112	5.340986	2.251071	-1.007160	3.372460	-1.464960	-0.680601	-0.226989	0.687559	-1.000000	-1.000000	-1.000000	-1.000000	-1.000000	-1.000000	-1.000000	65.000000	0.000000	-1.000000	-1.000000	605886.000000	1776577610.968311
-17507.790000	-35506.215000	10190.475000	42477.660000	-12817.395000	-12422.880000	-40592.565000	15727.185000	0.768237	5.742061	7.160367	4.211743	8.015781	29.212012	3.688558	1.681406	-1.007160	3.372460	-1.464960	-0.680601	-0.226989	0.687559	-1.000000	-1.000000	-1.000000	-1.000000	-1.000000	-1.000000	-1.000000	65.000000	0.000000	-1.000000	-1.000000	605887.000000	1776577610.968323
-17516.700000	-35531.055000	10178.865000	42448.770000	-12860.235000	-12423.375000	-40583.430000	15722.235000	1.314036	7.140523	8.355187	2.287957	7.021661	28.813075	-0.163445	1.201822	-3.662400	2.914660	-0.656180	-0.680723	-0.225097	0.688048	-1.000000	-1.000000	-1.000000	-1.000000	-1.000000	-1.000000	-1.000000	65.000000	0.000000	-1.000000	-1.000000	605888.000000	1776577610.972695
-17507.565000	-35547.255000	10179.630000	42433.335000	-12875.805000	-12458.070000	-40606.515000	15720.615000	1.955258	4.841434	3.928161	-4.804515	-2.950705	11.793896	-4.697565	0.696707	-3.662400	2.914660	-0.656180	-0.680723	-0.225097	0.688048	-1.000000	-1.000000	-1.000000	-1.000000	-1.000000	-1.000000	-1.000000	65.000000	0.000000	-1.000000	-1.000000	605889.000000	1776577610.972707
-17489.970000	-35523.090000	10171.530000	42415.560000	-12867.615000	-12347.640000	-40602.330000	15719.895000	2.189472	-2.361137	-4.726081	-15.510398	-16.787229	-5.852138	-7.912343	-0.432600	-3.662400	2.914660	-0.656180	-0.680723	-0.225097	0.688048	-1.000000	-1.000000	-1.000000	-1.000000	-1.000000	-1.000000	-1.000000	65.000000	0.000000	-1.000000	-1.000000	605890.000000	1776577610.976110
-17497.890000	-35526.150000	10156.995000	42395.985000	-12876.615000	-12309.705000	-40593.375000	15709.095000	2.206010	-9.392211	-12.633323	-23.502228	-23.786727	-8.315463	-8.054586	-2.179070	-3.662400	2.914660	-0.656180	-0.680723	-0.225097	0.688048	-1.000000	-1.000000	-1.000000	-1.000000	-1.000000	-1.000000	-1.000000	65.000000	0.000000	-1.000000	-1.000000	605891.000000	1776577610.976118
-17525.115000	-35564.355000	10140.795000	42380.820000	-12912.480000	-12335.355000	-40607.955000	15702.165000	0.916343	-11.745187	-16.164280	-23.438856	-19.054917	5.126975	-4.417554	-4.009901	-3.662400	2.914660	-0.656180	-0.680723	-0.225097	0.688048	-1.000000	-1.000000	-1.000000	-1.000000	-1.000000	-1.000000	-1.000000	65.000000	0.000000	-1.000000	-1.000000	605892.000000	1776577610.980164
-17528.895000	-35558.910000	10141.290000	42393.195000	-12891.330000	-12342.915000	-40599.765000	15703.335000	-3.316068	-10.577087	-14.310138	-14.231510	-6.797354	17.605966	1.076033	-5.047133	-3.662400	2.914660	-0.656180	-0.680723	-0.225097	0.688048	-1.000000	-1.000000	-1.000000	-1.000000	-1.000000	-1.000000	-1.000000	65.000000	0.000000	-1.000000	-1.000000	605893.000000	1776577610.980168
-17524.395000	-35538.210000	10146.465000	42404.085000	-12885.345000	-12439.260000	-40597.695000	15703.335000	-8.591285	-7.265671	-7.448779	1.605313	7.110295	12.721532	5.610173	-4.123507	-3.662400	2.914660	-0.656180	-0.680723	-0.225097	0.688048	-1.000000	-1.000000	-1.000000	-1.000000	-1.000000	-1.000000	-1.000000	65.000000	0.000000	-1.000000	-1.000000	605894.000000	1776577610.984547
-17534.835000	-35538.750000	10160.820000	42416.010000	-12878.235000	-12430.755000	-40593.555000	15701.355000	-10.422769	-0.775283	2.862312	18.688224	18.846656	-9.819863	7.893715	-1.020928	-3.662400	2.914660	-0.656180	-0.680723	-0.225097	0.688048	-1.000000	-1.000000	-1.000000	-1.000000	-1.000000	-1.000000	-1.000000	65.000000	0.000000	-1.000000	-1.000000	605895.000000	1776577610.984560
-17543.430000	-35542.170000	10167.210000	42419.205000	-12872.160000	-12379.005000	-40584.330000	15708.195000	-7.187118	7.397973	13.351570	30.083547	24.912175	-32.779026	7.854103	2.959033	-3.662400	2.914660	-0.656180	-0.680723	-0.225097	0.688048	-1.000000	-1.000000	-1.000000	-1.000000	-1.000000	-1.000000	-1.000000	65.000000	0.000000	-1.000000	-1.000000	605896.000000	1776577610.988271
-17538.795000	-35540.865000	10174.725000	42427.665000	-12865.320000	-12380.445000	-40583.160000	15717.240000	-1.106096	12.640540	19.781389	30.841349	23.116146	-35.678718	5.989861	6.271669	-3.662400	2.914660	-0.656180	-0.680723	-0.225097	0.688048	-1.000000	-1.000000	-1.000000	-1.000000	-1.000000	-1.000000	-1.000000	65.000000	0.000000	-1.000000	-1.000000	605897.000000	1776577610.988282
-17525.295000	-35526.150000	10164.375000	42414.255000	-12887.955000	-12376.890000	-40587.615000	15724.980000	5.294305	12.399792	18.983102	20.790404	13.988886	-15.752524	2.767463	8.037793	-1.846460	1.571780	0.274680	-0.681639	-0.226623	0.688353	-1.000000	-1.000000	-1.000000	-1.000000	-1.000000	-1.000000	-1.000000	65.000000	0.000000	-1.000000	-1.000000	605898.000000	1776577610.992177
-17507.205000	-35534.205000	10121.670000	42399.720000	-12903.210000	-12359.070000	-40588.965000	15732.135000	10.805471	8.021546	10.046072	3.912789	0.027917	11.643682	-1.463621	7.770604	-1.846460	1.571780	0.274680	-0.681639	-0.226623	0.688353	-1.000000	-1.000000	-1.000000	-1.000000	-1.000000	-1.000000	-1.000000	65.000000	0.000000	-1.000000	-1.000000	605899.000000	1776577610.992186
-17494.200000	-35568.405000	10114.560000	42415.470000	-12882.195000	-12364.290000	-40589.100000	15739.290000	14.391990	1.302366	-4.713300	-13.144384	-13.744832	30.028031	-5.605418	5.363623	-1.846460	1.571780	0.274680	-0.681639	-0.226623	0.688353	-1.000000	-1.000000	-1.000000	-1.000000	-1.000000	-1.000000	-1.000000	65.000000	0.000000	-1.000000	-1.000000	605900.000000	1776577610.996173
-17499.870000	-35564.850000	10160.685000	42444.270000	-12852.720000	-12429.405000	-40589.595000	15733.620000	14.199664	-6.750668	-17.510436	-22.478547	-19.996169	30.834906	-7.940016	1.233463	-1.846460	1.571780	0.274680	-0.681639	-0.226623	0.688353	-1.000000	-1.000000	-1.000000	-1.000000	-1.000000	-1.000000	-1.000000	65.000000	0.000000	-1.000000	-1.000000	605901.000000	1776577610.996181
-17504.415000	-35528.265000	10212.345000	42444.495000	-12869.955000	-12498.705000	-40592.655000	15722.910000	8.535193	-12.319896	-17.966618	-19.814458	-15.250064	13.262652	-7.510340	-4.005720	-1.846460	1.571780	0.274680	-0.681639	-0.226623	0.688353	-1.000000	-1.000000	-1.000000	-1.000000	-1.000000	-1.000000	-1.000000	65.000000	0.000000	-1.000000	-1.000000	605902.000000	1776577611.000286
-17508.735000	-35511.120000	10212.390000	42443.550000	-12857.265000	-12391.650000	-40589.415000	15716.250000	-1.637774	-9.890166	-3.983255	-9.102703	-4.576883	-11.887965	-4.763099	-9.307035	-1.846460	1.571780	0.274680	-0.681639	-0.226623	0.688353	-1.000000	-1.000000	-1.000000	-1.000000	-1.000000	-1.000000	-1.000000	65.000000	0.000000	-1.000000	-1.000000	605903.000000	1776577611.000294
-17524.980000	-35536.590000	10171.935000	42417.225000	-12873.195000	-12337.695000	-40588.515000	15707.565000	-12.288687	-0.338928	12.538060	0.649384	3.819518	-23.168534	-0.900526	-12.733669	-1.846460	1.571780	0.274680	-0.681639	-0.226623	0.688353	-1.000000	-1.000000	-1.000000	-1.000000	-1.000000	-1.000000	-1.000000	65.000000	0.000000	-1.000000	-1.000000	605904.000000	1776577611.004225
-17531.865000	-35543.520000	10167.210000	42412.455000	-12877.695000	-12321.180000	-40594.680000	15703.965000	-19.034878	7.722129	16.475411	3.177031	5.665273	-9.334501	2.610198	-12.396253	-1.846460	1.571780	0.274680	-0.681639	-0.226623	0.688353	-1.000000	-1.000000	-1.000000	-1.000000	-1.000000	-1.000000	-1.000000	65.000000	0.000000	-1.000000	-1.000000	605905.000000	1776577611.004233
-17526.240000	-35541.405000	10169.460000	42414.480000	-12876.840000	-12302.505000	-40598.595000	15709.500000	-19.120764	7.782876	5.334982	-0.436820	2.047428	16.241714	4.303781	-7.747841	-1.846460	1.571780	0.274680	-0.681639	-0.226623	0.688353	-1.000000	-1.000000	-1.000000	-1.000000	-1.000000	-1.000000	-1.000000	65.000000	0.000000	-1.000000	-1.000000	605906.000000	1776577611.008200
-17515.980000	-35536.185000	10174.185000	42425.055000	-12874.455000	-12418.470000	-40594.500000	15719.985000	-11.934804	1.912572	-9.996133	-3.986389	-2.543467	29.123485	3.809298	0.164807	-1.846460	1.571780	0.274680	-0.681639	-0.226623	0.688353	-1.000000	-1.000000	-1.000000	-1.000000	-1.000000	-1.000000	-1.000000	65.000000	0.000000	-1.000000	-1.000000	605907.000000	1776577611.008209
-17516.430000	-35533.800000	10179.135000	42431.265000	-12875.805000	-12427.020000	-40593.105000	15720.930000	-0.010689	-3.680614	-17.794865	-2.646196	-4.176956	15.194278	2.353221	8.728584	-2.411080	2.502640	0.289940	-0.680296	-0.231323	0.687559	-1.000000	-1.000000	-1.000000	-1.000000	-1.000000	-1.000000	-1.000000	65.000000	0.000000	-1.000000	-1.000000	605908.000000	1776577611.012305
-17518.365000	-35538.120000	10180.620000	42432.030000	-12878.055000	-12374.055000	-40595.715000	15720.030000	11.167670	-5.349229	-14.508009	3.030507	-2.316284	-15.343917	1.273757	14.255345	-2.411080	2.502640	0.289940	-0.680296	-0.231323	0.687559	-1.000000	-1.000000	-1.000000	-1.000000	-1.000000	-1.000000	-1.000000	65.000000	0.000000	-1.000000	-1.000000	605909.000000	1776577611.012320
-17516.070000	-35538.615000	10181.430000	42435.090000	-12855.915000	-12350.295000	-40592.520000	15722.685000	16.476894	-3.659806	-4.377060	8.680409	1.400126	-35.518137	0.776825	14.115605	-2.411080	2.502640	0.289940	-0.680296	-0.231323	0.687559	-1.000000	-1.000000	-1.000000	-1.000000	-1.000000	-1.000000	-1.000000	65.000000	0.000000	-1.000000	-1.000000	605910.000000	1776577611.016434
-17513.685000	-35531.595000	10166.400000	42434.730000	-12859.290000	-12356.235000	-40592.700000	15725.205000	14.643250	-0.808873	5.450404	10.421376	5.342971	-29.877295	0.510519	8.832572	-2.411080	2.502640	0.289940	-0.680296	-0.231323	0.687559	-1.000000	-1.000000	-1.000000	-1.000000	-1.000000	-1.000000	-1.000000	65.000000	0.000000	-1.000000	-1.000000	605911.000000	1776577611.016453
-17519.040000	-35547.570000	10146.555000	42414.930000	-12896.415000	-12448.395000	-40595.940000	15720.255000	8.060511	1.488420	9.433033	7.105263	6.963958	-8.882011	0.161322	1.354485	-2.411080	2.502640	0.289940	-0.680296	-0.231323	0.687559	-1.000000	-1.000000	-1.000000	-1.000000	-1.000000	-1.000000	-1.000000	65.000000	0.000000	-1.000000	-1.000000	605912.000000	1776577611.020319
-17523.720000	-35536.410000	10183.680000	42442.425000	-12872.430000	-12466.890000	-40596.570000	15713.055000	0.140289	2.220140	7.277414	0.596977	3.838374	6.094693	-0.518808	-5.410690	-2.411080	2.502640	0.289940	-0.680296	-0.231323	0.687559	-1.000000	-1.000000	-1.000000	-1.000000	-1.000000	-1.000000	-1.000000	65.000000	0.000000	-1.000000	-1.000000	605913.000000	1776577611.020328
-17525.925000	-35531.595000	10199.745000	42464.385000	-12835.890000	-12414.150000	-40591.395000	15715.215000	-6.306739	1.833591	4.362270	-4.289906	-1.041595	7.561219	-1.285968	-9.624474	-2.411080	2.502640	0.289940	-0.680296	-0.231323	0.687559	-1.000000	-1.000000	-1.000000	-1.000000	-1.000000	-1.000000	-1.000000	65.000000	0.000000	-1.000000	-1.000000	605914.000000	1776577611.024244
-17515.080000	-35530.695000	10177.200000	42405.840000	-12926.970000	-12430.980000	-40601.295000	15725.295000	-9.186320	1.700165	4.563793	-4.899559	-3.311614	5.749531	-1.607416	-10.008885	-2.411080	2.502640	0.289940	-0.680296	-0.231323	0.687559	-1.000000	-1.000000	-1.000000	-1.000000	-1.000000	-1.000000	-1.000000	65.000000	0.000000	-1.000000	-1.000000	605915.000000	1776577611.024252
-17523.315000	-35540.640000	10150.335000	42375.510000	-12945.195000	-12386.340000	-40595.490000	15718.545000	-7.751890	1.791802	4.568749	-5.468620	-5.800376	9.864753	-1.473698	-6.443347	-2.411080	2.502640	0.289940	-0.680296	-0.231323	0.687559	-1.000000	-1.000000	-1.000000	-1.000000	-1.000000	-1.000000	-1.000000	65.000000	0.000000	-1.000000	-1.000000	605916.000000	1776577611.028361
-17531.505000	-35539.650000	10167.840000	42411.510000	-12885.570000	-12346.515000	-40586.355000	15712.830000	-3.794095	0.912379	0.303386	-9.010092	-10.124303	18.887608	-0.836323	-1.213183	-2.411080	2.502640	0.289940	-0.680296	-0.231323	0.687559	-1.000000	-1.000000	-1.000000	-1.000000	-1.000000	-1.000000	-1.000000	65.000000	0.000000	-1.000000	-1.000000	605917.000000	1776577611.028373
-17527.140000	-35532.495000	10175.400000	42416.910000	-12882.780000	-12348.315000	-40584.420000	15715.620000	-0.242066	-0.853046	-5.465153	-9.998382	-8.869940	26.398871	0.666343	2.581913	0.961380	1.464960	0.564620	-0.681090	-0.232910	0.687071	-1.000000	-1.000000	-1.000000	-1.000000	-1.000000	-1.000000	-1.000000	65.000000	0.000000	-1.000000	-1.000000	605918.000000	1776577611.032438
-17519.040000	-35523.315000	10184.625000	42433.020000	-12870.855000	-12409.560000	-40589.820000	15721.605000	1.912963	-1.760391	-7.066121	-3.074194	1.896259	23.626501	2.326103	3.992371	0.961380	1.464960	0.564620	-0.681090	-0.232910	0.687071	-1.000000	-1.000000	-1.000000	-1.000000	-1.000000	-1.000000	-1.000000	65.000000	0.000000	-1.000000	-1.000000	605919.000000	1776577611.032451
-17520.030000	-35531.280000	10175.895000	42416.280000	-12904.335000	-12440.385000	-40614.930000	15718.275000	3.418727	-0.885271	-3.508524	8.240853	14.269910	5.179757	2.087605	3.990992	0.961380	1.464960	0.564620	-0.681090	-0.232910	0.687071	-1.000000	-1.000000	-1.000000	-1.000000	-1.000000	-1.000000	-1.000000	65.000000	0.000000	-1.000000	-1.000000	605920.000000	1776577611.036669
-17526.645000	-35543.430000	10170.360000	42416.775000	-12913.245000	-12408.255000	-40610.565000	15717.600000	4.230246	0.210900	1.176391	15.532588	17.538121	-21.402433	-1.113075	3.261856	0.961380	1.464960	0.564620	-0.681090	-0.232910	0.687071	-1.000000	-1.000000	-1.000000	-1.000000	-1.000000	-1.000000	-1.000000	65.000000	0.000000	-1.000000	-1.000000	605921.000000	1776577611.036684
-17522.730000	-35525.340000	10182.735000	42442.290000	-12885.660000	-12389.580000	-40601.475000	15725.520000	3.473449	-0.124652	3.242448	14.543641	9.802574	-37.991253	-4.814853	2.005158	0.961380	1.464960	0.564620	-0.681090	-0.232910	0.687071	-1.000000	-1.000000	-1.000000	-1.000000	-1.000000	-1.000000	-1.000000	65.000000	0.000000	-1.000000	-1.000000	605922.000000	1776577611.040545
-17518.320000	-35480.295000	10186.830000	42438.375000	-12888.405000	-12458.340000	-40603.725000	15730.020000	1.439901	-0.071357	2.780595	8.157117	-1.034253	-34.305394	-5.112265	0.876274	0.961380	1.464960	0.564620	-0.681090	-0.232910	0.687071	-1.000000	-1.000000	-1.000000	-1.000000	-1.000000	-1.000000	-1.000000	65.000000	0.000000	-1.000000	-1.000000	605923.000000	1776577611.040560
-17524.395000	-35546.400000	10131.075000	42416.280000	-12913.290000	-12458.115000	-40607.280000	15720.705000	-0.543216	2.038572	0.718102	0.476037	-7.743298	-17.939111	-1.506665	0.204534	0.961380	1.464960	0.564620	-0.681090	-0.232910	0.687071	-1.000000	-1.000000	-1.000000	-1.000000	-1.000000	-1.000000	-1.000000	65.000000	0.000000	-1.000000	-1.000000	605924.000000	1776577611.044287
-17544.780000	-35611.965000	10138.815000	42423.210000	-12881.745000	-12384.855000	-40599.270000	15706.845000	-2.215604	1.060602	-3.669306	-6.953367	-9.482723	0.079691	3.081587	-0.982927	0.961380	1.464960	0.564620	-0.681090	-0.232910	0.687071	-1.000000	-1.000000	-1.000000	-1.000000	-1.000000	-1.000000	-1.000000	65.000000	0.000000	-1.000000	-1.000000	605925.000000	1776577611.044332
-17557.245000	-35567.550000	10192.995000	42425.820000	-12866.265000	-12373.830000	-40588.515000	15701.895000	-4.408897	-7.103375	-7.450737	-12.145274	-6.873714	17.282459	6.212231	-3.466295	0.961380	1.464960	0.564620	-0.681090	-0.232910	0.687071	-1.000000	-1.000000	-1.000000	-1.000000	-1.000000	-1.000000	-1.000000	65.000000	0.000000	-1.000000	-1.000000	605926.000000	1776577611.048268
-17552.790000	-35547.615000	10192.995000	42426.720000	-12864.690000	-12334.455000	-40579.245000	15705.135000	-6.529631	-14.079159	-4.185326	-12.437844	-0.736160	31.763662	7.377705	-5.851797	0.961380	1.464960	0.564620	-0.681090	-0.232910	0.687071	-1.000000	-1.000000	-1.000000	-1.000000	-1.000000	-1.000000	-1.000000	65.000000	0.000000	-1.000000	-1.000000	605927.000000	1776577611.048279
-17546.040000	-35525.655000	10189.980000	42417.945000	-12890.205000	-12300.390000	-40587.525000	15708.195000	-5.959129	-8.941174	5.546710	-7.986348	4.651259	37.633333	6.450501	-5.575439	0.869820	1.510740	0.534100	-0.680662	-0.230346	0.687803	-1.000000	-1.000000	-1.000000	-1.000000	-1.000000	-1.000000	-1.000000	65.000000	0.000000	-1.000000	-1.000000	605928.000000	1776577611.052403
-17571.960000	-35520.525000	10189.305000	42420.780000	-12891.780000	-12338.685000	-40591.395000	15709.320000	-1.736662	6.617124	13.053067	-1.851936	4.332115	30.289495	2.890487	-1.843689	0.869820	1.510740	0.534100	-0.680662	-0.230346	0.687803	-1.000000	-1.000000	-1.000000	-1.000000	-1.000000	-1.000000	-1.000000	65.000000	0.000000	-1.000000	-1.000000	605929.000000	1776577611.052412
-17592.030000	-35532.315000	10192.995000	42430.140000	-12883.005000	-12365.280000	-40597.875000	15702.255000	2.834456	20.658337	12.137793	3.287182	-1.163876	9.010644	-2.817376	3.213833	0.869820	1.510740	0.534100	-0.680662	-0.230346	0.687803	-1.000000	-1.000000	-1.000000	-1.000000	-1.000000	-1.000000	-1.000000	65.000000	0.000000	-1.000000	-1.000000	605930.000000	1776577611.056360
-17575.200000	-35549.595000	10192.320000	42433.110000	-12877.515000	-12365.595000	-40603.815000	15701.850000	4.463854	22.543253	4.231502	6.667212	-6.138794	-19.773818	-8.357148	6.394457	0.869820	1.510740	0.534100	-0.680662	-0.230346	0.687803	-1.000000	-1.000000	-1.000000	-1.000000	-1.000000	-1.000000	-1.000000	65.000000	0.000000	-1.000000	-1.000000	605931.000000	1776577611.056370
-17533.125000	-35545.815000	10174.950000	42421.860000	-12891.330000	-12358.440000	-40601.295000	15711.705000	5.161396	11.091024	-5.477404	7.844915	-6.508541	-41.916261	-10.952353	6.395689	0.869820	1.510740	0.534100	-0.680662	-0.230346	0.687803	-1.000000	-1.000000	-1.000000	-1.000000	-1.000000	-1.000000	-1.000000	65.000000	0.000000	-1.000000	-1.000000	605932.000000	1776577611.060506
-17488.890000	-35528.040000	10154.115000	42415.155000	-12896.415000	-12346.155000	-40596.570000	15729.210000	9.387197	-5.070070	-13.037154	5.898822	-3.471793	-45.159149	-9.011627	4.792535	0.869820	1.510740	0.534100	-0.680662	-0.230346	0.687803	-1.000000	-1.000000	-1.000000	-1.000000	-1.000000	-1.000000	-1.000000	65.000000	0.000000	-1.000000	-1.000000	605933.000000	1776577611.060520
-17498.700000	-35529.795000	10164.555000	42412.905000	-12903.030000	-12355.380000	-40596.930000	15727.860000	16.226990	-15.295497	-16.266600	1.243798	-0.301957	-28.998492	-3.207834	3.591229	0.869820	1.510740	0.534100	-0.680662	-0.230346	0.687803	-1.000000	-1.000000	-1.000000	-1.000000	-1.000000	-1.000000	-1.000000	65.000000	0.000000	-1.000000	-1.000000	605934.000000	1776577611.064415
-17531.280000	-35518.590000	10201.680000	42428.205000	-12886.245000	-12396.465000	-40593.375000	15721.965000	17.446287	-15.436831	-12.692773	-3.240779	1.810309	-4.853313	3.599431	2.430425	0.869820	1.510740	0.534100	-0.680662	-0.230346	0.687803	-1.000000	-1.000000	-1.000000	-1.000000	-1.000000	-1.000000	-1.000000	65.000000	0.000000	-1.000000	-1.000000	605935.000000	1776577611.064434
-17551.980000	-35528.670000	10185.345000	42417.810000	-12901.995000	-12431.205000	-40596.570000	15718.050000	6.093371	-8.798197	-1.905668	-4.534738	3.561651	12.654733	8.171839	-0.384766	0.869820	1.510740	0.534100	-0.680662	-0.230346	0.687803	-1.000000	-1.000000	-1.000000	-1.000000	-1.000000	-1.000000	-1.000000	65.000000	0.000000	-1.000000	-1.000000	605936.000000	1776577611.068312
-17543.430000	-35538.300000	10178.010000	42412.995000	-12906.945000	-12401.730000	-40600.125000	15715.305000	-13.695512	-1.612333	10.139385	-2.815899	4.633401	17.548076	8.714781	-4.770597	0.869820	1.510740	0.534100	-0.680662	-0.230346	0.687803	-1.000000	-1.000000	-1.000000	-1.000000	-1.000000	-1.000000	-1.000000	65.000000	0.000000	-1.000000	-1.000000	605937.000000	1776577611.068322
-17529.750000	-35529.615000	10185.615000	42419.700000	-12900.240000	-12376.080000	-40594.545000	15717.105000	-28.715639	1.953642	15.557777	-0.522194	4.021703	16.182995	5.677486	-8.395831	-2.411080	3.631880	-0.152600	-0.678831	-0.223693	0.686888	-1.000000	-1.000000	-1.000000	-1.000000	-1.000000	-1.000000	-1.000000	65.000000	0.000000	-1.000000	-1.000000	605938.000000	1776577611.072272
-17520.120000	-35523.225000	10191.870000	42427.170000	-12895.200000	-12372.885000	-40597.920000	15717.780000	-28.688506	2.404253	12.732957	1.201254	2.511424	16.867646	1.326632	-8.869764	-2.411080	3.631880	-0.152600	-0.678831	-0.223693	0.686888	-1.000000	-1.000000	-1.000000	-1.000000	-1.000000	-1.000000	-1.000000	65.000000	0.000000	-1.000000	-1.000000	605939.000000	1776577611.072282
-17521.920000	-35526.375000	10202.760000	42454.080000	-12849.255000	-12354.120000	-40591.710000	15722.235000	-14.692532	2.350453	5.983870	3.061533	2.423927	19.708910	-2.022197	-5.681415	-2.411080	3.631880	-0.152600	-0.678831	-0.223693	0.686888	-1.000000	-1.000000	-1.000000	-1.000000	-1.000000	-1.000000	-1.000000	65.000000	0.000000	-1.000000	-1.000000	605940.000000	1776577611.076483
-17538.120000	-35528.175000	10203.885000	42453.315000	-12871.710000	-12375.180000	-40593.780000	15719.400000	3.115125	2.623521	-0.075800	5.445245	4.653503	19.064389	-3.332518	-0.471044	-2.411080	3.631880	-0.152600	-0.678831	-0.223693	0.686888	-1.000000	-1.000000	-1.000000	-1.000000	-1.000000	-1.000000	-1.000000	65.000000	0.000000	-1.000000	-1.000000	605941.000000	1776577611.076494
-17529.435000	-35518.410000	10198.800000	42442.875000	-12901.950000	-12405.420000	-40605.660000	15719.670000	14.494127	2.620258	-3.801159	6.414788	5.425398	10.301682	-3.155709	4.101626	-2.411080	3.631880	-0.152600	-0.678831	-0.223693	0.686888	-1.000000	-1.000000	-1.000000	-1.000000	-1.000000	-1.000000	-1.000000	65.000000	0.000000	-1.000000	-1.000000	605942.000000	1776577611.081096
-17524.215000	-35521.155000	10190.340000	42427.710000	-12922.830000	-12404.565000	-40607.550000	15721.470000	16.404647	2.229171	-6.054603	3.055355	-0.300415	-5.578799	-2.913666	6.141657	-2.411080	3.631880	-0.152600	-0.678831	-0.223693	0.686888	-1.000000	-1.000000	-1.000000	-1.000000	-1.000000	-1.000000	-1.000000	65.000000	0.000000	-1.000000	-1.000000	605943.000000	1776577611.081119
-17527.590000	-35520.390000	10184.220000	42414.750000	-12922.245000	-12371.220000	-40611.420000	15719.085000	12.151921	1.547716	-7.792519	-4.580260	-10.793384	-20.041502	-3.070065	5.497523	-2.411080	3.631880	-0.152600	-0.678831	-0.223693	0.686888	-1.000000	-1.000000	-1.000000	-1.000000	-1.000000	-1.000000	-1.000000	65.000000	0.000000	-1.000000	-1.000000	605944.000000	1776577611.084384
-17533.890000	-35518.455000	10199.565000	42429.240000	-12881.340000	-12286.080000	-40595.760000	15718.230000	5.771520	0.458313	-8.254024	-12.064489	-17.177097	-21.792458	-2.471141	3.147324	-2.411080	3.631880	-0.152600	-0.678831	-0.223693	0.686888	-1.000000	-1.000000	-1.000000	-1.000000	-1.000000	-1.000000	-1.000000	65.000000	0.000000	-1.000000	-1.000000	605945.000000	1776577611.084393
-17533.170000	-35522.505000	10205.280000	42444.045000	-12879.765000	-12326.580000	-40598.640000	15723.630000	-0.330407	-0.857612	-5.626999	-13.472078	-12.166663	-8.216374	0.032154	0.457548	-2.411080	3.631880	-0.152600	-0.678831	-0.223693	0.686888	-1.000000	-1.000000	-1.000000	-1.000000	-1.000000	-1.000000	-1.000000	65.000000	0.000000	-1.000000	-1.000000	605946.000000	1776577611.088437
-17533.530000	-35529.030000	10183.950000	42399.945000	-12938.265000	-12491.100000	-40613.490000	15724.215000	-4.510415	-2.139651	-0.383492	-7.548140	0.562197	5.543010	3.250549	-1.252754	-2.411080	3.631880	-0.152600	-0.678831	-0.223693	0.686888	-1.000000	-1.000000	-1.000000	-1.000000	-1.000000	-1.000000	-1.000000	65.000000	0.000000	-1.000000	-1.000000	605947.000000	1776577611.088444
-17533.890000	-35541.990000	10167.930000	42390.180000	-12936.195000	-12464.190000	-40612.815000	15718.320000	-5.794429	-3.405531	3.523066	-0.120129	9.220680	0.709772	4.332002	-1.659166	0.610400	1.831200	-0.015260	-0.680418	-0.223632	0.687010	-1.000000	-1.000000	-1.000000	-1.000000	-1.000000	-1.000000	-1.000000	65.000000	0.000000	-1.000000	-1.000000	605948.000000	1776577611.092384
-17534.475000	-35540.730000	10167.255000	42395.220000	-12919.410000	-12418.695000	-40608.045000	15714.405000	-4.492663	-4.385933	3.204631	3.450202	8.617749	-16.912545	2.602106	-1.646533	0.610400	1.831200	-0.015260	-0.680418	-0.223632	0.687010	-1.000000	-1.000000	-1.000000	-1.000000	-1.000000	-1.000000	-1.000000	65.000000	0.000000	-1.000000	-1.000000	605949.000000	1776577611.092394
-17524.755000	-35523.855000	10183.320000	42410.745000	-12906.405000	-12378.195000	-40600.125000	15714.495000	-1.737515	-3.712093	0.811903	4.531005	4.684022	-22.295816	0.417183	-1.916299	0.610400	1.831200	-0.015260	-0.680418	-0.223632	0.687010	-1.000000	-1.000000	-1.000000	-1.000000	-1.000000	-1.000000	-1.000000	65.000000	0.000000	-1.000000	-1.000000	605950.000000	1776577611.099566
-17534.340000	-35518.725000	10189.980000	42418.305000	-12908.160000	-12363.840000	-40599.225000	15713.505000	1.180857	-0.007401	0.720176	6.854842	3.733687	-4.343803	-0.088260	-2.079947	0.610400	1.831200	-0.015260	-0.680418	-0.223632	0.687010	-1.000000	-1.000000	-1.000000	-1.000000	-1.000000	-1.000000	-1.000000	65.000000	0.000000	-1.000000	-1.000000	605951.000000	1776577611.099583
-17564.625000	-35499.240000	10212.750000	42443.685000	-12884.310000	-12314.925000	-40594.680000	15714.270000	2.244781	5.773048	4.367062	10.886629	5.763701	24.218607	0.869784	-1.456963	0.610400	1.831200	-0.015260	-0.680418	-0.223632	0.687010	-1.000000	-1.000000	-1.000000	-1.000000	-1.000000	-1.000000	-1.000000	65.000000	0.000000	-1.000000	-1.000000	605952.000000	1776577611.100396
-17577.900000	-35510.130000	10213.335000	42441.120000	-12880.170000	-12308.985000	-40586.580000	15710.985000	-0.380367	10.276264	9.182004	13.885840	7.725796	43.709490	1.853452	-0.076558	0.610400	1.831200	-0.015260	-0.680418	-0.223632	0.687010	-1.000000	-1.000000	-1.000000	-1.000000	-1.000000	-1.000000	-1.000000	65.000000	0.000000	-1.000000	-1.000000	605953.000000	1776577611.100405
-17569.305000	-35548.290000	10182.060000	42424.020000	-12882.825000	-12371.850000	-40581.405000	15705.180000	-4.937537	9.304252	10.353454	12.026367	6.925237	41.200710	2.001125	1.229038	0.610400	1.831200	-0.015260	-0.680418	-0.223632	0.687010	-1.000000	-1.000000	-1.000000	-1.000000	-1.000000	-1.000000	-1.000000	65.000000	0.000000	-1.000000	-1.000000	605954.000000	1776577611.104380
-17540.415000	-35550.585000	10158.885000	42422.085000	-12903.840000	-12454.290000	-40598.055000	15709.410000	-5.961732	1.075232	4.004858	3.474974	1.723946	14.046285	0.845181	1.705939	0.610400	1.831200	-0.015260	-0.680418	-0.223632	0.687010	-1.000000	-1.000000	-1.000000	-1.000000	-1.000000	-1.000000	-1.000000	65.000000	0.000000	-1.000000	-1.000000	605955.000000	1776577611.104396
-17504.595000	-35538.390000	10142.100000	42388.920000	-12954.465000	-12434.400000	-40603.770000	15726.105000	0.515630	-9.616639	-8.225139	-8.990941	-7.877868	-26.090682	-2.156163	1.868723	0.610400	1.831200	-0.015260	-0.680418	-0.223632	0.687010	-1.000000	-1.000000	-1.000000	-1.000000	-1.000000	-1.000000	-1.000000	65.000000	0.000000	-1.000000	-1.000000	605956.000000	1776577611.108384
-17511.255000	-35532.630000	10153.485000	42394.995000	-12949.380000	-12431.655000	-40592.835000	15728.670000	11.741790	-14.322025	-18.583177	-19.541137	-18.805257	-54.972760	-5.904915	2.842730	0.610400	1.831200	-0.015260	-0.680418	-0.223632	0.687010	-1.000000	-1.000000	-1.000000	-1.000000	-1.000000	-1.000000	-1.000000	65.000000	0.000000	-1.000000	-1.000000	605957.000000	1776577611.108399
-17528.760000	-35520.480000	10197.405000	42404.085000	-12936.285000	-12421.215000	-40595.355000	15720.300000	18.678008	-9.391824	-18.443665	-22.326015	-23.861386	-53.812713	-7.373430	3.992936	3.784480	1.113980	-0.320460	-0.682005	-0.227111	0.687864	-1.000000	-1.000000	-1.000000	-1.000000	-1.000000	-1.000000	-1.000000	65.000000	0.000000	-1.000000	-1.000000	605958.000000	1776577611.112346
-17531.820000	-35519.400000	10201.545000	42396.165000	-12936.645000	-12390.795000	-40616.730000	15716.520000	14.040201	1.293768	-5.496022	-14.985162	-16.933148	-24.607263	-5.424088	3.085156	3.784480	1.113980	-0.320460	-0.682005	-0.227111	0.687864	-1.000000	-1.000000	-1.000000	-1.000000	-1.000000	-1.000000	-1.000000	65.000000	0.000000	-1.000000	-1.000000	605959.000000	1776577611.112381
-17537.445000	-35527.230000	10193.670000	42413.670000	-12911.895000	-12378.825000	-40604.445000	15716.880000	-0.085421	10.387018	12.247451	-1.265769	-0.110012	14.755779	-2.080671	-0.501593	3.784480	1.113980	-0.320460	-0.682005	-0.227111	0.687864	-1.000000	-1.000000	-1.000000	-1.000000	-1.000000	-1.000000	-1.000000	65.000000	0.000000	-1.000000	-1.000000	605960.000000	1776577611.116252
-17541.675000	-35527.095000	10199.295000	42430.500000	-12886.245000	-12375.180000	-40594.320000	15716.880000	-14.649613	12.491915	22.435125	12.281044	18.316515	43.914651	1.319600	-4.587965	3.784480	1.113980	-0.320460	-0.682005	-0.227111	0.687864	-1.000000	-1.000000	-1.000000	-1.000000	-1.000000	-1.000000	-1.000000	65.000000	0.000000	-1.000000	-1.000000	605961.000000	1776577611.116278
-17548.425000	-35531.055000	10204.695000	42455.160000	-12841.335000	-12318.795000	-40591.935000	15714.135000	-21.755086	7.511841	19.582302	20.986780	30.731926	51.423665	5.018866	-6.561826	3.784480	1.113980	-0.320460	-0.682005	-0.227111	0.687864	-1.000000	-1.000000	-1.000000	-1.000000	-1.000000	-1.000000	-1.000000	65.000000	0.000000	-1.000000	-1.000000	605962.000000	1776577611.120286
-17538.480000	-35526.870000	10196.955000	42432.210000	-12883.005000	-12311.190000	-40593.645000	15719.310000	-18.977938	-0.329669	7.624001	22.148460	32.152843	39.473108	7.986902	-5.521939	3.784480	1.113980	-0.320460	-0.682005	-0.227111	0.687864	-1.000000	-1.000000	-1.000000	-1.000000	-1.000000	-1.000000	-1.000000	65.000000	0.000000	-1.000000	-1.000000	605963.000000	1776577611.120296
-17523.000000	-35508.420000	10214.370000	42450.570000	-12886.515000	-12370.365000	-40599.360000	15728.040000	-8.470126	-5.895689	-5.713106	14.692845	19.752660	16.012954	8.025822	-2.085112	3.784480	1.113980	-0.320460	-0.682005	-0.227111	0.687864	-1.000000	-1.000000	-1.000000	-1.000000	-1.000000	-1.000000	-1.000000	65.000000	0.000000	-1.000000	-1.000000	605964.000000	1776577611.124637
-17527.365000	-35520.030000	10191.870000	42406.605000	-12953.880000	-12495.420000	-40608.630000	15725.970000	4.806718	-6.490887	-14.278837	0.904326	-4.026192	-14.778781	4.261783	2.240329	3.784480	1.113980	-0.320460	-0.682005	-0.227111	0.687864	-1.000000	-1.000000	-1.000000	-1.000000	-1.000000	-1.000000	-1.000000	65.000000	0.000000	-1.000000	-1.000000	605965.000000	1776577611.124656
-17535.600000	-35526.330000	10177.245000	42384.510000	-12981.690000	-12525.120000	-40612.545000	15719.580000	14.389522	-3.869067	-16.664048	-14.491850	-30.110397	-47.888687	-1.765927	5.147000	3.784480	1.113980	-0.320460	-0.682005	-0.227111	0.687864	-1.000000	-1.000000	-1.000000	-1.000000	-1.000000	-1.000000	-1.000000	65.000000	0.000000	-1.000000	-1.000000	605966.000000	1776577611.128494
-17540.280000	-35528.130000	10178.730000	42397.785000	-12955.275000	-12446.595000	-40619.700000	15717.060000	15.708882	-1.707378	-14.755602	-25.589643	-45.673087	-66.993222	-7.011882	4.809356	3.784480	1.113980	-0.320460	-0.682005	-0.227111	0.687864	-1.000000	-1.000000	-1.000000	-1.000000	-1.000000	-1.000000	-1.000000	65.000000	0.000000	-1.000000	-1.000000	605967.000000	1776577611.128517
-17552.565000	-35552.790000	10180.305000	42403.950000	-12929.265000	-12338.190000	-40609.215000	15713.145000	9.295134	-1.724236	-9.652823	-25.940047	-39.756672	-51.432067	-8.709378	1.639499	4.135460	2.838360	-0.381500	-0.678648	-0.229247	0.688292	-1.000000	-1.000000	-1.000000	-1.000000	-1.000000	-1.000000	-1.000000	65.000000	0.000000	-1.000000	-1.000000	605968.000000	1776577611.132313
-17551.665000	-35535.465000	10185.795000	42417.855000	-12904.245000	-12287.385000	-40599.405000	15710.220000	-0.177858	-3.052377	-1.770898	-13.722935	-12.599611	-0.200850	-5.659538	-2.114306	4.135460	2.838360	-0.381500	-0.678648	-0.229247	0.688292	-1.000000	-1.000000	-1.000000	-1.000000	-1.000000	-1.000000	-1.000000	65.000000	0.000000	-1.000000	-1.000000	605969.000000	1776577611.132318
-17549.820000	-35523.270000	10189.620000	42421.590000	-12903.795000	-12310.200000	-40598.415000	15709.275000	-7.184293	-2.807308	6.964289	4.951679	21.426582	57.591794	0.789012	-4.259902	4.135460	2.838360	-0.381500	-0.678648	-0.229247	0.688292	-1.000000	-1.000000	-1.000000	-1.000000	-1.000000	-1.000000	-1.000000	65.000000	0.000000	-1.000000	-1.000000	605970.000000	1776577611.136386
-17555.580000	-35530.020000	10197.585000	42411.150000	-12930.975000	-12384.045000	-40601.160000	15708.645000	-8.591317	0.948244	13.500923	20.037677	43.067769	82.613105	6.784131	-3.882589	4.135460	2.838360	-0.381500	-0.678648	-0.229247	0.688292	-1.000000	-1.000000	-1.000000	-1.000000	-1.000000	-1.000000	-1.000000	65.000000	0.000000	-1.000000	-1.000000	605971.000000	1776577611.136392
-17550.540000	-35527.050000	10206.045000	42419.205000	-12940.245000	-12459.960000	-40608.225000	15714.450000	-5.154118	5.935402	15.615701	24.272985	41.130368	56.470845	8.514953	-1.405406	4.135460	2.838360	-0.381500	-0.678648	-0.229247	0.688292	-1.000000	-1.000000	-1.000000	-1.000000	-1.000000	-1.000000	-1.000000	65.000000	0.000000	-1.000000	-1.000000	605972.000000	1776577611.140417
-17541.945000	-35513.235000	10232.460000	42479.865000	-12865.590000	-12421.260000	-40598.910000	15723.045000	0.326974	8.537519	13.400479	18.721576	21.056081	-2.925471	5.349272	2.076294	4.135460	2.838360	-0.381500	-0.678648	-0.229247	0.688292	-1.000000	-1.000000	-1.000000	-1.000000	-1.000000	-1.000000	-1.000000	65.000000	0.000000	-1.000000	-1.000000	605973.000000	1776577611.140424
-17538.030000	-35510.805000	10230.885000	42483.195000	-12845.295000	-12374.190000	-40599.045000	15725.745000	5.304815	7.837952	8.644398	10.760591	0.256402	-53.931236	0.174588	5.224001	4.135460	2.838360	-0.381500	-0.678648	-0.229247	0.688292	-1.000000	-1.000000	-1.000000	-1.000000	-1.000000	-1.000000	-1.000000	65.000000	0.000000	-1.000000	-1.000000	605974.000000	1776577611.144403
-17544.870000	-35525.880000	10191.015000	42405.795000	-12916.485000	-12314.565000	-40596.255000	15716.070000	7.698320	4.469871	1.771723	3.057583	-10.819049	-63.857596	-3.592639	6.331992	4.135460	2.838360	-0.381500	-0.678648	-0.229247	0.688292	-1.000000	-1.000000	-1.000000	-1.000000	-1.000000	-1.000000	-1.000000	65.000000	0.000000	-1.000000	-1.000000	605975.000000	1776577611.144414
-17546.445000	-35524.395000	10195.560000	42423.345000	-12892.545000	-12303.135000	-40586.760000	15716.520000	6.176174	-0.980979	-7.864870	-8.268572	-16.459587	-32.992130	-4.500925	4.146345	4.135460	2.838360	-0.381500	-0.678648	-0.229247	0.688292	-1.000000	-1.000000	-1.000000	-1.000000	-1.000000	-1.000000	-1.000000	65.000000	0.000000	-1.000000	-1.000000	605976.000000	1776577611.148364
-17536.140000	-35514.315000	10205.415000	42426.990000	-12917.070000	-12334.365000	-40608.720000	15723.675000	1.680151	-6.460860	-16.909092	-21.127517	-21.419332	10.440391	-3.357504	-0.286577	4.135460	2.838360	-0.381500	-0.678648	-0.229247	0.688292	-1.000000	-1.000000	-1.000000	-1.000000	-1.000000	-1.000000	-1.000000	65.000000	0.000000	-1.000000	-1.000000	605977.000000	1776577611.148382
-17553.195000	-35535.690000	10178.190000	42385.995000	-12974.805000	-12382.560000	-40617.135000	15710.625000	-3.040563	-9.115972	-19.528219	-26.906507	-24.255053	34.716104	-2.573588	-4.232574	1.098720	3.815000	-0.427280	-0.677611	-0.228149	0.690001	-1.000000	-1.000000	-1.000000	-1.000000	-1.000000	-1.000000	-1.000000	65.000000	0.000000	-1.000000	-1.000000	605978.000000	1776577611.152476
-17558.235000	-35546.535000	10169.235000	42388.695000	-12955.770000	-12463.470000	-40623.840000	15704.910000	-6.282141	-8.702942	-14.805120	-22.425858	-23.049982	26.405179	-3.527608	-6.226525	1.098720	3.815000	-0.427280	-0.677611	-0.228149	0.690001	-1.000000	-1.000000	-1.000000	-1.000000	-1.000000	-1.000000	-1.000000	65.000000	0.000000	-1.000000	-1.000000	605979.000000	1776577611.152486
-17546.040000	-35527.005000	10194.885000	42413.625000	-12916.575000	-12397.140000	-40617.540000	15709.455000	-7.443563	-6.437238	-5.925137	-10.320079	-14.698270	-2.656519	-4.539610	-6.279135	1.098720	3.815000	-0.427280	-0.677611	-0.228149	0.690001	-1.000000	-1.000000	-1.000000	-1.000000	-1.000000	-1.000000	-1.000000	65.000000	0.000000	-1.000000	-1.000000	605980.000000	1776577611.156334
-17544.870000	-35528.580000	10205.055000	42414.705000	-12916.845000	-12370.635000	-40611.780000	15711.210000	-5.575997	-2.085651	4.905358	5.924677	2.858997	-25.024144	-2.910064	-4.237885	1.098720	3.815000	-0.427280	-0.677611	-0.228149	0.690001	-1.000000	-1.000000	-1.000000	-1.000000	-1.000000	-1.000000	-1.000000	65.000000	0.000000	-1.000000	-1.000000	605981.000000	1776577611.156353
-17555.670000	-35537.850000	10208.070000	42421.005000	-12920.445000	-12364.605000	-40600.845000	15707.070000	-1.213053	3.678056	15.165868	20.739969	22.908938	-22.043515	1.956685	-0.481089	1.098720	3.815000	-0.427280	-0.677611	-0.228149	0.690001	-1.000000	-1.000000	-1.000000	-1.000000	-1.000000	-1.000000	-1.000000	65.000000	0.000000	-1.000000	-1.000000	605982.000000	1776577611.160287
-17565.255000	-35530.155000	10204.470000	42423.795000	-12919.275000	-12409.020000	-40596.930000	15706.845000	2.596451	7.857653	20.297338	27.617380	33.694119	-0.707998	7.813117	3.222431	1.098720	3.815000	-0.427280	-0.677611	-0.228149	0.690001	-1.000000	-1.000000	-1.000000	-1.000000	-1.000000	-1.000000	-1.000000	65.000000	0.000000	-1.000000	-1.000000	605983.000000	1776577611.160298
-17590.455000	-35535.015000	10195.020000	42427.755000	-12914.820000	-12374.145000	-40598.055000	15701.805000	3.009951	8.482192	17.032526	23.955322	29.689490	18.576531	11.130529	5.043488	1.098720	3.815000	-0.427280	-0.677611	-0.228149	0.690001	-1.000000	-1.000000	-1.000000	-1.000000	-1.000000	-1.000000	-1.000000	65.000000	0.000000	-1.000000	-1.000000	605984.000000	1776577611.164398
-17591.040000	-35545.005000	10190.565000	42420.870000	-12918.240000	-12377.700000	-40595.445000	15705.045000	0.054427	5.848634	6.627650	12.323931	14.834537	24.376146	9.607806	4.539414	1.098720	3.815000	-0.427280	-0.677611	-0.228149	0.690001	-1.000000	-1.000000	-1.000000	-1.000000	-1.000000	-1.000000	-1.000000	65.000000	0.000000	-1.000000	-1.000000	605985.000000	1776577611.164412
-17566.290000	-35528.400000	10189.755000	42405.525000	-12937.815000	-12395.745000	-40602.375000	15711.885000	-2.638096	1.571669	-5.613465	-2.222105	-2.950237	18.096167	3.795702	2.828103	1.098720	3.815000	-0.427280	-0.677611	-0.228149	0.690001	-1.000000	-1.000000	-1.000000	-1.000000	-1.000000	-1.000000	-1.000000	65.000000	0.000000	-1.000000	-1.000000	605986.000000	1776577611.168371
-17548.695000	-35515.305000	10200.600000	42419.430000	-12925.080000	-12383.055000	-40601.340000	15713.640000	-0.509351	-1.479382	-13.513072	-14.353970	-16.819534	5.586423	-3.515583	1.470226	1.098720	3.815000	-0.427280	-0.677611	-0.228149	0.690001	-1.000000	-1.000000	-1.000000	-1.000000	-1.000000	-1.000000	-1.000000	65.000000	0.000000	-1.000000	-1.000000	605987.000000	1776577611.168385
-17542.440000	-35528.490000	10187.010000	42400.035000	-12948.570000	-12408.750000	-40612.365000	15717.690000	6.507580	-1.606286	-14.001672	-19.792778	-22.595750	-6.881964	-9.191407	0.960912	-1.236060	2.960440	0.564620	-0.679625	-0.223876	0.689634	-1.000000	-1.000000	-1.000000	-1.000000	-1.000000	-1.000000	-1.000000	65.000000	0.000000	-1.000000	-1.000000	605988.000000	1776577611.172602
-17565.615000	-35533.530000	10183.995000	42404.400000	-12944.565000	-12413.520000	-40609.485000	15716.430000	12.475650	-0.761790	-9.019308	-17.632361	-19.965932	-14.837487	-11.265589	0.641827	-1.236060	2.960440	0.564620	-0.679625	-0.223876	0.689634	-1.000000	-1.000000	-1.000000	-1.000000	-1.000000	-1.000000	-1.000000	65.000000	0.000000	-1.000000	-1.000000	605989.000000	1776577611.172646
-17585.415000	-35536.995000	10196.505000	42420.870000	-12927.015000	-12389.760000	-40605.570000	15710.670000	10.660026	-1.595059	-2.557783	-10.003260	-11.393341	-16.268427	-9.200298	-0.358016	-1.236060	2.960440	0.564620	-0.679625	-0.223876	0.689634	-1.000000	-1.000000	-1.000000	-1.000000	-1.000000	-1.000000	-1.000000	65.000000	0.000000	-1.000000	-1.000000	605990.000000	1776577611.176348
-17595.135000	-35548.515000	10215.855000	42454.305000	-12876.570000	-12358.935000	-40598.280000	15704.865000	0.352131	-4.006861	3.459733	0.798765	1.017044	-9.978485	-3.703943	-2.366221	-1.236060	2.960440	0.564620	-0.679625	-0.223876	0.689634	-1.000000	-1.000000	-1.000000	-1.000000	-1.000000	-1.000000	-1.000000	65.000000	0.000000	-1.000000	-1.000000	605991.000000	1776577611.176370
-17570.880000	-35540.010000	10203.255000	42419.070000	-12928.860000	-12370.545000	-40606.425000	15706.845000	-11.358469	-5.901112	8.266571	11.249589	13.598594	1.911927	2.887194	-4.585161	-1.236060	2.960440	0.564620	-0.679625	-0.223876	0.689634	-1.000000	-1.000000	-1.000000	-1.000000	-1.000000	-1.000000	-1.000000	65.000000	0.000000	-1.000000	-1.000000	605992.000000	1776577611.180319
-17541.945000	-35523.225000	10204.020000	42412.005000	-12935.295000	-12351.285000	-40605.705000	15712.560000	-15.045658	-4.852178	9.749181	15.180585	18.560002	12.361759	7.273379	-5.278643	-1.236060	2.960440	0.564620	-0.679625	-0.223876	0.689634	-1.000000	-1.000000	-1.000000	-1.000000	-1.000000	-1.000000	-1.000000	65.000000	0.000000	-1.000000	-1.000000	605993.000000	1776577611.180331
-17523.495000	-35506.755000	10212.615000	42419.970000	-12929.895000	-12339.720000	-40598.145000	15724.800000	-7.263901	0.224878	6.675591	9.718551	11.701477	15.425190	7.772080	-3.129008	-1.236060	2.960440	0.564620	-0.679625	-0.223876	0.689634	-1.000000	-1.000000	-1.000000	-1.000000	-1.000000	-1.000000	-1.000000	65.000000	0.000000	-1.000000	-1.000000	605994.000000	1776577611.184278
-17539.920000	-35513.370000	10208.610000	42410.385000	-12928.770000	-12349.125000	-40600.215000	15719.265000	5.710035	6.991496	1.121931	-0.307701	-0.897844	10.730190	5.469772	1.168652	-1.236060	2.960440	0.564620	-0.679625	-0.223876	0.689634	-1.000000	-1.000000	-1.000000	-1.000000	-1.000000	-1.000000	-1.000000	65.000000	0.000000	-1.000000	-1.000000	605995.000000	1776577611.184301
-17554.320000	-35522.415000	10184.265000	42390.450000	-12958.875000	-12400.515000	-40611.015000	15715.755000	12.978197	10.384571	-4.293568	-8.330405	-10.451374	0.284843	2.050036	4.752601	-1.236060	2.960440	0.564620	-0.679625	-0.223876	0.689634	-1.000000	-1.000000	-1.000000	-1.000000	-1.000000	-1.000000	-1.000000	65.000000	0.000000	-1.000000	-1.000000	605996.000000	1776577611.188450
-17558.775000	-35526.465000	10186.695000	42393.960000	-12962.655000	-12405.330000	-40613.895000	15710.355000	8.916234	7.146573	-8.542398	-11.553833	-13.827043	-13.193355	-1.701582	4.968148	-1.236060	2.960440	0.564620	-0.679625	-0.223876	0.689634	-1.000000	-1.000000	-1.000000	-1.000000	-1.000000	-1.000000	-1.000000	65.000000	0.000000	-1.000000	-1.000000	605997.000000	1776577611.188458
-17554.545000	-35531.145000	10191.870000	42401.115000	-12950.865000	-12393.450000	-40616.235000	15708.780000	-2.230199	-0.817577	-10.168464	-9.471359	-11.527075	-23.249990	-4.828907	1.881860	-2.289000	2.105880	0.534100	-0.680357	-0.222839	0.687437	-1.000000	-1.000000	-1.000000	-1.000000	-1.000000	-1.000000	-1.000000	65.000000	0.000000	-1.000000	-1.000000	605998.000000	1776577611.192552
-17548.560000	-35533.665000	10193.760000	42405.480000	-12944.880000	-12392.415000	-40612.770000	15713.955000	-11.385071	-8.367524	-7.335626	-2.761480	-4.280005	-22.242800	-5.834908	-1.945988	-2.289000	2.105880	0.534100	-0.680357	-0.222839	0.687437	-1.000000	-1.000000	-1.000000	-1.000000	-1.000000	-1.000000	-1.000000	65.000000	0.000000	-1.000000	-1.000000	605999.000000	1776577611.192561
-17556.255000	-35533.755000	10196.415000	42404.895000	-12949.245000	-12382.515000	-40608.540000	15712.470000	-12.862475	-11.329269	-0.779249	5.559793	5.359930	-9.344413	-3.923054	-3.772635	-2.289000	2.105880	0.534100	-0.680357	-0.222839	0.687437	-1.000000	-1.000000	-1.000000	-1.000000	-1.000000	-1.000000	-1.000000	65.000000	0.000000	-1.000000	-1.000000	606000.000000	1776577611.196597
-17562.195000	-35540.145000	10200.060000	42414.480000	-12935.205000	-12377.790000	-40610.070000	15707.430000	-7.758297	-8.848440	6.130678	11.347023	12.780896	8.251040	0.005712	-2.951899	-2.289000	2.105880	0.534100	-0.680357	-0.222839	0.687437	-1.000000	-1.000000	-1.000000	-1.000000	-1.000000	-1.000000	-1.000000	65.000000	0.000000	-1.000000	-1.000000	606001.000000	1776577611.196614
-17558.640000	-35542.080000	10214.055000	42447.195000	-12893.490000	-12363.120000	-40602.555000	15712.380000	-0.712962	-3.151045	10.323440	12.843548	15.586270	21.610571	3.818527	-0.848074	-2.289000	2.105880	0.534100	-0.680357	-0.222839	0.687437	-1.000000	-1.000000	-1.000000	-1.000000	-1.000000	-1.000000	-1.000000	65.000000	0.000000	-1.000000	-1.000000	606002.000000	1776577611.200410
-17559.765000	-35541.585000	10160.145000	42443.730000	-12901.815000	-12350.475000	-40592.880000	15716.925000	4.797856	2.635160	9.803342	11.148699	14.628476	25.701722	5.921968	1.251170	-2.289000	2.105880	0.534100	-0.680357	-0.222839	0.687437	-1.000000	-1.000000	-1.000000	-1.000000	-1.000000	-1.000000	-1.000000	65.000000	0.000000	-1.000000	-1.000000	606003.000000	1776577611.200420
-17572.140000	-35540.415000	10145.790000	42415.245000	-12936.780000	-12384.855000	-40611.870000	15709.230000	7.335629	6.516667	3.080183	6.359649	9.324392	19.909096	5.653235	2.703039	-2.289000	2.105880	0.534100	-0.680357	-0.222839	0.687437	-1.000000	-1.000000	-1.000000	-1.000000	-1.000000	-1.000000	-1.000000	65.000000	0.000000	-1.000000	-1.000000	606004.000000	1776577611.204594
-17561.925000	-35511.030000	10221.615000	42414.480000	-12955.095000	-12410.055000	-40619.880000	15709.005000	6.751697	8.408323	-5.989471	-2.553066	-2.213128	5.824218	2.381958	2.781696	-2.289000	2.105880	0.534100	-0.680357	-0.222839	0.687437	-1.000000	-1.000000	-1.000000	-1.000000	-1.000000	-1.000000	-1.000000	65.000000	0.000000	-1.000000	-1.000000	606005.000000	1776577611.204603
-17546.715000	-35498.790000	10245.780000	42417.540000	-12951.855000	-12382.650000	-40619.835000	15713.055000	4.772221	9.531917	-7.390518	-12.769222	-16.600445	-11.138067	-3.086127	1.430998	-2.289000	2.105880	0.534100	-0.680357	-0.222839	0.687437	-1.000000	-1.000000	-1.000000	-1.000000	-1.000000	-1.000000	-1.000000	65.000000	0.000000	-1.000000	-1.000000	606006.000000	1776577611.208560
-17542.485000	-35496.585000	10244.700000	42445.260000	-12904.155000	-12350.025000	-40611.510000	15715.935000	3.766457	9.870425	2.056190	-17.627594	-24.226422	-20.824467	-7.311972	-0.121297	-2.289000	2.105880	0.534100	-0.680357	-0.222839	0.687437	-1.000000	-1.000000	-1.000000	-1.000000	-1.000000	-1.000000	-1.000000	65.000000	0.000000	-1.000000	-1.000000	606007.000000	1776577611.208573
-17540.640000	-35489.295000	10239.705000	42443.505000	-12921.795000	-12427.245000	-40616.910000	15718.500000	3.797852	7.462774	12.512203	-13.137120	-18.214146	-18.055739	-7.192230	-0.704930	2.166920	0.289940	-0.442540	-0.683348	-0.227416	0.687681	-1.000000	-1.000000	-1.000000	-1.000000	-1.000000	-1.000000	-1.000000	65.000000	0.000000	-1.000000	-1.000000	606008.000000	1776577611.212489
-17549.010000	-35499.240000	10222.470000	42432.750000	-12950.955000	-12434.670000	-40607.910000	15715.485000	2.768980	1.304441	12.875443	-2.716145	-3.480512	-9.916718	-3.056729	-0.406867	2.166920	0.289940	-0.442540	-0.683348	-0.227416	0.687681	-1.000000	-1.000000	-1.000000	-1.000000	-1.000000	-1.000000	-1.000000	65.000000	0.000000	-1.000000	-1.000000	606009.000000	1776577611.212501
-17554.185000	-35520.705000	10210.050000	42414.255000	-12963.195000	-12439.170000	-40614.750000	15714.585000	-0.767136	-7.349263	1.598998	5.614159	7.794722	-4.747031	2.191933	-0.171253	2.166920	0.289940	-0.442540	-0.683348	-0.227416	0.687681	-1.000000	-1.000000	-1.000000	-1.000000	-1.000000	-1.000000	-1.000000	65.000000	0.000000	-1.000000	-1.000000	606010.000000	1776577611.216596
-17561.295000	-35526.510000	10208.070000	42400.395000	-12963.555000	-12377.160000	-40627.530000	15711.030000	-5.846635	-15.705276	-13.727756	6.641652	9.547524	-0.778403	5.285937	-0.644776	2.166920	0.289940	-0.442540	-0.683348	-0.227416	0.687681	-1.000000	-1.000000	-1.000000	-1.000000	-1.000000	-1.000000	-1.000000	65.000000	0.000000	-1.000000	-1.000000	606011.000000	1776577611.216614
-17558.955000	-35519.490000	10207.800000	42397.200000	-12965.400000	-12363.885000	-40607.820000	15717.510000	-9.669775	-19.628890	-23.060816	1.825629	5.496567	7.888979	4.830110	-1.462489	2.166920	0.289940	-0.442540	-0.683348	-0.227416	0.687681	-1.000000	-1.000000	-1.000000	-1.000000	-1.000000	-1.000000	-1.000000	65.000000	0.000000	-1.000000	-1.000000	606012.000000	1776577611.220444
-17556.480000	-35521.740000	10199.745000	42399.000000	-12955.365000	-12348.315000	-40597.875000	15721.695000	-9.637720	-15.825241	-21.166850	-3.124565	2.122045	19.908318	2.884902	-1.550623	2.166920	0.289940	-0.442540	-0.683348	-0.227416	0.687681	-1.000000	-1.000000	-1.000000	-1.000000	-1.000000	-1.000000	-1.000000	65.000000	0.000000	-1.000000	-1.000000	606013.000000	1776577611.220456
-17561.880000	-35525.835000	10202.445000	42405.345000	-12939.840000	-12326.265000	-40599.495000	15717.555000	-5.448247	-5.495175	-10.224516	-3.454104	2.816590	26.876278	2.083142	-0.468892	2.166920	0.289940	-0.442540	-0.683348	-0.227416	0.687681	-1.000000	-1.000000	-1.000000	-1.000000	-1.000000	-1.000000	-1.000000	65.000000	0.000000	-1.000000	-1.000000	606014.000000	1776577611.224413
-17572.905000	-35535.195000	10189.845000	42392.880000	-12951.945000	-12315.420000	-40605.615000	15704.370000	0.306961	5.895541	3.280806	0.961988	6.392471	22.916470	1.915429	0.582834	2.166920	0.289940	-0.442540	-0.683348	-0.227416	0.687681	-1.000000	-1.000000	-1.000000	-1.000000	-1.000000	-1.000000	-1.000000	65.000000	0.000000	-1.000000	-1.000000	606015.000000	1776577611.224421
-17570.160000	-35522.820000	10210.230000	42422.355000	-12928.905000	-12296.655000	-40604.670000	15702.660000	4.376798	13.204366	13.458736	6.704622	8.899127	9.520464	0.396235	0.090053	2.166920	0.289940	-0.442540	-0.683348	-0.227416	0.687681	-1.000000	-1.000000	-1.000000	-1.000000	-1.000000	-1.000000	-1.000000	65.000000	0.000000	-1.000000	-1.000000	606016.000000	1776577611.228473
-17557.425000	-35509.095000	10232.505000	42446.655000	-12912.975000	-12354.795000	-40605.255000	15712.605000	5.965536	15.324678	18.414037	11.248800	8.180494	-8.143726	-2.535326	-1.356432	2.166920	0.289940	-0.442540	-0.683348	-0.227416	0.687681	-1.000000	-1.000000	-1.000000	-1.000000	-1.000000	-1.000000	-1.000000	65.000000	0.000000	-1.000000	-1.000000	606017.000000	1776577611.228481
-17576.280000	-35529.120000	10218.330000	42429.105000	-12914.730000	-12421.890000	-40606.200000	15703.425000	6.116734	13.564967	18.788216	13.260565	5.007475	-26.573343	-5.076462	-1.676312	2.548420	0.473060	-1.373400	-0.683531	-0.228393	0.688231	-1.000000	-1.000000	-1.000000	-1.000000	-1.000000	-1.000000	-1.000000	65.000000	0.000000	-1.000000	-1.000000	606018.000000	1776577611.232461
-17580.555000	-35528.490000	10219.680000	42434.730000	-12922.515000	-12385.260000	-40613.895000	15705.900000	4.789923	8.400077	14.212925	10.297749	-0.023653	-41.150769	-5.813796	-0.317736	2.548420	0.473060	-1.373400	-0.683531	-0.228393	0.688231	-1.000000	-1.000000	-1.000000	-1.000000	-1.000000	-1.000000	-1.000000	65.000000	0.000000	-1.000000	-1.000000	606019.000000	1776577611.232476
-17568.135000	-35517.510000	10221.120000	42431.985000	-12936.330000	-12365.550000	-40613.175000	15714.855000	1.923340	1.047073	4.979047	1.802589	-6.797359	-41.615998	-4.730522	1.676995	2.548420	0.473060	-1.373400	-0.683531	-0.228393	0.688231	-1.000000	-1.000000	-1.000000	-1.000000	-1.000000	-1.000000	-1.000000	65.000000	0.000000	-1.000000	-1.000000	606020.000000	1776577611.236401
-17554.950000	-35510.220000	10225.710000	42433.290000	-12931.605000	-12339.090000	-40614.885000	15721.020000	-0.303963	-4.884808	-5.313202	-8.351737	-13.418618	-21.585027	-2.435319	3.588344	2.548420	0.473060	-1.373400	-0.683531	-0.228393	0.688231	-1.000000	-1.000000	-1.000000	-1.000000	-1.000000	-1.000000	-1.000000	65.000000	0.000000	-1.000000	-1.000000	606021.000000	1776577611.236415
-17545.950000	-35515.440000	10213.695000	42418.710000	-12962.565000	-12364.470000	-40617.405000	15729.030000	0.179178	-6.832674	-12.380044	-15.360821	-16.761247	10.036902	0.371909	4.959542	2.548420	0.473060	-1.373400	-0.683531	-0.228393	0.688231	-1.000000	-1.000000	-1.000000	-1.000000	-1.000000	-1.000000	-1.000000	65.000000	0.000000	-1.000000	-1.000000	606022.000000	1776577611.240577
-17555.130000	-35531.955000	10195.605000	42402.600000	-12977.280000	-12420.765000	-40626.045000	15719.400000	2.198412	-6.082057	-14.877259	-17.268320	-15.632112	33.750933	2.667333	4.830309	2.548420	0.473060	-1.373400	-0.683531	-0.228393	0.688231	-1.000000	-1.000000	-1.000000	-1.000000	-1.000000	-1.000000	-1.000000	65.000000	0.000000	-1.000000	-1.000000	606023.000000	1776577611.240588
-17567.955000	-35547.120000	10195.020000	42431.535000	-12928.635000	-12361.050000	-40602.330000	15713.955000	2.269446	-5.693733	-13.850273	-14.135151	-9.923880	36.771696	3.948151	2.155965	2.548420	0.473060	-1.373400	-0.683531	-0.228393	0.688231	-1.000000	-1.000000	-1.000000	-1.000000	-1.000000	-1.000000	-1.000000	65.000000	0.000000	-1.000000	-1.000000	606024.000000	1776577611.244565
-17596.170000	-35567.280000	10185.840000	42415.380000	-12929.895000	-12376.440000	-40589.910000	15698.610000	-1.887834	-6.943131	-10.088051	-6.329166	1.153485	24.253439	5.238330	-2.865662	2.548420	0.473060	-1.373400	-0.683531	-0.228393	0.688231	-1.000000	-1.000000	-1.000000	-1.000000	-1.000000	-1.000000	-1.000000	65.000000	0.000000	-1.000000	-1.000000	606025.000000	1776577611.244574
-17585.415000	-35535.240000	10203.975000	42398.955000	-12959.685000	-12401.685000	-40620.735000	15697.260000	-8.535650	-7.627381	-3.717925	3.162654	13.965764	8.549166	6.461866	-8.108600	2.548420	0.473060	-1.373400	-0.683531	-0.228393	0.688231	-1.000000	-1.000000	-1.000000	-1.000000	-1.000000	-1.000000	-1.000000	65.000000	0.000000	-1.000000	-1.000000	606026.000000	1776577611.248568
-17560.080000	-35509.590000	10196.595000	42377.625000	-13001.355000	-12387.420000	-40623.705000	15717.915000	-11.897610	-3.437215	4.351414	8.835208	19.248572	-4.133132	4.693510	-10.098209	2.548420	0.473060	-1.373400	-0.683531	-0.228393	0.688231	-1.000000	-1.000000	-1.000000	-1.000000	-1.000000	-1.000000	-1.000000	65.000000	0.000000	-1.000000	-1.000000	606027.000000	1776577611.248576
-17558.820000	-35511.390000	10199.835000	42390.405000	-12977.055000	-12368.790000	-40611.600000	15720.120000	-7.272720	6.397749	11.366863	8.502258	12.631701	-11.061166	-0.788582	-6.304707	0.320460	0.915600	1.419180	-0.680418	-0.225341	0.688963	-1.000000	-1.000000	-1.000000	-1.000000	-1.000000	-1.000000	-1.000000	65.000000	0.000000	-1.000000	-1.000000	606028.000000	1776577611.254847
-17561.385000	-35516.835000	10206.135000	42403.320000	-12948.975000	-12370.140000	-40602.105000	15719.085000	2.882874	15.611104	14.249051	5.815329	1.632631	-10.518787	-5.652062	1.546384	0.320460	0.915600	1.419180	-0.680418	-0.225341	0.688963	-1.000000	-1.000000	-1.000000	-1.000000	-1.000000	-1.000000	-1.000000	65.000000	0.000000	-1.000000	-1.000000	606029.000000	1776577611.254863
-17571.330000	-35526.195000	10204.425000	42396.750000	-12967.740000	-12404.970000	-40606.920000	15711.345000	10.910038	16.631915	12.221407	5.130987	-3.491541	-5.723743	-6.035165	8.074710	0.320460	0.915600	1.419180	-0.680418	-0.225341	0.688963	-1.000000	-1.000000	-1.000000	-1.000000	-1.000000	-1.000000	-1.000000	65.000000	0.000000	-1.000000	-1.000000	606030.000000	1776577611.256549
-17585.955000	-35534.925000	10206.045000	42399.135000	-12988.485000	-12434.490000	-40616.325000	15701.580000	11.283155	8.075206	6.703335	6.267596	-2.123698	-3.437208	-3.086853	9.006896	0.320460	0.915600	1.419180	-0.680418	-0.225341	0.688963	-1.000000	-1.000000	-1.000000	-1.000000	-1.000000	-1.000000	-1.000000	65.000000	0.000000	-1.000000	-1.000000	606031.000000	1776577611.256561
-17586.180000	-35533.080000	10218.960000	42406.920000	-12975.975000	-12395.340000	-40610.700000	15703.335000	4.586320	-4.650853	0.222303	6.442836	-0.321730	-5.634776	-0.343907	4.480282	0.320460	0.915600	1.419180	-0.680418	-0.225341	0.688963	-1.000000	-1.000000	-1.000000	-1.000000	-1.000000	-1.000000	-1.000000	65.000000	0.000000	-1.000000	-1.000000	606032.000000	1776577611.260600
-17573.715000	-35523.495000	10214.910000	42413.220000	-12957.030000	-12400.515000	-40612.905000	15707.745000	-3.541136	-13.803515	-4.575161	4.554886	-0.269145	-6.612613	0.672633	-1.525817	0.320460	0.915600	1.419180	-0.680418	-0.225341	0.688963	-1.000000	-1.000000	-1.000000	-1.000000	-1.000000	-1.000000	-1.000000	65.000000	0.000000	-1.000000	-1.000000	606033.000000	1776577611.260620
-17569.080000	-35517.825000	10207.530000	42415.830000	-12947.670000	-12407.265000	-40619.520000	15709.005000	-7.058583	-14.558863	-6.869123	1.381281	0.417460	-2.101641	0.541762	-4.739432	0.320460	0.915600	1.419180	-0.680418	-0.225341	0.688963	-1.000000	-1.000000	-1.000000	-1.000000	-1.000000	-1.000000	-1.000000	65.000000	0.000000	-1.000000	-1.000000	606034.000000	1776577611.264854
-17561.970000	-35506.395000	10223.010000	42429.240000	-12938.805000	-12389.130000	-40609.665000	15716.520000	-4.395763	-7.719897	-7.359339	-1.871598	2.650725	5.063636	0.126129	-3.814039	0.320460	0.915600	1.419180	-0.680418	-0.225341	0.688963	-1.000000	-1.000000	-1.000000	-1.000000	-1.000000	-1.000000	-1.000000	65.000000	0.000000	-1.000000	-1.000000	606035.000000	1776577611.264866
-17584.605000	-35522.010000	10203.120000	42393.195000	-12977.010000	-12388.905000	-40613.985000	15711.030000	0.795962	1.482097	-6.459070	-4.794677	3.591399	10.351786	0.220809	-0.463680	0.320460	0.915600	1.419180	-0.680418	-0.225341	0.688963	-1.000000	-1.000000	-1.000000	-1.000000	-1.000000	-1.000000	-1.000000	65.000000	0.000000	-1.000000	-1.000000	606036.000000	1776577611.268474
-17616.915000	-35528.535000	10212.480000	42405.885000	-12964.680000	-12350.295000	-40607.865000	15702.210000	2.792814	6.961246	-4.698849	-7.975710	0.030644	12.079269	1.044367	2.219010	0.320460	0.915600	1.419180	-0.680418	-0.225341	0.688963	-1.000000	-1.000000	-1.000000	-1.000000	-1.000000	-1.000000	-1.000000	65.000000	0.000000	-1.000000	-1.000000	606037.000000	1776577611.268482
-17619.975000	-35532.315000	10215.990000	42414.930000	-12956.940000	-12346.560000	-40606.515000	15700.140000	-0.975041	6.085863	-2.506644	-10.184350	-6.243485	10.928793	2.015777	2.081070	-4.776380	2.365300	0.976640	-0.679259	-0.223022	0.689451	-1.000000	-1.000000	-1.000000	-1.000000	-1.000000	-1.000000	-1.000000	65.000000	0.000000	-1.000000	-1.000000	606038.000000	1776577611.272595
-17586.000000	-35535.690000	10207.035000	42401.655000	-12974.670000	-12379.230000	-40619.745000	15706.080000	-6.057861	1.266235	0.129234	-8.739089	-9.937135	6.726603	2.197790	-0.166912	-4.776380	2.365300	0.976640	-0.679259	-0.223022	0.689451	-1.000000	-1.000000	-1.000000	-1.000000	-1.000000	-1.000000	-1.000000	65.000000	0.000000	-1.000000	-1.000000	606039.000000	1776577611.272603
-17560.665000	-35536.095000	10204.740000	42406.875000	-12968.730000	-12387.780000	-40620.465000	15711.030000	-4.800116	-3.084357	2.317822	-3.933233	-8.896278	-2.171000	0.744865	-1.834529	-4.776380	2.365300	0.976640	-0.679259	-0.223022	0.689451	-1.000000	-1.000000	-1.000000	-1.000000	-1.000000	-1.000000	-1.000000	65.000000	0.000000	-1.000000	-1.000000	606040.000000	1776577611.276481
-17561.160000	-35523.360000	10212.210000	42400.485000	-12974.490000	-12381.300000	-40617.630000	15710.895000	4.278378	-3.946748	3.158454	1.381912	-4.652906	-13.540228	-1.742933	-1.275996	-4.776380	2.365300	0.976640	-0.679259	-0.223022	0.689451	-1.000000	-1.000000	-1.000000	-1.000000	-1.000000	-1.000000	-1.000000	65.000000	0.000000	-1.000000	-1.000000	606041.000000	1776577611.276488
-17581.770000	-35526.060000	10216.440000	42414.345000	-12952.080000	-12367.755000	-40614.615000	15705.630000	13.451999	-0.980805	3.271897	5.209278	0.937677	-20.140705	-3.175233	0.564848	-4.776380	2.365300	0.976640	-0.679259	-0.223022	0.689451	-1.000000	-1.000000	-1.000000	-1.000000	-1.000000	-1.000000	-1.000000	65.000000	0.000000	-1.000000	-1.000000	606042.000000	1776577611.280579
-17590.680000	-35517.780000	10211.760000	42423.705000	-12953.655000	-12369.555000	-40608.495000	15706.575000	13.731203	3.513594	3.384099	7.368663	6.517787	-16.918026	-2.190299	1.645892	-4.776380	2.365300	0.976640	-0.679259	-0.223022	0.689451	-1.000000	-1.000000	-1.000000	-1.000000	-1.000000	-1.000000	-1.000000	65.000000	0.000000	-1.000000	-1.000000	606043.000000	1776577611.280599
-17584.335000	-35506.620000	10231.470000	42437.430000	-12933.675000	-12378.330000	-40610.835000	15708.195000	4.295931	6.665758	3.333655	8.423415	10.497310	-6.373925	0.511277	1.200784	-4.776380	2.365300	0.976640	-0.679259	-0.223022	0.689451	-1.000000	-1.000000	-1.000000	-1.000000	-1.000000	-1.000000	-1.000000	65.000000	0.000000	-1.000000	-1.000000	606044.000000	1776577611.284484
-17583.435000	-35521.290000	10234.890000	42425.685000	-12959.910000	-12369.915000	-40612.320000	15707.430000	-7.409019	6.850114	3.163366	7.951171	10.847221	4.532371	2.837088	0.048593	-4.776380	2.365300	0.976640	-0.679259	-0.223022	0.689451	-1.000000	-1.000000	-1.000000	-1.000000	-1.000000	-1.000000	-1.000000	65.000000	0.000000	-1.000000	-1.000000	606045.000000	1776577611.284499
-17572.275000	-35529.660000	10213.245000	42392.970000	-12991.455000	-12342.015000	-40618.620000	15710.130000	-13.446910	3.350008	2.393519	4.026059	5.550408	11.407929	3.006904	-0.784190	-4.776380	2.365300	0.976640	-0.679259	-0.223022	0.689451	-1.000000	-1.000000	-1.000000	-1.000000	-1.000000	-1.000000	-1.000000	65.000000	0.000000	-1.000000	-1.000000	606046.000000	1776577611.288523
-17558.145000	-35517.465000	10208.835000	42402.195000	-12962.205000	-12276.090000	-40618.395000	15714.630000	-11.102338	-2.618477	-0.588801	-3.874359	-4.212844	15.346862	0.949872	-0.801164	-4.776380	2.365300	0.976640	-0.679259	-0.223022	0.689451	-1.000000	-1.000000	-1.000000	-1.000000	-1.000000	-1.000000	-1.000000	65.000000	0.000000	-1.000000	-1.000000	606047.000000	1776577611.288536
-17569.350000	-35517.780000	10212.525000	42410.745000	-12956.940000	-12285.090000	-40615.515000	15712.020000	-3.334144	-7.240743	-5.347839	-11.346961	-11.629105	18.332532	-1.670441	-0.124809	-0.503580	1.388660	0.900340	-0.680479	-0.226135	0.687925	-1.000000	-1.000000	-1.000000	-1.000000	-1.000000	-1.000000	-1.000000	65.000000	0.000000	-1.000000	-1.000000	606048.000000	1776577611.292584
-17570.880000	-35504.640000	10224.540000	42418.215000	-12965.625000	-12471.885000	-40608.045000	15712.605000	3.777901	-7.409799	-8.194850	-12.352202	-10.969530	13.991162	-2.751465	0.503431	-0.503580	1.388660	0.900340	-0.680479	-0.226135	0.687925	-1.000000	-1.000000	-1.000000	-1.000000	-1.000000	-1.000000	-1.000000	65.000000	0.000000	-1.000000	-1.000000	606049.000000	1776577611.292592
-17578.755000	-35517.465000	10212.975000	42402.735000	-12979.530000	-12454.065000	-40617.045000	15703.650000	5.777219	-3.701620	-6.431905	-6.264777	-4.533200	-6.957258	-1.663535	0.278764	-0.503580	1.388660	0.900340	-0.680479	-0.226135	0.687925	-1.000000	-1.000000	-1.000000	-1.000000	-1.000000	-1.000000	-1.000000	65.000000	0.000000	-1.000000	-1.000000	606050.000000	1776577611.296482
-17576.370000	-35521.155000	10201.545000	42387.480000	-12991.095000	-12397.230000	-40623.345000	15703.695000	2.936900	0.404993	-1.852449	1.416717	1.288338	-33.981465	0.007676	-0.933749	-0.503580	1.388660	0.900340	-0.680479	-0.226135	0.687925	-1.000000	-1.000000	-1.000000	-1.000000	-1.000000	-1.000000	-1.000000	65.000000	0.000000	-1.000000	-1.000000	606051.000000	1776577611.296493
-17570.745000	-35512.425000	10206.945000	42406.650000	-12972.150000	-12387.240000	-40616.100000	15709.185000	-1.097951	2.150517	1.810737	5.563173	3.498133	-40.861643	0.559245	-2.157849	-0.503580	1.388660	0.900340	-0.680479	-0.226135	0.687925	-1.000000	-1.000000	-1.000000	-1.000000	-1.000000	-1.000000	-1.000000	65.000000	0.000000	-1.000000	-1.000000	606052.000000	1776577611.306198
-17572.860000	-35517.645000	10202.670000	42403.410000	-12973.095000	-12374.505000	-40614.840000	15709.185000	-2.886756	1.871501	3.259475	6.221680	3.971653	-18.543823	0.343729	-1.981792	-0.503580	1.388660	0.900340	-0.680479	-0.226135	0.687925	-1.000000	-1.000000	-1.000000	-1.000000	-1.000000	-1.000000	-1.000000	65.000000	0.000000	-1.000000	-1.000000	606053.000000	1776577611.306208
-17579.880000	-35527.635000	10207.170000	42425.055000	-12934.890000	-12343.005000	-40607.100000	15706.575000	-1.937337	0.887217	3.494606	6.048118	5.512614	16.613436	0.643954	-0.287764	-0.503580	1.388660	0.900340	-0.680479	-0.226135	0.687925	-1.000000	-1.000000	-1.000000	-1.000000	-1.000000	-1.000000	-1.000000	65.000000	0.000000	-1.000000	-1.000000	606054.000000	1776577611.306220
-17576.910000	-35504.280000	10237.365000	42436.575000	-12913.740000	-12321.000000	-40605.480000	15703.875000	-0.073327	0.011135	4.037863	6.483678	8.925417	42.934114	1.722006	1.503161	-0.503580	1.388660	0.900340	-0.680479	-0.226135	0.687925	-1.000000	-1.000000	-1.000000	-1.000000	-1.000000	-1.000000	-1.000000	65.000000	0.000000	-1.000000	-1.000000	606055.000000	1776577611.306224
-17558.010000	-35479.080000	10255.860000	42425.595000	-12956.670000	-12365.505000	-40611.195000	15714.900000	1.622295	0.914221	6.199460	6.664005	11.275366	47.544835	2.540861	2.301415	-0.503580	1.388660	0.900340	-0.680479	-0.226135	0.687925	-1.000000	-1.000000	-1.000000	-1.000000	-1.000000	-1.000000	-1.000000	65.000000	0.000000	-1.000000	-1.000000	606056.000000	1776577611.308522
-17568.540000	-35500.005000	10233.180000	42408.000000	-12983.715000	-12406.095000	-40617.945000	15714.180000	3.307652	4.025466	8.563197	3.869776	6.548838	28.178439	1.687729	2.394166	-0.503580	1.388660	0.900340	-0.680479	-0.226135	0.687925	-1.000000	-1.000000	-1.000000	-1.000000	-1.000000	-1.000000	-1.000000	65.000000	0.000000	-1.000000	-1.000000	606057.000000	1776577611.308528
-17571.555000	-35505.765000	10222.470000	42429.195000	-12963.420000	-12501.675000	-40619.250000	15716.655000	4.078748	5.676163	6.596778	-2.609506	-6.039528	-7.364836	-1.011739	2.226585	3.540320	-0.350980	0.167860	-0.682738	-0.228759	0.687437	-1.000000	-1.000000	-1.000000	-1.000000	-1.000000	-1.000000	-1.000000	65.000000	0.000000	-1.000000	-1.000000	606058.000000	1776577611.312499
-17580.240000	-35522.460000	10187.010000	42405.075000	-12994.065000	-12460.185000	-40614.525000	15710.220000	2.396650	2.216872	-2.057231	-9.169746	-18.179849	-42.131938	-3.781697	1.451354	3.540320	-0.350980	0.167860	-0.682738	-0.228759	0.687437	-1.000000	-1.000000	-1.000000	-1.000000	-1.000000	-1.000000	-1.000000	65.000000	0.000000	-1.000000	-1.000000	606059.000000	1776577611.312592
-17593.380000	-35530.875000	10197.630000	42414.120000	-12950.595000	-12349.530000	-40609.845000	15695.595000	-1.546521	-5.061879	-13.537721	-12.035049	-21.056465	-53.765325	-4.335967	-0.548631	3.540320	-0.350980	0.167860	-0.682738	-0.228759	0.687437	-1.000000	-1.000000	-1.000000	-1.000000	-1.000000	-1.000000	-1.000000	65.000000	0.000000	-1.000000	-1.000000	606060.000000	1776577611.316457
-17577.450000	-35495.010000	10258.425000	42428.520000	-12952.980000	-12397.680000	-40630.770000	15706.035000	-5.399268	-10.582538	-18.852327	-9.921953	-12.330325	-30.939512	-2.464648	-3.404957	3.540320	-0.350980	0.167860	-0.682738	-0.228759	0.687437	-1.000000	-1.000000	-1.000000	-1.000000	-1.000000	-1.000000	-1.000000	65.000000	0.000000	-1.000000	-1.000000	606061.000000	1776577611.316468
-17571.780000	-35494.830000	10244.520000	42393.420000	-13016.205000	-12415.770000	-40632.435000	15712.605000	-5.914353	-8.886005	-11.333253	-4.023863	1.771480	9.255094	-0.456967	-4.918167	3.540320	-0.350980	0.167860	-0.682738	-0.228759	0.687437	-1.000000	-1.000000	-1.000000	-1.000000	-1.000000	-1.000000	-1.000000	65.000000	0.000000	-1.000000	-1.000000	606062.000000	1776577611.320402
-17569.620000	-35504.730000	10223.955000	42388.110000	-13017.780000	-12402.270000	-40629.645000	15716.610000	-2.014098	-0.729732	3.797341	1.435020	10.017222	36.895896	0.178357	-3.123705	3.540320	-0.350980	0.167860	-0.682738	-0.228759	0.687437	-1.000000	-1.000000	-1.000000	-1.000000	-1.000000	-1.000000	-1.000000	65.000000	0.000000	-1.000000	-1.000000	606063.000000	1776577611.320424
-17581.995000	-35515.530000	10218.960000	42391.710000	-13002.030000	-12373.290000	-40621.545000	15709.680000	3.291583	6.816668	13.693992	3.329126	8.615548	39.558260	0.619406	0.859617	3.540320	-0.350980	0.167860	-0.682738	-0.228759	0.687437	-1.000000	-1.000000	-1.000000	-1.000000	-1.000000	-1.000000	-1.000000	65.000000	0.000000	-1.000000	-1.000000	606064.000000	1776577611.324679
-17581.185000	-35518.140000	10218.060000	42405.210000	-12971.835000	-12370.230000	-40616.595000	15712.470000	5.755667	8.130082	12.253228	3.479248	4.961917	25.299902	2.349498	3.874267	3.540320	-0.350980	0.167860	-0.682738	-0.228759	0.687437	-1.000000	-1.000000	-1.000000	-1.000000	-1.000000	-1.000000	-1.000000	65.000000	0.000000	-1.000000	-1.000000	606065.000000	1776577611.324702
-17580.195000	-35521.200000	10215.900000	42399.540000	-12975.390000	-12359.655000	-40616.730000	15716.250000	4.162984	3.866556	3.810571	4.812147	6.094953	6.704655	4.796703	4.173622	3.540320	-0.350980	0.167860	-0.682738	-0.228759	0.687437	-1.000000	-1.000000	-1.000000	-1.000000	-1.000000	-1.000000	-1.000000	65.000000	0.000000	-1.000000	-1.000000	606066.000000	1776577611.328634
-17586.720000	-35525.295000	10212.750000	42387.030000	-13000.005000	-12332.520000	-40611.240000	15710.625000	0.610169	-1.585762	-4.204676	6.668644	9.850689	-7.980344	6.001205	2.403264	3.540320	-0.350980	0.167860	-0.682738	-0.228759	0.687437	-1.000000	-1.000000	-1.000000	-1.000000	-1.000000	-1.000000	-1.000000	65.000000	0.000000	-1.000000	-1.000000	606067.000000	1776577611.328651
-17591.265000	-35524.170000	10220.760000	42403.500000	-12981.150000	-12328.560000	-40606.920000	15705.945000	-2.509585	-4.534228	-7.297025	6.534481	9.615911	-15.156463	4.846806	-0.197096	3.586100	-0.595140	-0.106820	-0.682982	-0.227172	0.688780	-1.000000	-1.000000	-1.000000	-1.000000	-1.000000	-1.000000	-1.000000	65.000000	0.000000	-1.000000	-1.000000	606068.000000	1776577611.332494
-17583.615000	-35518.455000	10226.880000	42424.560000	-12966.615000	-12363.840000	-40614.390000	15712.155000	-3.881938	-3.760004	-4.911755	4.666422	4.239975	-16.380862	1.736821	-2.544792	3.586100	-0.595140	-0.106820	-0.682982	-0.227172	0.688780	-1.000000	-1.000000	-1.000000	-1.000000	-1.000000	-1.000000	-1.000000	65.000000	0.000000	-1.000000	-1.000000	606069.000000	1776577611.332505
-17575.965000	-35512.155000	10217.070000	42420.510000	-12969.405000	-12417.615000	-40615.470000	15718.860000	-2.765442	-0.132714	0.362158	3.222471	-1.874986	-17.366724	-2.344085	-3.277554	3.586100	-0.595140	-0.106820	-0.682982	-0.227172	0.688780	-1.000000	-1.000000	-1.000000	-1.000000	-1.000000	-1.000000	-1.000000	65.000000	0.000000	-1.000000	-1.000000	606070.000000	1776577611.336585
-17594.820000	-35524.665000	10210.680000	42429.150000	-12935.295000	-12339.720000	-40594.320000	15708.870000	0.103724	3.878759	4.319289	2.177874	-5.206930	-19.638512	-5.619759	-1.931565	3.586100	-0.595140	-0.106820	-0.682982	-0.227172	0.688780	-1.000000	-1.000000	-1.000000	-1.000000	-1.000000	-1.000000	-1.000000	65.000000	0.000000	-1.000000	-1.000000	606071.000000	1776577611.336595
-17588.925000	-35516.655000	10240.560000	42456.960000	-12906.405000	-12289.995000	-40597.245000	15717.420000	2.195948	5.477003	4.916484	0.528157	-4.466282	-15.091515	-5.887597	0.139173	3.586100	-0.595140	-0.106820	-0.682982	-0.227172	0.688780	-1.000000	-1.000000	-1.000000	-1.000000	-1.000000	-1.000000	-1.000000	65.000000	0.000000	-1.000000	-1.000000	606072.000000	1776577611.340899
-17570.880000	-35494.290000	10250.595000	42430.545000	-12978.180000	-12379.455000	-40634.280000	15727.860000	2.447172	4.388483	4.216414	-1.622087	-1.931032	0.125986	-3.912607	1.728914	3.586100	-0.595140	-0.106820	-0.682982	-0.227172	0.688780	-1.000000	-1.000000	-1.000000	-1.000000	-1.000000	-1.000000	-1.000000	65.000000	0.000000	-1.000000	-1.000000	606073.000000	1776577611.340930
-17574.705000	-35499.825000	10224.045000	42381.945000	-13032.675000	-12399.570000	-40637.790000	15723.180000	2.377130	2.768388	3.764629	-5.662323	-4.801866	13.614504	-3.412714	2.759629	3.586100	-0.595140	-0.106820	-0.682982	-0.227172	0.688780	-1.000000	-1.000000	-1.000000	-1.000000	-1.000000	-1.000000	-1.000000	65.000000	0.000000	-1.000000	-1.000000	606074.000000	1776577611.344632
-17588.160000	-35510.445000	10217.295000	42380.235000	-13017.195000	-12400.920000	-40628.160000	15714.720000	2.322930	1.175712	1.372596	-12.971936	-15.453193	13.341317	-4.949550	2.631245	3.586100	-0.595140	-0.106820	-0.682982	-0.227172	0.688780	-1.000000	-1.000000	-1.000000	-1.000000	-1.000000	-1.000000	-1.000000	65.000000	0.000000	-1.000000	-1.000000	606075.000000	1776577611.344650
-17609.040000	-35523.450000	10213.830000	42385.635000	-13016.160000	-12422.205000	-40624.020000	15703.380000	0.350839	-1.949006	-4.067173	-19.088827	-23.827422	3.428038	-4.575790	0.350813	3.586100	-0.595140	-0.106820	-0.682982	-0.227172	0.688780	-1.000000	-1.000000	-1.000000	-1.000000	-1.000000	-1.000000	-1.000000	65.000000	0.000000	-1.000000	-1.000000	606076.000000	1776577611.348459
-17642.700000	-35537.220000	10210.275000	42387.570000	-13008.510000	-12366.315000	-40625.685000	15686.460000	-4.639449	-6.784353	-9.308406	-16.772992	-18.765379	-4.011241	-0.026178	-3.712845	3.586100	-0.595140	-0.106820	-0.682982	-0.227172	0.688780	-1.000000	-1.000000	-1.000000	-1.000000	-1.000000	-1.000000	-1.000000	65.000000	0.000000	-1.000000	-1.000000	606077.000000	1776577611.348472
-17663.490000	-35539.245000	10213.470000	42397.200000	-12984.705000	-12308.670000	-40619.070000	15680.070000	-10.930429	-10.852144	-10.380625	-4.748723	-0.605234	-0.102527	6.307595	-7.554361	-2.319520	0.091560	1.693860	-0.679503	-0.220580	0.689879	-1.000000	-1.000000	-1.000000	-1.000000	-1.000000	-1.000000	-1.000000	65.000000	0.000000	-1.000000	-1.000000	606078.000000	1776577611.352561
-17630.865000	-35523.585000	10224.135000	42409.890000	-12970.485000	-12322.485000	-40613.580000	15691.320000	-13.687837	-10.640704	-6.095315	11.121539	20.989224	13.985958	10.665951	-8.316765	-2.319520	0.091560	1.693860	-0.679503	-0.220580	0.689879	-1.000000	-1.000000	-1.000000	-1.000000	-1.000000	-1.000000	-1.000000	65.000000	0.000000	-1.000000	-1.000000	606079.000000	1776577611.352575
-17587.620000	-35504.865000	10231.110000	42414.075000	-12971.925000	-12379.770000	-40614.300000	15706.935000	-7.057422	-4.194284	1.687583	23.032088	34.759501	24.527134	11.011093	-3.842004	-2.319520	0.091560	1.693860	-0.679503	-0.220580	0.689879	-1.000000	-1.000000	-1.000000	-1.000000	-1.000000	-1.000000	-1.000000	65.000000	0.000000	-1.000000	-1.000000	606080.000000	1776577611.356550
-17566.965000	-35516.025000	10219.275000	42406.965000	-12977.190000	-12377.880000	-40622.130000	15710.265000	9.286878	6.081995	8.868430	25.507519	33.636359	17.854846	7.195293	4.800885	-2.319520	0.091560	1.693860	-0.679503	-0.220580	0.689879	-1.000000	-1.000000	-1.000000	-1.000000	-1.000000	-1.000000	-1.000000	65.000000	0.000000	-1.000000	-1.000000	606081.000000	1776577611.356568
-17566.110000	-35527.050000	10209.735000	42396.435000	-12996.765000	-12379.545000	-40624.290000	15709.995000	26.131747	13.589270	11.038249	17.463837	18.139342	-3.269648	0.572786	12.738003	-2.319520	0.091560	1.693860	-0.679503	-0.220580	0.689879	-1.000000	-1.000000	-1.000000	-1.000000	-1.000000	-1.000000	-1.000000	65.000000	0.000000	-1.000000	-1.000000	606082.000000	1776577611.360668
-17578.170000	-35517.105000	10225.170000	42405.795000	-12991.455000	-12366.675000	-40619.520000	15706.755000	31.067648	13.304915	7.225486	3.022027	-4.008384	-22.845901	-5.978948	14.794450	-2.319520	0.091560	1.693860	-0.679503	-0.220580	0.689879	-1.000000	-1.000000	-1.000000	-1.000000	-1.000000	-1.000000	-1.000000	65.000000	0.000000	-1.000000	-1.000000	606083.000000	1776577611.360686
-17580.915000	-35511.660000	10222.515000	42415.830000	-12981.645000	-12354.075000	-40622.220000	15708.375000	19.233417	6.816724	1.135265	-10.134692	-21.784122	-27.942365	-9.345341	9.702896	-2.319520	0.091560	1.693860	-0.679503	-0.220580	0.689879	-1.000000	-1.000000	-1.000000	-1.000000	-1.000000	-1.000000	-1.000000	65.000000	0.000000	-1.000000	-1.000000	606084.000000	1776577611.364583
-17595.540000	-35521.650000	10207.035000	42412.500000	-12988.125000	-12338.550000	-40623.615000	15704.235000	-2.981953	-0.686843	-3.388717	-15.921588	-27.368342	-17.448344	-8.503541	0.638117	-2.319520	0.091560	1.693860	-0.679503	-0.220580	0.689879	-1.000000	-1.000000	-1.000000	-1.000000	-1.000000	-1.000000	-1.000000	65.000000	0.000000	-1.000000	-1.000000	606085.000000	1776577611.364599
-17613.450000	-35532.945000	10222.155000	42412.185000	-12984.615000	-12325.095000	-40620.825000	15699.465000	-23.885721	-6.151838	-5.470481	-14.032085	-20.982339	0.432920	-4.841105	-7.752167	-2.319520	0.091560	1.693860	-0.679503	-0.220580	0.689879	-1.000000	-1.000000	-1.000000	-1.000000	-1.000000	-1.000000	-1.000000	65.000000	0.000000	-1.000000	-1.000000	606086.000000	1776577611.368554
-17614.890000	-35523.585000	10241.145000	42410.520000	-12985.920000	-12339.765000	-40618.440000	15702.570000	-34.282684	-8.916518	-4.733253	-8.323132	-8.749965	14.868458	-0.400264	-12.155548	-2.319520	0.091560	1.693860	-0.679503	-0.220580	0.689879	-1.000000	-1.000000	-1.000000	-1.000000	-1.000000	-1.000000	-1.000000	65.000000	0.000000	-1.000000	-1.000000	606087.000000	1776577611.368573
-17624.205000	-35517.915000	10245.420000	42410.430000	-12989.115000	-12374.280000	-40622.085000	15700.050000	-30.903577	-8.241306	-0.833246	-2.626969	2.678880	17.831629	3.138539	-11.469503	-4.089680	2.105880	1.800680	-0.676451	-0.221252	0.688292	-1.000000	-1.000000	-1.000000	-1.000000	-1.000000	-1.000000	-1.000000	65.000000	0.000000	-1.000000	-1.000000	606088.000000	1776577611.372589
-17623.575000	-35525.295000	10238.580000	42414.030000	-12982.455000	-12436.920000	-40622.265000	15699.780000	-16.646542	-4.180938	3.818518	1.274211	9.358868	7.269229	4.604583	-6.857075	-4.089680	2.105880	1.800680	-0.676451	-0.221252	0.688292	-1.000000	-1.000000	-1.000000	-1.000000	-1.000000	-1.000000	-1.000000	65.000000	0.000000	-1.000000	-1.000000	606089.000000	1776577611.372607
-17623.215000	-35534.925000	10232.640000	42412.230000	-12983.130000	-12373.065000	-40623.120000	15700.545000	1.594803	0.658716	5.156550	3.307241	10.835721	-9.702807	3.845515	-0.920784	-4.089680	2.105880	1.800680	-0.676451	-0.221252	0.688292	-1.000000	-1.000000	-1.000000	-1.000000	-1.000000	-1.000000	-1.000000	65.000000	0.000000	-1.000000	-1.000000	606090.000000	1776577611.378065
-17649.360000	-35516.160000	10239.300000	42416.685000	-12981.645000	-12319.290000	-40618.980000	15698.610000	16.223086	3.558005	1.913864	3.965476	8.730869	-17.701935	1.911561	3.879600	-4.089680	2.105880	1.800680	-0.676451	-0.221252	0.688292	-1.000000	-1.000000	-1.000000	-1.000000	-1.000000	-1.000000	-1.000000	65.000000	0.000000	-1.000000	-1.000000	606091.000000	1776577611.378081
-17646.390000	-35495.370000	10247.985000	42425.055000	-12982.905000	-12328.605000	-40614.795000	15703.830000	21.942501	4.982049	-2.887848	3.872887	4.901533	-7.430030	0.285132	6.259918	-4.089680	2.105880	1.800680	-0.676451	-0.221252	0.688292	-1.000000	-1.000000	-1.000000	-1.000000	-1.000000	-1.000000	-1.000000	65.000000	0.000000	-1.000000	-1.000000	606092.000000	1776577611.380787
-17622.585000	-35512.155000	10241.145000	42416.190000	-12989.520000	-12386.655000	-40615.020000	15703.740000	19.247747	6.256200	-5.468267	3.420278	0.740830	10.805258	-0.253029	6.287016	-4.089680	2.105880	1.800680	-0.676451	-0.221252	0.688292	-1.000000	-1.000000	-1.000000	-1.000000	-1.000000	-1.000000	-1.000000	65.000000	0.000000	-1.000000	-1.000000	606093.000000	1776577611.380802
-17599.680000	-35525.115000	10228.230000	42398.055000	-13003.695000	-12406.320000	-40628.520000	15697.845000	13.851587	5.656027	-5.257768	1.867966	-3.059083	17.974712	-0.360799	4.599601	-4.089680	2.105880	1.800680	-0.676451	-0.221252	0.688292	-1.000000	-1.000000	-1.000000	-1.000000	-1.000000	-1.000000	-1.000000	65.000000	0.000000	-1.000000	-1.000000	606094.000000	1776577611.384687
-17576.730000	-35511.120000	10220.895000	42391.260000	-13007.340000	-12432.285000	-40631.490000	15702.930000	10.418525	1.399404	-4.234224	-1.615604	-6.066921	7.835941	-1.329306	1.852088	-4.089680	2.105880	1.800680	-0.676451	-0.221252	0.688292	-1.000000	-1.000000	-1.000000	-1.000000	-1.000000	-1.000000	-1.000000	65.000000	0.000000	-1.000000	-1.000000	606095.000000	1776577611.384702
-17572.455000	-35495.325000	10234.440000	42405.165000	-12992.445000	-12387.465000	-40624.875000	15709.860000	8.509119	-3.701721	-3.205608	-5.300207	-6.943370	-8.479980	-2.934115	-0.734200	-4.089680	2.105880	1.800680	-0.676451	-0.221252	0.688292	-1.000000	-1.000000	-1.000000	-1.000000	-1.000000	-1.000000	-1.000000	65.000000	0.000000	-1.000000	-1.000000	606096.000000	1776577611.388513
-17572.680000	-35500.230000	10232.100000	42396.345000	-13008.150000	-12386.565000	-40628.430000	15713.505000	4.558637	-5.425077	-0.957341	-5.823550	-4.396312	-15.402347	-3.348563	-1.785982	-4.089680	2.105880	1.800680	-0.676451	-0.221252	0.688292	-1.000000	-1.000000	-1.000000	-1.000000	-1.000000	-1.000000	-1.000000	65.000000	0.000000	-1.000000	-1.000000	606097.000000	1776577611.388530
-17576.145000	-35513.415000	10222.560000	42386.130000	-13021.740000	-12391.830000	-40632.975000	15710.850000	-3.512232	-3.878555	2.583595	-2.661229	-0.056645	-8.102297	-1.821246	-1.317834	3.143560	1.648080	1.434440	-0.678465	-0.229308	0.688597	-1.000000	-1.000000	-1.000000	-1.000000	-1.000000	-1.000000	-1.000000	65.000000	0.000000	-1.000000	-1.000000	606098.000000	1776577611.392746
-17603.910000	-35523.495000	10215.855000	42385.095000	-13018.860000	-12396.690000	-40629.015000	15709.050000	-14.081671	-2.532186	5.103582	1.304653	2.814934	5.013066	0.511460	-0.728185	3.143560	1.648080	1.434440	-0.678465	-0.229308	0.688597	-1.000000	-1.000000	-1.000000	-1.000000	-1.000000	-1.000000	-1.000000	65.000000	0.000000	-1.000000	-1.000000	606099.000000	1776577611.392761
-17613.810000	-35517.015000	10224.045000	42393.060000	-13017.645000	-12433.320000	-40625.910000	15710.445000	-23.275046	-2.993887	5.036299	3.880758	3.497909	12.626444	2.503161	-1.049218	3.143560	1.648080	1.434440	-0.678465	-0.229308	0.688597	-1.000000	-1.000000	-1.000000	-1.000000	-1.000000	-1.000000	-1.000000	65.000000	0.000000	-1.000000	-1.000000	606100.000000	1776577611.396471
-17595.495000	-35519.940000	10230.120000	42398.460000	-13018.500000	-12460.590000	-40629.195000	15713.550000	-26.245700	-3.444396	3.611995	5.261846	3.510457	9.349797	3.662882	-1.860229	3.143560	1.648080	1.434440	-0.678465	-0.229308	0.688597	-1.000000	-1.000000	-1.000000	-1.000000	-1.000000	-1.000000	-1.000000	65.000000	0.000000	-1.000000	-1.000000	606101.000000	1776577611.396480
-17574.255000	-35543.115000	10230.885000	42399.900000	-13017.915000	-12458.970000	-40632.885000	15717.195000	-18.927601	-2.323226	2.708166	5.986475	3.675214	-1.542042	3.482180	-2.038619	3.143560	1.648080	1.434440	-0.678465	-0.229308	0.688597	-1.000000	-1.000000	-1.000000	-1.000000	-1.000000	-1.000000	-1.000000	65.000000	0.000000	-1.000000	-1.000000	606102.000000	1776577611.400532
-17571.015000	-35510.940000	10235.430000	42404.355000	-13009.995000	-12410.055000	-40627.620000	15716.025000	-2.585063	-0.042891	2.480773	5.617149	3.746702	-9.855515	1.890923	-1.147449	3.143560	1.648080	1.434440	-0.678465	-0.229308	0.688597	-1.000000	-1.000000	-1.000000	-1.000000	-1.000000	-1.000000	-1.000000	65.000000	0.000000	-1.000000	-1.000000	606103.000000	1776577611.400537
-17584.335000	-35502.210000	10230.075000	42399.135000	-13008.645000	-12322.080000	-40622.130000	15709.545000	14.439967	3.559671	1.854514	3.539098	3.433250	-5.468057	0.009223	0.028329	3.143560	1.648080	1.434440	-0.678465	-0.229308	0.688597	-1.000000	-1.000000	-1.000000	-1.000000	-1.000000	-1.000000	-1.000000	65.000000	0.000000	-1.000000	-1.000000	606104.000000	1776577611.407323
-17586.270000	-35502.165000	10232.370000	42398.955000	-13007.655000	-12332.970000	-40621.095000	15710.310000	22.607762	8.207083	0.073592	-0.110242	2.458982	11.484440	-0.866431	0.395378	3.143560	1.648080	1.434440	-0.678465	-0.229308	0.688597	-1.000000	-1.000000	-1.000000	-1.000000	-1.000000	-1.000000	-1.000000	65.000000	0.000000	-1.000000	-1.000000	606105.000000	1776577611.407342
-17589.555000	-35506.890000	10233.135000	42399.270000	-13002.210000	-12366.990000	-40617.945000	15711.210000	18.957121	10.708559	-2.393301	-4.118899	0.647281	26.237709	-0.673631	-0.051169	3.143560	1.648080	1.434440	-0.678465	-0.229308	0.688597	-1.000000	-1.000000	-1.000000	-1.000000	-1.000000	-1.000000	-1.000000	65.000000	0.000000	-1.000000	-1.000000	606106.000000	1776577611.408699
-17593.380000	-35507.205000	10229.850000	42391.935000	-13004.055000	-12340.080000	-40615.245000	15705.810000	8.095605	8.091685	-4.279083	-6.818713	-1.596833	23.039458	-0.228633	-0.463350	3.143560	1.648080	1.434440	-0.678465	-0.229308	0.688597	-1.000000	-1.000000	-1.000000	-1.000000	-1.000000	-1.000000	-1.000000	65.000000	0.000000	-1.000000	-1.000000	606107.000000	1776577611.408707
-17602.740000	-35510.355000	10228.455000	42388.200000	-13010.175000	-12340.620000	-40617.045000	15698.250000	-3.057942	1.230478	-4.814829	-7.397058	-3.722053	3.059367	-0.213958	-0.556191	14.252840	-1.434440	-2.197440	-0.682371	-0.235900	0.686949	-1.000000	-1.000000	-1.000000	-1.000000	-1.000000	-1.000000	-1.000000	65.000000	0.000000	-1.000000	-1.000000	606108.000000	1776577611.412728
-17611.695000	-35518.230000	10230.435000	42396.165000	-13012.245000	-12356.280000	-40625.010000	15699.060000	-9.954295	-6.253990	-3.985859	-5.857649	-5.435400	-19.542082	-1.011508	-0.597953	14.252840	-1.434440	-2.197440	-0.682371	-0.235900	0.686949	-1.000000	-1.000000	-1.000000	-1.000000	-1.000000	-1.000000	-1.000000	65.000000	0.000000	-1.000000	-1.000000	606109.000000	1776577611.412736
-17607.870000	-35515.080000	10239.705000	42411.420000	-12991.545000	-12360.150000	-40631.220000	15704.640000	-11.226404	-10.892715	-1.908236	-2.125151	-5.804019	-33.051527	-2.650733	-0.280137	14.252840	-1.434440	-2.197440	-0.682371	-0.235900	0.686949	-1.000000	-1.000000	-1.000000	-1.000000	-1.000000	-1.000000	-1.000000	65.000000	0.000000	-1.000000	-1.000000	606110.000000	1776577611.416684
-17605.845000	-35518.410000	10233.945000	42401.610000	-13006.035000	-12363.795000	-40631.670000	15707.070000	-7.469726	-10.914870	0.953802	2.993129	-3.749462	-33.449310	-4.314639	1.038166	14.252840	-1.434440	-2.197440	-0.682371	-0.235900	0.686949	-1.000000	-1.000000	-1.000000	-1.000000	-1.000000	-1.000000	-1.000000	65.000000	0.000000	-1.000000	-1.000000	606111.000000	1776577611.416693
-17606.835000	-35511.705000	10239.210000	42405.255000	-13003.245000	-12361.680000	-40628.970000	15709.140000	-0.807160	-6.690925	3.294343	6.765383	-0.371783	-22.469322	-4.474913	3.020833	14.252840	-1.434440	-2.197440	-0.682371	-0.235900	0.686949	-1.000000	-1.000000	-1.000000	-1.000000	-1.000000	-1.000000	-1.000000	65.000000	0.000000	-1.000000	-1.000000	606112.000000	1776577611.420507
-17598.510000	-35498.610000	10251.135000	42420.060000	-12983.670000	-12331.170000	-40628.430000	15711.210000	5.599309	-0.118992	4.167884	7.135702	2.325485	-5.009463	-2.247114	4.353825	14.252840	-1.434440	-2.197440	-0.682371	-0.235900	0.686949	-1.000000	-1.000000	-1.000000	-1.000000	-1.000000	-1.000000	-1.000000	65.000000	0.000000	-1.000000	-1.000000	606113.000000	1776577611.420519
-17593.380000	-35496.765000	10256.760000	42429.195000	-12965.085000	-12287.025000	-40624.515000	15711.795000	9.313793	6.370145	4.001617	5.130142	4.446118	13.815273	1.567663	4.002104	14.252840	-1.434440	-2.197440	-0.682371	-0.235900	0.686949	-1.000000	-1.000000	-1.000000	-1.000000	-1.000000	-1.000000	-1.000000	65.000000	0.000000	-1.000000	-1.000000	606114.000000	1776577611.424529
-17595.810000	-35504.640000	10250.955000	42413.850000	-12996.315000	-12299.625000	-40622.400000	15710.265000	9.425563	9.948694	3.138892	2.368496	5.909329	28.561465	5.100920	1.937186	14.252840	-1.434440	-2.197440	-0.682371	-0.235900	0.686949	-1.000000	-1.000000	-1.000000	-1.000000	-1.000000	-1.000000	-1.000000	65.000000	0.000000	-1.000000	-1.000000	606115.000000	1776577611.424537
-17611.335000	-35518.275000	10242.270000	42407.685000	-12995.055000	-12342.240000	-40611.645000	15701.760000	5.818322	8.322277	0.870830	-1.350167	4.197617	31.659299	6.880726	-1.154071	14.252840	-1.434440	-2.197440	-0.682371	-0.235900	0.686949	-1.000000	-1.000000	-1.000000	-1.000000	-1.000000	-1.000000	-1.000000	65.000000	0.000000	-1.000000	-1.000000	606116.000000	1776577611.428599
-17619.255000	-35524.170000	10233.225000	42403.095000	-13003.740000	-12424.230000	-40613.085000	15693.525000	-0.746489	1.913190	-3.076738	-5.970733	-1.443902	17.331065	6.501588	-4.393314	14.252840	-1.434440	-2.197440	-0.682371	-0.235900	0.686949	-1.000000	-1.000000	-1.000000	-1.000000	-1.000000	-1.000000	-1.000000	65.000000	0.000000	-1.000000	-1.000000	606117.000000	1776577611.428604
-17611.020000	-35520.120000	10229.310000	42395.535000	-13030.740000	-12421.845000	-40629.600000	15692.445000	-7.455439	-5.435833	-7.179042	-9.467336	-7.938799	-9.779937	3.819944	-6.667057	15.977220	1.953280	-2.701020	-0.677794	-0.233947	0.689512	-1.000000	-1.000000	-1.000000	-1.000000	-1.000000	-1.000000	-1.000000	65.000000	0.000000	-1.000000	-1.000000	606118.000000	1776577611.432733
-17595.900000	-35505.090000	10260.495000	42465.825000	-12940.065000	-12367.440000	-40620.015000	15704.910000	-10.046886	-8.745424	-8.324241	-8.406061	-10.255742	-31.854523	-0.911086	-6.419932	15.977220	1.953280	-2.701020	-0.677794	-0.233947	0.689512	-1.000000	-1.000000	-1.000000	-1.000000	-1.000000	-1.000000	-1.000000	65.000000	0.000000	-1.000000	-1.000000	606119.000000	1776577611.432744
-17581.140000	-35490.510000	10275.480000	42473.070000	-12940.740000	-12351.735000	-40605.615000	15721.560000	-6.228597	-5.541034	-3.824353	-0.179411	-3.596617	-30.897987	-5.242188	-2.481990	15.977220	1.953280	-2.701020	-0.677794	-0.233947	0.689512	-1.000000	-1.000000	-1.000000	-1.000000	-1.000000	-1.000000	-1.000000	65.000000	0.000000	-1.000000	-1.000000	606120.000000	1776577611.436738
-17582.040000	-35493.930000	10249.245000	42400.080000	-13028.220000	-12396.915000	-40626.855000	15720.300000	1.618685	1.907214	4.326299	10.192470	7.776384	-8.147043	-6.379660	4.001016	15.977220	1.953280	-2.701020	-0.677794	-0.233947	0.689512	-1.000000	-1.000000	-1.000000	-1.000000	-1.000000	-1.000000	-1.000000	65.000000	0.000000	-1.000000	-1.000000	606121.000000	1776577611.436790
-17587.665000	-35500.680000	10237.320000	42373.665000	-13066.560000	-12396.870000	-40631.535000	15717.375000	7.804351	7.880387	9.118379	10.851345	9.837339	16.727442	-5.063193	9.056520	15.977220	1.953280	-2.701020	-0.677794	-0.233947	0.689512	-1.000000	-1.000000	-1.000000	-1.000000	-1.000000	-1.000000	-1.000000	65.000000	0.000000	-1.000000	-1.000000	606122.000000	1776577611.440743
-17593.065000	-35502.570000	10236.645000	42367.365000	-13077.450000	-12384.855000	-40640.400000	15712.380000	7.915743	7.936998	6.197095	-1.538126	-2.563200	27.368844	-3.786993	8.934874	15.977220	1.953280	-2.701020	-0.677794	-0.233947	0.689512	-1.000000	-1.000000	-1.000000	-1.000000	-1.000000	-1.000000	-1.000000	65.000000	0.000000	-1.000000	-1.000000	606123.000000	1776577611.440756
-17599.005000	-35508.870000	10234.305000	42373.935000	-13054.815000	-12322.305000	-40637.430000	15709.770000	2.235577	2.503275	-1.177183	-15.701806	-16.966445	24.216253	-2.970761	3.572737	15.977220	1.953280	-2.701020	-0.677794	-0.233947	0.689512	-1.000000	-1.000000	-1.000000	-1.000000	-1.000000	-1.000000	-1.000000	65.000000	0.000000	-1.000000	-1.000000	606124.000000	1776577611.444614
-17597.925000	-35507.565000	10238.985000	42388.335000	-13025.295000	-12293.595000	-40630.320000	15712.560000	-5.059541	-4.334443	-6.608738	-18.525431	-17.666150	17.268043	-1.213043	-3.498307	15.977220	1.953280	-2.701020	-0.677794	-0.233947	0.689512	-1.000000	-1.000000	-1.000000	-1.000000	-1.000000	-1.000000	-1.000000	65.000000	0.000000	-1.000000	-1.000000	606125.000000	1776577611.444623
-17600.805000	-35507.340000	10242.945000	42397.920000	-13013.595000	-12398.580000	-40630.275000	15709.680000	-9.354788	-8.340910	-6.527380	-7.173833	-1.537682	10.124322	2.253997	-8.113357	15.977220	1.953280	-2.701020	-0.677794	-0.233947	0.689512	-1.000000	-1.000000	-1.000000	-1.000000	-1.000000	-1.000000	-1.000000	65.000000	0.000000	-1.000000	-1.000000	606126.000000	1776577611.448790
-17603.775000	-35507.025000	10246.005000	42404.715000	-13006.305000	-12360.555000	-40625.415000	15707.745000	-8.675508	-7.680624	-1.780429	10.543406	20.225139	-2.512489	6.152941	-8.412679	15.977220	1.953280	-2.701020	-0.677794	-0.233947	0.689512	-1.000000	-1.000000	-1.000000	-1.000000	-1.000000	-1.000000	-1.000000	65.000000	0.000000	-1.000000	-1.000000	606127.000000	1776577611.448803
-17605.440000	-35503.965000	10251.360000	42410.790000	-13008.735000	-12382.560000	-40622.490000	15706.710000	-4.281690	-3.434642	4.099037	23.565346	32.640188	-19.519047	8.292018	-5.344256	15.412600	0.442540	-2.319520	-0.676207	-0.225341	0.694151	-1.000000	-1.000000	-1.000000	-1.000000	-1.000000	-1.000000	-1.000000	65.000000	0.000000	-1.000000	-1.000000	606128.000000	1776577611.452746
-17609.940000	-35506.170000	10250.280000	42404.985000	-13018.410000	-12422.880000	-40633.245000	15699.960000	1.040620	1.722697	7.655118	25.100754	28.180781	-31.102855	7.277178	-1.157193	15.412600	0.442540	-2.319520	-0.676207	-0.225341	0.694151	-1.000000	-1.000000	-1.000000	-1.000000	-1.000000	-1.000000	-1.000000	65.000000	0.000000	-1.000000	-1.000000	606129.000000	1776577611.452762
-17605.845000	-35500.365000	10257.435000	42412.860000	-13004.820000	-12383.505000	-40633.155000	15702.300000	4.980915	5.329532	7.382647	15.519369	10.435269	-30.896586	3.096763	2.168106	15.412600	0.442540	-2.319520	-0.676207	-0.225341	0.694151	-1.000000	-1.000000	-1.000000	-1.000000	-1.000000	-1.000000	-1.000000	65.000000	0.000000	-1.000000	-1.000000	606130.000000	1776577611.456942
-17614.530000	-35499.780000	10260.000000	42415.650000	-13005.990000	-12400.065000	-40635.630000	15702.885000	6.559678	6.348666	4.123165	0.886352	-9.788927	-18.422906	-2.454473	3.925305	15.412600	0.442540	-2.319520	-0.676207	-0.225341	0.694151	-1.000000	-1.000000	-1.000000	-1.000000	-1.000000	-1.000000	-1.000000	65.000000	0.000000	-1.000000	-1.000000	606131.000000	1776577611.456971
-17665.920000	-35514.630000	10253.295000	42411.780000	-13011.975000	-12412.080000	-40636.035000	15692.400000	4.869155	4.816459	-0.222273	-11.557267	-22.748691	0.939063	-6.553277	4.263630	15.412600	0.442540	-2.319520	-0.676207	-0.225341	0.694151	-1.000000	-1.000000	-1.000000	-1.000000	-1.000000	-1.000000	-1.000000	65.000000	0.000000	-1.000000	-1.000000	606132.000000	1776577611.460593
-17679.330000	-35534.700000	10236.960000	42398.370000	-13020.840000	-12383.415000	-40632.750000	15688.710000	-0.965319	0.818753	-4.516160	-17.958853	-25.417846	17.774944	-7.334994	3.183841	15.412600	0.442540	-2.319520	-0.676207	-0.225341	0.694151	-1.000000	-1.000000	-1.000000	-1.000000	-1.000000	-1.000000	-1.000000	65.000000	0.000000	-1.000000	-1.000000	606133.000000	1776577611.460602
-17646.120000	-35541.135000	10229.940000	42394.185000	-13024.305000	-12360.870000	-40627.395000	15696.855000	-7.443854	-4.685490	-8.259437	-18.407603	-20.190270	26.772276	-4.768912	1.248547	15.412600	0.442540	-2.319520	-0.676207	-0.225341	0.694151	-1.000000	-1.000000	-1.000000	-1.000000	-1.000000	-1.000000	-1.000000	65.000000	0.000000	-1.000000	-1.000000	606134.000000	1776577611.464734
-17595.810000	-35521.065000	10231.965000	42393.555000	-13027.185000	-12373.470000	-40627.125000	15709.005000	-6.459948	-8.335475	-10.081854	-14.365085	-10.965064	27.580694	-0.393704	0.241309	15.412600	0.442540	-2.319520	-0.676207	-0.225341	0.694151	-1.000000	-1.000000	-1.000000	-1.000000	-1.000000	-1.000000	-1.000000	65.000000	0.000000	-1.000000	-1.000000	606135.000000	1776577611.464762
-17570.520000	-35503.875000	10239.525000	42389.910000	-13031.775000	-12381.030000	-40630.905000	15717.465000	5.513108	-6.098689	-8.000962	-7.291324	-1.151805	20.083663	3.344992	1.420073	15.412600	0.442540	-2.319520	-0.676207	-0.225341	0.694151	-1.000000	-1.000000	-1.000000	-1.000000	-1.000000	-1.000000	-1.000000	65.000000	0.000000	-1.000000	-1.000000	606136.000000	1776577611.468671
-17600.805000	-35508.915000	10242.495000	42392.160000	-13025.790000	-12366.765000	-40629.510000	15715.215000	20.193310	1.861389	-1.775761	0.861699	6.811849	6.001658	4.520361	3.618701	15.412600	0.442540	-2.319520	-0.676207	-0.225341	0.694151	-1.000000	-1.000000	-1.000000	-1.000000	-1.000000	-1.000000	-1.000000	65.000000	0.000000	-1.000000	-1.000000	606137.000000	1776577611.468679
-17630.865000	-35514.315000	10249.830000	42400.845000	-13016.790000	-12352.500000	-40627.665000	15708.285000	23.349571	9.730725	5.951642	7.930243	11.872083	-8.324651	3.134922	4.010402	2.975700	0.259420	-2.227960	-0.679259	-0.208129	0.696226	-1.000000	-1.000000	-1.000000	-1.000000	-1.000000	-1.000000	-1.000000	65.000000	0.000000	-1.000000	-1.000000	606138.000000	1776577611.472825
-17634.150000	-35513.640000	10256.040000	42408.405000	-13011.300000	-12355.110000	-40627.665000	15704.100000	9.297203	11.521063	11.475487	12.464622	13.994849	-16.315509	0.749911	0.939209	2.975700	0.259420	-2.227960	-0.679259	-0.208129	0.696226	-1.000000	-1.000000	-1.000000	-1.000000	-1.000000	-1.000000	-1.000000	65.000000	0.000000	-1.000000	-1.000000	606139.000000	1776577611.472834
-17616.780000	-35513.685000	10251.900000	42405.120000	-13022.820000	-12385.440000	-40631.085000	15703.335000	-12.333944	6.613954	12.343544	13.544959	12.855692	-17.251981	-1.212814	-4.201227	2.975700	0.259420	-2.227960	-0.679259	-0.208129	0.696226	-1.000000	-1.000000	-1.000000	-1.000000	-1.000000	-1.000000	-1.000000	65.000000	0.000000	-1.000000	-1.000000	606140.000000	1776577611.476838
-17618.220000	-35515.665000	10250.460000	42402.555000	-13034.565000	-12403.170000	-40634.820000	15697.620000	-26.115744	-1.039600	8.198222	10.534992	7.752023	-15.386746	-2.346796	-8.207592	2.975700	0.259420	-2.227960	-0.679259	-0.208129	0.696226	-1.000000	-1.000000	-1.000000	-1.000000	-1.000000	-1.000000	-1.000000	65.000000	0.000000	-1.000000	-1.000000	606141.000000	1776577611.476853
-17653.410000	-35512.695000	10268.145000	42421.995000	-13012.650000	-12357.315000	-40634.820000	15687.360000	-25.468622	-6.995317	1.271502	4.476168	0.046817	-12.619414	-2.745209	-9.000393	2.975700	0.259420	-2.227960	-0.679259	-0.208129	0.696226	-1.000000	-1.000000	-1.000000	-1.000000	-1.000000	-1.000000	-1.000000	65.000000	0.000000	-1.000000	-1.000000	606142.000000	1776577611.480721
-17670.510000	-35514.090000	10282.590000	42436.620000	-13008.060000	-12354.480000	-40626.810000	15684.255000	-15.850319	-8.885436	-4.245546	-1.230569	-5.886531	-5.947574	-2.196838	-6.780650	2.975700	0.259420	-2.227960	-0.679259	-0.208129	0.696226	-1.000000	-1.000000	-1.000000	-1.000000	-1.000000	-1.000000	-1.000000	65.000000	0.000000	-1.000000	-1.000000	606143.000000	1776577611.480735
-17638.245000	-35503.605000	10274.985000	42426.405000	-13020.030000	-12374.460000	-40628.970000	15694.110000	-4.662359	-6.758354	-5.814231	-4.050034	-7.148557	4.648698	-0.466950	-2.566980	2.975700	0.259420	-2.227960	-0.679259	-0.208129	0.696226	-1.000000	-1.000000	-1.000000	-1.000000	-1.000000	-1.000000	-1.000000	65.000000	0.000000	-1.000000	-1.000000	606144.000000	1776577611.484911
-17591.265000	-35494.515000	10260.855000	42407.370000	-13034.970000	-12390.705000	-40639.410000	15705.180000	6.952999	-2.080449	-5.207675	-5.387217	-5.735976	12.387483	1.499657	2.976720	2.975700	0.259420	-2.227960	-0.679259	-0.208129	0.696226	-1.000000	-1.000000	-1.000000	-1.000000	-1.000000	-1.000000	-1.000000	65.000000	0.000000	-1.000000	-1.000000	606145.000000	1776577611.484931
-17592.255000	-35489.070000	10270.260000	42405.930000	-13017.780000	-12365.640000	-40625.145000	15703.380000	19.384667	3.065682	-5.355872	-7.764233	-4.600465	12.339146	2.278628	8.510943	2.975700	0.259420	-2.227960	-0.679259	-0.208129	0.696226	-1.000000	-1.000000	-1.000000	-1.000000	-1.000000	-1.000000	-1.000000	65.000000	0.000000	-1.000000	-1.000000	606146.000000	1776577611.488814
-17633.970000	-35501.715000	10279.395000	42410.835000	-12998.070000	-12366.540000	-40620.285000	15695.145000	26.622203	6.067472	-5.853091	-10.237222	-3.040235	7.435784	2.133556	11.213466	2.975700	0.259420	-2.227960	-0.679259	-0.208129	0.696226	-1.000000	-1.000000	-1.000000	-1.000000	-1.000000	-1.000000	-1.000000	65.000000	0.000000	-1.000000	-1.000000	606147.000000	1776577611.488827
-17630.190000	-35510.355000	10272.105000	42410.745000	-13030.155000	-12397.320000	-40641.930000	15702.075000	20.822219	4.774998	-4.501318	-9.503022	0.233757	2.312691	1.762970	9.032680	-0.381500	3.784480	-3.158820	-0.670775	-0.203735	0.692015	-1.000000	-1.000000	-1.000000	-1.000000	-1.000000	-1.000000	-1.000000	65.000000	0.000000	-1.000000	-1.000000	606148.000000	1776577611.492795
-17598.780000	-35495.820000	10252.485000	42404.220000	-13028.400000	-12383.730000	-40644.630000	15709.095000	4.391779	-0.005158	-1.745303	-4.609651	2.754476	-2.076448	0.250571	3.430411	-0.381500	3.784480	-3.158820	-0.670775	-0.203735	0.692015	-1.000000	-1.000000	-1.000000	-1.000000	-1.000000	-1.000000	-1.000000	65.000000	0.000000	-1.000000	-1.000000	606149.000000	1776577611.492804
-17599.635000	-35480.790000	10270.485000	42417.180000	-13004.415000	-12332.655000	-40632.435000	15707.070000	-10.739004	-3.987895	0.271476	2.090794	2.527553	-4.158794	-2.342459	-2.033186	-0.381500	3.784480	-3.158820	-0.670775	-0.203735	0.692015	-1.000000	-1.000000	-1.000000	-1.000000	-1.000000	-1.000000	-1.000000	65.000000	0.000000	-1.000000	-1.000000	606150.000000	1776577611.497796
-17637.570000	-35509.140000	10256.040000	42403.365000	-13005.540000	-12328.380000	-40620.465000	15688.710000	-17.056369	-4.176487	1.368852	7.556977	1.804146	-0.734869	-3.285444	-5.567040	-0.381500	3.784480	-3.158820	-0.670775	-0.203735	0.692015	-1.000000	-1.000000	-1.000000	-1.000000	-1.000000	-1.000000	-1.000000	65.000000	0.000000	-1.000000	-1.000000	606151.000000	1776577611.497809
-17660.565000	-35557.065000	10214.775000	42374.520000	-13027.770000	-12371.445000	-40615.515000	15688.530000	-17.232245	-3.376215	1.593815	9.013057	1.979595	5.362302	-0.760152	-7.674882	-0.381500	3.784480	-3.158820	-0.670775	-0.203735	0.692015	-1.000000	-1.000000	-1.000000	-1.000000	-1.000000	-1.000000	-1.000000	65.000000	0.000000	-1.000000	-1.000000	606152.000000	1776577611.500895
-17630.640000	-35537.130000	10225.755000	42382.080000	-13023.810000	-12354.480000	-40622.580000	15701.850000	-15.100645	-5.333173	-0.125426	5.312079	1.089168	6.123297	3.235781	-8.116963	-0.381500	3.784480	-3.158820	-0.670775	-0.203735	0.692015	-1.000000	-1.000000	-1.000000	-1.000000	-1.000000	-1.000000	-1.000000	65.000000	0.000000	-1.000000	-1.000000	606153.000000	1776577611.500910
-17597.610000	-35496.945000	10251.405000	42395.535000	-13017.330000	-12337.065000	-40627.665000	15714.135000	-8.685880	-6.594589	-1.622416	-0.153356	-1.357252	0.067793	4.854127	-5.221303	-0.381500	3.784480	-3.158820	-0.670775	-0.203735	0.692015	-1.000000	-1.000000	-1.000000	-1.000000	-1.000000	-1.000000	-1.000000	65.000000	0.000000	-1.000000	-1.000000	606154.000000	1776577611.509467
-17597.475000	-35501.580000	10246.230000	42389.820000	-13028.940000	-12437.055000	-40628.520000	15718.455000	3.717845	-0.967844	1.237195	-2.227146	-3.135132	-7.971031	2.433651	0.929626	-0.381500	3.784480	-3.158820	-0.670775	-0.203735	0.692015	-1.000000	-1.000000	-1.000000	-1.000000	-1.000000	-1.000000	-1.000000	65.000000	0.000000	-1.000000	-1.000000	606155.000000	1776577611.509482
-17605.350000	-35496.450000	10254.735000	42396.030000	-13025.070000	-12374.460000	-40634.370000	15715.485000	16.323083	9.619729	7.569391	-0.006029	-3.017609	-14.885314	-2.164693	6.944773	-0.381500	3.784480	-3.158820	-0.670775	-0.203735	0.692015	-1.000000	-1.000000	-1.000000	-1.000000	-1.000000	-1.000000	-1.000000	65.000000	0.000000	-1.000000	-1.000000	606156.000000	1776577611.509496
-17636.310000	-35488.845000	10267.560000	42407.055000	-13004.325000	-12285.225000	-40624.875000	15705.450000	19.962575	16.909027	12.347891	3.618103	-1.117774	-14.554891	-5.627344	8.702396	-0.381500	3.784480	-3.158820	-0.670775	-0.203735	0.692015	-1.000000	-1.000000	-1.000000	-1.000000	-1.000000	-1.000000	-1.000000	65.000000	0.000000	-1.000000	-1.000000	606157.000000	1776577611.509501
-17634.555000	-35481.330000	10275.930000	42408.540000	-13006.125000	-12280.185000	-40618.305000	15697.125000	11.454744	15.984968	12.396863	5.930685	2.326701	-0.179432	-5.532259	4.807238	18.479860	6.943300	-5.341000	-0.667601	-0.223693	0.690367	-1.000000	-1.000000	-1.000000	-1.000000	-1.000000	-1.000000	-1.000000	65.000000	0.000000	-1.000000	-1.000000	606158.000000	1776577611.512753
-17610.255000	-35480.115000	10282.410000	42418.485000	-13003.425000	-12280.680000	-40621.365000	15702.660000	-2.485812	8.160357	7.864537	5.649065	5.628575	20.559144	-1.973055	-2.096569	18.479860	6.943300	-5.341000	-0.667601	-0.223693	0.690367	-1.000000	-1.000000	-1.000000	-1.000000	-1.000000	-1.000000	-1.000000	65.000000	0.000000	-1.000000	-1.000000	606159.000000	1776577611.512761
-17584.965000	-35487.945000	10278.360000	42417.180000	-13020.795000	-12395.835000	-40637.790000	15708.015000	-10.787084	-2.350016	0.552274	2.841084	5.900022	28.137338	2.020151	-7.113299	18.479860	6.943300	-5.341000	-0.667601	-0.223693	0.690367	-1.000000	-1.000000	-1.000000	-1.000000	-1.000000	-1.000000	-1.000000	65.000000	0.000000	-1.000000	-1.000000	606160.000000	1776577611.516690
-17591.490000	-35500.140000	10264.095000	42402.105000	-13032.225000	-12432.195000	-40643.055000	15705.270000	-8.540907	-11.686152	-7.499237	-1.707627	1.739590	10.745802	3.028276	-7.121512	18.479860	6.943300	-5.341000	-0.667601	-0.223693	0.690367	-1.000000	-1.000000	-1.000000	-1.000000	-1.000000	-1.000000	-1.000000	65.000000	0.000000	-1.000000	-1.000000	606161.000000	1776577611.516695
-17607.465000	-35503.650000	10261.035000	42396.660000	-13041.180000	-12439.890000	-40640.715000	15704.820000	-1.107798	-17.223226	-14.273165	-7.052857	-5.048910	-21.613114	0.850642	-3.156751	18.479860	6.943300	-5.341000	-0.667601	-0.223693	0.690367	-1.000000	-1.000000	-1.000000	-1.000000	-1.000000	-1.000000	-1.000000	65.000000	0.000000	-1.000000	-1.000000	606162.000000	1776577611.520729
-17609.220000	-35501.400000	10265.850000	42402.285000	-13040.730000	-12425.805000	-40636.575000	15708.420000	2.980174	-17.199865	-17.195229	-11.121126	-10.226890	-43.676769	-1.477394	1.519636	18.479860	6.943300	-5.341000	-0.667601	-0.223693	0.690367	-1.000000	-1.000000	-1.000000	-1.000000	-1.000000	-1.000000	-1.000000	65.000000	0.000000	-1.000000	-1.000000	606163.000000	1776577611.520735
-17613.315000	-35507.340000	10262.520000	42402.555000	-13034.430000	-12425.355000	-40634.415000	15706.305000	0.946064	-11.437286	-14.268805	-11.110239	-10.053800	-38.128390	-1.282446	4.470261	18.479860	6.943300	-5.341000	-0.667601	-0.223693	0.690367	-1.000000	-1.000000	-1.000000	-1.000000	-1.000000	-1.000000	-1.000000	65.000000	0.000000	-1.000000	-1.000000	606164.000000	1776577611.524718
-17614.755000	-35505.225000	10264.545000	42406.470000	-13024.215000	-12419.100000	-40637.610000	15703.470000	-3.694995	-2.326036	-6.425384	-6.294610	-3.943475	-9.270690	1.176633	4.844193	18.479860	6.943300	-5.341000	-0.667601	-0.223693	0.690367	-1.000000	-1.000000	-1.000000	-1.000000	-1.000000	-1.000000	-1.000000	65.000000	0.000000	-1.000000	-1.000000	606165.000000	1776577611.524727
-17616.330000	-35500.680000	10268.235000	42407.370000	-13028.805000	-12372.570000	-40637.565000	15703.200000	-6.392360	6.489903	2.829736	0.949946	4.923621	24.993904	3.571820	3.015230	18.479860	6.943300	-5.341000	-0.667601	-0.223693	0.690367	-1.000000	-1.000000	-1.000000	-1.000000	-1.000000	-1.000000	-1.000000	65.000000	0.000000	-1.000000	-1.000000	606166.000000	1776577611.529135
-17611.065000	-35496.135000	10273.545000	42412.860000	-13022.235000	-12275.820000	-40627.080000	15711.570000	-5.104446	12.301395	9.994245	7.134969	11.511711	49.761385	4.234867	0.472266	18.479860	6.943300	-5.341000	-0.667601	-0.223693	0.690367	-1.000000	-1.000000	-1.000000	-1.000000	-1.000000	-1.000000	-1.000000	65.000000	0.000000	-1.000000	-1.000000	606167.000000	1776577611.529146
-17608.680000	-35493.255000	10276.830000	42416.325000	-13022.505000	-12282.705000	-40623.165000	15715.710000	-0.603475	13.929236	13.109557	9.950544	12.556844	58.626626	3.475232	-0.953375	46.436180	16.038260	-8.835540	-0.663084	-0.248229	0.691221	-1.000000	-1.000000	-1.000000	-1.000000	-1.000000	-1.000000	-1.000000	65.000000	0.000000	-1.000000	-1.000000	606168.000000	1776577611.532816
-17619.300000	-35494.425000	10274.130000	42412.365000	-13016.790000	-12314.745000	-40614.030000	15714.450000	4.380430	11.420303	11.796503	8.907792	8.445700	47.176684	2.310833	-0.709611	46.436180	16.038260	-8.835540	-0.663084	-0.248229	0.691221	-1.000000	-1.000000	-1.000000	-1.000000	-1.000000	-1.000000	-1.000000	65.000000	0.000000	-1.000000	-1.000000	606169.000000	1776577611.532846
-17659.620000	-35507.565000	10268.460000	42408.990000	-13011.165000	-12343.410000	-40620.330000	15696.630000	6.071163	5.654482	6.848127	4.766379	2.060947	14.324073	0.978173	-0.262954	46.436180	16.038260	-8.835540	-0.663084	-0.248229	0.691221	-1.000000	-1.000000	-1.000000	-1.000000	-1.000000	-1.000000	-1.000000	65.000000	0.000000	-1.000000	-1.000000	606170.000000	1776577611.536812
-17666.460000	-35518.140000	10263.105000	42403.140000	-13026.915000	-12403.620000	-40634.055000	15693.795000	2.273245	-1.888319	0.048411	-0.829624	-3.778267	-29.580981	-1.269749	-1.446927	46.436180	16.038260	-8.835540	-0.663084	-0.248229	0.691221	-1.000000	-1.000000	-1.000000	-1.000000	-1.000000	-1.000000	-1.000000	65.000000	0.000000	-1.000000	-1.000000	606171.000000	1776577611.536821
-17647.065000	-35522.685000	10260.000000	42402.780000	-13018.455000	-12409.020000	-40637.205000	15697.260000	-3.745302	-8.801792	-6.076623	-5.644039	-7.815936	-65.369264	-4.838899	-3.751103	46.436180	16.038260	-8.835540	-0.663084	-0.248229	0.691221	-1.000000	-1.000000	-1.000000	-1.000000	-1.000000	-1.000000	-1.000000	65.000000	0.000000	-1.000000	-1.000000	606172.000000	1776577611.541027
-17618.130000	-35510.400000	10264.275000	42408.540000	-12998.970000	-12374.100000	-40644.675000	15693.435000	-4.801345	-11.869237	-9.078867	-7.582909	-8.940737	-75.039776	-8.240208	-4.643270	46.436180	16.038260	-8.835540	-0.663084	-0.248229	0.691221	-1.000000	-1.000000	-1.000000	-1.000000	-1.000000	-1.000000	-1.000000	65.000000	0.000000	-1.000000	-1.000000	606173.000000	1776577611.541038
-17585.415000	-35475.300000	10291.680000	42428.745000	-12974.040000	-12368.070000	-40645.260000	15700.995000	2.657035	-8.425684	-7.331390	-5.443200	-5.606977	-52.046400	-9.045016	-2.680887	46.436180	16.038260	-8.835540	-0.663084	-0.248229	0.691221	-1.000000	-1.000000	-1.000000	-1.000000	-1.000000	-1.000000	-1.000000	65.000000	0.000000	-1.000000	-1.000000	606174.000000	1776577611.544776
-17598.150000	-35469.855000	10304.190000	42437.880000	-12950.730000	-12376.305000	-40643.820000	15697.170000	13.828841	1.032629	-0.916348	0.226881	1.663802	-8.332514	-6.094994	1.210828	46.436180	16.038260	-8.835540	-0.663084	-0.248229	0.691221	-1.000000	-1.000000	-1.000000	-1.000000	-1.000000	-1.000000	-1.000000	65.000000	0.000000	-1.000000	-1.000000	606175.000000	1776577611.544793
-17626.635000	-35486.730000	10299.645000	42438.645000	-12931.650000	-12383.820000	-40640.760000	15692.940000	18.485790	10.687249	6.790760	6.376597	9.210467	32.484860	-0.290837	4.665212	46.436180	16.038260	-8.835540	-0.663084	-0.248229	0.691221	-1.000000	-1.000000	-1.000000	-1.000000	-1.000000	-1.000000	-1.000000	65.000000	0.000000	-1.000000	-1.000000	606176.000000	1776577611.548908
-17648.460000	-35514.810000	10272.780000	42417.855000	-12929.895000	-12382.965000	-40636.755000	15690.510000	9.921480	12.508947	9.835935	8.517993	12.322863	52.186775	5.975317	5.559860	46.436180	16.038260	-8.835540	-0.663084	-0.248229	0.691221	-1.000000	-1.000000	-1.000000	-1.000000	-1.000000	-1.000000	-1.000000	65.000000	0.000000	-1.000000	-1.000000	606177.000000	1776577611.548926
-17655.165000	-35535.330000	10246.455000	42392.385000	-12948.165000	-12435.075000	-40636.620000	15694.470000	-7.866498	3.704683	4.345879	3.824707	7.908011	46.867778	10.064139	3.785135	62.123460	24.553340	-12.391120	-0.660765	-0.252746	0.692686	-1.000000	-1.000000	-1.000000	-1.000000	-1.000000	-1.000000	-1.000000	65.000000	0.000000	-1.000000	-1.000000	606178.000000	1776577611.552818
-17666.640000	-35548.020000	10225.530000	42369.030000	-12962.520000	-12486.465000	-40631.985000	15692.490000	-23.312637	-10.075553	-7.312114	-6.131293	-3.439482	23.097328	10.417594	1.064952	62.123460	24.553340	-12.391120	-0.660765	-0.252746	0.692686	-1.000000	-1.000000	-1.000000	-1.000000	-1.000000	-1.000000	-1.000000	65.000000	0.000000	-1.000000	-1.000000	606179.000000	1776577611.552826
-17667.945000	-35553.060000	10226.295000	42369.390000	-12935.070000	-12411.720000	-40634.055000	15688.395000	-27.096705	-19.325282	-17.405692	-15.355453	-15.908325	-5.245007	7.243303	-1.054848	62.123460	24.553340	-12.391120	-0.660765	-0.252746	0.692686	-1.000000	-1.000000	-1.000000	-1.000000	-1.000000	-1.000000	-1.000000	65.000000	0.000000	-1.000000	-1.000000	606180.000000	1776577611.556776
-17675.505000	-35545.635000	10255.770000	42404.490000	-12868.020000	-12323.385000	-40636.035000	15686.685000	-18.113903	-17.779863	-17.853123	-16.441623	-19.897028	-18.980554	2.045673	-2.235878	62.123460	24.553340	-12.391120	-0.660765	-0.252746	0.692686	-1.000000	-1.000000	-1.000000	-1.000000	-1.000000	-1.000000	-1.000000	65.000000	0.000000	-1.000000	-1.000000	606181.000000	1776577611.556785
-17665.110000	-35519.580000	10284.210000	42432.660000	-12814.650000	-12254.355000	-40622.580000	15691.050000	-2.074139	-5.658474	-5.798127	-5.692553	-9.201437	-7.383141	-2.998228	-2.527711	62.123460	24.553340	-12.391120	-0.660765	-0.252746	0.692686	-1.000000	-1.000000	-1.000000	-1.000000	-1.000000	-1.000000	-1.000000	65.000000	0.000000	-1.000000	-1.000000	606182.000000	1776577611.560907
-17634.375000	-35498.205000	10293.165000	42437.835000	-12795.930000	-12288.780000	-40626.225000	15697.080000	13.937149	11.530215	13.151516	12.188854	10.979255	17.674121	-5.743743	-1.687391	62.123460	24.553340	-12.391120	-0.660765	-0.252746	0.692686	-1.000000	-1.000000	-1.000000	-1.000000	-1.000000	-1.000000	-1.000000	65.000000	0.000000	-1.000000	-1.000000	606183.000000	1776577611.560943
-17601.480000	-35485.740000	10294.830000	42439.545000	-12780.720000	-12390.975000	-40628.880000	15711.930000	25.441194	25.663654	27.533549	25.841323	26.197497	28.724538	-5.782078	0.431431	62.123460	24.553340	-12.391120	-0.660765	-0.252746	0.692686	-1.000000	-1.000000	-1.000000	-1.000000	-1.000000	-1.000000	-1.000000	65.000000	0.000000	-1.000000	-1.000000	606184.000000	1776577611.565672
-17588.790000	-35478.360000	10296.810000	42441.390000	-12768.300000	-12348.855000	-40629.690000	15719.175000	29.902645	29.600571	28.358238	26.266579	25.249636	9.721549	-4.550966	3.264549	62.123460	24.553340	-12.391120	-0.660765	-0.252746	0.692686	-1.000000	-1.000000	-1.000000	-1.000000	-1.000000	-1.000000	-1.000000	65.000000	0.000000	-1.000000	-1.000000	606185.000000	1776577611.565690
-17597.880000	-35482.140000	10298.520000	42440.535000	-12775.590000	-12388.410000	-40626.720000	15724.305000	24.924374	21.037456	15.585582	13.644321	8.706556	-25.769459	-3.193481	5.289955	62.123460	24.553340	-12.391120	-0.660765	-0.252746	0.692686	-1.000000	-1.000000	-1.000000	-1.000000	-1.000000	-1.000000	-1.000000	65.000000	0.000000	-1.000000	-1.000000	606186.000000	1776577611.569472
