Channel1	Channel2	Channel3	Channel4	Channel5	Channel6	Channel7	Channel8	FilteredChannel1	FilteredChannel2	FilteredChannel3	FilteredChannel4	FilteredChannel5	FilteredChannel6	FilteredChannel7	FilteredChannel8	GyroX	GyroY	GyroZ	AccX	AccY	AccZ	PPG1	PPG2	rawPPG1	rawPPG2	rawPPG3	Hr	Hrv	Battery	Trigger	PhysicalTrigger	AutoTrigger	NumMeasurements	Timestamp
40459.320000	-18346.905000	52946.820000	71593.155000	5653.080000	-10053.675000	-40677.075000	-7856.955000	9.953850	11.908459	8.086166	4.544102	-3.336102	-12.356498	0.678171	10.705016	-3.418240	1.144500	-0.579880	-0.656798	-0.023743	0.742491	-1.000000	-1.000000	-1.000000	-1.000000	-1.000000	-1.000000	-1.000000	64.000000	0.000000	-1.000000	-1.000000	810535.000000	1776578020.679419
40443.660000	-18370.890000	52914.240000	71555.535000	5606.415000	-10159.875000	-40689.855000	-7861.770000	6.349254	4.064573	0.317665	-2.641115	-8.838996	-21.663051	2.717678	7.516710	-3.418240	1.144500	-0.579880	-0.656798	-0.023743	0.742491	-1.000000	-1.000000	-1.000000	-1.000000	-1.000000	-1.000000	-1.000000	64.000000	0.000000	-1.000000	-1.000000	810536.000000	1776578020.683363
40428.495000	-18387.315000	52897.950000	71541.090000	5606.685000	-10108.485000	-40691.520000	-7868.790000	-2.347837	-9.064142	-12.496796	-14.420599	-16.064211	-28.954974	2.546352	0.258450	-3.418240	1.144500	-0.579880	-0.656798	-0.023743	0.742491	-1.000000	-1.000000	-1.000000	-1.000000	-1.000000	-1.000000	-1.000000	64.000000	0.000000	-1.000000	-1.000000	810537.000000	1776578020.683374
40422.780000	-18390.690000	52903.395000	71554.680000	5626.080000	-10061.865000	-40691.745000	-7869.510000	-11.647351	-19.431957	-22.174689	-22.678856	-19.362818	-27.875738	-0.478942	-7.971756	-1.205540	0.320460	1.541260	-0.656981	-0.029846	0.742430	-1.000000	-1.000000	-1.000000	-1.000000	-1.000000	-1.000000	-1.000000	64.000000	0.000000	-1.000000	-1.000000	810538.000000	1776578020.688890
40428.045000	-18381.690000	52916.085000	71567.235000	5638.410000	-10016.280000	-40700.970000	-7870.095000	-15.885770	-20.120439	-20.847670	-19.379787	-12.399684	-9.797334	-4.337692	-13.214024	-1.205540	0.320460	1.541260	-0.656981	-0.029846	0.742430	-1.000000	-1.000000	-1.000000	-1.000000	-1.000000	-1.000000	-1.000000	64.000000	0.000000	-1.000000	-1.000000	810539.000000	1776578020.688908
40441.095000	-18363.870000	52933.185000	71584.425000	5666.085000	-9990.765000	-40712.445000	-7868.205000	-11.882196	-9.647749	-7.314315	-3.984397	3.937405	19.892525	-6.854535	-13.021984	-1.205540	0.320460	1.541260	-0.656981	-0.029846	0.742430	-1.000000	-1.000000	-1.000000	-1.000000	-1.000000	-1.000000	-1.000000	64.000000	0.000000	-1.000000	-1.000000	810540.000000	1776578020.694327
40456.080000	-18346.995000	52945.425000	71597.295000	5691.870000	-9983.835000	-40709.250000	-7861.320000	-1.067793	7.195381	11.682311	15.533284	21.635874	43.309008	-7.100752	-7.777906	-1.205540	0.320460	1.541260	-0.656981	-0.029846	0.742430	-1.000000	-1.000000	-1.000000	-1.000000	-1.000000	-1.000000	-1.000000	64.000000	0.000000	-1.000000	-1.000000	810541.000000	1776578020.694338
40465.485000	-18330.930000	52958.430000	71606.835000	5691.510000	-9989.235000	-40685.040000	-7857.585000	11.185631	22.185297	26.209039	28.764713	31.497132	45.310204	-4.249647	-0.078673	-1.205540	0.320460	1.541260	-0.656981	-0.029846	0.742430	-1.000000	-1.000000	-1.000000	-1.000000	-1.000000	-1.000000	-1.000000	64.000000	0.000000	-1.000000	-1.000000	810542.000000	1776578020.695416
40452.120000	-18345.960000	52943.400000	71586.945000	5666.490000	-9968.805000	-40691.655000	-7866.090000	18.268293	27.813828	29.036470	29.028792	27.422451	24.781332	1.792049	6.480682	-1.205540	0.320460	1.541260	-0.656981	-0.029846	0.742430	-1.000000	-1.000000	-1.000000	-1.000000	-1.000000	-1.000000	-1.000000	64.000000	0.000000	-1.000000	-1.000000	810543.000000	1776578020.695437
40440.105000	-18359.640000	52930.710000	71575.335000	5659.470000	-10050.975000	-40691.970000	-7874.910000	15.803583	20.611717	18.689943	16.009301	9.730525	-7.138237	8.041385	8.735796	-1.205540	0.320460	1.541260	-0.656981	-0.029846	0.742430	-1.000000	-1.000000	-1.000000	-1.000000	-1.000000	-1.000000	-1.000000	64.000000	0.000000	-1.000000	-1.000000	810544.000000	1776578020.702542
40438.350000	-18363.195000	52926.030000	71571.150000	5640.435000	-10206.180000	-40706.010000	-7880.490000	4.942451	3.656380	0.169531	-3.899064	-13.381021	-39.814021	10.012906	5.967027	-1.205540	0.320460	1.541260	-0.656981	-0.029846	0.742430	-1.000000	-1.000000	-1.000000	-1.000000	-1.000000	-1.000000	-1.000000	64.000000	0.000000	-1.000000	-1.000000	810545.000000	1776578020.702558
40449.465000	-18356.355000	52928.820000	71572.860000	5649.345000	-10052.190000	-40691.790000	-7869.330000	-7.514576	-13.990177	-17.065122	-20.484658	-30.217583	-63.000498	6.400923	0.877793	-1.205540	0.320460	1.541260	-0.656981	-0.029846	0.742430	-1.000000	-1.000000	-1.000000	-1.000000	-1.000000	-1.000000	-1.000000	64.000000	0.000000	-1.000000	-1.000000	810546.000000	1776578020.703664
40432.320000	-18363.195000	52916.625000	71561.070000	5646.780000	-10003.050000	-40646.610000	-7868.835000	-14.414671	-23.256128	-24.957665	-26.235708	-32.793223	-57.947753	1.236803	-2.426413	-1.205540	0.320460	1.541260	-0.656981	-0.029846	0.742430	-1.000000	-1.000000	-1.000000	-1.000000	-1.000000	-1.000000	-1.000000	64.000000	0.000000	-1.000000	-1.000000	810547.000000	1776578020.703675
40411.980000	-18371.565000	52903.665000	71545.410000	5622.165000	-10074.825000	-40669.020000	-7882.740000	-14.228439	-21.476107	-22.052295	-21.013173	-21.736259	-18.545090	-0.549607	-2.389275	3.052000	0.534100	-0.335720	-0.654967	-0.036865	0.743162	-1.000000	-1.000000	-1.000000	-1.000000	-1.000000	-1.000000	-1.000000	64.000000	0.000000	-1.000000	-1.000000	810548.000000	1776578020.707495
40426.470000	-18367.830000	52923.870000	71577.360000	5648.760000	-10044.900000	-40697.595000	-7882.290000	-9.847831	-12.364948	-12.123885	-9.509015	-4.638879	29.567873	-0.416659	-0.948508	3.052000	0.534100	-0.335720	-0.654967	-0.036865	0.743162	-1.000000	-1.000000	-1.000000	-1.000000	-1.000000	-1.000000	-1.000000	64.000000	0.000000	-1.000000	-1.000000	810549.000000	1776578020.707503
40432.275000	-18361.035000	52934.085000	71591.760000	5668.110000	-10092.600000	-40701.240000	-7882.875000	-3.234245	-1.151917	0.637262	4.164752	11.467044	55.411363	-3.527807	-0.086013	3.052000	0.534100	-0.335720	-0.654967	-0.036865	0.743162	-1.000000	-1.000000	-1.000000	-1.000000	-1.000000	-1.000000	-1.000000	64.000000	0.000000	-1.000000	-1.000000	810550.000000	1776578020.711542
40431.195000	-18364.140000	52920.810000	71560.035000	5633.910000	-10124.280000	-40702.365000	-7886.295000	4.549220	8.251768	12.131411	15.710141	22.156541	49.183383	-9.533977	0.159054	3.052000	0.534100	-0.335720	-0.654967	-0.036865	0.743162	-1.000000	-1.000000	-1.000000	-1.000000	-1.000000	-1.000000	-1.000000	64.000000	0.000000	-1.000000	-1.000000	810551.000000	1776578020.711551
40425.120000	-18374.580000	52904.835000	71533.260000	5613.345000	-10070.730000	-40691.970000	-7886.655000	10.637611	12.985430	17.262806	18.716056	22.823667	21.988495	-12.626788	0.338528	3.052000	0.534100	-0.335720	-0.654967	-0.036865	0.743162	-1.000000	-1.000000	-1.000000	-1.000000	-1.000000	-1.000000	-1.000000	64.000000	0.000000	-1.000000	-1.000000	810552.000000	1776578020.715475
40415.850000	-18383.580000	52903.845000	71543.520000	5633.820000	-10078.335000	-40697.100000	-7887.780000	11.816648	11.647125	13.535499	10.914826	13.027263	-4.745034	-8.955758	0.640187	3.052000	0.534100	-0.335720	-0.654967	-0.036865	0.743162	-1.000000	-1.000000	-1.000000	-1.000000	-1.000000	-1.000000	-1.000000	64.000000	0.000000	-1.000000	-1.000000	810553.000000	1776578020.715482
40419.495000	-18373.410000	52918.245000	71558.100000	5640.840000	-10085.175000	-40697.820000	-7887.915000	7.734206	5.921176	4.642863	-0.785123	0.408785	-16.815261	-0.492831	1.003641	3.052000	0.534100	-0.335720	-0.654967	-0.036865	0.743162	-1.000000	-1.000000	-1.000000	-1.000000	-1.000000	-1.000000	-1.000000	64.000000	0.000000	-1.000000	-1.000000	810554.000000	1776578020.719619
40431.195000	-18362.250000	52930.395000	71565.615000	5639.580000	-10080.135000	-40689.855000	-7877.745000	1.658107	0.271996	-2.433665	-6.977512	-6.684343	-15.599109	7.692993	1.431244	3.052000	0.534100	-0.335720	-0.654967	-0.036865	0.743162	-1.000000	-1.000000	-1.000000	-1.000000	-1.000000	-1.000000	-1.000000	64.000000	0.000000	-1.000000	-1.000000	810555.000000	1776578020.719640
40425.570000	-18362.970000	52933.590000	71573.310000	5653.350000	-10050.075000	-40692.060000	-7878.060000	-2.437764	-1.800381	-3.830616	-4.887539	-6.633704	-8.473372	11.980087	2.041955	3.052000	0.534100	-0.335720	-0.654967	-0.036865	0.743162	-1.000000	-1.000000	-1.000000	-1.000000	-1.000000	-1.000000	-1.000000	64.000000	0.000000	-1.000000	-1.000000	810556.000000	1776578020.723699
40417.740000	-18364.230000	52939.260000	71585.910000	5677.110000	-9962.190000	-40681.845000	-7879.680000	-3.650291	-0.847350	-1.247422	1.410358	-2.335963	1.050877	11.581293	2.381271	3.052000	0.534100	-0.335720	-0.654967	-0.036865	0.743162	-1.000000	-1.000000	-1.000000	-1.000000	-1.000000	-1.000000	-1.000000	64.000000	0.000000	-1.000000	-1.000000	810557.000000	1776578020.723714
40422.465000	-18364.590000	52934.580000	71578.440000	5664.150000	-10011.870000	-40684.050000	-7874.820000	-3.622238	0.216786	1.163437	6.216357	2.532120	10.962875	7.732232	1.639771	4.165980	-0.015260	0.366240	-0.653807	-0.035034	0.744322	-1.000000	-1.000000	-1.000000	-1.000000	-1.000000	-1.000000	-1.000000	64.000000	0.000000	-1.000000	-1.000000	810558.000000	1776578020.727788
40426.020000	-18361.935000	52927.875000	71571.195000	5663.070000	-9984.465000	-40695.480000	-7880.445000	-3.219812	-0.295510	0.573060	5.780305	4.086733	14.572363	2.151765	-0.180920	4.165980	-0.015260	0.366240	-0.653807	-0.035034	0.744322	-1.000000	-1.000000	-1.000000	-1.000000	-1.000000	-1.000000	-1.000000	64.000000	0.000000	-1.000000	-1.000000	810559.000000	1776578020.727809
40424.895000	-18361.035000	52923.510000	71564.580000	5660.370000	-9976.140000	-40695.345000	-7889.040000	-2.136603	-1.847668	-2.987443	-0.004832	0.571459	7.087374	-3.810207	-2.508792	4.165980	-0.015260	0.366240	-0.653807	-0.035034	0.744322	-1.000000	-1.000000	-1.000000	-1.000000	-1.000000	-1.000000	-1.000000	64.000000	0.000000	-1.000000	-1.000000	810560.000000	1776578020.731794
40421.430000	-18361.755000	52914.600000	71549.460000	5619.150000	-10165.230000	-40704.615000	-7899.030000	-0.658462	-3.123304	-7.147288	-7.750865	-6.247194	-10.047916	-8.482742	-4.865240	4.165980	-0.015260	0.366240	-0.653807	-0.035034	0.744322	-1.000000	-1.000000	-1.000000	-1.000000	-1.000000	-1.000000	-1.000000	64.000000	0.000000	-1.000000	-1.000000	810561.000000	1776578020.731809
40419.225000	-18367.785000	52912.080000	71549.010000	5626.845000	-10120.590000	-40705.020000	-7894.305000	0.264533	-3.511650	-9.172126	-13.076048	-13.051929	-33.017228	-10.161102	-6.308117	4.165980	-0.015260	0.366240	-0.653807	-0.035034	0.744322	-1.000000	-1.000000	-1.000000	-1.000000	-1.000000	-1.000000	-1.000000	64.000000	0.000000	-1.000000	-1.000000	810562.000000	1776578020.735574
40422.555000	-18379.080000	52922.295000	71566.020000	5656.320000	-10076.265000	-40697.325000	-7886.610000	0.307281	-3.406392	-7.422358	-12.641463	-15.009715	-47.890127	-8.085300	-5.234171	4.165980	-0.015260	0.366240	-0.653807	-0.035034	0.744322	-1.000000	-1.000000	-1.000000	-1.000000	-1.000000	-1.000000	-1.000000	64.000000	0.000000	-1.000000	-1.000000	810563.000000	1776578020.735584
40425.075000	-18375.255000	52930.170000	71573.850000	5651.550000	-10078.920000	-40700.610000	-7892.235000	0.152726	-3.208329	-1.822421	-5.533474	-8.195631	-36.657845	-2.882052	-1.174839	4.165980	-0.015260	0.366240	-0.653807	-0.035034	0.744322	-1.000000	-1.000000	-1.000000	-1.000000	-1.000000	-1.000000	-1.000000	64.000000	0.000000	-1.000000	-1.000000	810564.000000	1776578020.739579
40420.080000	-18369.360000	52922.430000	71564.085000	5649.210000	-10038.420000	-40691.295000	-7893.630000	0.383324	-2.207993	5.336497	4.856169	4.308824	-1.116999	3.249057	3.701743	4.165980	-0.015260	0.366240	-0.653807	-0.035034	0.744322	-1.000000	-1.000000	-1.000000	-1.000000	-1.000000	-1.000000	-1.000000	64.000000	0.000000	-1.000000	-1.000000	810565.000000	1776578020.739588
40418.280000	-18361.260000	52910.775000	71558.325000	5660.955000	-9979.830000	-40699.890000	-7889.670000	0.622592	0.571429	9.804523	12.116358	14.449997	38.702194	7.544549	6.528611	4.165980	-0.015260	0.366240	-0.653807	-0.035034	0.744322	-1.000000	-1.000000	-1.000000	-1.000000	-1.000000	-1.000000	-1.000000	64.000000	0.000000	-1.000000	-1.000000	810566.000000	1776578020.743478
40419.180000	-18361.485000	52911.855000	71558.235000	5664.195000	-10002.465000	-40710.915000	-7888.770000	0.366384	4.462367	8.783453	12.213329	17.282466	62.747086	7.945592	6.430981	4.165980	-0.015260	0.366240	-0.653807	-0.035034	0.744322	-1.000000	-1.000000	-1.000000	-1.000000	-1.000000	-1.000000	-1.000000	64.000000	0.000000	-1.000000	-1.000000	810567.000000	1776578020.743490
40423.230000	-18365.175000	52912.575000	71554.095000	5638.320000	-10162.395000	-40725.090000	-7889.265000	-0.042016	7.059901	3.765202	6.546054	12.685372	56.494285	4.000926	4.291239	1.678600	1.709120	0.579880	-0.652159	-0.029602	0.743040	-1.000000	-1.000000	-1.000000	-1.000000	-1.000000	-1.000000	-1.000000	64.000000	0.000000	-1.000000	-1.000000	810568.000000	1776578020.747701
40427.955000	-18353.205000	52919.370000	71552.160000	5621.355000	-10160.235000	-40728.420000	-7890.570000	0.135215	6.547458	-1.154190	-0.527579	2.579412	17.340895	-2.219490	1.290728	1.678600	1.709120	0.579880	-0.652159	-0.029602	0.743040	-1.000000	-1.000000	-1.000000	-1.000000	-1.000000	-1.000000	-1.000000	64.000000	0.000000	-1.000000	-1.000000	810569.000000	1776578020.747722
40426.425000	-18346.320000	52924.320000	71554.905000	5629.770000	-10098.495000	-40695.615000	-7892.235000	0.960491	3.710365	-3.006712	-5.267788	-8.809099	-32.061671	-6.264395	-1.599374	1.678600	1.709120	0.579880	-0.652159	-0.029602	0.743040	-1.000000	-1.000000	-1.000000	-1.000000	-1.000000	-1.000000	-1.000000	64.000000	0.000000	-1.000000	-1.000000	810570.000000	1776578020.752133
40419.765000	-18350.955000	52929.000000	71565.975000	5648.850000	-10062.855000	-40676.805000	-7895.565000	1.450416	0.501784	-1.694364	-5.895827	-14.811909	-55.841306	-3.946185	-3.655524	1.678600	1.709120	0.579880	-0.652159	-0.029602	0.743040	-1.000000	-1.000000	-1.000000	-1.000000	-1.000000	-1.000000	-1.000000	64.000000	0.000000	-1.000000	-1.000000	810571.000000	1776578020.752175
40411.485000	-18360.855000	52920.405000	71558.595000	5658.345000	-10052.865000	-40683.465000	-7897.680000	0.462588	-2.499749	0.572100	-2.976108	-11.186142	-39.807606	3.740821	-4.490585	1.678600	1.709120	0.579880	-0.652159	-0.029602	0.743040	-1.000000	-1.000000	-1.000000	-1.000000	-1.000000	-1.000000	-1.000000	64.000000	0.000000	-1.000000	-1.000000	810572.000000	1776578020.755562
40418.235000	-18355.995000	52924.410000	71564.085000	5666.625000	-10032.705000	-40683.105000	-7888.500000	-1.726884	-5.399280	1.296645	0.839185	-0.602919	-1.689911	10.043835	-3.852177	1.678600	1.709120	0.579880	-0.652159	-0.029602	0.743040	-1.000000	-1.000000	-1.000000	-1.000000	-1.000000	-1.000000	-1.000000	64.000000	0.000000	-1.000000	-1.000000	810573.000000	1776578020.755592
40427.145000	-18350.820000	52927.695000	71565.435000	5663.025000	-10034.370000	-40681.440000	-7881.705000	-3.039111	-7.008319	0.017250	3.015276	9.485209	30.404973	9.360279	-1.519224	1.678600	1.709120	0.579880	-0.652159	-0.029602	0.743040	-1.000000	-1.000000	-1.000000	-1.000000	-1.000000	-1.000000	-1.000000	64.000000	0.000000	-1.000000	-1.000000	810574.000000	1776578020.759628
40429.755000	-18349.605000	52928.325000	71567.235000	5666.265000	-10080.990000	-40690.845000	-7880.670000	-1.730647	-5.803597	-1.720324	2.956624	12.866296	38.582475	2.229856	1.863459	1.678600	1.709120	0.579880	-0.652159	-0.029602	0.743040	-1.000000	-1.000000	-1.000000	-1.000000	-1.000000	-1.000000	-1.000000	64.000000	0.000000	-1.000000	-1.000000	810575.000000	1776578020.759639
40420.305000	-18361.575000	52914.690000	71553.375000	5629.455000	-10139.445000	-40700.565000	-7885.440000	1.185123	-2.415665	-2.789860	1.156573	7.948605	20.662334	-6.931005	4.317253	1.678600	1.709120	0.579880	-0.652159	-0.029602	0.743040	-1.000000	-1.000000	-1.000000	-1.000000	-1.000000	-1.000000	-1.000000	64.000000	0.000000	-1.000000	-1.000000	810576.000000	1776578020.763560
40401.360000	-18376.380000	52898.670000	71533.260000	5608.935000	-10092.240000	-40693.455000	-7896.015000	2.550963	0.417595	-3.705354	-2.108215	-2.952772	-10.275534	-13.380894	3.852782	1.678600	1.709120	0.579880	-0.652159	-0.029602	0.743040	-1.000000	-1.000000	-1.000000	-1.000000	-1.000000	-1.000000	-1.000000	64.000000	0.000000	-1.000000	-1.000000	810577.000000	1776578020.763576
40396.680000	-18380.205000	52896.195000	71533.305000	5632.560000	-10039.455000	-40704.075000	-7897.140000	0.434999	0.757349	-4.940727	-6.020831	-13.845554	-31.247317	-14.004075	0.392749	-2.914660	1.175020	1.403920	-0.654906	-0.021912	0.743284	-1.000000	-1.000000	-1.000000	-1.000000	-1.000000	-1.000000	-1.000000	64.000000	0.000000	-1.000000	-1.000000	810578.000000	1776578020.767646
40406.355000	-18369.990000	52905.510000	71537.670000	5646.690000	-10030.365000	-40704.615000	-7890.750000	-3.213266	-0.187280	-5.031654	-7.956836	-16.592664	-26.949971	-9.040322	-3.599359	-2.914660	1.175020	1.403920	-0.654906	-0.021912	0.743284	-1.000000	-1.000000	-1.000000	-1.000000	-1.000000	-1.000000	-1.000000	64.000000	0.000000	-1.000000	-1.000000	810579.000000	1776578020.767666
40420.575000	-18359.730000	52910.595000	71536.500000	5635.800000	-10106.415000	-40702.230000	-7884.630000	-4.104227	0.580856	-1.922158	-5.441296	-8.356552	-5.478100	-1.459725	-4.912071	-2.914660	1.175020	1.403920	-0.654906	-0.021912	0.743284	-1.000000	-1.000000	-1.000000	-1.000000	-1.000000	-1.000000	-1.000000	64.000000	0.000000	-1.000000	-1.000000	810580.000000	1776578020.771671
40418.820000	-18358.020000	52913.880000	71544.420000	5654.925000	-10048.095000	-40699.125000	-7891.920000	-0.387078	4.058801	3.920589	0.824870	4.807681	12.163982	5.663598	-2.692080	-2.914660	1.175020	1.403920	-0.654906	-0.021912	0.743284	-1.000000	-1.000000	-1.000000	-1.000000	-1.000000	-1.000000	-1.000000	64.000000	0.000000	-1.000000	-1.000000	810581.000000	1776578020.771689
40403.745000	-18371.025000	52906.680000	71548.110000	5678.415000	-9981.945000	-40684.320000	-7900.965000	4.792608	7.547883	9.080840	7.559763	15.086001	17.655657	10.497890	0.632012	-2.914660	1.175020	1.403920	-0.654906	-0.021912	0.743284	-1.000000	-1.000000	-1.000000	-1.000000	-1.000000	-1.000000	-1.000000	64.000000	0.000000	-1.000000	-1.000000	810582.000000	1776578020.775545
40408.380000	-18363.645000	52913.340000	71556.885000	5691.690000	-9969.255000	-40683.420000	-7900.470000	6.653485	7.513199	10.195926	11.553446	19.043115	17.890051	12.336713	2.168917	-2.914660	1.175020	1.403920	-0.654906	-0.021912	0.743284	-1.000000	-1.000000	-1.000000	-1.000000	-1.000000	-1.000000	-1.000000	64.000000	0.000000	-1.000000	-1.000000	810583.000000	1776578020.775555
40416.525000	-18354.375000	52921.710000	71558.235000	5683.410000	-10049.355000	-40694.625000	-7898.490000	4.246488	3.846392	7.085390	11.260369	16.080145	15.140797	10.603690	1.620496	-2.914660	1.175020	1.403920	-0.654906	-0.021912	0.743284	-1.000000	-1.000000	-1.000000	-1.000000	-1.000000	-1.000000	-1.000000	64.000000	0.000000	-1.000000	-1.000000	810584.000000	1776578020.779557
40412.970000	-18358.785000	52916.985000	71551.260000	5663.385000	-10019.520000	-40688.955000	-7898.490000	0.496641	-0.527569	2.206308	6.850627	6.382151	3.868611	5.124406	0.693781	-2.914660	1.175020	1.403920	-0.654906	-0.021912	0.743284	-1.000000	-1.000000	-1.000000	-1.000000	-1.000000	-1.000000	-1.000000	64.000000	0.000000	-1.000000	-1.000000	810585.000000	1776578020.779564
40397.670000	-18377.415000	52894.935000	71524.575000	5609.835000	-10131.165000	-40712.220000	-7905.015000	-2.397153	-3.880286	-2.734332	-0.651455	-8.394515	-15.386099	-2.447482	0.465848	-2.914660	1.175020	1.403920	-0.654906	-0.021912	0.743284	-1.000000	-1.000000	-1.000000	-1.000000	-1.000000	-1.000000	-1.000000	64.000000	0.000000	-1.000000	-1.000000	810586.000000	1776578020.783597
40392.360000	-18381.555000	52888.860000	71513.955000	5597.730000	-10169.190000	-40740.480000	-7912.890000	-4.556587	-6.610484	-7.529108	-9.405896	-23.742002	-34.766511	-9.809056	0.431556	-2.914660	1.175020	1.403920	-0.654906	-0.021912	0.743284	-1.000000	-1.000000	-1.000000	-1.000000	-1.000000	-1.000000	-1.000000	64.000000	0.000000	-1.000000	-1.000000	810587.000000	1776578020.783613
40391.010000	-18379.665000	52893.675000	71525.295000	5618.835000	-10171.170000	-40737.240000	-7915.770000	-5.977764	-8.326454	-10.838569	-15.575145	-31.489571	-44.440527	-14.879442	-0.188858	-2.151660	0.518840	1.068200	-0.654661	-0.024231	0.744932	-1.000000	-1.000000	-1.000000	-1.000000	-1.000000	-1.000000	-1.000000	64.000000	0.000000	-1.000000	-1.000000	810588.000000	1776578020.787727
40394.745000	-18369.090000	52915.185000	71559.630000	5670.180000	-10123.515000	-40700.340000	-7908.075000	-5.435700	-7.089820	-9.660510	-14.138529	-23.489638	-34.425828	-14.051353	-0.928791	-2.151660	0.518840	1.068200	-0.654661	-0.024231	0.744932	-1.000000	-1.000000	-1.000000	-1.000000	-1.000000	-1.000000	-1.000000	64.000000	0.000000	-1.000000	-1.000000	810589.000000	1776578020.787741
40414.815000	-18343.890000	52942.455000	71589.060000	5706.315000	-10050.255000	-40665.690000	-7893.405000	-1.885525	-1.692414	-2.381406	-3.262985	0.277643	-2.146787	-4.099387	-0.260344	-2.151660	0.518840	1.068200	-0.654661	-0.024231	0.744932	-1.000000	-1.000000	-1.000000	-1.000000	-1.000000	-1.000000	-1.000000	64.000000	0.000000	-1.000000	-1.000000	810590.000000	1776578020.791710
40415.760000	-18345.330000	52932.465000	71568.720000	5680.260000	-10042.695000	-40675.815000	-7894.305000	3.985463	6.241338	8.023340	11.486393	27.405002	40.130348	11.590999	2.345649	-2.151660	0.518840	1.068200	-0.654661	-0.024231	0.744932	-1.000000	-1.000000	-1.000000	-1.000000	-1.000000	-1.000000	-1.000000	64.000000	0.000000	-1.000000	-1.000000	810591.000000	1776578020.791726
40400.910000	-18363.420000	52907.400000	71533.935000	5635.980000	-10039.140000	-40686.570000	-7904.475000	8.822697	11.769372	14.175288	18.978183	39.436269	69.271498	22.415143	4.768948	-2.151660	0.518840	1.068200	-0.654661	-0.024231	0.744932	-1.000000	-1.000000	-1.000000	-1.000000	-1.000000	-1.000000	-1.000000	64.000000	0.000000	-1.000000	-1.000000	810592.000000	1776578020.795668
40396.815000	-18365.220000	52905.195000	71528.175000	5635.215000	-10015.335000	-40689.720000	-7909.830000	8.587648	10.132593	10.449294	12.308684	27.256943	67.775634	19.933420	4.012868	-2.151660	0.518840	1.068200	-0.654661	-0.024231	0.744932	-1.000000	-1.000000	-1.000000	-1.000000	-1.000000	-1.000000	-1.000000	64.000000	0.000000	-1.000000	-1.000000	810593.000000	1776578020.795678
40401.405000	-18363.915000	52902.090000	71519.670000	5630.445000	-10041.750000	-40694.670000	-7904.835000	3.080483	2.119423	-0.606229	-3.546655	0.298031	37.124208	5.985183	-0.083557	-2.151660	0.518840	1.068200	-0.654661	-0.024231	0.744932	-1.000000	-1.000000	-1.000000	-1.000000	-1.000000	-1.000000	-1.000000	64.000000	0.000000	-1.000000	-1.000000	810594.000000	1776578020.799458
40402.755000	-18362.205000	52902.135000	71518.455000	5617.440000	-10154.295000	-40697.955000	-7902.720000	-3.465580	-6.414102	-10.760919	-16.769427	-22.990852	-8.499198	-10.172993	-4.368058	-2.151660	0.518840	1.068200	-0.654661	-0.024231	0.744932	-1.000000	-1.000000	-1.000000	-1.000000	-1.000000	-1.000000	-1.000000	64.000000	0.000000	-1.000000	-1.000000	810595.000000	1776578020.799466
40402.170000	-18365.040000	52907.760000	71530.110000	5636.745000	-10135.755000	-40703.850000	-7901.865000	-6.849366	-10.317474	-13.715408	-19.046458	-30.508504	-52.373015	-19.928571	-5.799476	-2.151660	0.518840	1.068200	-0.654661	-0.024231	0.744932	-1.000000	-1.000000	-1.000000	-1.000000	-1.000000	-1.000000	-1.000000	64.000000	0.000000	-1.000000	-1.000000	810596.000000	1776578020.805111
40397.085000	-18369.765000	52906.635000	71533.800000	5652.630000	-10076.040000	-40703.490000	-7902.405000	-6.250309	-8.758760	-8.872313	-10.059223	-21.119242	-74.657751	-19.985701	-4.082720	-2.151660	0.518840	1.068200	-0.654661	-0.024231	0.744932	-1.000000	-1.000000	-1.000000	-1.000000	-1.000000	-1.000000	-1.000000	64.000000	0.000000	-1.000000	-1.000000	810597.000000	1776578020.805121
40389.165000	-18376.965000	52894.530000	71526.420000	5649.210000	-10051.155000	-40715.235000	-7910.325000	-3.627901	-4.287816	-0.486138	3.768640	-2.196052	-60.579712	-12.418534	-1.164084	0.122080	0.061040	1.510740	-0.652769	-0.032593	0.744993	-1.000000	-1.000000	-1.000000	-1.000000	-1.000000	-1.000000	-1.000000	64.000000	0.000000	-1.000000	-1.000000	810598.000000	1776578020.807763
40373.595000	-18377.010000	52883.775000	71511.930000	5625.360000	-10108.215000	-40713.165000	-7918.920000	-1.477109	0.099954	5.738567	13.735164	14.328272	-18.736778	-2.137832	0.657007	0.122080	0.061040	1.510740	-0.652769	-0.032593	0.744993	-1.000000	-1.000000	-1.000000	-1.000000	-1.000000	-1.000000	-1.000000	64.000000	0.000000	-1.000000	-1.000000	810599.000000	1776578020.807776
40377.195000	-18368.010000	52899.570000	71526.555000	5629.545000	-10101.150000	-40695.210000	-7914.960000	-0.826641	3.185561	7.204456	15.081157	19.356365	22.556932	6.820600	0.607559	0.122080	0.061040	1.510740	-0.652769	-0.032593	0.744993	-1.000000	-1.000000	-1.000000	-1.000000	-1.000000	-1.000000	-1.000000	64.000000	0.000000	-1.000000	-1.000000	810600.000000	1776578020.811845
40387.590000	-18360.135000	52911.765000	71539.245000	5639.805000	-10088.730000	-40694.310000	-7907.400000	-0.312899	5.441399	6.088364	10.124535	13.280528	41.976060	12.906308	0.123521	0.122080	0.061040	1.510740	-0.652769	-0.032593	0.744993	-1.000000	-1.000000	-1.000000	-1.000000	-1.000000	-1.000000	-1.000000	64.000000	0.000000	-1.000000	-1.000000	810601.000000	1776578020.811859
40391.910000	-18361.980000	52911.585000	71540.505000	5657.220000	-10067.490000	-40709.205000	-7905.375000	2.012959	7.050863	5.441401	4.281729	3.920884	39.310150	14.879445	0.991430	0.122080	0.061040	1.510740	-0.652769	-0.032593	0.744993	-1.000000	-1.000000	-1.000000	-1.000000	-1.000000	-1.000000	-1.000000	64.000000	0.000000	-1.000000	-1.000000	810602.000000	1776578020.815833
40401.630000	-18358.920000	52913.115000	71546.895000	5681.295000	-10040.130000	-40716.090000	-7906.230000	5.840912	6.983165	5.191147	0.301553	-1.437903	26.031868	11.193511	2.981197	0.122080	0.061040	1.510740	-0.652769	-0.032593	0.744993	-1.000000	-1.000000	-1.000000	-1.000000	-1.000000	-1.000000	-1.000000	64.000000	0.000000	-1.000000	-1.000000	810603.000000	1776578020.815850
40412.430000	-18354.240000	52921.260000	71563.230000	5713.830000	-10012.905000	-40709.205000	-7904.340000	8.895608	4.578441	3.651535	-1.895616	-0.660924	12.532862	3.123276	4.254925	0.122080	0.061040	1.510740	-0.652769	-0.032593	0.744993	-1.000000	-1.000000	-1.000000	-1.000000	-1.000000	-1.000000	-1.000000	64.000000	0.000000	-1.000000	-1.000000	810604.000000	1776578020.819687
40408.470000	-18364.365000	52912.710000	71545.050000	5687.595000	-10007.325000	-40695.255000	-7904.655000	9.034862	0.566310	0.417046	-3.178826	2.866102	2.878188	-4.406317	3.576505	0.122080	0.061040	1.510740	-0.652769	-0.032593	0.744993	-1.000000	-1.000000	-1.000000	-1.000000	-1.000000	-1.000000	-1.000000	64.000000	0.000000	-1.000000	-1.000000	810605.000000	1776578020.819695
40395.645000	-18371.340000	52897.140000	71517.555000	5631.750000	-10085.445000	-40699.665000	-7916.220000	5.081076	-3.929361	-3.960889	-5.425487	1.765615	-5.840278	-7.119459	1.045243	0.122080	0.061040	1.510740	-0.652769	-0.032593	0.744993	-1.000000	-1.000000	-1.000000	-1.000000	-1.000000	-1.000000	-1.000000	64.000000	0.000000	-1.000000	-1.000000	810606.000000	1776578020.823711
40390.245000	-18363.015000	52908.345000	71532.315000	5631.615000	-10089.135000	-40710.150000	-7923.645000	-2.369042	-7.483618	-8.267866	-9.440427	-8.212778	-18.311377	-5.497034	-2.576984	0.122080	0.061040	1.510740	-0.652769	-0.032593	0.744993	-1.000000	-1.000000	-1.000000	-1.000000	-1.000000	-1.000000	-1.000000	64.000000	0.000000	-1.000000	-1.000000	810607.000000	1776578020.823719
40398.030000	-18344.115000	52929.990000	71574.345000	5686.020000	-10073.160000	-40710.915000	-7914.870000	-9.908940	-7.795148	-9.567660	-11.156171	-19.747507	-30.929114	-3.141880	-5.684272	3.280900	0.976640	0.656180	-0.653258	-0.033020	0.743589	-1.000000	-1.000000	-1.000000	-1.000000	-1.000000	-1.000000	-1.000000	64.000000	0.000000	-1.000000	-1.000000	810608.000000	1776578020.828225
40424.760000	-18323.100000	52944.030000	71585.685000	5698.125000	-10003.590000	-40693.635000	-7887.780000	-12.565009	-3.333565	-5.305262	-5.419502	-19.738997	-31.624883	-1.810719	-5.561939	3.280900	0.976640	0.656180	-0.653258	-0.033020	0.743589	-1.000000	-1.000000	-1.000000	-1.000000	-1.000000	-1.000000	-1.000000	64.000000	0.000000	-1.000000	-1.000000	810609.000000	1776578020.828243
40415.625000	-18343.125000	52913.070000	71532.675000	5644.530000	-10066.140000	-40703.625000	-7890.345000	-8.085195	3.651597	2.118506	4.766650	-6.538344	-15.193720	-0.546185	-0.892486	3.280900	0.976640	0.656180	-0.653258	-0.033020	0.743589	-1.000000	-1.000000	-1.000000	-1.000000	-1.000000	-1.000000	-1.000000	64.000000	0.000000	-1.000000	-1.000000	810610.000000	1776578020.832054
40387.050000	-18374.670000	52876.080000	71489.430000	5629.635000	-10138.995000	-40700.115000	-7909.830000	-0.568360	7.014276	5.590357	8.713952	7.091404	5.670338	0.974986	4.932864	3.280900	0.976640	0.656180	-0.653258	-0.033020	0.743589	-1.000000	-1.000000	-1.000000	-1.000000	-1.000000	-1.000000	-1.000000	64.000000	0.000000	-1.000000	-1.000000	810611.000000	1776578020.832086
40373.595000	-18391.005000	52870.050000	71486.910000	5629.635000	-10096.605000	-40695.615000	-7920.090000	2.966259	2.375290	0.941874	1.211462	10.716599	14.492596	1.871705	6.184989	3.280900	0.976640	0.656180	-0.653258	-0.033020	0.743589	-1.000000	-1.000000	-1.000000	-1.000000	-1.000000	-1.000000	-1.000000	64.000000	0.000000	-1.000000	-1.000000	810612.000000	1776578020.835730
40380.480000	-18394.740000	52879.545000	71501.670000	5641.020000	-10027.935000	-40701.150000	-7915.095000	0.702184	-7.114555	-7.042784	-9.735725	6.777369	12.906413	1.810879	1.543920	3.280900	0.976640	0.656180	-0.653258	-0.033020	0.743589	-1.000000	-1.000000	-1.000000	-1.000000	-1.000000	-1.000000	-1.000000	64.000000	0.000000	-1.000000	-1.000000	810613.000000	1776578020.835744
40380.795000	-18393.570000	52879.995000	71501.670000	5636.610000	-10073.340000	-40702.995000	-7917.525000	-2.549821	-13.273260	-9.636305	-12.216376	3.185978	13.088379	0.862748	-4.471473	3.280900	0.976640	0.656180	-0.653258	-0.033020	0.743589	-1.000000	-1.000000	-1.000000	-1.000000	-1.000000	-1.000000	-1.000000	64.000000	0.000000	-1.000000	-1.000000	810614.000000	1776578020.839624
40374.810000	-18379.485000	52881.030000	71500.095000	5618.295000	-10222.830000	-40713.480000	-7928.190000	-2.167624	-10.465905	-3.713261	-3.404035	3.080746	13.258826	-0.860678	-7.151593	3.280900	0.976640	0.656180	-0.653258	-0.033020	0.743589	-1.000000	-1.000000	-1.000000	-1.000000	-1.000000	-1.000000	-1.000000	64.000000	0.000000	-1.000000	-1.000000	810615.000000	1776578020.839634
40364.325000	-18365.130000	52888.005000	71512.380000	5645.970000	-10147.365000	-40712.760000	-7938.720000	1.433490	0.444875	6.432114	9.831016	4.510038	3.019189	-2.746231	-5.900853	3.280900	0.976640	0.656180	-0.653258	-0.033020	0.743589	-1.000000	-1.000000	-1.000000	-1.000000	-1.000000	-1.000000	-1.000000	64.000000	0.000000	-1.000000	-1.000000	810616.000000	1776578020.843550
40363.335000	-18366.750000	52895.835000	71521.425000	5661.990000	-10093.545000	-40720.005000	-7939.170000	4.901025	13.245731	14.499945	19.289870	6.161948	-10.663604	-3.713562	-2.728455	3.280900	0.976640	0.656180	-0.653258	-0.033020	0.743589	-1.000000	-1.000000	-1.000000	-1.000000	-1.000000	-1.000000	-1.000000	64.000000	0.000000	-1.000000	-1.000000	810617.000000	1776578020.843556
40357.485000	-18373.095000	52894.440000	71523.810000	5658.570000	-10097.775000	-40729.230000	-7941.960000	6.055886	20.209897	16.608387	20.824945	7.793597	-10.349533	-3.183332	0.794593	0.183120	2.639980	-0.381500	-0.653013	-0.024963	0.743834	-1.000000	-1.000000	-1.000000	-1.000000	-1.000000	-1.000000	-1.000000	64.000000	0.000000	-1.000000	-1.000000	810618.000000	1776578020.849109
40363.830000	-18367.740000	52893.585000	71521.740000	5649.570000	-10109.700000	-40730.670000	-7939.440000	5.116385	17.311756	12.136018	14.406929	7.137240	4.106620	-1.589187	4.020953	0.183120	2.639980	-0.381500	-0.653013	-0.024963	0.743834	-1.000000	-1.000000	-1.000000	-1.000000	-1.000000	-1.000000	-1.000000	64.000000	0.000000	-1.000000	-1.000000	810619.000000	1776578020.849123
40383.990000	-18350.865000	52902.180000	71516.295000	5637.330000	-10127.970000	-40712.355000	-7923.645000	3.873829	7.340528	3.460920	2.929645	1.857764	16.752866	0.855192	6.682077	0.183120	2.639980	-0.381500	-0.653013	-0.024963	0.743834	-1.000000	-1.000000	-1.000000	-1.000000	-1.000000	-1.000000	-1.000000	64.000000	0.000000	-1.000000	-1.000000	810620.000000	1776578020.851656
40385.655000	-18347.805000	52900.965000	71512.560000	5625.990000	-10197.225000	-40693.680000	-7921.170000	3.893816	-3.010533	-5.209791	-9.058082	-6.820606	14.948798	4.712990	8.579631	0.183120	2.639980	-0.381500	-0.653013	-0.024963	0.743834	-1.000000	-1.000000	-1.000000	-1.000000	-1.000000	-1.000000	-1.000000	64.000000	0.000000	-1.000000	-1.000000	810621.000000	1776578020.851665
40383.945000	-18355.590000	52895.070000	71511.705000	5627.205000	-10161.990000	-40690.980000	-7918.065000	4.315907	-9.343504	-10.669583	-17.065869	-14.381031	-0.538658	9.285263	8.818057	0.183120	2.639980	-0.381500	-0.653013	-0.024963	0.743834	-1.000000	-1.000000	-1.000000	-1.000000	-1.000000	-1.000000	-1.000000	64.000000	0.000000	-1.000000	-1.000000	810622.000000	1776578020.855714
40375.575000	-18373.005000	52881.075000	71505.720000	5642.010000	-10077.030000	-40700.340000	-7916.940000	2.596811	-11.969563	-12.491520	-18.561384	-15.918218	-15.012083	11.252294	6.239835	0.183120	2.639980	-0.381500	-0.653013	-0.024963	0.743834	-1.000000	-1.000000	-1.000000	-1.000000	-1.000000	-1.000000	-1.000000	64.000000	0.000000	-1.000000	-1.000000	810623.000000	1776578020.855722
40389.345000	-18363.915000	52891.830000	71518.455000	5664.960000	-10047.600000	-40713.840000	-7902.990000	-1.866887	-12.607049	-11.514012	-13.792208	-9.290755	-12.635842	7.294399	1.330271	0.183120	2.639980	-0.381500	-0.653013	-0.024963	0.743834	-1.000000	-1.000000	-1.000000	-1.000000	-1.000000	-1.000000	-1.000000	64.000000	0.000000	-1.000000	-1.000000	810624.000000	1776578020.859632
40387.500000	-18366.615000	52890.300000	71514.405000	5653.215000	-10057.455000	-40714.920000	-7900.380000	-6.459762	-11.010098	-7.878280	-5.106040	2.475216	4.706192	-1.889283	-3.592676	0.183120	2.639980	-0.381500	-0.653013	-0.024963	0.743834	-1.000000	-1.000000	-1.000000	-1.000000	-1.000000	-1.000000	-1.000000	64.000000	0.000000	-1.000000	-1.000000	810625.000000	1776578020.859669
40370.265000	-18382.995000	52878.240000	71502.930000	5635.485000	-10080.315000	-40715.055000	-7912.035000	-8.712197	-6.689889	-2.271063	3.579936	11.760253	18.725590	-11.159279	-6.851931	0.183120	2.639980	-0.381500	-0.653013	-0.024963	0.743834	-1.000000	-1.000000	-1.000000	-1.000000	-1.000000	-1.000000	-1.000000	64.000000	0.000000	-1.000000	-1.000000	810626.000000	1776578020.863620
40382.820000	-18370.575000	52884.135000	71502.120000	5645.295000	-10071.765000	-40698.090000	-7907.535000	-8.546322	-1.097406	2.982371	8.325919	12.540562	15.515043	-14.726628	-8.593515	0.183120	2.639980	-0.381500	-0.653013	-0.024963	0.743834	-1.000000	-1.000000	-1.000000	-1.000000	-1.000000	-1.000000	-1.000000	64.000000	0.000000	-1.000000	-1.000000	810627.000000	1776578020.863627
40378.860000	-18375.480000	52876.395000	71490.510000	5636.160000	-10082.115000	-40707.045000	-7916.985000	-6.300249	4.131768	6.029631	7.975380	6.071712	-1.833394	-10.643629	-9.054853	-3.036740	2.395820	-0.274680	-0.652159	-0.019714	0.746641	-1.000000	-1.000000	-1.000000	-1.000000	-1.000000	-1.000000	-1.000000	64.000000	0.000000	-1.000000	-1.000000	810628.000000	1776578020.867621
40376.520000	-18370.305000	52885.035000	71501.760000	5644.395000	-10073.475000	-40707.855000	-7921.575000	-2.337672	8.071479	6.765783	4.630034	-1.744092	-19.908201	-2.355593	-7.970946	-3.036740	2.395820	-0.274680	-0.652159	-0.019714	0.746641	-1.000000	-1.000000	-1.000000	-1.000000	-1.000000	-1.000000	-1.000000	64.000000	0.000000	-1.000000	-1.000000	810629.000000	1776578020.867625
40365.900000	-18378.945000	52881.525000	71500.770000	5630.265000	-10105.110000	-40733.505000	-7931.385000	1.624760	9.653144	6.012794	1.620200	-6.343291	-28.102850	4.202654	-5.513180	-3.036740	2.395820	-0.274680	-0.652159	-0.019714	0.746641	-1.000000	-1.000000	-1.000000	-1.000000	-1.000000	-1.000000	-1.000000	64.000000	0.000000	-1.000000	-1.000000	810630.000000	1776578020.871662
40347.045000	-18391.005000	52867.710000	71486.325000	5618.970000	-10079.505000	-40761.090000	-7952.670000	3.400219	7.943109	4.223940	0.530037	-7.065531	-24.198398	4.922607	-2.578811	-3.036740	2.395820	-0.274680	-0.652159	-0.019714	0.746641	-1.000000	-1.000000	-1.000000	-1.000000	-1.000000	-1.000000	-1.000000	64.000000	0.000000	-1.000000	-1.000000	810631.000000	1776578020.871667
40340.205000	-18389.295000	52871.220000	71495.865000	5647.095000	-10062.405000	-40766.490000	-7957.485000	2.231814	3.330485	1.312109	0.367537	-5.098718	-11.048952	0.275525	-0.217051	-3.036740	2.395820	-0.274680	-0.652159	-0.019714	0.746641	-1.000000	-1.000000	-1.000000	-1.000000	-1.000000	-1.000000	-1.000000	64.000000	0.000000	-1.000000	-1.000000	810632.000000	1776578020.875699
40356.720000	-18368.640000	52891.470000	71513.370000	5651.100000	-10105.920000	-40718.160000	-7946.550000	0.165679	-1.347649	-1.410442	0.590731	-0.625408	5.411362	-3.787267	1.933981	-3.036740	2.395820	-0.274680	-0.652159	-0.019714	0.746641	-1.000000	-1.000000	-1.000000	-1.000000	-1.000000	-1.000000	-1.000000	64.000000	0.000000	-1.000000	-1.000000	810633.000000	1776578020.875711
40365.855000	-18363.285000	52892.280000	71509.680000	5655.420000	-10119.780000	-40647.060000	-7933.230000	0.746371	-2.564845	-1.604947	1.822552	5.323724	16.127622	0.652744	5.554223	-3.036740	2.395820	-0.274680	-0.652159	-0.019714	0.746641	-1.000000	-1.000000	-1.000000	-1.000000	-1.000000	-1.000000	-1.000000	64.000000	0.000000	-1.000000	-1.000000	810634.000000	1776578020.879651
40359.825000	-18369.945000	52884.180000	71501.490000	5642.460000	-10168.965000	-40684.095000	-7933.950000	4.659897	-0.263590	0.406834	2.971808	9.052013	15.178212	13.767572	10.587427	-3.036740	2.395820	-0.274680	-0.652159	-0.019714	0.746641	-1.000000	-1.000000	-1.000000	-1.000000	-1.000000	-1.000000	-1.000000	64.000000	0.000000	-1.000000	-1.000000	810635.000000	1776578020.879660
40376.970000	-18351.855000	52903.260000	71517.150000	5658.165000	-10101.825000	-40694.085000	-7922.655000	8.627702	2.251177	1.880686	2.078181	7.697707	6.533594	23.358852	14.069851	-3.036740	2.395820	-0.274680	-0.652159	-0.019714	0.746641	-1.000000	-1.000000	-1.000000	-1.000000	-1.000000	-1.000000	-1.000000	64.000000	0.000000	-1.000000	-1.000000	810636.000000	1776578020.883781
40385.070000	-18348.525000	52906.005000	71517.735000	5665.770000	-10079.640000	-40690.395000	-7917.255000	9.626759	2.775710	1.709780	-0.370709	2.758135	1.555239	17.873245	13.188732	-3.036740	2.395820	-0.274680	-0.652159	-0.019714	0.746641	-1.000000	-1.000000	-1.000000	-1.000000	-1.000000	-1.000000	-1.000000	64.000000	0.000000	-1.000000	-1.000000	810637.000000	1776578020.883793
40373.145000	-18365.715000	52888.905000	71506.620000	5667.345000	-10067.355000	-40692.510000	-7926.570000	6.942290	1.077086	0.280109	-2.702053	-1.956208	6.626695	0.086459	7.593693	-3.082520	1.388660	-0.350980	-0.651182	-0.021240	0.748045	-1.000000	-1.000000	-1.000000	-1.000000	-1.000000	-1.000000	-1.000000	64.000000	0.000000	-1.000000	-1.000000	810638.000000	1776578020.887752
40372.200000	-18364.590000	52886.385000	71506.485000	5666.940000	-10048.365000	-40702.320000	-7926.840000	0.926890	-2.747065	-2.633544	-4.573416	-4.536587	15.805022	-18.041614	-1.094307	-3.082520	1.388660	-0.350980	-0.651182	-0.021240	0.748045	-1.000000	-1.000000	-1.000000	-1.000000	-1.000000	-1.000000	-1.000000	64.000000	0.000000	-1.000000	-1.000000	810639.000000	1776578020.887761
40375.035000	-18357.435000	52897.365000	71520.615000	5679.135000	-10030.995000	-40699.350000	-7924.860000	-6.426982	-7.000737	-6.038621	-5.536907	-5.189771	19.309574	-27.062823	-9.667071	-3.082520	1.388660	-0.350980	-0.651182	-0.021240	0.748045	-1.000000	-1.000000	-1.000000	-1.000000	-1.000000	-1.000000	-1.000000	64.000000	0.000000	-1.000000	-1.000000	810640.000000	1776578020.891698
40376.520000	-18351.180000	52915.050000	71546.310000	5697.990000	-10078.155000	-40702.815000	-7924.095000	-11.475091	-8.391120	-6.744410	-3.794358	-4.010252	12.263355	-24.328724	-14.410269	-3.082520	1.388660	-0.350980	-0.651182	-0.021240	0.748045	-1.000000	-1.000000	-1.000000	-1.000000	-1.000000	-1.000000	-1.000000	64.000000	0.000000	-1.000000	-1.000000	810641.000000	1776578020.891710
40377.645000	-18343.890000	52922.745000	71557.470000	5723.055000	-10011.105000	-40699.935000	-7923.240000	-11.751529	-5.373919	-2.853236	1.393286	-0.710628	-3.179601	-12.979225	-13.592428	-3.082520	1.388660	-0.350980	-0.651182	-0.021240	0.748045	-1.000000	-1.000000	-1.000000	-1.000000	-1.000000	-1.000000	-1.000000	64.000000	0.000000	-1.000000	-1.000000	810642.000000	1776578020.895646
40388.085000	-18324.315000	52936.335000	71564.760000	5736.240000	-10020.060000	-40705.560000	-7919.280000	-7.583189	0.576100	3.585915	7.305550	3.826945	-17.696156	0.837434	-8.368808	-3.082520	1.388660	-0.350980	-0.651182	-0.021240	0.748045	-1.000000	-1.000000	-1.000000	-1.000000	-1.000000	-1.000000	-1.000000	64.000000	0.000000	-1.000000	-1.000000	810643.000000	1776578020.895660
40392.270000	-18334.260000	52917.120000	71530.290000	5676.030000	-10083.735000	-40702.320000	-7910.055000	-1.134137	6.317536	8.016634	8.894022	5.702863	-24.205524	11.359785	-1.356146	-3.082520	1.388660	-0.350980	-0.651182	-0.021240	0.748045	-1.000000	-1.000000	-1.000000	-1.000000	-1.000000	-1.000000	-1.000000	64.000000	0.000000	-1.000000	-1.000000	810644.000000	1776578020.900091
40340.340000	-18400.680000	52850.205000	71449.965000	5571.585000	-10247.040000	-40712.355000	-7938.540000	3.789097	7.208454	5.604866	1.640016	-1.569911	-27.905550	15.571490	4.336721	-3.082520	1.388660	-0.350980	-0.651182	-0.021240	0.748045	-1.000000	-1.000000	-1.000000	-1.000000	-1.000000	-1.000000	-1.000000	64.000000	0.000000	-1.000000	-1.000000	810645.000000	1776578020.900103
40329.585000	-18410.445000	52848.855000	71466.660000	5602.995000	-10233.360000	-40731.345000	-7950.015000	2.994617	-0.171702	-4.939805	-13.267204	-18.176990	-35.518388	13.232498	5.603647	-3.082520	1.388660	-0.350980	-0.651182	-0.021240	0.748045	-1.000000	-1.000000	-1.000000	-1.000000	-1.000000	-1.000000	-1.000000	64.000000	0.000000	-1.000000	-1.000000	810646.000000	1776578020.908034
40350.330000	-18386.280000	52865.685000	71491.140000	5634.540000	-10161.720000	-40741.875000	-7941.330000	-2.315949	-11.014220	-16.294369	-24.568714	-29.890965	-37.023417	6.129989	2.369225	-3.082520	1.388660	-0.350980	-0.651182	-0.021240	0.748045	-1.000000	-1.000000	-1.000000	-1.000000	-1.000000	-1.000000	-1.000000	64.000000	0.000000	-1.000000	-1.000000	810647.000000	1776578020.908051
40363.875000	-18363.645000	52881.030000	71494.920000	5633.055000	-10137.735000	-40738.275000	-7935.210000	-4.726930	-14.025185	-17.186053	-20.025075	-21.404142	-15.229372	-1.827396	-1.041253	-2.823100	2.990960	0.610400	-0.650145	-0.026672	0.748045	-1.000000	-1.000000	-1.000000	-1.000000	-1.000000	-1.000000	-1.000000	64.000000	0.000000	-1.000000	-1.000000	810648.000000	1776578020.908062
40353.705000	-18359.640000	52883.730000	71490.285000	5635.350000	-10099.170000	-40701.915000	-7935.165000	0.058582	-4.183927	-4.714999	-0.930890	4.264083	27.160282	-5.392361	-0.704317	-2.823100	2.990960	0.610400	-0.650145	-0.026672	0.748045	-1.000000	-1.000000	-1.000000	-1.000000	-1.000000	-1.000000	-1.000000	64.000000	0.000000	-1.000000	-1.000000	810649.000000	1776578020.908067
40330.620000	-18381.195000	52848.900000	71450.280000	5623.560000	-10086.075000	-40703.175000	-7945.380000	7.480518	11.016995	12.016222	18.760936	29.476313	66.115454	-1.727930	2.562589	-2.823100	2.990960	0.610400	-0.650145	-0.026672	0.748045	-1.000000	-1.000000	-1.000000	-1.000000	-1.000000	-1.000000	-1.000000	64.000000	0.000000	-1.000000	-1.000000	810650.000000	1776578020.911745
40338.900000	-18385.245000	52851.465000	71456.220000	5641.785000	-10062.315000	-40720.500000	-7946.055000	10.390222	19.463003	20.762454	26.051164	39.590755	78.628303	5.368661	5.052760	-2.823100	2.990960	0.610400	-0.650145	-0.026672	0.748045	-1.000000	-1.000000	-1.000000	-1.000000	-1.000000	-1.000000	-1.000000	64.000000	0.000000	-1.000000	-1.000000	810651.000000	1776578020.911753
40356.990000	-18372.690000	52882.065000	71488.080000	5659.470000	-10059.705000	-40712.715000	-7933.905000	7.722182	16.236777	17.980869	20.144623	32.775470	58.767941	8.487920	4.846162	-2.823100	2.990960	0.610400	-0.650145	-0.026672	0.748045	-1.000000	-1.000000	-1.000000	-1.000000	-1.000000	-1.000000	-1.000000	64.000000	0.000000	-1.000000	-1.000000	810652.000000	1776578020.915709
40354.740000	-18384.480000	52869.465000	71482.455000	5650.515000	-10085.805000	-40698.450000	-7929.180000	3.749245	6.014025	9.785825	10.033562	16.448992	17.223714	5.192195	3.238588	-2.823100	2.990960	0.610400	-0.650145	-0.026672	0.748045	-1.000000	-1.000000	-1.000000	-1.000000	-1.000000	-1.000000	-1.000000	64.000000	0.000000	-1.000000	-1.000000	810653.000000	1776578020.915717
40351.320000	-18395.505000	52854.930000	71471.745000	5625.720000	-10188.135000	-40702.860000	-7930.800000	1.115750	-4.389940	1.797399	2.241241	-1.964747	-29.702779	-0.726009	1.835401	-2.823100	2.990960	0.610400	-0.650145	-0.026672	0.748045	-1.000000	-1.000000	-1.000000	-1.000000	-1.000000	-1.000000	-1.000000	64.000000	0.000000	-1.000000	-1.000000	810654.000000	1776578020.919782
40350.915000	-18389.340000	52853.805000	71468.865000	5624.820000	-10160.415000	-40692.375000	-7934.400000	-0.959461	-11.048666	-5.071467	-3.421065	-18.008459	-66.791929	-5.223194	0.424242	-2.823100	2.990960	0.610400	-0.650145	-0.026672	0.748045	-1.000000	-1.000000	-1.000000	-1.000000	-1.000000	-1.000000	-1.000000	64.000000	0.000000	-1.000000	-1.000000	810655.000000	1776578020.919816
40336.155000	-18386.145000	52857.135000	71469.360000	5629.005000	-10130.670000	-40694.310000	-7946.235000	-3.580796	-12.147865	-10.079858	-8.128587	-27.357802	-78.585364	-6.896299	-1.910012	-2.823100	2.990960	0.610400	-0.650145	-0.026672	0.748045	-1.000000	-1.000000	-1.000000	-1.000000	-1.000000	-1.000000	-1.000000	64.000000	0.000000	-1.000000	-1.000000	810656.000000	1776578020.923786
40334.355000	-18376.965000	52869.870000	71482.050000	5638.545000	-10156.590000	-40713.840000	-7951.005000	-6.553552	-7.774068	-11.043193	-10.665000	-26.323688	-57.548276	-6.609986	-5.090211	-2.823100	2.990960	0.610400	-0.650145	-0.026672	0.748045	-1.000000	-1.000000	-1.000000	-1.000000	-1.000000	-1.000000	-1.000000	64.000000	0.000000	-1.000000	-1.000000	810657.000000	1776578020.923800
40339.890000	-18372.105000	52872.660000	71484.255000	5636.430000	-10157.805000	-40723.335000	-7952.625000	-8.262393	-0.468712	-7.139352	-9.371122	-15.711568	-15.769901	-6.401591	-7.550728	-0.228900	4.059160	-1.480220	-0.650389	-0.032898	0.746153	-1.000000	-1.000000	-1.000000	-1.000000	-1.000000	-1.000000	-1.000000	64.000000	0.000000	-1.000000	-1.000000	810658.000000	1776578020.927825
40349.700000	-18365.130000	52878.780000	71487.180000	5651.235000	-10092.195000	-40703.265000	-7942.455000	-6.616316	6.036932	-0.622727	-4.871336	-1.155907	25.125769	-6.382444	-7.133127	-0.228900	4.059160	-1.480220	-0.650389	-0.032898	0.746153	-1.000000	-1.000000	-1.000000	-1.000000	-1.000000	-1.000000	-1.000000	64.000000	0.000000	-1.000000	-1.000000	810659.000000	1776578020.927837
40348.755000	-18373.590000	52869.465000	71474.085000	5636.250000	-10075.005000	-40705.200000	-7941.510000	-1.488697	8.686729	4.531869	-0.207577	10.587549	51.562692	-4.065199	-3.015842	-0.228900	4.059160	-1.480220	-0.650389	-0.032898	0.746153	-1.000000	-1.000000	-1.000000	-1.000000	-1.000000	-1.000000	-1.000000	64.000000	0.000000	-1.000000	-1.000000	810660.000000	1776578020.931825
40353.390000	-18369.495000	52878.420000	71485.155000	5655.420000	-10044.180000	-40708.350000	-7938.315000	4.389635	6.445849	5.602285	1.887109	15.281350	59.052940	1.194935	2.987393	-0.228900	4.059160	-1.480220	-0.650389	-0.032898	0.746153	-1.000000	-1.000000	-1.000000	-1.000000	-1.000000	-1.000000	-1.000000	64.000000	0.000000	-1.000000	-1.000000	810661.000000	1776578020.931836
40356.135000	-18365.445000	52886.070000	71497.485000	5682.240000	-10011.780000	-40702.365000	-7935.885000	7.772158	1.116333	3.224485	1.746835	13.626552	48.099891	6.494139	7.604137	-0.228900	4.059160	-1.480220	-0.650389	-0.032898	0.746153	-1.000000	-1.000000	-1.000000	-1.000000	-1.000000	-1.000000	-1.000000	64.000000	0.000000	-1.000000	-1.000000	810662.000000	1776578020.935736
40356.540000	-18363.645000	52886.880000	71495.595000	5667.480000	-10144.260000	-40715.730000	-7938.495000	7.348644	-3.828995	0.168278	1.551302	9.271739	21.851215	8.741078	8.565367	-0.228900	4.059160	-1.480220	-0.650389	-0.032898	0.746153	-1.000000	-1.000000	-1.000000	-1.000000	-1.000000	-1.000000	-1.000000	64.000000	0.000000	-1.000000	-1.000000	810663.000000	1776578020.935759
40345.515000	-18384.480000	52878.420000	71482.680000	5644.935000	-10183.545000	-40725.855000	-7951.995000	3.698838	-6.416180	-1.970830	1.590497	3.313647	-15.940870	6.727120	5.501422	-0.228900	4.059160	-1.480220	-0.650389	-0.032898	0.746153	-1.000000	-1.000000	-1.000000	-1.000000	-1.000000	-1.000000	-1.000000	64.000000	0.000000	-1.000000	-1.000000	810664.000000	1776578020.939673
40339.305000	-18390.240000	52878.960000	71489.880000	5654.205000	-10162.980000	-40723.470000	-7957.080000	-1.701025	-7.286524	-3.447542	0.502890	-4.724958	-52.973657	1.613204	-0.318095	-0.228900	4.059160	-1.480220	-0.650389	-0.032898	0.746153	-1.000000	-1.000000	-1.000000	-1.000000	-1.000000	-1.000000	-1.000000	64.000000	0.000000	-1.000000	-1.000000	810665.000000	1776578020.939681
40335.885000	-18367.920000	52883.190000	71487.855000	5629.545000	-10199.790000	-40722.165000	-7961.355000	-6.666349	-6.695526	-4.293090	-1.500845	-12.301547	-68.398314	-3.188543	-6.124610	-0.228900	4.059160	-1.480220	-0.650389	-0.032898	0.746153	-1.000000	-1.000000	-1.000000	-1.000000	-1.000000	-1.000000	-1.000000	64.000000	0.000000	-1.000000	-1.000000	810666.000000	1776578020.945291
40343.310000	-18332.505000	52892.370000	71490.285000	5630.760000	-10193.355000	-40721.265000	-7957.980000	-8.644694	-2.544167	-3.560249	-2.713832	-15.651098	-52.574094	-4.644045	-8.764912	-0.228900	4.059160	-1.480220	-0.650389	-0.032898	0.746153	-1.000000	-1.000000	-1.000000	-1.000000	-1.000000	-1.000000	-1.000000	64.000000	0.000000	-1.000000	-1.000000	810667.000000	1776578020.945298
40341.960000	-18341.055000	52890.300000	71493.345000	5652.360000	-10104.525000	-40720.680000	-7959.690000	-6.287193	5.573048	-0.923610	-2.182233	-12.687347	-13.899441	-2.593530	-6.812369	-0.091560	4.806900	-2.960440	-0.650267	-0.028992	0.746458	-1.000000	-1.000000	-1.000000	-1.000000	-1.000000	-1.000000	-1.000000	64.000000	0.000000	-1.000000	-1.000000	810668.000000	1776578020.947756
40335.480000	-18361.980000	52878.510000	71483.805000	5659.560000	-10067.580000	-40735.440000	-7962.660000	-1.042839	12.195217	1.937770	-0.481158	-3.429950	31.938871	0.569241	-1.687555	-0.091560	4.806900	-2.960440	-0.650267	-0.028992	0.746458	-1.000000	-1.000000	-1.000000	-1.000000	-1.000000	-1.000000	-1.000000	64.000000	0.000000	-1.000000	-1.000000	810669.000000	1776578020.947763
40333.455000	-18372.195000	52870.680000	71479.935000	5656.725000	-10106.190000	-40752.225000	-7962.840000	3.721587	10.630053	2.567506	0.824015	8.281491	65.656423	1.790310	3.505203	-0.091560	4.806900	-2.960440	-0.650267	-0.028992	0.746458	-1.000000	-1.000000	-1.000000	-1.000000	-1.000000	-1.000000	-1.000000	64.000000	0.000000	-1.000000	-1.000000	810670.000000	1776578020.951806
40338.855000	-18375.480000	52869.600000	71482.905000	5660.685000	-10108.530000	-40745.835000	-7953.705000	5.790474	1.089327	0.549238	0.859039	15.971471	69.143671	0.116361	6.524566	-0.091560	4.806900	-2.960440	-0.650267	-0.028992	0.746458	-1.000000	-1.000000	-1.000000	-1.000000	-1.000000	-1.000000	-1.000000	64.000000	0.000000	-1.000000	-1.000000	810671.000000	1776578020.951822
40346.505000	-18368.820000	52881.300000	71496.585000	5674.410000	-10086.570000	-40708.710000	-7939.440000	5.592820	-9.218887	-1.679589	0.667892	16.059952	40.926736	-1.355867	7.343593	-0.091560	4.806900	-2.960440	-0.650267	-0.028992	0.746458	-1.000000	-1.000000	-1.000000	-1.000000	-1.000000	-1.000000	-1.000000	64.000000	0.000000	-1.000000	-1.000000	810672.000000	1776578020.955772
40351.860000	-18370.575000	52873.785000	71489.835000	5685.705000	-9977.670000	-40687.605000	-7932.465000	4.657108	-13.158002	-1.505817	1.571218	10.364320	1.458548	1.622693	6.972510	-0.091560	4.806900	-2.960440	-0.650267	-0.028992	0.746458	-1.000000	-1.000000	-1.000000	-1.000000	-1.000000	-1.000000	-1.000000	64.000000	0.000000	-1.000000	-1.000000	810673.000000	1776578020.955797
40358.655000	-18359.730000	52881.075000	71495.010000	5703.120000	-9886.950000	-40684.635000	-7929.675000	3.702053	-9.051666	0.966152	2.959465	3.211460	-22.834260	8.336867	5.566933	-0.091560	4.806900	-2.960440	-0.650267	-0.028992	0.746458	-1.000000	-1.000000	-1.000000	-1.000000	-1.000000	-1.000000	-1.000000	64.000000	0.000000	-1.000000	-1.000000	810674.000000	1776578020.959733
40355.370000	-18357.120000	52886.835000	71502.030000	5710.680000	-9925.065000	-40682.880000	-7934.895000	2.350687	-0.318065	3.766344	3.389285	-2.226436	-23.244697	12.572959	2.375950	-0.091560	4.806900	-2.960440	-0.650267	-0.028992	0.746458	-1.000000	-1.000000	-1.000000	-1.000000	-1.000000	-1.000000	-1.000000	64.000000	0.000000	-1.000000	-1.000000	810675.000000	1776578020.959756
40345.965000	-18366.840000	52875.945000	71484.075000	5641.695000	-10282.455000	-40704.885000	-7945.020000	-0.203966	7.607515	5.111445	2.239802	-6.639100	-21.344543	8.908369	-2.827040	-0.091560	4.806900	-2.960440	-0.650267	-0.028992	0.746458	-1.000000	-1.000000	-1.000000	-1.000000	-1.000000	-1.000000	-1.000000	64.000000	0.000000	-1.000000	-1.000000	810676.000000	1776578020.963748
40339.080000	-18370.215000	52871.535000	71473.770000	5619.780000	-10291.005000	-40720.905000	-7955.595000	-4.124164	10.297700	3.771268	-0.803606	-13.527501	-44.739199	-2.513444	-8.793833	-0.091560	4.806900	-2.960440	-0.650267	-0.028992	0.746458	-1.000000	-1.000000	-1.000000	-1.000000	-1.000000	-1.000000	-1.000000	64.000000	0.000000	-1.000000	-1.000000	810677.000000	1776578020.963760
40326.570000	-18379.170000	52862.670000	71465.310000	5615.280000	-10247.130000	-40716.540000	-7969.680000	-8.138935	6.952075	-0.115369	-5.128563	-21.767771	-80.303094	-15.765930	-13.183381	-2.807840	5.142620	-0.259420	-0.650877	-0.023926	0.746214	-1.000000	-1.000000	-1.000000	-1.000000	-1.000000	-1.000000	-1.000000	64.000000	0.000000	-1.000000	-1.000000	810678.000000	1776578020.967795
40318.830000	-18387.720000	52853.040000	71457.930000	5622.525000	-10195.200000	-40714.515000	-7973.640000	-10.259512	0.382059	-4.626614	-8.363525	-23.478044	-81.445563	-22.584672	-13.812334	-2.807840	5.142620	-0.259420	-0.650877	-0.023926	0.746214	-1.000000	-1.000000	-1.000000	-1.000000	-1.000000	-1.000000	-1.000000	64.000000	0.000000	-1.000000	-1.000000	810679.000000	1776578020.967818
40316.130000	-18391.680000	52850.520000	71457.660000	5623.740000	-10162.305000	-40715.055000	-7969.005000	-9.055573	-5.490832	-7.391042	-8.117217	-13.190132	-27.518982	-18.603073	-9.599908	-2.807840	5.142620	-0.259420	-0.650877	-0.023926	0.746214	-1.000000	-1.000000	-1.000000	-1.000000	-1.000000	-1.000000	-1.000000	64.000000	0.000000	-1.000000	-1.000000	810680.000000	1776578020.971767
40325.760000	-18390.105000	52855.695000	71460.720000	5633.505000	-10153.575000	-40721.175000	-7957.395000	-4.184763	-7.712856	-6.735537	-3.837286	5.470188	52.977774	-6.714218	-1.100551	-2.807840	5.142620	-0.259420	-0.650877	-0.023926	0.746214	-1.000000	-1.000000	-1.000000	-1.000000	-1.000000	-1.000000	-1.000000	64.000000	0.000000	-1.000000	-1.000000	810681.000000	1776578020.971780
40327.560000	-18392.805000	52852.455000	71456.580000	5629.725000	-10135.755000	-40720.410000	-7954.740000	3.220997	-5.487140	-2.564115	2.752741	22.977667	112.420402	6.067903	8.961898	-2.807840	5.142620	-0.259420	-0.650877	-0.023926	0.746214	-1.000000	-1.000000	-1.000000	-1.000000	-1.000000	-1.000000	-1.000000	64.000000	0.000000	-1.000000	-1.000000	810682.000000	1776578020.975960
40329.495000	-18383.580000	52853.310000	71450.415000	5627.205000	-10120.770000	-40715.865000	-7954.605000	10.269592	-0.344614	3.050999	8.321958	30.745198	121.335759	14.174701	16.202517	-2.807840	5.142620	-0.259420	-0.650877	-0.023926	0.746214	-1.000000	-1.000000	-1.000000	-1.000000	-1.000000	-1.000000	-1.000000	64.000000	0.000000	-1.000000	-1.000000	810683.000000	1776578020.975996
40338.360000	-18370.215000	52864.245000	71460.495000	5636.070000	-10128.870000	-40723.155000	-7948.665000	13.750539	5.319577	7.368768	10.261859	26.162853	82.082785	15.884030	17.169979	-2.807840	5.142620	-0.259420	-0.650877	-0.023926	0.746214	-1.000000	-1.000000	-1.000000	-1.000000	-1.000000	-1.000000	-1.000000	64.000000	0.000000	-1.000000	-1.000000	810684.000000	1776578020.979884
40332.420000	-18378.855000	52867.125000	71469.135000	5652.315000	-10113.705000	-40724.055000	-7950.690000	12.290593	9.218470	9.040766	8.829561	13.617986	18.849613	12.171651	11.826210	-2.807840	5.142620	-0.259420	-0.650877	-0.023926	0.746214	-1.000000	-1.000000	-1.000000	-1.000000	-1.000000	-1.000000	-1.000000	64.000000	0.000000	-1.000000	-1.000000	810685.000000	1776578020.979919
40334.355000	-18375.570000	52874.280000	71487.405000	5671.575000	-10104.615000	-40724.145000	-7953.840000	6.662979	9.225986	8.027604	6.229004	0.676350	-39.085512	5.511547	2.995193	-2.807840	5.142620	-0.259420	-0.650877	-0.023926	0.746214	-1.000000	-1.000000	-1.000000	-1.000000	-1.000000	-1.000000	-1.000000	64.000000	0.000000	-1.000000	-1.000000	810686.000000	1776578020.983975
40323.195000	-18389.025000	52853.625000	71460.135000	5642.820000	-10145.520000	-40738.005000	-7962.705000	-0.972034	4.734570	4.438855	3.444194	-8.113177	-72.079997	-1.196287	-5.862463	-2.807840	5.142620	-0.259420	-0.650877	-0.023926	0.746214	-1.000000	-1.000000	-1.000000	-1.000000	-1.000000	-1.000000	-1.000000	64.000000	0.000000	-1.000000	-1.000000	810687.000000	1776578020.984022
40301.910000	-18411.255000	52825.680000	71424.495000	5607.495000	-10196.505000	-40756.770000	-7979.265000	-8.246634	-2.714929	-1.935897	-1.461490	-14.144400	-77.729234	-6.372040	-12.221346	-1.846460	4.852680	1.587040	-0.653807	-0.028809	0.743040	-1.000000	-1.000000	-1.000000	-1.000000	-1.000000	-1.000000	-1.000000	64.000000	0.000000	-1.000000	-1.000000	810688.000000	1776578020.987934
40316.580000	-18397.665000	52841.160000	71445.870000	5631.795000	-10161.675000	-40747.815000	-7969.365000	-12.984230	-9.946097	-9.605516	-9.179217	-19.389478	-63.703267	-9.332985	-14.562447	-1.846460	4.852680	1.587040	-0.653807	-0.028809	0.743040	-1.000000	-1.000000	-1.000000	-1.000000	-1.000000	-1.000000	-1.000000	64.000000	0.000000	-1.000000	-1.000000	810689.000000	1776578020.987947
40350.330000	-18351.135000	52889.625000	71494.335000	5668.470000	-10116.720000	-40709.340000	-7949.520000	-12.098801	-11.845469	-12.893387	-13.846624	-19.860890	-35.559426	-8.021113	-11.462591	-1.846460	4.852680	1.587040	-0.653807	-0.028809	0.743040	-1.000000	-1.000000	-1.000000	-1.000000	-1.000000	-1.000000	-1.000000	64.000000	0.000000	-1.000000	-1.000000	810690.000000	1776578020.991879
40344.345000	-18355.635000	52884.405000	71488.125000	5659.650000	-10123.875000	-40702.095000	-7952.130000	-4.144975	-5.069204	-6.832505	-8.860037	-11.006465	1.325730	-0.753255	-3.061511	-1.846460	4.852680	1.587040	-0.653807	-0.028809	0.743040	-1.000000	-1.000000	-1.000000	-1.000000	-1.000000	-1.000000	-1.000000	64.000000	0.000000	-1.000000	-1.000000	810691.000000	1776578020.991893
40335.795000	-18366.165000	52869.420000	71472.105000	5662.260000	-10130.130000	-40700.925000	-7951.320000	6.129545	5.756854	4.479166	2.436638	3.098131	34.028267	8.967515	6.543770	-1.846460	4.852680	1.587040	-0.653807	-0.028809	0.743040	-1.000000	-1.000000	-1.000000	-1.000000	-1.000000	-1.000000	-1.000000	64.000000	0.000000	-1.000000	-1.000000	810692.000000	1776578020.995912
40329.405000	-18368.010000	52867.350000	71467.020000	5656.770000	-10136.925000	-40705.020000	-7947.765000	11.048108	11.407131	11.077193	9.719818	13.154358	48.332648	13.857432	11.903459	-1.846460	4.852680	1.587040	-0.653807	-0.028809	0.743040	-1.000000	-1.000000	-1.000000	-1.000000	-1.000000	-1.000000	-1.000000	64.000000	0.000000	-1.000000	-1.000000	810693.000000	1776578020.995923
40327.605000	-18370.620000	52868.925000	71465.580000	5635.755000	-10145.385000	-40710.195000	-7942.050000	7.847510	8.005230	8.455659	7.833450	13.723882	40.629477	9.895333	11.030913	-1.846460	4.852680	1.587040	-0.653807	-0.028809	0.743040	-1.000000	-1.000000	-1.000000	-1.000000	-1.000000	-1.000000	-1.000000	64.000000	0.000000	-1.000000	-1.000000	810694.000000	1776578020.999853
40323.150000	-18367.110000	52861.545000	71456.130000	5609.070000	-10173.420000	-40718.160000	-7944.930000	0.174445	-0.536706	0.396973	0.193347	5.578974	18.674729	-0.532621	5.843101	-1.846460	4.852680	1.587040	-0.653807	-0.028809	0.743040	-1.000000	-1.000000	-1.000000	-1.000000	-1.000000	-1.000000	-1.000000	64.000000	0.000000	-1.000000	-1.000000	810695.000000	1776578020.999880
40322.160000	-18362.520000	52860.735000	71457.390000	5613.435000	-10248.660000	-40722.615000	-7951.320000	-6.420585	-7.697778	-6.976225	-6.912986	-5.814263	-6.796438	-11.341124	-0.683324	-1.846460	4.852680	1.587040	-0.653807	-0.028809	0.743040	-1.000000	-1.000000	-1.000000	-1.000000	-1.000000	-1.000000	-1.000000	64.000000	0.000000	-1.000000	-1.000000	810696.000000	1776578021.003845
40317.435000	-18393.840000	52868.205000	71475.480000	5646.240000	-10178.145000	-40728.465000	-7963.830000	-8.595184	-10.062465	-9.709068	-8.923062	-12.210952	-25.950827	-17.025775	-6.424033	-1.846460	4.852680	1.587040	-0.653807	-0.028809	0.743040	-1.000000	-1.000000	-1.000000	-1.000000	-1.000000	-1.000000	-1.000000	64.000000	0.000000	-1.000000	-1.000000	810697.000000	1776578021.003865
40305.510000	-18403.830000	52874.235000	71485.200000	5668.785000	-10118.250000	-40735.485000	-7975.215000	-6.518663	-9.065731	-6.887319	-4.522341	-7.679210	-27.797017	-15.546893	-10.164352	0.656180	4.288060	-1.663340	-0.656065	-0.034912	0.740355	-1.000000	-1.000000	-1.000000	-1.000000	-1.000000	-1.000000	-1.000000	64.000000	0.000000	-1.000000	-1.000000	810698.000000	1776578021.010017
40294.980000	-18375.705000	52868.430000	71480.430000	5674.230000	-10076.715000	-40735.890000	-7989.525000	-2.740722	-6.413245	-0.694339	3.350719	5.319618	-7.922679	-8.553198	-11.178942	0.656180	4.288060	-1.663340	-0.656065	-0.034912	0.740355	-1.000000	-1.000000	-1.000000	-1.000000	-1.000000	-1.000000	-1.000000	64.000000	0.000000	-1.000000	-1.000000	810699.000000	1776578021.010056
40286.070000	-18360.225000	52872.705000	71480.205000	5665.185000	-10091.970000	-40720.545000	-7983.855000	0.310826	-0.717295	4.868867	9.043665	16.836240	20.749382	0.808472	-8.954713	0.656180	4.288060	-1.663340	-0.656065	-0.034912	0.740355	-1.000000	-1.000000	-1.000000	-1.000000	-1.000000	-1.000000	-1.000000	64.000000	0.000000	-1.000000	-1.000000	810700.000000	1776578021.012056
40274.955000	-18355.815000	52856.595000	71497.080000	5684.445000	-10099.845000	-40691.835000	-7961.400000	1.876351	8.036781	6.750141	9.215411	18.374756	36.237050	10.147710	-2.933150	0.656180	4.288060	-1.663340	-0.656065	-0.034912	0.740355	-1.000000	-1.000000	-1.000000	-1.000000	-1.000000	-1.000000	-1.000000	64.000000	0.000000	-1.000000	-1.000000	810701.000000	1776578021.012065
40265.640000	-18469.665000	52774.605000	71486.370000	5688.630000	-10089.495000	-40662.720000	-7959.780000	2.389530	13.160961	2.995339	5.109685	10.057167	27.492432	17.884817	6.190543	0.656180	4.288060	-1.663340	-0.656065	-0.034912	0.740355	-1.000000	-1.000000	-1.000000	-1.000000	-1.000000	-1.000000	-1.000000	64.000000	0.000000	-1.000000	-1.000000	810702.000000	1776578021.017287
40268.385000	-18554.310000	52773.795000	71460.630000	5651.055000	-10048.545000	-40676.085000	-7973.235000	2.717870	4.890241	-6.567468	-0.981261	-2.533600	3.120005	21.322510	14.258446	0.656180	4.288060	-1.663340	-0.656065	-0.034912	0.740355	-1.000000	-1.000000	-1.000000	-1.000000	-1.000000	-1.000000	-1.000000	64.000000	0.000000	-1.000000	-1.000000	810703.000000	1776578021.017301
40288.725000	-18443.250000	52879.680000	71469.540000	5655.015000	-10061.820000	-40683.690000	-7964.010000	4.112385	-13.621804	-13.834890	-7.500367	-14.558290	-19.295926	16.603175	16.012866	0.656180	4.288060	-1.663340	-0.656065	-0.034912	0.740355	-1.000000	-1.000000	-1.000000	-1.000000	-1.000000	-1.000000	-1.000000	64.000000	0.000000	-1.000000	-1.000000	810704.000000	1776578021.019813
40274.055000	-18358.740000	52978.320000	71521.695000	5703.480000	-10147.905000	-40696.380000	-7954.785000	6.864033	-20.279674	-4.758709	-10.526456	-20.788943	-31.035973	3.151904	10.803977	0.656180	4.288060	-1.663340	-0.656065	-0.034912	0.740355	-1.000000	-1.000000	-1.000000	-1.000000	-1.000000	-1.000000	-1.000000	64.000000	0.000000	-1.000000	-1.000000	810705.000000	1776578021.019827
40250.250000	-18333.495000	52954.785000	71534.430000	5719.095000	-10124.055000	-40711.545000	-7958.610000	8.156669	-0.016939	20.962967	-5.457724	-15.842006	-34.643401	-13.550103	2.690682	0.656180	4.288060	-1.663340	-0.656065	-0.034912	0.740355	-1.000000	-1.000000	-1.000000	-1.000000	-1.000000	-1.000000	-1.000000	64.000000	0.000000	-1.000000	-1.000000	810706.000000	1776578021.024046
40231.035000	-18370.395000	52857.855000	71496.135000	5685.660000	-10052.280000	-40708.440000	-7975.755000	4.360661	31.839672	40.173248	4.710749	-2.278328	-29.628567	-25.312147	-4.740261	0.656180	4.288060	-1.663340	-0.656065	-0.034912	0.740355	-1.000000	-1.000000	-1.000000	-1.000000	-1.000000	-1.000000	-1.000000	64.000000	0.000000	-1.000000	-1.000000	810707.000000	1776578021.024061
40260.645000	-18461.385000	52845.255000	71475.750000	5673.960000	-10026.990000	-40698.765000	-7975.125000	-3.083253	44.284843	29.149037	9.576552	8.660543	-10.783803	-26.109479	-10.229009	2.075360	5.936140	-0.854560	-0.657286	-0.032654	0.739134	-1.000000	-1.000000	-1.000000	-1.000000	-1.000000	-1.000000	-1.000000	64.000000	0.000000	-1.000000	-1.000000	810708.000000	1776578021.028004
40289.985000	-18455.355000	52795.890000	71439.030000	5635.215000	-10222.155000	-40715.685000	-7975.170000	-7.148583	22.765436	-8.377132	3.111404	8.607336	13.428531	-15.836291	-12.639191	2.075360	5.936140	-0.854560	-0.657286	-0.032654	0.739134	-1.000000	-1.000000	-1.000000	-1.000000	-1.000000	-1.000000	-1.000000	64.000000	0.000000	-1.000000	-1.000000	810709.000000	1776578021.028015
40327.155000	-18386.640000	52822.710000	71422.155000	5622.705000	-10173.330000	-40744.710000	-7977.735000	-2.625855	-15.429590	-45.343083	-10.016530	-0.661611	21.993320	-1.374543	-10.777551	2.075360	5.936140	-0.854560	-0.657286	-0.032654	0.739134	-1.000000	-1.000000	-1.000000	-1.000000	-1.000000	-1.000000	-1.000000	64.000000	0.000000	-1.000000	-1.000000	810710.000000	1776578021.031925
40354.020000	-18324.720000	52883.370000	71427.870000	5625.855000	-10117.080000	-40749.885000	-7973.955000	7.914835	-37.890427	-55.530479	-19.359682	-10.299234	12.288296	8.775168	-5.271064	2.075360	5.936140	-0.854560	-0.657286	-0.032654	0.739134	-1.000000	-1.000000	-1.000000	-1.000000	-1.000000	-1.000000	-1.000000	64.000000	0.000000	-1.000000	-1.000000	810711.000000	1776578021.031937
40336.920000	-18347.895000	52856.640000	71419.095000	5609.790000	-10166.355000	-40751.460000	-7980.930000	15.797246	-29.955836	-32.426244	-17.077946	-11.976572	3.208113	11.866400	1.368443	2.075360	5.936140	-0.854560	-0.657286	-0.032654	0.739134	-1.000000	-1.000000	-1.000000	-1.000000	-1.000000	-1.000000	-1.000000	64.000000	0.000000	-1.000000	-1.000000	810712.000000	1776578021.035803
40318.380000	-18371.205000	52831.305000	71423.370000	5617.260000	-10211.130000	-40756.410000	-7991.775000	12.589374	-6.313745	5.764862	-3.824238	-4.342839	3.433024	10.930625	6.055241	2.075360	5.936140	-0.854560	-0.657286	-0.032654	0.739134	-1.000000	-1.000000	-1.000000	-1.000000	-1.000000	-1.000000	-1.000000	64.000000	0.000000	-1.000000	-1.000000	810713.000000	1776578021.035817
40314.825000	-18367.875000	52834.905000	71428.590000	5642.550000	-10123.605000	-40746.555000	-7991.505000	-2.446812	9.745117	32.923614	12.757876	8.076719	7.049060	9.525094	6.927469	2.075360	5.936140	-0.854560	-0.657286	-0.032654	0.739134	-1.000000	-1.000000	-1.000000	-1.000000	-1.000000	-1.000000	-1.000000	64.000000	0.000000	-1.000000	-1.000000	810714.000000	1776578021.039924
40312.620000	-18363.420000	52845.660000	71446.635000	5667.390000	-10073.745000	-40736.115000	-7990.470000	-20.359832	9.798852	37.802355	24.666512	19.982998	12.677035	9.161999	4.871228	2.075360	5.936140	-0.854560	-0.657286	-0.032654	0.739134	-1.000000	-1.000000	-1.000000	-1.000000	-1.000000	-1.000000	-1.000000	64.000000	0.000000	-1.000000	-1.000000	810715.000000	1776578021.039934
40316.805000	-18354.825000	52868.700000	71473.230000	5681.160000	-10085.895000	-40721.760000	-7983.090000	-29.785606	1.135094	26.906578	28.148325	26.810435	20.896673	9.537392	2.519735	2.075360	5.936140	-0.854560	-0.657286	-0.032654	0.739134	-1.000000	-1.000000	-1.000000	-1.000000	-1.000000	-1.000000	-1.000000	64.000000	0.000000	-1.000000	-1.000000	810716.000000	1776578021.043887
40328.685000	-18351.495000	52872.525000	71458.110000	5621.580000	-10185.705000	-40714.650000	-7966.890000	-25.402798	-5.967026	12.104047	23.230257	23.760773	22.009352	9.126058	1.939077	2.075360	5.936140	-0.854560	-0.657286	-0.032654	0.739134	-1.000000	-1.000000	-1.000000	-1.000000	-1.000000	-1.000000	-1.000000	64.000000	0.000000	-1.000000	-1.000000	810717.000000	1776578021.043900
40336.785000	-18359.730000	52856.820000	71427.420000	5592.780000	-10197.090000	-40703.220000	-7952.715000	-10.111077	-7.014164	0.089046	10.600829	7.810681	5.188895	6.373227	3.472705	13.062560	9.262820	0.259420	-0.653013	-0.032654	0.735228	-1.000000	-1.000000	-1.000000	-1.000000	-1.000000	-1.000000	-1.000000	64.000000	0.000000	-1.000000	-1.000000	810718.000000	1776578021.047796
40327.695000	-18372.690000	52848.810000	71420.085000	5584.095000	-10251.495000	-40697.730000	-7952.670000	7.673880	-3.962391	-8.852823	-7.524618	-15.885611	-23.956913	1.091053	5.430941	13.062560	9.262820	0.259420	-0.653013	-0.032654	0.735228	-1.000000	-1.000000	-1.000000	-1.000000	-1.000000	-1.000000	-1.000000	64.000000	0.000000	-1.000000	-1.000000	810719.000000	1776578021.047805
40320.180000	-18378.270000	52849.080000	71423.595000	5577.705000	-10266.030000	-40709.700000	-7960.320000	18.953567	-0.787224	-15.389625	-24.104121	-33.873609	-46.677953	-5.614257	4.854207	13.062560	9.262820	0.259420	-0.653013	-0.032654	0.735228	-1.000000	-1.000000	-1.000000	-1.000000	-1.000000	-1.000000	-1.000000	64.000000	0.000000	-1.000000	-1.000000	810720.000000	1776578021.051751
40311.495000	-18379.215000	52847.460000	71427.510000	5596.065000	-10215.000000	-40706.685000	-7969.770000	19.457526	0.844345	-17.973057	-30.419040	-34.950733	-47.153905	-12.150889	0.026447	13.062560	9.262820	0.259420	-0.653013	-0.032654	0.735228	-1.000000	-1.000000	-1.000000	-1.000000	-1.000000	-1.000000	-1.000000	64.000000	0.000000	-1.000000	-1.000000	810721.000000	1776578021.051758
40304.205000	-18392.040000	52849.035000	71435.205000	5619.060000	-10213.290000	-40707.675000	-7973.595000	11.516972	1.671340	-15.089178	-23.350068	-18.284154	-22.179470	-16.243685	-7.380078	13.062560	9.262820	0.259420	-0.653013	-0.032654	0.735228	-1.000000	-1.000000	-1.000000	-1.000000	-1.000000	-1.000000	-1.000000	64.000000	0.000000	-1.000000	-1.000000	810722.000000	1776578021.055984
40321.845000	-18385.920000	52833.600000	71452.755000	5635.980000	-10199.070000	-40692.690000	-7958.475000	1.587816	2.595393	-7.998931	-7.297336	7.231136	15.613201	-15.469898	-12.840914	13.062560	9.262820	0.259420	-0.653013	-0.032654	0.735228	-1.000000	-1.000000	-1.000000	-1.000000	-1.000000	-1.000000	-1.000000	64.000000	0.000000	-1.000000	-1.000000	810723.000000	1776578021.055991
40327.065000	-18389.295000	52858.575000	71457.930000	5650.020000	-10132.740000	-40698.540000	-7958.790000	-4.016923	3.961088	0.172913	9.671948	28.571581	46.438594	-9.441072	-12.304088	13.062560	9.262820	0.259420	-0.653013	-0.032654	0.735228	-1.000000	-1.000000	-1.000000	-1.000000	-1.000000	-1.000000	-1.000000	64.000000	0.000000	-1.000000	-1.000000	810724.000000	1776578021.060080
40305.330000	-18402.390000	52864.380000	71448.840000	5657.805000	-10055.295000	-40692.375000	-7974.090000	-3.799692	5.248818	7.387004	19.913269	35.912744	59.209637	-0.934337	-6.242470	13.062560	9.262820	0.259420	-0.653013	-0.032654	0.735228	-1.000000	-1.000000	-1.000000	-1.000000	-1.000000	-1.000000	-1.000000	64.000000	0.000000	-1.000000	-1.000000	810725.000000	1776578021.060120
40292.235000	-18418.635000	52845.525000	71450.280000	5658.795000	-9970.065000	-40693.230000	-7979.805000	-1.814495	4.843140	12.054732	19.427829	27.332667	54.900289	6.083105	0.592192	13.062560	9.262820	0.259420	-0.653013	-0.032654	0.735228	-1.000000	-1.000000	-1.000000	-1.000000	-1.000000	-1.000000	-1.000000	64.000000	0.000000	-1.000000	-1.000000	810726.000000	1776578021.063967
40305.060000	-18405.540000	52839.270000	71440.200000	5639.085000	-10091.205000	-40677.705000	-7967.790000	-1.659867	2.280112	11.555343	10.015430	7.998540	35.506638	9.482978	4.570273	13.062560	9.262820	0.259420	-0.653013	-0.032654	0.735228	-1.000000	-1.000000	-1.000000	-1.000000	-1.000000	-1.000000	-1.000000	64.000000	0.000000	-1.000000	-1.000000	810727.000000	1776578021.063986
40316.670000	-18371.565000	52814.655000	71440.020000	5618.610000	-10174.995000	-40635.855000	-7943.580000	-1.993569	0.457385	5.137101	-2.323224	-13.883721	-2.295918	10.305630	6.510044	13.810300	14.786940	-6.058220	-0.653990	-0.035095	0.742979	-1.000000	-1.000000	-1.000000	-1.000000	-1.000000	-1.000000	-1.000000	64.000000	0.000000	-1.000000	-1.000000	810728.000000	1776578021.067944
40290.345000	-18401.715000	52774.830000	71443.980000	5571.360000	-10242.945000	-40620.645000	-7935.120000	-0.600298	1.954853	-4.643929	-11.263837	-30.867738	-53.710885	10.943362	8.698202	13.810300	14.786940	-6.058220	-0.653990	-0.035095	0.742979	-1.000000	-1.000000	-1.000000	-1.000000	-1.000000	-1.000000	-1.000000	64.000000	0.000000	-1.000000	-1.000000	810729.000000	1776578021.067954
40295.025000	-18385.245000	52809.570000	71482.680000	5566.275000	-10266.030000	-40610.745000	-7925.220000	1.149701	4.298082	-12.838296	-12.547339	-37.952792	-95.207270	11.124593	10.696153	13.810300	14.786940	-6.058220	-0.653990	-0.035095	0.742979	-1.000000	-1.000000	-1.000000	-1.000000	-1.000000	-1.000000	-1.000000	64.000000	0.000000	-1.000000	-1.000000	810730.000000	1776578021.071902
40323.285000	-18366.750000	52858.935000	71565.480000	5682.870000	-10246.500000	-40662.360000	-7932.015000	1.887620	4.172087	-12.300258	-4.291688	-30.192773	-99.857760	6.888134	9.716081	13.810300	14.786940	-6.058220	-0.653990	-0.035095	0.742979	-1.000000	-1.000000	-1.000000	-1.000000	-1.000000	-1.000000	-1.000000	64.000000	0.000000	-1.000000	-1.000000	810731.000000	1776578021.071910
40309.425000	-18453.960000	52809.435000	71544.060000	5721.120000	-10151.145000	-40707.090000	-7964.730000	2.844463	0.607979	-0.810610	10.337522	-4.335228	-58.363753	-5.354313	3.510800	13.810300	14.786940	-6.058220	-0.653990	-0.035095	0.742979	-1.000000	-1.000000	-1.000000	-1.000000	-1.000000	-1.000000	-1.000000	64.000000	0.000000	-1.000000	-1.000000	810732.000000	1776578021.075897
40276.170000	-18421.920000	52829.370000	71454.060000	5627.025000	-10174.005000	-40664.745000	-7990.470000	3.232731	-6.961463	12.514943	18.774450	28.221698	12.719415	-21.509041	-7.551560	13.810300	14.786940	-6.058220	-0.653990	-0.035095	0.742979	-1.000000	-1.000000	-1.000000	-1.000000	-1.000000	-1.000000	-1.000000	64.000000	0.000000	-1.000000	-1.000000	810733.000000	1776578021.075906
40286.880000	-18364.950000	52917.120000	71432.325000	5590.620000	-10228.860000	-40689.630000	-7984.395000	0.319005	-13.440387	18.904081	8.134253	42.239993	76.095298	-29.537963	-18.699890	13.810300	14.786940	-6.058220	-0.653990	-0.035095	0.742979	-1.000000	-1.000000	-1.000000	-1.000000	-1.000000	-1.000000	-1.000000	64.000000	0.000000	-1.000000	-1.000000	810734.000000	1776578021.080035
40284.990000	-18380.835000	52874.280000	71392.230000	5589.180000	-10173.015000	-40730.715000	-7992.990000	-4.477744	-10.077185	18.969688	-17.402203	25.934130	98.667563	-23.130080	-22.500150	13.810300	14.786940	-6.058220	-0.653990	-0.035095	0.742979	-1.000000	-1.000000	-1.000000	-1.000000	-1.000000	-1.000000	-1.000000	64.000000	0.000000	-1.000000	-1.000000	810735.000000	1776578021.080048
40285.935000	-18429.930000	52857.720000	71382.330000	5610.915000	-10166.895000	-40772.160000	-8003.520000	-6.605090	0.746847	12.829819	-38.753230	-4.689408	77.908904	-9.150495	-15.655974	13.810300	14.786940	-6.058220	-0.653990	-0.035095	0.742979	-1.000000	-1.000000	-1.000000	-1.000000	-1.000000	-1.000000	-1.000000	64.000000	0.000000	-1.000000	-1.000000	810736.000000	1776578021.083948
40292.280000	-18452.250000	52853.760000	71371.260000	5567.760000	-10255.230000	-40740.030000	-7996.140000	-4.171863	6.699716	-1.406100	-40.202610	-25.692170	33.881706	3.609645	-2.017265	13.810300	14.786940	-6.058220	-0.653990	-0.035095	0.742979	-1.000000	-1.000000	-1.000000	-1.000000	-1.000000	-1.000000	-1.000000	64.000000	0.000000	-1.000000	-1.000000	810737.000000	1776578021.083956
40307.985000	-18430.740000	52929.495000	71390.520000	5531.985000	-10346.625000	-40674.735000	-7963.965000	1.311801	2.862265	-17.058729	-19.924630	-28.436844	-15.408166	15.158645	12.346119	6.805960	38.119480	3.204600	-0.642210	-0.025207	0.742491	-1.000000	-1.000000	-1.000000	-1.000000	-1.000000	-1.000000	-1.000000	64.000000	0.000000	-1.000000	-1.000000	810738.000000	1776578021.089251
40338.495000	-18372.735000	52981.470000	71460.675000	5547.915000	-10335.105000	-40621.590000	-7924.050000	7.504099	-2.271236	-21.225207	12.890972	-18.723756	-56.192872	29.317759	23.753038	6.805960	38.119480	3.204600	-0.642210	-0.025207	0.742491	-1.000000	-1.000000	-1.000000	-1.000000	-1.000000	-1.000000	-1.000000	64.000000	0.000000	-1.000000	-1.000000	810739.000000	1776578021.089265
40359.960000	-18356.715000	52796.925000	71523.180000	5596.965000	-10350.315000	-40555.755000	-7883.235000	12.445188	1.215777	-13.310441	45.671966	-2.672949	-72.439037	43.406466	30.273870	6.805960	38.119480	3.204600	-0.642210	-0.025207	0.742491	-1.000000	-1.000000	-1.000000	-1.000000	-1.000000	-1.000000	-1.000000	64.000000	0.000000	-1.000000	-1.000000	810740.000000	1776578021.091855
40296.690000	-18455.850000	52692.930000	71527.995000	5648.760000	-10276.515000	-40526.865000	-7891.605000	12.673711	9.882952	-11.579313	65.397482	17.118579	-54.666665	48.256597	29.192553	6.805960	38.119480	3.204600	-0.642210	-0.025207	0.742491	-1.000000	-1.000000	-1.000000	-1.000000	-1.000000	-1.000000	-1.000000	64.000000	0.000000	-1.000000	-1.000000	810741.000000	1776578021.091883
40303.485000	-18518.490000	52878.870000	71673.885000	5838.975000	-10164.555000	-40621.185000	-7901.370000	4.084434	8.939861	-22.821439	63.332204	38.263083	-8.696117	34.193533	17.328962	6.805960	38.119480	3.204600	-0.642210	-0.025207	0.742491	-1.000000	-1.000000	-1.000000	-1.000000	-1.000000	-1.000000	-1.000000	64.000000	0.000000	-1.000000	-1.000000	810742.000000	1776578021.095840
40263.120000	-18466.605000	53053.830000	71675.910000	5868.945000	-10014.930000	-40692.645000	-7934.670000	-11.191839	-6.202909	-20.933644	42.200308	56.177572	47.878491	-2.770263	-4.586821	6.805960	38.119480	3.204600	-0.642210	-0.025207	0.742491	-1.000000	-1.000000	-1.000000	-1.000000	-1.000000	-1.000000	-1.000000	64.000000	0.000000	-1.000000	-1.000000	810743.000000	1776578021.095850
40164.795000	-18467.730000	52996.185000	71601.030000	5830.560000	-9902.070000	-40687.830000	-8013.195000	-25.945827	-20.190650	13.581787	8.507771	57.975312	92.313355	-50.702123	-30.184563	6.805960	38.119480	3.204600	-0.642210	-0.025207	0.742491	-1.000000	-1.000000	-1.000000	-1.000000	-1.000000	-1.000000	-1.000000	64.000000	0.000000	-1.000000	-1.000000	810744.000000	1776578021.099870
40163.940000	-18534.420000	52768.305000	71487.270000	5689.305000	-10231.020000	-40669.470000	-8015.040000	-34.600428	-19.104069	51.363438	-35.746758	26.974659	96.693957	-81.963018	-49.903895	6.805960	38.119480	3.204600	-0.642210	-0.025207	0.742491	-1.000000	-1.000000	-1.000000	-1.000000	-1.000000	-1.000000	-1.000000	64.000000	0.000000	-1.000000	-1.000000	810745.000000	1776578021.099878
40206.015000	-18518.580000	52820.505000	71440.380000	5665.455000	-10225.485000	-40702.815000	-8015.445000	-30.633377	-6.905808	47.647909	-82.197099	-34.926781	39.862712	-75.894780	-53.004800	6.805960	38.119480	3.204600	-0.642210	-0.025207	0.742491	-1.000000	-1.000000	-1.000000	-1.000000	-1.000000	-1.000000	-1.000000	64.000000	0.000000	-1.000000	-1.000000	810746.000000	1776578021.103856
40311.810000	-18310.095000	53027.055000	71457.075000	5698.395000	-10262.295000	-40781.745000	-7997.310000	-7.124650	10.198440	7.737487	-108.410170	-95.440431	-56.271935	-39.133314	-33.701448	6.805960	38.119480	3.204600	-0.642210	-0.025207	0.742491	-1.000000	-1.000000	-1.000000	-1.000000	-1.000000	-1.000000	-1.000000	64.000000	0.000000	-1.000000	-1.000000	810747.000000	1776578021.103868
40392.045000	-18184.005000	53019.315000	71458.470000	5700.105000	-10318.410000	-40795.380000	-7967.835000	32.613003	35.648128	-21.080191	-93.055779	-114.288691	-130.959656	3.218890	1.845881	7.233240	35.433720	28.002100	-0.645445	-0.034912	0.734068	-1.000000	-1.000000	-1.000000	-1.000000	-1.000000	-1.000000	-1.000000	64.000000	0.000000	-1.000000	-1.000000	810748.000000	1776578021.112950
40414.590000	-18171.495000	52993.935000	71518.725000	5739.390000	-10230.120000	-40754.700000	-7935.525000	69.720628	63.618824	-17.038679	-36.830071	-78.471140	-139.152084	33.349903	38.411760	7.233240	35.433720	28.002100	-0.645445	-0.034912	0.734068	-1.000000	-1.000000	-1.000000	-1.000000	-1.000000	-1.000000	-1.000000	64.000000	0.000000	-1.000000	-1.000000	810749.000000	1776578021.112966
40367.790000	-18235.530000	52957.350000	71460.765000	5649.255000	-10256.985000	-40748.265000	-7937.010000	78.823722	68.372283	-1.671279	34.505529	-11.598519	-80.106841	49.908665	60.236217	7.233240	35.433720	28.002100	-0.645445	-0.034912	0.734068	-1.000000	-1.000000	-1.000000	-1.000000	-1.000000	-1.000000	-1.000000	64.000000	0.000000	-1.000000	-1.000000	810750.000000	1776578021.112987
40312.260000	-18283.140000	52965.495000	71411.715000	5577.705000	-10115.730000	-40669.020000	-7953.615000	46.707010	30.057182	0.786028	84.854679	45.574553	12.384393	57.030890	57.733438	7.233240	35.433720	28.002100	-0.645445	-0.034912	0.734068	-1.000000	-1.000000	-1.000000	-1.000000	-1.000000	-1.000000	-1.000000	64.000000	0.000000	-1.000000	-1.000000	810751.000000	1776578021.112992
40265.955000	-18375.480000	52871.085000	71390.160000	5542.875000	-10317.420000	-40617.945000	-7988.760000	-14.582641	-39.593460	-12.145230	91.354918	65.437210	90.671994	56.689750	31.722461	7.233240	35.433720	28.002100	-0.645445	-0.034912	0.734068	-1.000000	-1.000000	-1.000000	-1.000000	-1.000000	-1.000000	-1.000000	64.000000	0.000000	-1.000000	-1.000000	810752.000000	1776578021.116118
40213.305000	-18488.790000	52710.930000	71377.830000	5632.380000	-10100.520000	-40684.230000	-8051.580000	-74.041881	-105.790927	-32.212665	60.015239	53.156367	119.003215	46.260681	-6.935338	7.233240	35.433720	28.002100	-0.645445	-0.034912	0.734068	-1.000000	-1.000000	-1.000000	-1.000000	-1.000000	-1.000000	-1.000000	64.000000	0.000000	-1.000000	-1.000000	810753.000000	1776578021.116135
40268.160000	-18474.030000	52654.635000	71399.385000	5701.185000	-10137.285000	-40765.095000	-8029.125000	-100.945128	-134.879396	-50.902185	16.775847	35.884314	97.412010	18.663803	-41.560950	7.233240	35.433720	28.002100	-0.645445	-0.034912	0.734068	-1.000000	-1.000000	-1.000000	-1.000000	-1.000000	-1.000000	-1.000000	64.000000	0.000000	-1.000000	-1.000000	810754.000000	1776578021.122659
40303.035000	-18397.170000	52862.355000	71475.255000	5732.730000	-10365.795000	-40801.950000	-7996.095000	-80.821933	-108.058175	-51.095623	-12.674469	32.056644	46.749599	-25.198778	-55.010997	7.233240	35.433720	28.002100	-0.645445	-0.034912	0.734068	-1.000000	-1.000000	-1.000000	-1.000000	-1.000000	-1.000000	-1.000000	64.000000	0.000000	-1.000000	-1.000000	810755.000000	1776578021.122691
40296.105000	-18340.785000	53023.545000	71508.285000	5664.465000	-10392.705000	-40764.555000	-7999.515000	-24.554149	-30.551631	-10.890661	-16.899931	34.216303	-19.318541	-65.701007	-40.149313	7.233240	35.433720	28.002100	-0.645445	-0.034912	0.734068	-1.000000	-1.000000	-1.000000	-1.000000	-1.000000	-1.000000	-1.000000	64.000000	0.000000	-1.000000	-1.000000	810756.000000	1776578021.124206
40319.370000	-18274.995000	52935.255000	71483.670000	5648.040000	-10478.340000	-40779.360000	-7991.415000	36.571079	64.582660	61.135467	-4.382819	22.865110	-81.088270	-77.587645	-7.735499	7.233240	35.433720	28.002100	-0.645445	-0.034912	0.734068	-1.000000	-1.000000	-1.000000	-1.000000	-1.000000	-1.000000	-1.000000	64.000000	0.000000	-1.000000	-1.000000	810757.000000	1776578021.124214
40368.240000	-18253.170000	52871.445000	71484.660000	5664.555000	-10403.055000	-40806.180000	-7970.805000	73.765206	132.870191	113.621343	5.085206	-6.663137	-106.866524	-54.520029	22.628761	33.922980	-17.335360	14.222320	-0.692747	-0.074890	0.728087	-1.000000	-1.000000	-1.000000	-1.000000	-1.000000	-1.000000	-1.000000	64.000000	0.000000	-1.000000	-1.000000	810758.000000	1776578021.128004
40374.540000	-18301.995000	52786.755000	71459.775000	5672.970000	-10366.470000	-40778.730000	-7958.430000	77.555240	143.444229	100.874943	-0.614217	-37.792154	-78.387499	-12.853380	37.707790	33.922980	-17.335360	14.222320	-0.692747	-0.074890	0.728087	-1.000000	-1.000000	-1.000000	-1.000000	-1.000000	-1.000000	-1.000000	64.000000	0.000000	-1.000000	-1.000000	810759.000000	1776578021.128012
40292.460000	-18386.865000	52814.025000	71425.080000	5668.245000	-10146.555000	-40723.065000	-8003.745000	52.518512	92.678409	30.210719	-18.078246	-51.784063	-5.457779	27.199923	34.214712	33.922980	-17.335360	14.222320	-0.692747	-0.074890	0.728087	-1.000000	-1.000000	-1.000000	-1.000000	-1.000000	-1.000000	-1.000000	64.000000	0.000000	-1.000000	-1.000000	810760.000000	1776578021.131851
40289.490000	-18394.830000	52886.925000	71403.570000	5622.705000	-10100.790000	-40659.705000	-7991.100000	9.119972	5.922715	-47.336776	-35.657120	-44.990350	79.412001	54.568856	15.825453	33.922980	-17.335360	14.222320	-0.692747	-0.074890	0.728087	-1.000000	-1.000000	-1.000000	-1.000000	-1.000000	-1.000000	-1.000000	64.000000	0.000000	-1.000000	-1.000000	810761.000000	1776578021.131859
40327.425000	-18334.890000	52927.020000	71419.995000	5599.800000	-10137.870000	-40640.940000	-7959.690000	-33.840437	-72.014154	-82.574981	-41.643796	-27.316425	132.109805	64.492513	-6.665926	33.922980	-17.335360	14.222320	-0.692747	-0.074890	0.728087	-1.000000	-1.000000	-1.000000	-1.000000	-1.000000	-1.000000	-1.000000	64.000000	0.000000	-1.000000	-1.000000	810762.000000	1776578021.135870
40337.820000	-18307.935000	52904.655000	71444.655000	5617.440000	-9964.665000	-40635.945000	-7949.520000	-54.569244	-102.214490	-65.471030	-29.602576	-9.036507	122.079987	53.971354	-19.958141	33.922980	-17.335360	14.222320	-0.692747	-0.074890	0.728087	-1.000000	-1.000000	-1.000000	-1.000000	-1.000000	-1.000000	-1.000000	64.000000	0.000000	-1.000000	-1.000000	810763.000000	1776578021.135876
40328.865000	-18394.605000	52786.845000	71457.255000	5623.920000	-9999.270000	-40660.740000	-7951.590000	-45.955378	-79.859153	-25.387598	-2.936503	7.049420	58.995071	24.167328	-19.301107	33.922980	-17.335360	14.222320	-0.692747	-0.074890	0.728087	-1.000000	-1.000000	-1.000000	-1.000000	-1.000000	-1.000000	-1.000000	64.000000	0.000000	-1.000000	-1.000000	810764.000000	1776578021.139950
40310.055000	-18470.970000	52801.560000	71482.635000	5712.165000	-9998.730000	-40734.540000	-7981.560000	-20.527842	-35.042775	1.915285	25.881982	22.337145	-22.030617	-16.801613	-11.250753	33.922980	-17.335360	14.222320	-0.692747	-0.074890	0.728087	-1.000000	-1.000000	-1.000000	-1.000000	-1.000000	-1.000000	-1.000000	64.000000	0.000000	-1.000000	-1.000000	810765.000000	1776578021.139959
40265.820000	-18491.355000	52845.570000	71376.750000	5636.340000	-10137.915000	-40782.150000	-8025.255000	2.737697	-0.801923	7.563238	41.364774	34.977198	-92.195598	-55.852707	-5.774502	33.922980	-17.335360	14.222320	-0.692747	-0.074890	0.728087	-1.000000	-1.000000	-1.000000	-1.000000	-1.000000	-1.000000	-1.000000	64.000000	0.000000	-1.000000	-1.000000	810766.000000	1776578021.143931
40227.660000	-18557.190000	52785.540000	71283.285000	5551.200000	-10331.640000	-40784.220000	-8043.120000	12.104595	13.066858	5.962942	31.804131	34.812202	-138.003570	-77.679874	-7.293456	33.922980	-17.335360	14.222320	-0.692747	-0.074890	0.728087	-1.000000	-1.000000	-1.000000	-1.000000	-1.000000	-1.000000	-1.000000	64.000000	0.000000	-1.000000	-1.000000	810767.000000	1776578021.143937
40226.535000	-18494.595000	52767.945000	71303.130000	5590.170000	-10300.905000	-40732.740000	-8033.715000	8.533947	16.242004	6.800652	0.937087	14.996038	-151.779141	-69.438575	-11.143192	44.864400	11.368700	-54.936000	-0.672056	-0.007263	0.787229	-1.000000	-1.000000	-1.000000	-1.000000	-1.000000	-1.000000	-1.000000	64.000000	0.000000	-1.000000	-1.000000	810768.000000	1776578021.148053
40277.250000	-18354.375000	52807.860000	71340.120000	5611.950000	-10294.425000	-40727.655000	-7998.390000	3.153783	24.640834	9.382558	-27.323514	-11.569419	-121.259792	-30.680531	-8.376097	44.864400	11.368700	-54.936000	-0.672056	-0.007263	0.787229	-1.000000	-1.000000	-1.000000	-1.000000	-1.000000	-1.000000	-1.000000	64.000000	0.000000	-1.000000	-1.000000	810769.000000	1776578021.148067
40308.075000	-18326.340000	52849.755000	71383.725000	5638.635000	-10387.260000	-40755.555000	-7984.170000	7.061668	46.071251	14.255022	-29.013315	-23.902944	-46.053278	20.213683	4.772549	44.864400	11.368700	-54.936000	-0.672056	-0.007263	0.787229	-1.000000	-1.000000	-1.000000	-1.000000	-1.000000	-1.000000	-1.000000	64.000000	0.000000	-1.000000	-1.000000	810770.000000	1776578021.152051
40283.010000	-18363.645000	52839.585000	71386.380000	5645.070000	-10344.420000	-40787.820000	-8008.875000	19.358086	66.199652	21.513106	-3.592982	-15.926240	45.049098	55.885184	21.361500	44.864400	11.368700	-54.936000	-0.672056	-0.007263	0.787229	-1.000000	-1.000000	-1.000000	-1.000000	-1.000000	-1.000000	-1.000000	64.000000	0.000000	-1.000000	-1.000000	810771.000000	1776578021.152062
40284.855000	-18372.690000	52835.490000	71376.705000	5611.455000	-10388.745000	-40792.230000	-8003.880000	27.510880	59.973827	24.721304	27.433713	0.885430	114.340761	60.571503	29.157202	44.864400	11.368700	-54.936000	-0.672056	-0.007263	0.787229	-1.000000	-1.000000	-1.000000	-1.000000	-1.000000	-1.000000	-1.000000	64.000000	0.000000	-1.000000	-1.000000	810772.000000	1776578021.156114
40294.755000	-18360.405000	52854.795000	71402.130000	5654.250000	-10254.870000	-40774.500000	-7998.750000	22.129512	21.524202	17.619295	41.577176	11.709235	142.054228	40.193655	22.794942	44.864400	11.368700	-54.936000	-0.672056	-0.007263	0.787229	-1.000000	-1.000000	-1.000000	-1.000000	-1.000000	-1.000000	-1.000000	64.000000	0.000000	-1.000000	-1.000000	810773.000000	1776578021.156126
40262.310000	-18399.285000	52809.030000	71384.985000	5666.265000	-10240.740000	-40747.005000	-8020.350000	5.622463	-29.277083	1.720375	32.379442	12.158955	130.942501	13.523753	7.254518	44.864400	11.368700	-54.936000	-0.672056	-0.007263	0.787229	-1.000000	-1.000000	-1.000000	-1.000000	-1.000000	-1.000000	-1.000000	64.000000	0.000000	-1.000000	-1.000000	810774.000000	1776578021.159988
40252.005000	-18410.175000	52796.070000	71375.670000	5641.335000	-10264.815000	-40770.180000	-8031.870000	-13.684450	-67.190638	-16.824078	8.008444	6.418072	92.271260	-4.703731	-9.339993	44.864400	11.368700	-54.936000	-0.672056	-0.007263	0.787229	-1.000000	-1.000000	-1.000000	-1.000000	-1.000000	-1.000000	-1.000000	64.000000	0.000000	-1.000000	-1.000000	810775.000000	1776578021.159999
40239.045000	-18423.090000	52784.595000	71357.715000	5634.810000	-10153.215000	-40777.560000	-8046.090000	-27.723529	-77.983737	-30.936805	-18.639477	-2.232267	37.013683	-12.625329	-20.872053	44.864400	11.368700	-54.936000	-0.672056	-0.007263	0.787229	-1.000000	-1.000000	-1.000000	-1.000000	-1.000000	-1.000000	-1.000000	64.000000	0.000000	-1.000000	-1.000000	810776.000000	1776578021.164104
40216.365000	-18445.545000	52765.335000	71347.770000	5665.995000	-10041.030000	-40736.070000	-8060.040000	-31.243537	-61.403472	-34.322205	-36.431195	-10.752360	-16.341658	-14.591499	-24.071255	44.864400	11.368700	-54.936000	-0.672056	-0.007263	0.787229	-1.000000	-1.000000	-1.000000	-1.000000	-1.000000	-1.000000	-1.000000	64.000000	0.000000	-1.000000	-1.000000	810777.000000	1776578021.164116
40218.255000	-18441.090000	52770.645000	71352.270000	5646.285000	-10116.090000	-40743.405000	-8053.245000	-23.921697	-27.995556	-25.337233	-39.330464	-14.288638	-50.415140	-12.441638	-18.743713	-62.627040	27.117020	26.064080	-0.627013	0.090454	0.747129	-1.000000	-1.000000	-1.000000	-1.000000	-1.000000	-1.000000	-1.000000	64.000000	0.000000	-1.000000	-1.000000	810778.000000	1776578021.167962
40225.680000	-18428.265000	52785.900000	71364.510000	5642.145000	-10136.925000	-40733.775000	-8036.775000	-9.172605	8.386572	-7.521567	-27.468388	-11.589593	-67.511550	-7.538990	-6.908416	-62.627040	27.117020	26.064080	-0.627013	0.090454	0.747129	-1.000000	-1.000000	-1.000000	-1.000000	-1.000000	-1.000000	-1.000000	64.000000	0.000000	-1.000000	-1.000000	810779.000000	1776578021.167971
40248.900000	-18409.140000	52806.330000	71386.470000	5671.080000	-10114.245000	-40714.920000	-8017.065000	8.313854	36.994194	12.983699	-6.332285	-5.534031	-77.211289	-2.861296	7.866799	-62.627040	27.117020	26.064080	-0.627013	0.090454	0.747129	-1.000000	-1.000000	-1.000000	-1.000000	-1.000000	-1.000000	-1.000000	64.000000	0.000000	-1.000000	-1.000000	810780.000000	1776578021.171895
40277.655000	-18385.515000	52831.845000	71414.235000	5687.460000	-10115.955000	-40691.520000	-7996.545000	23.572468	51.741059	29.314041	15.666666	2.013992	-76.930724	0.301481	20.572582	-62.627040	27.117020	26.064080	-0.627013	0.090454	0.747129	-1.000000	-1.000000	-1.000000	-1.000000	-1.000000	-1.000000	-1.000000	64.000000	0.000000	-1.000000	-1.000000	810781.000000	1776578021.171900
40282.380000	-18386.415000	52836.120000	71421.435000	5679.630000	-10115.865000	-40696.920000	-7998.930000	31.823945	50.691279	35.759126	30.352898	9.323249	-59.956860	2.080511	26.003241	-62.627040	27.117020	26.064080	-0.627013	0.090454	0.747129	-1.000000	-1.000000	-1.000000	-1.000000	-1.000000	-1.000000	-1.000000	64.000000	0.000000	-1.000000	-1.000000	810782.000000	1776578021.175838
40276.575000	-18383.805000	52839.945000	71428.455000	5700.915000	-10142.010000	-40745.295000	-8011.305000	29.171768	35.460546	29.662414	32.348076	12.856087	-29.312168	0.653580	20.858682	-62.627040	27.117020	26.064080	-0.627013	0.090454	0.747129	-1.000000	-1.000000	-1.000000	-1.000000	-1.000000	-1.000000	-1.000000	64.000000	0.000000	-1.000000	-1.000000	810783.000000	1776578021.175842
40253.895000	-18404.280000	52812.585000	71400.825000	5695.335000	-10211.895000	-40791.240000	-8033.625000	14.861269	11.159048	12.642814	20.948578	10.728001	2.466223	-6.779092	5.986038	-62.627040	27.117020	26.064080	-0.627013	0.090454	0.747129	-1.000000	-1.000000	-1.000000	-1.000000	-1.000000	-1.000000	-1.000000	64.000000	0.000000	-1.000000	-1.000000	810784.000000	1776578021.179958
40240.395000	-18428.670000	52781.895000	71370.315000	5674.230000	-10214.190000	-40782.060000	-8034.660000	-6.438470	-14.645481	-9.861153	0.311097	3.895717	23.086343	-17.678968	-12.515808	-62.627040	27.117020	26.064080	-0.627013	0.090454	0.747129	-1.000000	-1.000000	-1.000000	-1.000000	-1.000000	-1.000000	-1.000000	64.000000	0.000000	-1.000000	-1.000000	810785.000000	1776578021.179962
40254.930000	-18414.945000	52799.535000	71379.450000	5662.575000	-10131.615000	-40757.940000	-8017.380000	-25.253658	-33.620121	-29.366376	-21.054633	-5.580521	32.267806	-22.141585	-25.255853	-62.627040	27.117020	26.064080	-0.627013	0.090454	0.747129	-1.000000	-1.000000	-1.000000	-1.000000	-1.000000	-1.000000	-1.000000	64.000000	0.000000	-1.000000	-1.000000	810786.000000	1776578021.183928
40267.620000	-18407.520000	52820.100000	71399.655000	5684.040000	-10020.600000	-40748.400000	-8015.940000	-31.925267	-38.554584	-36.098394	-32.147853	-13.564391	41.215715	-12.280248	-25.314020	-62.627040	27.117020	26.064080	-0.627013	0.090454	0.747129	-1.000000	-1.000000	-1.000000	-1.000000	-1.000000	-1.000000	-1.000000	64.000000	0.000000	-1.000000	-1.000000	810787.000000	1776578021.183940
40274.010000	-18411.075000	52814.025000	71387.415000	5628.960000	-10238.400000	-40759.605000	-8017.785000	-23.515499	-28.030134	-25.993556	-26.814399	-15.685474	51.097237	7.769162	-13.906199	-51.945040	8.835540	49.411880	-0.669676	0.030151	0.715147	-1.000000	-1.000000	-1.000000	-1.000000	-1.000000	-1.000000	-1.000000	64.000000	0.000000	-1.000000	-1.000000	810788.000000	1776578021.188028
40280.220000	-18409.005000	52821.180000	71393.760000	5638.005000	-10403.640000	-40763.250000	-8015.040000	-6.198089	-8.901443	-5.829702	-9.795020	-12.212612	40.428725	24.996559	1.011961	-51.945040	8.835540	49.411880	-0.669676	0.030151	0.715147	-1.000000	-1.000000	-1.000000	-1.000000	-1.000000	-1.000000	-1.000000	64.000000	0.000000	-1.000000	-1.000000	810789.000000	1776578021.188034
40266.450000	-18396.945000	52815.510000	71402.310000	5704.335000	-10162.620000	-40756.185000	-8026.695000	9.685619	9.039434	12.506842	8.292709	-4.510078	1.415607	29.635204	11.460733	-51.945040	8.835540	49.411880	-0.669676	0.030151	0.715147	-1.000000	-1.000000	-1.000000	-1.000000	-1.000000	-1.000000	-1.000000	64.000000	0.000000	-1.000000	-1.000000	810790.000000	1776578021.191950
40245.840000	-18409.770000	52786.665000	71372.430000	5654.835000	-10216.755000	-40730.130000	-8030.880000	16.152596	19.257009	20.447462	19.018247	7.300619	-32.263794	22.256358	13.799721	-51.945040	8.835540	49.411880	-0.669676	0.030151	0.715147	-1.000000	-1.000000	-1.000000	-1.000000	-1.000000	-1.000000	-1.000000	64.000000	0.000000	-1.000000	-1.000000	810791.000000	1776578021.191964
40239.495000	-18426.780000	52767.540000	71349.885000	5605.425000	-10275.750000	-40745.610000	-8038.080000	11.723228	19.396286	15.909790	18.425461	16.619819	-32.280580	9.809831	9.275608	-51.945040	8.835540	49.411880	-0.669676	0.030151	0.715147	-1.000000	-1.000000	-1.000000	-1.000000	-1.000000	-1.000000	-1.000000	64.000000	0.000000	-1.000000	-1.000000	810792.000000	1776578021.196031
40253.985000	-18413.415000	52781.535000	71360.640000	5620.185000	-10224.900000	-40756.455000	-8025.030000	2.142522	11.351640	4.065984	8.651136	14.696555	-10.647832	-2.473184	2.470000	-51.945040	8.835540	49.411880	-0.669676	0.030151	0.715147	-1.000000	-1.000000	-1.000000	-1.000000	-1.000000	-1.000000	-1.000000	64.000000	0.000000	-1.000000	-1.000000	810793.000000	1776578021.196038
40244.400000	-18426.960000	52764.390000	71339.805000	5605.920000	-10275.525000	-40770.630000	-8027.055000	-4.510366	1.013899	-5.879474	-2.528105	4.023533	9.818180	-12.820267	-1.880269	-51.945040	8.835540	49.411880	-0.669676	0.030151	0.715147	-1.000000	-1.000000	-1.000000	-1.000000	-1.000000	-1.000000	-1.000000	64.000000	0.000000	-1.000000	-1.000000	810794.000000	1776578021.200052
40223.655000	-18457.965000	52758.900000	71338.680000	5627.160000	-10261.530000	-40769.820000	-8043.120000	-5.211047	-6.629149	-8.491829	-8.411139	-4.969925	18.231500	-19.454695	-2.496375	-51.945040	8.835540	49.411880	-0.669676	0.030151	0.715147	-1.000000	-1.000000	-1.000000	-1.000000	-1.000000	-1.000000	-1.000000	64.000000	0.000000	-1.000000	-1.000000	810795.000000	1776578021.200060
40211.460000	-18495.045000	52767.585000	71347.680000	5636.070000	-10223.910000	-40751.730000	-8047.890000	-2.987415	-11.230056	-4.733212	-7.406856	-5.576347	15.097035	-19.547282	-1.774058	-51.945040	8.835540	49.411880	-0.669676	0.030151	0.715147	-1.000000	-1.000000	-1.000000	-1.000000	-1.000000	-1.000000	-1.000000	64.000000	0.000000	-1.000000	-1.000000	810796.000000	1776578021.203982
40218.210000	-18478.575000	52804.035000	71387.190000	5658.210000	-10230.165000	-40755.015000	-8040.285000	-0.957912	-13.230573	2.593292	-0.647513	1.410148	8.158084	-12.023523	-1.600563	-51.945040	8.835540	49.411880	-0.669676	0.030151	0.715147	-1.000000	-1.000000	-1.000000	-1.000000	-1.000000	-1.000000	-1.000000	64.000000	0.000000	-1.000000	-1.000000	810797.000000	1776578021.203996
40223.835000	-18403.110000	52821.225000	71420.580000	5688.945000	-10241.820000	-40775.130000	-8042.760000	1.165412	-8.817568	11.193791	9.649126	10.519918	2.336236	-0.791833	-1.239901	3.494540	6.104000	10.651480	-0.698240	-0.128906	0.714354	-1.000000	-1.000000	-1.000000	-1.000000	-1.000000	-1.000000	-1.000000	64.000000	0.000000	-1.000000	-1.000000	810798.000000	1776578021.208021
40234.545000	-18371.295000	52809.345000	71390.745000	5663.745000	-10218.600000	-40775.895000	-8047.170000	4.568375	5.904498	17.036299	18.187012	15.412981	-2.942641	7.381856	0.066378	3.494540	6.104000	10.651480	-0.698240	-0.128906	0.714354	-1.000000	-1.000000	-1.000000	-1.000000	-1.000000	-1.000000	-1.000000	64.000000	0.000000	-1.000000	-1.000000	810799.000000	1776578021.208029
40250.250000	-18399.915000	52795.620000	71369.505000	5662.440000	-10188.900000	-40762.800000	-8040.555000	8.623819	24.391070	14.715027	16.996393	11.270215	-6.945175	9.543041	1.609049	3.494540	6.104000	10.651480	-0.698240	-0.128906	0.714354	-1.000000	-1.000000	-1.000000	-1.000000	-1.000000	-1.000000	-1.000000	64.000000	0.000000	-1.000000	-1.000000	810800.000000	1776578021.214722
40262.670000	-18418.500000	52782.615000	71358.795000	5646.600000	-10226.565000	-40768.110000	-8034.210000	11.333836	31.113897	2.918936	3.283255	-1.538031	-8.005130	8.046373	2.739852	3.494540	6.104000	10.651480	-0.698240	-0.128906	0.714354	-1.000000	-1.000000	-1.000000	-1.000000	-1.000000	-1.000000	-1.000000	64.000000	0.000000	-1.000000	-1.000000	810801.000000	1776578021.214731
40256.685000	-18428.130000	52767.585000	71334.045000	5608.485000	-10249.020000	-40764.780000	-8030.475000	10.523362	17.914831	-12.801718	-15.660511	-16.890017	-8.690463	5.734605	3.421110	3.494540	6.104000	10.651480	-0.698240	-0.128906	0.714354	-1.000000	-1.000000	-1.000000	-1.000000	-1.000000	-1.000000	-1.000000	64.000000	0.000000	-1.000000	-1.000000	810802.000000	1776578021.216041
40253.850000	-18414.720000	52757.775000	71325.495000	5608.035000	-10242.855000	-40757.760000	-8020.395000	4.904034	-6.740217	-24.114309	-28.787825	-27.528654	-11.752873	3.566342	3.496741	3.494540	6.104000	10.651480	-0.698240	-0.128906	0.714354	-1.000000	-1.000000	-1.000000	-1.000000	-1.000000	-1.000000	-1.000000	64.000000	0.000000	-1.000000	-1.000000	810803.000000	1776578021.216046
40247.550000	-18414.360000	52755.300000	71332.695000	5632.335000	-10227.690000	-40757.400000	-8022.060000	-4.278710	-26.445045	-25.426443	-29.083596	-27.469590	-13.774445	1.770000	2.660905	3.494540	6.104000	10.651480	-0.698240	-0.128906	0.714354	-1.000000	-1.000000	-1.000000	-1.000000	-1.000000	-1.000000	-1.000000	64.000000	0.000000	-1.000000	-1.000000	810804.000000	1776578021.220059
40252.545000	-18436.320000	52762.995000	71352.135000	5644.575000	-10239.210000	-40759.965000	-8021.295000	-12.978201	-31.355660	-16.275460	-16.010298	-14.328657	-9.789755	0.141908	0.654864	3.494540	6.104000	10.651480	-0.698240	-0.128906	0.714354	-1.000000	-1.000000	-1.000000	-1.000000	-1.000000	-1.000000	-1.000000	64.000000	0.000000	-1.000000	-1.000000	810805.000000	1776578021.220066
40238.415000	-18453.330000	52760.160000	71350.380000	5617.170000	-10308.555000	-40754.205000	-8028.540000	-17.028405	-23.608854	-0.960512	4.474532	5.974474	-1.962205	-1.667628	-2.429441	3.494540	6.104000	10.651480	-0.698240	-0.128906	0.714354	-1.000000	-1.000000	-1.000000	-1.000000	-1.000000	-1.000000	-1.000000	64.000000	0.000000	-1.000000	-1.000000	810806.000000	1776578021.224152
40202.685000	-18497.160000	52772.085000	71353.665000	5645.745000	-10241.190000	-40738.770000	-8047.530000	-15.810514	-11.637765	13.724452	22.267443	21.951227	3.671530	-2.996759	-6.030468	3.494540	6.104000	10.651480	-0.698240	-0.128906	0.714354	-1.000000	-1.000000	-1.000000	-1.000000	-1.000000	-1.000000	-1.000000	64.000000	0.000000	-1.000000	-1.000000	810807.000000	1776578021.224169
40179.015000	-18501.750000	52777.980000	71349.255000	5645.205000	-10136.250000	-40736.430000	-8060.445000	-12.251168	-2.115369	22.203709	29.003094	26.805145	9.370864	-2.694522	-9.326202	57.163960	-3.265640	-4.410140	-0.684508	-0.131408	0.714415	-1.000000	-1.000000	-1.000000	-1.000000	-1.000000	-1.000000	-1.000000	64.000000	0.000000	-1.000000	-1.000000	810808.000000	1776578021.228062
40221.990000	-18415.980000	52749.765000	71358.750000	5664.285000	-10150.830000	-40759.065000	-8052.345000	-7.411370	5.739278	21.856392	23.209432	21.843398	20.973091	-1.561659	-10.583019	57.163960	-3.265640	-4.410140	-0.684508	-0.131408	0.714415	-1.000000	-1.000000	-1.000000	-1.000000	-1.000000	-1.000000	-1.000000	64.000000	0.000000	-1.000000	-1.000000	810809.000000	1776578021.228071
40276.845000	-18360.495000	52806.510000	71375.670000	5684.895000	-10195.695000	-40790.295000	-8040.780000	2.349753	18.147500	13.882177	10.328154	12.093825	30.705408	-2.609545	-7.326015	57.163960	-3.265640	-4.410140	-0.684508	-0.131408	0.714415	-1.000000	-1.000000	-1.000000	-1.000000	-1.000000	-1.000000	-1.000000	64.000000	0.000000	-1.000000	-1.000000	810810.000000	1776578021.232397
40281.570000	-18363.780000	52840.080000	71378.280000	5684.265000	-10156.140000	-40774.815000	-8035.290000	18.048908	34.212319	4.796695	-2.054251	2.239272	24.389690	-6.620772	0.792056	57.163960	-3.265640	-4.410140	-0.684508	-0.131408	0.714415	-1.000000	-1.000000	-1.000000	-1.000000	-1.000000	-1.000000	-1.000000	64.000000	0.000000	-1.000000	-1.000000	810811.000000	1776578021.232404
40261.635000	-18385.200000	52802.280000	71346.105000	5628.195000	-10209.240000	-40773.870000	-8035.425000	30.822040	40.878576	-0.104483	-10.269222	-6.830265	2.075113	-9.226801	10.044402	57.163960	-3.265640	-4.410140	-0.684508	-0.131408	0.714415	-1.000000	-1.000000	-1.000000	-1.000000	-1.000000	-1.000000	-1.000000	64.000000	0.000000	-1.000000	-1.000000	810812.000000	1776578021.236154
40256.685000	-18371.610000	52803.360000	71340.930000	5606.145000	-10336.320000	-40782.915000	-8033.400000	29.111149	27.410674	-3.820255	-15.408618	-17.087581	-25.824773	-6.182005	15.160074	57.163960	-3.265640	-4.410140	-0.684508	-0.131408	0.714415	-1.000000	-1.000000	-1.000000	-1.000000	-1.000000	-1.000000	-1.000000	64.000000	0.000000	-1.000000	-1.000000	810813.000000	1776578021.236159
40245.030000	-18419.040000	52779.510000	71345.700000	5623.830000	-10321.110000	-40769.415000	-8031.195000	11.615322	-1.719964	-10.665729	-17.933885	-26.146811	-49.520245	1.296179	13.588263	57.163960	-3.265640	-4.410140	-0.684508	-0.131408	0.714415	-1.000000	-1.000000	-1.000000	-1.000000	-1.000000	-1.000000	-1.000000	64.000000	0.000000	-1.000000	-1.000000	810814.000000	1776578021.240053
40230.585000	-18491.175000	52740.090000	71348.805000	5644.980000	-10276.515000	-40759.155000	-8032.905000	-11.705080	-33.212776	-19.262470	-15.560179	-25.893484	-55.653069	9.183588	6.826389	57.163960	-3.265640	-4.410140	-0.684508	-0.131408	0.714415	-1.000000	-1.000000	-1.000000	-1.000000	-1.000000	-1.000000	-1.000000	64.000000	0.000000	-1.000000	-1.000000	810815.000000	1776578021.240060
40224.870000	-18486.945000	52734.735000	71351.460000	5664.600000	-10228.005000	-40763.070000	-8039.115000	-28.681213	-54.616454	-25.032581	-7.496012	-12.007485	-32.650058	14.094848	-1.597209	57.163960	-3.265640	-4.410140	-0.684508	-0.131408	0.714415	-1.000000	-1.000000	-1.000000	-1.000000	-1.000000	-1.000000	-1.000000	64.000000	0.000000	-1.000000	-1.000000	810816.000000	1776578021.244134
40218.525000	-18475.110000	52750.800000	71326.530000	5632.335000	-10205.685000	-40758.030000	-8047.080000	-32.279427	-55.500768	-22.737075	2.626920	8.658104	12.479539	13.766913	-8.527501	57.163960	-3.265640	-4.410140	-0.684508	-0.131408	0.714415	-1.000000	-1.000000	-1.000000	-1.000000	-1.000000	-1.000000	-1.000000	64.000000	0.000000	-1.000000	-1.000000	810817.000000	1776578021.244147
40231.935000	-18407.970000	52771.545000	71315.370000	5618.610000	-10242.090000	-40773.195000	-8048.475000	-22.535196	-31.306054	-9.407296	9.073432	22.658226	54.160520	7.984179	-12.018591	35.906780	-7.172200	6.302380	-0.682676	0.004211	0.711302	-1.000000	-1.000000	-1.000000	-1.000000	-1.000000	-1.000000	-1.000000	64.000000	0.000000	-1.000000	-1.000000	810818.000000	1776578021.248215
40245.660000	-18396.180000	52771.905000	71323.650000	5632.470000	-10274.805000	-40782.465000	-8040.690000	-4.688139	9.793580	10.964278	9.430176	22.449725	66.904461	-1.148195	-11.084552	35.906780	-7.172200	6.302380	-0.682676	0.004211	0.711302	-1.000000	-1.000000	-1.000000	-1.000000	-1.000000	-1.000000	-1.000000	64.000000	0.000000	-1.000000	-1.000000	810819.000000	1776578021.248228
40247.100000	-18415.935000	52783.515000	71334.360000	5642.145000	-10265.895000	-40780.935000	-8038.575000	13.525528	47.302269	28.288297	6.822844	12.596937	45.032681	-9.899385	-5.956911	35.906780	-7.172200	6.302380	-0.682676	0.004211	0.711302	-1.000000	-1.000000	-1.000000	-1.000000	-1.000000	-1.000000	-1.000000	64.000000	0.000000	-1.000000	-1.000000	810820.000000	1776578021.252186
40228.155000	-18431.820000	52773.525000	71322.840000	5646.060000	-10252.665000	-40777.380000	-8053.335000	24.132631	60.317474	33.640451	5.181636	2.440363	6.240840	-14.045765	0.877211	35.906780	-7.172200	6.302380	-0.682676	0.004211	0.711302	-1.000000	-1.000000	-1.000000	-1.000000	-1.000000	-1.000000	-1.000000	64.000000	0.000000	-1.000000	-1.000000	810821.000000	1776578021.252194
40214.835000	-18437.445000	52750.980000	71304.435000	5652.945000	-10176.795000	-40777.065000	-8066.745000	22.418198	43.423397	24.612076	4.304772	-3.018006	-23.751067	-11.569018	5.330523	35.906780	-7.172200	6.302380	-0.682676	0.004211	0.711302	-1.000000	-1.000000	-1.000000	-1.000000	-1.000000	-1.000000	-1.000000	64.000000	0.000000	-1.000000	-1.000000	810822.000000	1776578021.256264
40222.395000	-18410.175000	52761.960000	71319.420000	5666.130000	-10177.470000	-40773.240000	-8057.655000	10.699247	10.304433	6.028599	2.124278	-3.974210	-30.212039	-4.348234	5.386143	35.906780	-7.172200	6.302380	-0.682676	0.004211	0.711302	-1.000000	-1.000000	-1.000000	-1.000000	-1.000000	-1.000000	-1.000000	64.000000	0.000000	-1.000000	-1.000000	810823.000000	1776578021.256272
40239.675000	-18426.645000	52783.380000	71346.555000	5677.515000	-10188.945000	-40774.545000	-8039.520000	-2.441757	-18.746228	-11.793051	-0.175831	-2.511912	-18.455884	3.471439	3.497981	35.906780	-7.172200	6.302380	-0.682676	0.004211	0.711302	-1.000000	-1.000000	-1.000000	-1.000000	-1.000000	-1.000000	-1.000000	64.000000	0.000000	-1.000000	-1.000000	810824.000000	1776578021.260114
40259.655000	-18423.945000	52798.815000	71363.925000	5683.140000	-10177.560000	-40761.450000	-8019.135000	-8.670708	-32.030404	-19.292102	0.597910	-0.750115	-5.076348	8.474014	3.639802	35.906780	-7.172200	6.302380	-0.682676	0.004211	0.711302	-1.000000	-1.000000	-1.000000	-1.000000	-1.000000	-1.000000	-1.000000	64.000000	0.000000	-1.000000	-1.000000	810825.000000	1776578021.260121
40251.060000	-18402.030000	52789.230000	71358.120000	5645.070000	-10291.905000	-40755.645000	-8026.110000	-6.436498	-29.505071	-15.211246	3.961441	-1.105810	-2.449407	9.713770	6.263261	35.906780	-7.172200	6.302380	-0.682676	0.004211	0.711302	-1.000000	-1.000000	-1.000000	-1.000000	-1.000000	-1.000000	-1.000000	64.000000	0.000000	-1.000000	-1.000000	810826.000000	1776578021.264272
40236.030000	-18412.920000	52778.295000	71336.385000	5598.360000	-10475.595000	-40786.065000	-8048.880000	-1.382440	-16.980688	-6.620010	4.916199	-6.176953	-15.957568	7.352107	7.184474	35.906780	-7.172200	6.302380	-0.682676	0.004211	0.711302	-1.000000	-1.000000	-1.000000	-1.000000	-1.000000	-1.000000	-1.000000	64.000000	0.000000	-1.000000	-1.000000	810827.000000	1776578021.264303
40193.730000	-18450.945000	52737.750000	71290.980000	5610.780000	-10207.620000	-40779.450000	-8085.465000	-0.639453	-3.208019	-1.842030	-1.042058	-14.734937	-36.008437	1.491863	1.869155	-25.529980	-5.844580	7.614740	-0.677977	0.078857	0.732298	-1.000000	-1.000000	-1.000000	-1.000000	-1.000000	-1.000000	-1.000000	64.000000	0.000000	-1.000000	-1.000000	810828.000000	1776578021.268119
40173.120000	-18461.655000	52739.505000	71304.795000	5623.380000	-10159.965000	-40745.745000	-8095.365000	-6.500665	3.708270	-3.722974	-12.299598	-19.008160	-32.276742	-4.869655	-8.969257	-25.529980	-5.844580	7.614740	-0.677977	0.078857	0.732298	-1.000000	-1.000000	-1.000000	-1.000000	-1.000000	-1.000000	-1.000000	64.000000	0.000000	-1.000000	-1.000000	810829.000000	1776578021.268128
40209.525000	-18417.375000	52800.255000	71384.220000	5695.335000	-10186.965000	-40758.255000	-8067.915000	-13.471604	3.687094	-6.706867	-18.988695	-10.803090	8.285579	-6.689988	-17.826605	-25.529980	-5.844580	7.614740	-0.677977	0.078857	0.732298	-1.000000	-1.000000	-1.000000	-1.000000	-1.000000	-1.000000	-1.000000	64.000000	0.000000	-1.000000	-1.000000	810830.000000	1776578021.272086
40233.555000	-18405.540000	52802.280000	71387.685000	5699.925000	-10193.715000	-40787.730000	-8048.880000	-12.090415	4.185135	-2.371766	-11.283529	9.315658	54.520027	-4.152750	-16.002298	-25.529980	-5.844580	7.614740	-0.677977	0.078857	0.732298	-1.000000	-1.000000	-1.000000	-1.000000	-1.000000	-1.000000	-1.000000	64.000000	0.000000	-1.000000	-1.000000	810831.000000	1776578021.272096
40216.140000	-18461.520000	52746.840000	71329.590000	5655.150000	-10206.675000	-40793.760000	-8055.585000	0.156504	8.190910	7.927286	5.956823	28.602197	68.448937	-2.535550	-2.857872	-25.529980	-5.844580	7.614740	-0.677977	0.078857	0.732298	-1.000000	-1.000000	-1.000000	-1.000000	-1.000000	-1.000000	-1.000000	64.000000	0.000000	-1.000000	-1.000000	810832.000000	1776578021.276083
40239.180000	-18448.605000	52765.785000	71329.410000	5646.150000	-10220.265000	-40777.155000	-8032.995000	14.773904	9.854546	13.402309	16.118104	31.171271	42.970908	-3.563674	12.810155	-25.529980	-5.844580	7.614740	-0.677977	0.078857	0.732298	-1.000000	-1.000000	-1.000000	-1.000000	-1.000000	-1.000000	-1.000000	64.000000	0.000000	-1.000000	-1.000000	810833.000000	1776578021.276093
40241.970000	-18433.530000	52769.160000	71318.520000	5615.865000	-10246.005000	-40771.035000	-8029.620000	22.072184	5.951962	9.430808	11.146252	13.837184	-2.236824	-3.436670	21.621126	-25.529980	-5.844580	7.614740	-0.677977	0.078857	0.732298	-1.000000	-1.000000	-1.000000	-1.000000	-1.000000	-1.000000	-1.000000	64.000000	0.000000	-1.000000	-1.000000	810834.000000	1776578021.280146
40235.400000	-18436.815000	52761.240000	71319.510000	5616.405000	-10217.970000	-40757.220000	-8031.960000	18.976165	0.931781	1.580759	-1.640928	-11.292954	-40.645807	0.666368	19.982361	-25.529980	-5.844580	7.614740	-0.677977	0.078857	0.732298	-1.000000	-1.000000	-1.000000	-1.000000	-1.000000	-1.000000	-1.000000	64.000000	0.000000	-1.000000	-1.000000	810835.000000	1776578021.280159
40218.795000	-18425.790000	52769.430000	71331.030000	5650.110000	-10134.990000	-40747.950000	-8043.615000	7.599505	-1.110448	-4.069381	-10.683703	-27.667490	-52.657366	6.974771	9.473874	-25.529980	-5.844580	7.614740	-0.677977	0.078857	0.732298	-1.000000	-1.000000	-1.000000	-1.000000	-1.000000	-1.000000	-1.000000	64.000000	0.000000	-1.000000	-1.000000	810836.000000	1776578021.284041
40213.710000	-18428.670000	52761.420000	71335.620000	5655.330000	-10227.420000	-40767.615000	-8057.790000	-7.023057	-0.471391	-5.571517	-10.040507	-25.588058	-35.917659	10.965722	-5.109740	-25.529980	-5.844580	7.614740	-0.677977	0.078857	0.732298	-1.000000	-1.000000	-1.000000	-1.000000	-1.000000	-1.000000	-1.000000	64.000000	0.000000	-1.000000	-1.000000	810837.000000	1776578021.284056
40217.085000	-18461.520000	52750.080000	71334.540000	5667.435000	-10299.420000	-40801.005000	-8059.950000	-18.204569	-0.053998	-4.208545	-1.822927	-8.527400	-10.015097	8.256716	-17.522825	-37.463300	-2.563680	5.829320	-0.664915	0.054870	0.744200	-1.000000	-1.000000	-1.000000	-1.000000	-1.000000	-1.000000	-1.000000	64.000000	0.000000	-1.000000	-1.000000	810838.000000	1776578021.288280
40203.585000	-18472.005000	52737.480000	71334.900000	5662.710000	-10314.180000	-40806.720000	-8067.420000	-20.969939	-2.782873	-2.685825	7.126056	10.727101	2.602107	-1.499244	-22.504615	-37.463300	-2.563680	5.829320	-0.664915	0.054870	0.744200	-1.000000	-1.000000	-1.000000	-1.000000	-1.000000	-1.000000	-1.000000	64.000000	0.000000	-1.000000	-1.000000	810839.000000	1776578021.288290
40202.730000	-18456.975000	52754.445000	71361.360000	5679.945000	-10201.050000	-40789.035000	-8061.255000	-15.378133	-7.449654	-2.009188	11.635538	20.931227	2.613804	-11.930820	-18.295187	-37.463300	-2.563680	5.829320	-0.664915	0.054870	0.744200	-1.000000	-1.000000	-1.000000	-1.000000	-1.000000	-1.000000	-1.000000	64.000000	0.000000	-1.000000	-1.000000	810840.000000	1776578021.292011
40213.080000	-18445.770000	52768.530000	71352.000000	5674.410000	-10161.720000	-40784.085000	-8057.250000	-5.189046	-8.658706	-0.334349	11.086183	19.065124	8.106759	-14.551909	-7.258124	-37.463300	-2.563680	5.829320	-0.664915	0.054870	0.744200	-1.000000	-1.000000	-1.000000	-1.000000	-1.000000	-1.000000	-1.000000	64.000000	0.000000	-1.000000	-1.000000	810841.000000	1776578021.292019
40221.135000	-18427.545000	52763.130000	71327.430000	5643.045000	-10233.945000	-40773.015000	-8060.580000	5.649873	-3.133351	3.532273	6.231390	8.315060	24.165168	-7.081710	5.499157	-37.463300	-2.563680	5.829320	-0.664915	0.054870	0.744200	-1.000000	-1.000000	-1.000000	-1.000000	-1.000000	-1.000000	-1.000000	64.000000	0.000000	-1.000000	-1.000000	810842.000000	1776578021.296171
40224.105000	-18427.140000	52754.535000	71322.930000	5627.745000	-10268.055000	-40773.375000	-8066.880000	13.822626	6.273223	6.990871	-2.313255	-6.357645	33.509903	4.926910	14.307705	-37.463300	-2.563680	5.829320	-0.664915	0.054870	0.744200	-1.000000	-1.000000	-1.000000	-1.000000	-1.000000	-1.000000	-1.000000	64.000000	0.000000	-1.000000	-1.000000	810843.000000	1776578021.296179
40224.735000	-18428.040000	52764.705000	71336.610000	5651.910000	-10224.990000	-40782.780000	-8067.330000	16.607358	13.072311	6.702327	-10.931413	-18.260041	22.754190	13.404087	15.907595	-37.463300	-2.563680	5.829320	-0.664915	0.054870	0.744200	-1.000000	-1.000000	-1.000000	-1.000000	-1.000000	-1.000000	-1.000000	64.000000	0.000000	-1.000000	-1.000000	810844.000000	1776578021.300109
