Channel1	Channel2	Channel3	Channel4	Channel5	Channel6	Channel7	Channel8	FilteredChannel1	FilteredChannel2	FilteredChannel3	FilteredChannel4	FilteredChannel5	FilteredChannel6	FilteredChannel7	FilteredChannel8	GyroX	GyroY	GyroZ	AccX	AccY	AccZ	PPG1	PPG2	rawPPG1	rawPPG2	rawPPG3	Hr	Hrv	Battery	Trigger	PhysicalTrigger	AutoTrigger	NumMeasurements	Timestamp
2834.370000	-31171.500000	14782.680000	67701.645000	25046.010000	3441.195000	-27188.910000	-7196.580000	-0.878467	-1.299536	-0.798495	-0.195041	1.589235	0.050702	5.777728	2.195344	4.959500	1.129240	-2.746800	-0.765806	0.236389	0.580626	-1.000000	-1.000000	-1.000000	-1.000000	-1.000000	-1.000000	-1.000000	63.000000	0.000000	-1.000000	-1.000000	992337.000000	1776578384.708756
2833.245000	-31172.670000	14782.365000	67702.410000	25040.160000	3441.105000	-27192.150000	-7198.695000	-3.614650	-3.617150	-2.415946	-0.615254	2.076297	3.694590	6.690106	0.515597	4.959500	1.129240	-2.746800	-0.765806	0.236389	0.580626	-1.000000	-1.000000	-1.000000	-1.000000	-1.000000	-1.000000	-1.000000	63.000000	0.000000	-1.000000	-1.000000	992338.000000	1776578384.708766
2841.930000	-31161.915000	14792.220000	67711.365000	25037.055000	3449.970000	-27191.970000	-7194.015000	-4.382445	-3.794995	-2.055015	0.522895	4.489386	7.194630	5.040516	-1.008280	4.959500	1.129240	-2.746800	-0.765806	0.236389	0.580626	-1.000000	-1.000000	-1.000000	-1.000000	-1.000000	-1.000000	-1.000000	63.000000	0.000000	-1.000000	-1.000000	992339.000000	1776578384.712788
2839.905000	-31160.025000	14790.240000	67705.335000	25036.065000	3447.855000	-27196.740000	-7197.930000	-2.881698	-1.758311	0.058987	2.275839	5.149163	8.521438	1.632782	-1.723740	4.959500	1.129240	-2.746800	-0.765806	0.236389	0.580626	-1.000000	-1.000000	-1.000000	-1.000000	-1.000000	-1.000000	-1.000000	63.000000	0.000000	-1.000000	-1.000000	992340.000000	1776578384.712795
2838.960000	-31163.805000	14788.485000	67705.785000	25060.050000	3445.470000	-27197.190000	-7198.290000	-0.323351	1.107436	2.308970	2.961437	2.986908	6.557209	-2.121773	-1.746950	-1.922760	3.906560	-1.800680	-0.763304	0.244689	0.580443	-1.000000	-1.000000	-1.000000	-1.000000	-1.000000	-1.000000	-1.000000	63.000000	0.000000	-1.000000	-1.000000	992341.000000	1776578384.716967
2847.960000	-31159.350000	14793.570000	67711.185000	25051.455000	3436.785000	-27194.220000	-7190.190000	1.644529	2.717664	2.980407	1.793048	0.164134	1.661246	-4.607756	-1.353337	-1.922760	3.906560	-1.800680	-0.763304	0.244689	0.580443	-1.000000	-1.000000	-1.000000	-1.000000	-1.000000	-1.000000	-1.000000	63.000000	0.000000	-1.000000	-1.000000	992342.000000	1776578384.716988
2849.355000	-31161.240000	14791.545000	67708.530000	25037.775000	3432.555000	-27186.705000	-7184.475000	2.485905	2.218857	1.865413	-0.316236	-2.167844	-4.345852	-4.617540	-0.334154	-1.922760	3.906560	-1.800680	-0.763304	0.244689	0.580443	-1.000000	-1.000000	-1.000000	-1.000000	-1.000000	-1.000000	-1.000000	63.000000	0.000000	-1.000000	-1.000000	992343.000000	1776578384.720810
2841.435000	-31169.295000	14785.155000	67704.030000	25039.845000	3433.950000	-27186.840000	-7189.155000	2.245964	0.217217	-0.208996	-2.190248	-4.814574	-8.753658	-2.206425	1.156578	-1.922760	3.906560	-1.800680	-0.763304	0.244689	0.580443	-1.000000	-1.000000	-1.000000	-1.000000	-1.000000	-1.000000	-1.000000	63.000000	0.000000	-1.000000	-1.000000	992344.000000	1776578384.720822
2835.810000	-31173.165000	14782.905000	67706.955000	25046.865000	3441.735000	-27190.305000	-7193.970000	0.624706	-2.342180	-2.478179	-3.347676	-7.097242	-9.192918	0.896631	1.851150	-1.922760	3.906560	-1.800680	-0.763304	0.244689	0.580443	-1.000000	-1.000000	-1.000000	-1.000000	-1.000000	-1.000000	-1.000000	63.000000	0.000000	-1.000000	-1.000000	992345.000000	1776578384.724834
2839.725000	-31169.790000	14785.470000	67707.450000	25042.545000	3437.325000	-27196.920000	-7193.925000	-1.938524	-4.218635	-4.009308	-3.406210	-6.879015	-5.352310	2.411142	0.783833	-1.922760	3.906560	-1.800680	-0.763304	0.244689	0.580443	-1.000000	-1.000000	-1.000000	-1.000000	-1.000000	-1.000000	-1.000000	63.000000	0.000000	-1.000000	-1.000000	992346.000000	1776578384.724846
2846.655000	-31164.570000	14791.005000	67709.835000	25041.780000	3441.960000	-27195.570000	-7189.605000	-3.548978	-3.957159	-3.683345	-2.149517	-3.869877	0.410655	1.491119	-1.182658	-1.922760	3.906560	-1.800680	-0.763304	0.244689	0.580443	-1.000000	-1.000000	-1.000000	-1.000000	-1.000000	-1.000000	-1.000000	63.000000	0.000000	-1.000000	-1.000000	992347.000000	1776578384.728988
2839.995000	-31171.230000	14783.355000	67704.390000	25038.810000	3445.200000	-27197.550000	-7195.590000	-2.767021	-1.348040	-1.427754	-0.185974	0.026560	5.037357	-0.609660	-2.349288	-1.922760	3.906560	-1.800680	-0.763304	0.244689	0.580443	-1.000000	-1.000000	-1.000000	-1.000000	-1.000000	-1.000000	-1.000000	63.000000	0.000000	-1.000000	-1.000000	992348.000000	1776578384.729007
2843.370000	-31167.360000	14785.380000	67707.405000	25031.115000	3447.900000	-27195.480000	-7192.170000	-0.399680	1.909687	1.220201	1.356514	2.754284	6.922349	-1.964345	-2.079546	-1.922760	3.906560	-1.800680	-0.763304	0.244689	0.580443	-1.000000	-1.000000	-1.000000	-1.000000	-1.000000	-1.000000	-1.000000	63.000000	0.000000	-1.000000	-1.000000	992349.000000	1776578384.732901
2858.130000	-31153.140000	14798.025000	67717.530000	24991.830000	3430.845000	-27193.590000	-7182.315000	2.015846	4.189643	2.920889	2.099592	2.723084	5.702857	-1.603100	-0.636320	-1.922760	3.906560	-1.800680	-0.763304	0.244689	0.580443	-1.000000	-1.000000	-1.000000	-1.000000	-1.000000	-1.000000	-1.000000	63.000000	0.000000	-1.000000	-1.000000	992350.000000	1776578384.732924
2859.705000	-31154.445000	14796.225000	67710.600000	24946.695000	3402.855000	-27193.635000	-7180.920000	3.944473	5.270986	3.749441	2.457145	-1.325699	1.223630	0.092074	1.585615	-8.698200	4.669560	-1.846460	-0.765501	0.247070	0.580260	-1.000000	-1.000000	-1.000000	-1.000000	-1.000000	-1.000000	-1.000000	63.000000	0.000000	-1.000000	-1.000000	992351.000000	1776578384.736730
2855.115000	-31160.385000	14789.610000	67703.985000	25014.510000	3417.480000	-27195.615000	-7186.005000	4.736423	4.851242	3.619574	2.128005	-6.666780	-5.111951	1.849211	3.447228	-8.698200	4.669560	-1.846460	-0.765501	0.247070	0.580260	-1.000000	-1.000000	-1.000000	-1.000000	-1.000000	-1.000000	-1.000000	63.000000	0.000000	-1.000000	-1.000000	992352.000000	1776578384.736740
2851.695000	-31163.805000	14787.630000	67710.330000	25113.015000	3451.545000	-27198.450000	-7189.965000	3.212677	2.200428	1.797334	0.575059	-3.705398	-8.327148	2.431781	3.312684	-8.698200	4.669560	-1.846460	-0.765501	0.247070	0.580260	-1.000000	-1.000000	-1.000000	-1.000000	-1.000000	-1.000000	-1.000000	63.000000	0.000000	-1.000000	-1.000000	992353.000000	1776578384.740721
2846.880000	-31168.620000	14784.210000	67712.760000	25123.860000	3461.175000	-27200.565000	-7194.150000	-0.563909	-2.095534	-1.367101	-1.231705	13.093812	-3.832748	1.511383	0.822513	-8.698200	4.669560	-1.846460	-0.765501	0.247070	0.580260	-1.000000	-1.000000	-1.000000	-1.000000	-1.000000	-1.000000	-1.000000	63.000000	0.000000	-1.000000	-1.000000	992354.000000	1776578384.740729
2846.970000	-31169.070000	14786.010000	67714.605000	25075.845000	3461.175000	-27200.340000	-7194.240000	-4.671208	-5.904789	-4.117060	-1.784970	31.400482	5.840307	-0.173391	-2.478768	-8.698200	4.669560	-1.846460	-0.765501	0.247070	0.580260	-1.000000	-1.000000	-1.000000	-1.000000	-1.000000	-1.000000	-1.000000	63.000000	0.000000	-1.000000	-1.000000	992355.000000	1776578384.744833
2851.695000	-31164.120000	14788.665000	67716.180000	25060.230000	3456.630000	-27194.850000	-7187.940000	-6.640512	-7.047007	-4.736529	-0.928156	30.950427	12.595481	-1.343851	-4.304772	-8.698200	4.669560	-1.846460	-0.765501	0.247070	0.580260	-1.000000	-1.000000	-1.000000	-1.000000	-1.000000	-1.000000	-1.000000	63.000000	0.000000	-1.000000	-1.000000	992356.000000	1776578384.744841
2853.360000	-31162.680000	14790.375000	67717.260000	25068.330000	3462.435000	-27191.385000	-7185.105000	-5.186422	-4.741996	-2.833625	0.350186	7.595359	11.072626	-1.071455	-3.289945	-8.698200	4.669560	-1.846460	-0.765501	0.247070	0.580260	-1.000000	-1.000000	-1.000000	-1.000000	-1.000000	-1.000000	-1.000000	63.000000	0.000000	-1.000000	-1.000000	992357.000000	1776578384.751160
2853.270000	-31164.165000	14789.115000	67715.505000	25064.955000	3458.970000	-27191.070000	-7182.585000	-1.237619	-0.325896	0.356480	1.027123	-22.367751	2.847145	0.386670	-0.087756	-8.698200	4.669560	-1.846460	-0.765501	0.247070	0.580260	-1.000000	-1.000000	-1.000000	-1.000000	-1.000000	-1.000000	-1.000000	63.000000	0.000000	-1.000000	-1.000000	992358.000000	1776578384.751191
2851.875000	-31165.920000	14787.630000	67712.085000	25053.390000	3447.450000	-27193.635000	-7183.530000	2.747667	3.575289	2.870184	0.613187	-40.083919	-6.775995	1.670009	3.113238	-8.698200	4.669560	-1.846460	-0.765501	0.247070	0.580260	-1.000000	-1.000000	-1.000000	-1.000000	-1.000000	-1.000000	-1.000000	63.000000	0.000000	-1.000000	-1.000000	992359.000000	1776578384.752883
2849.490000	-31169.025000	14786.010000	67709.520000	25050.015000	3445.380000	-27192.105000	-7185.780000	4.650672	4.986738	3.436217	-0.687391	-38.664875	-13.350724	1.592014	4.283664	-8.698200	4.669560	-1.846460	-0.765501	0.247070	0.580260	-1.000000	-1.000000	-1.000000	-1.000000	-1.000000	-1.000000	-1.000000	63.000000	0.000000	-1.000000	-1.000000	992360.000000	1776578384.752893
2854.485000	-31168.035000	14786.910000	67710.780000	25049.385000	3447.360000	-27186.885000	-7180.380000	4.066574	3.785365	2.214053	-2.011597	-22.746980	-14.529595	0.347863	3.004196	-7.904680	2.365300	1.587040	-0.768858	0.245422	0.579039	-1.000000	-1.000000	-1.000000	-1.000000	-1.000000	-1.000000	-1.000000	63.000000	0.000000	-1.000000	-1.000000	992361.000000	1776578384.756785
2857.275000	-31169.115000	14784.300000	67705.965000	25044.615000	3441.285000	-27186.615000	-7177.275000	2.249357	1.356134	0.332981	-2.415114	-1.745041	-10.172289	-0.871343	0.631033	-7.904680	2.365300	1.587040	-0.768858	0.245422	0.579039	-1.000000	-1.000000	-1.000000	-1.000000	-1.000000	-1.000000	-1.000000	63.000000	0.000000	-1.000000	-1.000000	992362.000000	1776578384.756806
2857.095000	-31168.935000	14784.300000	67704.120000	25039.620000	3436.695000	-27189.495000	-7177.770000	0.654544	-0.702850	-1.138386	-1.720403	15.427820	-2.733311	-1.396199	-1.185598	-7.904680	2.365300	1.587040	-0.768858	0.245422	0.579039	-1.000000	-1.000000	-1.000000	-1.000000	-1.000000	-1.000000	-1.000000	63.000000	0.000000	-1.000000	-1.000000	992363.000000	1776578384.760705
2851.020000	-31173.390000	14781.285000	67703.895000	25036.740000	3441.600000	-27194.535000	-7184.970000	-0.417065	-1.665274	-1.745917	-0.431852	23.586590	4.316184	-1.613405	-2.077405	-7.904680	2.365300	1.587040	-0.768858	0.245422	0.579039	-1.000000	-1.000000	-1.000000	-1.000000	-1.000000	-1.000000	-1.000000	63.000000	0.000000	-1.000000	-1.000000	992364.000000	1776578384.760710
2854.755000	-31167.360000	14788.800000	67712.580000	25045.920000	3454.020000	-27188.415000	-7182.495000	-1.381097	-1.618362	-1.431488	1.120112	22.646098	9.077901	-1.869493	-2.588068	-7.904680	2.365300	1.587040	-0.768858	0.245422	0.579039	-1.000000	-1.000000	-1.000000	-1.000000	-1.000000	-1.000000	-1.000000	63.000000	0.000000	-1.000000	-1.000000	992365.000000	1776578384.764765
2855.160000	-31166.235000	14788.485000	67708.395000	25036.065000	3444.570000	-27191.205000	-7181.730000	-2.097886	-0.763270	-0.262551	2.768250	16.046246	11.155447	-1.715504	-2.736130	-7.904680	2.365300	1.587040	-0.768858	0.245422	0.579039	-1.000000	-1.000000	-1.000000	-1.000000	-1.000000	-1.000000	-1.000000	63.000000	0.000000	-1.000000	-1.000000	992366.000000	1776578384.764777
2856.870000	-31164.030000	14789.970000	67707.360000	25032.465000	3436.605000	-27192.240000	-7179.345000	-1.990402	0.572062	1.236790	3.735062	7.373022	9.857205	-0.831770	-1.977978	-7.904680	2.365300	1.587040	-0.768858	0.245422	0.579039	-1.000000	-1.000000	-1.000000	-1.000000	-1.000000	-1.000000	-1.000000	63.000000	0.000000	-1.000000	-1.000000	992367.000000	1776578384.768833
2860.065000	-31161.420000	14793.300000	67708.845000	25045.110000	3439.170000	-27188.595000	-7176.825000	-0.971109	1.689930	2.166072	3.159799	-0.656516	5.038513	0.379767	-0.259851	-7.904680	2.365300	1.587040	-0.768858	0.245422	0.579039	-1.000000	-1.000000	-1.000000	-1.000000	-1.000000	-1.000000	-1.000000	63.000000	0.000000	-1.000000	-1.000000	992368.000000	1776578384.768846
2857.185000	-31163.220000	14792.310000	67709.655000	25064.100000	3439.755000	-27195.660000	-7184.970000	0.380610	1.929258	2.031870	1.330122	-5.254588	-1.029881	1.345677	1.539070	-7.904680	2.365300	1.587040	-0.768858	0.245422	0.579039	-1.000000	-1.000000	-1.000000	-1.000000	-1.000000	-1.000000	-1.000000	63.000000	0.000000	-1.000000	-1.000000	992369.000000	1776578384.772796
2861.460000	-31158.990000	14797.980000	67715.730000	25049.700000	3441.285000	-27194.805000	-7183.260000	1.272071	1.132012	1.023030	-0.542234	-5.375281	-5.146022	1.573666	2.206200	-7.904680	2.365300	1.587040	-0.768858	0.245422	0.579039	-1.000000	-1.000000	-1.000000	-1.000000	-1.000000	-1.000000	-1.000000	63.000000	0.000000	-1.000000	-1.000000	992370.000000	1776578384.772802
2864.925000	-31157.055000	14800.230000	67719.150000	25056.765000	3450.510000	-27187.470000	-7178.445000	1.434292	-0.170515	-0.192579	-1.399299	-3.564006	-5.720966	1.167524	1.593849	-3.723440	1.693860	-0.488320	-0.769529	0.241210	0.578734	-1.000000	-1.000000	-1.000000	-1.000000	-1.000000	-1.000000	-1.000000	63.000000	0.000000	-1.000000	-1.000000	992371.000000	1776578384.776772
2862.945000	-31159.980000	14797.260000	67715.730000	25053.705000	3451.005000	-27187.425000	-7179.345000	1.137770	-1.265610	-1.081307	-1.203593	-2.861575	-3.287692	0.957965	0.770788	-3.723440	1.693860	-0.488320	-0.769529	0.241210	0.578734	-1.000000	-1.000000	-1.000000	-1.000000	-1.000000	-1.000000	-1.000000	63.000000	0.000000	-1.000000	-1.000000	992372.000000	1776578384.776780
2866.905000	-31158.180000	14799.105000	67717.845000	25051.995000	3454.785000	-27183.825000	-7174.845000	0.556161	-1.924992	-1.695366	-0.869891	-3.718755	0.122772	1.272547	0.503356	-3.723440	1.693860	-0.488320	-0.769529	0.241210	0.578734	-1.000000	-1.000000	-1.000000	-1.000000	-1.000000	-1.000000	-1.000000	63.000000	0.000000	-1.000000	-1.000000	992373.000000	1776578384.781118
2861.145000	-31165.515000	14788.710000	67707.720000	25043.580000	3449.745000	-27188.685000	-7179.390000	-0.266474	-2.255989	-2.292490	-1.210875	-5.044601	2.212535	1.444436	0.585227	-3.723440	1.693860	-0.488320	-0.769529	0.241210	0.578734	-1.000000	-1.000000	-1.000000	-1.000000	-1.000000	-1.000000	-1.000000	63.000000	0.000000	-1.000000	-1.000000	992374.000000	1776578384.781133
2864.070000	-31161.555000	14791.770000	67709.655000	25038.810000	3445.335000	-27189.405000	-7176.780000	-1.196291	-2.304334	-2.880253	-2.238702	-5.789782	1.760169	0.689718	0.414281	-3.723440	1.693860	-0.488320	-0.769529	0.241210	0.578734	-1.000000	-1.000000	-1.000000	-1.000000	-1.000000	-1.000000	-1.000000	63.000000	0.000000	-1.000000	-1.000000	992375.000000	1776578384.784998
2873.430000	-31151.970000	14800.005000	67716.765000	25048.935000	3445.245000	-27187.380000	-7169.040000	-1.676310	-1.630046	-2.744460	-2.920635	-4.986876	-0.709056	-0.887873	-0.065183	-3.723440	1.693860	-0.488320	-0.769529	0.241210	0.578734	-1.000000	-1.000000	-1.000000	-1.000000	-1.000000	-1.000000	-1.000000	63.000000	0.000000	-1.000000	-1.000000	992376.000000	1776578384.785010
2873.745000	-31153.725000	14800.230000	67718.880000	25060.905000	3447.630000	-27187.020000	-7168.680000	-0.977894	0.229183	-0.983113	-1.913971	-1.690097	-3.200153	-2.228536	-0.243215	-3.723440	1.693860	-0.488320	-0.769529	0.241210	0.578734	-1.000000	-1.000000	-1.000000	-1.000000	-1.000000	-1.000000	-1.000000	63.000000	0.000000	-1.000000	-1.000000	992377.000000	1776578384.789052
2868.570000	-31159.035000	14795.955000	67714.560000	25043.670000	3442.320000	-27183.555000	-7170.525000	0.443657	2.336388	1.752447	0.571044	3.320668	-3.885170	-2.383755	-0.038507	-3.723440	1.693860	-0.488320	-0.769529	0.241210	0.578734	-1.000000	-1.000000	-1.000000	-1.000000	-1.000000	-1.000000	-1.000000	63.000000	0.000000	-1.000000	-1.000000	992378.000000	1776578384.789069
2866.410000	-31158.405000	14796.495000	67714.605000	25037.325000	3445.830000	-27181.620000	-7173.090000	1.047633	2.941090	3.500991	2.673993	6.636090	-2.562052	-1.290427	-0.186916	-3.723440	1.693860	-0.488320	-0.769529	0.241210	0.578734	-1.000000	-1.000000	-1.000000	-1.000000	-1.000000	-1.000000	-1.000000	63.000000	0.000000	-1.000000	-1.000000	992379.000000	1776578384.792940
2868.480000	-31157.055000	14797.980000	67714.560000	25040.700000	3444.660000	-27186.480000	-7175.070000	0.220506	1.701823	3.256626	3.016615	5.799826	-0.194225	0.233390	-1.086811	-3.723440	1.693860	-0.488320	-0.769529	0.241210	0.578734	-1.000000	-1.000000	-1.000000	-1.000000	-1.000000	-1.000000	-1.000000	63.000000	0.000000	-1.000000	-1.000000	992380.000000	1776578384.792951
2870.235000	-31156.695000	14798.520000	67716.810000	25058.610000	3456.855000	-27187.290000	-7173.855000	-0.993683	-0.098355	1.723262	1.892925	2.662092	2.279745	1.018650	-2.171828	-0.808780	4.135460	-1.968540	-0.767027	0.238952	0.575926	-1.000000	-1.000000	-1.000000	-1.000000	-1.000000	-1.000000	-1.000000	63.000000	0.000000	-1.000000	-1.000000	992381.000000	1776578384.797079
2872.530000	-31154.490000	14802.075000	67720.725000	25051.140000	3459.645000	-27188.370000	-7171.965000	-1.288461	-1.156062	0.161842	0.523444	0.720917	4.332703	0.619180	-2.428827	-0.808780	4.135460	-1.968540	-0.767027	0.238952	0.575926	-1.000000	-1.000000	-1.000000	-1.000000	-1.000000	-1.000000	-1.000000	63.000000	0.000000	-1.000000	-1.000000	992382.000000	1776578384.797090
2871.720000	-31153.365000	14804.640000	67721.580000	25044.210000	3450.375000	-27191.880000	-7172.865000	-0.438127	-1.080154	-0.611478	-0.163427	0.476418	5.130980	-0.373228	-1.396603	-0.808780	4.135460	-1.968540	-0.767027	0.238952	0.575926	-1.000000	-1.000000	-1.000000	-1.000000	-1.000000	-1.000000	-1.000000	63.000000	0.000000	-1.000000	-1.000000	992383.000000	1776578384.801082
2869.155000	-31156.965000	14801.760000	67717.980000	25059.060000	3446.100000	-27191.655000	-7174.530000	0.698475	-0.363839	-0.610742	-0.245294	0.195098	3.454714	-1.126328	0.317607	-0.808780	4.135460	-1.968540	-0.767027	0.238952	0.575926	-1.000000	-1.000000	-1.000000	-1.000000	-1.000000	-1.000000	-1.000000	63.000000	0.000000	-1.000000	-1.000000	992384.000000	1776578384.801099
2866.320000	-31162.455000	14797.035000	67716.720000	25075.980000	3450.735000	-27190.215000	-7175.295000	1.098009	0.031779	-0.601103	-0.466629	-0.127134	-0.386271	-1.085511	1.631195	-0.808780	4.135460	-1.968540	-0.767027	0.238952	0.575926	-1.000000	-1.000000	-1.000000	-1.000000	-1.000000	-1.000000	-1.000000	63.000000	0.000000	-1.000000	-1.000000	992385.000000	1776578384.805142
2874.555000	-31154.265000	14804.010000	67722.300000	25060.005000	3447.720000	-27184.950000	-7166.745000	0.664232	-0.274987	-1.062866	-1.034829	0.365751	-3.978422	-0.050612	2.123570	-0.808780	4.135460	-1.968540	-0.767027	0.238952	0.575926	-1.000000	-1.000000	-1.000000	-1.000000	-1.000000	-1.000000	-1.000000	63.000000	0.000000	-1.000000	-1.000000	992386.000000	1776578384.805169
2874.105000	-31154.760000	14801.850000	67717.665000	25042.860000	3440.070000	-27188.955000	-7168.230000	0.292531	-0.503608	-1.430594	-1.359790	0.074917	-5.359553	1.539547	2.207480	-0.808780	4.135460	-1.968540	-0.767027	0.238952	0.575926	-1.000000	-1.000000	-1.000000	-1.000000	-1.000000	-1.000000	-1.000000	63.000000	0.000000	-1.000000	-1.000000	992387.000000	1776578384.808846
2875.770000	-31153.095000	14801.985000	67715.055000	25039.980000	3444.795000	-27187.245000	-7167.465000	0.528762	0.044899	-1.108690	-1.203543	-2.933270	-4.507982	2.604823	2.063129	-0.808780	4.135460	-1.968540	-0.767027	0.238952	0.575926	-1.000000	-1.000000	-1.000000	-1.000000	-1.000000	-1.000000	-1.000000	63.000000	0.000000	-1.000000	-1.000000	992388.000000	1776578384.808858
2877.210000	-31151.070000	14805.270000	67721.850000	25062.975000	3461.085000	-27180.585000	-7163.730000	0.935563	0.993490	-0.285782	-0.803649	-6.517072	-1.858869	2.493593	1.416968	-0.808780	4.135460	-1.968540	-0.767027	0.238952	0.575926	-1.000000	-1.000000	-1.000000	-1.000000	-1.000000	-1.000000	-1.000000	63.000000	0.000000	-1.000000	-1.000000	992389.000000	1776578384.812936
2872.485000	-31153.365000	14802.885000	67721.715000	25068.285000	3462.705000	-27183.465000	-7168.005000	0.835297	1.538976	0.577767	-0.056968	-6.114135	2.221571	1.586192	0.266855	-0.808780	4.135460	-1.968540	-0.767027	0.238952	0.575926	-1.000000	-1.000000	-1.000000	-1.000000	-1.000000	-1.000000	-1.000000	63.000000	0.000000	-1.000000	-1.000000	992390.000000	1776578384.812946
2875.590000	-31151.790000	14803.380000	67721.805000	25065.585000	3461.310000	-27179.415000	-7165.170000	-0.015603	1.207956	1.049569	0.998241	-0.864096	5.950300	0.415328	-1.085566	0.640920	8.057280	-0.473060	-0.764708	0.241577	0.577818	-1.000000	-1.000000	-1.000000	-1.000000	-1.000000	-1.000000	-1.000000	63.000000	0.000000	-1.000000	-1.000000	992391.000000	1776578384.817001
2868.795000	-31160.565000	14793.705000	67710.915000	25056.135000	3446.730000	-27184.230000	-7170.165000	-1.233877	0.029700	0.737648	1.513430	4.876101	6.486509	-0.819609	-2.236772	0.640920	8.057280	-0.473060	-0.764708	0.241577	0.577818	-1.000000	-1.000000	-1.000000	-1.000000	-1.000000	-1.000000	-1.000000	63.000000	0.000000	-1.000000	-1.000000	992392.000000	1776578384.817022
2872.980000	-31157.775000	14795.730000	67712.580000	25059.060000	3443.355000	-27184.140000	-7167.690000	-2.135094	-1.536876	-0.367267	0.700277	6.589874	2.661561	-1.995442	-2.778520	0.640920	8.057280	-0.473060	-0.764708	0.241577	0.577818	-1.000000	-1.000000	-1.000000	-1.000000	-1.000000	-1.000000	-1.000000	63.000000	0.000000	-1.000000	-1.000000	992393.000000	1776578384.821119
2876.400000	-31151.520000	14803.740000	67722.930000	25062.030000	3450.240000	-27187.470000	-7168.320000	-2.046777	-2.465258	-1.319837	-0.676338	4.037227	-3.155701	-2.874057	-2.438129	0.640920	8.057280	-0.473060	-0.764708	0.241577	0.577818	-1.000000	-1.000000	-1.000000	-1.000000	-1.000000	-1.000000	-1.000000	63.000000	0.000000	-1.000000	-1.000000	992394.000000	1776578384.821139
2882.835000	-31145.130000	14809.680000	67728.780000	25052.310000	3452.580000	-27182.970000	-7161.750000	-0.603071	-1.627366	-0.728608	-0.738814	0.045966	-6.672952	-2.999970	-1.137023	0.640920	8.057280	-0.473060	-0.764708	0.241577	0.577818	-1.000000	-1.000000	-1.000000	-1.000000	-1.000000	-1.000000	-1.000000	63.000000	0.000000	-1.000000	-1.000000	992395.000000	1776578384.824954
2887.065000	-31143.645000	14808.645000	67723.515000	25045.335000	3452.085000	-27181.890000	-7157.430000	1.700352	0.800811	1.394984	0.890795	-3.174811	-5.690258	-1.958837	0.883272	0.640920	8.057280	-0.473060	-0.764708	0.241577	0.577818	-1.000000	-1.000000	-1.000000	-1.000000	-1.000000	-1.000000	-1.000000	63.000000	0.000000	-1.000000	-1.000000	992396.000000	1776578384.824967
2881.170000	-31150.665000	14803.155000	67719.060000	25042.410000	3453.435000	-27182.520000	-7162.695000	3.437918	2.961858	3.140800	2.255584	-4.888987	-1.684596	-0.004179	2.758988	0.640920	8.057280	-0.473060	-0.764708	0.241577	0.577818	-1.000000	-1.000000	-1.000000	-1.000000	-1.000000	-1.000000	-1.000000	63.000000	0.000000	-1.000000	-1.000000	992397.000000	1776578384.828974
2883.195000	-31147.605000	14806.170000	67721.985000	25043.175000	3454.425000	-27179.820000	-7160.715000	3.176980	2.974952	2.732042	1.625580	-4.648082	2.376871	1.876758	3.225696	0.640920	8.057280	-0.473060	-0.764708	0.241577	0.577818	-1.000000	-1.000000	-1.000000	-1.000000	-1.000000	-1.000000	-1.000000	63.000000	0.000000	-1.000000	-1.000000	992398.000000	1776578384.828984
2881.620000	-31148.055000	14806.755000	67722.930000	25043.850000	3451.500000	-27180.855000	-7163.190000	0.908948	0.904483	0.489715	-0.408045	-2.290600	4.403329	2.793678	1.868529	0.640920	8.057280	-0.473060	-0.764708	0.241577	0.577818	-1.000000	-1.000000	-1.000000	-1.000000	-1.000000	-1.000000	-1.000000	63.000000	0.000000	-1.000000	-1.000000	992399.000000	1776578384.833115
2881.575000	-31146.795000	14808.105000	67724.910000	25057.620000	3454.155000	-27183.465000	-7167.105000	-1.878511	-1.522339	-1.800360	-2.030124	1.574616	3.923227	2.434161	-0.464411	0.640920	8.057280	-0.473060	-0.764708	0.241577	0.577818	-1.000000	-1.000000	-1.000000	-1.000000	-1.000000	-1.000000	-1.000000	63.000000	0.000000	-1.000000	-1.000000	992400.000000	1776578384.833130
2889.360000	-31137.255000	14818.095000	67734.360000	25066.170000	3456.810000	-27183.105000	-7162.020000	-3.469039	-2.619231	-2.634975	-2.062598	5.801350	1.938054	1.031519	-2.460490	-4.715340	0.488320	-3.967600	-0.765196	0.242858	0.578795	-1.000000	-1.000000	-1.000000	-1.000000	-1.000000	-1.000000	-1.000000	63.000000	0.000000	-1.000000	-1.000000	992401.000000	1776578384.840256
2889.180000	-31139.640000	14812.785000	67724.550000	25047.045000	3448.170000	-27181.845000	-7159.140000	-2.959872	-1.808194	-1.715653	-0.711642	8.341111	-0.190113	-0.602893	-2.917603	-4.715340	0.488320	-3.967600	-0.765196	0.242858	0.578795	-1.000000	-1.000000	-1.000000	-1.000000	-1.000000	-1.000000	-1.000000	63.000000	0.000000	-1.000000	-1.000000	992402.000000	1776578384.840276
2887.650000	-31144.185000	14807.295000	67720.095000	25050.105000	3452.085000	-27173.430000	-7155.855000	-0.973394	-0.138328	-0.297898	0.434556	6.756603	-1.831512	-1.382343	-1.484127	-4.715340	0.488320	-3.967600	-0.765196	0.242858	0.578795	-1.000000	-1.000000	-1.000000	-1.000000	-1.000000	-1.000000	-1.000000	63.000000	0.000000	-1.000000	-1.000000	992403.000000	1776578384.840969
2882.655000	-31144.095000	14801.535000	67711.320000	25032.060000	3444.390000	-27175.905000	-7160.040000	0.746451	0.659036	-0.087733	-0.089408	1.009107	-2.763211	-0.801609	0.766601	-4.715340	0.488320	-3.967600	-0.765196	0.242858	0.578795	-1.000000	-1.000000	-1.000000	-1.000000	-1.000000	-1.000000	-1.000000	63.000000	0.000000	-1.000000	-1.000000	992404.000000	1776578384.840978
2879.370000	-31140.720000	14799.780000	67701.780000	25033.365000	3438.405000	-27178.740000	-7161.975000	0.944510	0.183676	-1.291364	-2.052169	-5.841486	-2.953330	0.328260	2.092821	-4.715340	0.488320	-3.967600	-0.765196	0.242858	0.578795	-1.000000	-1.000000	-1.000000	-1.000000	-1.000000	-1.000000	-1.000000	63.000000	0.000000	-1.000000	-1.000000	992405.000000	1776578384.844906
2881.080000	-31146.165000	14804.460000	67715.910000	25056.090000	3457.485000	-27180.495000	-7161.525000	-0.086375	-0.610089	-2.396790	-3.593490	-9.476307	-2.251448	0.630483	1.658591	-4.715340	0.488320	-3.967600	-0.765196	0.242858	0.578795	-1.000000	-1.000000	-1.000000	-1.000000	-1.000000	-1.000000	-1.000000	63.000000	0.000000	-1.000000	-1.000000	992406.000000	1776578384.844913
2884.680000	-31146.930000	14803.155000	67714.020000	25005.330000	3443.535000	-27181.710000	-7157.880000	-0.907572	-1.026052	-1.829851	-2.543984	-7.849930	-0.242909	-0.251422	0.248259	-4.715340	0.488320	-3.967600	-0.765196	0.242858	0.578795	-1.000000	-1.000000	-1.000000	-1.000000	-1.000000	-1.000000	-1.000000	63.000000	0.000000	-1.000000	-1.000000	992407.000000	1776578384.848951
2885.310000	-31145.220000	14805.855000	67717.710000	25022.610000	3439.755000	-27181.395000	-7158.465000	-0.412358	-0.951484	0.418738	1.200680	-3.782676	2.069021	-1.444812	-0.753028	-4.715340	0.488320	-3.967600	-0.765196	0.242858	0.578795	-1.000000	-1.000000	-1.000000	-1.000000	-1.000000	-1.000000	-1.000000	63.000000	0.000000	-1.000000	-1.000000	992408.000000	1776578384.848958
2879.235000	-31149.720000	14803.920000	67725.360000	25141.680000	3476.115000	-27177.075000	-7162.605000	0.972406	-0.391286	2.910790	5.332718	1.836080	3.410380	-1.815769	-0.871761	-4.715340	0.488320	-3.967600	-0.765196	0.242858	0.578795	-1.000000	-1.000000	-1.000000	-1.000000	-1.000000	-1.000000	-1.000000	63.000000	0.000000	-1.000000	-1.000000	992409.000000	1776578384.852858
2873.025000	-31157.055000	14795.640000	67717.845000	25103.880000	3470.310000	-27181.440000	-7167.825000	1.720257	0.237407	3.972090	7.361779	11.935500	4.578010	-0.956788	-0.745794	-4.715340	0.488320	-3.967600	-0.765196	0.242858	0.578795	-1.000000	-1.000000	-1.000000	-1.000000	-1.000000	-1.000000	-1.000000	63.000000	0.000000	-1.000000	-1.000000	992410.000000	1776578384.852865
2875.905000	-31152.645000	14799.375000	67718.970000	25069.680000	3458.070000	-27182.745000	-7166.430000	1.027091	0.427391	2.878778	5.999667	20.592096	5.288037	0.386445	-0.928840	-3.784480	8.560860	-2.426340	-0.769041	0.243835	0.575560	-1.000000	-1.000000	-1.000000	-1.000000	-1.000000	-1.000000	-1.000000	63.000000	0.000000	-1.000000	-1.000000	992411.000000	1776578384.856986
2882.160000	-31145.040000	14806.035000	67724.280000	25074.270000	3461.355000	-27180.765000	-7161.615000	-0.098837	0.639999	0.739267	1.959726	15.979449	3.132793	1.207783	-0.965387	-3.784480	8.560860	-2.426340	-0.769041	0.243835	0.575560	-1.000000	-1.000000	-1.000000	-1.000000	-1.000000	-1.000000	-1.000000	63.000000	0.000000	-1.000000	-1.000000	992412.000000	1776578384.856993
2887.245000	-31140.090000	14811.435000	67728.060000	25071.705000	3460.095000	-27180.765000	-7156.665000	-0.074514	1.743035	-0.448282	-2.215118	-1.428061	-1.846155	1.332739	-0.018268	-3.784480	8.560860	-2.426340	-0.769041	0.243835	0.575560	-1.000000	-1.000000	-1.000000	-1.000000	-1.000000	-1.000000	-1.000000	63.000000	0.000000	-1.000000	-1.000000	992413.000000	1776578384.861006
2886.120000	-31141.080000	14810.535000	67725.675000	25061.310000	3457.305000	-27183.645000	-7158.510000	1.236629	3.349637	-0.045953	-4.433510	-19.228393	-6.544125	1.064608	1.759544	-3.784480	8.560860	-2.426340	-0.769041	0.243835	0.575560	-1.000000	-1.000000	-1.000000	-1.000000	-1.000000	-1.000000	-1.000000	63.000000	0.000000	-1.000000	-1.000000	992414.000000	1776578384.861021
2885.220000	-31143.735000	14808.420000	67723.605000	25063.830000	3462.075000	-27183.105000	-7159.005000	2.351742	3.836266	0.700967	-4.630521	-26.927520	-8.253953	0.543263	3.024784	-3.784480	8.560860	-2.426340	-0.769041	0.243835	0.575560	-1.000000	-1.000000	-1.000000	-1.000000	-1.000000	-1.000000	-1.000000	63.000000	0.000000	-1.000000	-1.000000	992415.000000	1776578384.865088
2886.255000	-31143.555000	14809.140000	67724.055000	25068.555000	3462.525000	-27180.315000	-7157.520000	1.926623	2.153943	0.380458	-3.828580	-21.963100	-6.302099	-0.004940	2.667141	-3.784480	8.560860	-2.426340	-0.769041	0.243835	0.575560	-1.000000	-1.000000	-1.000000	-1.000000	-1.000000	-1.000000	-1.000000	63.000000	0.000000	-1.000000	-1.000000	992416.000000	1776578384.865147
2886.570000	-31142.025000	14810.895000	67725.945000	25061.580000	3456.360000	-27178.920000	-7155.405000	0.115536	-0.921907	-0.998716	-2.642936	-8.460534	-2.093149	-0.163561	0.978961	-3.784480	8.560860	-2.426340	-0.769041	0.243835	0.575560	-1.000000	-1.000000	-1.000000	-1.000000	-1.000000	-1.000000	-1.000000	63.000000	0.000000	-1.000000	-1.000000	992417.000000	1776578384.868957
2888.460000	-31141.440000	14810.175000	67724.505000	25058.160000	3454.650000	-27176.895000	-7151.535000	-1.855421	-3.529915	-2.332734	-1.175995	5.987207	1.796401	0.171012	-0.807013	-3.784480	8.560860	-2.426340	-0.769041	0.243835	0.575560	-1.000000	-1.000000	-1.000000	-1.000000	-1.000000	-1.000000	-1.000000	63.000000	0.000000	-1.000000	-1.000000	992418.000000	1776578384.868971
2887.155000	-31144.230000	14807.835000	67721.355000	25052.895000	3448.350000	-27180.000000	-7152.255000	-2.901721	-4.421686	-2.798457	0.265567	14.882658	3.554848	0.555719	-1.736730	-3.784480	8.560860	-2.426340	-0.769041	0.243835	0.575560	-1.000000	-1.000000	-1.000000	-1.000000	-1.000000	-1.000000	-1.000000	63.000000	0.000000	-1.000000	-1.000000	992419.000000	1776578384.872991
2884.365000	-31147.020000	14803.830000	67716.945000	25057.080000	3446.100000	-27184.275000	-7156.260000	-2.822024	-3.727001	-2.453480	1.087403	16.235809	3.126519	0.325623	-1.867563	-3.784480	8.560860	-2.426340	-0.769041	0.243835	0.575560	-1.000000	-1.000000	-1.000000	-1.000000	-1.000000	-1.000000	-1.000000	63.000000	0.000000	-1.000000	-1.000000	992420.000000	1776578384.873000
2886.210000	-31143.825000	14806.710000	67720.995000	25061.220000	3451.680000	-27181.260000	-7154.595000	-2.056637	-2.217343	-1.670939	1.134951	12.329153	1.805295	-0.656818	-1.815935	-6.332900	1.403920	-3.189340	-0.771604	0.242553	0.577513	-1.000000	-1.000000	-1.000000	-1.000000	-1.000000	-1.000000	-1.000000	63.000000	0.000000	-1.000000	-1.000000	992421.000000	1776578384.877023
2893.860000	-31134.690000	14815.530000	67729.635000	25065.180000	3462.930000	-27175.680000	-7148.700000	-0.825950	-0.228017	-0.362435	1.180384	6.863632	1.365438	-1.491119	-1.623245	-6.332900	1.403920	-3.189340	-0.771604	0.242553	0.577513	-1.000000	-1.000000	-1.000000	-1.000000	-1.000000	-1.000000	-1.000000	63.000000	0.000000	-1.000000	-1.000000	992422.000000	1776578384.877034
2890.980000	-31135.950000	14812.605000	67726.575000	25060.860000	3455.010000	-27184.275000	-7153.380000	0.836023	2.105411	1.593575	1.950456	2.150977	2.401538	-1.309004	-0.885748	-6.332900	1.403920	-3.189340	-0.771604	0.242553	0.577513	-1.000000	-1.000000	-1.000000	-1.000000	-1.000000	-1.000000	-1.000000	63.000000	0.000000	-1.000000	-1.000000	992423.000000	1776578384.880988
2887.425000	-31139.640000	14808.870000	67723.155000	25064.235000	3446.730000	-27186.030000	-7157.025000	2.177851	3.794955	3.230496	2.744702	-1.402217	3.206575	-0.608896	0.055612	-6.332900	1.403920	-3.189340	-0.771604	0.242553	0.577513	-1.000000	-1.000000	-1.000000	-1.000000	-1.000000	-1.000000	-1.000000	63.000000	0.000000	-1.000000	-1.000000	992424.000000	1776578384.881002
2882.970000	-31143.240000	14805.630000	67720.275000	25061.400000	3451.005000	-27182.790000	-7158.240000	2.089041	3.488242	3.122374	2.193816	-3.944360	1.886477	-0.238402	0.386423	-6.332900	1.403920	-3.189340	-0.771604	0.242553	0.577513	-1.000000	-1.000000	-1.000000	-1.000000	-1.000000	-1.000000	-1.000000	63.000000	0.000000	-1.000000	-1.000000	992425.000000	1776578384.885023
2883.510000	-31143.060000	14807.205000	67723.245000	25058.205000	3453.255000	-27182.925000	-7159.095000	0.538271	1.163968	1.208089	0.225816	-5.443378	-0.850629	-0.018134	0.066731	-6.332900	1.403920	-3.189340	-0.771604	0.242553	0.577513	-1.000000	-1.000000	-1.000000	-1.000000	-1.000000	-1.000000	-1.000000	63.000000	0.000000	-1.000000	-1.000000	992426.000000	1776578384.885047
2890.035000	-31140.630000	14809.320000	67723.470000	25056.000000	3450.240000	-27175.905000	-7150.995000	-1.079582	-1.546332	-0.992542	-1.754975	-5.882166	-2.833190	0.613754	-0.074690	-6.332900	1.403920	-3.189340	-0.771604	0.242553	0.577513	-1.000000	-1.000000	-1.000000	-1.000000	-1.000000	-1.000000	-1.000000	63.000000	0.000000	-1.000000	-1.000000	992427.000000	1776578384.889055
2881.980000	-31147.200000	14805.045000	67719.285000	25053.120000	3452.445000	-27176.265000	-7157.880000	-1.405668	-2.955297	-2.020135	-2.542549	-5.258019	-3.087538	1.657746	0.579441	-6.332900	1.403920	-3.189340	-0.771604	0.242553	0.577513	-1.000000	-1.000000	-1.000000	-1.000000	-1.000000	-1.000000	-1.000000	63.000000	0.000000	-1.000000	-1.000000	992428.000000	1776578384.889072
2883.645000	-31145.355000	14808.735000	67723.380000	25057.620000	3459.555000	-27175.815000	-7157.520000	-0.624963	-2.737232	-1.691175	-2.107299	-3.533235	-1.906038	2.419704	1.474977	-6.332900	1.403920	-3.189340	-0.771604	0.242553	0.577513	-1.000000	-1.000000	-1.000000	-1.000000	-1.000000	-1.000000	-1.000000	63.000000	0.000000	-1.000000	-1.000000	992429.000000	1776578384.892934
2888.100000	-31143.465000	14809.860000	67724.730000	25067.880000	3466.080000	-27172.125000	-7152.705000	0.351315	-1.438594	-0.571967	-0.907600	-0.665953	0.179774	2.160067	1.732266	-6.332900	1.403920	-3.189340	-0.771604	0.242553	0.577513	-1.000000	-1.000000	-1.000000	-1.000000	-1.000000	-1.000000	-1.000000	63.000000	0.000000	-1.000000	-1.000000	992430.000000	1776578384.892942
2891.880000	-31140.135000	14811.660000	67726.620000	25067.880000	3465.495000	-27171.360000	-7151.130000	1.275447	0.425859	0.746861	0.600802	2.896468	2.292602	0.949396	1.438635	-4.196500	5.722500	-5.630940	-0.772276	0.235961	0.575865	-1.000000	-1.000000	-1.000000	-1.000000	-1.000000	-1.000000	-1.000000	63.000000	0.000000	-1.000000	-1.000000	992431.000000	1776578384.896910
2892.780000	-31137.705000	14812.560000	67724.505000	25048.935000	3455.235000	-27178.425000	-7154.055000	2.090461	2.278357	1.680602	1.744826	5.252802	2.929143	-0.691936	0.984820	-4.196500	5.722500	-5.630940	-0.772276	0.235961	0.575865	-1.000000	-1.000000	-1.000000	-1.000000	-1.000000	-1.000000	-1.000000	63.000000	0.000000	-1.000000	-1.000000	992432.000000	1776578384.896916
2896.560000	-31134.195000	14816.205000	67727.115000	25050.780000	3453.615000	-27176.670000	-7150.005000	2.356813	3.412391	1.860241	1.922189	4.211785	1.053862	-2.390697	0.327336	-4.196500	5.722500	-5.630940	-0.772276	0.235961	0.575865	-1.000000	-1.000000	-1.000000	-1.000000	-1.000000	-1.000000	-1.000000	63.000000	0.000000	-1.000000	-1.000000	992433.000000	1776578384.901073
2886.210000	-31144.005000	14809.680000	67726.215000	25076.025000	3455.460000	-27182.115000	-7159.545000	1.552380	3.155431	1.230756	1.165567	0.846763	-2.284157	-3.609901	-0.618397	-4.196500	5.722500	-5.630940	-0.772276	0.235961	0.575865	-1.000000	-1.000000	-1.000000	-1.000000	-1.000000	-1.000000	-1.000000	63.000000	0.000000	-1.000000	-1.000000	992434.000000	1776578384.901083
2891.745000	-31139.280000	14814.180000	67730.580000	25069.005000	3451.725000	-27180.225000	-7157.070000	-0.412075	1.247363	-0.065948	0.090118	-1.055721	-4.596392	-3.708786	-1.757259	-4.196500	5.722500	-5.630940	-0.772276	0.235961	0.575865	-1.000000	-1.000000	-1.000000	-1.000000	-1.000000	-1.000000	-1.000000	63.000000	0.000000	-1.000000	-1.000000	992435.000000	1776578384.904928
2898.855000	-31133.430000	14818.410000	67731.705000	25049.835000	3449.115000	-27172.755000	-7150.230000	-2.422187	-1.261179	-1.338592	-0.619676	-0.677411	-4.467382	-2.310685	-2.449969	-4.196500	5.722500	-5.630940	-0.772276	0.235961	0.575865	-1.000000	-1.000000	-1.000000	-1.000000	-1.000000	-1.000000	-1.000000	63.000000	0.000000	-1.000000	-1.000000	992436.000000	1776578384.904938
2901.285000	-31133.340000	14817.690000	67728.780000	25045.965000	3447.495000	-27170.955000	-7148.475000	-2.807398	-2.574012	-1.680163	-0.789365	-0.916911	-2.407844	0.447987	-1.735335	-4.196500	5.722500	-5.630940	-0.772276	0.235961	0.575865	-1.000000	-1.000000	-1.000000	-1.000000	-1.000000	-1.000000	-1.000000	63.000000	0.000000	-1.000000	-1.000000	992437.000000	1776578384.908935
2895.570000	-31138.650000	14811.840000	67725.900000	25066.080000	3458.970000	-27172.890000	-7152.525000	-1.494384	-2.270222	-1.207919	-0.891060	-2.571793	0.505087	3.361605	0.147742	-4.196500	5.722500	-5.630940	-0.772276	0.235961	0.575865	-1.000000	-1.000000	-1.000000	-1.000000	-1.000000	-1.000000	-1.000000	63.000000	0.000000	-1.000000	-1.000000	992438.000000	1776578384.908943
2890.035000	-31143.240000	14808.150000	67726.035000	25087.095000	3479.040000	-27174.105000	-7156.080000	-0.217791	-1.564734	-0.935739	-1.284969	-2.477948	3.890613	4.622635	1.573595	-4.196500	5.722500	-5.630940	-0.772276	0.235961	0.575865	-1.000000	-1.000000	-1.000000	-1.000000	-1.000000	-1.000000	-1.000000	63.000000	0.000000	-1.000000	-1.000000	992439.000000	1776578384.913130
2889.225000	-31143.240000	14808.645000	67725.450000	25081.560000	3476.160000	-27176.445000	-7157.115000	-0.302906	-1.424325	-1.269621	-1.628255	1.232992	7.228709	3.431689	1.380127	-4.196500	5.722500	-5.630940	-0.772276	0.235961	0.575865	-1.000000	-1.000000	-1.000000	-1.000000	-1.000000	-1.000000	-1.000000	63.000000	0.000000	-1.000000	-1.000000	992440.000000	1776578384.913139
2895.300000	-31136.355000	14815.080000	67730.400000	25076.835000	3471.705000	-27175.545000	-7152.615000	-1.117200	-1.370325	-1.377251	-1.282482	5.407259	8.362152	0.666567	0.119574	-1.571780	6.058220	-2.487380	-0.770323	0.233215	0.574461	-1.000000	-1.000000	-1.000000	-1.000000	-1.000000	-1.000000	-1.000000	63.000000	0.000000	-1.000000	-1.000000	992441.000000	1776578384.917520
2897.595000	-31134.690000	14816.700000	67730.985000	25070.130000	3461.985000	-27177.480000	-7152.840000	-1.030034	-0.348528	-0.273783	-0.017807	5.511299	5.073936	-1.965167	-0.746627	-1.571780	6.058220	-2.487380	-0.770323	0.233215	0.574461	-1.000000	-1.000000	-1.000000	-1.000000	-1.000000	-1.000000	-1.000000	63.000000	0.000000	-1.000000	-1.000000	992442.000000	1776578384.917531
2899.215000	-31133.160000	14816.880000	67729.950000	25061.805000	3456.180000	-27174.825000	-7152.300000	0.499411	1.607428	1.742972	1.566856	0.766936	-1.921927	-3.161549	-0.518768	-1.571780	6.058220	-2.487380	-0.770323	0.233215	0.574461	-1.000000	-1.000000	-1.000000	-1.000000	-1.000000	-1.000000	-1.000000	63.000000	0.000000	-1.000000	-1.000000	992443.000000	1776578384.921242
2901.600000	-31129.830000	14818.005000	67726.935000	25046.145000	3450.105000	-27173.025000	-7149.870000	2.419249	3.281667	3.260824	2.355497	-5.865711	-9.000519	-2.583504	0.343942	-1.571780	6.058220	-2.487380	-0.770323	0.233215	0.574461	-1.000000	-1.000000	-1.000000	-1.000000	-1.000000	-1.000000	-1.000000	63.000000	0.000000	-1.000000	-1.000000	992444.000000	1776578384.921253
2900.880000	-31131.540000	14815.980000	67726.665000	25051.545000	3449.205000	-27174.375000	-7150.680000	3.343028	3.571411	3.188571	1.742260	-10.446463	-12.290609	-0.832194	1.077038	-1.571780	6.058220	-2.487380	-0.770323	0.233215	0.574461	-1.000000	-1.000000	-1.000000	-1.000000	-1.000000	-1.000000	-1.000000	63.000000	0.000000	-1.000000	-1.000000	992445.000000	1776578384.925124
2902.140000	-31131.630000	14817.375000	67729.095000	25073.280000	3459.915000	-27173.520000	-7150.500000	2.664677	2.224430	1.577994	0.276927	-9.616952	-9.929003	0.916304	1.178464	-1.571780	6.058220	-2.487380	-0.770323	0.233215	0.574461	-1.000000	-1.000000	-1.000000	-1.000000	-1.000000	-1.000000	-1.000000	63.000000	0.000000	-1.000000	-1.000000	992446.000000	1776578384.925140
2900.160000	-31134.420000	14815.710000	67728.015000	25071.210000	3467.385000	-27174.690000	-7152.030000	0.768457	-0.179577	-0.613637	-0.902904	-2.592440	-2.738158	1.731001	0.550062	-1.571780	6.058220	-2.487380	-0.770323	0.233215	0.574461	-1.000000	-1.000000	-1.000000	-1.000000	-1.000000	-1.000000	-1.000000	63.000000	0.000000	-1.000000	-1.000000	992447.000000	1776578384.928972
2899.035000	-31136.445000	14814.495000	67728.105000	25057.845000	3461.355000	-27173.925000	-7151.355000	-1.412712	-2.577299	-2.313791	-1.195081	6.463140	5.797104	1.469584	-0.460374	-1.571780	6.058220	-2.487380	-0.770323	0.233215	0.574461	-1.000000	-1.000000	-1.000000	-1.000000	-1.000000	-1.000000	-1.000000	63.000000	0.000000	-1.000000	-1.000000	992448.000000	1776578384.928985
2897.820000	-31137.120000	14814.810000	67728.690000	25062.435000	3457.980000	-27178.110000	-7153.245000	-2.974384	-3.958080	-2.941186	-0.797206	11.259523	10.964461	0.537086	-1.295892	-1.571780	6.058220	-2.487380	-0.770323	0.233215	0.574461	-1.000000	-1.000000	-1.000000	-1.000000	-1.000000	-1.000000	-1.000000	63.000000	0.000000	-1.000000	-1.000000	992449.000000	1776578384.933572
2896.470000	-31136.040000	14815.485000	67728.645000	25073.955000	3459.420000	-27181.485000	-7157.340000	-3.374251	-3.741246	-2.412781	-0.163811	9.783228	10.248000	-0.622232	-1.651930	-1.571780	6.058220	-2.487380	-0.770323	0.233215	0.574461	-1.000000	-1.000000	-1.000000	-1.000000	-1.000000	-1.000000	-1.000000	63.000000	0.000000	-1.000000	-1.000000	992450.000000	1776578384.933610
2903.220000	-31129.065000	14821.380000	67732.110000	25078.725000	3464.370000	-27172.215000	-7149.825000	-2.458778	-1.902189	-0.946382	0.400392	5.160685	5.265546	-1.426585	-1.451111	-2.441600	2.929920	-4.761120	-0.771055	0.233398	0.574339	-1.000000	-1.000000	-1.000000	-1.000000	-1.000000	-1.000000	-1.000000	63.000000	0.000000	-1.000000	-1.000000	992451.000000	1776578384.937032
2909.025000	-31124.790000	14825.745000	67735.620000	25083.765000	3472.110000	-27165.780000	-7142.805000	-0.334697	1.004748	1.046956	0.861691	0.949725	-0.121209	-0.962249	-0.376921	-2.441600	2.929920	-4.761120	-0.771055	0.233398	0.574339	-1.000000	-1.000000	-1.000000	-1.000000	-1.000000	-1.000000	-1.000000	63.000000	0.000000	-1.000000	-1.000000	992452.000000	1776578384.937046
2901.420000	-31130.595000	14819.085000	67729.455000	25071.345000	3459.330000	-27182.790000	-7154.460000	2.158962	3.637314	2.698403	1.100477	-1.939074	-3.337411	0.600979	1.343214	-2.441600	2.929920	-4.761120	-0.771055	0.233398	0.574339	-1.000000	-1.000000	-1.000000	-1.000000	-1.000000	-1.000000	-1.000000	63.000000	0.000000	-1.000000	-1.000000	992453.000000	1776578384.942291
2901.825000	-31129.155000	14819.490000	67727.025000	25060.410000	3450.780000	-27189.765000	-7157.430000	3.355584	4.327323	2.812221	0.610904	-4.580587	-4.758960	1.202940	2.147719	-2.441600	2.929920	-4.761120	-0.771055	0.233398	0.574339	-1.000000	-1.000000	-1.000000	-1.000000	-1.000000	-1.000000	-1.000000	63.000000	0.000000	-1.000000	-1.000000	992454.000000	1776578384.942305
2907.180000	-31126.545000	14821.335000	67729.095000	25067.430000	3458.070000	-27185.040000	-7151.130000	2.511290	2.710337	1.198141	-0.669705	-7.292894	-5.519938	-0.288086	1.125983	-2.441600	2.929920	-4.761120	-0.771055	0.233398	0.574339	-1.000000	-1.000000	-1.000000	-1.000000	-1.000000	-1.000000	-1.000000	63.000000	0.000000	-1.000000	-1.000000	992455.000000	1776578384.945076
2906.010000	-31128.705000	14812.740000	67716.765000	25057.215000	3460.680000	-27175.680000	-7145.055000	0.718522	0.111132	-1.021469	-2.006700	-8.399907	-5.030808	-1.921812	-0.334048	-2.441600	2.929920	-4.761120	-0.771055	0.233398	0.574339	-1.000000	-1.000000	-1.000000	-1.000000	-1.000000	-1.000000	-1.000000	63.000000	0.000000	-1.000000	-1.000000	992456.000000	1776578384.945083
2900.745000	-31136.940000	14807.430000	67716.000000	25059.465000	3456.360000	-27174.195000	-7146.630000	-0.814313	-2.149004	-2.854970	-2.838402	-6.547995	-2.534689	-1.264000	-0.556345	-2.441600	2.929920	-4.761120	-0.771055	0.233398	0.574339	-1.000000	-1.000000	-1.000000	-1.000000	-1.000000	-1.000000	-1.000000	63.000000	0.000000	-1.000000	-1.000000	992457.000000	1776578384.949069
2895.480000	-31141.080000	14807.205000	67719.240000	25041.690000	3450.105000	-27178.605000	-7152.570000	-1.961535	-3.692236	-3.800526	-2.745286	-2.628827	0.713677	1.310465	0.137240	-2.441600	2.929920	-4.761120	-0.771055	0.233398	0.574339	-1.000000	-1.000000	-1.000000	-1.000000	-1.000000	-1.000000	-1.000000	63.000000	0.000000	-1.000000	-1.000000	992458.000000	1776578384.949082
2895.885000	-31139.865000	14808.915000	67723.245000	25049.880000	3459.240000	-27176.715000	-7152.975000	-2.791390	-4.247983	-3.251323	-1.119729	1.333338	2.870561	3.300497	0.284102	-2.441600	2.929920	-4.761120	-0.771055	0.233398	0.574339	-1.000000	-1.000000	-1.000000	-1.000000	-1.000000	-1.000000	-1.000000	63.000000	0.000000	-1.000000	-1.000000	992459.000000	1776578384.952948
2897.100000	-31140.135000	14806.080000	67719.555000	25074.720000	3455.775000	-27176.985000	-7152.480000	-2.769104	-3.243222	-1.060410	1.714291	4.756200	3.595161	3.118584	-0.532924	-2.441600	2.929920	-4.761120	-0.771055	0.233398	0.574339	-1.000000	-1.000000	-1.000000	-1.000000	-1.000000	-1.000000	-1.000000	63.000000	0.000000	-1.000000	-1.000000	992460.000000	1776578384.952957
2893.770000	-31142.565000	14801.895000	67715.010000	25077.780000	3454.830000	-27181.350000	-7157.295000	-1.476781	-0.753022	1.690906	4.008257	8.425768	3.335798	1.146338	-1.479046	-5.051060	5.066320	-4.791640	-0.773863	0.236877	0.572386	-1.000000	-1.000000	-1.000000	-1.000000	-1.000000	-1.000000	-1.000000	63.000000	0.000000	-1.000000	-1.000000	992461.000000	1776578384.958665
2901.825000	-31131.630000	14814.495000	67727.295000	25080.300000	3465.360000	-27176.580000	-7151.535000	0.663986	2.253321	3.685365	4.387185	11.241271	2.442009	-1.287750	-1.710750	-5.051060	5.066320	-4.791640	-0.773863	0.236877	0.572386	-1.000000	-1.000000	-1.000000	-1.000000	-1.000000	-1.000000	-1.000000	63.000000	0.000000	-1.000000	-1.000000	992462.000000	1776578384.958672
2902.545000	-31129.740000	14816.970000	67730.355000	25070.310000	3467.205000	-27178.200000	-7154.640000	2.863006	4.823097	4.723082	3.419610	10.168466	1.576578	-2.795748	-0.927854	-5.051060	5.066320	-4.791640	-0.773863	0.236877	0.572386	-1.000000	-1.000000	-1.000000	-1.000000	-1.000000	-1.000000	-1.000000	63.000000	0.000000	-1.000000	-1.000000	992463.000000	1776578384.961056
2902.725000	-31131.540000	14815.485000	67728.510000	25058.250000	3466.890000	-27177.795000	-7155.855000	4.257408	6.042818	4.885708	2.196698	3.814940	1.046139	-2.745530	0.428247	-5.051060	5.066320	-4.791640	-0.773863	0.236877	0.572386	-1.000000	-1.000000	-1.000000	-1.000000	-1.000000	-1.000000	-1.000000	63.000000	0.000000	-1.000000	-1.000000	992464.000000	1776578384.961063
2906.595000	-31130.730000	14815.890000	67729.680000	25055.235000	3468.195000	-27170.820000	-7150.140000	4.096874	4.999362	3.616113	0.714677	-5.539008	0.287869	-1.469989	1.542508	-5.051060	5.066320	-4.791640	-0.773863	0.236877	0.572386	-1.000000	-1.000000	-1.000000	-1.000000	-1.000000	-1.000000	-1.000000	63.000000	0.000000	-1.000000	-1.000000	992465.000000	1776578384.965088
2908.485000	-31129.515000	14815.350000	67727.430000	25046.190000	3458.880000	-27170.910000	-7150.005000	2.472580	1.893335	0.815594	-1.261207	-13.142671	-1.214652	0.365419	2.112462	-5.051060	5.066320	-4.791640	-0.773863	0.236877	0.572386	-1.000000	-1.000000	-1.000000	-1.000000	-1.000000	-1.000000	-1.000000	63.000000	0.000000	-1.000000	-1.000000	992466.000000	1776578384.965095
2911.545000	-31126.500000	14819.310000	67729.680000	25055.460000	3459.015000	-27168.345000	-7146.045000	0.272943	-1.694749	-2.380475	-3.224816	-14.958782	-3.278618	1.919066	2.206048	-5.051060	5.066320	-4.791640	-0.773863	0.236877	0.572386	-1.000000	-1.000000	-1.000000	-1.000000	-1.000000	-1.000000	-1.000000	63.000000	0.000000	-1.000000	-1.000000	992467.000000	1776578384.969116
2906.055000	-31132.530000	14815.080000	67727.115000	25064.145000	3461.220000	-27167.670000	-7148.835000	-1.722356	-4.172041	-4.503807	-4.308035	-9.887051	-4.811307	2.390827	1.741246	-5.051060	5.066320	-4.791640	-0.773863	0.236877	0.572386	-1.000000	-1.000000	-1.000000	-1.000000	-1.000000	-1.000000	-1.000000	63.000000	0.000000	-1.000000	-1.000000	992468.000000	1776578384.969126
2902.905000	-31135.275000	14813.235000	67727.250000	25079.940000	3470.490000	-27166.320000	-7152.255000	-3.318951	-5.108222	-4.991625	-4.061138	-0.075348	-4.295151	1.627355	0.534961	-5.051060	5.066320	-4.791640	-0.773863	0.236877	0.572386	-1.000000	-1.000000	-1.000000	-1.000000	-1.000000	-1.000000	-1.000000	63.000000	0.000000	-1.000000	-1.000000	992469.000000	1776578384.973211
2907.495000	-31129.785000	14817.510000	67730.265000	25075.260000	3463.560000	-27167.895000	-7150.815000	-4.299994	-4.703807	-4.111580	-2.639925	9.780315	-1.463104	0.115749	-1.241544	-5.051060	5.066320	-4.791640	-0.773863	0.236877	0.572386	-1.000000	-1.000000	-1.000000	-1.000000	-1.000000	-1.000000	-1.000000	63.000000	0.000000	-1.000000	-1.000000	992470.000000	1776578384.973219
2912.175000	-31124.475000	14822.280000	67734.405000	25070.220000	3458.790000	-27174.195000	-7149.825000	-3.890892	-2.859715	-2.104438	-0.443752	14.426852	1.774530	-1.567623	-2.702628	-6.439720	4.715340	-3.479280	-0.775022	0.237243	0.571898	-1.000000	-1.000000	-1.000000	-1.000000	-1.000000	-1.000000	-1.000000	63.000000	0.000000	-1.000000	-1.000000	992471.000000	1776578384.977507
2916.450000	-31121.730000	14821.830000	67729.770000	25045.965000	3448.530000	-27178.335000	-7147.665000	-1.677196	0.217146	0.594480	1.799583	11.027735	2.972275	-3.046558	-2.880810	-6.439720	4.715340	-3.479280	-0.775022	0.237243	0.571898	-1.000000	-1.000000	-1.000000	-1.000000	-1.000000	-1.000000	-1.000000	63.000000	0.000000	-1.000000	-1.000000	992472.000000	1776578384.977520
2918.475000	-31120.380000	14824.485000	67732.695000	25043.895000	3457.485000	-27173.565000	-7145.775000	1.419966	3.245316	2.881419	3.033619	1.311693	1.751439	-3.735267	-1.649830	-6.439720	4.715340	-3.479280	-0.775022	0.237243	0.571898	-1.000000	-1.000000	-1.000000	-1.000000	-1.000000	-1.000000	-1.000000	63.000000	0.000000	-1.000000	-1.000000	992473.000000	1776578384.980965
2910.960000	-31126.275000	14821.155000	67732.920000	25068.645000	3468.285000	-27177.480000	-7155.630000	3.540545	4.523938	3.647100	2.796746	-8.368052	0.319547	-2.882878	0.037804	-6.439720	4.715340	-3.479280	-0.775022	0.237243	0.571898	-1.000000	-1.000000	-1.000000	-1.000000	-1.000000	-1.000000	-1.000000	63.000000	0.000000	-1.000000	-1.000000	992474.000000	1776578384.980970
2908.755000	-31127.535000	14819.310000	67735.170000	25101.045000	3478.590000	-27176.040000	-7156.440000	3.210288	3.219593	2.571710	1.642973	-10.539209	1.015366	-0.621949	0.805137	-6.439720	4.715340	-3.479280	-0.775022	0.237243	0.571898	-1.000000	-1.000000	-1.000000	-1.000000	-1.000000	-1.000000	-1.000000	63.000000	0.000000	-1.000000	-1.000000	992475.000000	1776578384.985140
2912.085000	-31124.565000	14821.965000	67736.835000	25097.085000	3473.235000	-27168.030000	-7150.365000	0.795583	0.247992	0.374013	0.426139	-3.425615	3.411380	2.060499	0.428899	-6.439720	4.715340	-3.479280	-0.775022	0.237243	0.571898	-1.000000	-1.000000	-1.000000	-1.000000	-1.000000	-1.000000	-1.000000	63.000000	0.000000	-1.000000	-1.000000	992476.000000	1776578384.985149
2910.105000	-31128.075000	14818.005000	67732.110000	25082.910000	3465.495000	-27166.140000	-7150.680000	-1.679221	-2.360238	-1.600594	-0.450149	6.084755	4.518588	4.299847	0.121673	-6.439720	4.715340	-3.479280	-0.775022	0.237243	0.571898	-1.000000	-1.000000	-1.000000	-1.000000	-1.000000	-1.000000	-1.000000	63.000000	0.000000	-1.000000	-1.000000	992477.000000	1776578384.989099
2907.810000	-31130.010000	14814.945000	67729.770000	25075.305000	3464.730000	-27166.950000	-7151.805000	-2.632847	-3.318822	-2.511777	-1.177859	9.059534	2.171704	5.290003	0.621715	-6.439720	4.715340	-3.479280	-0.775022	0.237243	0.571898	-1.000000	-1.000000	-1.000000	-1.000000	-1.000000	-1.000000	-1.000000	63.000000	0.000000	-1.000000	-1.000000	992478.000000	1776578384.989109
2910.600000	-31127.355000	14817.150000	67732.425000	25067.610000	3465.315000	-27164.790000	-7146.765000	-1.992386	-2.671314	-2.347952	-1.832525	3.300576	-2.406946	4.332376	1.422151	-6.439720	4.715340	-3.479280	-0.775022	0.237243	0.571898	-1.000000	-1.000000	-1.000000	-1.000000	-1.000000	-1.000000	-1.000000	63.000000	0.000000	-1.000000	-1.000000	992479.000000	1776578384.993213
2907.990000	-31129.020000	14816.295000	67730.715000	25057.485000	3462.885000	-27170.190000	-7152.165000	-0.465527	-1.010458	-1.299235	-1.933938	-6.126564	-6.021654	1.604040	1.789133	-6.439720	4.715340	-3.479280	-0.775022	0.237243	0.571898	-1.000000	-1.000000	-1.000000	-1.000000	-1.000000	-1.000000	-1.000000	63.000000	0.000000	-1.000000	-1.000000	992480.000000	1776578384.993221
2912.130000	-31123.665000	14821.020000	67736.025000	25061.130000	3466.935000	-27172.620000	-7151.805000	1.130781	0.945881	0.347616	-1.104419	-12.506193	-6.539977	-1.870970	1.279127	-3.982860	5.218920	-3.753960	-0.774046	0.232055	0.570921	-1.000000	-1.000000	-1.000000	-1.000000	-1.000000	-1.000000	-1.000000	63.000000	0.000000	-1.000000	-1.000000	992481.000000	1776578384.996997
2913.660000	-31120.740000	14824.980000	67740.210000	25071.930000	3470.355000	-27174.825000	-7153.695000	2.238409	2.579227	2.114631	0.503411	-11.762365	-3.930986	-4.746009	-0.028851	-3.982860	5.218920	-3.753960	-0.774046	0.232055	0.570921	-1.000000	-1.000000	-1.000000	-1.000000	-1.000000	-1.000000	-1.000000	63.000000	0.000000	-1.000000	-1.000000	992482.000000	1776578384.997012
2921.805000	-31112.235000	14833.260000	67747.275000	25079.805000	3471.165000	-27170.595000	-7147.260000	2.765303	3.573147	3.520183	2.359493	-4.090805	0.266738	-5.721660	-1.295553	-3.982860	5.218920	-3.753960	-0.774046	0.232055	0.570921	-1.000000	-1.000000	-1.000000	-1.000000	-1.000000	-1.000000	-1.000000	63.000000	0.000000	-1.000000	-1.000000	992483.000000	1776578385.001081
2917.575000	-31118.580000	14824.935000	67737.555000	25067.970000	3459.330000	-27173.430000	-7149.240000	2.717215	3.614544	3.929009	3.456343	5.947130	3.617215	-4.262178	-1.580989	-3.982860	5.218920	-3.753960	-0.774046	0.232055	0.570921	-1.000000	-1.000000	-1.000000	-1.000000	-1.000000	-1.000000	-1.000000	63.000000	0.000000	-1.000000	-1.000000	992484.000000	1776578385.001088
2919.510000	-31119.615000	14822.010000	67732.605000	25062.120000	3456.810000	-27164.520000	-7144.155000	1.810232	2.177917	2.493039	2.527000	12.044460	4.096108	-1.077490	-0.790260	-3.982860	5.218920	-3.753960	-0.774046	0.232055	0.570921	-1.000000	-1.000000	-1.000000	-1.000000	-1.000000	-1.000000	-1.000000	63.000000	0.000000	-1.000000	-1.000000	992485.000000	1776578385.005174
2916.450000	-31125.420000	14815.890000	67727.205000	25058.745000	3456.135000	-27160.695000	-7144.470000	-0.048442	-0.728648	-0.810566	-0.576773	10.984463	1.884473	2.491257	0.386591	-3.982860	5.218920	-3.753960	-0.774046	0.232055	0.570921	-1.000000	-1.000000	-1.000000	-1.000000	-1.000000	-1.000000	-1.000000	63.000000	0.000000	-1.000000	-1.000000	992486.000000	1776578385.005188
2911.815000	-31130.190000	14810.310000	67722.885000	25053.930000	3453.930000	-27167.490000	-7150.005000	-2.305212	-3.986996	-4.507029	-4.140133	4.764756	-0.799318	4.933329	1.033497	-3.982860	5.218920	-3.753960	-0.774046	0.232055	0.570921	-1.000000	-1.000000	-1.000000	-1.000000	-1.000000	-1.000000	-1.000000	63.000000	0.000000	-1.000000	-1.000000	992487.000000	1776578385.009112
2913.570000	-31126.455000	14815.890000	67729.545000	25055.640000	3464.100000	-27165.870000	-7150.455000	-4.040243	-5.916871	-6.490320	-5.780042	-2.015785	-1.795136	4.874121	0.506774	-3.982860	5.218920	-3.753960	-0.774046	0.232055	0.570921	-1.000000	-1.000000	-1.000000	-1.000000	-1.000000	-1.000000	-1.000000	63.000000	0.000000	-1.000000	-1.000000	992488.000000	1776578385.009127
2909.745000	-31129.470000	14813.775000	67729.545000	25044.705000	3464.910000	-27169.155000	-7152.930000	-4.379724	-5.281110	-5.362780	-4.142484	-5.869372	-0.413480	2.318571	-0.889449	-3.982860	5.218920	-3.753960	-0.774046	0.232055	0.570921	-1.000000	-1.000000	-1.000000	-1.000000	-1.000000	-1.000000	-1.000000	63.000000	0.000000	-1.000000	-1.000000	992489.000000	1776578385.013070
2911.455000	-31127.940000	14815.665000	67733.055000	25070.670000	3469.995000	-27169.920000	-7150.860000	-3.070330	-2.299069	-1.589103	0.007606	-5.649527	2.251182	-1.120551	-2.022705	-3.982860	5.218920	-3.753960	-0.774046	0.232055	0.570921	-1.000000	-1.000000	-1.000000	-1.000000	-1.000000	-1.000000	-1.000000	63.000000	0.000000	-1.000000	-1.000000	992490.000000	1776578385.013081
2914.605000	-31124.070000	14819.580000	67736.250000	25097.670000	3471.930000	-27168.975000	-7148.655000	-0.619347	1.524651	2.802568	4.317822	-1.270601	4.183396	-3.568427	-1.911059	-2.212700	6.058220	-3.586100	-0.773985	0.226074	0.571654	-1.000000	-1.000000	-1.000000	-1.000000	-1.000000	-1.000000	-1.000000	63.000000	0.000000	-1.000000	-1.000000	992491.000000	1776578385.017076
2919.645000	-31118.445000	14822.910000	67737.015000	25079.445000	3465.630000	-27167.085000	-7144.740000	2.178560	4.686561	5.873572	6.625567	5.387652	3.903877	-3.934075	-0.417122	-2.212700	6.058220	-3.586100	-0.773985	0.226074	0.571654	-1.000000	-1.000000	-1.000000	-1.000000	-1.000000	-1.000000	-1.000000	63.000000	0.000000	-1.000000	-1.000000	992492.000000	1776578385.017089
2920.590000	-31117.770000	14822.865000	67735.305000	25073.055000	3464.055000	-27164.565000	-7144.605000	4.397293	6.234151	6.619112	6.005463	8.975416	1.187229	-2.294199	1.648502	-2.212700	6.058220	-3.586100	-0.773985	0.226074	0.571654	-1.000000	-1.000000	-1.000000	-1.000000	-1.000000	-1.000000	-1.000000	63.000000	0.000000	-1.000000	-1.000000	992493.000000	1776578385.021068
2918.880000	-31120.200000	14820.435000	67733.145000	25056.990000	3460.590000	-27164.295000	-7146.180000	5.031634	5.588590	4.886803	2.882529	5.271373	-2.713033	0.257099	2.979248	-2.212700	6.058220	-3.586100	-0.773985	0.226074	0.571654	-1.000000	-1.000000	-1.000000	-1.000000	-1.000000	-1.000000	-1.000000	63.000000	0.000000	-1.000000	-1.000000	992494.000000	1776578385.021078
2916.630000	-31124.295000	14817.060000	67731.885000	25068.780000	3462.300000	-27167.445000	-7151.130000	3.540199	2.732759	1.333542	-1.241543	-3.538613	-5.645322	2.221984	2.594958	-2.212700	6.058220	-3.586100	-0.773985	0.226074	0.571654	-1.000000	-1.000000	-1.000000	-1.000000	-1.000000	-1.000000	-1.000000	63.000000	0.000000	-1.000000	-1.000000	992495.000000	1776578385.025212
2920.365000	-31119.570000	14820.750000	67736.160000	25090.875000	3472.650000	-27167.355000	-7150.545000	0.568215	-1.220541	-2.543112	-4.415162	-10.354313	-5.806394	2.568516	0.610076	-2.212700	6.058220	-3.586100	-0.773985	0.226074	0.571654	-1.000000	-1.000000	-1.000000	-1.000000	-1.000000	-1.000000	-1.000000	63.000000	0.000000	-1.000000	-1.000000	992496.000000	1776578385.025220
2919.195000	-31117.545000	14824.125000	67738.725000	25090.830000	3477.510000	-27170.820000	-7153.740000	-2.250325	-4.216897	-4.853166	-5.165556	-9.708204	-2.779510	1.381853	-1.737593	-2.212700	6.058220	-3.586100	-0.773985	0.226074	0.571654	-1.000000	-1.000000	-1.000000	-1.000000	-1.000000	-1.000000	-1.000000	63.000000	0.000000	-1.000000	-1.000000	992497.000000	1776578385.030687
2913.615000	-31120.785000	14821.425000	67734.495000	25077.915000	3470.535000	-27176.400000	-7158.150000	-3.716319	-4.865730	-4.631901	-3.534979	-3.236957	1.660643	-0.479471	-3.148145	-2.212700	6.058220	-3.586100	-0.773985	0.226074	0.571654	-1.000000	-1.000000	-1.000000	-1.000000	-1.000000	-1.000000	-1.000000	63.000000	0.000000	-1.000000	-1.000000	992498.000000	1776578385.030704
2918.475000	-31116.690000	14824.845000	67738.140000	25083.270000	3471.930000	-27168.615000	-7151.265000	-3.745505	-3.508466	-2.615378	-1.015785	2.777814	4.450204	-1.938014	-3.029673	-2.212700	6.058220	-3.586100	-0.773985	0.226074	0.571654	-1.000000	-1.000000	-1.000000	-1.000000	-1.000000	-1.000000	-1.000000	63.000000	0.000000	-1.000000	-1.000000	992499.000000	1776578385.033150
2919.060000	-31112.595000	14822.730000	67730.220000	25080.255000	3467.610000	-27164.655000	-7148.205000	-2.570915	-1.240219	-0.290363	0.827048	4.559632	3.971252	-1.868322	-1.281418	-2.212700	6.058220	-3.586100	-0.773985	0.226074	0.571654	-1.000000	-1.000000	-1.000000	-1.000000	-1.000000	-1.000000	-1.000000	63.000000	0.000000	-1.000000	-1.000000	992500.000000	1776578385.033159
2916.630000	-31115.475000	14819.670000	67728.870000	25065.495000	3460.545000	-27167.940000	-7151.130000	-0.611901	0.973157	1.179698	1.242613	2.628374	1.040185	-0.122401	1.399632	1.175020	4.089680	-3.250380	-0.777220	0.223754	0.572508	-1.000000	-1.000000	-1.000000	-1.000000	-1.000000	-1.000000	-1.000000	63.000000	0.000000	-1.000000	-1.000000	992501.000000	1776578385.037174
2917.260000	-31116.735000	14820.480000	67733.370000	25058.430000	3460.455000	-27169.290000	-7152.795000	1.186770	2.162747	1.352404	0.602451	-1.057941	-2.372842	1.799151	3.338216	1.175020	4.089680	-3.250380	-0.777220	0.223754	0.572508	-1.000000	-1.000000	-1.000000	-1.000000	-1.000000	-1.000000	-1.000000	63.000000	0.000000	-1.000000	-1.000000	992502.000000	1776578385.037186
2921.940000	-31112.865000	14825.655000	67738.230000	25067.520000	3465.360000	-27164.745000	-7149.195000	2.141016	1.906154	0.798491	0.226933	-4.062442	-4.176731	2.385188	3.352548	1.175020	4.089680	-3.250380	-0.777220	0.223754	0.572508	-1.000000	-1.000000	-1.000000	-1.000000	-1.000000	-1.000000	-1.000000	63.000000	0.000000	-1.000000	-1.000000	992503.000000	1776578385.045485
2917.170000	-31118.040000	14821.380000	67733.685000	25069.320000	3460.230000	-27169.785000	-7154.145000	2.270514	0.778875	0.460089	0.857067	-3.850935	-3.260361	1.569408	1.795253	1.175020	4.089680	-3.250380	-0.777220	0.223754	0.572508	-1.000000	-1.000000	-1.000000	-1.000000	-1.000000	-1.000000	-1.000000	63.000000	0.000000	-1.000000	-1.000000	992504.000000	1776578385.045503
2917.665000	-31118.085000	14822.100000	67734.495000	25070.400000	3463.155000	-27169.290000	-7153.065000	1.669213	-0.459771	0.483248	1.698492	-0.100730	-0.475395	0.058100	-0.275575	1.175020	4.089680	-3.250380	-0.777220	0.223754	0.572508	-1.000000	-1.000000	-1.000000	-1.000000	-1.000000	-1.000000	-1.000000	63.000000	0.000000	-1.000000	-1.000000	992505.000000	1776578385.045515
2918.430000	-31113.585000	14817.645000	67722.345000	25066.890000	3467.835000	-27164.790000	-7151.715000	0.523161	-1.242401	0.366203	1.480808	4.533661	2.415910	-1.310001	-1.869836	1.175020	4.089680	-3.250380	-0.777220	0.223754	0.572508	-1.000000	-1.000000	-1.000000	-1.000000	-1.000000	-1.000000	-1.000000	63.000000	0.000000	-1.000000	-1.000000	992506.000000	1776578385.045520
2918.835000	-31110.795000	14815.260000	67715.955000	25065.765000	3469.005000	-27160.560000	-7150.365000	-0.559920	-1.012360	-0.179730	-0.292550	6.862726	4.265115	-1.633152	-2.274511	1.175020	4.089680	-3.250380	-0.777220	0.223754	0.572508	-1.000000	-1.000000	-1.000000	-1.000000	-1.000000	-1.000000	-1.000000	63.000000	0.000000	-1.000000	-1.000000	992507.000000	1776578385.049438
2918.790000	-31117.590000	14815.665000	67724.730000	25067.430000	3466.485000	-27160.965000	-7151.220000	-1.051741	0.057674	-0.894725	-2.567631	5.764314	4.486117	-0.718261	-1.504376	1.175020	4.089680	-3.250380	-0.777220	0.223754	0.572508	-1.000000	-1.000000	-1.000000	-1.000000	-1.000000	-1.000000	-1.000000	63.000000	0.000000	-1.000000	-1.000000	992508.000000	1776578385.049463
2921.220000	-31117.590000	14820.165000	67734.900000	25068.645000	3461.895000	-27163.620000	-7150.995000	-0.894533	0.834635	-1.065784	-2.973200	2.527643	2.811458	0.461043	-0.304142	1.175020	4.089680	-3.250380	-0.777220	0.223754	0.572508	-1.000000	-1.000000	-1.000000	-1.000000	-1.000000	-1.000000	-1.000000	63.000000	0.000000	-1.000000	-1.000000	992509.000000	1776578385.053195
2924.145000	-31113.000000	14824.170000	67738.410000	25070.175000	3460.680000	-27162.135000	-7148.790000	-0.274328	0.702870	-0.130768	-0.278594	-0.736309	-0.231210	0.766673	0.592727	1.175020	4.089680	-3.250380	-0.777220	0.223754	0.572508	-1.000000	-1.000000	-1.000000	-1.000000	-1.000000	-1.000000	-1.000000	63.000000	0.000000	-1.000000	-1.000000	992510.000000	1776578385.053210
2924.595000	-31113.090000	14823.585000	67734.495000	25066.845000	3453.480000	-27166.050000	-7150.860000	0.503746	0.290798	1.534096	3.638901	-2.749467	-3.293080	0.030395	0.928406	0.412020	2.945180	-2.365300	-0.777952	0.225463	0.571898	-1.000000	-1.000000	-1.000000	-1.000000	-1.000000	-1.000000	-1.000000	63.000000	0.000000	-1.000000	-1.000000	992511.000000	1776578385.057268
2929.860000	-31108.320000	14829.075000	67739.535000	25071.435000	3457.755000	-27165.240000	-7148.250000	1.058356	0.304397	2.784326	5.571236	-3.363944	-4.951453	-1.084789	0.762792	0.412020	2.945180	-2.365300	-0.777952	0.225463	0.571898	-1.000000	-1.000000	-1.000000	-1.000000	-1.000000	-1.000000	-1.000000	63.000000	0.000000	-1.000000	-1.000000	992512.000000	1776578385.057279
2929.545000	-31110.570000	14827.860000	67738.770000	25064.910000	3464.370000	-27166.365000	-7147.305000	1.159846	0.677776	2.779455	4.217120	-2.973672	-4.219884	-1.770200	0.363172	0.412020	2.945180	-2.365300	-0.777952	0.225463	0.571898	-1.000000	-1.000000	-1.000000	-1.000000	-1.000000	-1.000000	-1.000000	63.000000	0.000000	-1.000000	-1.000000	992513.000000	1776578385.061305
2925.270000	-31115.115000	14824.755000	67740.120000	25069.095000	3470.130000	-27167.805000	-7150.320000	0.635925	0.734698	1.401943	0.761577	-2.123964	-1.060591	-1.582625	-0.011335	0.412020	2.945180	-2.365300	-0.777952	0.225463	0.571898	-1.000000	-1.000000	-1.000000	-1.000000	-1.000000	-1.000000	-1.000000	63.000000	0.000000	-1.000000	-1.000000	992514.000000	1776578385.061318
2920.095000	-31119.255000	14822.370000	67741.650000	25078.905000	3474.270000	-27168.795000	-7157.700000	-0.703007	-0.149926	-0.942899	-2.739185	-0.960956	3.049292	-0.700652	-0.526178	0.412020	2.945180	-2.365300	-0.777952	0.225463	0.571898	-1.000000	-1.000000	-1.000000	-1.000000	-1.000000	-1.000000	-1.000000	63.000000	0.000000	-1.000000	-1.000000	992515.000000	1776578385.065226
2923.245000	-31116.240000	14825.115000	67743.855000	25089.750000	3479.220000	-27164.925000	-7155.990000	-2.421740	-1.624066	-3.219045	-4.675785	0.923235	5.863312	0.442886	-1.361085	0.412020	2.945180	-2.365300	-0.777952	0.225463	0.571898	-1.000000	-1.000000	-1.000000	-1.000000	-1.000000	-1.000000	-1.000000	63.000000	0.000000	-1.000000	-1.000000	992516.000000	1776578385.065241
2926.395000	-31115.205000	14824.755000	67740.615000	25075.935000	3468.510000	-27164.790000	-7153.020000	-3.222242	-2.405197	-4.123229	-4.594608	2.987747	5.717905	1.565885	-1.883955	0.412020	2.945180	-2.365300	-0.777952	0.225463	0.571898	-1.000000	-1.000000	-1.000000	-1.000000	-1.000000	-1.000000	-1.000000	63.000000	0.000000	-1.000000	-1.000000	992517.000000	1776578385.069311
2927.025000	-31114.395000	14822.145000	67734.225000	25064.145000	3457.035000	-27166.815000	-7151.580000	-2.161798	-1.641723	-3.217239	-3.323610	3.014126	2.118181	2.296553	-1.187604	0.412020	2.945180	-2.365300	-0.777952	0.225463	0.571898	-1.000000	-1.000000	-1.000000	-1.000000	-1.000000	-1.000000	-1.000000	63.000000	0.000000	-1.000000	-1.000000	992518.000000	1776578385.069326
2926.440000	-31114.980000	14821.695000	67734.045000	25059.510000	3458.385000	-27166.365000	-7150.590000	0.167555	0.173692	-1.295600	-2.022643	-0.256504	-3.537215	2.152798	0.608088	0.412020	2.945180	-2.365300	-0.777952	0.225463	0.571898	-1.000000	-1.000000	-1.000000	-1.000000	-1.000000	-1.000000	-1.000000	63.000000	0.000000	-1.000000	-1.000000	992519.000000	1776578385.073347
2926.080000	-31115.565000	14822.325000	67735.170000	25043.985000	3455.100000	-27166.950000	-7151.715000	2.208103	1.792904	0.572571	-0.955966	-4.974523	-7.936813	1.129387	2.330429	0.412020	2.945180	-2.365300	-0.777952	0.225463	0.571898	-1.000000	-1.000000	-1.000000	-1.000000	-1.000000	-1.000000	-1.000000	63.000000	0.000000	-1.000000	-1.000000	992520.000000	1776578385.073380
2923.245000	-31117.815000	14821.965000	67739.265000	25078.230000	3466.035000	-27166.680000	-7155.450000	2.814424	2.280358	1.835393	0.408189	-7.339310	-8.122670	-0.190778	2.784233	-1.739640	3.052000	-1.236060	-0.777159	0.228759	0.569579	-1.000000	-1.000000	-1.000000	-1.000000	-1.000000	-1.000000	-1.000000	63.000000	0.000000	-1.000000	-1.000000	992521.000000	1776578385.077266
2919.105000	-31122.585000	14817.105000	67736.520000	25097.085000	3477.555000	-27166.725000	-7158.330000	1.835582	1.460018	2.270648	2.195137	-3.885382	-3.573497	-1.157637	1.596456	-1.739640	3.052000	-1.236060	-0.777159	0.228759	0.569579	-1.000000	-1.000000	-1.000000	-1.000000	-1.000000	-1.000000	-1.000000	63.000000	0.000000	-1.000000	-1.000000	992522.000000	1776578385.077278
2925.450000	-31118.040000	14821.470000	67740.570000	25094.565000	3481.830000	-27162.225000	-7152.615000	0.100154	-0.056358	1.869131	3.656985	4.666235	3.492043	-1.373557	-0.396417	-1.739640	3.052000	-1.236060	-0.777159	0.228759	0.569579	-1.000000	-1.000000	-1.000000	-1.000000	-1.000000	-1.000000	-1.000000	63.000000	0.000000	-1.000000	-1.000000	992523.000000	1776578385.081125
2929.050000	-31114.935000	14824.395000	67740.795000	25078.950000	3472.605000	-27161.730000	-7151.130000	-0.945718	-1.060465	1.181022	4.017375	11.766800	8.898770	-0.781532	-1.640508	-1.739640	3.052000	-1.236060	-0.777159	0.228759	0.569579	-1.000000	-1.000000	-1.000000	-1.000000	-1.000000	-1.000000	-1.000000	63.000000	0.000000	-1.000000	-1.000000	992524.000000	1776578385.081134
2923.515000	-31120.605000	14817.555000	67734.180000	25068.465000	3460.185000	-27169.650000	-7157.790000	-0.612959	-0.856844	0.748416	3.015860	10.871668	8.873475	0.025905	-1.465735	-1.739640	3.052000	-1.236060	-0.777159	0.228759	0.569579	-1.000000	-1.000000	-1.000000	-1.000000	-1.000000	-1.000000	-1.000000	63.000000	0.000000	-1.000000	-1.000000	992525.000000	1776578385.085121
2928.330000	-31114.755000	14821.875000	67737.960000	25067.745000	3459.960000	-27165.915000	-7153.785000	0.283574	-0.007667	0.365545	0.876802	2.190317	3.191356	0.149901	-0.664415	-1.739640	3.052000	-1.236060	-0.777159	0.228759	0.569579	-1.000000	-1.000000	-1.000000	-1.000000	-1.000000	-1.000000	-1.000000	63.000000	0.000000	-1.000000	-1.000000	992526.000000	1776578385.085129
2927.610000	-31111.515000	14825.205000	67740.165000	25071.120000	3457.980000	-27169.065000	-7158.420000	0.769885	0.776447	-0.089548	-1.363609	-7.779629	-4.189600	-0.442595	-0.111947	-1.739640	3.052000	-1.236060	-0.777159	0.228759	0.569579	-1.000000	-1.000000	-1.000000	-1.000000	-1.000000	-1.000000	-1.000000	63.000000	0.000000	-1.000000	-1.000000	992527.000000	1776578385.089214
2921.895000	-31115.655000	14821.965000	67737.420000	25070.670000	3456.270000	-27173.520000	-7166.610000	0.545805	1.233059	-0.295673	-2.479099	-12.392998	-8.492632	-1.071521	-0.146835	-1.739640	3.052000	-1.236060	-0.777159	0.228759	0.569579	-1.000000	-1.000000	-1.000000	-1.000000	-1.000000	-1.000000	-1.000000	63.000000	0.000000	-1.000000	-1.000000	992528.000000	1776578385.089226
2924.190000	-31116.555000	14819.895000	67736.250000	25077.060000	3462.120000	-27171.495000	-7164.990000	-0.338639	0.964818	-0.387851	-2.335154	-9.739040	-7.684948	-1.296486	-0.775113	-1.739640	3.052000	-1.236060	-0.777159	0.228759	0.569579	-1.000000	-1.000000	-1.000000	-1.000000	-1.000000	-1.000000	-1.000000	63.000000	0.000000	-1.000000	-1.000000	992529.000000	1776578385.093265
2929.680000	-31112.640000	14824.395000	67740.570000	25079.760000	3466.530000	-27169.605000	-7161.075000	-1.203178	-0.080769	-0.677840	-1.535431	-2.497979	-2.837222	-0.831728	-1.213985	-1.739640	3.052000	-1.236060	-0.777159	0.228759	0.569579	-1.000000	-1.000000	-1.000000	-1.000000	-1.000000	-1.000000	-1.000000	63.000000	0.000000	-1.000000	-1.000000	992530.000000	1776578385.093284
2930.310000	-31112.280000	14825.295000	67742.415000	25078.995000	3462.885000	-27171.540000	-7160.040000	-1.080416	-1.096646	-0.849262	-0.410280	4.850657	3.094225	0.354417	-0.445892	-3.967600	1.571780	-0.640920	-0.777952	0.229308	0.570799	-1.000000	-1.000000	-1.000000	-1.000000	-1.000000	-1.000000	-1.000000	63.000000	0.000000	-1.000000	-1.000000	992531.000000	1776578385.097294
2926.530000	-31119.615000	14816.070000	67733.280000	25065.045000	3454.515000	-27173.205000	-7159.005000	-0.070620	-1.496596	-0.697423	0.633040	8.407485	6.655152	1.583022	1.357293	-3.967600	1.571780	-0.640920	-0.777952	0.229308	0.570799	-1.000000	-1.000000	-1.000000	-1.000000	-1.000000	-1.000000	-1.000000	63.000000	0.000000	-1.000000	-1.000000	992532.000000	1776578385.097309
2928.060000	-31118.445000	14816.880000	67734.630000	25082.055000	3468.690000	-27168.480000	-7154.955000	0.721037	-1.568755	-0.728163	0.810448	6.991484	6.257122	2.106068	2.991584	-3.967600	1.571780	-0.640920	-0.777952	0.229308	0.570799	-1.000000	-1.000000	-1.000000	-1.000000	-1.000000	-1.000000	-1.000000	63.000000	0.000000	-1.000000	-1.000000	992533.000000	1776578385.101236
2927.745000	-31113.090000	14824.485000	67743.225000	25089.030000	3468.735000	-27172.170000	-7159.455000	0.665842	-1.402861	-0.927050	0.225202	3.199622	3.506065	1.860617	3.390279	-3.967600	1.571780	-0.640920	-0.777952	0.229308	0.570799	-1.000000	-1.000000	-1.000000	-1.000000	-1.000000	-1.000000	-1.000000	63.000000	0.000000	-1.000000	-1.000000	992534.000000	1776578385.101245
2927.430000	-31113.495000	14821.740000	67739.310000	25079.985000	3459.645000	-27172.710000	-7159.590000	0.082554	-0.536833	-0.454841	0.006676	0.298259	0.659389	1.061629	2.151174	-3.967600	1.571780	-0.640920	-0.777952	0.229308	0.570799	-1.000000	-1.000000	-1.000000	-1.000000	-1.000000	-1.000000	-1.000000	63.000000	0.000000	-1.000000	-1.000000	992535.000000	1776578385.105400
2926.305000	-31116.780000	14817.195000	67736.970000	25075.260000	3462.570000	-27166.590000	-7156.980000	-0.494689	0.823359	0.640932	0.404990	-1.419200	-1.730155	0.031859	-0.160878	-3.967600	1.571780	-0.640920	-0.777952	0.229308	0.570799	-1.000000	-1.000000	-1.000000	-1.000000	-1.000000	-1.000000	-1.000000	63.000000	0.000000	-1.000000	-1.000000	992536.000000	1776578385.105408
2927.835000	-31117.050000	14818.185000	67738.950000	25074.540000	3468.015000	-27159.120000	-7153.515000	-0.747819	1.655253	1.269220	0.610130	-3.082632	-3.389050	-0.460145	-2.127770	-3.967600	1.571780	-0.640920	-0.777952	0.229308	0.570799	-1.000000	-1.000000	-1.000000	-1.000000	-1.000000	-1.000000	-1.000000	63.000000	0.000000	-1.000000	-1.000000	992537.000000	1776578385.109389
2926.575000	-31118.400000	14817.150000	67738.995000	25079.130000	3473.550000	-27157.320000	-7155.855000	-0.572777	1.401834	0.971400	0.319157	-4.359697	-3.394250	0.066487	-2.705861	-3.967600	1.571780	-0.640920	-0.777952	0.229308	0.570799	-1.000000	-1.000000	-1.000000	-1.000000	-1.000000	-1.000000	-1.000000	63.000000	0.000000	-1.000000	-1.000000	992538.000000	1776578385.109397
2922.390000	-31121.640000	14815.620000	67738.455000	25082.325000	3476.115000	-27161.055000	-7161.570000	-0.197528	0.409646	0.244542	-0.101885	-3.955534	-1.601968	0.834455	-2.227796	-3.967600	1.571780	-0.640920	-0.777952	0.229308	0.570799	-1.000000	-1.000000	-1.000000	-1.000000	-1.000000	-1.000000	-1.000000	63.000000	0.000000	-1.000000	-1.000000	992539.000000	1776578385.113290
2923.605000	-31118.625000	14817.690000	67739.175000	25074.270000	3473.325000	-27161.325000	-7160.625000	-0.011591	-0.598358	-0.303505	-0.363486	-1.771571	0.651053	0.530771	-1.683945	-3.967600	1.571780	-0.640920	-0.777952	0.229308	0.570799	-1.000000	-1.000000	-1.000000	-1.000000	-1.000000	-1.000000	-1.000000	63.000000	0.000000	-1.000000	-1.000000	992540.000000	1776578385.113298
2931.120000	-31110.570000	14825.745000	67747.320000	25071.435000	3470.085000	-27160.560000	-7153.785000	0.131311	-0.787744	-0.187913	-0.251088	0.553360	1.599935	-1.039226	-1.209421	-3.448760	0.976640	-0.198380	-0.778440	0.225707	0.573241	-1.000000	-1.000000	-1.000000	-1.000000	-1.000000	-1.000000	-1.000000	63.000000	0.000000	-1.000000	-1.000000	992541.000000	1776578385.117314
2929.410000	-31112.505000	14823.450000	67745.610000	25072.515000	3465.810000	-27163.215000	-7155.900000	0.740024	0.219471	0.711328	0.379907	1.565515	0.551578	-2.765878	-0.203451	-3.448760	0.976640	-0.198380	-0.778440	0.225707	0.573241	-1.000000	-1.000000	-1.000000	-1.000000	-1.000000	-1.000000	-1.000000	63.000000	0.000000	-1.000000	-1.000000	992542.000000	1776578385.117328
2935.845000	-31105.530000	14829.255000	67749.615000	25083.495000	3467.700000	-27157.770000	-7151.265000	1.671222	1.681536	1.712072	1.121756	1.665919	-1.543827	-3.426914	1.270929	-3.448760	0.976640	-0.198380	-0.778440	0.225707	0.573241	-1.000000	-1.000000	-1.000000	-1.000000	-1.000000	-1.000000	-1.000000	63.000000	0.000000	-1.000000	-1.000000	992543.000000	1776578385.121219
2934.360000	-31105.665000	14827.590000	67747.410000	25078.545000	3464.280000	-27159.165000	-7152.435000	2.195578	2.447409	1.908561	1.243160	2.018294	-2.960777	-2.512255	2.393794	-3.448760	0.976640	-0.198380	-0.778440	0.225707	0.573241	-1.000000	-1.000000	-1.000000	-1.000000	-1.000000	-1.000000	-1.000000	63.000000	0.000000	-1.000000	-1.000000	992544.000000	1776578385.121230
2931.525000	-31107.645000	14824.035000	67743.585000	25072.470000	3459.645000	-27165.915000	-7157.880000	1.678628	1.884063	0.905980	0.362902	2.399539	-2.784444	-0.660256	2.371991	-3.448760	0.976640	-0.198380	-0.778440	0.225707	0.573241	-1.000000	-1.000000	-1.000000	-1.000000	-1.000000	-1.000000	-1.000000	63.000000	0.000000	-1.000000	-1.000000	992545.000000	1776578385.125389
2935.935000	-31099.770000	14827.140000	67741.470000	25074.405000	3460.320000	-27164.520000	-7156.125000	0.085939	0.183960	-0.991951	-1.305768	1.667400	-1.393766	0.786464	0.987100	-3.448760	0.976640	-0.198380	-0.778440	0.225707	0.573241	-1.000000	-1.000000	-1.000000	-1.000000	-1.000000	-1.000000	-1.000000	63.000000	0.000000	-1.000000	-1.000000	992546.000000	1776578385.125405
2935.260000	-31088.520000	14821.920000	67720.005000	25075.440000	3464.910000	-27153.270000	-7150.140000	-1.691848	-1.378262	-2.804160	-3.261271	-0.055376	0.557790	1.473942	-0.827402	-3.448760	0.976640	-0.198380	-0.778440	0.225707	0.573241	-1.000000	-1.000000	-1.000000	-1.000000	-1.000000	-1.000000	-1.000000	63.000000	0.000000	-1.000000	-1.000000	992547.000000	1776578385.129316
2931.750000	-31104.090000	14821.515000	67736.385000	25076.430000	3467.880000	-27159.435000	-7154.595000	-2.694366	-1.822824	-3.631192	-4.726585	-1.449814	2.686472	2.106978	-1.695689	-3.448760	0.976640	-0.198380	-0.778440	0.225707	0.573241	-1.000000	-1.000000	-1.000000	-1.000000	-1.000000	-1.000000	-1.000000	63.000000	0.000000	-1.000000	-1.000000	992548.000000	1776578385.129327
2933.820000	-31108.545000	14822.550000	67743.000000	25065.675000	3462.885000	-27159.255000	-7151.175000	-2.749178	-2.103232	-3.181188	-3.963143	-1.881675	4.273147	2.584906	-1.351672	-3.448760	0.976640	-0.198380	-0.778440	0.225707	0.573241	-1.000000	-1.000000	-1.000000	-1.000000	-1.000000	-1.000000	-1.000000	63.000000	0.000000	-1.000000	-1.000000	992549.000000	1776578385.133236
2931.570000	-31112.505000	14817.420000	67735.710000	25048.305000	3449.610000	-27165.150000	-7154.280000	-2.060470	-3.304179	-1.673133	-0.136669	-2.190705	4.014299	1.996590	-0.526638	-3.448760	0.976640	-0.198380	-0.778440	0.225707	0.573241	-1.000000	-1.000000	-1.000000	-1.000000	-1.000000	-1.000000	-1.000000	63.000000	0.000000	-1.000000	-1.000000	992550.000000	1776578385.133247
2933.235000	-31109.265000	14821.470000	67741.650000	25083.315000	3460.005000	-27164.655000	-7154.595000	-0.881022	-4.428099	0.224628	4.454176	-2.568268	1.504435	0.224046	0.060635	-2.746800	0.595140	0.640920	-0.776670	0.224731	0.574278	-1.000000	-1.000000	-1.000000	-1.000000	-1.000000	-1.000000	-1.000000	63.000000	0.000000	-1.000000	-1.000000	992551.000000	1776578385.137150
2936.745000	-31105.035000	14826.330000	67747.095000	25106.355000	3469.005000	-27156.690000	-7151.400000	0.502266	-3.594608	1.979508	6.930733	-0.555667	-1.234652	-1.539049	0.205868	-2.746800	0.595140	0.640920	-0.776670	0.224731	0.574278	-1.000000	-1.000000	-1.000000	-1.000000	-1.000000	-1.000000	-1.000000	63.000000	0.000000	-1.000000	-1.000000	992552.000000	1776578385.137159
2937.060000	-31104.855000	14827.005000	67748.130000	25094.070000	3471.300000	-27154.755000	-7151.580000	1.814081	-0.377225	3.394266	6.559864	4.787415	-1.700637	-1.791523	0.238951	-2.746800	0.595140	0.640920	-0.776670	0.224731	0.574278	-1.000000	-1.000000	-1.000000	-1.000000	-1.000000	-1.000000	-1.000000	63.000000	0.000000	-1.000000	-1.000000	992553.000000	1776578385.141278
2934.450000	-31104.855000	14827.455000	67748.940000	25070.085000	3468.465000	-27158.850000	-7156.575000	2.555120	3.565260	3.996992	4.012502	8.567548	-0.101159	-0.482943	0.319888	-2.746800	0.595140	0.640920	-0.776670	0.224731	0.574278	-1.000000	-1.000000	-1.000000	-1.000000	-1.000000	-1.000000	-1.000000	63.000000	0.000000	-1.000000	-1.000000	992554.000000	1776578385.141287
2937.285000	-31102.965000	14827.410000	67748.085000	25057.845000	3470.130000	-27157.095000	-7154.190000	2.245151	5.975790	3.238515	0.349146	5.224752	1.263720	0.866290	0.175685	-2.746800	0.595140	0.640920	-0.776670	0.224731	0.574278	-1.000000	-1.000000	-1.000000	-1.000000	-1.000000	-1.000000	-1.000000	63.000000	0.000000	-1.000000	-1.000000	992555.000000	1776578385.148387
2933.145000	-31106.295000	14825.295000	67747.320000	25072.830000	3475.440000	-27162.090000	-7158.375000	1.032530	5.759360	1.217222	-3.186090	-3.658312	1.034221	1.012980	-0.224703	-2.746800	0.595140	0.640920	-0.776670	0.224731	0.574278	-1.000000	-1.000000	-1.000000	-1.000000	-1.000000	-1.000000	-1.000000	63.000000	0.000000	-1.000000	-1.000000	992556.000000	1776578385.148402
2934.540000	-31105.530000	14827.410000	67750.020000	25102.980000	3485.520000	-27158.445000	-7154.190000	-0.458175	3.316673	-1.230874	-5.406907	-10.003173	-0.053447	0.045117	-0.513485	-2.746800	0.595140	0.640920	-0.776670	0.224731	0.574278	-1.000000	-1.000000	-1.000000	-1.000000	-1.000000	-1.000000	-1.000000	63.000000	0.000000	-1.000000	-1.000000	992557.000000	1776578385.149294
2937.915000	-31100.085000	14827.095000	67743.495000	25100.505000	3477.915000	-27154.260000	-7149.150000	-1.483233	0.138938	-2.979390	-5.700857	-7.819141	-0.814629	-0.948363	-0.221109	-2.746800	0.595140	0.640920	-0.776670	0.224731	0.574278	-1.000000	-1.000000	-1.000000	-1.000000	-1.000000	-1.000000	-1.000000	63.000000	0.000000	-1.000000	-1.000000	992558.000000	1776578385.149299
2940.255000	-31095.945000	14828.490000	67741.200000	25095.420000	3475.935000	-27148.185000	-7144.740000	-1.437425	-1.979399	-3.316334	-4.484756	0.224132	-1.389949	-0.839631	0.864077	-2.746800	0.595140	0.640920	-0.776670	0.224731	0.574278	-1.000000	-1.000000	-1.000000	-1.000000	-1.000000	-1.000000	-1.000000	63.000000	0.000000	-1.000000	-1.000000	992559.000000	1776578385.153448
2938.500000	-31101.525000	14829.705000	67748.220000	25090.155000	3469.365000	-27153.765000	-7149.645000	-0.469100	-2.372243	-2.338405	-2.489601	6.396709	-2.490327	0.310419	2.080273	-2.746800	0.595140	0.640920	-0.776670	0.224731	0.574278	-1.000000	-1.000000	-1.000000	-1.000000	-1.000000	-1.000000	-1.000000	63.000000	0.000000	-1.000000	-1.000000	992560.000000	1776578385.153461
2939.535000	-31100.580000	14831.775000	67750.110000	25086.510000	3466.395000	-27157.770000	-7151.715000	0.512721	-1.938454	-0.688323	0.085135	6.198983	-3.860362	1.102078	2.125748	-2.685760	2.929920	-0.854560	-0.772337	0.225219	0.574522	-1.000000	-1.000000	-1.000000	-1.000000	-1.000000	-1.000000	-1.000000	63.000000	0.000000	-1.000000	-1.000000	992561.000000	1776578385.157391
2937.420000	-31101.525000	14830.245000	67748.040000	25083.810000	3466.935000	-27161.820000	-7156.890000	0.752755	-1.675232	0.829280	2.777458	1.120351	-4.360716	0.366245	0.425681	-2.685760	2.929920	-0.854560	-0.772337	0.225219	0.574522	-1.000000	-1.000000	-1.000000	-1.000000	-1.000000	-1.000000	-1.000000	63.000000	0.000000	-1.000000	-1.000000	992562.000000	1776578385.157400
2943.270000	-31094.730000	14836.545000	67755.195000	25095.420000	3475.170000	-27157.815000	-7154.055000	0.315449	-1.501093	1.649506	4.486306	-4.177150	-2.884411	-1.360058	-2.061757	-2.685760	2.929920	-0.854560	-0.772337	0.225219	0.574522	-1.000000	-1.000000	-1.000000	-1.000000	-1.000000	-1.000000	-1.000000	63.000000	0.000000	-1.000000	-1.000000	992563.000000	1776578385.161343
2941.245000	-31096.125000	14836.005000	67756.005000	25095.330000	3477.960000	-27157.500000	-7156.440000	-0.159134	-0.838223	1.766584	4.623105	-5.761096	0.659480	-2.375841	-3.610994	-2.685760	2.929920	-0.854560	-0.772337	0.225219	0.574522	-1.000000	-1.000000	-1.000000	-1.000000	-1.000000	-1.000000	-1.000000	63.000000	0.000000	-1.000000	-1.000000	992564.000000	1776578385.161356
2935.305000	-31103.055000	14830.245000	67751.145000	25091.370000	3474.810000	-27161.190000	-7161.255000	-0.424282	0.112872	1.264353	3.302667	-3.291439	4.645530	-1.755859	-3.339700	-2.685760	2.929920	-0.854560	-0.772337	0.225219	0.574522	-1.000000	-1.000000	-1.000000	-1.000000	-1.000000	-1.000000	-1.000000	63.000000	0.000000	-1.000000	-1.000000	992565.000000	1776578385.165506
2941.515000	-31099.320000	14832.720000	67752.720000	25093.440000	3477.240000	-27151.965000	-7153.515000	-0.725850	0.496312	0.073884	0.844742	0.463336	6.658851	-0.021606	-1.650780	-2.685760	2.929920	-0.854560	-0.772337	0.225219	0.574522	-1.000000	-1.000000	-1.000000	-1.000000	-1.000000	-1.000000	-1.000000	63.000000	0.000000	-1.000000	-1.000000	992566.000000	1776578385.165522
2940.030000	-31103.415000	14829.120000	67750.335000	25085.160000	3472.245000	-27151.605000	-7154.820000	-0.862655	0.166385	-1.360378	-1.898035	2.757202	5.551768	1.949739	0.718695	-2.685760	2.929920	-0.854560	-0.772337	0.225219	0.574522	-1.000000	-1.000000	-1.000000	-1.000000	-1.000000	-1.000000	-1.000000	63.000000	0.000000	-1.000000	-1.000000	992567.000000	1776578385.169396
2938.995000	-31105.665000	14828.265000	67750.515000	25078.410000	3465.045000	-27158.265000	-7161.840000	-0.496891	-0.321289	-2.236824	-3.725560	2.547094	1.993681	3.206483	2.760689	-2.685760	2.929920	-0.854560	-0.772337	0.225219	0.574522	-1.000000	-1.000000	-1.000000	-1.000000	-1.000000	-1.000000	-1.000000	63.000000	0.000000	-1.000000	-1.000000	992568.000000	1776578385.169412
2945.520000	-31098.330000	14834.385000	67755.015000	25080.615000	3465.585000	-27157.455000	-7161.120000	0.208493	-0.431191	-2.028579	-3.856904	0.547508	-2.286414	2.736379	3.243191	-2.685760	2.929920	-0.854560	-0.772337	0.225219	0.574522	-1.000000	-1.000000	-1.000000	-1.000000	-1.000000	-1.000000	-1.000000	63.000000	0.000000	-1.000000	-1.000000	992569.000000	1776578385.173679
2949.345000	-31093.290000	14837.445000	67755.555000	25080.885000	3465.360000	-27156.645000	-7160.580000	1.089856	0.358056	-0.564895	-2.268507	-1.238009	-5.136990	0.716497	2.071624	-2.685760	2.929920	-0.854560	-0.772337	0.225219	0.574522	-1.000000	-1.000000	-1.000000	-1.000000	-1.000000	-1.000000	-1.000000	63.000000	0.000000	-1.000000	-1.000000	992570.000000	1776578385.173698
2946.465000	-31095.315000	14835.330000	67752.585000	25085.295000	3469.275000	-27159.975000	-7162.785000	1.877822	1.903132	1.540115	0.090666	-1.158962	-5.080470	-1.440164	0.409256	-2.624720	2.884140	0.701960	-0.772215	0.226989	0.575011	-1.000000	-1.000000	-1.000000	-1.000000	-1.000000	-1.000000	-1.000000	63.000000	0.000000	-1.000000	-1.000000	992571.000000	1776578385.177213
2944.845000	-31095.495000	14836.185000	67754.745000	25090.605000	3474.405000	-27159.795000	-7162.065000	1.811355	2.932419	2.902755	1.801172	0.796432	-2.276097	-2.601538	-0.724559	-2.624720	2.884140	0.701960	-0.772215	0.226989	0.575011	-1.000000	-1.000000	-1.000000	-1.000000	-1.000000	-1.000000	-1.000000	63.000000	0.000000	-1.000000	-1.000000	992572.000000	1776578385.177236
2940.705000	-31103.505000	14829.615000	67751.055000	25087.770000	3473.055000	-27153.045000	-7158.330000	0.433104	2.206769	2.521269	2.133060	3.211076	1.610996	-2.370493	-0.958125	-2.624720	2.884140	0.701960	-0.772215	0.226989	0.575011	-1.000000	-1.000000	-1.000000	-1.000000	-1.000000	-1.000000	-1.000000	63.000000	0.000000	-1.000000	-1.000000	992573.000000	1776578385.181424
2934.945000	-31114.575000	14820.795000	67744.890000	25083.405000	3467.970000	-27148.860000	-7159.230000	-1.748571	-0.419931	0.411143	1.205657	4.134573	4.230054	-0.751471	-0.374144	-2.624720	2.884140	0.701960	-0.772215	0.226989	0.575011	-1.000000	-1.000000	-1.000000	-1.000000	-1.000000	-1.000000	-1.000000	63.000000	0.000000	-1.000000	-1.000000	992574.000000	1776578385.181444
2940.660000	-31110.705000	14824.620000	67749.390000	25089.885000	3472.830000	-27144.765000	-7153.875000	-3.487564	-3.711525	-2.358082	-0.329514	2.678311	4.125483	1.582956	0.532111	-2.624720	2.884140	0.701960	-0.772215	0.226989	0.575011	-1.000000	-1.000000	-1.000000	-1.000000	-1.000000	-1.000000	-1.000000	63.000000	0.000000	-1.000000	-1.000000	992575.000000	1776578385.185350
2944.170000	-31104.090000	14832.000000	67757.760000	25093.800000	3470.400000	-27150.840000	-7154.370000	-3.380050	-5.249467	-3.751720	-1.164441	0.064009	1.924499	3.176607	1.176140	-2.624720	2.884140	0.701960	-0.772215	0.226989	0.575011	-1.000000	-1.000000	-1.000000	-1.000000	-1.000000	-1.000000	-1.000000	63.000000	0.000000	-1.000000	-1.000000	992576.000000	1776578385.185368
2941.605000	-31106.430000	14828.985000	67751.280000	25076.565000	3462.120000	-27155.655000	-7158.240000	-1.143614	-3.408750	-2.388439	-0.403600	-2.125146	-0.802000	2.623873	1.077579	-2.624720	2.884140	0.701960	-0.772215	0.226989	0.575011	-1.000000	-1.000000	-1.000000	-1.000000	-1.000000	-1.000000	-1.000000	63.000000	0.000000	-1.000000	-1.000000	992577.000000	1776578385.189436
2943.000000	-31105.575000	14826.735000	67742.280000	25069.860000	3463.380000	-27153.405000	-7158.105000	1.736438	0.640133	0.644936	0.871328	-3.907091	-3.015949	-0.012964	0.000217	-2.624720	2.884140	0.701960	-0.772215	0.226989	0.575011	-1.000000	-1.000000	-1.000000	-1.000000	-1.000000	-1.000000	-1.000000	63.000000	0.000000	-1.000000	-1.000000	992578.000000	1776578385.189445
2939.805000	-31107.780000	14824.845000	67742.055000	25077.240000	3470.085000	-27154.260000	-7159.635000	3.399951	4.094735	2.901485	0.853788	-5.284717	-3.816271	-2.867960	-1.568806	-2.624720	2.884140	0.701960	-0.772215	0.226989	0.575011	-1.000000	-1.000000	-1.000000	-1.000000	-1.000000	-1.000000	-1.000000	63.000000	0.000000	-1.000000	-1.000000	992579.000000	1776578385.193292
2934.810000	-31113.540000	14819.625000	67739.265000	25074.135000	3470.310000	-27157.230000	-7162.470000	3.022358	4.971824	2.990998	-0.487647	-4.841625	-2.484785	-4.053775	-2.689842	-2.624720	2.884140	0.701960	-0.772215	0.226989	0.575011	-1.000000	-1.000000	-1.000000	-1.000000	-1.000000	-1.000000	-1.000000	63.000000	0.000000	-1.000000	-1.000000	992580.000000	1776578385.193300
2935.665000	-31112.685000	14820.255000	67739.535000	25069.815000	3466.935000	-27160.290000	-7163.325000	1.054878	3.156356	1.298601	-1.657619	-2.022944	0.219083	-3.290765	-2.803973	-2.639980	2.090620	0.717220	-0.772947	0.227172	0.575926	-1.000000	-1.000000	-1.000000	-1.000000	-1.000000	-1.000000	-1.000000	63.000000	0.000000	-1.000000	-1.000000	992581.000000	1776578385.197418
2942.865000	-31103.820000	14828.310000	67748.220000	25071.210000	3472.065000	-27154.755000	-7158.150000	-0.948126	0.366241	-0.549920	-1.366984	1.606930	2.440386	-1.368405	-1.806792	-2.639980	2.090620	0.717220	-0.772947	0.227172	0.575926	-1.000000	-1.000000	-1.000000	-1.000000	-1.000000	-1.000000	-1.000000	63.000000	0.000000	-1.000000	-1.000000	992582.000000	1776578385.197436
2943.045000	-31100.445000	14835.780000	67760.820000	25075.980000	3470.715000	-27156.195000	-7160.220000	-1.418139	-1.143761	-0.823044	0.797043	4.332621	3.107465	0.951070	0.076823	-2.639980	2.090620	0.717220	-0.772947	0.227172	0.575926	-1.000000	-1.000000	-1.000000	-1.000000	-1.000000	-1.000000	-1.000000	63.000000	0.000000	-1.000000	-1.000000	992583.000000	1776578385.201498
2942.055000	-31100.175000	14838.210000	67767.975000	25105.770000	3471.390000	-27156.195000	-7161.345000	-0.358991	-0.719395	0.729368	4.074615	6.075310	2.353294	2.889935	1.991107	-2.639980	2.090620	0.717220	-0.772947	0.227172	0.575926	-1.000000	-1.000000	-1.000000	-1.000000	-1.000000	-1.000000	-1.000000	63.000000	0.000000	-1.000000	-1.000000	992584.000000	1776578385.201519
2941.425000	-31102.920000	14831.100000	67758.345000	25101.945000	3465.045000	-27157.770000	-7160.670000	0.813498	0.276175	2.367462	6.225901	7.496592	0.689501	3.604770	2.872698	-2.639980	2.090620	0.717220	-0.772947	0.227172	0.575926	-1.000000	-1.000000	-1.000000	-1.000000	-1.000000	-1.000000	-1.000000	63.000000	0.000000	-1.000000	-1.000000	992585.000000	1776578385.205362
2939.265000	-31108.635000	14820.120000	67736.970000	25072.515000	3449.385000	-27164.070000	-7163.505000	0.937647	0.169504	1.819068	4.460624	6.993630	-1.581872	2.724836	2.395006	-2.639980	2.090620	0.717220	-0.772947	0.227172	0.575926	-1.000000	-1.000000	-1.000000	-1.000000	-1.000000	-1.000000	-1.000000	63.000000	0.000000	-1.000000	-1.000000	992586.000000	1776578385.205374
2939.805000	-31111.155000	14820.030000	67736.655000	25070.580000	3457.170000	-27163.440000	-7163.505000	0.011083	-1.421768	-1.364119	-1.717451	1.737408	-3.918160	0.660780	1.018762	-2.639980	2.090620	0.717220	-0.772947	0.227172	0.575926	-1.000000	-1.000000	-1.000000	-1.000000	-1.000000	-1.000000	-1.000000	63.000000	0.000000	-1.000000	-1.000000	992587.000000	1776578385.209600
2941.245000	-31110.480000	14821.560000	67740.210000	25070.400000	3465.045000	-27162.720000	-7164.675000	-1.103022	-3.326222	-4.902849	-8.527121	-6.746299	-4.571392	-1.398770	-0.477300	-2.639980	2.090620	0.717220	-0.772947	0.227172	0.575926	-1.000000	-1.000000	-1.000000	-1.000000	-1.000000	-1.000000	-1.000000	63.000000	0.000000	-1.000000	-1.000000	992588.000000	1776578385.209612
2938.095000	-31112.820000	14819.040000	67738.905000	25071.390000	3468.915000	-27164.430000	-7167.780000	-1.568708	-3.925833	-5.932021	-10.855821	-12.621211	-2.021425	-2.239589	-1.453308	-2.639980	2.090620	0.717220	-0.772947	0.227172	0.575926	-1.000000	-1.000000	-1.000000	-1.000000	-1.000000	-1.000000	-1.000000	63.000000	0.000000	-1.000000	-1.000000	992589.000000	1776578385.213397
2941.920000	-31108.140000	14825.295000	67744.980000	25078.410000	3470.310000	-27164.880000	-7166.655000	-1.224478	-2.556012	-3.653768	-7.096616	-11.767107	2.554286	-1.675028	-1.692761	-2.639980	2.090620	0.717220	-0.772947	0.227172	0.575926	-1.000000	-1.000000	-1.000000	-1.000000	-1.000000	-1.000000	-1.000000	63.000000	0.000000	-1.000000	-1.000000	992590.000000	1776578385.213431
2944.395000	-31107.105000	14826.645000	67747.455000	25084.755000	3473.055000	-27156.915000	-7161.705000	-0.290546	0.216623	0.583201	0.210975	-4.839202	6.103747	-0.280397	-1.137084	-2.289000	3.815000	0.793520	-0.772459	0.226196	0.576720	-1.000000	-1.000000	-1.000000	-1.000000	-1.000000	-1.000000	-1.000000	63.000000	0.000000	-1.000000	-1.000000	992591.000000	1776578385.217474
2942.910000	-31107.690000	14826.375000	67747.455000	25088.760000	3472.650000	-27155.160000	-7164.315000	0.855630	3.037142	4.525103	6.947642	4.100366	6.489768	1.412114	0.108416	-2.289000	3.815000	0.793520	-0.772459	0.226196	0.576720	-1.000000	-1.000000	-1.000000	-1.000000	-1.000000	-1.000000	-1.000000	63.000000	0.000000	-1.000000	-1.000000	992592.000000	1776578385.217493
2946.330000	-31103.820000	14828.580000	67747.995000	25072.380000	3463.470000	-27154.845000	-7161.570000	1.606140	4.514350	6.223777	9.889096	10.064271	3.578456	2.720751	1.381100	-2.289000	3.815000	0.793520	-0.772459	0.226196	0.576720	-1.000000	-1.000000	-1.000000	-1.000000	-1.000000	-1.000000	-1.000000	63.000000	0.000000	-1.000000	-1.000000	992593.000000	1776578385.221393
2943.945000	-31104.720000	14827.545000	67745.565000	25057.215000	3452.490000	-27160.200000	-7164.045000	1.551722	4.140857	5.143197	8.208072	9.574712	-1.425587	2.665544	1.869549	-2.289000	3.815000	0.793520	-0.772459	0.226196	0.576720	-1.000000	-1.000000	-1.000000	-1.000000	-1.000000	-1.000000	-1.000000	63.000000	0.000000	-1.000000	-1.000000	992594.000000	1776578385.221403
2946.105000	-31099.950000	14831.100000	67748.760000	25065.135000	3454.560000	-27159.930000	-7162.560000	0.773222	2.419113	2.252549	3.489044	3.347105	-6.366030	0.859288	1.327413	-2.289000	3.815000	0.793520	-0.772459	0.226196	0.576720	-1.000000	-1.000000	-1.000000	-1.000000	-1.000000	-1.000000	-1.000000	63.000000	0.000000	-1.000000	-1.000000	992595.000000	1776578385.225411
2936.655000	-31105.710000	14827.680000	67750.065000	25095.330000	3471.750000	-27162.315000	-7171.740000	-0.445386	0.210822	-0.893965	-1.509717	-2.996962	-8.221902	-1.785229	0.012427	-2.289000	3.815000	0.793520	-0.772459	0.226196	0.576720	-1.000000	-1.000000	-1.000000	-1.000000	-1.000000	-1.000000	-1.000000	63.000000	0.000000	-1.000000	-1.000000	992596.000000	1776578385.225423
2936.430000	-31103.235000	14831.865000	67756.500000	25115.895000	3488.805000	-27158.355000	-7172.685000	-1.835921	-1.829336	-3.090440	-4.467967	-3.428539	-4.780795	-3.634006	-1.649365	-2.289000	3.815000	0.793520	-0.772459	0.226196	0.576720	-1.000000	-1.000000	-1.000000	-1.000000	-1.000000	-1.000000	-1.000000	63.000000	0.000000	-1.000000	-1.000000	992597.000000	1776578385.229434
2938.005000	-31101.165000	14833.035000	67757.670000	25104.060000	3484.485000	-27157.275000	-7172.010000	-2.782660	-3.127400	-3.746445	-4.625828	1.890905	2.490013	-3.545947	-2.885864	-2.289000	3.815000	0.793520	-0.772459	0.226196	0.576720	-1.000000	-1.000000	-1.000000	-1.000000	-1.000000	-1.000000	-1.000000	63.000000	0.000000	-1.000000	-1.000000	992598.000000	1776578385.229447
2937.195000	-31102.380000	14829.300000	67750.650000	25086.510000	3473.055000	-27158.085000	-7172.640000	-2.431146	-3.182877	-3.000693	-3.042753	6.153361	8.248166	-1.701995	-2.757560	-2.289000	3.815000	0.793520	-0.772459	0.226196	0.576720	-1.000000	-1.000000	-1.000000	-1.000000	-1.000000	-1.000000	-1.000000	63.000000	0.000000	-1.000000	-1.000000	992599.000000	1776578385.233426
2938.140000	-31104.720000	14825.655000	67743.810000	25080.840000	3468.420000	-27154.845000	-7171.155000	-0.724121	-2.207516	-1.790161	-1.738306	3.502385	7.815957	0.637562	-1.115674	-2.289000	3.815000	0.793520	-0.772459	0.226196	0.576720	-1.000000	-1.000000	-1.000000	-1.000000	-1.000000	-1.000000	-1.000000	63.000000	0.000000	-1.000000	-1.000000	992600.000000	1776578385.233454
2936.385000	-31107.690000	14823.360000	67742.820000	25078.005000	3464.910000	-27156.645000	-7172.865000	1.375802	-1.041528	-1.022435	-1.776807	-4.575535	1.692790	2.234126	1.140746	-1.785420	4.669560	0.915600	-0.770994	0.226318	0.576109	-1.000000	-1.000000	-1.000000	-1.000000	-1.000000	-1.000000	-1.000000	63.000000	0.000000	-1.000000	-1.000000	992601.000000	1776578385.237488
2932.425000	-31109.850000	14821.380000	67740.930000	25073.055000	3458.790000	-27164.115000	-7179.255000	2.660903	-0.307532	-0.746082	-2.326599	-11.651407	-5.478735	2.376124	2.669861	-1.785420	4.669560	0.915600	-0.770994	0.226318	0.576109	-1.000000	-1.000000	-1.000000	-1.000000	-1.000000	-1.000000	-1.000000	63.000000	0.000000	-1.000000	-1.000000	992602.000000	1776578385.237499
2936.745000	-31105.305000	14826.870000	67746.915000	25079.760000	3463.065000	-27163.890000	-7176.420000	2.570151	0.103409	-0.321783	-1.844978	-12.711498	-9.201258	0.988789	2.621437	-1.785420	4.669560	0.915600	-0.770994	0.226318	0.576109	-1.000000	-1.000000	-1.000000	-1.000000	-1.000000	-1.000000	-1.000000	63.000000	0.000000	-1.000000	-1.000000	992603.000000	1776578385.243053
2933.280000	-31109.355000	14822.460000	67742.730000	25074.945000	3459.285000	-27169.155000	-7179.390000	1.572758	0.676562	0.745988	0.218108	-7.278997	-7.782180	-1.038206	1.393189	-1.785420	4.669560	0.915600	-0.770994	0.226318	0.576109	-1.000000	-1.000000	-1.000000	-1.000000	-1.000000	-1.000000	-1.000000	63.000000	0.000000	-1.000000	-1.000000	992604.000000	1776578385.243066
2937.375000	-31103.820000	14826.825000	67746.915000	25079.130000	3466.305000	-27165.105000	-7174.890000	0.497353	1.488292	2.108853	2.867746	1.252423	-2.560577	-2.315405	0.128356	-1.785420	4.669560	0.915600	-0.770994	0.226318	0.576109	-1.000000	-1.000000	-1.000000	-1.000000	-1.000000	-1.000000	-1.000000	63.000000	0.000000	-1.000000	-1.000000	992605.000000	1776578385.245315
2936.745000	-31099.005000	14827.905000	67743.585000	25078.050000	3467.520000	-27164.880000	-7176.150000	-0.153317	2.299924	3.021884	4.555979	8.419105	3.545706	-1.933532	-0.372250	-1.785420	4.669560	0.915600	-0.770994	0.226318	0.576109	-1.000000	-1.000000	-1.000000	-1.000000	-1.000000	-1.000000	-1.000000	63.000000	0.000000	-1.000000	-1.000000	992606.000000	1776578385.245321
2938.320000	-31100.265000	14829.615000	67749.345000	25080.930000	3468.060000	-27160.470000	-7173.225000	-0.314707	2.838109	3.096563	4.500973	11.435739	7.759341	-0.027451	-0.107425	-1.785420	4.669560	0.915600	-0.770994	0.226318	0.576109	-1.000000	-1.000000	-1.000000	-1.000000	-1.000000	-1.000000	-1.000000	63.000000	0.000000	-1.000000	-1.000000	992607.000000	1776578385.249396
2934.765000	-31108.680000	14822.910000	67745.880000	25077.735000	3462.255000	-27161.505000	-7174.980000	-0.324881	2.404452	2.164748	2.994796	9.957923	8.353137	2.276601	0.353377	-1.785420	4.669560	0.915600	-0.770994	0.226318	0.576109	-1.000000	-1.000000	-1.000000	-1.000000	-1.000000	-1.000000	-1.000000	63.000000	0.000000	-1.000000	-1.000000	992608.000000	1776578385.249407
2935.305000	-31109.400000	14819.895000	67742.460000	25072.740000	3456.270000	-27163.440000	-7176.735000	-0.578803	0.415967	0.180565	0.722837	5.313673	5.198270	3.524117	0.380535	-1.785420	4.669560	0.915600	-0.770994	0.226318	0.576109	-1.000000	-1.000000	-1.000000	-1.000000	-1.000000	-1.000000	-1.000000	63.000000	0.000000	-1.000000	-1.000000	992609.000000	1776578385.253431
2938.905000	-31106.115000	14823.360000	67746.060000	25074.675000	3457.665000	-27162.945000	-7175.610000	-0.973193	-2.255291	-2.164258	-1.615159	-0.359421	0.021141	2.908521	-0.231870	-1.785420	4.669560	0.915600	-0.770994	0.226318	0.576109	-1.000000	-1.000000	-1.000000	-1.000000	-1.000000	-1.000000	-1.000000	63.000000	0.000000	-1.000000	-1.000000	992610.000000	1776578385.253441
2934.675000	-31109.310000	14821.560000	67744.530000	25074.045000	3457.800000	-27168.930000	-7181.460000	-1.055296	-3.769161	-3.474437	-3.108974	-4.702935	-4.313996	0.798570	-1.147543	-1.281840	5.203660	0.534100	-0.771299	0.225891	0.575438	-1.000000	-1.000000	-1.000000	-1.000000	-1.000000	-1.000000	-1.000000	63.000000	0.000000	-1.000000	-1.000000	992611.000000	1776578385.257455
2943.180000	-31099.455000	14831.595000	67753.485000	25082.775000	3464.505000	-27166.545000	-7176.330000	-0.649492	-3.125473	-2.824658	-3.031361	-6.051110	-5.574443	-1.662206	-1.816915	-1.281840	5.203660	0.534100	-0.771299	0.225891	0.575438	-1.000000	-1.000000	-1.000000	-1.000000	-1.000000	-1.000000	-1.000000	63.000000	0.000000	-1.000000	-1.000000	992612.000000	1776578385.257463
2945.385000	-31096.395000	14834.385000	67755.465000	25083.315000	3465.810000	-27165.825000	-7175.115000	0.217305	-0.646312	-0.435278	-1.399952	-4.292227	-3.545198	-3.161275	-1.664281	-1.281840	5.203660	0.534100	-0.771299	0.225891	0.575438	-1.000000	-1.000000	-1.000000	-1.000000	-1.000000	-1.000000	-1.000000	63.000000	0.000000	-1.000000	-1.000000	992613.000000	1776578385.261384
2938.455000	-31107.555000	14824.935000	67748.895000	25079.850000	3466.980000	-27164.385000	-7177.005000	1.133786	2.112140	2.178476	0.691797	-1.077053	0.025413	-2.901588	-0.560580	-1.281840	5.203660	0.534100	-0.771299	0.225891	0.575438	-1.000000	-1.000000	-1.000000	-1.000000	-1.000000	-1.000000	-1.000000	63.000000	0.000000	-1.000000	-1.000000	992614.000000	1776578385.261392
2931.750000	-31115.385000	14817.285000	67743.765000	25076.970000	3464.910000	-27162.765000	-7180.380000	1.008977	2.843362	2.777913	1.463707	1.181285	2.713723	-1.198415	0.683069	-1.281840	5.203660	0.534100	-0.771299	0.225891	0.575438	-1.000000	-1.000000	-1.000000	-1.000000	-1.000000	-1.000000	-1.000000	63.000000	0.000000	-1.000000	-1.000000	992615.000000	1776578385.265348
2933.865000	-31111.605000	14819.445000	67745.205000	25078.455000	3463.290000	-27160.470000	-7179.840000	-0.567414	0.837649	0.667695	0.252297	1.309212	3.053117	0.874122	1.124361	-1.281840	5.203660	0.534100	-0.771299	0.225891	0.575438	-1.000000	-1.000000	-1.000000	-1.000000	-1.000000	-1.000000	-1.000000	63.000000	0.000000	-1.000000	-1.000000	992616.000000	1776578385.265356
2938.545000	-31106.880000	14825.475000	67750.020000	25081.020000	3463.245000	-27156.420000	-7176.240000	-2.201058	-1.743525	-2.074210	-1.512169	0.158566	1.298927	2.340103	0.805175	-1.281840	5.203660	0.534100	-0.771299	0.225891	0.575438	-1.000000	-1.000000	-1.000000	-1.000000	-1.000000	-1.000000	-1.000000	63.000000	0.000000	-1.000000	-1.000000	992617.000000	1776578385.269418
2937.375000	-31109.175000	14822.325000	67746.735000	25074.990000	3460.185000	-27153.675000	-7175.205000	-2.178524	-2.365306	-2.871496	-1.982030	-0.829199	-1.114188	2.780025	0.500073	-1.281840	5.203660	0.534100	-0.771299	0.225891	0.575438	-1.000000	-1.000000	-1.000000	-1.000000	-1.000000	-1.000000	-1.000000	63.000000	0.000000	-1.000000	-1.000000	992618.000000	1776578385.269428
2938.950000	-31108.500000	14822.550000	67746.330000	25069.455000	3454.560000	-27155.925000	-7174.305000	-0.466219	-0.847890	-1.412493	-0.939171	-1.259364	-2.866691	2.154842	0.609501	-1.281840	5.203660	0.534100	-0.771299	0.225891	0.575438	-1.000000	-1.000000	-1.000000	-1.000000	-1.000000	-1.000000	-1.000000	63.000000	0.000000	-1.000000	-1.000000	992619.000000	1776578385.273627
2935.935000	-31111.245000	14819.760000	67740.390000	25063.020000	3454.245000	-27157.815000	-7176.825000	1.509127	1.150285	0.676684	0.407243	-1.562915	-3.421222	0.545078	0.764044	-1.281840	5.203660	0.534100	-0.771299	0.225891	0.575438	-1.000000	-1.000000	-1.000000	-1.000000	-1.000000	-1.000000	-1.000000	63.000000	0.000000	-1.000000	-1.000000	992620.000000	1776578385.273634
2936.070000	-31111.605000	14818.950000	67737.735000	25068.420000	3461.040000	-27159.300000	-7176.330000	2.389080	2.124107	1.859911	0.926183	-1.684315	-2.546118	-1.607333	0.436889	-1.693860	5.127360	0.335720	-0.774717	0.226867	0.573180	-1.000000	-1.000000	-1.000000	-1.000000	-1.000000	-1.000000	-1.000000	63.000000	0.000000	-1.000000	-1.000000	992621.000000	1776578385.277569
2938.635000	-31108.095000	14823.810000	67743.945000	25076.790000	3465.810000	-27162.675000	-7176.555000	1.916587	1.801726	1.836675	0.636444	-0.709974	-0.149271	-3.411321	-0.358824	-1.693860	5.127360	0.335720	-0.774717	0.226867	0.573180	-1.000000	-1.000000	-1.000000	-1.000000	-1.000000	-1.000000	-1.000000	63.000000	0.000000	-1.000000	-1.000000	992622.000000	1776578385.277575
2944.305000	-31101.570000	14828.445000	67750.470000	25084.935000	3471.570000	-27160.380000	-7170.165000	0.941136	1.046042	1.400013	0.646534	1.926253	3.040118	-3.998644	-0.991967	-1.693860	5.127360	0.335720	-0.774717	0.226867	0.573180	-1.000000	-1.000000	-1.000000	-1.000000	-1.000000	-1.000000	-1.000000	63.000000	0.000000	-1.000000	-1.000000	992623.000000	1776578385.281419
2939.085000	-31107.690000	14822.685000	67746.420000	25081.200000	3460.680000	-27168.300000	-7175.565000	0.296105	0.628971	1.161480	1.569440	5.024035	5.199456	-3.109310	-0.927173	-1.693860	5.127360	0.335720	-0.774717	0.226867	0.573180	-1.000000	-1.000000	-1.000000	-1.000000	-1.000000	-1.000000	-1.000000	63.000000	0.000000	-1.000000	-1.000000	992624.000000	1776578385.281424
2940.885000	-31104.765000	14827.185000	67748.670000	25079.760000	3457.980000	-27167.490000	-7175.880000	-0.126056	0.285982	0.790967	2.466369	6.119227	4.464697	-1.337174	-0.483520	-1.693860	5.127360	0.335720	-0.774717	0.226867	0.573180	-1.000000	-1.000000	-1.000000	-1.000000	-1.000000	-1.000000	-1.000000	63.000000	0.000000	-1.000000	-1.000000	992625.000000	1776578385.285588
2943.135000	-31101.210000	14831.415000	67752.855000	25082.820000	3462.525000	-27162.090000	-7174.395000	-0.654961	-0.354009	0.077767	2.251917	3.949199	1.000803	0.628544	-0.277008	-1.693860	5.127360	0.335720	-0.774717	0.226867	0.573180	-1.000000	-1.000000	-1.000000	-1.000000	-1.000000	-1.000000	-1.000000	63.000000	0.000000	-1.000000	-1.000000	992626.000000	1776578385.285619
2945.925000	-31098.960000	14833.080000	67755.330000	25082.910000	3461.355000	-27157.680000	-7170.030000	-1.015048	-0.898184	-0.491132	1.086424	-0.170918	-2.675989	2.650932	-0.203779	-1.693860	5.127360	0.335720	-0.774717	0.226867	0.573180	-1.000000	-1.000000	-1.000000	-1.000000	-1.000000	-1.000000	-1.000000	63.000000	0.000000	-1.000000	-1.000000	992627.000000	1776578385.289590
2943.720000	-31101.300000	14830.875000	67752.585000	25078.410000	3455.820000	-27160.515000	-7172.820000	-0.914889	-1.011622	-0.712673	-0.339607	-3.914157	-4.376595	4.345858	0.134288	-1.693860	5.127360	0.335720	-0.774717	0.226867	0.573180	-1.000000	-1.000000	-1.000000	-1.000000	-1.000000	-1.000000	-1.000000	63.000000	0.000000	-1.000000	-1.000000	992628.000000	1776578385.289605
2945.925000	-31098.600000	14833.305000	67756.005000	25082.460000	3463.560000	-27156.690000	-7170.840000	-0.592360	-0.943658	-0.936453	-1.649957	-5.810916	-3.846955	4.737247	0.572227	-1.693860	5.127360	0.335720	-0.774717	0.226867	0.573180	-1.000000	-1.000000	-1.000000	-1.000000	-1.000000	-1.000000	-1.000000	63.000000	0.000000	-1.000000	-1.000000	992629.000000	1776578385.293659
2945.025000	-31100.130000	14830.245000	67752.405000	25081.020000	3468.645000	-27156.690000	-7171.470000	-0.373668	-0.936673	-1.331037	-2.580313	-5.426661	-1.653428	3.391120	0.689461	-1.693860	5.127360	0.335720	-0.774717	0.226867	0.573180	-1.000000	-1.000000	-1.000000	-1.000000	-1.000000	-1.000000	-1.000000	63.000000	0.000000	-1.000000	-1.000000	992630.000000	1776578385.293673
2944.170000	-31100.715000	14827.860000	67747.320000	25079.625000	3472.785000	-27156.015000	-7172.865000	-0.339070	-0.968690	-1.754996	-3.011857	-3.266541	1.388949	0.945292	0.368781	-2.746800	4.196500	0.442540	-0.777037	0.231323	0.570799	-1.000000	-1.000000	-1.000000	-1.000000	-1.000000	-1.000000	-1.000000	63.000000	0.000000	-1.000000	-1.000000	992631.000000	1776578385.297606
2945.565000	-31099.545000	14827.680000	67743.810000	25068.465000	3467.025000	-27155.970000	-7172.055000	-0.405099	-0.925420	-1.982328	-3.089319	-0.776403	3.742649	-1.552227	-0.216230	-2.746800	4.196500	0.442540	-0.777037	0.231323	0.570799	-1.000000	-1.000000	-1.000000	-1.000000	-1.000000	-1.000000	-1.000000	63.000000	0.000000	-1.000000	-1.000000	992632.000000	1776578385.297616
2944.260000	-31101.615000	14826.960000	67743.315000	25053.345000	3458.745000	-27157.545000	-7171.830000	-0.387280	-0.672804	-1.693677	-2.736386	0.362866	3.675936	-3.271271	-0.700255	-2.746800	4.196500	0.442540	-0.777037	0.231323	0.570799	-1.000000	-1.000000	-1.000000	-1.000000	-1.000000	-1.000000	-1.000000	63.000000	0.000000	-1.000000	-1.000000	992633.000000	1776578385.301433
2942.685000	-31103.685000	14823.765000	67740.300000	25042.320000	3449.925000	-27163.395000	-7175.205000	-0.223431	-0.268495	-0.787253	-1.629854	-0.495123	0.741118	-3.949580	-0.822255	-2.746800	4.196500	0.442540	-0.777037	0.231323	0.570799	-1.000000	-1.000000	-1.000000	-1.000000	-1.000000	-1.000000	-1.000000	63.000000	0.000000	-1.000000	-1.000000	992634.000000	1776578385.301446
2942.595000	-31103.640000	14822.955000	67742.730000	25076.070000	3455.055000	-27162.540000	-7176.195000	-0.043838	0.076704	0.359414	0.219726	-1.435282	-3.280769	-3.766214	-0.708382	-2.746800	4.196500	0.442540	-0.777037	0.231323	0.570799	-1.000000	-1.000000	-1.000000	-1.000000	-1.000000	-1.000000	-1.000000	63.000000	0.000000	-1.000000	-1.000000	992635.000000	1776578385.305505
2938.545000	-31107.870000	14818.635000	67739.940000	25102.395000	3461.310000	-27165.195000	-7179.975000	0.041486	0.277956	1.224341	2.282890	1.341340	-5.262968	-2.820417	-0.596990	-2.746800	4.196500	0.442540	-0.777037	0.231323	0.570799	-1.000000	-1.000000	-1.000000	-1.000000	-1.000000	-1.000000	-1.000000	63.000000	0.000000	-1.000000	-1.000000	992636.000000	1776578385.305514
2939.040000	-31107.645000	14818.140000	67737.960000	25078.860000	3460.770000	-27166.320000	-7179.930000	0.014313	0.351491	1.530821	3.703016	7.968122	-3.457963	-1.202730	-0.506847	-2.746800	4.196500	0.442540	-0.777037	0.231323	0.570799	-1.000000	-1.000000	-1.000000	-1.000000	-1.000000	-1.000000	-1.000000	63.000000	0.000000	-1.000000	-1.000000	992637.000000	1776578385.309437
2941.785000	-31104.315000	14822.325000	67742.955000	25076.340000	3461.985000	-27165.825000	-7178.895000	0.079561	0.485918	1.490296	3.904077	12.214893	0.735410	0.686781	-0.210644	-2.746800	4.196500	0.442540	-0.777037	0.231323	0.570799	-1.000000	-1.000000	-1.000000	-1.000000	-1.000000	-1.000000	-1.000000	63.000000	0.000000	-1.000000	-1.000000	992638.000000	1776578385.309460
2945.565000	-31099.815000	14828.355000	67748.535000	25076.475000	3465.405000	-27161.865000	-7176.105000	0.605584	1.045552	1.710362	3.248700	8.864845	4.378119	2.399555	0.538637	-2.746800	4.196500	0.442540	-0.777037	0.231323	0.570799	-1.000000	-1.000000	-1.000000	-1.000000	-1.000000	-1.000000	-1.000000	63.000000	0.000000	-1.000000	-1.000000	992639.000000	1776578385.313570
2943.180000	-31100.535000	14827.635000	67748.490000	25076.295000	3463.920000	-27162.855000	-7177.770000	1.499459	1.971221	2.372175	2.433114	0.040832	5.566367	3.597284	1.570441	-2.746800	4.196500	0.442540	-0.777037	0.231323	0.570799	-1.000000	-1.000000	-1.000000	-1.000000	-1.000000	-1.000000	-1.000000	63.000000	0.000000	-1.000000	-1.000000	992640.000000	1776578385.313577
2944.035000	-31099.905000	14825.835000	67745.970000	25075.035000	3460.320000	-27162.810000	-7175.250000	1.999867	2.491216	2.662454	1.408716	-8.253068	4.042218	3.847258	2.255439	-4.059160	3.113040	-0.824040	-0.776792	0.232238	0.570738	-1.000000	-1.000000	-1.000000	-1.000000	-1.000000	-1.000000	-1.000000	63.000000	0.000000	-1.000000	-1.000000	992641.000000	1776578385.317562
2950.155000	-31093.785000	14831.055000	67750.785000	25085.520000	3465.405000	-27158.220000	-7167.510000	1.625937	2.005332	1.747135	-0.171839	-11.613914	0.841727	2.952958	2.256927	-4.059160	3.113040	-0.824040	-0.776792	0.232238	0.570738	-1.000000	-1.000000	-1.000000	-1.000000	-1.000000	-1.000000	-1.000000	63.000000	0.000000	-1.000000	-1.000000	992642.000000	1776578385.317579
2948.580000	-31094.010000	14832.675000	67754.520000	25091.145000	3465.630000	-27160.695000	-7168.590000	0.748750	0.810979	-0.012925	-1.836878	-9.037003	-2.150256	1.339458	1.820314	-4.059160	3.113040	-0.824040	-0.776792	0.232238	0.570738	-1.000000	-1.000000	-1.000000	-1.000000	-1.000000	-1.000000	-1.000000	63.000000	0.000000	-1.000000	-1.000000	992643.000000	1776578385.321436
2947.860000	-31095.495000	14829.210000	67749.480000	25078.815000	3460.590000	-27160.920000	-7167.420000	-0.220657	-0.557363	-1.674406	-2.793748	-2.989514	-3.582528	-0.433657	1.028522	-4.059160	3.113040	-0.824040	-0.776792	0.232238	0.570738	-1.000000	-1.000000	-1.000000	-1.000000	-1.000000	-1.000000	-1.000000	63.000000	0.000000	-1.000000	-1.000000	992644.000000	1776578385.321450
2952.495000	-31092.930000	14830.920000	67750.785000	25075.845000	3463.560000	-27157.185000	-7161.885000	-1.147048	-1.839060	-2.797082	-3.019633	2.093788	-3.507213	-1.913760	-0.173264	-4.059160	3.113040	-0.824040	-0.776792	0.232238	0.570738	-1.000000	-1.000000	-1.000000	-1.000000	-1.000000	-1.000000	-1.000000	63.000000	0.000000	-1.000000	-1.000000	992645.000000	1776578385.325562
2947.455000	-31098.960000	14826.645000	67747.185000	25075.395000	3467.520000	-27158.940000	-7165.485000	-1.778203	-2.778178	-3.290730	-2.874189	3.530787	-2.404509	-2.604801	-1.437145	-4.059160	3.113040	-0.824040	-0.776792	0.232238	0.570738	-1.000000	-1.000000	-1.000000	-1.000000	-1.000000	-1.000000	-1.000000	63.000000	0.000000	-1.000000	-1.000000	992646.000000	1776578385.325573
2946.870000	-31101.255000	14823.585000	67745.070000	25074.135000	3468.420000	-27158.850000	-7166.070000	-2.038820	-3.230860	-3.168807	-2.470012	2.223521	-0.580766	-2.400370	-2.447114	-4.059160	3.113040	-0.824040	-0.776792	0.232238	0.570738	-1.000000	-1.000000	-1.000000	-1.000000	-1.000000	-1.000000	-1.000000	63.000000	0.000000	-1.000000	-1.000000	992647.000000	1776578385.329551
2947.860000	-31100.715000	14825.205000	67747.410000	25080.120000	3471.660000	-27157.320000	-7165.440000	-2.008685	-3.106155	-2.493950	-1.709285	0.651920	1.341816	-1.664246	-3.075513	-4.059160	3.113040	-0.824040	-0.776792	0.232238	0.570738	-1.000000	-1.000000	-1.000000	-1.000000	-1.000000	-1.000000	-1.000000	63.000000	0.000000	-1.000000	-1.000000	992648.000000	1776578385.329561
2953.665000	-31093.785000	14832.315000	67753.305000	25081.155000	3471.705000	-27154.215000	-7162.155000	-1.410790	-1.996643	-1.057705	-0.312853	0.476200	2.522819	-0.680915	-2.956815	-4.059160	3.113040	-0.824040	-0.776792	0.232238	0.570738	-1.000000	-1.000000	-1.000000	-1.000000	-1.000000	-1.000000	-1.000000	63.000000	0.000000	-1.000000	-1.000000	992649.000000	1776578385.333488
2953.755000	-31093.695000	14832.675000	67753.125000	25080.480000	3468.735000	-27154.440000	-7163.955000	-0.013143	0.287001	1.221801	1.709436	1.562669	2.405722	0.379320	-1.845028	-4.059160	3.113040	-0.824040	-0.776792	0.232238	0.570738	-1.000000	-1.000000	-1.000000	-1.000000	-1.000000	-1.000000	-1.000000	63.000000	0.000000	-1.000000	-1.000000	992650.000000	1776578385.333499
2950.830000	-31097.340000	14828.715000	67748.535000	25075.395000	3462.030000	-27155.880000	-7165.800000	1.558046	2.779468	3.391967	3.390954	2.432035	0.888771	1.122635	-0.242680	-3.311420	3.570840	-0.396760	-0.775755	0.229064	0.572447	-1.000000	-1.000000	-1.000000	-1.000000	-1.000000	-1.000000	-1.000000	63.000000	0.000000	-1.000000	-1.000000	992651.000000	1776578385.337656
2955.240000	-31093.380000	14832.405000	67750.830000	25074.675000	3459.510000	-27156.195000	-7163.100000	2.258463	3.947098	4.030908	3.501185	1.852209	-1.482325	1.123916	1.023625	-3.311420	3.570840	-0.396760	-0.775755	0.229064	0.572447	-1.000000	-1.000000	-1.000000	-1.000000	-1.000000	-1.000000	-1.000000	63.000000	0.000000	-1.000000	-1.000000	992652.000000	1776578385.337667
