Channel1	Channel2	Channel3	Channel4	Channel5	Channel6	Channel7	Channel8	FilteredChannel1	FilteredChannel2	FilteredChannel3	FilteredChannel4	FilteredChannel5	FilteredChannel6	FilteredChannel7	FilteredChannel8	GyroX	GyroY	GyroZ	AccX	AccY	AccZ	PPG1	PPG2	rawPPG1	rawPPG2	rawPPG3	Hr	Hrv	Battery	Trigger	PhysicalTrigger	AutoTrigger	NumMeasurements	Timestamp
2852.370000	-27690.255000	15890.535000	67195.980000	23286.645000	4423.995000	-23821.290000	-5425.785000	-2.830934	-2.571308	1.116323	5.180614	-2.081770	34.162612	6.184964	5.344141	-7.126420	3.464020	3.357200	-0.920835	0.273620	0.258666	-1.000000	-1.000000	-1.000000	-1.000000	-1.000000	-1.000000	-1.000000	63.000000	0.000000	-1.000000	-1.000000	1035425.000000	1776578471.102974
2873.430000	-27674.730000	15896.340000	67194.990000	23289.750000	4472.595000	-23809.545000	-5394.195000	-16.990455	-12.711109	-5.055923	0.186055	-0.021793	-11.339998	11.592837	1.445553	-7.126420	3.464020	3.357200	-0.920835	0.273620	0.258666	-1.000000	-1.000000	-1.000000	-1.000000	-1.000000	-1.000000	-1.000000	63.000000	0.000000	-1.000000	-1.000000	1035426.000000	1776578471.102991
2881.035000	-27664.470000	15905.970000	67192.605000	23249.880000	4437.450000	-23832.765000	-5382.135000	-24.126568	-18.803920	-11.714377	-8.448031	2.288696	-49.467972	11.813706	-3.945974	-7.126420	3.464020	3.357200	-0.920835	0.273620	0.258666	-1.000000	-1.000000	-1.000000	-1.000000	-1.000000	-1.000000	-1.000000	63.000000	0.000000	-1.000000	-1.000000	1035427.000000	1776578471.103006
2894.805000	-27655.335000	15917.850000	67206.870000	23214.150000	4367.205000	-23852.430000	-5383.530000	-19.412766	-15.749835	-13.552377	-15.597059	-1.045565	-65.185092	5.440381	-4.671014	-7.126420	3.464020	3.357200	-0.920835	0.273620	0.258666	-1.000000	-1.000000	-1.000000	-1.000000	-1.000000	-1.000000	-1.000000	63.000000	0.000000	-1.000000	-1.000000	1035428.000000	1776578471.103012
2840.625000	-27672.300000	15923.970000	67218.120000	23239.530000	4325.940000	-23845.140000	-5372.640000	-7.364423	-5.637149	-8.695111	-16.008842	-10.055568	-61.308486	-5.211965	-1.092913	-7.126420	3.464020	3.357200	-0.920835	0.273620	0.258666	-1.000000	-1.000000	-1.000000	-1.000000	-1.000000	-1.000000	-1.000000	63.000000	0.000000	-1.000000	-1.000000	1035429.000000	1776578471.103018
2843.280000	-27671.085000	15914.565000	67210.830000	23252.130000	4383.405000	-23818.725000	-5371.785000	2.241171	4.290338	-0.596872	-9.267689	-16.044285	-44.016442	-13.166130	2.657807	-7.126420	3.464020	3.357200	-0.920835	0.273620	0.258666	-1.000000	-1.000000	-1.000000	-1.000000	-1.000000	-1.000000	-1.000000	63.000000	0.000000	-1.000000	-1.000000	1035430.000000	1776578471.103023
2914.110000	-27664.965000	15888.555000	67174.335000	23198.580000	4433.670000	-23815.440000	-5382.855000	6.064026	8.891658	4.776391	-0.811286	-12.455007	-13.618035	-12.189849	3.441319	-4.730600	2.227960	3.494540	-0.924436	0.265075	0.260192	-1.000000	-1.000000	-1.000000	-1.000000	-1.000000	-1.000000	-1.000000	63.000000	0.000000	-1.000000	-1.000000	1035431.000000	1776578471.103028
2921.580000	-27664.965000	15895.575000	67189.905000	23175.405000	4348.620000	-23818.860000	-5378.085000	9.835238	8.444806	4.067662	3.302300	-3.827639	23.924607	-3.593538	0.571025	-4.730600	2.227960	3.494540	-0.924436	0.265075	0.260192	-1.000000	-1.000000	-1.000000	-1.000000	-1.000000	-1.000000	-1.000000	63.000000	0.000000	-1.000000	-1.000000	1035432.000000	1776578471.103033
2861.595000	-27724.095000	15849.180000	67145.625000	23253.345000	4357.665000	-23809.590000	-5405.265000	14.690652	4.574288	-0.966884	2.303423	3.754055	50.123595	5.476102	-4.255498	-4.730600	2.227960	3.494540	-0.924436	0.265075	0.260192	-1.000000	-1.000000	-1.000000	-1.000000	-1.000000	-1.000000	-1.000000	63.000000	0.000000	-1.000000	-1.000000	1035433.000000	1776578471.103039
2856.915000	-27720.315000	15860.070000	67168.305000	23310.450000	4469.670000	-23834.565000	-5409.180000	12.713032	-2.326024	-6.224480	-0.439019	12.887423	53.858871	9.051509	-8.616575	-4.730600	2.227960	3.494540	-0.924436	0.265075	0.260192	-1.000000	-1.000000	-1.000000	-1.000000	-1.000000	-1.000000	-1.000000	63.000000	0.000000	-1.000000	-1.000000	1035434.000000	1776578471.103044
2901.870000	-27654.480000	15908.445000	67212.270000	23324.400000	4449.735000	-23832.675000	-5389.020000	2.023021	-7.855429	-6.685015	-0.003238	25.637141	43.354741	5.706175	-9.831835	-4.730600	2.227960	3.494540	-0.924436	0.265075	0.260192	-1.000000	-1.000000	-1.000000	-1.000000	-1.000000	-1.000000	-1.000000	63.000000	0.000000	-1.000000	-1.000000	1035435.000000	1776578471.103050
2885.310000	-27654.930000	15895.305000	67189.320000	23256.000000	4375.620000	-23817.015000	-5401.845000	-8.017648	-4.443873	1.048486	6.394783	32.395094	26.454717	-1.045525	-5.742134	-4.730600	2.227960	3.494540	-0.924436	0.265075	0.260192	-1.000000	-1.000000	-1.000000	-1.000000	-1.000000	-1.000000	-1.000000	63.000000	0.000000	-1.000000	-1.000000	1035436.000000	1776578471.103055
2850.705000	-27683.865000	15872.625000	67164.660000	23229.450000	4398.660000	-23804.145000	-5418.495000	-11.075010	6.440390	12.043915	13.473614	20.474246	2.038552	-5.068517	1.624837	-4.730600	2.227960	3.494540	-0.924436	0.265075	0.260192	-1.000000	-1.000000	-1.000000	-1.000000	-1.000000	-1.000000	-1.000000	63.000000	0.000000	-1.000000	-1.000000	1035437.000000	1776578471.103061
2885.265000	-27651.690000	15911.010000	67213.350000	23246.145000	4348.935000	-23851.665000	-5392.530000	-9.400149	14.126193	17.050132	13.756513	-7.781122	-25.127335	-4.276768	7.546605	-4.730600	2.227960	3.494540	-0.924436	0.265075	0.260192	-1.000000	-1.000000	-1.000000	-1.000000	-1.000000	-1.000000	-1.000000	63.000000	0.000000	-1.000000	-1.000000	1035438.000000	1776578471.103065
2917.620000	-27624.465000	15933.285000	67228.380000	23225.400000	4320.450000	-23832.090000	-5361.705000	-4.544238	13.395644	14.306000	8.488186	-34.039711	-43.724616	-2.401270	10.894689	-4.730600	2.227960	3.494540	-0.924436	0.265075	0.260192	-1.000000	-1.000000	-1.000000	-1.000000	-1.000000	-1.000000	-1.000000	63.000000	0.000000	-1.000000	-1.000000	1035439.000000	1776578471.103070
2881.575000	-27661.005000	15904.080000	67206.015000	23193.945000	4262.985000	-23800.590000	-5394.870000	3.209321	7.144940	7.893501	2.882529	-42.924993	-47.513636	-1.185591	12.574472	-4.730600	2.227960	3.494540	-0.924436	0.265075	0.260192	-1.000000	-1.000000	-1.000000	-1.000000	-1.000000	-1.000000	-1.000000	63.000000	0.000000	-1.000000	-1.000000	1035440.000000	1776578471.103075
2841.435000	-27699.795000	15874.695000	67180.680000	23234.715000	4278.330000	-23822.595000	-5421.465000	8.095765	-2.796444	-1.115347	-3.104073	-32.782959	-36.817029	1.548366	9.869169	3.280900	1.831200	0.808780	-0.923093	0.252807	0.264404	-1.000000	-1.000000	-1.000000	-1.000000	-1.000000	-1.000000	-1.000000	63.000000	0.000000	-1.000000	-1.000000	1035441.000000	1776578471.103080
2843.595000	-27690.030000	15902.190000	67205.160000	23306.580000	4461.840000	-23856.480000	-5395.185000	4.321010	-15.063379	-12.033569	-10.608787	-8.673107	-11.245298	4.242252	0.999690	3.280900	1.831200	0.808780	-0.923093	0.252807	0.264404	-1.000000	-1.000000	-1.000000	-1.000000	-1.000000	-1.000000	-1.000000	63.000000	0.000000	-1.000000	-1.000000	1035442.000000	1776578471.103084
2869.020000	-27675.045000	15921.180000	67229.415000	23313.735000	4520.385000	-23845.725000	-5382.090000	-4.019921	-22.915773	-18.720784	-15.210864	21.389850	29.312266	2.657623	-8.252040	3.280900	1.831200	0.808780	-0.923093	0.252807	0.264404	-1.000000	-1.000000	-1.000000	-1.000000	-1.000000	-1.000000	-1.000000	63.000000	0.000000	-1.000000	-1.000000	1035443.000000	1776578471.103090
2903.580000	-27667.530000	15898.320000	67208.985000	23303.745000	4496.040000	-23840.055000	-5402.340000	-6.703438	-19.227971	-15.887200	-12.277827	43.290928	69.162126	-1.861709	-11.072832	3.280900	1.831200	0.808780	-0.923093	0.252807	0.264404	-1.000000	-1.000000	-1.000000	-1.000000	-1.000000	-1.000000	-1.000000	63.000000	0.000000	-1.000000	-1.000000	1035444.000000	1776578471.103094
2936.610000	-27633.510000	15904.935000	67204.440000	23272.245000	4424.715000	-23833.440000	-5389.965000	0.983162	-4.684045	-6.703765	-4.594439	43.173374	78.105054	-3.839188	-7.833826	3.280900	1.831200	0.808780	-0.923093	0.252807	0.264404	-1.000000	-1.000000	-1.000000	-1.000000	-1.000000	-1.000000	-1.000000	63.000000	0.000000	-1.000000	-1.000000	1035445.000000	1776578471.103100
2891.385000	-27664.155000	15893.865000	67193.235000	23222.025000	4386.960000	-23817.015000	-5399.100000	12.669216	12.356328	1.852378	1.367535	19.260741	41.219615	-0.844002	-2.843156	3.280900	1.831200	0.808780	-0.923093	0.252807	0.264404	-1.000000	-1.000000	-1.000000	-1.000000	-1.000000	-1.000000	-1.000000	63.000000	0.000000	-1.000000	-1.000000	1035446.000000	1776578471.103104
2873.880000	-27701.055000	15863.895000	67161.420000	23202.180000	4352.040000	-23793.255000	-5404.320000	16.026443	20.750868	5.522907	2.361014	-15.911979	-22.662452	5.272103	0.775386	3.280900	1.831200	0.808780	-0.923093	0.252807	0.264404	-1.000000	-1.000000	-1.000000	-1.000000	-1.000000	-1.000000	-1.000000	63.000000	0.000000	-1.000000	-1.000000	1035447.000000	1776578471.103109
2856.645000	-27696.015000	15877.755000	67182.345000	23173.965000	4305.510000	-23779.440000	-5402.295000	5.517085	14.852559	4.004686	-0.247519	-43.389238	-76.730210	10.951225	1.919303	3.280900	1.831200	0.808780	-0.923093	0.252807	0.264404	-1.000000	-1.000000	-1.000000	-1.000000	-1.000000	-1.000000	-1.000000	63.000000	0.000000	-1.000000	-1.000000	1035448.000000	1776578471.103113
2866.905000	-27676.755000	15906.735000	67222.305000	23192.685000	4252.320000	-23842.665000	-5395.635000	-11.259152	1.141746	1.561126	-1.053219	-48.985418	-94.783494	11.380296	1.616247	3.280900	1.831200	0.808780	-0.923093	0.252807	0.264404	-1.000000	-1.000000	-1.000000	-1.000000	-1.000000	-1.000000	-1.000000	63.000000	0.000000	-1.000000	-1.000000	1035449.000000	1776578471.103119
2868.030000	-27682.965000	15897.735000	67212.540000	23254.065000	4309.740000	-23875.965000	-5400.990000	-21.517207	-8.409039	3.063068	4.223238	-29.548732	-72.596144	2.000586	1.554247	3.280900	1.831200	0.808780	-0.923093	0.252807	0.264404	-1.000000	-1.000000	-1.000000	-1.000000	-1.000000	-1.000000	-1.000000	63.000000	0.000000	-1.000000	-1.000000	1035450.000000	1776578471.103123
2828.025000	-27728.820000	15850.215000	67169.250000	23294.835000	4333.185000	-23841.540000	-5441.445000	-19.523884	-9.490757	6.521845	11.201056	6.846716	-21.359961	-13.860102	1.221136	2.762060	4.440660	1.098720	-0.919920	0.256042	0.264770	-1.000000	-1.000000	-1.000000	-1.000000	-1.000000	-1.000000	-1.000000	63.000000	0.000000	-1.000000	-1.000000	1035451.000000	1776578471.103128
2837.565000	-27721.710000	15856.200000	67172.490000	23253.435000	4377.195000	-23861.790000	-5447.115000	-9.642794	-6.725100	5.544962	11.108406	41.764712	38.162284	-23.897608	-1.419457	2.762060	4.440660	1.098720	-0.919920	0.256042	0.264770	-1.000000	-1.000000	-1.000000	-1.000000	-1.000000	-1.000000	-1.000000	63.000000	0.000000	-1.000000	-1.000000	1035452.000000	1776578471.103132
2922.345000	-27641.970000	15936.750000	67252.545000	23314.140000	4502.070000	-23857.380000	-5384.790000	3.067864	-2.420668	1.014363	4.308437	55.527420	83.275219	-20.067692	-4.241643	2.762060	4.440660	1.098720	-0.919920	0.256042	0.264770	-1.000000	-1.000000	-1.000000	-1.000000	-1.000000	-1.000000	-1.000000	63.000000	0.000000	-1.000000	-1.000000	1035453.000000	1776578471.103137
2887.245000	-27655.650000	15926.085000	67241.385000	23279.535000	4344.030000	-23843.970000	-5402.700000	17.026420	6.095423	0.914861	0.198032	42.687714	96.912862	-5.687900	-1.531350	2.762060	4.440660	1.098720	-0.919920	0.256042	0.264770	-1.000000	-1.000000	-1.000000	-1.000000	-1.000000	-1.000000	-1.000000	63.000000	0.000000	-1.000000	-1.000000	1035454.000000	1776578471.103141
2837.115000	-27701.010000	15876.225000	67186.935000	23222.610000	4284.585000	-23840.235000	-5419.395000	25.418386	15.042025	5.310237	0.999871	11.878464	68.076237	10.832978	5.794978	2.762060	4.440660	1.098720	-0.919920	0.256042	0.264770	-1.000000	-1.000000	-1.000000	-1.000000	-1.000000	-1.000000	-1.000000	63.000000	0.000000	-1.000000	-1.000000	1035455.000000	1776578471.103146
2864.520000	-27698.895000	15869.745000	67181.760000	23220.855000	4408.695000	-23829.300000	-5394.825000	19.553827	14.401536	4.682394	-1.255888	-23.711560	7.099342	21.956050	10.225715	2.762060	4.440660	1.098720	-0.919920	0.256042	0.264770	-1.000000	-1.000000	-1.000000	-1.000000	-1.000000	-1.000000	-1.000000	63.000000	0.000000	-1.000000	-1.000000	1035456.000000	1776578471.103150
2875.860000	-27691.515000	15877.170000	67189.545000	23257.125000	4467.960000	-23786.190000	-5380.245000	3.395706	2.866911	-4.112206	-9.238528	-47.880581	-46.394570	24.418196	8.881724	2.762060	4.440660	1.098720	-0.919920	0.256042	0.264770	-1.000000	-1.000000	-1.000000	-1.000000	-1.000000	-1.000000	-1.000000	63.000000	0.000000	-1.000000	-1.000000	1035457.000000	1776578471.103155
2870.145000	-27704.745000	15863.580000	67176.360000	23258.025000	4395.375000	-23786.505000	-5392.800000	-10.348105	-10.166938	-13.412182	-15.801242	-47.657697	-61.438102	19.867756	4.519200	2.762060	4.440660	1.098720	-0.919920	0.256042	0.264770	-1.000000	-1.000000	-1.000000	-1.000000	-1.000000	-1.000000	-1.000000	63.000000	0.000000	-1.000000	-1.000000	1035458.000000	1776578471.103160
2857.275000	-27707.265000	15867.405000	67183.830000	23218.335000	4212.405000	-23828.850000	-5411.700000	-15.207242	-16.428588	-15.690452	-14.672111	-25.901576	-49.138122	9.875195	-1.272264	2.762060	4.440660	1.098720	-0.919920	0.256042	0.264770	-1.000000	-1.000000	-1.000000	-1.000000	-1.000000	-1.000000	-1.000000	63.000000	0.000000	-1.000000	-1.000000	1035459.000000	1776578471.103165
2838.465000	-27726.795000	15848.505000	67165.785000	23198.535000	4242.870000	-23831.595000	-5426.505000	-13.549242	-14.693812	-10.261515	-6.495523	0.330050	-38.257111	-5.397386	-8.355769	2.762060	4.440660	1.098720	-0.919920	0.256042	0.264770	-1.000000	-1.000000	-1.000000	-1.000000	-1.000000	-1.000000	-1.000000	63.000000	0.000000	-1.000000	-1.000000	1035460.000000	1776578471.103169
2880.495000	-27687.105000	15887.295000	67207.095000	23265.045000	4450.320000	-23828.805000	-5389.470000	-9.022444	-7.529617	-0.713252	4.262861	17.597968	-29.883253	-21.276395	-13.806555	-6.104000	6.210820	5.325740	-0.920774	0.270019	0.259338	-1.000000	-1.000000	-1.000000	-1.000000	-1.000000	-1.000000	-1.000000	63.000000	0.000000	-1.000000	-1.000000	1035461.000000	1776578471.103174
2893.950000	-27668.430000	15907.050000	67225.545000	23254.605000	4418.820000	-23859.405000	-5387.985000	-1.818167	2.949499	9.797113	14.184873	25.597429	-3.298279	-29.553802	-12.541715	-6.104000	6.210820	5.325740	-0.920774	0.270019	0.259338	-1.000000	-1.000000	-1.000000	-1.000000	-1.000000	-1.000000	-1.000000	63.000000	0.000000	-1.000000	-1.000000	1035462.000000	1776578471.103179
2907.495000	-27649.575000	15923.745000	67232.475000	23215.860000	4369.905000	-23876.055000	-5382.990000	7.543233	14.111690	18.621722	20.808911	26.595817	37.277363	-26.972694	-3.942580	-6.104000	6.210820	5.325740	-0.920774	0.270019	0.259338	-1.000000	-1.000000	-1.000000	-1.000000	-1.000000	-1.000000	-1.000000	63.000000	0.000000	-1.000000	-1.000000	1035463.000000	1776578471.103184
2908.215000	-27651.645000	15928.335000	67242.825000	23232.555000	4390.200000	-23862.690000	-5383.620000	14.550231	20.718612	21.766388	20.834195	18.991527	60.714036	-16.126484	6.120938	-6.104000	6.210820	5.325740	-0.920774	0.270019	0.259338	-1.000000	-1.000000	-1.000000	-1.000000	-1.000000	-1.000000	-1.000000	63.000000	0.000000	-1.000000	-1.000000	1035464.000000	1776578471.103188
2892.735000	-27673.695000	15907.050000	67227.885000	23266.935000	4358.025000	-23833.890000	-5392.845000	14.119204	17.672934	15.877106	12.592871	5.897150	50.161168	-0.235857	11.127965	-6.104000	6.210820	5.325740	-0.920774	0.270019	0.259338	-1.000000	-1.000000	-1.000000	-1.000000	-1.000000	-1.000000	-1.000000	63.000000	0.000000	-1.000000	-1.000000	1035465.000000	1776578471.103193
2868.120000	-27697.680000	15877.215000	67196.610000	23261.535000	4403.160000	-23827.455000	-5413.095000	4.980720	4.346861	1.207316	-2.089226	-4.231693	17.099501	17.064854	8.548008	-6.104000	6.210820	5.325740	-0.920774	0.270019	0.259338	-1.000000	-1.000000	-1.000000	-1.000000	-1.000000	-1.000000	-1.000000	63.000000	0.000000	-1.000000	-1.000000	1035466.000000	1776578471.103197
2869.065000	-27689.040000	15887.700000	67207.635000	23226.120000	4435.065000	-23819.130000	-5398.380000	-8.709601	-13.180332	-16.601291	-17.994872	-8.447579	-14.814051	29.496314	0.819558	-6.104000	6.210820	5.325740	-0.920774	0.270019	0.259338	-1.000000	-1.000000	-1.000000	-1.000000	-1.000000	-1.000000	-1.000000	63.000000	0.000000	-1.000000	-1.000000	1035467.000000	1776578471.103202
2878.560000	-27670.410000	15911.145000	67235.130000	23274.810000	4408.695000	-23852.340000	-5383.800000	-18.751593	-24.361557	-27.431395	-26.739840	-9.901693	-29.299872	30.423437	-5.764453	-6.104000	6.210820	5.325740	-0.920774	0.270019	0.259338	-1.000000	-1.000000	-1.000000	-1.000000	-1.000000	-1.000000	-1.000000	63.000000	0.000000	-1.000000	-1.000000	1035468.000000	1776578471.103206
2853.855000	-27700.920000	15883.020000	67217.310000	23272.020000	4387.860000	-23865.705000	-5416.470000	-19.045646	-22.630534	-24.519262	-22.521643	-9.223354	-27.754623	17.805022	-6.744485	-6.104000	6.210820	5.325740	-0.920774	0.270019	0.259338	-1.000000	-1.000000	-1.000000	-1.000000	-1.000000	-1.000000	-1.000000	63.000000	0.000000	-1.000000	-1.000000	1035469.000000	1776578471.103211
2836.845000	-27723.105000	15859.080000	67187.385000	23215.500000	4357.260000	-23863.140000	-5435.955000	-11.220565	-11.869808	-11.970314	-9.497497	-6.504486	-21.146146	-2.456198	-4.402961	-6.104000	6.210820	5.325740	-0.920774	0.270019	0.259338	-1.000000	-1.000000	-1.000000	-1.000000	-1.000000	-1.000000	-1.000000	63.000000	0.000000	-1.000000	-1.000000	1035470.000000	1776578471.103215
2870.460000	-27697.545000	15877.665000	67193.055000	23212.935000	4372.245000	-23859.540000	-5403.330000	-0.825015	-0.341056	0.834736	2.437920	-5.810516	-15.732729	-19.028051	-2.480552	-14.176540	2.975700	10.895640	-0.926633	0.279845	0.258239	-1.000000	-1.000000	-1.000000	-1.000000	-1.000000	-1.000000	-1.000000	63.000000	0.000000	-1.000000	-1.000000	1035471.000000	1776578471.103220
2926.710000	-27650.025000	15915.555000	67231.620000	23222.880000	4370.490000	-23851.845000	-5379.480000	10.240453	9.418742	10.249522	9.158740	-7.900619	-9.740792	-23.487348	0.508419	-14.176540	2.975700	10.895640	-0.926633	0.279845	0.258239	-1.000000	-1.000000	-1.000000	-1.000000	-1.000000	-1.000000	-1.000000	63.000000	0.000000	-1.000000	-1.000000	1035472.000000	1776578471.103225
2919.195000	-27652.320000	15904.845000	67221.360000	23232.960000	4382.010000	-23812.380000	-5378.760000	21.453432	18.565737	17.447983	13.270306	-7.218682	-0.160982	-15.190303	6.656532	-14.176540	2.975700	10.895640	-0.926633	0.279845	0.258239	-1.000000	-1.000000	-1.000000	-1.000000	-1.000000	-1.000000	-1.000000	63.000000	0.000000	-1.000000	-1.000000	1035473.000000	1776578471.103229
2887.740000	-27673.245000	15899.310000	67231.755000	23241.645000	4369.770000	-23807.295000	-5393.655000	26.620335	23.577875	20.643099	15.731937	-0.221036	11.220234	0.321703	12.184222	-14.176540	2.975700	10.895640	-0.926633	0.279845	0.258239	-1.000000	-1.000000	-1.000000	-1.000000	-1.000000	-1.000000	-1.000000	63.000000	0.000000	-1.000000	-1.000000	1035474.000000	1776578471.103234
2849.670000	-27683.865000	15918.750000	67251.690000	23249.610000	4326.705000	-23825.115000	-5391.315000	17.838379	18.315798	16.642599	14.660428	10.019539	18.253844	13.695340	11.288755	-14.176540	2.975700	10.895640	-0.926633	0.279845	0.258239	-1.000000	-1.000000	-1.000000	-1.000000	-1.000000	-1.000000	-1.000000	63.000000	0.000000	-1.000000	-1.000000	1035475.000000	1776578471.103239
2768.850000	-27742.635000	15899.670000	67242.330000	23292.630000	4382.820000	-23853.105000	-5401.485000	-4.673486	2.333435	6.758835	9.693117	18.033605	17.000101	15.976922	3.402412	-14.176540	2.975700	10.895640	-0.926633	0.279845	0.258239	-1.000000	-1.000000	-1.000000	-1.000000	-1.000000	-1.000000	-1.000000	63.000000	0.000000	-1.000000	-1.000000	1035476.000000	1776578471.103243
2845.170000	-27712.980000	15887.925000	67230.090000	23305.590000	4452.210000	-23826.330000	-5394.555000	-28.991447	-16.900661	-4.897098	1.695021	20.860905	12.687059	6.254257	-6.485358	-14.176540	2.975700	10.895640	-0.926633	0.279845	0.258239	-1.000000	-1.000000	-1.000000	-1.000000	-1.000000	-1.000000	-1.000000	63.000000	0.000000	-1.000000	-1.000000	1035477.000000	1776578471.103248
2943.405000	-27652.905000	15884.505000	67210.560000	23278.590000	4415.085000	-23834.070000	-5388.435000	-35.352965	-26.541325	-14.575459	-8.139875	16.933355	12.315892	-6.637511	-12.401618	-14.176540	2.975700	10.895640	-0.926633	0.279845	0.258239	-1.000000	-1.000000	-1.000000	-1.000000	-1.000000	-1.000000	-1.000000	63.000000	0.000000	-1.000000	-1.000000	1035478.000000	1776578471.103252
2911.095000	-27668.565000	15874.785000	67200.570000	23250.825000	4426.515000	-23820.795000	-5385.825000	-14.205384	-18.075896	-18.927188	-16.954690	4.580854	12.316409	-13.138955	-11.466417	-14.176540	2.975700	10.895640	-0.926633	0.279845	0.258239	-1.000000	-1.000000	-1.000000	-1.000000	-1.000000	-1.000000	-1.000000	63.000000	0.000000	-1.000000	-1.000000	1035479.000000	1776578471.103257
2891.610000	-27678.870000	15881.220000	67214.430000	23224.860000	4392.990000	-23834.700000	-5397.570000	17.656228	1.374610	-16.261841	-20.355566	-13.896142	4.843903	-11.024346	-5.634034	-14.176540	2.975700	10.895640	-0.926633	0.279845	0.258239	-1.000000	-1.000000	-1.000000	-1.000000	-1.000000	-1.000000	-1.000000	63.000000	0.000000	-1.000000	-1.000000	1035480.000000	1776578471.103261
2873.385000	-27690.615000	15867.945000	67197.285000	23228.955000	4364.145000	-23857.065000	-5419.800000	33.445777	15.672462	-7.997693	-15.508040	-29.864663	-10.533757	-4.823929	0.019526	-15.702540	0.900340	8.286180	-0.927366	0.271789	0.262328	-1.000000	-1.000000	-1.000000	-1.000000	-1.000000	-1.000000	-1.000000	63.000000	0.000000	-1.000000	-1.000000	1035481.000000	1776578471.103266
2855.565000	-27699.345000	15868.620000	67194.405000	23207.985000	4375.395000	-23862.555000	-5449.770000	23.714758	16.131807	1.860853	-4.720410	-33.898516	-26.306189	-0.312001	1.274710	-15.702540	0.900340	8.286180	-0.927366	0.271789	0.262328	-1.000000	-1.000000	-1.000000	-1.000000	-1.000000	-1.000000	-1.000000	63.000000	0.000000	-1.000000	-1.000000	1035482.000000	1776578471.103270
2893.275000	-27673.965000	15897.555000	67225.905000	23181.390000	4281.120000	-23879.070000	-5452.155000	0.302084	6.644714	9.777984	6.841631	-24.062247	-33.876114	0.659232	-1.780537	-15.702540	0.900340	8.286180	-0.927366	0.271789	0.262328	-1.000000	-1.000000	-1.000000	-1.000000	-1.000000	-1.000000	-1.000000	63.000000	0.000000	-1.000000	-1.000000	1035483.000000	1776578471.105832
2909.655000	-27656.820000	15911.955000	67239.720000	23219.370000	4239.630000	-23882.490000	-5429.790000	-17.547656	-2.619882	15.035375	16.111747	-6.011866	-31.750586	0.099801	-4.172163	-15.702540	0.900340	8.286180	-0.927366	0.271789	0.262328	-1.000000	-1.000000	-1.000000	-1.000000	-1.000000	-1.000000	-1.000000	63.000000	0.000000	-1.000000	-1.000000	1035484.000000	1776578471.105854
2902.725000	-27657.540000	15924.285000	67269.735000	23334.795000	4488.075000	-23812.695000	-5387.940000	-19.508001	-5.006359	17.441607	21.660731	15.747636	-18.257286	1.879988	0.015734	-15.702540	0.900340	8.286180	-0.927366	0.271789	0.262328	-1.000000	-1.000000	-1.000000	-1.000000	-1.000000	-1.000000	-1.000000	63.000000	0.000000	-1.000000	-1.000000	1035485.000000	1776578471.108279
2945.520000	-27633.510000	15947.685000	67299.030000	23374.530000	4527.720000	-23759.640000	-5333.085000	-9.316723	-1.717208	15.761263	22.151160	39.007243	14.456203	10.020099	11.974286	-15.702540	0.900340	8.286180	-0.927366	0.271789	0.262328	-1.000000	-1.000000	-1.000000	-1.000000	-1.000000	-1.000000	-1.000000	63.000000	0.000000	-1.000000	-1.000000	1035486.000000	1776578471.108309
2897.280000	-27655.650000	15906.915000	67246.245000	23293.530000	4417.560000	-23788.080000	-5344.650000	2.933017	2.110355	8.903997	15.933047	53.166529	55.310653	21.824241	25.228301	-15.702540	0.900340	8.286180	-0.927366	0.271789	0.262328	-1.000000	-1.000000	-1.000000	-1.000000	-1.000000	-1.000000	-1.000000	63.000000	0.000000	-1.000000	-1.000000	1035487.000000	1776578471.112411
2855.835000	-27673.470000	15899.085000	67235.580000	23192.865000	4276.305000	-23818.320000	-5376.465000	7.370965	1.752381	-3.297361	1.337093	40.356937	66.802585	25.163457	28.026284	-15.702540	0.900340	8.286180	-0.927366	0.271789	0.262328	-1.000000	-1.000000	-1.000000	-1.000000	-1.000000	-1.000000	-1.000000	63.000000	0.000000	-1.000000	-1.000000	1035488.000000	1776578471.112425
2876.895000	-27688.095000	15900.120000	67229.505000	23212.260000	4306.230000	-23824.710000	-5392.170000	0.757186	-4.126103	-17.262016	-18.015392	-1.617841	29.304151	11.414624	13.210949	-15.702540	0.900340	8.286180	-0.927366	0.271789	0.262328	-1.000000	-1.000000	-1.000000	-1.000000	-1.000000	-1.000000	-1.000000	63.000000	0.000000	-1.000000	-1.000000	1035489.000000	1776578471.116383
2875.770000	-27715.005000	15865.560000	67200.210000	23206.230000	4279.995000	-23791.815000	-5400.000000	-8.808178	-11.996234	-25.988543	-32.318180	-47.252300	-29.891468	-12.050531	-12.789425	-15.702540	0.900340	8.286180	-0.927366	0.271789	0.262328	-1.000000	-1.000000	-1.000000	-1.000000	-1.000000	-1.000000	-1.000000	63.000000	0.000000	-1.000000	-1.000000	1035490.000000	1776578471.116388
2891.160000	-27687.870000	15868.395000	67201.920000	23226.705000	4259.160000	-23824.305000	-5388.975000	-10.720381	-15.855555	-25.347251	-34.062342	-65.672303	-67.286492	-29.205284	-34.152362	-1.968540	-1.358140	3.952340	-0.922239	0.256957	0.268981	-1.000000	-1.000000	-1.000000	-1.000000	-1.000000	-1.000000	-1.000000	63.000000	0.000000	-1.000000	-1.000000	1035491.000000	1776578471.122039
2912.580000	-27638.820000	15914.430000	67248.585000	23312.475000	4485.645000	-23858.415000	-5377.185000	-2.558613	-10.202395	-15.108610	-21.841843	-46.396668	-59.690732	-32.343962	-38.266234	-1.968540	-1.358140	3.952340	-0.922239	0.256957	0.268981	-1.000000	-1.000000	-1.000000	-1.000000	-1.000000	-1.000000	-1.000000	63.000000	0.000000	-1.000000	-1.000000	1035492.000000	1776578471.122052
2903.760000	-27658.620000	15905.880000	67239.810000	23260.005000	4418.145000	-23814.405000	-5377.140000	9.908073	4.899351	2.513780	0.485978	-3.101509	-11.652321	-24.262845	-24.214290	-1.968540	-1.358140	3.952340	-0.922239	0.256957	0.268981	-1.000000	-1.000000	-1.000000	-1.000000	-1.000000	-1.000000	-1.000000	63.000000	0.000000	-1.000000	-1.000000	1035493.000000	1776578471.124410
2889.180000	-27674.640000	15889.095000	67222.395000	23215.995000	4328.775000	-23781.330000	-5390.325000	17.641935	19.650960	19.749263	22.386867	35.226119	42.508159	-8.245521	-2.068244	-1.968540	-1.358140	3.952340	-0.922239	0.256957	0.268981	-1.000000	-1.000000	-1.000000	-1.000000	-1.000000	-1.000000	-1.000000	63.000000	0.000000	-1.000000	-1.000000	1035494.000000	1776578471.124450
2861.820000	-27689.940000	15880.410000	67227.120000	23279.175000	4369.545000	-23802.120000	-5415.120000	14.534440	22.448742	26.410737	31.896791	46.240039	61.533115	11.690915	14.996170	-1.968540	-1.358140	3.952340	-0.922239	0.256957	0.268981	-1.000000	-1.000000	-1.000000	-1.000000	-1.000000	-1.000000	-1.000000	63.000000	0.000000	-1.000000	-1.000000	1035495.000000	1776578471.179168
2853.630000	-27701.775000	15866.145000	67211.145000	23266.125000	4394.970000	-23846.445000	-5419.440000	2.130222	11.621949	19.397699	25.754192	32.784098	39.399572	25.239404	19.653545	-1.968540	-1.358140	3.952340	-0.922239	0.256957	0.268981	-1.000000	-1.000000	-1.000000	-1.000000	-1.000000	-1.000000	-1.000000	63.000000	0.000000	-1.000000	-1.000000	1035496.000000	1776578471.179183
2888.325000	-27670.005000	15896.835000	67241.520000	23301.045000	4442.085000	-23848.920000	-5383.980000	-10.731184	-3.854351	5.286805	10.741793	11.890764	3.713781	23.250726	14.764313	-1.968540	-1.358140	3.952340	-0.922239	0.256957	0.268981	-1.000000	-1.000000	-1.000000	-1.000000	-1.000000	-1.000000	-1.000000	63.000000	0.000000	-1.000000	-1.000000	1035497.000000	1776578471.179202
2893.680000	-27668.205000	15902.235000	67246.155000	23237.325000	4275.270000	-23821.560000	-5385.465000	-14.320079	-12.700321	-5.656039	-2.864254	-5.197286	-22.540689	9.365235	8.919700	-1.968540	-1.358140	3.952340	-0.922239	0.256957	0.268981	-1.000000	-1.000000	-1.000000	-1.000000	-1.000000	-1.000000	-1.000000	63.000000	0.000000	-1.000000	-1.000000	1035498.000000	1776578471.179208
2855.475000	-27711.180000	15862.050000	67208.760000	23219.685000	4257.855000	-23846.670000	-5421.330000	-7.667996	-11.617407	-8.862695	-9.690487	-17.365399	-38.512274	-3.958748	5.969040	-1.968540	-1.358140	3.952340	-0.922239	0.256957	0.268981	-1.000000	-1.000000	-1.000000	-1.000000	-1.000000	-1.000000	-1.000000	63.000000	0.000000	-1.000000	-1.000000	1035499.000000	1776578471.179215
2867.490000	-27680.220000	15900.570000	67254.885000	23270.490000	4460.130000	-23840.775000	-5397.120000	0.957118	-6.209912	-7.538235	-11.204552	-24.560545	-43.331120	-9.268681	3.068051	-1.968540	-1.358140	3.952340	-0.922239	0.256957	0.268981	-1.000000	-1.000000	-1.000000	-1.000000	-1.000000	-1.000000	-1.000000	63.000000	0.000000	-1.000000	-1.000000	1035500.000000	1776578471.179220
2874.330000	-27677.835000	15893.730000	67237.695000	23251.185000	4418.370000	-23792.895000	-5387.715000	5.223440	-1.026633	-4.744104	-9.281668	-22.315930	-24.849547	-6.621979	-0.762800	7.889420	-1.770160	2.578940	-0.920652	0.252502	0.271484	-1.000000	-1.000000	-1.000000	-1.000000	-1.000000	-1.000000	-1.000000	63.000000	0.000000	-1.000000	-1.000000	1035501.000000	1776578471.179227
2892.105000	-27683.100000	15880.905000	67215.420000	23153.535000	4250.475000	-23812.425000	-5388.480000	6.068008	3.433078	-1.387713	-5.531450	-12.107100	8.912782	1.239445	-2.910075	7.889420	-1.770160	2.578940	-0.920652	0.252502	0.271484	-1.000000	-1.000000	-1.000000	-1.000000	-1.000000	-1.000000	-1.000000	63.000000	0.000000	-1.000000	-1.000000	1035502.000000	1776578471.179233
2913.840000	-27659.205000	15910.515000	67238.685000	23135.535000	4207.680000	-23868.675000	-5368.230000	6.637661	6.484329	1.025863	-2.891887	-4.551958	25.380436	7.470943	-2.453947	7.889420	-1.770160	2.578940	-0.920652	0.252502	0.271484	-1.000000	-1.000000	-1.000000	-1.000000	-1.000000	-1.000000	-1.000000	63.000000	0.000000	-1.000000	-1.000000	1035503.000000	1776578471.179239
2922.570000	-27639.945000	15918.120000	67249.980000	23312.385000	4453.695000	-23839.065000	-5358.870000	7.777940	7.839255	2.543116	-1.223504	-0.632623	16.135498	4.972307	-0.533798	7.889420	-1.770160	2.578940	-0.920652	0.252502	0.271484	-1.000000	-1.000000	-1.000000	-1.000000	-1.000000	-1.000000	-1.000000	63.000000	0.000000	-1.000000	-1.000000	1035504.000000	1776578471.179244
2927.655000	-27636.165000	15916.185000	67260.870000	23365.035000	4531.905000	-23813.280000	-5365.395000	7.602826	7.969170	3.946635	1.861358	13.032810	11.062925	-2.971390	1.077909	7.889420	-1.770160	2.578940	-0.920652	0.252502	0.271484	-1.000000	-1.000000	-1.000000	-1.000000	-1.000000	-1.000000	-1.000000	63.000000	0.000000	-1.000000	-1.000000	1035505.000000	1776578471.179250
2907.135000	-27664.875000	15898.230000	67245.705000	23329.935000	4463.460000	-23844.645000	-5382.180000	3.535114	5.467382	3.588339	5.560325	37.024397	26.890308	-7.200228	0.009372	7.889420	-1.770160	2.578940	-0.920652	0.252502	0.271484	-1.000000	-1.000000	-1.000000	-1.000000	-1.000000	-1.000000	-1.000000	63.000000	0.000000	-1.000000	-1.000000	1035506.000000	1776578471.179255
2894.220000	-27683.640000	15884.235000	67234.410000	23278.680000	4444.380000	-23852.205000	-5393.340000	-4.982723	-1.833488	-0.527137	6.167620	48.241424	39.889120	-5.969841	-4.702274	7.889420	-1.770160	2.578940	-0.920652	0.252502	0.271484	-1.000000	-1.000000	-1.000000	-1.000000	-1.000000	-1.000000	-1.000000	63.000000	0.000000	-1.000000	-1.000000	1035507.000000	1776578471.179262
2883.330000	-27686.025000	15888.870000	67245.570000	23287.950000	4430.835000	-23836.095000	-5403.780000	-14.854795	-12.127322	-6.900313	2.220823	28.964542	24.488183	-3.202062	-10.634728	7.889420	-1.770160	2.578940	-0.920652	0.252502	0.271484	-1.000000	-1.000000	-1.000000	-1.000000	-1.000000	-1.000000	-1.000000	63.000000	0.000000	-1.000000	-1.000000	1035508.000000	1776578471.179265
2871.135000	-27693.045000	15886.710000	67247.595000	23278.995000	4405.365000	-23800.725000	-5403.645000	-20.722667	-19.067373	-10.842741	-2.971738	-10.436978	-13.874276	0.336140	-13.444862	7.889420	-1.770160	2.578940	-0.920652	0.252502	0.271484	-1.000000	-1.000000	-1.000000	-1.000000	-1.000000	-1.000000	-1.000000	63.000000	0.000000	-1.000000	-1.000000	1035509.000000	1776578471.179270
2860.020000	-27694.125000	15890.130000	67257.810000	23259.510000	4359.510000	-23803.290000	-5409.090000	-19.054205	-17.535353	-8.976313	-5.089114	-44.542121	-51.111824	5.732336	-10.357298	7.889420	-1.770160	2.578940	-0.920652	0.252502	0.271484	-1.000000	-1.000000	-1.000000	-1.000000	-1.000000	-1.000000	-1.000000	63.000000	0.000000	-1.000000	-1.000000	1035510.000000	1776578471.179273
2881.485000	-27678.780000	15903.405000	67261.410000	23261.580000	4343.580000	-23822.955000	-5398.065000	-9.983601	-7.733035	-2.017075	-3.051097	-56.103491	-67.639254	10.024391	-2.139715	1.754900	0.488320	4.227020	-0.919858	0.266479	0.264465	-1.000000	-1.000000	-1.000000	-1.000000	-1.000000	-1.000000	-1.000000	63.000000	0.000000	-1.000000	-1.000000	1035511.000000	1776578471.179278
2897.280000	-27676.755000	15894.045000	67244.805000	23232.015000	4317.885000	-23824.620000	-5393.475000	3.966134	5.920347	6.324423	0.615516	-43.925856	-57.422389	8.157990	7.822112	1.754900	0.488320	4.227020	-0.919858	0.266479	0.264465	-1.000000	-1.000000	-1.000000	-1.000000	-1.000000	-1.000000	-1.000000	63.000000	0.000000	-1.000000	-1.000000	1035512.000000	1776578471.179282
2894.715000	-27672.480000	15893.055000	67240.530000	23251.005000	4407.075000	-23800.680000	-5383.710000	17.949618	17.236739	11.435194	2.175505	-17.915525	-25.249776	0.564840	15.524101	1.754900	0.488320	4.227020	-0.919858	0.266479	0.264465	-1.000000	-1.000000	-1.000000	-1.000000	-1.000000	-1.000000	-1.000000	63.000000	0.000000	-1.000000	-1.000000	1035513.000000	1776578471.179287
2919.195000	-27651.735000	15915.105000	67268.880000	23244.120000	4436.910000	-23813.730000	-5370.300000	25.795830	21.556531	11.140287	0.955485	9.635812	18.530055	-6.680076	18.157150	1.754900	0.488320	4.227020	-0.919858	0.266479	0.264465	-1.000000	-1.000000	-1.000000	-1.000000	-1.000000	-1.000000	-1.000000	63.000000	0.000000	-1.000000	-1.000000	1035514.000000	1776578471.179291
2924.505000	-27655.920000	15910.605000	67268.970000	23306.490000	4421.835000	-23829.165000	-5374.395000	24.384081	18.286144	7.331407	0.120842	30.516735	57.430068	-9.724921	15.066694	1.754900	0.488320	4.227020	-0.919858	0.266479	0.264465	-1.000000	-1.000000	-1.000000	-1.000000	-1.000000	-1.000000	-1.000000	63.000000	0.000000	-1.000000	-1.000000	1035515.000000	1776578471.179297
2919.735000	-27666.855000	15895.980000	67256.910000	23307.705000	4413.465000	-23821.380000	-5377.770000	15.016343	9.335516	2.312302	1.211918	41.490370	72.066966	-9.369579	7.210257	1.754900	0.488320	4.227020	-0.919858	0.266479	0.264465	-1.000000	-1.000000	-1.000000	-1.000000	-1.000000	-1.000000	-1.000000	63.000000	0.000000	-1.000000	-1.000000	1035516.000000	1776578471.179301
2911.455000	-27673.110000	15888.690000	67245.795000	23242.050000	4383.045000	-23824.890000	-5388.120000	1.063821	-2.617895	-3.479931	1.670005	39.530276	54.398878	-6.749885	-3.192549	1.754900	0.488320	4.227020	-0.919858	0.266479	0.264465	-1.000000	-1.000000	-1.000000	-1.000000	-1.000000	-1.000000	-1.000000	63.000000	0.000000	-1.000000	-1.000000	1035517.000000	1776578471.179307
2931.570000	-27645.885000	15917.355000	67271.895000	23250.195000	4350.105000	-23838.165000	-5378.040000	-12.520828	-12.982714	-8.399590	-0.097119	21.887620	14.539890	-2.553198	-12.416679	1.754900	0.488320	4.227020	-0.919858	0.266479	0.264465	-1.000000	-1.000000	-1.000000	-1.000000	-1.000000	-1.000000	-1.000000	63.000000	0.000000	-1.000000	-1.000000	1035518.000000	1776578471.179311
2899.305000	-27668.520000	15899.130000	67260.735000	23267.835000	4376.295000	-23824.125000	-5386.185000	-20.581733	-16.873899	-9.239551	-1.876620	-4.393334	-26.468575	1.747622	-16.560919	1.754900	0.488320	4.227020	-0.919858	0.266479	0.264465	-1.000000	-1.000000	-1.000000	-1.000000	-1.000000	-1.000000	-1.000000	63.000000	0.000000	-1.000000	-1.000000	1035519.000000	1776578471.179316
2874.465000	-27694.575000	15878.565000	67247.325000	23255.730000	4387.365000	-23817.735000	-5395.815000	-22.029011	-14.457991	-6.273749	-2.097292	-24.175379	-48.235692	5.403963	-14.546793	1.754900	0.488320	4.227020	-0.919858	0.266479	0.264465	-1.000000	-1.000000	-1.000000	-1.000000	-1.000000	-1.000000	-1.000000	63.000000	0.000000	-1.000000	-1.000000	1035520.000000	1776578471.179320
2857.680000	-27715.770000	15865.650000	67231.125000	23268.195000	4387.635000	-23827.005000	-5411.520000	-19.357717	-10.478817	-3.514282	-2.327077	-28.631135	-43.117704	8.101325	-8.965610	-9.720620	1.815940	5.997180	-0.917600	0.278259	0.257995	-1.000000	-1.000000	-1.000000	-1.000000	-1.000000	-1.000000	-1.000000	63.000000	0.000000	-1.000000	-1.000000	1035521.000000	1776578471.180432
2835.270000	-27726.795000	15867.135000	67238.280000	23279.760000	4405.545000	-23814.360000	-5422.680000	-14.093928	-7.663287	-2.745575	-3.499979	-19.724017	-19.821476	8.625890	-3.290404	-9.720620	1.815940	5.997180	-0.917600	0.278259	0.257995	-1.000000	-1.000000	-1.000000	-1.000000	-1.000000	-1.000000	-1.000000	63.000000	0.000000	-1.000000	-1.000000	1035522.000000	1776578471.180443
2860.695000	-27713.790000	15870.555000	67247.235000	23262.390000	4414.905000	-23801.715000	-5406.120000	-5.736017	-4.217919	-1.748516	-3.545312	-5.146630	6.134419	6.773808	1.261513	-9.720620	1.815940	5.997180	-0.917600	0.278259	0.257995	-1.000000	-1.000000	-1.000000	-1.000000	-1.000000	-1.000000	-1.000000	63.000000	0.000000	-1.000000	-1.000000	1035523.000000	1776578471.184387
2897.325000	-27690.030000	15862.950000	67224.735000	23230.485000	4394.295000	-23819.805000	-5395.680000	6.829153	2.933399	1.523671	-0.798249	5.815619	22.362747	3.633093	5.967396	-9.720620	1.815940	5.997180	-0.917600	0.278259	0.257995	-1.000000	-1.000000	-1.000000	-1.000000	-1.000000	-1.000000	-1.000000	63.000000	0.000000	-1.000000	-1.000000	1035524.000000	1776578471.184396
2908.530000	-27659.205000	15888.645000	67248.180000	23267.610000	4389.165000	-23829.345000	-5382.315000	22.020767	13.976680	6.390612	3.211897	8.266502	23.350790	-0.764512	11.456149	-9.720620	1.815940	5.997180	-0.917600	0.278259	0.257995	-1.000000	-1.000000	-1.000000	-1.000000	-1.000000	-1.000000	-1.000000	63.000000	0.000000	-1.000000	-1.000000	1035525.000000	1776578471.188425
2896.110000	-27665.280000	15904.755000	67273.020000	23285.070000	4386.555000	-23834.520000	-5391.540000	32.596012	24.173005	11.210524	6.938047	6.188364	12.051044	-6.269723	15.299062	-9.720620	1.815940	5.997180	-0.917600	0.278259	0.257995	-1.000000	-1.000000	-1.000000	-1.000000	-1.000000	-1.000000	-1.000000	63.000000	0.000000	-1.000000	-1.000000	1035526.000000	1776578471.188437
2904.300000	-27665.775000	15903.090000	67268.070000	23236.335000	4367.520000	-23827.995000	-5393.115000	30.537410	26.181012	14.076210	10.078816	4.957047	-2.793525	-10.334841	13.875257	-9.720620	1.815940	5.997180	-0.917600	0.278259	0.257995	-1.000000	-1.000000	-1.000000	-1.000000	-1.000000	-1.000000	-1.000000	63.000000	0.000000	-1.000000	-1.000000	1035527.000000	1776578471.192414
2903.715000	-27645.930000	15916.410000	67274.955000	23206.365000	4301.685000	-23815.305000	-5395.320000	15.596443	16.875436	12.521069	10.689791	2.679588	-14.398587	-9.688424	6.426288	-9.720620	1.815940	5.997180	-0.917600	0.278259	0.257995	-1.000000	-1.000000	-1.000000	-1.000000	-1.000000	-1.000000	-1.000000	63.000000	0.000000	-1.000000	-1.000000	1035528.000000	1776578471.192430
2869.560000	-27670.005000	15902.910000	67266.900000	23197.860000	4247.865000	-23827.860000	-5413.725000	-4.945547	0.679048	5.732110	6.561236	-3.696303	-21.738061	-4.039004	-3.879863	-9.720620	1.815940	5.997180	-0.917600	0.278259	0.257995	-1.000000	-1.000000	-1.000000	-1.000000	-1.000000	-1.000000	-1.000000	63.000000	0.000000	-1.000000	-1.000000	1035529.000000	1776578471.196503
2840.715000	-27692.190000	15889.950000	67261.230000	23214.870000	4269.780000	-23819.445000	-5412.780000	-23.335329	-15.656239	-4.490842	-1.556978	-9.997059	-23.871779	2.962574	-12.604898	-9.720620	1.815940	5.997180	-0.917600	0.278259	0.257995	-1.000000	-1.000000	-1.000000	-1.000000	-1.000000	-1.000000	-1.000000	63.000000	0.000000	-1.000000	-1.000000	1035530.000000	1776578471.196545
2879.415000	-27691.650000	15879.150000	67255.245000	23230.665000	4346.640000	-23810.670000	-5387.940000	-33.139620	-26.997372	-14.734419	-10.244207	-8.956723	-14.657489	7.498117	-15.660757	-5.875100	1.495480	2.639980	-0.919187	0.271117	0.262023	-1.000000	-1.000000	-1.000000	-1.000000	-1.000000	-1.000000	-1.000000	63.000000	0.000000	-1.000000	-1.000000	1035531.000000	1776578471.200397
2924.235000	-27681.480000	15871.770000	67244.895000	23257.845000	4329.630000	-23816.205000	-5376.960000	-28.104273	-28.920288	-20.805339	-15.623023	1.187815	8.751772	8.446529	-10.680102	-5.875100	1.495480	2.639980	-0.919187	0.271117	0.262023	-1.000000	-1.000000	-1.000000	-1.000000	-1.000000	-1.000000	-1.000000	63.000000	0.000000	-1.000000	-1.000000	1035532.000000	1776578471.200408
2925.810000	-27679.320000	15866.730000	67232.700000	23233.455000	4342.635000	-23854.185000	-5378.805000	-8.267055	-19.670892	-19.717194	-15.705236	14.105890	34.855603	5.473400	-0.221069	-5.875100	1.495480	2.639980	-0.919187	0.271117	0.262023	-1.000000	-1.000000	-1.000000	-1.000000	-1.000000	-1.000000	-1.000000	63.000000	0.000000	-1.000000	-1.000000	1035533.000000	1776578471.204307
2929.230000	-27657.720000	15900.210000	67272.030000	23276.070000	4424.535000	-23862.555000	-5364.675000	14.968671	-3.029080	-11.084800	-10.282351	20.752027	47.674858	-1.525548	9.091073	-5.875100	1.495480	2.639980	-0.919187	0.271117	0.262023	-1.000000	-1.000000	-1.000000	-1.000000	-1.000000	-1.000000	-1.000000	63.000000	0.000000	-1.000000	-1.000000	1035534.000000	1776578471.204321
2905.245000	-27672.030000	15899.580000	67283.730000	23361.075000	4492.845000	-23828.535000	-5376.690000	26.837050	13.348143	2.754490	0.228960	19.262191	43.946788	-8.725230	12.103368	-5.875100	1.495480	2.639980	-0.919187	0.271117	0.262023	-1.000000	-1.000000	-1.000000	-1.000000	-1.000000	-1.000000	-1.000000	63.000000	0.000000	-1.000000	-1.000000	1035535.000000	1776578471.273535
2873.385000	-27698.805000	15887.070000	67277.475000	23324.895000	4388.715000	-23814.900000	-5388.435000	20.725972	21.454791	15.754576	12.304014	14.274217	27.604844	-9.197343	7.794729	-5.875100	1.495480	2.639980	-0.919187	0.271117	0.262023	-1.000000	-1.000000	-1.000000	-1.000000	-1.000000	-1.000000	-1.000000	63.000000	0.000000	-1.000000	-1.000000	1035536.000000	1776578471.273550
2808.630000	-27747.540000	15866.370000	67254.660000	23252.805000	4251.330000	-23821.290000	-5403.240000	0.744747	16.702688	20.318270	18.544701	4.582356	-3.700833	-1.338596	-1.401064	-5.875100	1.495480	2.639980	-0.919187	0.271117	0.262023	-1.000000	-1.000000	-1.000000	-1.000000	-1.000000	-1.000000	-1.000000	63.000000	0.000000	-1.000000	-1.000000	1035537.000000	1776578471.273564
2814.030000	-27751.005000	15842.070000	67220.460000	23217.525000	4313.925000	-23839.470000	-5434.425000	-21.649099	2.018585	13.500062	13.543271	-14.863130	-46.519740	7.789243	-11.066099	-5.875100	1.495480	2.639980	-0.919187	0.271117	0.262023	-1.000000	-1.000000	-1.000000	-1.000000	-1.000000	-1.000000	-1.000000	63.000000	0.000000	-1.000000	-1.000000	1035538.000000	1776578471.273569
2924.640000	-27684.585000	15848.235000	67213.305000	23222.295000	4353.840000	-23841.720000	-5418.990000	-30.553584	-11.029389	0.085025	-0.439466	-37.811148	-75.735628	10.210136	-16.549306	-5.875100	1.495480	2.639980	-0.919187	0.271117	0.262023	-1.000000	-1.000000	-1.000000	-1.000000	-1.000000	-1.000000	-1.000000	63.000000	0.000000	-1.000000	-1.000000	1035539.000000	1776578471.273574
2942.910000	-27646.605000	15884.280000	67246.335000	23226.435000	4376.520000	-23810.445000	-5377.680000	-14.869836	-9.773405	-10.072884	-13.558600	-47.724004	-66.093783	5.579403	-13.422773	-5.875100	1.495480	2.639980	-0.919187	0.271117	0.262023	-1.000000	-1.000000	-1.000000	-1.000000	-1.000000	-1.000000	-1.000000	63.000000	0.000000	-1.000000	-1.000000	1035540.000000	1776578471.273578
2926.575000	-27665.460000	15887.925000	67258.980000	23303.835000	4466.070000	-23797.620000	-5364.495000	16.453903	5.601186	-9.482231	-15.458153	-33.539012	-20.729567	0.306122	-0.376740	1.739640	1.113980	-0.763000	-0.918455	0.260009	0.266235	-1.000000	-1.000000	-1.000000	-1.000000	-1.000000	-1.000000	-1.000000	63.000000	0.000000	-1.000000	-1.000000	1035541.000000	1776578471.273582
2924.415000	-27660.915000	15896.925000	67273.335000	23326.560000	4457.340000	-23820.795000	-5370.030000	38.748621	20.293559	-0.014717	-4.778701	0.886887	33.785945	-1.426256	15.987856	1.739640	1.113980	-0.763000	-0.918455	0.260009	0.266235	-1.000000	-1.000000	-1.000000	-1.000000	-1.000000	-1.000000	-1.000000	63.000000	0.000000	-1.000000	-1.000000	1035542.000000	1776578471.273587
2907.855000	-27673.605000	15885.855000	67265.910000	23296.545000	4414.050000	-23787.540000	-5382.540000	35.862524	20.834783	9.301431	9.691924	37.055135	66.571072	-1.340681	24.361103	1.739640	1.113980	-0.763000	-0.918455	0.260009	0.266235	-1.000000	-1.000000	-1.000000	-1.000000	-1.000000	-1.000000	-1.000000	63.000000	0.000000	-1.000000	-1.000000	1035543.000000	1776578471.273591
2893.995000	-27686.205000	15873.660000	67251.060000	23252.265000	4376.385000	-23805.045000	-5397.615000	11.856643	6.781323	10.772623	17.045979	51.996093	59.581930	-1.653566	18.579058	1.739640	1.113980	-0.763000	-0.918455	0.260009	0.266235	-1.000000	-1.000000	-1.000000	-1.000000	-1.000000	-1.000000	-1.000000	63.000000	0.000000	-1.000000	-1.000000	1035544.000000	1776578471.273595
2905.245000	-27672.480000	15887.520000	67261.995000	23256.585000	4330.800000	-23838.705000	-5392.305000	-16.794274	-12.102210	3.826071	12.851984	36.804707	19.570825	-3.444454	2.665245	1.739640	1.113980	-0.763000	-0.918455	0.260009	0.266235	-1.000000	-1.000000	-1.000000	-1.000000	-1.000000	-1.000000	-1.000000	63.000000	0.000000	-1.000000	-1.000000	1035545.000000	1776578471.273600
2887.155000	-27684.090000	15878.610000	67252.905000	23239.305000	4283.505000	-23832.135000	-5411.115000	-34.073186	-24.333862	-5.622982	1.541001	4.356960	-28.207261	-7.444497	-13.284686	1.739640	1.113980	-0.763000	-0.918455	0.260009	0.266235	-1.000000	-1.000000	-1.000000	-1.000000	-1.000000	-1.000000	-1.000000	63.000000	0.000000	-1.000000	-1.000000	1035546.000000	1776578471.273604
2884.320000	-27684.900000	15882.120000	67260.105000	23220.720000	4392.720000	-23829.120000	-5413.095000	-33.937882	-24.560860	-11.324864	-8.944779	-24.141019	-56.044230	-10.852880	-21.273239	1.739640	1.113980	-0.763000	-0.918455	0.260009	0.266235	-1.000000	-1.000000	-1.000000	-1.000000	-1.000000	-1.000000	-1.000000	63.000000	0.000000	-1.000000	-1.000000	1035547.000000	1776578471.273609
2936.565000	-27635.130000	15927.165000	67301.775000	23233.995000	4403.385000	-23839.200000	-5371.605000	-19.737466	-14.379993	-10.358925	-12.628360	-35.324390	-47.220443	-9.337812	-18.503504	1.739640	1.113980	-0.763000	-0.918455	0.260009	0.266235	-1.000000	-1.000000	-1.000000	-1.000000	-1.000000	-1.000000	-1.000000	63.000000	0.000000	-1.000000	-1.000000	1035548.000000	1776578471.273613
2929.635000	-27641.025000	15921.360000	67299.345000	23288.355000	4394.610000	-23831.685000	-5366.880000	1.559719	1.547715	-2.990980	-7.755682	-26.529222	-9.251202	-2.724127	-6.250795	1.739640	1.113980	-0.763000	-0.918455	0.260009	0.266235	-1.000000	-1.000000	-1.000000	-1.000000	-1.000000	-1.000000	-1.000000	63.000000	0.000000	-1.000000	-1.000000	1035549.000000	1776578471.273618
2903.445000	-27669.330000	15894.450000	67279.500000	23308.335000	4422.690000	-23822.775000	-5375.070000	19.837774	15.234970	5.484126	0.843909	-3.241456	30.201955	5.679433	8.938708	1.739640	1.113980	-0.763000	-0.918455	0.260009	0.266235	-1.000000	-1.000000	-1.000000	-1.000000	-1.000000	-1.000000	-1.000000	63.000000	0.000000	-1.000000	-1.000000	1035550.000000	1776578471.273622
2914.740000	-27662.805000	15903.090000	67289.805000	23307.840000	4448.295000	-23822.820000	-5375.880000	25.329397	18.317894	7.717329	5.268031	21.559719	48.679883	12.353926	17.608446	2.136400	1.190280	1.388660	-0.918943	0.263915	0.262878	-1.000000	-1.000000	-1.000000	-1.000000	-1.000000	-1.000000	-1.000000	63.000000	0.000000	-1.000000	-1.000000	1035551.000000	1776578471.273627
2917.035000	-27666.225000	15895.215000	67274.460000	23272.875000	4413.645000	-23818.365000	-5381.955000	17.543932	10.486375	2.645124	2.839238	32.584484	41.837717	14.641800	15.232670	2.136400	1.190280	1.388660	-0.918943	0.263915	0.262878	-1.000000	-1.000000	-1.000000	-1.000000	-1.000000	-1.000000	-1.000000	63.000000	0.000000	-1.000000	-1.000000	1035552.000000	1776578471.273631
2916.405000	-27672.525000	15887.835000	67271.355000	23286.645000	4409.910000	-23812.335000	-5382.315000	4.531879	-0.889919	-4.493872	-3.073297	23.256742	16.868980	11.814572	5.088900	2.136400	1.190280	1.388660	-0.918943	0.263915	0.262878	-1.000000	-1.000000	-1.000000	-1.000000	-1.000000	-1.000000	-1.000000	63.000000	0.000000	-1.000000	-1.000000	1035553.000000	1776578471.273637
2904.255000	-27676.845000	15883.155000	67262.625000	23268.960000	4392.135000	-23812.875000	-5382.495000	-6.119525	-8.819345	-8.743418	-7.910521	1.234693	-13.517234	5.550154	-5.818322	2.136400	1.190280	1.388660	-0.918943	0.263915	0.262878	-1.000000	-1.000000	-1.000000	-1.000000	-1.000000	-1.000000	-1.000000	63.000000	0.000000	-1.000000	-1.000000	1035554.000000	1776578471.273641
2890.530000	-27688.320000	15869.835000	67243.095000	23239.575000	4361.625000	-23793.390000	-5395.050000	-11.712179	-10.768486	-8.441769	-9.081511	-19.697695	-35.971041	-1.189358	-12.035870	2.136400	1.190280	1.388660	-0.918943	0.263915	0.262878	-1.000000	-1.000000	-1.000000	-1.000000	-1.000000	-1.000000	-1.000000	63.000000	0.000000	-1.000000	-1.000000	1035555.000000	1776578471.273660
2869.875000	-27705.375000	15856.155000	67235.445000	23231.430000	4310.460000	-23782.005000	-5416.290000	-13.008172	-8.134619	-4.879396	-6.785227	-30.473162	-43.670229	-5.441284	-12.637014	2.136400	1.190280	1.388660	-0.918943	0.263915	0.262878	-1.000000	-1.000000	-1.000000	-1.000000	-1.000000	-1.000000	-1.000000	63.000000	0.000000	-1.000000	-1.000000	1035556.000000	1776578471.273664
2889.045000	-27690.795000	15866.280000	67247.370000	23238.225000	4272.255000	-23813.460000	-5398.515000	-10.938370	-3.496512	-0.195452	-2.105356	-28.230678	-37.952965	-6.702530	-9.424892	2.136400	1.190280	1.388660	-0.918943	0.263915	0.262878	-1.000000	-1.000000	-1.000000	-1.000000	-1.000000	-1.000000	-1.000000	63.000000	0.000000	-1.000000	-1.000000	1035557.000000	1776578471.273691
2890.485000	-27686.115000	15873.210000	67258.350000	23253.435000	4315.185000	-23799.825000	-5393.610000	-5.087287	2.086321	4.829822	4.573196	-14.323343	-22.221433	-7.415069	-3.325129	2.136400	1.190280	1.388660	-0.918943	0.263915	0.262878	-1.000000	-1.000000	-1.000000	-1.000000	-1.000000	-1.000000	-1.000000	63.000000	0.000000	-1.000000	-1.000000	1035558.000000	1776578471.273695
2871.630000	-27699.795000	15863.355000	67250.970000	23238.855000	4276.530000	-23804.910000	-5412.690000	3.311341	7.658999	9.532984	11.680227	5.159429	0.935706	-8.480156	4.310526	2.136400	1.190280	1.388660	-0.918943	0.263915	0.262878	-1.000000	-1.000000	-1.000000	-1.000000	-1.000000	-1.000000	-1.000000	63.000000	0.000000	-1.000000	-1.000000	1035559.000000	1776578471.273700
2879.685000	-27696.015000	15864.210000	67250.475000	23234.670000	4303.710000	-23860.800000	-5409.540000	9.906813	10.591516	11.689025	15.452701	20.713000	25.117629	-9.016640	9.716150	2.136400	1.190280	1.388660	-0.918943	0.263915	0.262878	-1.000000	-1.000000	-1.000000	-1.000000	-1.000000	-1.000000	-1.000000	63.000000	0.000000	-1.000000	-1.000000	1035560.000000	1776578471.273704
2926.890000	-27650.205000	15907.410000	67288.905000	23281.290000	4428.270000	-23842.890000	-5371.470000	12.551926	10.106855	10.467701	13.894357	26.277460	43.442672	-9.228274	11.008403	-1.831200	-0.915600	3.860780	-0.923032	0.273742	0.260314	-1.000000	-1.000000	-1.000000	-1.000000	-1.000000	-1.000000	-1.000000	63.000000	0.000000	-1.000000	-1.000000	1035561.000000	1776578471.273708
2922.210000	-27655.425000	15906.465000	67290.165000	23287.500000	4429.845000	-23804.460000	-5371.740000	13.200533	8.708179	8.156374	9.308886	23.582486	54.022067	-6.846745	10.407646	-1.831200	-0.915600	3.860780	-0.923032	0.273742	0.260314	-1.000000	-1.000000	-1.000000	-1.000000	-1.000000	-1.000000	-1.000000	63.000000	0.000000	-1.000000	-1.000000	1035562.000000	1776578471.273713
2885.130000	-27691.245000	15873.480000	67259.205000	23247.855000	4367.790000	-23805.540000	-5403.960000	11.377081	6.311728	5.097934	3.494582	15.778587	51.206451	1.907615	8.476973	-1.831200	-0.915600	3.860780	-0.923032	0.273742	0.260314	-1.000000	-1.000000	-1.000000	-1.000000	-1.000000	-1.000000	-1.000000	63.000000	0.000000	-1.000000	-1.000000	1035563.000000	1776578471.273717
2881.620000	-27696.870000	15867.855000	67255.335000	23246.145000	4388.130000	-23832.450000	-5407.605000	3.534895	-0.513947	-1.616850	-4.687389	2.876947	26.858630	13.541076	2.487399	-1.831200	-0.915600	3.860780	-0.923032	0.273742	0.260314	-1.000000	-1.000000	-1.000000	-1.000000	-1.000000	-1.000000	-1.000000	63.000000	0.000000	-1.000000	-1.000000	1035564.000000	1776578471.273721
2938.455000	-27641.970000	15921.090000	67308.795000	23307.795000	4471.650000	-23827.365000	-5359.590000	-7.758823	-9.800740	-10.318259	-12.982863	-11.257032	-10.761827	18.880573	-6.051857	-1.831200	-0.915600	3.860780	-0.923032	0.273742	0.260314	-1.000000	-1.000000	-1.000000	-1.000000	-1.000000	-1.000000	-1.000000	63.000000	0.000000	-1.000000	-1.000000	1035565.000000	1776578471.273726
2936.025000	-27644.175000	15917.805000	67304.385000	23297.670000	4446.945000	-23821.290000	-5363.280000	-13.365205	-13.370338	-13.584472	-14.759737	-17.702198	-39.364944	14.384032	-10.180682	-1.831200	-0.915600	3.860780	-0.923032	0.273742	0.260314	-1.000000	-1.000000	-1.000000	-1.000000	-1.000000	-1.000000	-1.000000	63.000000	0.000000	-1.000000	-1.000000	1035566.000000	1776578471.273730
2920.455000	-27656.505000	15909.795000	67296.060000	23275.710000	4362.345000	-23830.470000	-5375.070000	-10.013786	-8.492672	-8.893966	-8.701829	-14.296053	-48.839111	4.682175	-7.400216	-1.831200	-0.915600	3.860780	-0.923032	0.273742	0.260314	-1.000000	-1.000000	-1.000000	-1.000000	-1.000000	-1.000000	-1.000000	63.000000	0.000000	-1.000000	-1.000000	1035567.000000	1776578471.273735
2914.065000	-27665.820000	15902.100000	67284.810000	23248.710000	4291.335000	-23826.780000	-5378.040000	-4.114299	-1.656727	-2.195761	-1.481570	-8.740026	-48.138787	-4.226882	-2.832713	-1.831200	-0.915600	3.860780	-0.923032	0.273742	0.260314	-1.000000	-1.000000	-1.000000	-1.000000	-1.000000	-1.000000	-1.000000	63.000000	0.000000	-1.000000	-1.000000	1035568.000000	1776578471.273739
2908.890000	-27675.630000	15891.570000	67275.720000	23260.185000	4380.480000	-23832.630000	-5388.975000	-1.853471	0.722433	0.499490	0.920048	-7.123158	-43.511021	-9.116724	-1.353749	-1.831200	-0.915600	3.860780	-0.923032	0.273742	0.260314	-1.000000	-1.000000	-1.000000	-1.000000	-1.000000	-1.000000	-1.000000	63.000000	0.000000	-1.000000	-1.000000	1035569.000000	1776578471.276417
2898.675000	-27684.630000	15882.705000	67272.750000	23268.285000	4371.120000	-23802.750000	-5398.515000	-3.266656	-1.592214	-1.356393	-1.330656	-7.112223	-27.664546	-8.989208	-3.100082	-1.831200	-0.915600	3.860780	-0.923032	0.273742	0.260314	-1.000000	-1.000000	-1.000000	-1.000000	-1.000000	-1.000000	-1.000000	63.000000	0.000000	-1.000000	-1.000000	1035570.000000	1776578471.276425
2865.645000	-27716.265000	15851.655000	67239.630000	23214.960000	4236.840000	-23807.070000	-5413.050000	-5.635853	-5.308914	-4.938742	-4.666464	-4.656370	-0.231703	-4.406242	-5.571513	-10.498880	0.549360	5.539380	-0.922117	0.275451	0.260558	-1.000000	-1.000000	-1.000000	-1.000000	-1.000000	-1.000000	-1.000000	63.000000	0.000000	-1.000000	-1.000000	1035571.000000	1776578471.280473
2882.430000	-27704.655000	15862.995000	67249.755000	23229.045000	4353.795000	-23838.615000	-5393.790000	-6.662538	-7.252992	-7.119179	-6.184519	-0.728073	23.986621	1.034876	-5.855223	-10.498880	0.549360	5.539380	-0.922117	0.275451	0.260558	-1.000000	-1.000000	-1.000000	-1.000000	-1.000000	-1.000000	-1.000000	63.000000	0.000000	-1.000000	-1.000000	1035572.000000	1776578471.280481
2927.610000	-27659.205000	15910.740000	67300.020000	23287.545000	4439.655000	-23852.610000	-5367.825000	-3.221285	-4.117833	-4.306359	-3.114426	3.987010	39.111459	1.964715	-1.460363	-10.498880	0.549360	5.539380	-0.922117	0.275451	0.260558	-1.000000	-1.000000	-1.000000	-1.000000	-1.000000	-1.000000	-1.000000	63.000000	0.000000	-1.000000	-1.000000	1035573.000000	1776578471.284568
2920.005000	-27665.010000	15903.045000	67292.820000	23284.845000	4426.695000	-23830.695000	-5380.110000	6.423645	5.639709	5.316298	6.138574	11.812342	50.357178	-2.085181	7.016274	-10.498880	0.549360	5.539380	-0.922117	0.275451	0.260558	-1.000000	-1.000000	-1.000000	-1.000000	-1.000000	-1.000000	-1.000000	63.000000	0.000000	-1.000000	-1.000000	1035574.000000	1776578471.284614
2913.030000	-27669.015000	15901.155000	67293.900000	23288.490000	4427.370000	-23823.720000	-5392.395000	16.948697	16.733219	16.489697	16.733010	20.120123	52.791509	-5.152234	13.818050	-10.498880	0.549360	5.539380	-0.922117	0.275451	0.260558	-1.000000	-1.000000	-1.000000	-1.000000	-1.000000	-1.000000	-1.000000	63.000000	0.000000	-1.000000	-1.000000	1035575.000000	1776578471.288467
2919.735000	-27661.680000	15910.650000	67303.620000	23284.980000	4398.885000	-23816.700000	-5393.205000	19.828781	20.556508	20.543512	20.389525	21.345719	36.016410	-2.597239	13.076680	-10.498880	0.549360	5.539380	-0.922117	0.275451	0.260558	-1.000000	-1.000000	-1.000000	-1.000000	-1.000000	-1.000000	-1.000000	63.000000	0.000000	-1.000000	-1.000000	1035576.000000	1776578471.288477
2925.450000	-27660.375000	15909.435000	67299.030000	23263.560000	4362.300000	-23809.905000	-5381.325000	12.949717	14.374375	14.665499	14.266577	11.953237	1.445469	3.815489	5.560777	-10.498880	0.549360	5.539380	-0.922117	0.275451	0.260558	-1.000000	-1.000000	-1.000000	-1.000000	-1.000000	-1.000000	-1.000000	63.000000	0.000000	-1.000000	-1.000000	1035577.000000	1776578471.292581
2919.555000	-27665.640000	15901.380000	67290.435000	23258.610000	4373.055000	-23807.115000	-5370.165000	1.252767	2.409287	2.754502	1.953261	-4.328820	-36.133274	9.089987	-2.526660	-10.498880	0.549360	5.539380	-0.922117	0.275451	0.260558	-1.000000	-1.000000	-1.000000	-1.000000	-1.000000	-1.000000	-1.000000	63.000000	0.000000	-1.000000	-1.000000	1035578.000000	1776578471.292592
2897.100000	-27679.455000	15891.030000	67286.835000	23259.915000	4377.285000	-23830.470000	-5380.740000	-9.668768	-9.505628	-9.548088	-10.768174	-19.197498	-57.865030	9.257104	-6.406303	-10.498880	0.549360	5.539380	-0.922117	0.275451	0.260558	-1.000000	-1.000000	-1.000000	-1.000000	-1.000000	-1.000000	-1.000000	63.000000	0.000000	-1.000000	-1.000000	1035579.000000	1776578471.296395
2902.995000	-27683.595000	15881.805000	67274.235000	23258.520000	4368.735000	-23829.390000	-5382.045000	-16.643303	-17.266452	-17.791484	-18.848008	-24.923972	-53.771828	3.424583	-6.415809	-10.498880	0.549360	5.539380	-0.922117	0.275451	0.260558	-1.000000	-1.000000	-1.000000	-1.000000	-1.000000	-1.000000	-1.000000	63.000000	0.000000	-1.000000	-1.000000	1035580.000000	1776578471.296404
2911.545000	-27683.640000	15881.085000	67274.910000	23273.865000	4390.560000	-23816.655000	-5377.590000	-17.469388	-18.696717	-19.475728	-19.773989	-19.255516	-29.059398	-4.762064	-5.100588	-17.274320	0.701960	6.470240	-0.914182	0.275451	0.266601	-1.000000	-1.000000	-1.000000	-1.000000	-1.000000	-1.000000	-1.000000	63.000000	0.000000	-1.000000	-1.000000	1035581.000000	1776578471.359677
2913.705000	-27681.345000	15884.730000	67280.670000	23274.315000	4384.845000	-23822.460000	-5379.165000	-11.312642	-13.547914	-14.284060	-13.821538	-5.965630	2.219474	-9.489747	-3.575348	-17.274320	0.701960	6.470240	-0.914182	0.275451	0.266601	-1.000000	-1.000000	-1.000000	-1.000000	-1.000000	-1.000000	-1.000000	63.000000	0.000000	-1.000000	-1.000000	1035582.000000	1776578471.359695
2914.920000	-27676.620000	15891.255000	67286.520000	23266.215000	4371.570000	-23821.110000	-5378.535000	-1.026342	-3.985649	-4.227567	-3.360276	7.688532	25.930594	-8.418058	-1.875691	-17.274320	0.701960	6.470240	-0.914182	0.275451	0.266601	-1.000000	-1.000000	-1.000000	-1.000000	-1.000000	-1.000000	-1.000000	63.000000	0.000000	-1.000000	-1.000000	1035583.000000	1776578471.359710
2911.455000	-27678.735000	15888.060000	67279.635000	23255.820000	4366.260000	-23824.440000	-5382.675000	8.045676	5.985233	6.649357	7.416807	14.808787	33.633900	-3.805581	-0.274627	-17.274320	0.701960	6.470240	-0.914182	0.275451	0.266601	-1.000000	-1.000000	-1.000000	-1.000000	-1.000000	-1.000000	-1.000000	63.000000	0.000000	-1.000000	-1.000000	1035584.000000	1776578471.359716
2904.885000	-27683.235000	15886.710000	67284.090000	23282.415000	4391.505000	-23818.185000	-5387.535000	11.768490	12.253157	13.764528	13.966428	13.618256	26.661229	1.039686	0.703494	-17.274320	0.701960	6.470240	-0.914182	0.275451	0.266601	-1.000000	-1.000000	-1.000000	-1.000000	-1.000000	-1.000000	-1.000000	63.000000	0.000000	-1.000000	-1.000000	1035585.000000	1776578471.359724
2904.660000	-27683.100000	15888.690000	67287.960000	23283.045000	4378.455000	-23813.190000	-5384.295000	9.494839	12.714432	14.598888	14.346005	8.280035	13.535781	4.324488	0.906301	-17.274320	0.701960	6.470240	-0.914182	0.275451	0.266601	-1.000000	-1.000000	-1.000000	-1.000000	-1.000000	-1.000000	-1.000000	63.000000	0.000000	-1.000000	-1.000000	1035586.000000	1776578471.359728
2904.885000	-27684.090000	15886.935000	67283.505000	23248.125000	4360.005000	-23816.295000	-5381.595000	3.912615	8.425606	10.092760	9.947272	2.720364	1.258154	5.625152	0.978015	-17.274320	0.701960	6.470240	-0.914182	0.275451	0.266601	-1.000000	-1.000000	-1.000000	-1.000000	-1.000000	-1.000000	-1.000000	63.000000	0.000000	-1.000000	-1.000000	1035587.000000	1776578471.359734
2895.795000	-27693.990000	15872.535000	67267.170000	23229.180000	4320.405000	-23829.750000	-5384.295000	-1.401702	2.272039	3.042546	3.134770	-3.440165	-8.724025	4.593404	1.533120	-17.274320	0.701960	6.470240	-0.914182	0.275451	0.266601	-1.000000	-1.000000	-1.000000	-1.000000	-1.000000	-1.000000	-1.000000	63.000000	0.000000	-1.000000	-1.000000	1035588.000000	1776578471.359739
2892.240000	-27691.515000	15876.720000	67273.830000	23246.910000	4354.110000	-23836.005000	-5397.120000	-4.517296	-3.130036	-3.836054	-3.912230	-9.820108	-15.758190	1.105410	1.969952	-17.274320	0.701960	6.470240	-0.914182	0.275451	0.266601	-1.000000	-1.000000	-1.000000	-1.000000	-1.000000	-1.000000	-1.000000	63.000000	0.000000	-1.000000	-1.000000	1035589.000000	1776578471.359745
2906.820000	-27677.250000	15895.125000	67295.790000	23274.360000	4394.160000	-23821.380000	-5392.305000	-4.894201	-5.722438	-7.707068	-8.074963	-11.480299	-15.413345	-3.040385	1.278905	-17.274320	0.701960	6.470240	-0.914182	0.275451	0.266601	-1.000000	-1.000000	-1.000000	-1.000000	-1.000000	-1.000000	-1.000000	63.000000	0.000000	-1.000000	-1.000000	1035590.000000	1776578471.359749
2918.745000	-27675.315000	15895.260000	67297.860000	23273.505000	4391.280000	-23805.585000	-5373.900000	-2.202048	-4.376906	-6.519608	-6.699280	-4.916782	-4.915017	-4.321580	0.248454	-21.333480	2.273740	6.912780	-0.911192	0.275268	0.274657	-1.000000	-1.000000	-1.000000	-1.000000	-1.000000	-1.000000	-1.000000	63.000000	0.000000	-1.000000	-1.000000	1035591.000000	1776578471.359756
2917.755000	-27668.520000	15901.830000	67305.330000	23279.580000	4365.585000	-23819.130000	-5377.320000	2.538403	-0.371452	-1.612177	-1.133790	5.863813	8.861761	-1.409856	0.744431	-21.333480	2.273740	6.912780	-0.911192	0.275268	0.274657	-1.000000	-1.000000	-1.000000	-1.000000	-1.000000	-1.000000	-1.000000	63.000000	0.000000	-1.000000	-1.000000	1035592.000000	1776578471.359761
2917.395000	-27666.720000	15898.905000	67296.735000	23254.650000	4323.510000	-23806.935000	-5372.100000	6.150180	3.260835	3.036795	3.921765	12.633961	13.931736	2.725390	2.509039	-21.333480	2.273740	6.912780	-0.911192	0.275268	0.274657	-1.000000	-1.000000	-1.000000	-1.000000	-1.000000	-1.000000	-1.000000	63.000000	0.000000	-1.000000	-1.000000	1035593.000000	1776578471.359766
2907.360000	-27667.080000	15886.395000	67267.935000	23237.820000	4352.850000	-23803.200000	-5377.095000	5.687251	4.186639	4.119306	4.188497	10.118238	6.323878	4.713256	3.298067	-21.333480	2.273740	6.912780	-0.911192	0.275268	0.274657	-1.000000	-1.000000	-1.000000	-1.000000	-1.000000	-1.000000	-1.000000	63.000000	0.000000	-1.000000	-1.000000	1035594.000000	1776578471.359771
2901.690000	-27686.565000	15877.485000	67272.840000	23259.105000	4387.005000	-23813.055000	-5382.990000	1.000501	1.708486	0.877975	-1.053759	0.467056	-4.793340	3.753085	1.609849	-21.333480	2.273740	6.912780	-0.911192	0.275268	0.274657	-1.000000	-1.000000	-1.000000	-1.000000	-1.000000	-1.000000	-1.000000	63.000000	0.000000	-1.000000	-1.000000	1035595.000000	1776578471.359777
2902.320000	-27693.315000	15876.675000	67281.525000	23271.435000	4372.245000	-23810.580000	-5381.955000	-5.091372	-3.372849	-4.410622	-7.364696	-7.963479	-8.118760	0.487948	-2.003192	-21.333480	2.273740	6.912780	-0.911192	0.275268	0.274657	-1.000000	-1.000000	-1.000000	-1.000000	-1.000000	-1.000000	-1.000000	63.000000	0.000000	-1.000000	-1.000000	1035596.000000	1776578471.359782
2893.770000	-27698.220000	15875.595000	67281.210000	23271.030000	4361.985000	-23804.415000	-5390.010000	-8.873998	-8.451849	-7.803709	-8.822920	-8.758441	-3.409391	-3.297996	-5.435436	-21.333480	2.273740	6.912780	-0.911192	0.275268	0.274657	-1.000000	-1.000000	-1.000000	-1.000000	-1.000000	-1.000000	-1.000000	63.000000	0.000000	-1.000000	-1.000000	1035597.000000	1776578471.359788
2883.645000	-27700.290000	15878.745000	67288.725000	23288.265000	4414.680000	-23823.630000	-5406.030000	-8.683024	-10.142573	-6.739162	-4.061270	-3.047884	2.599306	-5.529402	-7.055116	-21.333480	2.273740	6.912780	-0.911192	0.275268	0.274657	-1.000000	-1.000000	-1.000000	-1.000000	-1.000000	-1.000000	-1.000000	63.000000	0.000000	-1.000000	-1.000000	1035598.000000	1776578471.359792
2904.480000	-27686.295000	15886.980000	67291.290000	23269.455000	4405.320000	-23825.340000	-5397.435000	-5.078909	-6.675658	-1.651744	3.422630	3.534612	6.664317	-5.935890	-6.540568	-21.333480	2.273740	6.912780	-0.911192	0.275268	0.274657	-1.000000	-1.000000	-1.000000	-1.000000	-1.000000	-1.000000	-1.000000	63.000000	0.000000	-1.000000	-1.000000	1035599.000000	1776578471.359799
2930.670000	-27665.910000	15907.320000	67306.725000	23273.325000	4385.295000	-23819.715000	-5383.440000	1.396872	1.218810	5.131026	9.309058	5.918325	7.412924	-4.963049	-3.412309	-21.333480	2.273740	6.912780	-0.911192	0.275268	0.274657	-1.000000	-1.000000	-1.000000	-1.000000	-1.000000	-1.000000	-1.000000	63.000000	0.000000	-1.000000	-1.000000	1035600.000000	1776578471.359804
2921.040000	-27673.785000	15902.550000	67303.530000	23274.855000	4388.220000	-23825.430000	-5397.255000	9.209658	10.208016	10.695644	11.154507	3.090276	2.735355	-2.342689	2.121584	-22.157520	3.341940	6.058220	-0.912717	0.272704	0.284606	-1.000000	-1.000000	-1.000000	-1.000000	-1.000000	-1.000000	-1.000000	63.000000	0.000000	-1.000000	-1.000000	1035601.000000	1776578471.359810
2921.670000	-27679.095000	15896.385000	67298.760000	23269.770000	4372.065000	-23828.265000	-5387.400000	13.818685	14.948060	11.864570	8.356600	-1.826657	-5.809760	1.342271	7.291842	-22.157520	3.341940	6.058220	-0.912717	0.272704	0.284606	-1.000000	-1.000000	-1.000000	-1.000000	-1.000000	-1.000000	-1.000000	63.000000	0.000000	-1.000000	-1.000000	1035602.000000	1776578471.359814
2917.530000	-27683.190000	15897.105000	67303.620000	23269.905000	4360.680000	-23806.260000	-5363.955000	11.336682	11.945164	7.123644	1.999067	-5.343493	-13.237562	4.754894	9.634481	-22.157520	3.341940	6.058220	-0.912717	0.272704	0.284606	-1.000000	-1.000000	-1.000000	-1.000000	-1.000000	-1.000000	-1.000000	63.000000	0.000000	-1.000000	-1.000000	1035603.000000	1776578471.359820
2922.120000	-27694.395000	15889.230000	67298.580000	23291.190000	4384.035000	-23796.855000	-5362.515000	3.038957	2.872596	-1.265962	-4.949259	-5.554459	-15.118228	7.572947	9.448833	-22.157520	3.341940	6.058220	-0.912717	0.272704	0.284606	-1.000000	-1.000000	-1.000000	-1.000000	-1.000000	-1.000000	-1.000000	63.000000	0.000000	-1.000000	-1.000000	1035604.000000	1776578471.359825
2912.535000	-27697.905000	15885.180000	67294.890000	23286.690000	4395.240000	-23804.910000	-5377.455000	-6.131799	-7.142386	-8.953386	-9.449604	-2.157028	-9.185349	9.173958	6.919841	-22.157520	3.341940	6.058220	-0.912717	0.272704	0.284606	-1.000000	-1.000000	-1.000000	-1.000000	-1.000000	-1.000000	-1.000000	63.000000	0.000000	-1.000000	-1.000000	1035605.000000	1776578471.359830
2906.235000	-27695.565000	15883.515000	67292.820000	23263.380000	4384.755000	-23805.495000	-5379.615000	-11.992261	-13.046833	-12.555263	-10.268303	2.159125	2.215740	7.536474	1.173432	-22.157520	3.341940	6.058220	-0.912717	0.272704	0.284606	-1.000000	-1.000000	-1.000000	-1.000000	-1.000000	-1.000000	-1.000000	63.000000	0.000000	-1.000000	-1.000000	1035606.000000	1776578471.359835
2905.650000	-27684.225000	15886.170000	67293.405000	23270.805000	4375.170000	-23806.080000	-5379.030000	-13.004270	-12.110416	-10.889793	-7.737393	3.375795	11.911915	2.074238	-6.398472	-22.157520	3.341940	6.058220	-0.912717	0.272704	0.284606	-1.000000	-1.000000	-1.000000	-1.000000	-1.000000	-1.000000	-1.000000	63.000000	0.000000	-1.000000	-1.000000	1035607.000000	1776578471.359841
2924.820000	-27676.035000	15887.430000	67292.685000	23261.580000	4360.815000	-23814.315000	-5372.100000	-9.157037	-5.069450	-5.069629	-3.085182	1.024060	13.763990	-4.803336	-11.675509	-22.157520	3.341940	6.058220	-0.912717	0.272704	0.284606	-1.000000	-1.000000	-1.000000	-1.000000	-1.000000	-1.000000	-1.000000	63.000000	0.000000	-1.000000	-1.000000	1035608.000000	1776578471.359845
2929.860000	-27675.405000	15891.840000	67299.930000	23270.535000	4370.580000	-23815.035000	-5369.040000	-1.446032	4.071939	2.147158	2.035431	-1.765579	8.019286	-9.872415	-11.481765	-22.157520	3.341940	6.058220	-0.912717	0.272704	0.284606	-1.000000	-1.000000	-1.000000	-1.000000	-1.000000	-1.000000	-1.000000	63.000000	0.000000	-1.000000	-1.000000	1035609.000000	1776578471.359851
2928.510000	-27681.300000	15889.320000	67300.245000	23274.135000	4378.365000	-23799.645000	-5366.745000	6.959600	10.104277	7.693641	6.116752	-2.126707	0.436540	-10.770057	-6.295637	-22.157520	3.341940	6.058220	-0.912717	0.272704	0.284606	-1.000000	-1.000000	-1.000000	-1.000000	-1.000000	-1.000000	-1.000000	63.000000	0.000000	-1.000000	-1.000000	1035610.000000	1776578471.359856
2927.880000	-27685.485000	15885.180000	67294.980000	23266.890000	4377.735000	-23802.615000	-5368.545000	11.586384	9.864141	9.434970	7.874376	0.167594	-3.442170	-6.804122	0.466414	-12.436900	5.890360	2.243220	-0.911375	0.268859	0.284667	-1.000000	-1.000000	-1.000000	-1.000000	-1.000000	-1.000000	-1.000000	63.000000	0.000000	-1.000000	-1.000000	1035611.000000	1776578471.361662
2929.320000	-27681.705000	15888.465000	67292.505000	23252.535000	4345.875000	-23817.555000	-5368.545000	10.220322	4.379305	7.150839	6.513912	2.571360	-3.392073	-0.480517	5.182471	-12.436900	5.890360	2.243220	-0.911375	0.268859	0.284667	-1.000000	-1.000000	-1.000000	-1.000000	-1.000000	-1.000000	-1.000000	63.000000	0.000000	-1.000000	-1.000000	1035612.000000	1776578471.361695
2940.210000	-27670.590000	15899.535000	67296.780000	23243.265000	4273.290000	-23815.710000	-5360.265000	4.705613	-2.015507	2.940274	2.807057	2.350419	-4.349262	3.891143	6.415866	-12.436900	5.890360	2.243220	-0.911375	0.268859	0.284667	-1.000000	-1.000000	-1.000000	-1.000000	-1.000000	-1.000000	-1.000000	63.000000	0.000000	-1.000000	-1.000000	1035613.000000	1776578471.364606
2921.085000	-27696.240000	15882.840000	67288.905000	23247.630000	4341.825000	-23809.230000	-5377.455000	-1.406219	-5.693177	-0.665932	-1.129324	-0.258119	-8.587817	4.686048	4.839778	-12.436900	5.890360	2.243220	-0.911375	0.268859	0.284667	-1.000000	-1.000000	-1.000000	-1.000000	-1.000000	-1.000000	-1.000000	63.000000	0.000000	-1.000000	-1.000000	1035614.000000	1776578471.364622
2912.985000	-27708.210000	15880.770000	67297.140000	23272.470000	4385.880000	-23821.065000	-5395.005000	-6.238428	-6.897887	-3.165909	-3.538837	-1.888069	-8.638747	3.522147	1.197200	-12.436900	5.890360	2.243220	-0.911375	0.268859	0.284667	-1.000000	-1.000000	-1.000000	-1.000000	-1.000000	-1.000000	-1.000000	63.000000	0.000000	-1.000000	-1.000000	1035615.000000	1776578471.368824
2925.270000	-27693.720000	15893.505000	67307.400000	23280.435000	4378.230000	-23845.095000	-5386.680000	-8.984309	-6.955416	-4.727481	-3.524362	0.475471	2.388957	1.479087	-3.412320	-12.436900	5.890360	2.243220	-0.911375	0.268859	0.284667	-1.000000	-1.000000	-1.000000	-1.000000	-1.000000	-1.000000	-1.000000	63.000000	0.000000	-1.000000	-1.000000	1035616.000000	1776578471.368848
2929.005000	-27685.755000	15897.240000	67309.020000	23282.550000	4410.450000	-23826.825000	-5374.845000	-8.047793	-4.711717	-4.266558	-1.168718	5.557630	17.945448	-1.203829	-5.842226	-12.436900	5.890360	2.243220	-0.911375	0.268859	0.284667	-1.000000	-1.000000	-1.000000	-1.000000	-1.000000	-1.000000	-1.000000	63.000000	0.000000	-1.000000	-1.000000	1035617.000000	1776578471.372598
2938.410000	-27675.045000	15912.360000	67325.355000	23304.960000	4399.020000	-23809.365000	-5362.605000	-2.991456	0.873178	-1.218972	2.065535	9.047333	25.619364	-2.213098	-3.240129	-12.436900	5.890360	2.243220	-0.911375	0.268859	0.284667	-1.000000	-1.000000	-1.000000	-1.000000	-1.000000	-1.000000	-1.000000	63.000000	0.000000	-1.000000	-1.000000	1035618.000000	1776578471.372611
2930.220000	-27689.715000	15900.705000	67314.285000	23273.595000	4362.120000	-23827.995000	-5376.420000	3.525449	7.240166	2.686831	4.113312	7.792151	18.824538	0.407266	2.900960	-12.436900	5.890360	2.243220	-0.911375	0.268859	0.284667	-1.000000	-1.000000	-1.000000	-1.000000	-1.000000	-1.000000	-1.000000	63.000000	0.000000	-1.000000	-1.000000	1035619.000000	1776578471.376829
2925.990000	-27700.515000	15886.980000	67293.135000	23222.565000	4313.385000	-23825.070000	-5381.370000	7.420546	9.694625	4.176144	2.918717	0.180205	-1.136571	4.086260	7.369301	-12.436900	5.890360	2.243220	-0.911375	0.268859	0.284667	-1.000000	-1.000000	-1.000000	-1.000000	-1.000000	-1.000000	-1.000000	63.000000	0.000000	-1.000000	-1.000000	1035620.000000	1776578471.376850
2929.185000	-27710.640000	15882.615000	67292.775000	23273.055000	4397.400000	-23807.340000	-5379.210000	6.631231	5.947919	1.342210	-2.105584	-11.555047	-23.554603	5.385371	6.608768	-4.135460	7.431620	-0.122080	-0.907835	0.264709	0.280883	-1.000000	-1.000000	-1.000000	-1.000000	-1.000000	-1.000000	-1.000000	63.000000	0.000000	-1.000000	-1.000000	1035621.000000	1776578471.380533
2931.210000	-27737.865000	15878.160000	67303.845000	23312.970000	4440.105000	-23791.680000	-5373.720000	2.770704	-1.851086	-3.839812	-7.686804	-17.735961	-31.265727	4.706900	2.115982	-4.135460	7.431620	-0.122080	-0.907835	0.264709	0.280883	-1.000000	-1.000000	-1.000000	-1.000000	-1.000000	-1.000000	-1.000000	63.000000	0.000000	-1.000000	-1.000000	1035622.000000	1776578471.380549
2927.205000	-27762.390000	15870.420000	67302.720000	23294.655000	4411.440000	-23793.795000	-5372.595000	-1.075920	-9.674410	-7.391667	-8.931201	-10.861866	-17.549064	3.742457	-2.132796	-4.135460	7.431620	-0.122080	-0.907835	0.264709	0.280883	-1.000000	-1.000000	-1.000000	-1.000000	-1.000000	-1.000000	-1.000000	63.000000	0.000000	-1.000000	-1.000000	1035623.000000	1776578471.435304
2925.135000	-27759.960000	15873.750000	67305.285000	23293.395000	4400.055000	-23805.765000	-5375.520000	-3.236447	-13.738456	-6.948093	-4.636916	3.047550	3.964045	1.847748	-3.866087	-4.135460	7.431620	-0.122080	-0.907835	0.264709	0.280883	-1.000000	-1.000000	-1.000000	-1.000000	-1.000000	-1.000000	-1.000000	63.000000	0.000000	-1.000000	-1.000000	1035624.000000	1776578471.435320
2924.280000	-27718.740000	15890.670000	67304.070000	23279.400000	4385.070000	-23813.100000	-5378.445000	-3.655677	-10.314779	-2.429405	1.971907	11.833110	15.127418	-2.474508	-3.530417	-4.135460	7.431620	-0.122080	-0.907835	0.264709	0.280883	-1.000000	-1.000000	-1.000000	-1.000000	-1.000000	-1.000000	-1.000000	63.000000	0.000000	-1.000000	-1.000000	1035625.000000	1776578471.435345
2923.965000	-27684.990000	15897.060000	67301.955000	23276.205000	4377.735000	-23813.370000	-5380.830000	-2.787135	2.211516	4.616868	6.780396	10.224019	11.037524	-8.161534	-2.566390	-4.135460	7.431620	-0.122080	-0.907835	0.264709	0.280883	-1.000000	-1.000000	-1.000000	-1.000000	-1.000000	-1.000000	-1.000000	63.000000	0.000000	-1.000000	-1.000000	1035626.000000	1776578471.435350
2925.585000	-27683.280000	15884.505000	67296.285000	23270.670000	4374.450000	-23814.090000	-5381.415000	-1.126717	18.800640	10.637612	7.563587	1.827301	-0.657755	-11.678788	-1.747206	-4.135460	7.431620	-0.122080	-0.907835	0.264709	0.280883	-1.000000	-1.000000	-1.000000	-1.000000	-1.000000	-1.000000	-1.000000	63.000000	0.000000	-1.000000	-1.000000	1035627.000000	1776578471.435355
2928.420000	-27686.925000	15874.785000	67297.005000	23270.535000	4362.255000	-23816.070000	-5379.435000	0.803944	28.546704	11.326444	4.722582	-6.290797	-9.798826	-10.431816	-0.944000	-4.135460	7.431620	-0.122080	-0.907835	0.264709	0.280883	-1.000000	-1.000000	-1.000000	-1.000000	-1.000000	-1.000000	-1.000000	63.000000	0.000000	-1.000000	-1.000000	1035628.000000	1776578471.435359
2925.270000	-27698.850000	15862.860000	67288.275000	23253.750000	4341.330000	-23812.920000	-5383.305000	2.370012	23.437815	5.438405	0.436353	-9.433242	-11.560623	-4.935292	0.114091	-4.135460	7.431620	-0.122080	-0.907835	0.264709	0.280883	-1.000000	-1.000000	-1.000000	-1.000000	-1.000000	-1.000000	-1.000000	63.000000	0.000000	-1.000000	-1.000000	1035629.000000	1776578471.435363
2923.695000	-27709.470000	15862.995000	67289.535000	23254.335000	4348.305000	-23810.220000	-5386.905000	2.830446	5.324012	-3.511350	-3.036064	-7.438070	-7.090228	2.143332	1.106903	-4.135460	7.431620	-0.122080	-0.907835	0.264709	0.280883	-1.000000	-1.000000	-1.000000	-1.000000	-1.000000	-1.000000	-1.000000	63.000000	0.000000	-1.000000	-1.000000	1035630.000000	1776578471.435367
2929.185000	-27696.915000	15890.445000	67298.445000	23264.820000	4354.380000	-23818.500000	-5385.060000	2.022649	-15.611356	-9.424328	-4.144173	-2.292157	0.781558	7.696930	1.513041	-1.388660	2.166920	-4.104940	-0.912290	0.263549	0.278075	-1.000000	-1.000000	-1.000000	-1.000000	-1.000000	-1.000000	-1.000000	63.000000	0.000000	-1.000000	-1.000000	1035631.000000	1776578471.435372
2939.445000	-27679.455000	15920.460000	67307.310000	23280.435000	4384.980000	-23829.705000	-5381.820000	0.940526	-27.660016	-7.509570	-2.222273	4.388550	9.890745	9.241070	1.488440	-1.388660	2.166920	-4.104940	-0.912290	0.263549	0.278075	-1.000000	-1.000000	-1.000000	-1.000000	-1.000000	-1.000000	-1.000000	63.000000	0.000000	-1.000000	-1.000000	1035632.000000	1776578471.435375
2942.640000	-27701.550000	15904.080000	67304.295000	23270.850000	4392.270000	-23817.915000	-5373.045000	0.730366	-25.724460	1.061597	1.589991	10.492230	17.841513	6.572591	1.710864	-1.388660	2.166920	-4.104940	-0.912290	0.263549	0.278075	-1.000000	-1.000000	-1.000000	-1.000000	-1.000000	-1.000000	-1.000000	63.000000	0.000000	-1.000000	-1.000000	1035633.000000	1776578471.435380
2937.330000	-27727.560000	15887.205000	67302.270000	23262.345000	4378.365000	-23816.745000	-5374.395000	1.061137	-14.982749	8.350809	4.421405	12.512621	20.729433	2.494726	2.376973	-1.388660	2.166920	-4.104940	-0.912290	0.263549	0.278075	-1.000000	-1.000000	-1.000000	-1.000000	-1.000000	-1.000000	-1.000000	63.000000	0.000000	-1.000000	-1.000000	1035634.000000	1776578471.435384
2927.340000	-27737.910000	15867.900000	67297.635000	23263.920000	4369.950000	-23818.905000	-5378.670000	0.313632	-4.577272	6.985149	4.001539	8.460613	14.892116	-0.082417	2.582286	-1.388660	2.166920	-4.104940	-0.912290	0.263549	0.278075	-1.000000	-1.000000	-1.000000	-1.000000	-1.000000	-1.000000	-1.000000	63.000000	0.000000	-1.000000	-1.000000	1035635.000000	1776578471.435388
2913.705000	-27738.720000	15852.150000	67287.285000	23270.940000	4377.465000	-23809.230000	-5381.865000	-2.474319	1.476589	-2.482941	0.468633	0.843451	1.706528	-0.678013	1.197121	-1.388660	2.166920	-4.104940	-0.912290	0.263549	0.278075	-1.000000	-1.000000	-1.000000	-1.000000	-1.000000	-1.000000	-1.000000	63.000000	0.000000	-1.000000	-1.000000	1035636.000000	1776578471.435392
2921.580000	-27773.640000	15863.580000	67294.575000	23273.190000	4370.130000	-23805.945000	-5377.365000	-5.980250	4.479467	-12.546886	-3.928653	-5.438816	-11.900449	-0.113812	-1.456176	-1.388660	2.166920	-4.104940	-0.912290	0.263549	0.278075	-1.000000	-1.000000	-1.000000	-1.000000	-1.000000	-1.000000	-1.000000	63.000000	0.000000	-1.000000	-1.000000	1035637.000000	1776578471.435396
2921.535000	-27822.915000	15898.185000	67289.715000	23221.170000	4355.370000	-23810.580000	-5382.630000	-7.149306	5.077506	-14.598731	-6.276707	-8.474983	-19.569474	0.539243	-3.684828	-1.388660	2.166920	-4.104940	-0.912290	0.263549	0.278075	-1.000000	-1.000000	-1.000000	-1.000000	-1.000000	-1.000000	-1.000000	63.000000	0.000000	-1.000000	-1.000000	1035638.000000	1776578471.435400
2923.830000	-27819.540000	15974.370000	67301.010000	23198.535000	4376.070000	-23815.935000	-5386.635000	-4.236624	3.039431	-4.255163	-5.019205	-10.731090	-19.313191	0.002739	-4.345390	-1.388660	2.166920	-4.104940	-0.912290	0.263549	0.278075	-1.000000	-1.000000	-1.000000	-1.000000	-1.000000	-1.000000	-1.000000	63.000000	0.000000	-1.000000	-1.000000	1035639.000000	1776578471.435404
2941.695000	-27711.180000	15934.320000	67278.870000	23176.035000	4343.445000	-23824.440000	-5381.865000	1.552561	3.461906	13.772115	-1.302043	-13.540981	-12.605409	-2.204397	-3.490133	-1.388660	2.166920	-4.104940	-0.912290	0.263549	0.278075	-1.000000	-1.000000	-1.000000	-1.000000	-1.000000	-1.000000	-1.000000	63.000000	0.000000	-1.000000	-1.000000	1035640.000000	1776578471.435408
2932.470000	-27698.355000	15858.135000	67240.035000	23211.945000	4311.450000	-23810.130000	-5381.865000	7.340653	13.658514	24.208237	1.139985	-13.014836	-4.268249	-4.697198	-1.467905	-5.341000	-1.541260	-9.583280	-0.918516	0.270934	0.268981	-1.000000	-1.000000	-1.000000	-1.000000	-1.000000	-1.000000	-1.000000	63.000000	0.000000	-1.000000	-1.000000	1035641.000000	1776578471.435414
2930.535000	-27666.945000	15858.945000	67248.000000	23258.340000	4375.350000	-23803.740000	-5381.820000	9.828135	29.706007	14.327953	-0.455484	-3.551052	1.784447	-4.883982	1.092456	-5.341000	-1.541260	-9.583280	-0.918516	0.270934	0.268981	-1.000000	-1.000000	-1.000000	-1.000000	-1.000000	-1.000000	-1.000000	63.000000	0.000000	-1.000000	-1.000000	1035642.000000	1776578471.435418
2950.155000	-27625.410000	15867.315000	67242.510000	23240.880000	4420.980000	-23817.330000	-5378.715000	7.655610	37.714359	-9.055522	-3.510146	13.846580	8.462832	-2.034354	3.132321	-5.341000	-1.541260	-9.583280	-0.918516	0.270934	0.268981	-1.000000	-1.000000	-1.000000	-1.000000	-1.000000	-1.000000	-1.000000	63.000000	0.000000	-1.000000	-1.000000	1035643.000000	1776578471.435422
2941.920000	-27655.470000	15897.825000	67227.300000	23243.040000	4388.355000	-23817.645000	-5380.020000	2.950626	28.556206	-25.667093	-3.466544	28.287619	17.856533	1.266588	3.872717	-5.341000	-1.541260	-9.583280	-0.918516	0.270934	0.268981	-1.000000	-1.000000	-1.000000	-1.000000	-1.000000	-1.000000	-1.000000	63.000000	0.000000	-1.000000	-1.000000	1035644.000000	1776578471.435426
2930.040000	-27728.145000	15899.040000	67223.610000	23198.580000	4349.475000	-23805.765000	-5371.605000	-1.901520	2.156386	-22.942943	0.167577	28.136172	21.953084	2.698989	3.306912	-5.341000	-1.541260	-9.583280	-0.918516	0.270934	0.268981	-1.000000	-1.000000	-1.000000	-1.000000	-1.000000	-1.000000	-1.000000	63.000000	0.000000	-1.000000	-1.000000	1035645.000000	1776578471.435431
2936.835000	-27800.190000	15845.985000	67207.320000	23145.390000	4339.845000	-23794.515000	-5353.425000	-6.090915	-34.466546	-6.437934	4.558696	11.016131	12.321127	2.995786	2.388721	-5.341000	-1.541260	-9.583280	-0.918516	0.270934	0.268981	-1.000000	-1.000000	-1.000000	-1.000000	-1.000000	-1.000000	-1.000000	63.000000	0.000000	-1.000000	-1.000000	1035646.000000	1776578471.435435
2921.805000	-27779.310000	15711.660000	67239.945000	23219.010000	4371.480000	-23799.150000	-5370.480000	-8.607252	-65.474434	5.936545	7.684105	-13.120635	-6.019545	3.455880	1.849745	-5.341000	-1.541260	-9.583280	-0.918516	0.270934	0.268981	-1.000000	-1.000000	-1.000000	-1.000000	-1.000000	-1.000000	-1.000000	63.000000	0.000000	-1.000000	-1.000000	1035647.000000	1776578471.435447
2897.280000	-27755.955000	15776.820000	67371.165000	23317.785000	4412.970000	-23805.900000	-5398.155000	-8.973053	-70.868773	2.821847	12.208587	-24.957551	-18.176595	3.254728	0.114204	-5.341000	-1.541260	-9.583280	-0.918516	0.270934	0.268981	-1.000000	-1.000000	-1.000000	-1.000000	-1.000000	-1.000000	-1.000000	63.000000	0.000000	-1.000000	-1.000000	1035648.000000	1776578471.435451
2934.000000	-27661.410000	15813.630000	67372.020000	23281.020000	4383.540000	-23806.530000	-5387.625000	-7.287060	-41.196398	-5.212495	21.700552	-13.557476	-15.641011	1.015367	-4.317969	-5.341000	-1.541260	-9.583280	-0.918516	0.270934	0.268981	-1.000000	-1.000000	-1.000000	-1.000000	-1.000000	-1.000000	-1.000000	63.000000	0.000000	-1.000000	-1.000000	1035649.000000	1776578471.438568
2938.320000	-27725.265000	15842.790000	67321.665000	23280.885000	4399.470000	-23797.305000	-5381.325000	-2.204692	10.651220	-0.088888	28.444106	8.103378	-4.369957	-2.377898	-8.524972	-5.341000	-1.541260	-9.583280	-0.918516	0.270934	0.268981	-1.000000	-1.000000	-1.000000	-1.000000	-1.000000	-1.000000	-1.000000	63.000000	0.000000	-1.000000	-1.000000	1035650.000000	1776578471.438585
2940.120000	-27763.515000	15860.880000	67269.420000	23311.890000	4403.430000	-23792.670000	-5373.090000	5.961379	53.534638	18.856971	17.110141	18.997292	4.928916	-4.288056	-7.870269	-9.568020	1.632820	-17.014900	-0.920286	0.287414	0.272338	-1.000000	-1.000000	-1.000000	-1.000000	-1.000000	-1.000000	-1.000000	63.000000	0.000000	-1.000000	-1.000000	1035651.000000	1776578471.440739
2948.625000	-27765.045000	15937.245000	67252.275000	23293.755000	4386.555000	-23804.730000	-5373.180000	12.735242	62.382894	37.307010	-14.002999	13.026774	7.311134	-3.594929	-1.943590	-9.568020	1.632820	-17.014900	-0.920286	0.287414	0.272338	-1.000000	-1.000000	-1.000000	-1.000000	-1.000000	-1.000000	-1.000000	63.000000	0.000000	-1.000000	-1.000000	1035652.000000	1776578471.440775
2953.035000	-27686.520000	15939.180000	67277.970000	23279.085000	4386.420000	-23798.205000	-5367.150000	13.986919	40.976407	42.877904	-46.031158	-2.857171	3.322023	-1.778855	5.250302	-9.568020	1.632820	-17.014900	-0.920286	0.287414	0.272338	-1.000000	-1.000000	-1.000000	-1.000000	-1.000000	-1.000000	-1.000000	63.000000	0.000000	-1.000000	-1.000000	1035653.000000	1776578471.444704
2944.305000	-27633.285000	15916.860000	67311.270000	23289.660000	4374.360000	-23792.715000	-5371.695000	9.248345	14.152939	30.322010	-55.806750	-18.901994	-3.465915	-0.229514	9.320006	-9.568020	1.632820	-17.014900	-0.920286	0.287414	0.272338	-1.000000	-1.000000	-1.000000	-1.000000	-1.000000	-1.000000	-1.000000	63.000000	0.000000	-1.000000	-1.000000	1035654.000000	1776578471.444741
2946.510000	-27685.440000	15897.060000	67328.955000	23295.825000	4371.885000	-23792.760000	-5370.570000	0.790761	-0.952323	1.344676	-35.819868	-26.345224	-8.529602	1.089998	8.399951	-9.568020	1.632820	-17.014900	-0.920286	0.287414	0.272338	-1.000000	-1.000000	-1.000000	-1.000000	-1.000000	-1.000000	-1.000000	63.000000	0.000000	-1.000000	-1.000000	1035655.000000	1776578471.448526
2938.860000	-27738.540000	15908.265000	67331.385000	23313.465000	4409.640000	-23802.570000	-5375.880000	-7.683975	-9.011425	-32.686587	0.593431	-21.172431	-8.349082	1.928814	3.590843	-9.568020	1.632820	-17.014900	-0.920286	0.287414	0.272338	-1.000000	-1.000000	-1.000000	-1.000000	-1.000000	-1.000000	-1.000000	63.000000	0.000000	-1.000000	-1.000000	1035656.000000	1776578471.448545
2941.605000	-27704.205000	15932.835000	67324.455000	23299.470000	4409.055000	-23806.215000	-5376.690000	-12.663776	-19.918066	-54.386714	31.196748	-7.004682	-1.720257	1.364820	-2.274913	-9.568020	1.632820	-17.014900	-0.920286	0.287414	0.272338	-1.000000	-1.000000	-1.000000	-1.000000	-1.000000	-1.000000	-1.000000	63.000000	0.000000	-1.000000	-1.000000	1035657.000000	1776578471.452627
2947.770000	-27654.795000	15905.385000	67301.955000	23279.445000	4392.045000	-23806.485000	-5375.520000	-12.340219	-29.156750	-53.111467	40.735256	7.092772	7.397746	-0.481559	-6.344035	-9.568020	1.632820	-17.014900	-0.920286	0.287414	0.272338	-1.000000	-1.000000	-1.000000	-1.000000	-1.000000	-1.000000	-1.000000	63.000000	0.000000	-1.000000	-1.000000	1035658.000000	1776578471.452651
2954.745000	-27647.460000	15857.685000	67278.915000	23275.980000	4399.110000	-23801.760000	-5371.740000	-7.100114	-25.517186	-34.075265	28.183266	13.386434	11.864648	-1.950575	-6.955890	-9.568020	1.632820	-17.014900	-0.920286	0.287414	0.272338	-1.000000	-1.000000	-1.000000	-1.000000	-1.000000	-1.000000	-1.000000	63.000000	0.000000	-1.000000	-1.000000	1035659.000000	1776578471.456733
2949.075000	-27676.575000	15873.120000	67286.520000	23277.780000	4397.130000	-23803.335000	-5374.935000	0.344346	-9.932319	-11.141269	4.531597	11.428047	8.958145	-1.569617	-4.369786	-9.568020	1.632820	-17.014900	-0.920286	0.287414	0.272338	-1.000000	-1.000000	-1.000000	-1.000000	-1.000000	-1.000000	-1.000000	63.000000	0.000000	-1.000000	-1.000000	1035660.000000	1776578471.456777
2944.215000	-27668.700000	15875.325000	67303.620000	23283.585000	4391.775000	-23803.065000	-5377.410000	5.977837	5.082126	7.584889	-14.686148	6.543528	1.923760	0.364404	-0.601837	-5.112100	4.715340	-29.283940	-0.909544	0.282958	0.292846	-1.000000	-1.000000	-1.000000	-1.000000	-1.000000	-1.000000	-1.000000	63.000000	0.000000	-1.000000	-1.000000	1035661.000000	1776578471.460735
2939.850000	-27651.690000	15872.670000	67313.340000	23284.170000	4386.600000	-23802.075000	-5378.040000	7.158671	11.081676	21.222389	-19.237444	3.586956	-4.810992	2.333106	2.135948	-5.112100	4.715340	-29.283940	-0.909544	0.282958	0.292846	-1.000000	-1.000000	-1.000000	-1.000000	-1.000000	-1.000000	-1.000000	63.000000	0.000000	-1.000000	-1.000000	1035662.000000	1776578471.460765
2953.260000	-27692.550000	15897.735000	67320.360000	23274.225000	4374.135000	-23801.805000	-5364.450000	4.697776	9.046875	29.517887	-10.190399	3.245915	-8.664413	3.157557	3.246521	-5.112100	4.715340	-29.283940	-0.909544	0.282958	0.292846	-1.000000	-1.000000	-1.000000	-1.000000	-1.000000	-1.000000	-1.000000	63.000000	0.000000	-1.000000	-1.000000	1035663.000000	1776578471.504381
2960.145000	-27748.530000	15896.160000	67307.355000	23253.570000	4353.345000	-23803.515000	-5359.635000	1.891556	1.616784	31.604227	2.995515	2.880862	-9.370446	2.579854	3.715909	-5.112100	4.715340	-29.283940	-0.909544	0.282958	0.292846	-1.000000	-1.000000	-1.000000	-1.000000	-1.000000	-1.000000	-1.000000	63.000000	0.000000	-1.000000	-1.000000	1035664.000000	1776578471.504396
2957.490000	-27709.695000	15887.340000	67299.975000	23268.285000	4371.525000	-23794.560000	-5364.855000	0.951779	-8.098191	26.660824	10.512519	0.562168	-7.511302	1.162515	3.978474	-5.112100	4.715340	-29.283940	-0.909544	0.282958	0.292846	-1.000000	-1.000000	-1.000000	-1.000000	-1.000000	-1.000000	-1.000000	63.000000	0.000000	-1.000000	-1.000000	1035665.000000	1776578471.504410
2940.345000	-27725.040000	15879.060000	67302.045000	23299.335000	4405.410000	-23791.815000	-5375.745000	0.775635	-12.589489	14.686258	8.897981	-1.484604	-2.175552	-0.002750	2.839286	-5.112100	4.715340	-29.283940	-0.909544	0.282958	0.292846	-1.000000	-1.000000	-1.000000	-1.000000	-1.000000	-1.000000	-1.000000	63.000000	0.000000	-1.000000	-1.000000	1035666.000000	1776578471.504415
2932.155000	-27751.005000	15869.250000	67303.665000	23316.615000	4427.865000	-23791.275000	-5378.670000	-1.009959	-7.291334	-1.223224	1.948426	0.488271	7.335185	-0.350180	-0.546236	-5.112100	4.715340	-29.283940	-0.909544	0.282958	0.292846	-1.000000	-1.000000	-1.000000	-1.000000	-1.000000	-1.000000	-1.000000	63.000000	0.000000	-1.000000	-1.000000	1035667.000000	1776578471.504420
2937.960000	-27747.180000	15865.155000	67303.350000	23307.885000	4418.370000	-23791.095000	-5373.720000	-4.250026	3.119282	-15.235026	-4.257018	5.497369	17.000346	-0.417938	-4.564688	-5.112100	4.715340	-29.283940	-0.909544	0.282958	0.292846	-1.000000	-1.000000	-1.000000	-1.000000	-1.000000	-1.000000	-1.000000	63.000000	0.000000	-1.000000	-1.000000	1035668.000000	1776578471.504425
2943.720000	-27724.545000	15879.915000	67309.380000	23289.660000	4401.585000	-23791.095000	-5369.265000	-5.870843	12.343176	-21.789754	-6.280994	7.476142	19.134928	-0.902223	-6.204155	-5.112100	4.715340	-29.283940	-0.909544	0.282958	0.292846	-1.000000	-1.000000	-1.000000	-1.000000	-1.000000	-1.000000	-1.000000	63.000000	0.000000	-1.000000	-1.000000	1035669.000000	1776578471.504429
2941.830000	-27738.045000	15895.035000	67312.890000	23275.665000	4370.940000	-23793.705000	-5369.220000	-3.680184	17.931548	-18.323238	-4.181456	2.029610	9.503250	-1.827655	-4.133289	-5.112100	4.715340	-29.283940	-0.909544	0.282958	0.292846	-1.000000	-1.000000	-1.000000	-1.000000	-1.000000	-1.000000	-1.000000	63.000000	0.000000	-1.000000	-1.000000	1035670.000000	1776578471.504433
2945.115000	-27712.620000	15877.755000	67294.935000	23265.945000	4364.145000	-23795.955000	-5370.705000	1.014619	18.753258	-7.587211	-0.507505	-8.462577	-7.801305	-2.743659	0.004620	-13.657700	9.995300	-23.927680	-0.895383	0.278014	0.286742	-1.000000	-1.000000	-1.000000	-1.000000	-1.000000	-1.000000	-1.000000	63.000000	0.000000	-1.000000	-1.000000	1035671.000000	1776578471.504438
2945.295000	-27706.815000	15882.345000	67303.035000	23276.520000	4400.865000	-23793.660000	-5372.190000	5.128471	14.772889	3.218998	1.619659	-16.717808	-21.854201	-3.054108	3.344876	-13.657700	9.995300	-23.927680	-0.895383	0.278014	0.286742	-1.000000	-1.000000	-1.000000	-1.000000	-1.000000	-1.000000	-1.000000	63.000000	0.000000	-1.000000	-1.000000	1035672.000000	1776578471.504442
2944.125000	-27714.645000	15887.745000	67304.025000	23261.940000	4391.145000	-23792.220000	-5374.845000	6.503779	7.405050	8.515067	1.484859	-16.820278	-22.801629	-2.240212	4.169329	-13.657700	9.995300	-23.927680	-0.895383	0.278014	0.286742	-1.000000	-1.000000	-1.000000	-1.000000	-1.000000	-1.000000	-1.000000	63.000000	0.000000	-1.000000	-1.000000	1035673.000000	1776578471.504450
2933.460000	-27755.190000	15863.535000	67289.355000	23272.830000	4409.685000	-23789.115000	-5377.950000	4.651164	-2.686941	7.712183	0.479378	-8.843609	-10.740142	-0.319500	2.642052	-13.657700	9.995300	-23.927680	-0.895383	0.278014	0.286742	-1.000000	-1.000000	-1.000000	-1.000000	-1.000000	-1.000000	-1.000000	63.000000	0.000000	-1.000000	-1.000000	1035674.000000	1776578471.504454
2924.145000	-27780.075000	15850.035000	67294.755000	23291.550000	4403.880000	-23790.015000	-5378.940000	0.377003	-14.909782	2.537559	-0.549384	2.869782	5.308070	1.905596	0.131631	-13.657700	9.995300	-23.927680	-0.895383	0.278014	0.286742	-1.000000	-1.000000	-1.000000	-1.000000	-1.000000	-1.000000	-1.000000	63.000000	0.000000	-1.000000	-1.000000	1035675.000000	1776578471.504458
2924.955000	-27735.480000	15854.535000	67296.150000	23300.595000	4413.555000	-23782.230000	-5377.995000	-4.305963	-24.422233	-4.009713	-1.041987	13.674420	15.976440	3.418853	-1.767774	-13.657700	9.995300	-23.927680	-0.895383	0.278014	0.286742	-1.000000	-1.000000	-1.000000	-1.000000	-1.000000	-1.000000	-1.000000	63.000000	0.000000	-1.000000	-1.000000	1035676.000000	1776578471.504462
2944.170000	-27655.650000	15898.050000	67282.290000	23269.230000	4398.210000	-23791.500000	-5376.375000	-6.358602	-21.815964	-6.743316	-0.542390	18.897828	16.986954	3.602397	-2.066888	-13.657700	9.995300	-23.927680	-0.895383	0.278014	0.286742	-1.000000	-1.000000	-1.000000	-1.000000	-1.000000	-1.000000	-1.000000	63.000000	0.000000	-1.000000	-1.000000	1035677.000000	1776578471.504467
2947.185000	-27721.170000	15877.980000	67228.560000	23229.945000	4386.555000	-23790.105000	-5373.585000	-3.706697	-4.639559	-2.290102	-0.750758	14.223017	9.404685	2.218633	-0.821164	-13.657700	9.995300	-23.927680	-0.895383	0.278014	0.286742	-1.000000	-1.000000	-1.000000	-1.000000	-1.000000	-1.000000	-1.000000	63.000000	0.000000	-1.000000	-1.000000	1035678.000000	1776578471.504471
2947.635000	-27723.690000	15833.745000	67179.420000	23226.165000	4362.705000	-23788.395000	-5372.685000	2.026815	13.713781	4.708956	-4.731059	0.451479	-2.406846	-0.170453	1.049094	-13.657700	9.995300	-23.927680	-0.895383	0.278014	0.286742	-1.000000	-1.000000	-1.000000	-1.000000	-1.000000	-1.000000	-1.000000	63.000000	0.000000	-1.000000	-1.000000	1035679.000000	1776578471.504475
2948.805000	-27725.940000	15833.430000	67186.035000	23249.205000	4377.645000	-23781.330000	-5368.320000	6.480060	18.312197	5.794938	-11.328290	-13.415159	-12.471712	-1.997333	2.431870	-13.657700	9.995300	-23.927680	-0.895383	0.278014	0.286742	-1.000000	-1.000000	-1.000000	-1.000000	-1.000000	-1.000000	-1.000000	63.000000	0.000000	-1.000000	-1.000000	1035680.000000	1776578471.504479
2942.685000	-27768.195000	15844.770000	67299.930000	23264.550000	4397.355000	-23784.885000	-5371.290000	6.570924	8.500226	0.292793	-11.184080	-16.629018	-14.824247	-2.126317	2.629585	-30.092720	20.158460	-14.664860	-0.898679	0.295837	0.265197	-1.000000	-1.000000	-1.000000	-1.000000	-1.000000	-1.000000	-1.000000	63.000000	0.000000	-1.000000	-1.000000	1035681.000000	1776578471.504486
2928.195000	-27811.395000	15822.495000	67329.180000	23277.645000	4400.280000	-23783.580000	-5375.295000	2.276463	-7.439420	-4.947754	4.908909	-6.922563	-7.496970	-1.053580	1.420812	-30.092720	20.158460	-14.664860	-0.898679	0.295837	0.265197	-1.000000	-1.000000	-1.000000	-1.000000	-1.000000	-1.000000	-1.000000	63.000000	0.000000	-1.000000	-1.000000	1035682.000000	1776578471.504490
2939.085000	-27778.005000	15831.810000	67302.315000	23266.260000	4407.345000	-23784.840000	-5374.395000	-3.849545	-19.955982	-5.435597	29.689567	7.655487	4.604243	-0.049453	-0.809095	-30.092720	20.158460	-14.664860	-0.898679	0.295837	0.265197	-1.000000	-1.000000	-1.000000	-1.000000	-1.000000	-1.000000	-1.000000	63.000000	0.000000	-1.000000	-1.000000	1035683.000000	1776578471.505186
2949.255000	-27757.035000	15901.650000	67296.240000	23216.760000	4408.335000	-23791.905000	-5381.595000	-7.600794	-19.781069	-0.429413	41.730188	15.408149	13.544244	0.097630	-2.992920	-30.092720	20.158460	-14.664860	-0.898679	0.295837	0.265197	-1.000000	-1.000000	-1.000000	-1.000000	-1.000000	-1.000000	-1.000000	63.000000	0.000000	-1.000000	-1.000000	1035684.000000	1776578471.505194
2944.305000	-27736.920000	15963.165000	67316.625000	23238.405000	4395.150000	-23791.995000	-5383.215000	-6.296984	-4.466294	10.526423	29.167974	10.479108	14.353017	-0.645956	-4.139159	-30.092720	20.158460	-14.664860	-0.898679	0.295837	0.265197	-1.000000	-1.000000	-1.000000	-1.000000	-1.000000	-1.000000	-1.000000	63.000000	0.000000	-1.000000	-1.000000	1035685.000000	1776578471.508734
2944.260000	-27760.140000	15875.370000	67279.500000	23286.465000	4405.500000	-23779.755000	-5373.675000	-1.622853	16.440962	21.935062	0.435770	-0.579887	7.424653	-1.301707	-3.633875	-30.092720	20.158460	-14.664860	-0.898679	0.295837	0.265197	-1.000000	-1.000000	-1.000000	-1.000000	-1.000000	-1.000000	-1.000000	63.000000	0.000000	-1.000000	-1.000000	1035686.000000	1776578471.508744
2942.460000	-27770.310000	15842.880000	67263.615000	23259.600000	4397.580000	-23778.450000	-5369.940000	2.559140	28.238740	20.028024	-28.294160	-6.304753	-2.374610	-0.477507	-1.147182	-30.092720	20.158460	-14.664860	-0.898679	0.295837	0.265197	-1.000000	-1.000000	-1.000000	-1.000000	-1.000000	-1.000000	-1.000000	63.000000	0.000000	-1.000000	-1.000000	1035687.000000	1776578471.512747
2955.375000	-27683.010000	15851.430000	67275.450000	23214.600000	4379.580000	-23785.830000	-5370.480000	4.246791	25.268914	-0.376425	-44.509493	-5.396416	-9.926546	1.535177	2.440031	-30.092720	20.158460	-14.664860	-0.898679	0.295837	0.265197	-1.000000	-1.000000	-1.000000	-1.000000	-1.000000	-1.000000	-1.000000	63.000000	0.000000	-1.000000	-1.000000	1035688.000000	1776578471.512758
2962.080000	-27677.430000	15854.625000	67259.430000	23196.105000	4381.830000	-23779.395000	-5364.405000	4.166488	15.237345	-24.994360	-42.265177	-5.471409	-13.105825	2.781619	5.073143	-30.092720	20.158460	-14.664860	-0.898679	0.295837	0.265197	-1.000000	-1.000000	-1.000000	-1.000000	-1.000000	-1.000000	-1.000000	63.000000	0.000000	-1.000000	-1.000000	1035689.000000	1776578471.516657
2954.475000	-27714.915000	15871.455000	67250.700000	23219.235000	4388.310000	-23778.855000	-5366.205000	3.397919	5.305335	-35.198144	-24.716432	-8.764294	-11.405353	2.315662	5.317376	-30.092720	20.158460	-14.664860	-0.898679	0.295837	0.265197	-1.000000	-1.000000	-1.000000	-1.000000	-1.000000	-1.000000	-1.000000	63.000000	0.000000	-1.000000	-1.000000	1035690.000000	1776578471.516671
2945.835000	-27717.705000	15884.145000	67268.835000	23224.365000	4381.335000	-23786.640000	-5377.140000	1.511250	-6.186869	-25.154575	-1.549898	-9.113652	-5.316221	0.731005	3.006454	-46.451440	16.435020	-9.857960	-0.925291	0.304015	0.246581	-1.000000	-1.000000	-1.000000	-1.000000	-1.000000	-1.000000	-1.000000	63.000000	0.000000	-1.000000	-1.000000	1035691.000000	1776578471.520814
2943.540000	-27694.440000	15884.775000	67309.875000	23304.105000	4387.050000	-23786.010000	-5380.695000	-1.914294	-19.144128	-3.089980	19.070346	-0.954537	2.458512	-1.264918	-1.141906	-46.451440	16.435020	-9.857960	-0.925291	0.304015	0.246581	-1.000000	-1.000000	-1.000000	-1.000000	-1.000000	-1.000000	-1.000000	63.000000	0.000000	-1.000000	-1.000000	1035692.000000	1776578471.520822
2949.030000	-27670.095000	15876.945000	67317.795000	23328.090000	4415.310000	-23776.830000	-5378.535000	-5.267574	-26.144490	16.915788	32.934975	14.606515	8.946956	-2.705060	-5.201321	-46.451440	16.435020	-9.857960	-0.925291	0.304015	0.246581	-1.000000	-1.000000	-1.000000	-1.000000	-1.000000	-1.000000	-1.000000	63.000000	0.000000	-1.000000	-1.000000	1035693.000000	1776578471.524732
2940.930000	-27698.040000	15869.835000	67297.815000	23314.950000	4403.205000	-23777.370000	-5378.985000	-6.194956	-22.165657	24.570730	36.111249	28.352537	12.724906	-2.403331	-6.709436	-46.451440	16.435020	-9.857960	-0.925291	0.304015	0.246581	-1.000000	-1.000000	-1.000000	-1.000000	-1.000000	-1.000000	-1.000000	63.000000	0.000000	-1.000000	-1.000000	1035694.000000	1776578471.524743
2942.955000	-27785.520000	15865.335000	67290.930000	23272.380000	4384.395000	-23776.740000	-5370.660000	-4.227111	-13.083702	18.725559	25.611152	27.405926	11.940707	-0.523305	-4.629430	-46.451440	16.435020	-9.857960	-0.925291	0.304015	0.246581	-1.000000	-1.000000	-1.000000	-1.000000	-1.000000	-1.000000	-1.000000	63.000000	0.000000	-1.000000	-1.000000	1035695.000000	1776578471.569277
2947.905000	-27773.055000	15843.105000	67265.370000	23266.800000	4376.700000	-23771.115000	-5369.940000	-0.651506	-8.505324	5.455424	4.629878	7.510054	5.095610	1.461105	-0.090296	-46.451440	16.435020	-9.857960	-0.925291	0.304015	0.246581	-1.000000	-1.000000	-1.000000	-1.000000	-1.000000	-1.000000	-1.000000	63.000000	0.000000	-1.000000	-1.000000	1035696.000000	1776578471.569293
2944.305000	-27758.520000	15833.295000	67255.695000	23274.090000	4392.855000	-23765.040000	-5372.910000	2.990339	-7.598871	-7.673322	-17.488176	-20.087685	-4.691073	2.546866	4.311335	-46.451440	16.435020	-9.857960	-0.925291	0.304015	0.246581	-1.000000	-1.000000	-1.000000	-1.000000	-1.000000	-1.000000	-1.000000	63.000000	0.000000	-1.000000	-1.000000	1035697.000000	1776578471.569309
2945.655000	-27756.180000	15831.135000	67248.810000	23223.240000	4396.320000	-23765.265000	-5371.155000	5.237135	-1.646172	-15.060430	-30.846905	-38.561932	-10.808396	2.613553	6.098416	-46.451440	16.435020	-9.857960	-0.925291	0.304015	0.246581	-1.000000	-1.000000	-1.000000	-1.000000	-1.000000	-1.000000	-1.000000	63.000000	0.000000	-1.000000	-1.000000	1035698.000000	1776578471.569314
2947.365000	-27761.310000	15838.155000	67216.050000	23141.880000	4390.245000	-23768.775000	-5370.615000	5.285112	11.280134	-13.997880	-30.764642	-41.477160	-9.854944	1.586088	4.732952	-46.451440	16.435020	-9.857960	-0.925291	0.304015	0.246581	-1.000000	-1.000000	-1.000000	-1.000000	-1.000000	-1.000000	-1.000000	63.000000	0.000000	-1.000000	-1.000000	1035699.000000	1776578471.569320
2939.850000	-27815.490000	15855.525000	67232.340000	23231.385000	4409.910000	-23781.510000	-5382.900000	3.447733	22.821807	-5.340599	-19.582371	-31.639839	-4.069318	-0.722984	1.413079	-46.451440	16.435020	-9.857960	-0.925291	0.304015	0.246581	-1.000000	-1.000000	-1.000000	-1.000000	-1.000000	-1.000000	-1.000000	63.000000	0.000000	-1.000000	-1.000000	1035700.000000	1776578471.569324
2943.945000	-27778.140000	15863.535000	67288.995000	23332.140000	4412.070000	-23781.015000	-5384.250000	0.636060	24.385954	6.675101	-1.790555	-8.108103	2.593996	-3.823205	-2.401519	-43.429960	3.784480	-2.258480	-0.949644	0.281799	0.242248	-1.000000	-1.000000	-1.000000	-1.000000	-1.000000	-1.000000	-1.000000	63.000000	0.000000	-1.000000	-1.000000	1035701.000000	1776578471.569329
2951.415000	-27739.080000	15881.490000	67335.120000	23315.580000	4394.790000	-23774.580000	-5377.680000	-1.725328	17.783239	16.265705	19.179278	27.416513	6.714720	-5.843492	-5.029949	-43.429960	3.784480	-2.258480	-0.949644	0.281799	0.242248	-1.000000	-1.000000	-1.000000	-1.000000	-1.000000	-1.000000	-1.000000	63.000000	0.000000	-1.000000	-1.000000	1035702.000000	1776578471.569333
2956.545000	-27700.335000	15880.365000	67300.560000	23272.560000	4383.630000	-23772.870000	-5372.640000	-2.209982	12.018211	18.969134	36.092418	56.048439	5.627536	-4.763761	-4.731858	-43.429960	3.784480	-2.258480	-0.949644	0.281799	0.242248	-1.000000	-1.000000	-1.000000	-1.000000	-1.000000	-1.000000	-1.000000	63.000000	0.000000	-1.000000	-1.000000	1035703.000000	1776578471.569338
2958.030000	-27711.180000	15887.295000	67290.660000	23252.355000	4383.045000	-23773.590000	-5368.320000	-0.856424	10.350925	13.655108	37.513832	55.334655	-0.096336	-0.820640	-1.414101	-43.429960	3.784480	-2.258480	-0.949644	0.281799	0.242248	-1.000000	-1.000000	-1.000000	-1.000000	-1.000000	-1.000000	-1.000000	63.000000	0.000000	-1.000000	-1.000000	1035704.000000	1776578471.569342
2958.480000	-27720.180000	15904.305000	67300.065000	23261.445000	4373.505000	-23778.765000	-5369.175000	0.745324	7.092472	3.178237	19.677094	24.715684	-6.183171	3.374174	2.776729	-43.429960	3.784480	-2.258480	-0.949644	0.281799	0.242248	-1.000000	-1.000000	-1.000000	-1.000000	-1.000000	-1.000000	-1.000000	63.000000	0.000000	-1.000000	-1.000000	1035705.000000	1776578471.569347
2957.670000	-27751.005000	15901.335000	67295.970000	23279.715000	4385.925000	-23781.105000	-5369.580000	1.049754	-3.506937	-7.209802	-6.932538	-13.978018	-8.312246	5.209027	5.114581	-43.429960	3.784480	-2.258480	-0.949644	0.281799	0.242248	-1.000000	-1.000000	-1.000000	-1.000000	-1.000000	-1.000000	-1.000000	63.000000	0.000000	-1.000000	-1.000000	1035706.000000	1776578471.569351
2958.840000	-27780.345000	15830.460000	67257.405000	23257.260000	4391.370000	-23783.265000	-5370.795000	-0.175046	-19.900614	-15.020617	-28.058352	-37.960906	-4.935619	4.093876	4.329797	-43.429960	3.784480	-2.258480	-0.949644	0.281799	0.242248	-1.000000	-1.000000	-1.000000	-1.000000	-1.000000	-1.000000	-1.000000	63.000000	0.000000	-1.000000	-1.000000	1035707.000000	1776578471.569355
2961.000000	-27759.915000	15831.585000	67245.480000	23244.930000	4374.045000	-23783.310000	-5368.140000	-1.895513	-33.512194	-21.473406	-36.852154	-40.304781	1.708919	1.436623	1.306823	-43.429960	3.784480	-2.258480	-0.949644	0.281799	0.242248	-1.000000	-1.000000	-1.000000	-1.000000	-1.000000	-1.000000	-1.000000	63.000000	0.000000	-1.000000	-1.000000	1035708.000000	1776578471.569359
2952.720000	-27728.640000	15849.045000	67271.670000	23259.465000	4399.110000	-23786.370000	-5378.265000	-2.988817	-33.883026	-24.298977	-32.496488	-27.537320	7.208044	-0.891968	-2.060075	-43.429960	3.784480	-2.258480	-0.949644	0.281799	0.242248	-1.000000	-1.000000	-1.000000	-1.000000	-1.000000	-1.000000	-1.000000	63.000000	0.000000	-1.000000	-1.000000	1035709.000000	1776578471.569364
2953.710000	-27735.840000	15840.270000	67283.055000	23273.325000	4413.240000	-23773.590000	-5373.855000	-3.191088	-17.725601	-17.758390	-16.314573	-8.513818	9.557861	-1.663711	-4.352811	-43.429960	3.784480	-2.258480	-0.949644	0.281799	0.242248	-1.000000	-1.000000	-1.000000	-1.000000	-1.000000	-1.000000	-1.000000	63.000000	0.000000	-1.000000	-1.000000	1035710.000000	1776578471.569368
2954.295000	-27748.935000	15841.980000	67273.785000	23271.885000	4403.385000	-23776.020000	-5372.595000	-2.571140	5.643161	-2.259021	5.765829	9.687993	9.288507	-0.569622	-4.727363	-37.097060	-5.325740	2.563680	-0.951353	0.244628	0.250854	-1.000000	-1.000000	-1.000000	-1.000000	-1.000000	-1.000000	-1.000000	63.000000	0.000000	-1.000000	-1.000000	1035711.000000	1776578471.569372
2958.885000	-27749.520000	15844.500000	67261.950000	23258.385000	4396.455000	-23775.570000	-5370.120000	-0.984049	22.076594	14.408661	23.032183	20.751030	5.950958	1.329469	-2.925499	-37.097060	-5.325740	2.563680	-0.951353	0.244628	0.250854	-1.000000	-1.000000	-1.000000	-1.000000	-1.000000	-1.000000	-1.000000	63.000000	0.000000	-1.000000	-1.000000	1035712.000000	1776578471.569376
2965.320000	-27748.260000	15848.055000	67259.565000	23256.360000	4397.760000	-23760.585000	-5363.370000	1.455750	24.862218	24.556799	27.478755	21.016571	-0.578557	2.501362	0.253527	-37.097060	-5.325740	2.563680	-0.951353	0.244628	0.250854	-1.000000	-1.000000	-1.000000	-1.000000	-1.000000	-1.000000	-1.000000	63.000000	0.000000	-1.000000	-1.000000	1035713.000000	1776578471.569381
2959.830000	-27753.255000	15852.735000	67271.400000	23269.095000	4392.135000	-23757.615000	-5367.555000	3.829476	17.061538	25.173242	19.990555	12.764454	-7.608207	2.658238	3.245837	-37.097060	-5.325740	2.563680	-0.951353	0.244628	0.250854	-1.000000	-1.000000	-1.000000	-1.000000	-1.000000	-1.000000	-1.000000	63.000000	0.000000	-1.000000	-1.000000	1035714.000000	1776578471.569385
2955.780000	-27756.990000	15853.185000	67276.755000	23288.895000	4398.795000	-23757.030000	-5371.650000	4.562769	5.555000	17.827801	8.046388	3.009836	-11.469818	2.040247	4.376483	-37.097060	-5.325740	2.563680	-0.951353	0.244628	0.250854	-1.000000	-1.000000	-1.000000	-1.000000	-1.000000	-1.000000	-1.000000	63.000000	0.000000	-1.000000	-1.000000	1035715.000000	1776578471.569390
2948.580000	-27765.765000	15846.120000	67269.105000	23263.695000	4401.585000	-23757.255000	-5376.195000	2.728680	-4.119433	6.411079	-1.594090	-2.902338	-10.264274	0.374151	2.856017	-37.097060	-5.325740	2.563680	-0.951353	0.244628	0.250854	-1.000000	-1.000000	-1.000000	-1.000000	-1.000000	-1.000000	-1.000000	63.000000	0.000000	-1.000000	-1.000000	1035716.000000	1776578471.569393
2954.430000	-27759.915000	15854.400000	67275.585000	23279.130000	4430.880000	-23760.720000	-5374.080000	-0.641185	-9.158470	-4.845215	-6.847550	-5.186242	-4.401804	-2.278146	-0.280263	-37.097060	-5.325740	2.563680	-0.951353	0.244628	0.250854	-1.000000	-1.000000	-1.000000	-1.000000	-1.000000	-1.000000	-1.000000	63.000000	0.000000	-1.000000	-1.000000	1035717.000000	1776578471.573358
2952.315000	-27761.895000	15853.905000	67273.965000	23279.310000	4426.830000	-23773.185000	-5379.165000	-3.164388	-8.995088	-12.250934	-8.434430	-5.822724	3.728269	-5.167374	-2.913794	-37.097060	-5.325740	2.563680	-0.951353	0.244628	0.250854	-1.000000	-1.000000	-1.000000	-1.000000	-1.000000	-1.000000	-1.000000	63.000000	0.000000	-1.000000	-1.000000	1035718.000000	1776578471.573379
2952.180000	-27763.740000	15851.565000	67268.925000	23266.440000	4399.335000	-23772.330000	-5382.135000	-3.325815	-5.070878	-14.094616	-7.657419	-5.488850	9.346481	-7.257263	-3.715340	-37.097060	-5.325740	2.563680	-0.951353	0.244628	0.250854	-1.000000	-1.000000	-1.000000	-1.000000	-1.000000	-1.000000	-1.000000	63.000000	0.000000	-1.000000	-1.000000	1035719.000000	1776578471.576846
2949.345000	-27769.545000	15844.455000	67259.565000	23260.005000	4409.055000	-23775.120000	-5386.365000	-1.643263	-0.309451	-11.578928	-6.077425	-4.990961	8.051032	-7.268515	-2.846623	-37.097060	-5.325740	2.563680	-0.951353	0.244628	0.250854	-1.000000	-1.000000	-1.000000	-1.000000	-1.000000	-1.000000	-1.000000	63.000000	0.000000	-1.000000	-1.000000	1035720.000000	1776578471.576858
2954.700000	-27766.665000	15848.100000	67261.995000	23249.925000	4403.610000	-23775.345000	-5375.115000	0.471177	2.792161	-7.198175	-4.674494	-4.939509	1.202465	-4.486206	-0.925405	-31.481380	-7.782600	-1.510740	-0.939451	0.221984	0.251098	-1.000000	-1.000000	-1.000000	-1.000000	-1.000000	-1.000000	-1.000000	63.000000	0.000000	-1.000000	-1.000000	1035721.000000	1776578471.580849
2958.345000	-27764.640000	15849.180000	67262.130000	23256.675000	4398.210000	-23777.145000	-5369.670000	2.166280	3.705742	-2.582294	-3.057887	-4.460632	-5.535774	0.188172	1.802408	-31.481380	-7.782600	-1.510740	-0.939451	0.221984	0.251098	-1.000000	-1.000000	-1.000000	-1.000000	-1.000000	-1.000000	-1.000000	63.000000	0.000000	-1.000000	-1.000000	1035722.000000	1776578471.580857
2971.170000	-27755.280000	15857.145000	67267.080000	23246.550000	4377.870000	-23773.185000	-5360.445000	3.362845	3.456725	1.706978	-0.450021	-2.271568	-8.565054	4.802966	4.801081	-31.481380	-7.782600	-1.510740	-0.939451	0.221984	0.251098	-1.000000	-1.000000	-1.000000	-1.000000	-1.000000	-1.000000	-1.000000	63.000000	0.000000	-1.000000	-1.000000	1035723.000000	1776578471.584750
2968.920000	-27763.695000	15845.445000	67252.680000	23222.250000	4366.575000	-23769.630000	-5361.255000	4.012951	2.916218	4.969975	2.619754	0.953444	-8.118432	7.766379	6.637726	-31.481380	-7.782600	-1.510740	-0.939451	0.221984	0.251098	-1.000000	-1.000000	-1.000000	-1.000000	-1.000000	-1.000000	-1.000000	63.000000	0.000000	-1.000000	-1.000000	1035724.000000	1776578471.584778
2957.760000	-27772.065000	15842.790000	67256.910000	23258.970000	4390.605000	-23773.230000	-5372.235000	3.232738	1.631537	5.895675	4.420826	3.569257	-5.045681	8.312469	5.597715	-31.481380	-7.782600	-1.510740	-0.939451	0.221984	0.251098	-1.000000	-1.000000	-1.000000	-1.000000	-1.000000	-1.000000	-1.000000	63.000000	0.000000	-1.000000	-1.000000	1035725.000000	1776578471.588816
2950.875000	-27776.790000	15837.300000	67266.135000	23270.940000	4414.860000	-23764.860000	-5377.095000	0.023148	-1.061119	3.982726	4.369865	6.387075	1.370582	6.435047	1.109607	-31.481380	-7.782600	-1.510740	-0.939451	0.221984	0.251098	-1.000000	-1.000000	-1.000000	-1.000000	-1.000000	-1.000000	-1.000000	63.000000	0.000000	-1.000000	-1.000000	1035726.000000	1776578471.588825
2941.650000	-27789.975000	15816.735000	67260.780000	23274.180000	4406.805000	-23753.565000	-5381.055000	-4.781464	-4.396935	0.296513	3.586842	10.232862	10.197093	3.311291	-4.972833	-31.481380	-7.782600	-1.510740	-0.939451	0.221984	0.251098	-1.000000	-1.000000	-1.000000	-1.000000	-1.000000	-1.000000	-1.000000	63.000000	0.000000	-1.000000	-1.000000	1035727.000000	1776578471.592746
2942.055000	-27804.105000	15816.780000	67257.045000	23252.445000	4385.970000	-23755.725000	-5381.415000	-8.455732	-6.863411	-3.484576	2.565603	11.845006	15.813069	0.557297	-9.207328	-31.481380	-7.782600	-1.510740	-0.939451	0.221984	0.251098	-1.000000	-1.000000	-1.000000	-1.000000	-1.000000	-1.000000	-1.000000	63.000000	0.000000	-1.000000	-1.000000	1035728.000000	1776578471.592755
2952.945000	-27793.620000	15853.635000	67265.010000	23255.415000	4387.320000	-23764.005000	-5382.000000	-8.239152	-7.084146	-4.651379	0.993369	7.374598	12.813332	-1.664972	-9.178049	-31.481380	-7.782600	-1.510740	-0.939451	0.221984	0.251098	-1.000000	-1.000000	-1.000000	-1.000000	-1.000000	-1.000000	-1.000000	63.000000	0.000000	-1.000000	-1.000000	1035729.000000	1776578471.596896
2950.200000	-27789.525000	15859.260000	67263.795000	23276.790000	4434.705000	-23769.495000	-5385.825000	-3.455027	-3.815951	-0.506356	-0.624964	-1.446032	3.614027	-4.261013	-5.163089	-31.481380	-7.782600	-1.510740	-0.939451	0.221984	0.251098	-1.000000	-1.000000	-1.000000	-1.000000	-1.000000	-1.000000	-1.000000	63.000000	0.000000	-1.000000	-1.000000	1035730.000000	1776578471.596907
2950.380000	-27778.500000	15860.520000	67270.005000	23276.610000	4438.305000	-23768.685000	-5383.980000	3.317698	2.634393	7.043618	-1.452033	-8.368766	-3.464734	-6.941767	0.434811	-23.256240	-13.764520	-2.578940	-0.942380	0.216003	0.241454	-1.000000	-1.000000	-1.000000	-1.000000	-1.000000	-1.000000	-1.000000	63.000000	0.000000	-1.000000	-1.000000	1035731.000000	1776578471.600702
2956.815000	-27754.425000	15858.990000	67270.905000	23256.990000	4423.005000	-23776.380000	-5383.350000	8.217557	9.783179	11.729758	-1.359128	-10.108406	-4.777487	-8.054343	5.058025	-23.256240	-13.764520	-2.578940	-0.942380	0.216003	0.241454	-1.000000	-1.000000	-1.000000	-1.000000	-1.000000	-1.000000	-1.000000	63.000000	0.000000	-1.000000	-1.000000	1035732.000000	1776578471.600713
2967.345000	-27751.545000	15854.040000	67269.555000	23239.170000	4395.375000	-23771.160000	-5373.630000	9.456437	14.509615	9.303624	-0.893193	-9.116000	-4.842796	-6.473672	7.461714	-23.256240	-13.764520	-2.578940	-0.942380	0.216003	0.241454	-1.000000	-1.000000	-1.000000	-1.000000	-1.000000	-1.000000	-1.000000	63.000000	0.000000	-1.000000	-1.000000	1035733.000000	1776578471.604720
2967.120000	-27781.335000	15835.635000	67261.905000	23240.160000	4370.580000	-23769.630000	-5368.455000	7.651071	13.515623	0.749856	-0.932824	-8.298248	-8.570463	-2.449724	7.753778	-23.256240	-13.764520	-2.578940	-0.942380	0.216003	0.241454	-1.000000	-1.000000	-1.000000	-1.000000	-1.000000	-1.000000	-1.000000	63.000000	0.000000	-1.000000	-1.000000	1035734.000000	1776578471.604736
2963.115000	-27783.270000	15822.360000	67252.230000	23260.230000	4397.445000	-23767.290000	-5370.165000	3.823319	4.921472	-9.653885	-2.063984	-6.560419	-14.060876	2.621715	6.338930	-23.256240	-13.764520	-2.578940	-0.942380	0.216003	0.241454	-1.000000	-1.000000	-1.000000	-1.000000	-1.000000	-1.000000	-1.000000	63.000000	0.000000	-1.000000	-1.000000	1035735.000000	1776578471.608665
2957.805000	-27749.250000	15847.335000	67257.000000	23264.010000	4413.645000	-23776.155000	-5381.055000	-1.270062	-7.167369	-16.336212	-3.695789	-1.279905	-14.035930	6.488717	3.085287	-23.256240	-13.764520	-2.578940	-0.942380	0.216003	0.241454	-1.000000	-1.000000	-1.000000	-1.000000	-1.000000	-1.000000	-1.000000	63.000000	0.000000	-1.000000	-1.000000	1035736.000000	1776578471.608676
2951.595000	-27778.680000	15870.015000	67272.255000	23270.085000	4401.090000	-23771.520000	-5383.935000	-6.363419	-14.708170	-14.261862	-3.791640	6.631657	-4.997365	7.295254	-1.856623	-23.256240	-13.764520	-2.578940	-0.942380	0.216003	0.241454	-1.000000	-1.000000	-1.000000	-1.000000	-1.000000	-1.000000	-1.000000	63.000000	0.000000	-1.000000	-1.000000	1035737.000000	1776578471.612842
