Channel1	Channel2	Channel3	Channel4	Channel5	Channel6	Channel7	Channel8	FilteredChannel1	FilteredChannel2	FilteredChannel3	FilteredChannel4	FilteredChannel5	FilteredChannel6	FilteredChannel7	FilteredChannel8	GyroX	GyroY	GyroZ	AccX	AccY	AccZ	PPG1	PPG2	rawPPG1	rawPPG2	rawPPG3	Hr	Hrv	Battery	Trigger	PhysicalTrigger	AutoTrigger	NumMeasurements	Timestamp
14653.305000	-15778.890000	16460.010000	60969.510000	26387.370000	7998.345000	-23685.615000	8232.345000	9.102663	12.927142	13.003532	9.293884	7.544579	3.282745	-2.497128	4.947646	-18.510380	3.311420	4.654300	-0.706968	0.432677	0.563231	-1.000000	-1.000000	-1.000000	-1.000000	-1.000000	-1.000000	-1.000000	62.000000	0.000000	-1.000000	-1.000000	1226003.000000	1776578852.611906
14620.950000	-15816.240000	16423.875000	60940.980000	26427.510000	8143.020000	-23659.290000	8212.950000	15.519345	16.891474	17.071149	15.003942	18.019678	20.587544	1.523363	11.615942	-18.510380	3.311420	4.654300	-0.706968	0.432677	0.563231	-1.000000	-1.000000	-1.000000	-1.000000	-1.000000	-1.000000	-1.000000	62.000000	0.000000	-1.000000	-1.000000	1226004.000000	1776578852.612192
14620.860000	-15806.475000	16435.035000	60950.925000	26464.905000	8202.420000	-23661.990000	8209.395000	17.451146	15.906576	15.461181	14.710053	24.645199	44.099405	5.550583	15.410278	-18.510380	3.311420	4.654300	-0.706968	0.432677	0.563231	-1.000000	-1.000000	-1.000000	-1.000000	-1.000000	-1.000000	-1.000000	62.000000	0.000000	-1.000000	-1.000000	1226005.000000	1776578852.612198
14643.000000	-15776.415000	16460.055000	60956.190000	26447.760000	8134.875000	-23655.690000	8224.965000	10.766826	8.264971	7.703097	8.600014	25.414187	60.415958	8.311450	11.281516	-18.510380	3.311420	4.654300	-0.706968	0.432677	0.563231	-1.000000	-1.000000	-1.000000	-1.000000	-1.000000	-1.000000	-1.000000	62.000000	0.000000	-1.000000	-1.000000	1226006.000000	1776578852.616620
14649.885000	-15773.220000	16466.580000	60959.385000	26411.850000	8019.765000	-23686.290000	8224.515000	0.093357	-0.618789	-0.436601	1.497252	16.795613	46.948292	7.130047	1.728133	-18.510380	3.311420	4.654300	-0.706968	0.432677	0.563231	-1.000000	-1.000000	-1.000000	-1.000000	-1.000000	-1.000000	-1.000000	62.000000	0.000000	-1.000000	-1.000000	1226007.000000	1776578852.616657
14659.335000	-15770.970000	16468.515000	60956.640000	26378.685000	7941.825000	-23709.870000	8233.560000	-7.697473	-5.939243	-4.614470	-2.924772	-2.496064	-3.419994	0.456172	-7.169711	-18.510380	3.311420	4.654300	-0.706968	0.432677	0.563231	-1.000000	-1.000000	-1.000000	-1.000000	-1.000000	-1.000000	-1.000000	62.000000	0.000000	-1.000000	-1.000000	1226008.000000	1776578852.620522
14655.870000	-15769.800000	16477.380000	60964.785000	26395.605000	8021.745000	-23706.495000	8225.640000	-10.331598	-7.977233	-5.562461	-4.359905	-24.959732	-64.430080	-9.183613	-11.735317	-18.510380	3.311420	4.654300	-0.706968	0.432677	0.563231	-1.000000	-1.000000	-1.000000	-1.000000	-1.000000	-1.000000	-1.000000	62.000000	0.000000	-1.000000	-1.000000	1226009.000000	1776578852.620559
14665.095000	-15754.005000	16497.720000	60974.910000	26416.755000	8075.475000	-23691.195000	8227.485000	-9.454957	-8.402220	-5.191514	-3.739183	-36.753960	-92.635955	-14.953097	-11.878021	-18.510380	3.311420	4.654300	-0.706968	0.432677	0.563231	-1.000000	-1.000000	-1.000000	-1.000000	-1.000000	-1.000000	-1.000000	62.000000	0.000000	-1.000000	-1.000000	1226010.000000	1776578852.624209
14646.105000	-15784.155000	16460.685000	60921.405000	26376.345000	8049.105000	-23666.580000	8225.235000	-7.544602	-8.058976	-4.799697	-2.952405	-30.353469	-67.756996	-11.060271	-9.227831	-18.510380	3.311420	4.654300	-0.706968	0.432677	0.563231	-1.000000	-1.000000	-1.000000	-1.000000	-1.000000	-1.000000	-1.000000	62.000000	0.000000	-1.000000	-1.000000	1226011.000000	1776578852.624229
14614.245000	-15823.350000	16422.030000	60877.620000	26391.375000	8062.830000	-23654.925000	8209.620000	-6.889795	-8.697451	-6.875993	-5.649529	-12.005126	-11.150742	1.399192	-5.574555	-45.413760	8.316700	13.352500	-0.701170	0.482604	0.559264	-1.000000	-1.000000	-1.000000	-1.000000	-1.000000	-1.000000	-1.000000	62.000000	0.000000	-1.000000	-1.000000	1226012.000000	1776578852.628394
14607.270000	-15831.450000	16413.885000	60856.605000	26438.625000	8076.420000	-23658.570000	8203.635000	-8.397402	-11.476614	-12.410510	-12.702049	7.680583	39.633103	14.555608	-2.527546	-45.413760	8.316700	13.352500	-0.701170	0.482604	0.559264	-1.000000	-1.000000	-1.000000	-1.000000	-1.000000	-1.000000	-1.000000	62.000000	0.000000	-1.000000	-1.000000	1226013.000000	1776578852.628408
14611.005000	-15820.740000	16426.755000	60857.685000	26447.760000	8095.995000	-23661.540000	8200.980000	-9.368505	-12.895231	-16.389657	-17.998694	23.192162	62.188853	19.631652	-0.546619	-45.413760	8.316700	13.352500	-0.701170	0.482604	0.559264	-1.000000	-1.000000	-1.000000	-1.000000	-1.000000	-1.000000	-1.000000	62.000000	0.000000	-1.000000	-1.000000	1226014.000000	1776578852.632412
14625.720000	-15793.515000	16460.100000	60875.595000	26443.755000	8147.655000	-23667.705000	8204.040000	-5.413180	-7.160263	-11.452929	-13.564414	30.707667	56.191262	13.585377	1.412779	-45.413760	8.316700	13.352500	-0.701170	0.482604	0.559264	-1.000000	-1.000000	-1.000000	-1.000000	-1.000000	-1.000000	-1.000000	62.000000	0.000000	-1.000000	-1.000000	1226015.000000	1776578852.632426
14619.060000	-15797.790000	16454.880000	60849.405000	26445.510000	8185.545000	-23663.250000	8197.560000	4.084331	6.306571	3.347857	1.333812	26.385954	34.574692	0.771941	4.115577	-45.413760	8.316700	13.352500	-0.701170	0.482604	0.559264	-1.000000	-1.000000	-1.000000	-1.000000	-1.000000	-1.000000	-1.000000	62.000000	0.000000	-1.000000	-1.000000	1226016.000000	1776578852.636335
14598.495000	-15823.170000	16429.185000	60805.080000	26466.750000	8221.050000	-23650.065000	8187.885000	13.808145	19.766685	19.147827	17.288611	11.891330	11.092448	-10.784167	6.536586	-45.413760	8.316700	13.352500	-0.701170	0.482604	0.559264	-1.000000	-1.000000	-1.000000	-1.000000	-1.000000	-1.000000	-1.000000	62.000000	0.000000	-1.000000	-1.000000	1226017.000000	1776578852.636350
14602.680000	-15827.355000	16420.770000	60771.195000	26461.575000	8198.910000	-23648.220000	8197.245000	17.211780	23.558319	24.583224	22.695345	-5.028053	-8.104366	-15.013703	7.149734	-45.413760	8.316700	13.352500	-0.701170	0.482604	0.559264	-1.000000	-1.000000	-1.000000	-1.000000	-1.000000	-1.000000	-1.000000	62.000000	0.000000	-1.000000	-1.000000	1226018.000000	1776578852.641600
14617.035000	-15812.910000	16432.695000	60750.270000	26442.045000	8133.930000	-23660.820000	8204.805000	13.373872	15.975372	17.045627	14.946373	-17.494695	-24.813116	-11.814511	6.225776	-45.413760	8.316700	13.352500	-0.701170	0.482604	0.559264	-1.000000	-1.000000	-1.000000	-1.000000	-1.000000	-1.000000	-1.000000	62.000000	0.000000	-1.000000	-1.000000	1226019.000000	1776578852.641610
14643.270000	-15778.215000	16467.480000	60750.270000	26410.770000	8035.785000	-23691.465000	8213.985000	7.269944	4.658775	4.621349	2.023024	-23.913574	-42.663771	-6.313813	5.201468	-45.413760	8.316700	13.352500	-0.701170	0.482604	0.559264	-1.000000	-1.000000	-1.000000	-1.000000	-1.000000	-1.000000	-1.000000	62.000000	0.000000	-1.000000	-1.000000	1226020.000000	1776578852.645691
14663.745000	-15751.395000	16487.685000	60728.760000	26365.230000	7941.060000	-23715.270000	8227.755000	3.820598	-1.601311	-2.755197	-6.078516	-25.807137	-59.784733	-3.787150	4.618548	-45.413760	8.316700	13.352500	-0.701170	0.482604	0.559264	-1.000000	-1.000000	-1.000000	-1.000000	-1.000000	-1.000000	-1.000000	62.000000	0.000000	-1.000000	-1.000000	1226021.000000	1776578852.645720
14668.740000	-15754.995000	16480.575000	60696.045000	26372.745000	7942.905000	-23717.070000	8234.910000	3.320958	-1.117802	-2.703659	-6.252173	-23.565963	-65.895621	-4.654532	3.907678	-100.014040	15.610980	25.285820	-0.702391	0.538512	0.548399	-1.000000	-1.000000	-1.000000	-1.000000	-1.000000	-1.000000	-1.000000	62.000000	0.000000	-1.000000	-1.000000	1226022.000000	1776578852.649985
14653.305000	-15767.280000	16473.330000	60672.240000	26390.205000	8018.145000	-23696.865000	8220.600000	1.909957	0.267013	-0.891023	-2.624639	-14.561512	-46.798602	-4.213419	1.789036	-100.014040	15.610980	25.285820	-0.702391	0.538512	0.548399	-1.000000	-1.000000	-1.000000	-1.000000	-1.000000	-1.000000	-1.000000	62.000000	0.000000	-1.000000	-1.000000	1226023.000000	1776578852.650007
14662.260000	-15746.400000	16510.770000	60699.825000	26426.970000	7996.050000	-23711.175000	8215.020000	-3.611935	-2.881095	-2.326774	0.987307	3.028554	0.568840	1.520243	-2.908367	-100.014040	15.610980	25.285820	-0.702391	0.538512	0.548399	-1.000000	-1.000000	-1.000000	-1.000000	-1.000000	-1.000000	-1.000000	62.000000	0.000000	-1.000000	-1.000000	1226024.000000	1776578852.655303
14723.595000	-15681.240000	16567.830000	60701.895000	26407.395000	7877.925000	-23753.655000	8257.635000	-10.328082	-7.974552	-4.526587	5.218869	24.040389	53.871198	9.494551	-8.319129	-100.014040	15.610980	25.285820	-0.702391	0.538512	0.548399	-1.000000	-1.000000	-1.000000	-1.000000	-1.000000	-1.000000	-1.000000	62.000000	0.000000	-1.000000	-1.000000	1226025.000000	1776578852.655339
14667.345000	-15762.555000	16471.305000	60561.000000	26352.720000	8009.280000	-23694.390000	8239.680000	-12.548719	-9.699382	-4.416096	7.922107	36.091886	82.147792	13.665868	-9.970797	-100.014040	15.610980	25.285820	-0.702391	0.538512	0.548399	-1.000000	-1.000000	-1.000000	-1.000000	-1.000000	-1.000000	-1.000000	62.000000	0.000000	-1.000000	-1.000000	1226026.000000	1776578852.656474
14563.215000	-15866.415000	16381.170000	60464.655000	26457.750000	8256.195000	-23619.780000	8169.030000	-12.887698	-12.017094	-8.246897	0.131866	31.524069	82.832899	15.313609	-8.303513	-100.014040	15.610980	25.285820	-0.702391	0.538512	0.548399	-1.000000	-1.000000	-1.000000	-1.000000	-1.000000	-1.000000	-1.000000	62.000000	0.000000	-1.000000	-1.000000	1226027.000000	1776578852.656483
14574.960000	-15848.595000	16401.555000	60435.360000	26493.300000	8232.885000	-23631.165000	8174.970000	-18.281257	-21.091705	-20.879011	-19.393198	18.480782	75.424740	18.994717	-8.820374	-100.014040	15.610980	25.285820	-0.702391	0.538512	0.548399	-1.000000	-1.000000	-1.000000	-1.000000	-1.000000	-1.000000	-1.000000	62.000000	0.000000	-1.000000	-1.000000	1226028.000000	1776578852.660400
14620.680000	-15799.995000	16453.080000	60424.245000	26476.560000	8158.410000	-23659.155000	8200.080000	-23.251802	-28.020719	-30.243114	-34.565071	8.467256	59.173159	19.993517	-10.813284	-100.014040	15.610980	25.285820	-0.702391	0.538512	0.548399	-1.000000	-1.000000	-1.000000	-1.000000	-1.000000	-1.000000	-1.000000	62.000000	0.000000	-1.000000	-1.000000	1226029.000000	1776578852.660408
14645.295000	-15771.465000	16483.185000	60398.280000	26458.830000	8083.035000	-23681.115000	8212.455000	-14.181312	-17.163911	-19.580681	-28.527413	0.333037	15.370017	9.140606	-6.829226	-100.014040	15.610980	25.285820	-0.702391	0.538512	0.548399	-1.000000	-1.000000	-1.000000	-1.000000	-1.000000	-1.000000	-1.000000	62.000000	0.000000	-1.000000	-1.000000	1226030.000000	1776578852.668540
14678.280000	-15735.780000	16515.090000	60364.710000	26408.025000	7954.245000	-23716.575000	8230.140000	10.450881	11.655967	10.179926	-2.467132	-12.527169	-54.410308	-12.966300	5.347913	-100.014040	15.610980	25.285820	-0.702391	0.538512	0.548399	-1.000000	-1.000000	-1.000000	-1.000000	-1.000000	-1.000000	-1.000000	62.000000	0.000000	-1.000000	-1.000000	1226031.000000	1776578852.668577
14701.680000	-15706.755000	16541.190000	60311.070000	26342.235000	7932.150000	-23735.160000	8241.615000	36.829128	41.823750	40.884885	26.622982	-30.301880	-119.803212	-35.031195	19.142179	-146.908020	19.090260	32.671660	-0.702086	0.547240	0.546202	-1.000000	-1.000000	-1.000000	-1.000000	-1.000000	-1.000000	-1.000000	62.000000	0.000000	-1.000000	-1.000000	1226032.000000	1776578852.668598
14680.665000	-15734.880000	16501.005000	60205.365000	26321.895000	7969.995000	-23700.690000	8237.070000	48.474830	54.712783	53.129972	40.256226	-45.479642	-142.680172	-43.660041	25.829749	-146.908020	19.090260	32.671660	-0.702086	0.547240	0.546202	-1.000000	-1.000000	-1.000000	-1.000000	-1.000000	-1.000000	-1.000000	62.000000	0.000000	-1.000000	-1.000000	1226033.000000	1776578852.668603
14641.605000	-15795.945000	16431.390000	60099.030000	26345.385000	7948.215000	-23684.400000	8230.950000	36.750783	40.607333	37.442384	29.899892	-46.500151	-104.621846	-31.541914	20.815214	-146.908020	19.090260	32.671660	-0.702086	0.547240	0.546202	-1.000000	-1.000000	-1.000000	-1.000000	-1.000000	-1.000000	-1.000000	62.000000	0.000000	-1.000000	-1.000000	1226034.000000	1776578852.672438
14643.450000	-15773.985000	16472.655000	60101.550000	26416.620000	8011.935000	-23694.390000	8208.810000	6.295547	5.019515	0.884916	3.598982	-25.132117	-22.866243	-4.007225	5.961520	-146.908020	19.090260	32.671660	-0.702086	0.547240	0.546202	-1.000000	-1.000000	-1.000000	-1.000000	-1.000000	-1.000000	-1.000000	62.000000	0.000000	-1.000000	-1.000000	1226035.000000	1776578852.672456
14660.730000	-15734.430000	16528.545000	60104.160000	26492.175000	8102.070000	-23705.775000	8196.030000	-25.798840	-30.814687	-32.809479	-17.036089	15.215965	64.436309	22.850652	-11.955494	-146.908020	19.090260	32.671660	-0.702086	0.547240	0.546202	-1.000000	-1.000000	-1.000000	-1.000000	-1.000000	-1.000000	-1.000000	62.000000	0.000000	-1.000000	-1.000000	1226036.000000	1776578852.676424
14661.630000	-15743.970000	16508.430000	60004.395000	26469.810000	8136.765000	-23694.030000	8205.705000	-41.612587	-45.350456	-41.942841	-17.005375	56.420117	123.403734	35.031854	-24.517543	-146.908020	19.090260	32.671660	-0.702086	0.547240	0.546202	-1.000000	-1.000000	-1.000000	-1.000000	-1.000000	-1.000000	-1.000000	62.000000	0.000000	-1.000000	-1.000000	1226037.000000	1776578852.676433
14708.835000	-15682.365000	16577.865000	59988.510000	26459.595000	7928.865000	-23752.260000	8227.845000	-35.005641	-34.201680	-26.024030	-2.716908	73.674157	130.493054	29.466466	-25.147727	-146.908020	19.090260	32.671660	-0.702086	0.547240	0.546202	-1.000000	-1.000000	-1.000000	-1.000000	-1.000000	-1.000000	-1.000000	62.000000	0.000000	-1.000000	-1.000000	1226038.000000	1776578852.680431
14663.610000	-15760.980000	16486.560000	59835.285000	26350.200000	7833.825000	-23752.620000	8222.310000	-13.666231	-9.977613	-1.599739	8.925022	52.901521	76.397849	11.586439	-13.510003	-146.908020	19.090260	32.671660	-0.702086	0.547240	0.546202	-1.000000	-1.000000	-1.000000	-1.000000	-1.000000	-1.000000	-1.000000	62.000000	0.000000	-1.000000	-1.000000	1226039.000000	1776578852.680473
14574.195000	-15853.365000	16406.865000	59753.205000	26433.900000	8194.230000	-23658.120000	8165.340000	5.467836	7.124152	11.033909	6.521187	4.256117	-8.587897	-6.470029	1.934097	-146.908020	19.090260	32.671660	-0.702086	0.547240	0.546202	-1.000000	-1.000000	-1.000000	-1.000000	-1.000000	-1.000000	-1.000000	62.000000	0.000000	-1.000000	-1.000000	1226040.000000	1776578852.684666
14607.450000	-15808.590000	16465.185000	59801.085000	26540.460000	8196.975000	-23646.015000	8190.495000	9.243538	5.503259	3.836061	-5.798788	-39.482951	-60.458552	-10.831426	10.460942	-146.908020	19.090260	32.671660	-0.702086	0.547240	0.546202	-1.000000	-1.000000	-1.000000	-1.000000	-1.000000	-1.000000	-1.000000	62.000000	0.000000	-1.000000	-1.000000	1226041.000000	1776578852.684678
14609.385000	-15835.590000	16414.335000	59647.815000	26443.710000	8092.125000	-23654.430000	8214.930000	2.372275	-5.234879	-10.134855	-12.504014	-50.651930	-52.409459	-0.808271	10.700169	-175.230580	18.540900	32.747960	-0.701597	0.525145	0.558836	-1.000000	-1.000000	-1.000000	-1.000000	-1.000000	-1.000000	-1.000000	62.000000	0.000000	-1.000000	-1.000000	1226042.000000	1776578852.688456
14575.635000	-15868.215000	16378.605000	59537.430000	26454.870000	8199.180000	-23625.495000	8189.775000	-1.615370	-9.142105	-15.163258	-9.407185	-34.742027	-19.810327	10.022200	8.869201	-175.230580	18.540900	32.747960	-0.701597	0.525145	0.558836	-1.000000	-1.000000	-1.000000	-1.000000	-1.000000	-1.000000	-1.000000	62.000000	0.000000	-1.000000	-1.000000	1226043.000000	1776578852.688467
14585.760000	-15845.715000	16405.875000	59496.075000	26494.380000	8227.395000	-23631.525000	8183.070000	1.729375	-2.335936	-8.777032	-5.300921	-13.832261	0.832766	10.854306	7.279417	-175.230580	18.540900	32.747960	-0.701597	0.525145	0.558836	-1.000000	-1.000000	-1.000000	-1.000000	-1.000000	-1.000000	-1.000000	62.000000	0.000000	-1.000000	-1.000000	1226044.000000	1776578852.695320
14605.380000	-15822.270000	16427.295000	59445.000000	26475.795000	8149.995000	-23649.615000	8190.630000	8.982664	10.987636	5.481866	-2.090252	1.427425	2.539206	1.232083	4.268152	-175.230580	18.540900	32.747960	-0.701597	0.525145	0.558836	-1.000000	-1.000000	-1.000000	-1.000000	-1.000000	-1.000000	-1.000000	62.000000	0.000000	-1.000000	-1.000000	1226045.000000	1776578852.695343
14618.655000	-15806.880000	16438.005000	59389.965000	26441.235000	8107.020000	-23659.335000	8195.760000	16.540342	25.191792	22.610019	4.840152	8.922468	-11.407057	-13.380925	0.550895	-175.230580	18.540900	32.747960	-0.701597	0.525145	0.558836	-1.000000	-1.000000	-1.000000	-1.000000	-1.000000	-1.000000	-1.000000	62.000000	0.000000	-1.000000	-1.000000	1226046.000000	1776578852.696390
14618.610000	-15802.020000	16440.570000	59339.115000	26437.095000	8104.185000	-23666.715000	8196.615000	20.764287	33.250739	34.339401	14.908234	7.669107	-32.301766	-25.237079	-1.624026	-175.230580	18.540900	32.747960	-0.701597	0.525145	0.558836	-1.000000	-1.000000	-1.000000	-1.000000	-1.000000	-1.000000	-1.000000	62.000000	0.000000	-1.000000	-1.000000	1226047.000000	1776578852.696398
14611.095000	-15808.590000	16438.635000	59310.495000	26437.320000	8129.430000	-23669.865000	8196.210000	17.948564	29.444835	33.362877	22.844781	1.405627	-43.253992	-27.797376	-1.868554	-175.230580	18.540900	32.747960	-0.701597	0.525145	0.558836	-1.000000	-1.000000	-1.000000	-1.000000	-1.000000	-1.000000	-1.000000	62.000000	0.000000	-1.000000	-1.000000	1226048.000000	1776578852.701895
14601.060000	-15822.990000	16430.670000	59286.240000	26455.680000	8158.905000	-23674.095000	8188.110000	7.322634	13.542099	19.028092	25.061748	-2.381507	-31.317281	-19.562956	-1.601251	-175.230580	18.540900	32.747960	-0.701597	0.525145	0.558836	-1.000000	-1.000000	-1.000000	-1.000000	-1.000000	-1.000000	-1.000000	62.000000	0.000000	-1.000000	-1.000000	1226049.000000	1776578852.701911
14598.900000	-15826.230000	16426.080000	59258.160000	26455.230000	8110.485000	-23676.435000	8186.580000	-7.180770	-8.275012	-2.287755	21.381450	0.592520	-0.878217	-4.585024	-2.156473	-175.230580	18.540900	32.747960	-0.701597	0.525145	0.558836	-1.000000	-1.000000	-1.000000	-1.000000	-1.000000	-1.000000	-1.000000	62.000000	0.000000	-1.000000	-1.000000	1226050.000000	1776578852.705264
14595.930000	-15826.725000	16417.890000	59220.045000	26424.045000	8068.995000	-23683.680000	8184.420000	-18.890357	-26.346445	-21.302200	12.885815	7.243999	28.211415	10.393238	-3.399932	-175.230580	18.540900	32.747960	-0.701597	0.525145	0.558836	-1.000000	-1.000000	-1.000000	-1.000000	-1.000000	-1.000000	-1.000000	62.000000	0.000000	-1.000000	-1.000000	1226051.000000	1776578852.705274
14605.290000	-15816.555000	16429.500000	59214.555000	26424.450000	8067.465000	-23685.075000	8188.785000	-22.514939	-32.843513	-30.613279	1.506723	10.581729	38.723830	19.705195	-3.974166	-215.166000	27.132280	21.592900	-0.709349	0.516173	0.561400	-1.000000	-1.000000	-1.000000	-1.000000	-1.000000	-1.000000	-1.000000	62.000000	0.000000	-1.000000	-1.000000	1226052.000000	1776578852.715827
14609.970000	-15813.180000	16434.225000	59208.930000	26422.560000	8068.905000	-23693.175000	8187.435000	-17.027801	-26.104246	-27.552153	-8.727653	7.807437	30.849648	21.172603	-2.822195	-215.166000	27.132280	21.592900	-0.709349	0.516173	0.561400	-1.000000	-1.000000	-1.000000	-1.000000	-1.000000	-1.000000	-1.000000	62.000000	0.000000	-1.000000	-1.000000	1226053.000000	1776578852.715853
14608.530000	-15816.645000	16427.745000	59190.525000	26398.710000	8054.055000	-23693.535000	8187.750000	-6.003845	-11.201976	-15.267582	-13.980354	1.896641	16.409067	16.166613	-0.328713	-215.166000	27.132280	21.592900	-0.709349	0.516173	0.561400	-1.000000	-1.000000	-1.000000	-1.000000	-1.000000	-1.000000	-1.000000	62.000000	0.000000	-1.000000	-1.000000	1226054.000000	1776578852.715865
14603.265000	-15817.995000	16422.210000	59176.440000	26393.985000	8013.780000	-23688.270000	8182.530000	4.500833	3.621548	-1.093333	-14.282703	-3.586777	4.248935	8.277210	1.999749	-215.166000	27.132280	21.592900	-0.709349	0.516173	0.561400	-1.000000	-1.000000	-1.000000	-1.000000	-1.000000	-1.000000	-1.000000	62.000000	0.000000	-1.000000	-1.000000	1226055.000000	1776578852.715870
14601.195000	-15815.340000	16425.900000	59179.500000	26425.620000	8067.645000	-23680.170000	8179.695000	9.770839	12.316310	8.504070	-12.084767	-5.832831	-2.900659	1.460207	2.807912	-215.166000	27.132280	21.592900	-0.709349	0.516173	0.561400	-1.000000	-1.000000	-1.000000	-1.000000	-1.000000	-1.000000	-1.000000	62.000000	0.000000	-1.000000	-1.000000	1226056.000000	1776578852.716450
14598.180000	-15817.680000	16422.795000	59175.585000	26435.565000	8088.660000	-23690.160000	8172.405000	9.029866	13.676986	11.641239	-8.811509	-2.418000	-2.873420	-2.342989	1.823471	-215.166000	27.132280	21.592900	-0.709349	0.516173	0.561400	-1.000000	-1.000000	-1.000000	-1.000000	-1.000000	-1.000000	-1.000000	62.000000	0.000000	-1.000000	-1.000000	1226057.000000	1776578852.716459
14600.520000	-15812.865000	16427.655000	59180.760000	26455.995000	8085.735000	-23705.145000	8173.080000	4.833968	10.015623	10.062056	-4.934254	5.440359	3.866424	-4.315459	-0.080688	-215.166000	27.132280	21.592900	-0.709349	0.516173	0.561400	-1.000000	-1.000000	-1.000000	-1.000000	-1.000000	-1.000000	-1.000000	62.000000	0.000000	-1.000000	-1.000000	1226058.000000	1776578852.720456
14617.980000	-15798.915000	16439.130000	59190.165000	26467.335000	8111.160000	-23692.770000	8194.140000	0.906391	4.939210	6.709394	-1.098232	12.467836	10.622281	-6.157802	-1.073603	-215.166000	27.132280	21.592900	-0.709349	0.516173	0.561400	-1.000000	-1.000000	-1.000000	-1.000000	-1.000000	-1.000000	-1.000000	62.000000	0.000000	-1.000000	-1.000000	1226059.000000	1776578852.720471
14619.420000	-15802.245000	16434.180000	59181.795000	26432.235000	8089.560000	-23677.785000	8200.980000	-0.175092	1.297506	3.826494	1.673271	12.955346	10.509132	-6.801710	0.550787	-215.166000	27.132280	21.592900	-0.709349	0.516173	0.561400	-1.000000	-1.000000	-1.000000	-1.000000	-1.000000	-1.000000	-1.000000	62.000000	0.000000	-1.000000	-1.000000	1226060.000000	1776578852.724349
14610.870000	-15807.240000	16428.780000	59175.720000	26420.220000	8086.320000	-23684.490000	8192.205000	0.917600	-0.669550	1.525059	1.905174	4.095256	1.894206	-4.434567	3.808299	-215.166000	27.132280	21.592900	-0.709349	0.516173	0.561400	-1.000000	-1.000000	-1.000000	-1.000000	-1.000000	-1.000000	-1.000000	62.000000	0.000000	-1.000000	-1.000000	1226061.000000	1776578852.724361
14611.635000	-15801.930000	16437.240000	59185.035000	26458.110000	8114.805000	-23693.040000	8189.505000	1.246254	-2.302801	-1.006210	-0.741242	-9.757431	-10.737072	-0.583172	5.094679	-295.845620	29.131340	30.947280	-0.728087	0.492003	0.544005	-1.000000	-1.000000	-1.000000	-1.000000	-1.000000	-1.000000	-1.000000	62.000000	0.000000	-1.000000	-1.000000	1226062.000000	1776578852.728403
14614.335000	-15801.390000	16436.385000	59179.545000	26452.575000	8129.430000	-23696.100000	8189.055000	-0.514492	-3.823572	-3.260701	-4.202017	-18.449135	-18.888700	1.361948	2.388618	-295.845620	29.131340	30.947280	-0.728087	0.492003	0.544005	-1.000000	-1.000000	-1.000000	-1.000000	-1.000000	-1.000000	-1.000000	62.000000	0.000000	-1.000000	-1.000000	1226063.000000	1776578852.728432
14609.970000	-15804.585000	16432.020000	59172.975000	26429.220000	8116.425000	-23694.570000	8186.895000	-2.986533	-4.442716	-4.255380	-6.290070	-16.969169	-17.846218	0.470551	-2.538251	-295.845620	29.131340	30.947280	-0.728087	0.492003	0.544005	-1.000000	-1.000000	-1.000000	-1.000000	-1.000000	-1.000000	-1.000000	62.000000	0.000000	-1.000000	-1.000000	1226064.000000	1776578852.732394
14605.110000	-15808.545000	16423.965000	59164.290000	26414.010000	8102.835000	-23697.090000	8181.630000	-4.528812	-4.012035	-4.212992	-6.702066	-10.027176	-11.252408	-1.334055	-6.497844	-295.845620	29.131340	30.947280	-0.728087	0.492003	0.544005	-1.000000	-1.000000	-1.000000	-1.000000	-1.000000	-1.000000	-1.000000	62.000000	0.000000	-1.000000	-1.000000	1226065.000000	1776578852.732422
14611.365000	-15805.350000	16424.730000	59164.425000	26409.195000	8055.675000	-23698.845000	8185.950000	-4.487472	-2.916081	-3.815049	-5.890796	-3.880653	-6.181012	-2.069804	-7.510197	-295.845620	29.131340	30.947280	-0.728087	0.492003	0.544005	-1.000000	-1.000000	-1.000000	-1.000000	-1.000000	-1.000000	-1.000000	62.000000	0.000000	-1.000000	-1.000000	1226066.000000	1776578852.736572
14608.845000	-15803.100000	16430.400000	59177.835000	26424.810000	8037.990000	-23703.345000	8181.855000	-2.742891	-1.230048	-2.822556	-3.570692	0.423648	-6.234108	-1.372548	-5.359635	-295.845620	29.131340	30.947280	-0.728087	0.492003	0.544005	-1.000000	-1.000000	-1.000000	-1.000000	-1.000000	-1.000000	-1.000000	62.000000	0.000000	-1.000000	-1.000000	1226067.000000	1776578852.736596
14607.405000	-15804.495000	16430.175000	59186.295000	26426.610000	8058.960000	-23704.290000	8178.300000	0.031792	0.923897	-0.603668	0.777613	5.062233	-8.049299	-0.011675	-1.439201	-295.845620	29.131340	30.947280	-0.728087	0.492003	0.544005	-1.000000	-1.000000	-1.000000	-1.000000	-1.000000	-1.000000	-1.000000	62.000000	0.000000	-1.000000	-1.000000	1226068.000000	1776578852.740418
14604.615000	-15808.230000	16424.955000	59186.025000	26445.645000	8093.745000	-23701.905000	8179.110000	2.379004	2.709360	2.229724	5.977878	10.620063	-3.942659	1.292844	2.164877	-295.845620	29.131340	30.947280	-0.728087	0.492003	0.544005	-1.000000	-1.000000	-1.000000	-1.000000	-1.000000	-1.000000	-1.000000	62.000000	0.000000	-1.000000	-1.000000	1226069.000000	1776578852.740428
14616.405000	-15797.205000	16431.525000	59192.280000	26480.520000	8136.135000	-23686.920000	8194.860000	3.471884	3.370569	4.099490	9.130958	15.523098	9.662299	2.589801	4.503219	-295.845620	29.131340	30.947280	-0.728087	0.492003	0.544005	-1.000000	-1.000000	-1.000000	-1.000000	-1.000000	-1.000000	-1.000000	62.000000	0.000000	-1.000000	-1.000000	1226070.000000	1776578852.744419
14611.410000	-15804.855000	16420.680000	59181.165000	26454.150000	8109.630000	-23683.140000	8196.210000	3.655903	3.082209	4.129452	8.077015	17.266857	26.208411	4.198382	5.982037	-295.845620	29.131340	30.947280	-0.728087	0.492003	0.544005	-1.000000	-1.000000	-1.000000	-1.000000	-1.000000	-1.000000	-1.000000	62.000000	0.000000	-1.000000	-1.000000	1226071.000000	1776578852.744448
14601.375000	-15815.610000	16408.980000	59170.635000	26409.240000	8029.845000	-23686.425000	8188.335000	2.968169	1.903059	2.215730	2.823217	11.739929	31.492286	5.307354	6.333191	-362.043500	27.086500	58.110080	-0.724913	0.398803	0.545836	-1.000000	-1.000000	-1.000000	-1.000000	-1.000000	-1.000000	-1.000000	62.000000	0.000000	-1.000000	-1.000000	1226072.000000	1776578852.748381
14597.955000	-15817.230000	16404.795000	59170.095000	26406.630000	8006.310000	-23694.480000	8178.840000	0.833933	-0.437107	-1.125507	-4.372887	-2.631675	16.136575	4.085523	4.149285	-362.043500	27.086500	58.110080	-0.724913	0.398803	0.545836	-1.000000	-1.000000	-1.000000	-1.000000	-1.000000	-1.000000	-1.000000	62.000000	0.000000	-1.000000	-1.000000	1226073.000000	1776578852.748387
14597.595000	-15813.765000	16409.205000	59179.860000	26422.605000	8025.660000	-23703.705000	8171.370000	-2.130296	-2.903994	-3.989703	-9.463341	-18.478419	-11.362951	-0.175827	-0.775414	-362.043500	27.086500	58.110080	-0.724913	0.398803	0.545836	-1.000000	-1.000000	-1.000000	-1.000000	-1.000000	-1.000000	-1.000000	62.000000	0.000000	-1.000000	-1.000000	1226074.000000	1776578852.752516
14600.520000	-15806.070000	16419.330000	59191.515000	26445.015000	8088.345000	-23712.210000	8172.630000	-3.935383	-3.409025	-3.925092	-8.998082	-24.066567	-29.249243	-5.814997	-6.080012	-362.043500	27.086500	58.110080	-0.724913	0.398803	0.545836	-1.000000	-1.000000	-1.000000	-1.000000	-1.000000	-1.000000	-1.000000	62.000000	0.000000	-1.000000	-1.000000	1226075.000000	1776578852.752530
14610.375000	-15798.015000	16429.275000	59203.440000	26442.405000	8123.400000	-23704.020000	8184.330000	-3.053035	-1.022816	-0.216424	-2.992384	-15.167238	-22.747082	-9.600569	-8.251292	-362.043500	27.086500	58.110080	-0.724913	0.398803	0.545836	-1.000000	-1.000000	-1.000000	-1.000000	-1.000000	-1.000000	-1.000000	62.000000	0.000000	-1.000000	-1.000000	1226076.000000	1776578852.758641
14611.725000	-15799.140000	16423.200000	59196.060000	26447.175000	8100.000000	-23706.765000	8183.880000	0.239273	2.839859	4.894356	4.647220	1.135366	1.647907	-8.827006	-5.496277	-362.043500	27.086500	58.110080	-0.724913	0.398803	0.545836	-1.000000	-1.000000	-1.000000	-1.000000	-1.000000	-1.000000	-1.000000	62.000000	0.000000	-1.000000	-1.000000	1226077.000000	1776578852.758660
14605.020000	-15809.670000	16408.260000	59178.645000	26432.595000	8080.065000	-23715.495000	8180.460000	3.678031	5.169602	7.298079	8.446395	13.681211	22.364424	-3.853439	0.260230	-362.043500	27.086500	58.110080	-0.724913	0.398803	0.545836	-1.000000	-1.000000	-1.000000	-1.000000	-1.000000	-1.000000	-1.000000	62.000000	0.000000	-1.000000	-1.000000	1226078.000000	1776578852.760494
14612.985000	-15806.340000	16407.945000	59177.295000	26417.115000	8082.945000	-23710.320000	8190.945000	4.737336	3.859512	4.506569	5.560161	15.698971	23.609641	2.107263	5.148638	-362.043500	27.086500	58.110080	-0.724913	0.398803	0.545836	-1.000000	-1.000000	-1.000000	-1.000000	-1.000000	-1.000000	-1.000000	62.000000	0.000000	-1.000000	-1.000000	1226079.000000	1776578852.760504
14612.535000	-15804.270000	16413.750000	59197.230000	26441.235000	8116.650000	-23692.995000	8193.330000	3.083695	-0.035425	-1.437166	-1.037208	8.494449	8.589569	6.567311	7.003763	-362.043500	27.086500	58.110080	-0.724913	0.398803	0.545836	-1.000000	-1.000000	-1.000000	-1.000000	-1.000000	-1.000000	-1.000000	62.000000	0.000000	-1.000000	-1.000000	1226080.000000	1776578852.764472
14606.685000	-15807.105000	16413.165000	59204.700000	26461.080000	8172.810000	-23684.670000	8189.100000	0.165029	-3.521763	-5.883358	-5.098167	-0.103773	-6.954240	9.277464	5.845988	-362.043500	27.086500	58.110080	-0.724913	0.398803	0.545836	-1.000000	-1.000000	-1.000000	-1.000000	-1.000000	-1.000000	-1.000000	62.000000	0.000000	-1.000000	-1.000000	1226081.000000	1776578852.764481
14608.530000	-15802.470000	16418.385000	59209.470000	26422.515000	8127.180000	-23684.805000	8186.895000	-2.674570	-4.667590	-6.140903	-3.642104	-3.976415	-12.026178	10.014843	2.392832	-329.799120	28.139440	52.143420	-0.713011	0.254333	0.577025	-1.000000	-1.000000	-1.000000	-1.000000	-1.000000	-1.000000	-1.000000	62.000000	0.000000	-1.000000	-1.000000	1226082.000000	1776578852.768601
14614.965000	-15794.055000	16425.315000	59217.660000	26420.220000	8073.180000	-23697.765000	8188.380000	-4.269500	-3.272043	-2.866913	0.910083	-4.684860	-10.876758	7.416098	-1.972127	-329.799120	28.139440	52.143420	-0.713011	0.254333	0.577025	-1.000000	-1.000000	-1.000000	-1.000000	-1.000000	-1.000000	-1.000000	62.000000	0.000000	-1.000000	-1.000000	1226083.000000	1776578852.768611
14616.315000	-15792.615000	16423.920000	59219.145000	26464.950000	8105.265000	-23708.745000	8187.885000	-3.704705	-0.223145	1.484557	4.451091	-4.867314	-12.589742	0.838838	-5.220762	-329.799120	28.139440	52.143420	-0.713011	0.254333	0.577025	-1.000000	-1.000000	-1.000000	-1.000000	-1.000000	-1.000000	-1.000000	62.000000	0.000000	-1.000000	-1.000000	1226084.000000	1776578852.772544
14618.295000	-15794.460000	16419.150000	59217.750000	26494.470000	8109.945000	-23703.435000	8194.410000	-1.388836	2.638817	4.154006	4.562289	-2.022727	-15.439710	-7.369390	-5.860833	-329.799120	28.139440	52.143420	-0.713011	0.254333	0.577025	-1.000000	-1.000000	-1.000000	-1.000000	-1.000000	-1.000000	-1.000000	62.000000	0.000000	-1.000000	-1.000000	1226085.000000	1776578852.772555
14611.320000	-15803.190000	16412.400000	59218.380000	26501.805000	8120.340000	-23697.405000	8188.695000	0.960975	3.313474	3.493235	1.331447	5.182988	-11.753295	-12.441780	-3.934799	-329.799120	28.139440	52.143420	-0.713011	0.254333	0.577025	-1.000000	-1.000000	-1.000000	-1.000000	-1.000000	-1.000000	-1.000000	62.000000	0.000000	-1.000000	-1.000000	1226086.000000	1776578852.776488
14604.255000	-15805.170000	16413.795000	59224.320000	26492.850000	8153.235000	-23687.865000	8182.710000	1.611877	1.209067	0.182072	-3.032718	11.336262	-0.155463	-10.999646	-1.115765	-329.799120	28.139440	52.143420	-0.713011	0.254333	0.577025	-1.000000	-1.000000	-1.000000	-1.000000	-1.000000	-1.000000	-1.000000	62.000000	0.000000	-1.000000	-1.000000	1226087.000000	1776578852.776493
14602.095000	-15806.250000	16412.490000	59224.635000	26487.765000	8161.830000	-23695.200000	8177.580000	0.229580	-2.128503	-3.223589	-5.777422	9.730680	14.007108	-4.224862	0.600083	-329.799120	28.139440	52.143420	-0.713011	0.254333	0.577025	-1.000000	-1.000000	-1.000000	-1.000000	-1.000000	-1.000000	-1.000000	62.000000	0.000000	-1.000000	-1.000000	1226088.000000	1776578852.780411
14606.055000	-15808.950000	16407.765000	59216.580000	26473.320000	8135.055000	-23692.545000	8185.410000	-1.643886	-4.266656	-4.516038	-5.825711	-0.237658	22.636172	3.164218	0.859631	-329.799120	28.139440	52.143420	-0.713011	0.254333	0.577025	-1.000000	-1.000000	-1.000000	-1.000000	-1.000000	-1.000000	-1.000000	62.000000	0.000000	-1.000000	-1.000000	1226089.000000	1776578852.780428
14602.365000	-15819.930000	16397.415000	59209.965000	26453.340000	8101.260000	-23687.865000	8189.595000	-2.049796	-4.109132	-3.602343	-4.297056	-13.037983	18.850352	7.165337	1.064155	-329.799120	28.139440	52.143420	-0.713011	0.254333	0.577025	-1.000000	-1.000000	-1.000000	-1.000000	-1.000000	-1.000000	-1.000000	62.000000	0.000000	-1.000000	-1.000000	1226090.000000	1776578852.784566
14608.800000	-15813.405000	16403.490000	59215.140000	26434.755000	8081.325000	-23687.055000	8195.445000	-0.502400	-2.272794	-1.684780	-2.502302	-21.956064	3.015624	7.120595	2.317175	-329.799120	28.139440	52.143420	-0.713011	0.254333	0.577025	-1.000000	-1.000000	-1.000000	-1.000000	-1.000000	-1.000000	-1.000000	62.000000	0.000000	-1.000000	-1.000000	1226091.000000	1776578852.784577
14611.635000	-15813.720000	16399.980000	59212.035000	26442.315000	8103.600000	-23678.235000	8198.910000	2.058031	0.430029	0.532877	-0.479523	-22.475252	-14.968279	4.643547	4.051039	-203.736260	17.716860	33.694080	-0.719420	0.090576	0.616698	-1.000000	-1.000000	-1.000000	-1.000000	-1.000000	-1.000000	-1.000000	62.000000	0.000000	-1.000000	-1.000000	1226092.000000	1776578852.788546
14599.710000	-15821.505000	16394.760000	59212.485000	26461.035000	8120.340000	-23684.535000	8187.165000	4.005637	3.173508	2.621430	1.916251	-13.098217	-22.251190	1.574741	4.546676	-203.736260	17.716860	33.694080	-0.719420	0.090576	0.616698	-1.000000	-1.000000	-1.000000	-1.000000	-1.000000	-1.000000	-1.000000	62.000000	0.000000	-1.000000	-1.000000	1226093.000000	1776578852.788560
14614.155000	-15802.740000	16416.585000	59236.605000	26458.920000	8067.240000	-23706.720000	8192.745000	3.966264	4.949860	4.134991	4.468990	3.283062	-15.019064	-1.594393	2.538566	-203.736260	17.716860	33.694080	-0.719420	0.090576	0.616698	-1.000000	-1.000000	-1.000000	-1.000000	-1.000000	-1.000000	-1.000000	62.000000	0.000000	-1.000000	-1.000000	1226094.000000	1776578852.792438
14621.580000	-15791.715000	16424.730000	59244.390000	26464.500000	8067.060000	-23714.055000	8193.285000	2.509615	5.849470	5.475539	7.184776	19.083003	-1.993162	-5.325832	-1.075133	-203.736260	17.716860	33.694080	-0.719420	0.090576	0.616698	-1.000000	-1.000000	-1.000000	-1.000000	-1.000000	-1.000000	-1.000000	62.000000	0.000000	-1.000000	-1.000000	1226095.000000	1776578852.792443
14609.025000	-15804.180000	16413.570000	59238.990000	26464.770000	8086.545000	-23701.815000	8187.075000	1.048956	6.060190	6.398451	8.974513	26.586634	7.506472	-8.262796	-4.037274	-203.736260	17.716860	33.694080	-0.719420	0.090576	0.616698	-1.000000	-1.000000	-1.000000	-1.000000	-1.000000	-1.000000	-1.000000	62.000000	0.000000	-1.000000	-1.000000	1226096.000000	1776578852.796449
14611.230000	-15807.960000	16404.750000	59225.670000	26427.780000	8080.470000	-23697.495000	8191.260000	-0.552187	4.132598	4.746642	7.172263	22.533817	12.236154	-7.254529	-5.054120	-203.736260	17.716860	33.694080	-0.719420	0.090576	0.616698	-1.000000	-1.000000	-1.000000	-1.000000	-1.000000	-1.000000	-1.000000	62.000000	0.000000	-1.000000	-1.000000	1226097.000000	1776578852.796458
14614.560000	-15803.595000	16408.620000	59230.395000	26424.270000	8119.935000	-23695.515000	8193.285000	-2.549972	-0.522053	-0.352163	0.894714	8.857737	14.419552	-1.535172	-4.007469	-203.736260	17.716860	33.694080	-0.719420	0.090576	0.616698	-1.000000	-1.000000	-1.000000	-1.000000	-1.000000	-1.000000	-1.000000	62.000000	0.000000	-1.000000	-1.000000	1226098.000000	1776578852.800416
14611.590000	-15803.145000	16411.860000	59240.745000	26463.735000	8155.845000	-23688.495000	8190.225000	-3.887597	-5.482326	-6.056541	-6.421046	-6.643530	15.741842	5.685970	-1.511222	-203.736260	17.716860	33.694080	-0.719420	0.090576	0.616698	-1.000000	-1.000000	-1.000000	-1.000000	-1.000000	-1.000000	-1.000000	62.000000	0.000000	-1.000000	-1.000000	1226099.000000	1776578852.800424
14603.040000	-15810.795000	16407.045000	59243.535000	26488.620000	8157.690000	-23697.810000	8180.370000	-3.926321	-7.941752	-8.694984	-9.872949	-13.517323	16.104476	10.138818	0.879644	-203.736260	17.716860	33.694080	-0.719420	0.090576	0.616698	-1.000000	-1.000000	-1.000000	-1.000000	-1.000000	-1.000000	-1.000000	62.000000	0.000000	-1.000000	-1.000000	1226100.000000	1776578852.804600
14598.900000	-15814.215000	16403.085000	59242.500000	26483.535000	8141.580000	-23698.440000	8177.625000	-3.259775	-7.424788	-7.438584	-7.958958	-8.485142	11.985242	9.395668	1.627523	-203.736260	17.716860	33.694080	-0.719420	0.090576	0.616698	-1.000000	-1.000000	-1.000000	-1.000000	-1.000000	-1.000000	-1.000000	62.000000	0.000000	-1.000000	-1.000000	1226101.000000	1776578852.804637
14602.905000	-15813.990000	16403.400000	59243.130000	26479.845000	8143.830000	-23693.580000	8183.520000	-2.284430	-4.989117	-3.983115	-3.215452	0.961812	0.509058	4.324844	0.925530	-48.725180	17.136980	14.222320	-0.716856	-0.043030	0.631529	-1.000000	-1.000000	-1.000000	-1.000000	-1.000000	-1.000000	-1.000000	62.000000	0.000000	-1.000000	-1.000000	1226102.000000	1776578852.811281
14610.510000	-15802.965000	16415.280000	59259.555000	26471.610000	8129.295000	-23696.865000	8186.445000	-0.450760	-1.420632	0.016206	1.305036	5.261026	-14.948673	-1.638295	0.508292	-48.725180	17.136980	14.222320	-0.716856	-0.043030	0.631529	-1.000000	-1.000000	-1.000000	-1.000000	-1.000000	-1.000000	-1.000000	62.000000	0.000000	-1.000000	-1.000000	1226103.000000	1776578852.811296
14616.360000	-15798.690000	16418.295000	59262.120000	26424.270000	8090.235000	-23694.435000	8196.075000	2.571212	2.842825	3.849123	4.412932	0.814783	-27.451317	-5.461394	1.558180	-48.725180	17.136980	14.222320	-0.716856	-0.043030	0.631529	-1.000000	-1.000000	-1.000000	-1.000000	-1.000000	-1.000000	-1.000000	62.000000	0.000000	-1.000000	-1.000000	1226104.000000	1776578852.812790
14610.870000	-15807.420000	16402.095000	59239.440000	26428.455000	8088.165000	-23687.955000	8200.035000	5.553573	6.413018	6.306119	5.289026	-9.357478	-32.140853	-6.079416	3.569969	-48.725180	17.136980	14.222320	-0.716856	-0.043030	0.631529	-1.000000	-1.000000	-1.000000	-1.000000	-1.000000	-1.000000	-1.000000	62.000000	0.000000	-1.000000	-1.000000	1226105.000000	1776578852.812800
14607.315000	-15807.690000	16401.375000	59239.755000	26466.480000	8130.780000	-23686.965000	8194.860000	6.258590	7.108960	5.537780	2.707419	-16.737742	-25.958385	-3.972579	4.793960	-48.725180	17.136980	14.222320	-0.716856	-0.043030	0.631529	-1.000000	-1.000000	-1.000000	-1.000000	-1.000000	-1.000000	-1.000000	62.000000	0.000000	-1.000000	-1.000000	1226106.000000	1776578852.816610
14608.485000	-15803.910000	16415.325000	59267.115000	26483.130000	8143.020000	-23699.565000	8188.245000	3.751938	4.439030	1.980355	-1.705071	-12.712988	-8.045897	-1.015394	3.432460	-48.725180	17.136980	14.222320	-0.716856	-0.043030	0.631529	-1.000000	-1.000000	-1.000000	-1.000000	-1.000000	-1.000000	-1.000000	62.000000	0.000000	-1.000000	-1.000000	1226107.000000	1776578852.816635
14609.115000	-15808.365000	16409.385000	59263.245000	26470.035000	8145.855000	-23698.620000	8191.305000	-0.382418	0.375132	-1.263605	-3.546605	1.639221	15.180791	0.496225	-0.516620	-48.725180	17.136980	14.222320	-0.716856	-0.043030	0.631529	-1.000000	-1.000000	-1.000000	-1.000000	-1.000000	-1.000000	-1.000000	62.000000	0.000000	-1.000000	-1.000000	1226108.000000	1776578852.820534
14607.450000	-15812.100000	16400.610000	59252.535000	26453.430000	8137.485000	-23697.855000	8186.355000	-3.647368	-2.935240	-2.473940	-1.648725	15.092035	31.393975	0.114767	-4.779061	-48.725180	17.136980	14.222320	-0.716856	-0.043030	0.631529	-1.000000	-1.000000	-1.000000	-1.000000	-1.000000	-1.000000	-1.000000	62.000000	0.000000	-1.000000	-1.000000	1226109.000000	1776578852.820556
14613.525000	-15803.280000	16411.860000	59269.230000	26465.130000	8140.770000	-23702.985000	8192.025000	-4.611912	-4.411131	-2.404034	0.949406	18.007530	32.160033	-0.697391	-6.790081	-48.725180	17.136980	14.222320	-0.716856	-0.043030	0.631529	-1.000000	-1.000000	-1.000000	-1.000000	-1.000000	-1.000000	-1.000000	62.000000	0.000000	-1.000000	-1.000000	1226110.000000	1776578852.824664
14617.755000	-15794.505000	16424.100000	59286.420000	26465.985000	8139.060000	-23704.605000	8197.110000	-3.200279	-3.452921	-1.354704	2.530385	10.976582	19.151337	-0.809613	-5.465195	-48.725180	17.136980	14.222320	-0.716856	-0.043030	0.631529	-1.000000	-1.000000	-1.000000	-1.000000	-1.000000	-1.000000	-1.000000	62.000000	0.000000	-1.000000	-1.000000	1226111.000000	1776578852.824697
14614.740000	-15796.845000	16423.470000	59287.995000	26476.155000	8145.000000	-23707.395000	8192.025000	-0.495828	-0.472331	0.913641	3.708220	1.220324	1.205143	-0.208251	-1.691030	77.200340	21.974400	-17.060680	-0.703795	-0.057861	0.638365	-1.000000	-1.000000	-1.000000	-1.000000	-1.000000	-1.000000	-1.000000	62.000000	0.000000	-1.000000	-1.000000	1226112.000000	1776578852.828433
14608.980000	-15806.340000	16413.570000	59275.305000	26461.485000	8099.460000	-23702.265000	8187.255000	1.554224	2.273246	2.910834	3.830658	-5.515207	-13.432147	0.816840	2.006054	77.200340	21.974400	-17.060680	-0.703795	-0.057861	0.638365	-1.000000	-1.000000	-1.000000	-1.000000	-1.000000	-1.000000	-1.000000	62.000000	0.000000	-1.000000	-1.000000	1226113.000000	1776578852.828444
14593.680000	-15826.905000	16390.080000	59251.905000	26458.605000	8078.085000	-23701.455000	8178.885000	1.304188	2.072350	1.988183	0.774235	-8.217807	-21.981271	2.090459	3.288956	77.200340	21.974400	-17.060680	-0.703795	-0.057861	0.638365	-1.000000	-1.000000	-1.000000	-1.000000	-1.000000	-1.000000	-1.000000	62.000000	0.000000	-1.000000	-1.000000	1226114.000000	1776578852.832592
14601.060000	-15817.590000	16401.105000	59269.410000	26498.430000	8124.390000	-23709.780000	8183.655000	-1.031833	-1.310531	-2.245784	-5.149988	-7.521855	-23.359726	3.046641	2.014731	77.200340	21.974400	-17.060680	-0.703795	-0.057861	0.638365	-1.000000	-1.000000	-1.000000	-1.000000	-1.000000	-1.000000	-1.000000	62.000000	0.000000	-1.000000	-1.000000	1226115.000000	1776578852.832623
14624.505000	-15791.715000	16425.585000	59294.385000	26490.870000	8151.885000	-23707.665000	8200.575000	-2.629792	-4.134924	-5.806321	-9.031484	-3.221610	-14.394964	2.747594	0.448210	77.200340	21.974400	-17.060680	-0.703795	-0.057861	0.638365	-1.000000	-1.000000	-1.000000	-1.000000	-1.000000	-1.000000	-1.000000	62.000000	0.000000	-1.000000	-1.000000	1226116.000000	1776578852.836626
14619.105000	-15797.340000	16418.970000	59291.505000	26459.730000	8145.855000	-23699.385000	8196.255000	-0.701789	-2.378209	-4.267105	-6.273468	2.071731	3.502226	1.338229	0.869290	77.200340	21.974400	-17.060680	-0.703795	-0.057861	0.638365	-1.000000	-1.000000	-1.000000	-1.000000	-1.000000	-1.000000	-1.000000	62.000000	0.000000	-1.000000	-1.000000	1226117.000000	1776578852.836643
14612.400000	-15804.900000	16412.850000	59289.975000	26450.955000	8125.650000	-23699.520000	8191.125000	3.305029	2.623730	1.146919	1.105170	2.897882	19.626971	0.171202	2.565148	77.200340	21.974400	-17.060680	-0.703795	-0.057861	0.638365	-1.000000	-1.000000	-1.000000	-1.000000	-1.000000	-1.000000	-1.000000	62.000000	0.000000	-1.000000	-1.000000	1226118.000000	1776578852.840750
14614.020000	-15802.965000	16414.785000	59290.650000	26449.785000	8088.210000	-23712.930000	8190.360000	5.216077	5.799051	5.231053	6.865292	-1.705470	22.425007	-0.379035	2.884793	77.200340	21.974400	-17.060680	-0.703795	-0.057861	0.638365	-1.000000	-1.000000	-1.000000	-1.000000	-1.000000	-1.000000	-1.000000	62.000000	0.000000	-1.000000	-1.000000	1226119.000000	1776578852.840789
14615.460000	-15807.420000	16406.730000	59279.805000	26416.260000	8042.130000	-23716.305000	8197.020000	3.430579	4.629268	5.077620	7.201839	-7.135490	9.533189	-1.400986	1.028400	77.200340	21.974400	-17.060680	-0.703795	-0.057861	0.638365	-1.000000	-1.000000	-1.000000	-1.000000	-1.000000	-1.000000	-1.000000	62.000000	0.000000	-1.000000	-1.000000	1226120.000000	1776578852.845985
14604.435000	-15817.725000	16397.640000	59274.585000	26409.195000	8081.325000	-23702.850000	8192.430000	-0.354228	0.459235	1.494013	2.687798	-9.480015	-9.794271	-2.871010	-1.402234	77.200340	21.974400	-17.060680	-0.703795	-0.057861	0.638365	-1.000000	-1.000000	-1.000000	-1.000000	-1.000000	-1.000000	-1.000000	62.000000	0.000000	-1.000000	-1.000000	1226121.000000	1776578852.845994
14599.755000	-15814.935000	16406.730000	59296.455000	26478.990000	8161.065000	-23702.490000	8182.710000	-4.027811	-3.996298	-2.826241	-2.895270	-6.181369	-19.123386	-2.920607	-3.074939	134.318520	18.220440	-35.342160	-0.706541	0.030884	0.639830	-1.000000	-1.000000	-1.000000	-1.000000	-1.000000	-1.000000	-1.000000	62.000000	0.000000	-1.000000	-1.000000	1226122.000000	1776578852.848618
14593.950000	-15821.370000	16397.730000	59286.960000	26488.710000	8148.555000	-23706.540000	8179.425000	-6.207526	-6.268531	-4.965975	-5.181613	4.870533	-8.833641	-0.882281	-4.008120	134.318520	18.220440	-35.342160	-0.706541	0.030884	0.639830	-1.000000	-1.000000	-1.000000	-1.000000	-1.000000	-1.000000	-1.000000	62.000000	0.000000	-1.000000	-1.000000	1226123.000000	1776578852.848644
14588.955000	-15832.485000	16385.445000	59275.530000	26464.545000	8138.565000	-23703.840000	8181.675000	-6.085207	-5.541913	-4.176498	-3.545260	18.818237	11.467605	1.489514	-4.117571	134.318520	18.220440	-35.342160	-0.706541	0.030884	0.639830	-1.000000	-1.000000	-1.000000	-1.000000	-1.000000	-1.000000	-1.000000	62.000000	0.000000	-1.000000	-1.000000	1226124.000000	1776578852.852883
14601.285000	-15823.710000	16390.980000	59280.975000	26459.910000	8133.210000	-23703.345000	8190.405000	-3.459435	-2.808662	-2.004752	-0.964284	24.098031	22.821959	2.499697	-2.579781	134.318520	18.220440	-35.342160	-0.706541	0.030884	0.639830	-1.000000	-1.000000	-1.000000	-1.000000	-1.000000	-1.000000	-1.000000	62.000000	0.000000	-1.000000	-1.000000	1226125.000000	1776578852.852908
14605.380000	-15814.170000	16403.085000	59298.930000	26484.030000	8127.765000	-23704.290000	8188.380000	1.260128	1.042451	0.659304	0.993336	15.680644	16.824378	1.982640	0.760456	134.318520	18.220440	-35.342160	-0.706541	0.030884	0.639830	-1.000000	-1.000000	-1.000000	-1.000000	-1.000000	-1.000000	-1.000000	62.000000	0.000000	-1.000000	-1.000000	1226126.000000	1776578852.856682
14601.735000	-15819.030000	16402.770000	59305.140000	26465.535000	8123.895000	-23701.320000	8185.320000	6.322810	5.251236	3.922985	3.222536	0.212135	-0.190776	0.650702	4.218219	134.318520	18.220440	-35.342160	-0.706541	0.030884	0.639830	-1.000000	-1.000000	-1.000000	-1.000000	-1.000000	-1.000000	-1.000000	62.000000	0.000000	-1.000000	-1.000000	1226127.000000	1776578852.856695
14602.095000	-15818.670000	16406.235000	59314.905000	26493.660000	8166.735000	-23689.530000	8184.735000	8.858497	7.854221	6.708318	5.761409	-12.739763	-15.545367	-0.394056	5.518828	134.318520	18.220440	-35.342160	-0.706541	0.030884	0.639830	-1.000000	-1.000000	-1.000000	-1.000000	-1.000000	-1.000000	-1.000000	62.000000	0.000000	-1.000000	-1.000000	1226128.000000	1776578852.860626
14599.170000	-15821.370000	16401.510000	59305.185000	26482.815000	8183.205000	-23684.490000	8185.545000	7.292215	7.057743	7.044564	6.664646	-17.770757	-19.189532	-0.191659	4.064678	134.318520	18.220440	-35.342160	-0.706541	0.030884	0.639830	-1.000000	-1.000000	-1.000000	-1.000000	-1.000000	-1.000000	-1.000000	62.000000	0.000000	-1.000000	-1.000000	1226129.000000	1776578852.860636
14593.905000	-15827.445000	16391.565000	59291.595000	26450.685000	8155.035000	-23692.230000	8180.055000	2.598738	3.134873	3.991827	3.816770	-15.699344	-11.213288	0.792257	1.092669	134.318520	18.220440	-35.342160	-0.706541	0.030884	0.639830	-1.000000	-1.000000	-1.000000	-1.000000	-1.000000	-1.000000	-1.000000	62.000000	0.000000	-1.000000	-1.000000	1226130.000000	1776578852.864841
14593.770000	-15825.870000	16393.815000	59294.880000	26448.795000	8119.440000	-23703.075000	8176.860000	-2.771039	-1.901754	-1.374687	-2.485619	-11.539675	-1.848396	0.600931	-1.868300	134.318520	18.220440	-35.342160	-0.706541	0.030884	0.639830	-1.000000	-1.000000	-1.000000	-1.000000	-1.000000	-1.000000	-1.000000	62.000000	0.000000	-1.000000	-1.000000	1226131.000000	1776578852.864859
14598.225000	-15819.750000	16401.465000	59306.310000	26467.605000	8095.050000	-23717.790000	8178.840000	-6.219950	-5.423667	-6.032122	-8.366907	-7.549902	-0.459887	-2.053704	-3.709746	124.781020	9.659580	-33.663560	-0.723509	0.159545	0.630919	-1.000000	-1.000000	-1.000000	-1.000000	-1.000000	-1.000000	-1.000000	62.000000	0.000000	-1.000000	-1.000000	1226132.000000	1776578852.868717
14608.800000	-15812.955000	16404.750000	59307.795000	26455.410000	8103.420000	-23703.750000	8192.250000	-6.068987	-5.563050	-7.019844	-9.447775	-1.944935	-5.872837	-5.652713	-3.474513	124.781020	9.659580	-33.663560	-0.723509	0.159545	0.630919	-1.000000	-1.000000	-1.000000	-1.000000	-1.000000	-1.000000	-1.000000	62.000000	0.000000	-1.000000	-1.000000	1226133.000000	1776578852.868733
14608.935000	-15812.325000	16405.830000	59311.170000	26440.920000	8125.020000	-23688.180000	8194.455000	-2.626725	-2.638487	-4.140353	-5.241537	4.865148	-8.846616	-6.339329	-0.863252	124.781020	9.659580	-33.663560	-0.723509	0.159545	0.630919	-1.000000	-1.000000	-1.000000	-1.000000	-1.000000	-1.000000	-1.000000	62.000000	0.000000	-1.000000	-1.000000	1226134.000000	1776578852.874063
14604.930000	-15812.145000	16409.295000	59317.065000	26466.030000	8144.910000	-23696.415000	8187.210000	1.563418	0.979208	0.144329	0.995834	9.780844	-2.376500	-2.103610	2.495059	124.781020	9.659580	-33.663560	-0.723509	0.159545	0.630919	-1.000000	-1.000000	-1.000000	-1.000000	-1.000000	-1.000000	-1.000000	62.000000	0.000000	-1.000000	-1.000000	1226135.000000	1776578852.874078
14606.955000	-15811.020000	16408.305000	59314.950000	26467.830000	8145.225000	-23716.890000	8186.445000	3.579915	2.860265	3.144635	5.610797	11.875231	11.105948	3.698254	3.820644	124.781020	9.659580	-33.663560	-0.723509	0.159545	0.630919	-1.000000	-1.000000	-1.000000	-1.000000	-1.000000	-1.000000	-1.000000	62.000000	0.000000	-1.000000	-1.000000	1226136.000000	1776578852.876693
14613.840000	-15802.605000	16410.105000	59307.660000	26451.135000	8142.795000	-23716.395000	8194.455000	2.767128	2.448853	3.636068	6.487915	11.483837	22.073338	5.828932	2.242397	124.781020	9.659580	-33.663560	-0.723509	0.159545	0.630919	-1.000000	-1.000000	-1.000000	-1.000000	-1.000000	-1.000000	-1.000000	62.000000	0.000000	-1.000000	-1.000000	1226137.000000	1776578852.876705
14607.495000	-15810.705000	16403.850000	59304.240000	26442.090000	8112.150000	-23708.970000	8189.415000	0.631512	0.787921	1.932095	3.556377	7.535463	22.084506	3.555925	-0.468994	124.781020	9.659580	-33.663560	-0.723509	0.159545	0.630919	-1.000000	-1.000000	-1.000000	-1.000000	-1.000000	-1.000000	-1.000000	62.000000	0.000000	-1.000000	-1.000000	1226138.000000	1776578852.880661
14593.950000	-15822.540000	16399.575000	59311.260000	26456.850000	8118.945000	-23700.330000	8180.865000	-1.676591	-1.398119	-0.872404	-0.964405	0.600933	10.258303	0.693061	-2.622929	124.781020	9.659580	-33.663560	-0.723509	0.159545	0.630919	-1.000000	-1.000000	-1.000000	-1.000000	-1.000000	-1.000000	-1.000000	62.000000	0.000000	-1.000000	-1.000000	1226139.000000	1776578852.880672
14587.155000	-15828.120000	16396.020000	59309.505000	26457.390000	8138.070000	-23699.070000	8173.935000	-4.040835	-3.963228	-3.467481	-3.895377	-5.301374	-5.532813	0.316384	-4.030612	124.781020	9.659580	-33.663560	-0.723509	0.159545	0.630919	-1.000000	-1.000000	-1.000000	-1.000000	-1.000000	-1.000000	-1.000000	62.000000	0.000000	-1.000000	-1.000000	1226140.000000	1776578852.884696
14592.105000	-15818.355000	16405.785000	59321.970000	26484.390000	8149.635000	-23711.490000	8172.630000	-5.625672	-5.673999	-4.404097	-3.545934	-6.472693	-14.751781	1.633352	-4.663457	124.781020	9.659580	-33.663560	-0.723509	0.159545	0.630919	-1.000000	-1.000000	-1.000000	-1.000000	-1.000000	-1.000000	-1.000000	62.000000	0.000000	-1.000000	-1.000000	1226141.000000	1776578852.884714
14599.440000	-15812.190000	16410.960000	59327.730000	26487.405000	8172.630000	-23716.980000	8178.345000	-4.575797	-4.416990	-2.626728	-0.464236	-2.765576	-12.981316	1.734018	-3.757063	60.841620	8.164100	-18.907140	-0.736082	0.287658	0.613158	-1.000000	-1.000000	-1.000000	-1.000000	-1.000000	-1.000000	-1.000000	62.000000	0.000000	-1.000000	-1.000000	1226142.000000	1776578852.889031
14600.205000	-15812.730000	16409.115000	59325.525000	26463.825000	8144.910000	-23703.795000	8182.530000	-0.332557	0.055336	1.183704	3.199449	1.918127	-4.543882	-0.297969	-0.733039	60.841620	8.164100	-18.907140	-0.736082	0.287658	0.613158	-1.000000	-1.000000	-1.000000	-1.000000	-1.000000	-1.000000	-1.000000	62.000000	0.000000	-1.000000	-1.000000	1226143.000000	1776578852.889053
14593.860000	-15819.750000	16398.990000	59312.430000	26423.730000	8061.660000	-23703.210000	8177.895000	4.798242	4.920812	4.327178	4.568697	1.714239	0.606438	-2.234331	3.392116	60.841620	8.164100	-18.907140	-0.736082	0.287658	0.613158	-1.000000	-1.000000	-1.000000	-1.000000	-1.000000	-1.000000	-1.000000	62.000000	0.000000	-1.000000	-1.000000	1226144.000000	1776578852.892758
14597.865000	-15819.795000	16395.705000	59309.595000	26433.450000	8030.205000	-23706.045000	8184.240000	7.502869	6.817079	4.311411	2.095528	-5.041396	-5.105551	-2.199438	6.329421	60.841620	8.164100	-18.907140	-0.736082	0.287658	0.613158	-1.000000	-1.000000	-1.000000	-1.000000	-1.000000	-1.000000	-1.000000	62.000000	0.000000	-1.000000	-1.000000	1226145.000000	1776578852.892772
14586.435000	-15833.205000	16384.365000	59302.800000	26448.840000	8047.755000	-23710.770000	8176.680000	6.379054	4.758050	1.174266	-2.698126	-11.960552	-16.781956	-1.011595	6.493615	60.841620	8.164100	-18.907140	-0.736082	0.287658	0.613158	-1.000000	-1.000000	-1.000000	-1.000000	-1.000000	-1.000000	-1.000000	62.000000	0.000000	-1.000000	-1.000000	1226146.000000	1776578852.897950
14600.475000	-15819.345000	16400.115000	59322.150000	26471.385000	8130.960000	-23712.705000	8187.030000	2.647542	0.548275	-2.522322	-6.090144	-10.684479	-18.718146	-0.362253	4.100963	60.841620	8.164100	-18.907140	-0.736082	0.287658	0.613158	-1.000000	-1.000000	-1.000000	-1.000000	-1.000000	-1.000000	-1.000000	62.000000	0.000000	-1.000000	-1.000000	1226147.000000	1776578852.897972
14615.010000	-15804.495000	16414.065000	59334.075000	26453.610000	8160.435000	-23717.070000	8199.720000	-0.687859	-2.319339	-3.367883	-4.846071	-0.549638	-0.838252	-0.730530	1.043284	60.841620	8.164100	-18.907140	-0.736082	0.287658	0.613158	-1.000000	-1.000000	-1.000000	-1.000000	-1.000000	-1.000000	-1.000000	62.000000	0.000000	-1.000000	-1.000000	1226148.000000	1776578852.900623
14599.035000	-15823.485000	16394.310000	59317.605000	26442.855000	8127.180000	-23716.755000	8183.700000	-1.561445	-1.851521	-0.494214	0.451761	10.313582	27.130965	-1.402378	-0.944902	60.841620	8.164100	-18.907140	-0.736082	0.287658	0.613158	-1.000000	-1.000000	-1.000000	-1.000000	-1.000000	-1.000000	-1.000000	62.000000	0.000000	-1.000000	-1.000000	1226149.000000	1776578852.900637
14586.840000	-15832.890000	16389.000000	59315.085000	26451.495000	8129.070000	-23715.405000	8173.170000	-1.525261	-0.273588	2.635474	5.046437	13.887209	42.806076	-1.384546	-2.537940	60.841620	8.164100	-18.907140	-0.736082	0.287658	0.613158	-1.000000	-1.000000	-1.000000	-1.000000	-1.000000	-1.000000	-1.000000	62.000000	0.000000	-1.000000	-1.000000	1226150.000000	1776578852.904669
14599.800000	-15815.295000	16408.260000	59334.165000	26469.945000	8130.465000	-23711.670000	8184.735000	-2.782717	-0.339680	2.905911	5.518409	10.106310	33.985838	-0.179568	-4.727772	60.841620	8.164100	-18.907140	-0.736082	0.287658	0.613158	-1.000000	-1.000000	-1.000000	-1.000000	-1.000000	-1.000000	-1.000000	62.000000	0.000000	-1.000000	-1.000000	1226151.000000	1776578852.904683
14598.495000	-15818.625000	16405.335000	59330.385000	26466.075000	8134.155000	-23702.670000	8187.255000	-4.209218	-1.126066	1.520149	3.291564	4.234790	8.341652	1.936304	-5.892879	-20.539960	8.774500	1.785420	-0.735411	0.364196	0.602904	-1.000000	-1.000000	-1.000000	-1.000000	-1.000000	-1.000000	-1.000000	62.000000	0.000000	-1.000000	-1.000000	1226152.000000	1776578852.908628
14596.065000	-15823.260000	16396.380000	59314.095000	26453.340000	8107.155000	-23700.825000	8187.075000	-3.716846	-0.907716	0.419041	0.588595	-0.546317	-18.068852	4.071711	-4.191639	-20.539960	8.774500	1.785420	-0.735411	0.364196	0.602904	-1.000000	-1.000000	-1.000000	-1.000000	-1.000000	-1.000000	-1.000000	62.000000	0.000000	-1.000000	-1.000000	1226153.000000	1776578852.908640
14599.620000	-15821.460000	16396.425000	59312.340000	26432.325000	8087.355000	-23701.995000	8189.640000	-1.468549	-0.130903	-0.688370	-2.465594	-4.880714	-34.238048	4.907787	-0.480944	-20.539960	8.774500	1.785420	-0.735411	0.364196	0.602904	-1.000000	-1.000000	-1.000000	-1.000000	-1.000000	-1.000000	-1.000000	62.000000	0.000000	-1.000000	-1.000000	1226154.000000	1776578852.914076
14607.765000	-15809.580000	16411.230000	59331.555000	26479.170000	8128.395000	-23706.270000	8191.710000	1.259755	0.517259	-1.856392	-4.988407	-8.476372	-36.122830	3.373973	2.956529	-20.539960	8.774500	1.785420	-0.735411	0.364196	0.602904	-1.000000	-1.000000	-1.000000	-1.000000	-1.000000	-1.000000	-1.000000	62.000000	0.000000	-1.000000	-1.000000	1226155.000000	1776578852.914092
14618.250000	-15799.140000	16421.805000	59342.085000	26506.800000	8173.530000	-23707.395000	8195.850000	3.716774	1.515630	-1.581776	-4.361552	-7.338056	-22.861489	-0.243421	4.615848	-20.539960	8.774500	1.785420	-0.735411	0.364196	0.602904	-1.000000	-1.000000	-1.000000	-1.000000	-1.000000	-1.000000	-1.000000	62.000000	0.000000	-1.000000	-1.000000	1226156.000000	1776578852.916590
14607.495000	-15802.020000	16418.070000	59336.820000	26489.070000	8198.370000	-23706.000000	8186.490000	5.108898	2.903033	0.571837	-0.173150	-0.086591	1.380949	-4.102114	4.103799	-20.539960	8.774500	1.785420	-0.735411	0.364196	0.602904	-1.000000	-1.000000	-1.000000	-1.000000	-1.000000	-1.000000	-1.000000	62.000000	0.000000	-1.000000	-1.000000	1226157.000000	1776578852.916602
14600.880000	-15810.435000	16411.455000	59333.355000	26471.880000	8184.735000	-23703.525000	8185.500000	4.014885	3.094822	2.385351	4.046107	6.715524	24.405784	-6.012343	1.662721	-20.539960	8.774500	1.785420	-0.735411	0.364196	0.602904	-1.000000	-1.000000	-1.000000	-1.000000	-1.000000	-1.000000	-1.000000	62.000000	0.000000	-1.000000	-1.000000	1226158.000000	1776578852.920774
14607.450000	-15813.135000	16405.695000	59324.580000	26449.695000	8145.135000	-23702.445000	8196.885000	0.242550	0.638176	1.433901	4.567770	5.557476	31.864072	-5.038435	-1.372735	-20.539960	8.774500	1.785420	-0.735411	0.364196	0.602904	-1.000000	-1.000000	-1.000000	-1.000000	-1.000000	-1.000000	-1.000000	62.000000	0.000000	-1.000000	-1.000000	1226159.000000	1776578852.920790
14602.095000	-15820.605000	16398.000000	59317.245000	26438.670000	8108.145000	-23706.405000	8191.620000	-3.859522	-3.589975	-2.102736	1.010547	-3.294028	18.204043	-2.133587	-2.920509	-20.539960	8.774500	1.785420	-0.735411	0.364196	0.602904	-1.000000	-1.000000	-1.000000	-1.000000	-1.000000	-1.000000	-1.000000	62.000000	0.000000	-1.000000	-1.000000	1226160.000000	1776578852.924653
14586.615000	-15834.330000	16387.245000	59310.135000	26421.885000	8087.985000	-23716.125000	8176.680000	-6.040787	-7.225737	-5.911736	-4.004842	-12.878286	-8.068628	0.578671	-2.661623	-20.539960	8.774500	1.785420	-0.735411	0.364196	0.602904	-1.000000	-1.000000	-1.000000	-1.000000	-1.000000	-1.000000	-1.000000	62.000000	0.000000	-1.000000	-1.000000	1226161.000000	1776578852.924663
14587.695000	-15832.080000	16386.750000	59308.065000	26416.305000	8099.235000	-23723.190000	8173.485000	-6.137698	-8.386503	-7.590602	-7.155204	-16.263916	-29.756951	1.385671	-2.291717	-70.608020	5.112100	17.991540	-0.736753	0.369750	0.605467	-1.000000	-1.000000	-1.000000	-1.000000	-1.000000	-1.000000	-1.000000	62.000000	0.000000	-1.000000	-1.000000	1226162.000000	1776578852.928807
14596.560000	-15819.525000	16401.960000	59329.260000	26485.200000	8168.805000	-23708.340000	8182.440000	-4.293310	-5.889642	-5.537788	-6.084011	-9.855927	-31.841477	0.686523	-2.318976	-70.608020	5.112100	17.991540	-0.736753	0.369750	0.605467	-1.000000	-1.000000	-1.000000	-1.000000	-1.000000	-1.000000	-1.000000	62.000000	0.000000	-1.000000	-1.000000	1226163.000000	1776578852.928824
14599.485000	-15816.375000	16406.595000	59337.000000	26496.810000	8158.770000	-23707.665000	8184.870000	-0.263601	0.239695	0.367121	-0.375314	5.979773	-11.755475	0.683250	-1.249400	-70.608020	5.112100	17.991540	-0.736753	0.369750	0.605467	-1.000000	-1.000000	-1.000000	-1.000000	-1.000000	-1.000000	-1.000000	62.000000	0.000000	-1.000000	-1.000000	1226164.000000	1776578852.932779
14596.380000	-15818.445000	16405.695000	59341.185000	26499.195000	8164.575000	-23709.510000	8180.415000	4.689174	7.336365	7.505065	7.256062	23.688576	16.688162	2.314984	1.446195	-70.608020	5.112100	17.991540	-0.736753	0.369750	0.605467	-1.000000	-1.000000	-1.000000	-1.000000	-1.000000	-1.000000	-1.000000	62.000000	0.000000	-1.000000	-1.000000	1226165.000000	1776578852.932795
14598.495000	-15817.230000	16407.720000	59345.325000	26488.710000	8173.125000	-23692.005000	8184.375000	7.836783	11.316143	11.628975	12.050472	31.010870	34.310362	4.265704	4.093625	-70.608020	5.112100	17.991540	-0.736753	0.369750	0.605467	-1.000000	-1.000000	-1.000000	-1.000000	-1.000000	-1.000000	-1.000000	62.000000	0.000000	-1.000000	-1.000000	1226166.000000	1776578852.938157
14599.890000	-15817.140000	16405.920000	59343.705000	26480.610000	8141.715000	-23691.465000	8182.260000	7.540955	10.114900	10.358249	10.951953	21.752409	31.949057	5.254657	4.951288	-70.608020	5.112100	17.991540	-0.736753	0.369750	0.605467	-1.000000	-1.000000	-1.000000	-1.000000	-1.000000	-1.000000	-1.000000	62.000000	0.000000	-1.000000	-1.000000	1226167.000000	1776578852.938174
14597.325000	-15821.595000	16398.630000	59331.915000	26486.235000	8150.220000	-23690.925000	8183.925000	4.392488	4.886057	4.609427	4.414958	1.305427	13.465502	4.611046	3.743253	-70.608020	5.112100	17.991540	-0.736753	0.369750	0.605467	-1.000000	-1.000000	-1.000000	-1.000000	-1.000000	-1.000000	-1.000000	62.000000	0.000000	-1.000000	-1.000000	1226168.000000	1776578852.940727
14599.710000	-15817.770000	16397.910000	59321.790000	26481.960000	8157.420000	-23689.710000	8193.060000	0.164871	-1.477259	-2.693167	-4.668009	-18.341450	-9.020245	1.913311	1.488999	-70.608020	5.112100	17.991540	-0.736753	0.369750	0.605467	-1.000000	-1.000000	-1.000000	-1.000000	-1.000000	-1.000000	-1.000000	62.000000	0.000000	-1.000000	-1.000000	1226169.000000	1776578852.940739
14608.305000	-15810.705000	16407.945000	59333.940000	26475.840000	8155.575000	-23697.450000	8197.290000	-3.144389	-5.922304	-8.005174	-12.044629	-27.795607	-22.984086	-2.241621	-0.274281	-70.608020	5.112100	17.991540	-0.736753	0.369750	0.605467	-1.000000	-1.000000	-1.000000	-1.000000	-1.000000	-1.000000	-1.000000	62.000000	0.000000	-1.000000	-1.000000	1226170.000000	1776578852.944677
14608.215000	-15810.120000	16410.780000	59338.575000	26477.820000	8154.360000	-23695.920000	8195.760000	-4.152715	-6.700602	-8.728634	-13.563233	-25.154182	-23.750621	-6.275189	-0.922498	-70.608020	5.112100	17.991540	-0.736753	0.369750	0.605467	-1.000000	-1.000000	-1.000000	-1.000000	-1.000000	-1.000000	-1.000000	62.000000	0.000000	-1.000000	-1.000000	1226171.000000	1776578852.944695
14602.680000	-15815.655000	16405.155000	59332.275000	26469.810000	8128.215000	-23702.535000	8189.820000	-3.255500	-4.597721	-5.270764	-8.471945	-14.317367	-15.484348	-8.458487	-1.328845	-75.903240	-0.259420	18.907140	-0.741087	0.315734	0.608946	-1.000000	-1.000000	-1.000000	-1.000000	-1.000000	-1.000000	-1.000000	62.000000	0.000000	-1.000000	-1.000000	1226172.000000	1776578852.948797
14606.595000	-15813.720000	16406.370000	59328.810000	26440.695000	8087.895000	-23705.595000	8192.880000	-2.074486	-1.979648	-0.749348	-0.625312	-1.847766	-6.281082	-7.894453	-2.393059	-75.903240	-0.259420	18.907140	-0.741087	0.315734	0.608946	-1.000000	-1.000000	-1.000000	-1.000000	-1.000000	-1.000000	-1.000000	62.000000	0.000000	-1.000000	-1.000000	1226173.000000	1776578852.948805
14613.435000	-15805.620000	16413.705000	59331.870000	26428.770000	8056.170000	-23711.490000	8196.345000	-1.306246	-0.215899	2.229088	5.277564	6.225330	-2.140457	-5.052048	-3.538417	-75.903240	-0.259420	18.907140	-0.741087	0.315734	0.608946	-1.000000	-1.000000	-1.000000	-1.000000	-1.000000	-1.000000	-1.000000	62.000000	0.000000	-1.000000	-1.000000	1226174.000000	1776578852.952713
14613.165000	-15807.465000	16409.520000	59324.760000	26423.775000	8071.785000	-23713.290000	8196.930000	-0.455181	0.938128	3.249850	7.289777	8.317288	-2.153601	-1.189841	-3.469639	-75.903240	-0.259420	18.907140	-0.741087	0.315734	0.608946	-1.000000	-1.000000	-1.000000	-1.000000	-1.000000	-1.000000	-1.000000	62.000000	0.000000	-1.000000	-1.000000	1226175.000000	1776578852.952724
14604.120000	-15817.815000	16398.810000	59315.445000	26447.130000	8133.885000	-23709.870000	8190.585000	0.381922	1.500551	2.572889	5.802077	7.965286	1.078619	2.573328	-2.050116	-75.903240	-0.259420	18.907140	-0.741087	0.315734	0.608946	-1.000000	-1.000000	-1.000000	-1.000000	-1.000000	-1.000000	-1.000000	62.000000	0.000000	-1.000000	-1.000000	1226176.000000	1776578852.956953
14600.160000	-15818.715000	16402.995000	59328.360000	26494.740000	8179.605000	-23705.460000	8186.985000	0.235783	0.803406	0.467507	2.497457	10.206975	13.538477	5.664181	-0.489746	-75.903240	-0.259420	18.907140	-0.741087	0.315734	0.608946	-1.000000	-1.000000	-1.000000	-1.000000	-1.000000	-1.000000	-1.000000	62.000000	0.000000	-1.000000	-1.000000	1226177.000000	1776578852.957012
14588.910000	-15831.720000	16394.085000	59327.910000	26484.030000	8156.610000	-23704.380000	8180.415000	-1.192940	-1.045645	-1.885412	-0.018540	16.036640	30.058035	7.626666	0.153821	-75.903240	-0.259420	18.907140	-0.741087	0.315734	0.608946	-1.000000	-1.000000	-1.000000	-1.000000	-1.000000	-1.000000	-1.000000	62.000000	0.000000	-1.000000	-1.000000	1226178.000000	1776578852.960752
14584.455000	-15836.715000	16388.145000	59325.570000	26497.980000	8171.235000	-23700.285000	8178.525000	-2.961696	-2.970831	-3.174340	-0.346693	19.826141	36.453206	7.816297	-0.050758	-75.903240	-0.259420	18.907140	-0.741087	0.315734	0.608946	-1.000000	-1.000000	-1.000000	-1.000000	-1.000000	-1.000000	-1.000000	62.000000	0.000000	-1.000000	-1.000000	1226179.000000	1776578852.960781
14589.855000	-15830.010000	16394.130000	59327.460000	26471.565000	8165.520000	-23700.330000	8183.205000	-3.469108	-3.548674	-2.907360	0.480811	14.946158	24.578169	5.938810	-0.120842	-75.903240	-0.259420	18.907140	-0.741087	0.315734	0.608946	-1.000000	-1.000000	-1.000000	-1.000000	-1.000000	-1.000000	-1.000000	62.000000	0.000000	-1.000000	-1.000000	1226180.000000	1776578852.966119
14596.605000	-15819.390000	16405.245000	59338.215000	26463.465000	8168.445000	-23707.035000	8185.320000	-1.370456	-1.431118	-0.765791	1.127894	0.802678	0.255926	2.342421	0.925879	-75.903240	-0.259420	18.907140	-0.741087	0.315734	0.608946	-1.000000	-1.000000	-1.000000	-1.000000	-1.000000	-1.000000	-1.000000	62.000000	0.000000	-1.000000	-1.000000	1226181.000000	1776578852.966131
14599.710000	-15811.605000	16412.580000	59346.135000	26470.980000	8162.010000	-23714.370000	8183.655000	2.997072	3.273345	3.072771	1.540399	-16.052593	-23.638075	-2.212758	2.878339	-47.260220	0.061040	9.369640	-0.738035	0.243957	0.610533	-1.000000	-1.000000	-1.000000	-1.000000	-1.000000	-1.000000	-1.000000	62.000000	0.000000	-1.000000	-1.000000	1226182.000000	1776578852.968797
14605.740000	-15804.990000	16410.465000	59332.050000	26474.940000	8170.965000	-23713.155000	8189.550000	7.313461	8.193448	6.769495	1.592078	-26.095060	-36.520735	-6.347966	4.406072	-47.260220	0.061040	9.369640	-0.738035	0.243957	0.610533	-1.000000	-1.000000	-1.000000	-1.000000	-1.000000	-1.000000	-1.000000	62.000000	0.000000	-1.000000	-1.000000	1226183.000000	1776578852.968807
14606.370000	-15806.430000	16412.040000	59335.110000	26476.335000	8144.415000	-23714.505000	8190.855000	9.016236	10.158296	7.658020	0.233117	-24.112653	-35.074231	-8.175001	4.522290	-47.260220	0.061040	9.369640	-0.738035	0.243957	0.610533	-1.000000	-1.000000	-1.000000	-1.000000	-1.000000	-1.000000	-1.000000	62.000000	0.000000	-1.000000	-1.000000	1226184.000000	1776578852.972693
14606.640000	-15809.130000	16409.655000	59336.100000	26464.725000	8097.930000	-23719.230000	8192.745000	7.025467	7.425879	4.684829	-2.492688	-12.954414	-24.232700	-6.771845	3.196204	-47.260220	0.061040	9.369640	-0.738035	0.243957	0.610533	-1.000000	-1.000000	-1.000000	-1.000000	-1.000000	-1.000000	-1.000000	62.000000	0.000000	-1.000000	-1.000000	1226185.000000	1776578852.972707
14604.795000	-15813.945000	16401.555000	59325.030000	26438.715000	8067.780000	-23721.255000	8193.735000	2.152698	0.880538	-0.787069	-4.891647	-0.487044	-12.447048	-3.165308	0.927222	-47.260220	0.061040	9.369640	-0.738035	0.243957	0.610533	-1.000000	-1.000000	-1.000000	-1.000000	-1.000000	-1.000000	-1.000000	62.000000	0.000000	-1.000000	-1.000000	1226186.000000	1776578852.976746
14596.065000	-15821.190000	16394.760000	59318.280000	26436.555000	8074.890000	-23717.655000	8187.570000	-3.607318	-6.520127	-6.336615	-5.865085	6.702754	-3.456047	0.823238	-1.650744	-47.260220	0.061040	9.369640	-0.738035	0.243957	0.610533	-1.000000	-1.000000	-1.000000	-1.000000	-1.000000	-1.000000	-1.000000	62.000000	0.000000	-1.000000	-1.000000	1226187.000000	1776578852.976763
14587.200000	-15832.125000	16386.255000	59314.635000	26458.875000	8107.425000	-23711.580000	8183.295000	-8.288445	-11.658225	-9.792136	-5.371529	8.377815	6.004991	4.077531	-4.033712	-47.260220	0.061040	9.369640	-0.738035	0.243957	0.610533	-1.000000	-1.000000	-1.000000	-1.000000	-1.000000	-1.000000	-1.000000	62.000000	0.000000	-1.000000	-1.000000	1226188.000000	1776578852.982132
14590.125000	-15831.765000	16386.840000	59320.080000	26503.650000	8158.680000	-23698.215000	8189.730000	-10.362381	-12.692157	-9.808100	-3.267009	9.702839	19.860780	6.342681	-5.494258	-47.260220	0.061040	9.369640	-0.738035	0.243957	0.610533	-1.000000	-1.000000	-1.000000	-1.000000	-1.000000	-1.000000	-1.000000	62.000000	0.000000	-1.000000	-1.000000	1226189.000000	1776578852.982144
14591.790000	-15825.690000	16395.345000	59326.380000	26478.675000	8141.805000	-23697.630000	8186.535000	-8.712029	-9.120368	-6.032581	0.588983	13.596291	34.947315	7.426604	-5.039302	-47.260220	0.061040	9.369640	-0.738035	0.243957	0.610533	-1.000000	-1.000000	-1.000000	-1.000000	-1.000000	-1.000000	-1.000000	62.000000	0.000000	-1.000000	-1.000000	1226190.000000	1776578852.985490
14603.625000	-15808.815000	16408.530000	59330.250000	26471.970000	8142.750000	-23695.830000	8192.430000	-3.416936	-1.679254	0.744224	5.308290	15.531960	40.786451	6.566494	-2.557213	-47.260220	0.061040	9.369640	-0.738035	0.243957	0.610533	-1.000000	-1.000000	-1.000000	-1.000000	-1.000000	-1.000000	-1.000000	62.000000	0.000000	-1.000000	-1.000000	1226191.000000	1776578852.985500
14598.135000	-15816.510000	16401.870000	59321.655000	26466.570000	8148.960000	-23707.890000	8184.285000	3.467027	7.006389	7.987056	8.616690	9.850042	30.085081	3.010748	0.673495	-0.274680	2.182180	-0.335720	-0.726561	0.187072	0.617186	-1.000000	-1.000000	-1.000000	-1.000000	-1.000000	-1.000000	-1.000000	62.000000	0.000000	-1.000000	-1.000000	1226192.000000	1776578852.989434
14594.535000	-15820.155000	16400.925000	59327.730000	26464.680000	8137.755000	-23713.740000	8179.920000	8.425597	12.550492	11.844293	8.360425	-1.903319	7.020931	-2.765385	2.782781	-0.274680	2.182180	-0.335720	-0.726561	0.187072	0.617186	-1.000000	-1.000000	-1.000000	-1.000000	-1.000000	-1.000000	-1.000000	62.000000	0.000000	-1.000000	-1.000000	1226193.000000	1776578852.989446
14591.385000	-15826.635000	16393.950000	59321.295000	26434.440000	8096.265000	-23710.995000	8182.260000	8.808955	11.729146	9.929545	4.623683	-13.327261	-17.950902	-8.407818	2.814342	-0.274680	2.182180	-0.335720	-0.726561	0.187072	0.617186	-1.000000	-1.000000	-1.000000	-1.000000	-1.000000	-1.000000	-1.000000	62.000000	0.000000	-1.000000	-1.000000	1226194.000000	1776578852.992982
14602.950000	-15816.825000	16401.915000	59325.750000	26451.810000	8128.170000	-23715.270000	8193.195000	5.246346	5.627931	3.642957	-0.429338	-19.228388	-35.336577	-10.780712	1.820950	-0.274680	2.182180	-0.335720	-0.726561	0.187072	0.617186	-1.000000	-1.000000	-1.000000	-1.000000	-1.000000	-1.000000	-1.000000	62.000000	0.000000	-1.000000	-1.000000	1226195.000000	1776578852.992991
14605.380000	-15814.440000	16406.775000	59333.985000	26494.785000	8180.955000	-23713.695000	8190.495000	0.964474	-1.256586	-2.853535	-4.172591	-16.195532	-37.143168	-8.551294	1.509512	-0.274680	2.182180	-0.335720	-0.726561	0.187072	0.617186	-1.000000	-1.000000	-1.000000	-1.000000	-1.000000	-1.000000	-1.000000	62.000000	0.000000	-1.000000	-1.000000	1226196.000000	1776578852.997980
14601.510000	-15818.985000	16400.430000	59321.880000	26456.310000	8124.255000	-23713.560000	8184.960000	-1.621955	-5.212344	-6.195775	-5.184057	-4.563497	-22.093458	-3.100545	1.833780	-0.274680	2.182180	-0.335720	-0.726561	0.187072	0.617186	-1.000000	-1.000000	-1.000000	-1.000000	-1.000000	-1.000000	-1.000000	62.000000	0.000000	-1.000000	-1.000000	1226197.000000	1776578852.997988
14595.300000	-15823.080000	16397.640000	59320.080000	26458.515000	8117.550000	-23715.225000	8184.465000	-2.741468	-5.914301	-6.257833	-4.360046	7.977586	-1.746446	2.835699	1.373654	-0.274680	2.182180	-0.335720	-0.726561	0.187072	0.617186	-1.000000	-1.000000	-1.000000	-1.000000	-1.000000	-1.000000	-1.000000	62.000000	0.000000	-1.000000	-1.000000	1226198.000000	1776578853.001005
14590.260000	-15824.520000	16396.425000	59321.655000	26487.810000	8169.075000	-23704.380000	8184.645000	-3.640831	-4.953598	-4.769961	-3.259353	13.576663	11.278268	6.949651	-0.264140	-0.274680	2.182180	-0.335720	-0.726561	0.187072	0.617186	-1.000000	-1.000000	-1.000000	-1.000000	-1.000000	-1.000000	-1.000000	62.000000	0.000000	-1.000000	-1.000000	1226199.000000	1776578853.001018
14590.530000	-15827.895000	16394.085000	59322.060000	26479.935000	8170.335000	-23708.430000	8183.115000	-4.481131	-3.497489	-2.937227	-2.067314	12.326000	16.202058	8.366673	-1.994357	-0.274680	2.182180	-0.335720	-0.726561	0.187072	0.617186	-1.000000	-1.000000	-1.000000	-1.000000	-1.000000	-1.000000	-1.000000	62.000000	0.000000	-1.000000	-1.000000	1226200.000000	1776578853.004957
14594.355000	-15826.545000	16392.825000	59319.540000	26477.235000	8159.265000	-23713.380000	8184.780000	-4.225559	-1.851689	-1.130306	-0.459019	7.588345	16.604301	7.006144	-2.694971	-0.274680	2.182180	-0.335720	-0.726561	0.187072	0.617186	-1.000000	-1.000000	-1.000000	-1.000000	-1.000000	-1.000000	-1.000000	62.000000	0.000000	-1.000000	-1.000000	1226201.000000	1776578853.004973
14597.820000	-15821.370000	16396.920000	59324.535000	26515.935000	8192.970000	-23715.765000	8185.140000	-2.040463	0.094762	0.609949	1.296385	1.886443	12.926846	3.202380	-2.054303	38.150000	0.656180	-7.721560	-0.725035	0.169250	0.625120	-1.000000	-1.000000	-1.000000	-1.000000	-1.000000	-1.000000	-1.000000	62.000000	0.000000	-1.000000	-1.000000	1226202.000000	1776578853.008814
14606.145000	-15809.040000	16409.520000	59336.685000	26502.390000	8170.155000	-23712.120000	8190.585000	1.586276	2.516859	2.508601	2.935256	-2.050550	6.069450	-1.456859	-0.454823	38.150000	0.656180	-7.721560	-0.725035	0.169250	0.625120	-1.000000	-1.000000	-1.000000	-1.000000	-1.000000	-1.000000	-1.000000	62.000000	0.000000	-1.000000	-1.000000	1226203.000000	1776578853.008831
14611.005000	-15801.030000	16417.755000	59340.420000	26491.320000	8145.090000	-23721.570000	8188.425000	5.114472	5.161380	4.707566	4.434545	-3.954210	-2.481031	-4.774986	1.326700	38.150000	0.656180	-7.721560	-0.725035	0.169250	0.625120	-1.000000	-1.000000	-1.000000	-1.000000	-1.000000	-1.000000	-1.000000	62.000000	0.000000	-1.000000	-1.000000	1226204.000000	1776578853.015692
14603.040000	-15811.470000	16403.670000	59322.465000	26461.215000	8099.460000	-23727.780000	8182.080000	6.665252	6.634561	6.106834	4.789023	-6.687434	-12.374292	-5.882719	2.218580	38.150000	0.656180	-7.721560	-0.725035	0.169250	0.625120	-1.000000	-1.000000	-1.000000	-1.000000	-1.000000	-1.000000	-1.000000	62.000000	0.000000	-1.000000	-1.000000	1226205.000000	1776578853.015702
14583.780000	-15833.520000	16383.510000	59308.470000	26424.855000	8048.655000	-23719.500000	8171.955000	4.583469	4.624645	4.293419	2.110053	-11.827244	-22.104634	-5.078064	1.289200	38.150000	0.656180	-7.721560	-0.725035	0.169250	0.625120	-1.000000	-1.000000	-1.000000	-1.000000	-1.000000	-1.000000	-1.000000	62.000000	0.000000	-1.000000	-1.000000	1226206.000000	1776578853.018223
14577.930000	-15834.285000	16383.870000	59310.630000	26424.585000	8038.260000	-23714.865000	8166.645000	-1.087123	-1.457308	-1.431065	-3.358106	-16.872834	-27.410253	-2.437552	-1.263325	38.150000	0.656180	-7.721560	-0.725035	0.169250	0.625120	-1.000000	-1.000000	-1.000000	-1.000000	-1.000000	-1.000000	-1.000000	62.000000	0.000000	-1.000000	-1.000000	1226207.000000	1776578853.018233
14582.430000	-15830.145000	16383.150000	59308.920000	26470.800000	8074.980000	-23711.040000	8172.810000	-7.167331	-8.090303	-7.629988	-7.955291	-15.542413	-22.025531	1.574378	-3.627679	38.150000	0.656180	-7.721560	-0.725035	0.169250	0.625120	-1.000000	-1.000000	-1.000000	-1.000000	-1.000000	-1.000000	-1.000000	62.000000	0.000000	-1.000000	-1.000000	1226208.000000	1776578853.020990
14594.760000	-15819.255000	16395.615000	59326.020000	26478.135000	8151.345000	-23695.740000	8187.345000	-9.022287	-10.084555	-9.438263	-7.828800	-3.199638	-1.692948	5.439796	-3.332521	38.150000	0.656180	-7.721560	-0.725035	0.169250	0.625120	-1.000000	-1.000000	-1.000000	-1.000000	-1.000000	-1.000000	-1.000000	62.000000	0.000000	-1.000000	-1.000000	1226209.000000	1776578853.021005
14598.360000	-15818.085000	16399.485000	59335.200000	26507.115000	8219.700000	-23685.615000	8191.035000	-4.729257	-5.631160	-5.111856	-2.269236	15.882176	29.587549	7.751061	0.452655	38.150000	0.656180	-7.721560	-0.725035	0.169250	0.625120	-1.000000	-1.000000	-1.000000	-1.000000	-1.000000	-1.000000	-1.000000	62.000000	0.000000	-1.000000	-1.000000	1226210.000000	1776578853.025166
14601.510000	-15817.590000	16401.150000	59337.855000	26513.460000	8209.800000	-23706.765000	8192.295000	2.913166	2.080824	2.561399	5.623310	30.676954	56.758871	7.264763	5.398909	38.150000	0.656180	-7.721560	-0.725035	0.169250	0.625120	-1.000000	-1.000000	-1.000000	-1.000000	-1.000000	-1.000000	-1.000000	62.000000	0.000000	-1.000000	-1.000000	1226211.000000	1776578853.025179
14594.985000	-15825.015000	16391.520000	59326.020000	26476.425000	8174.475000	-23700.420000	8189.235000	8.719809	7.813483	8.447378	10.622023	31.674718	60.315750	2.897638	7.737604	44.620240	-2.975700	-8.850800	-0.730650	0.194946	0.627745	-1.000000	-1.000000	-1.000000	-1.000000	-1.000000	-1.000000	-1.000000	62.000000	0.000000	-1.000000	-1.000000	1226212.000000	1776578853.028980
14606.595000	-15812.865000	16401.105000	59328.990000	26459.460000	8147.160000	-23693.940000	8197.920000	9.382652	8.592441	9.111993	9.225997	16.288605	32.009883	-3.711592	5.759831	44.620240	-2.975700	-8.850800	-0.730650	0.194946	0.627745	-1.000000	-1.000000	-1.000000	-1.000000	-1.000000	-1.000000	-1.000000	62.000000	0.000000	-1.000000	-1.000000	1226213.000000	1776578853.028993
14611.365000	-15807.915000	16405.425000	59331.780000	26461.710000	8129.880000	-23695.020000	8200.935000	5.740325	5.581954	5.404159	2.759984	-8.085113	-15.199993	-8.413358	1.143303	44.620240	-2.975700	-8.850800	-0.730650	0.194946	0.627745	-1.000000	-1.000000	-1.000000	-1.000000	-1.000000	-1.000000	-1.000000	62.000000	0.000000	-1.000000	-1.000000	1226214.000000	1776578853.032730
14607.360000	-15808.995000	16407.810000	59339.520000	26490.015000	8164.530000	-23703.705000	8194.680000	0.793004	1.719731	0.694799	-3.995696	-26.926507	-55.030499	-8.987583	-3.305330	44.620240	-2.975700	-8.850800	-0.730650	0.194946	0.627745	-1.000000	-1.000000	-1.000000	-1.000000	-1.000000	-1.000000	-1.000000	62.000000	0.000000	-1.000000	-1.000000	1226215.000000	1776578853.032761
14606.010000	-15809.805000	16409.250000	59342.085000	26494.335000	8194.320000	-23712.030000	8190.810000	-3.476154	-1.439327	-2.631082	-7.108132	-29.317803	-65.728757	-6.731631	-6.215811	44.620240	-2.975700	-8.850800	-0.730650	0.194946	0.627745	-1.000000	-1.000000	-1.000000	-1.000000	-1.000000	-1.000000	-1.000000	62.000000	0.000000	-1.000000	-1.000000	1226216.000000	1776578853.036912
14608.305000	-15808.275000	16407.855000	59333.580000	26484.795000	8172.405000	-23714.370000	8192.520000	-6.264367	-3.687105	-4.163075	-6.230829	-16.705697	-44.883360	-3.819070	-7.328373	44.620240	-2.975700	-8.850800	-0.730650	0.194946	0.627745	-1.000000	-1.000000	-1.000000	-1.000000	-1.000000	-1.000000	-1.000000	62.000000	0.000000	-1.000000	-1.000000	1226217.000000	1776578853.036945
14604.120000	-15813.045000	16399.710000	59319.675000	26463.420000	8145.765000	-23715.495000	8189.145000	-7.018711	-4.917314	-4.598028	-4.006552	-0.456083	-10.323567	-1.062752	-6.413095	44.620240	-2.975700	-8.850800	-0.730650	0.194946	0.627745	-1.000000	-1.000000	-1.000000	-1.000000	-1.000000	-1.000000	-1.000000	62.000000	0.000000	-1.000000	-1.000000	1226218.000000	1776578853.040810
14606.370000	-15808.950000	16402.635000	59320.305000	26442.630000	8114.760000	-23715.990000	8188.110000	-5.731537	-4.969126	-4.626223	-2.883724	8.566693	15.696306	1.722511	-3.714586	44.620240	-2.975700	-8.850800	-0.730650	0.194946	0.627745	-1.000000	-1.000000	-1.000000	-1.000000	-1.000000	-1.000000	-1.000000	62.000000	0.000000	-1.000000	-1.000000	1226219.000000	1776578853.040826
14606.730000	-15806.970000	16410.420000	59335.875000	26464.320000	8119.080000	-23717.790000	8186.265000	-3.031056	-3.703461	-3.899521	-2.298962	8.210404	23.519188	4.381293	-0.281891	44.620240	-2.975700	-8.850800	-0.730650	0.194946	0.627745	-1.000000	-1.000000	-1.000000	-1.000000	-1.000000	-1.000000	-1.000000	62.000000	0.000000	-1.000000	-1.000000	1226220.000000	1776578853.046216
14608.305000	-15808.455000	16410.420000	59339.520000	26460.405000	8103.870000	-23726.700000	8188.065000	0.181882	-1.351846	-1.663858	0.021200	4.403260	18.398056	5.986573	2.723551	44.620240	-2.975700	-8.850800	-0.730650	0.194946	0.627745	-1.000000	-1.000000	-1.000000	-1.000000	-1.000000	-1.000000	-1.000000	62.000000	0.000000	-1.000000	-1.000000	1226221.000000	1776578853.046232
14603.805000	-15816.150000	16399.440000	59324.850000	26443.800000	8103.015000	-23723.415000	8186.850000	2.813951	0.963200	1.284470	3.870988	2.632186	10.478501	5.685354	4.592606	23.912420	-2.594200	-4.928980	-0.730284	0.242309	0.627074	-1.000000	-1.000000	-1.000000	-1.000000	-1.000000	-1.000000	-1.000000	62.000000	0.000000	-1.000000	-1.000000	1226222.000000	1776578853.048735
14607.855000	-15803.190000	16415.730000	59346.720000	26504.775000	8168.310000	-23709.690000	8187.885000	3.977988	2.192568	3.161143	6.449237	3.851804	7.146093	4.131028	5.063374	23.912420	-2.594200	-4.928980	-0.730284	0.242309	0.627074	-1.000000	-1.000000	-1.000000	-1.000000	-1.000000	-1.000000	-1.000000	62.000000	0.000000	-1.000000	-1.000000	1226223.000000	1776578853.048745
14609.565000	-15802.560000	16418.880000	59349.060000	26515.080000	8173.980000	-23712.120000	8189.865000	3.712276	2.673184	3.738369	6.558705	7.981001	11.186185	2.938476	4.282470	23.912420	-2.594200	-4.928980	-0.730284	0.242309	0.627074	-1.000000	-1.000000	-1.000000	-1.000000	-1.000000	-1.000000	-1.000000	62.000000	0.000000	-1.000000	-1.000000	1226224.000000	1776578853.054256
14605.425000	-15811.515000	16407.810000	59335.155000	26471.745000	8158.860000	-23717.475000	8190.405000	2.660302	2.867429	3.585466	4.759051	12.002446	17.642757	2.205681	2.757041	23.912420	-2.594200	-4.928980	-0.730284	0.242309	0.627074	-1.000000	-1.000000	-1.000000	-1.000000	-1.000000	-1.000000	-1.000000	62.000000	0.000000	-1.000000	-1.000000	1226225.000000	1776578853.054266
14599.305000	-15825.645000	16389.315000	59315.670000	26477.280000	8171.055000	-23714.955000	8190.270000	1.084671	1.866258	1.856560	0.716805	9.139114	16.991531	0.651683	1.009675	23.912420	-2.594200	-4.928980	-0.730284	0.242309	0.627074	-1.000000	-1.000000	-1.000000	-1.000000	-1.000000	-1.000000	-1.000000	62.000000	0.000000	-1.000000	-1.000000	1226226.000000	1776578853.056783
14596.650000	-15823.890000	16385.355000	59304.420000	26475.930000	8158.725000	-23716.170000	8187.210000	-0.927271	-0.862894	-2.074353	-5.426481	-1.702824	5.983887	-1.876576	-0.683674	23.912420	-2.594200	-4.928980	-0.730284	0.242309	0.627074	-1.000000	-1.000000	-1.000000	-1.000000	-1.000000	-1.000000	-1.000000	62.000000	0.000000	-1.000000	-1.000000	1226227.000000	1776578853.056802
14601.420000	-15815.070000	16396.020000	59316.795000	26469.270000	8153.145000	-23712.480000	8188.335000	-2.560860	-3.414397	-5.902063	-10.552165	-13.234004	-9.952756	-4.056053	-2.123655	23.912420	-2.594200	-4.928980	-0.730284	0.242309	0.627074	-1.000000	-1.000000	-1.000000	-1.000000	-1.000000	-1.000000	-1.000000	62.000000	0.000000	-1.000000	-1.000000	1226228.000000	1776578853.060700
14598.315000	-15818.220000	16398.360000	59325.705000	26476.830000	8124.120000	-23706.990000	8186.805000	-2.679715	-3.227078	-5.970596	-10.206310	-18.198378	-23.274719	-4.560987	-2.950295	23.912420	-2.594200	-4.928980	-0.730284	0.242309	0.627074	-1.000000	-1.000000	-1.000000	-1.000000	-1.000000	-1.000000	-1.000000	62.000000	0.000000	-1.000000	-1.000000	1226229.000000	1776578853.060723
14591.430000	-15825.915000	16391.880000	59322.870000	26486.010000	8127.135000	-23710.005000	8179.560000	-1.349172	-0.496637	-1.690646	-3.419020	-14.419693	-28.889415	-3.182787	-2.991507	23.912420	-2.594200	-4.928980	-0.730284	0.242309	0.627074	-1.000000	-1.000000	-1.000000	-1.000000	-1.000000	-1.000000	-1.000000	62.000000	0.000000	-1.000000	-1.000000	1226230.000000	1776578853.064792
14588.820000	-15828.570000	16387.920000	59322.825000	26504.820000	8163.405000	-23716.305000	8176.410000	0.091442	2.117782	3.537078	5.479812	-4.212707	-24.022281	-1.196573	-2.586408	23.912420	-2.594200	-4.928980	-0.730284	0.242309	0.627074	-1.000000	-1.000000	-1.000000	-1.000000	-1.000000	-1.000000	-1.000000	62.000000	0.000000	-1.000000	-1.000000	1226231.000000	1776578853.064807
14594.040000	-15824.295000	16390.035000	59321.835000	26467.785000	8145.360000	-23713.290000	8183.205000	0.845473	2.888611	6.161469	10.905906	6.643078	-9.250691	-0.126202	-1.836335	-0.732480	-1.205540	1.236060	-0.722471	0.274169	0.628905	-1.000000	-1.000000	-1.000000	-1.000000	-1.000000	-1.000000	-1.000000	62.000000	0.000000	-1.000000	-1.000000	1226232.000000	1776578853.068889
14598.360000	-15820.380000	16391.070000	59315.760000	26437.950000	8120.610000	-23711.715000	8187.705000	1.441390	2.423212	5.549953	10.411622	10.815015	7.931667	-0.026717	-0.194586	-0.732480	-1.205540	1.236060	-0.722471	0.274169	0.628905	-1.000000	-1.000000	-1.000000	-1.000000	-1.000000	-1.000000	-1.000000	62.000000	0.000000	-1.000000	-1.000000	1226233.000000	1776578853.068897
14591.880000	-15826.230000	16387.425000	59313.600000	26473.500000	8135.685000	-23720.040000	8178.480000	2.263892	1.842182	3.141593	5.233369	6.166657	17.724441	-0.071128	2.145380	-0.732480	-1.205540	1.236060	-0.722471	0.274169	0.628905	-1.000000	-1.000000	-1.000000	-1.000000	-1.000000	-1.000000	-1.000000	62.000000	0.000000	-1.000000	-1.000000	1226234.000000	1776578853.072872
14592.735000	-15820.515000	16394.310000	59319.585000	26505.405000	8150.085000	-23739.030000	8170.965000	2.547201	1.259076	0.518743	-1.180854	0.109137	17.967721	-0.396518	3.439472	-0.732480	-1.205540	1.236060	-0.722471	0.274169	0.628905	-1.000000	-1.000000	-1.000000	-1.000000	-1.000000	-1.000000	-1.000000	62.000000	0.000000	-1.000000	-1.000000	1226235.000000	1776578853.072883
14600.385000	-15812.370000	16402.635000	59326.785000	26488.080000	8147.160000	-23740.920000	8176.455000	1.771983	0.656022	-1.043670	-5.149810	0.330822	13.402872	-1.621606	2.491327	-0.732480	-1.205540	1.236060	-0.722471	0.274169	0.628905	-1.000000	-1.000000	-1.000000	-1.000000	-1.000000	-1.000000	-1.000000	62.000000	0.000000	-1.000000	-1.000000	1226236.000000	1776578853.076781
14604.300000	-15809.670000	16405.605000	59328.720000	26471.925000	8143.065000	-23730.255000	8183.250000	0.722753	0.459661	-0.951038	-5.068437	4.396100	7.738308	-2.605614	0.596960	-0.732480	-1.205540	1.236060	-0.722471	0.274169	0.628905	-1.000000	-1.000000	-1.000000	-1.000000	-1.000000	-1.000000	-1.000000	62.000000	0.000000	-1.000000	-1.000000	1226237.000000	1776578853.076790
14602.095000	-15813.720000	16405.110000	59332.545000	26470.035000	8142.255000	-23712.570000	8188.695000	0.124031	0.444155	-0.034832	-2.264567	4.987735	1.747439	-0.804276	-0.071589	-0.732480	-1.205540	1.236060	-0.722471	0.274169	0.628905	-1.000000	-1.000000	-1.000000	-1.000000	-1.000000	-1.000000	-1.000000	62.000000	0.000000	-1.000000	-1.000000	1226238.000000	1776578853.080738
14592.645000	-15825.195000	16395.975000	59327.595000	26467.245000	8139.240000	-23705.955000	8184.240000	-0.569978	-0.523029	-0.005845	0.527978	0.317393	-3.928544	4.344520	0.780680	-0.732480	-1.205540	1.236060	-0.722471	0.274169	0.628905	-1.000000	-1.000000	-1.000000	-1.000000	-1.000000	-1.000000	-1.000000	62.000000	0.000000	-1.000000	-1.000000	1226239.000000	1776578853.080750
14592.600000	-15828.030000	16390.350000	59319.675000	26466.975000	8122.005000	-23710.905000	8183.340000	-2.119637	-2.972219	-1.844412	1.163134	-5.462474	-8.180495	9.564493	1.484090	-0.732480	-1.205540	1.236060	-0.722471	0.274169	0.628905	-1.000000	-1.000000	-1.000000	-1.000000	-1.000000	-1.000000	-1.000000	62.000000	0.000000	-1.000000	-1.000000	1226240.000000	1776578853.084894
14595.705000	-15825.015000	16389.135000	59310.495000	26425.755000	8079.975000	-23717.655000	8185.545000	-3.831595	-5.493412	-4.645927	-0.807403	-8.708911	-11.056982	10.245951	0.730415	-0.732480	-1.205540	1.236060	-0.722471	0.274169	0.628905	-1.000000	-1.000000	-1.000000	-1.000000	-1.000000	-1.000000	-1.000000	62.000000	0.000000	-1.000000	-1.000000	1226241.000000	1776578853.084908
14581.620000	-15840.270000	16373.745000	59298.885000	26436.780000	8112.285000	-23721.030000	8177.715000	-4.311194	-6.027122	-6.434553	-4.039927	-9.161916	-12.464116	4.855730	-1.139761	-11.322920	2.380560	3.723440	-0.717100	0.274657	0.633177	-1.000000	-1.000000	-1.000000	-1.000000	-1.000000	-1.000000	-1.000000	62.000000	0.000000	-1.000000	-1.000000	1226242.000000	1776578853.090345
14583.285000	-15833.565000	16383.195000	59314.095000	26486.820000	8180.595000	-23722.200000	8173.980000	-3.380355	-4.142712	-5.911463	-5.988562	-5.886628	-8.330422	-3.559571	-3.133192	-11.322920	2.380560	3.723440	-0.717100	0.274657	0.633177	-1.000000	-1.000000	-1.000000	-1.000000	-1.000000	-1.000000	-1.000000	62.000000	0.000000	-1.000000	-1.000000	1226243.000000	1776578853.090367
14593.005000	-15822.495000	16393.545000	59321.925000	26488.260000	8166.105000	-23714.595000	8180.730000	-1.400985	-0.449082	-2.535051	-4.101564	3.127071	4.502201	-9.920698	-4.214998	-11.322920	2.380560	3.723440	-0.717100	0.274657	0.633177	-1.000000	-1.000000	-1.000000	-1.000000	-1.000000	-1.000000	-1.000000	62.000000	0.000000	-1.000000	-1.000000	1226244.000000	1776578853.092880
14594.220000	-15817.365000	16394.445000	59315.715000	26475.570000	8125.470000	-23712.390000	8182.575000	1.655972	4.360532	3.150700	1.492467	14.021392	18.141617	-10.803516	-3.329071	-11.322920	2.380560	3.723440	-0.717100	0.274657	0.633177	-1.000000	-1.000000	-1.000000	-1.000000	-1.000000	-1.000000	-1.000000	62.000000	0.000000	-1.000000	-1.000000	1226245.000000	1776578853.092887
14599.305000	-15813.315000	16400.070000	59323.095000	26493.840000	8153.910000	-23709.375000	8186.940000	4.979644	8.542145	8.542218	7.149345	18.418188	20.158675	-6.517790	-0.466395	-11.322920	2.380560	3.723440	-0.717100	0.274657	0.633177	-1.000000	-1.000000	-1.000000	-1.000000	-1.000000	-1.000000	-1.000000	62.000000	0.000000	-1.000000	-1.000000	1226246.000000	1776578853.097598
14597.010000	-15817.365000	16399.485000	59327.550000	26507.205000	8184.645000	-23712.480000	8186.175000	6.758718	9.645111	10.573456	9.403936	13.486505	10.200062	-0.362944	2.828766	-11.322920	2.380560	3.723440	-0.717100	0.274657	0.633177	-1.000000	-1.000000	-1.000000	-1.000000	-1.000000	-1.000000	-1.000000	62.000000	0.000000	-1.000000	-1.000000	1226247.000000	1776578853.097610
14599.305000	-15807.960000	16402.545000	59324.085000	26501.130000	8156.655000	-23713.830000	8187.750000	5.767922	6.697392	8.188867	7.623309	3.483744	-1.916563	4.027198	4.644206	-11.322920	2.380560	3.723440	-0.717100	0.274657	0.633177	-1.000000	-1.000000	-1.000000	-1.000000	-1.000000	-1.000000	-1.000000	62.000000	0.000000	-1.000000	-1.000000	1226248.000000	1776578853.100785
14596.020000	-15801.930000	16397.505000	59302.980000	26471.880000	8127.405000	-23712.165000	8184.960000	2.369013	1.437343	2.694601	2.651771	-7.134227	-10.775400	5.027189	4.072769	-11.322920	2.380560	3.723440	-0.717100	0.274657	0.633177	-1.000000	-1.000000	-1.000000	-1.000000	-1.000000	-1.000000	-1.000000	62.000000	0.000000	-1.000000	-1.000000	1226249.000000	1776578853.100798
14604.930000	-15806.655000	16402.545000	59321.475000	26435.250000	8113.860000	-23716.440000	8191.035000	-1.680735	-3.360521	-3.343989	-3.731778	-16.765924	-17.085024	3.384416	1.715175	-11.322920	2.380560	3.723440	-0.717100	0.274657	0.633177	-1.000000	-1.000000	-1.000000	-1.000000	-1.000000	-1.000000	-1.000000	62.000000	0.000000	-1.000000	-1.000000	1226250.000000	1776578853.104745
14604.300000	-15811.290000	16400.970000	59325.255000	26428.005000	8104.455000	-23716.800000	8192.070000	-4.305868	-6.435263	-7.381915	-7.942238	-23.681350	-20.141881	0.800635	-0.815647	-11.322920	2.380560	3.723440	-0.717100	0.274657	0.633177	-1.000000	-1.000000	-1.000000	-1.000000	-1.000000	-1.000000	-1.000000	62.000000	0.000000	-1.000000	-1.000000	1226251.000000	1776578853.104755
14602.455000	-15811.155000	16403.580000	59336.010000	26488.665000	8149.410000	-23710.365000	8187.345000	-4.680449	-7.839940	-8.101626	-7.075013	-22.734169	-16.254329	-1.145122	-2.316582	-10.041080	-1.251320	1.632820	-0.719603	0.262939	0.636717	-1.000000	-1.000000	-1.000000	-1.000000	-1.000000	-1.000000	-1.000000	62.000000	0.000000	-1.000000	-1.000000	1226252.000000	1776578853.108974
14602.230000	-15812.280000	16401.870000	59333.355000	26492.130000	8169.345000	-23713.920000	8186.400000	-3.620780	-7.467483	-5.954721	-2.222166	-9.241742	-3.111950	-1.491414	-2.844132	-10.041080	-1.251320	1.632820	-0.719603	0.262939	0.636717	-1.000000	-1.000000	-1.000000	-1.000000	-1.000000	-1.000000	-1.000000	62.000000	0.000000	-1.000000	-1.000000	1226253.000000	1776578853.108997
14601.285000	-15813.990000	16398.585000	59321.880000	26490.420000	8148.375000	-23721.480000	8190.900000	-2.249637	-5.215331	-2.589923	2.446903	11.846756	14.415118	-0.719037	-2.742671	-10.041080	-1.251320	1.632820	-0.719603	0.262939	0.636717	-1.000000	-1.000000	-1.000000	-1.000000	-1.000000	-1.000000	-1.000000	62.000000	0.000000	-1.000000	-1.000000	1226254.000000	1776578853.115796
14598.270000	-15818.355000	16392.285000	59309.505000	26466.390000	8128.755000	-23718.780000	8192.115000	-1.105170	-1.803669	0.178088	3.211359	26.879993	24.845718	-0.160984	-1.846026	-10.041080	-1.251320	1.632820	-0.719603	0.262939	0.636717	-1.000000	-1.000000	-1.000000	-1.000000	-1.000000	-1.000000	-1.000000	62.000000	0.000000	-1.000000	-1.000000	1226255.000000	1776578853.115834
14602.185000	-15812.595000	16399.755000	59323.140000	26516.520000	8181.360000	-23719.455000	8191.485000	-0.223307	1.589792	1.557539	0.137713	27.105613	21.724288	-0.168162	-0.242355	-10.041080	-1.251320	1.632820	-0.719603	0.262939	0.636717	-1.000000	-1.000000	-1.000000	-1.000000	-1.000000	-1.000000	-1.000000	62.000000	0.000000	-1.000000	-1.000000	1226256.000000	1776578853.116895
14594.355000	-15817.770000	16389.585000	59308.425000	26504.505000	8191.665000	-23709.240000	8188.920000	0.537163	4.137320	2.022126	-3.194078	16.228691	10.896137	0.066608	1.213228	-10.041080	-1.251320	1.632820	-0.719603	0.262939	0.636717	-1.000000	-1.000000	-1.000000	-1.000000	-1.000000	-1.000000	-1.000000	62.000000	0.000000	-1.000000	-1.000000	1226257.000000	1776578853.116907
14593.050000	-15813.945000	16390.395000	59302.845000	26482.095000	8164.890000	-23706.045000	8187.255000	1.009841	5.351824	2.047888	-4.142334	2.207189	0.728245	1.207693	1.647033	-10.041080	-1.251320	1.632820	-0.719603	0.262939	0.636717	-1.000000	-1.000000	-1.000000	-1.000000	-1.000000	-1.000000	-1.000000	62.000000	0.000000	-1.000000	-1.000000	1226258.000000	1776578853.122314
14600.160000	-15811.155000	16397.055000	59315.130000	26482.410000	8155.170000	-23711.130000	8191.035000	1.147850	5.151826	1.875742	-2.672804	-10.672228	-7.511025	2.640152	1.085244	-10.041080	-1.251320	1.632820	-0.719603	0.262939	0.636717	-1.000000	-1.000000	-1.000000	-1.000000	-1.000000	-1.000000	-1.000000	62.000000	0.000000	-1.000000	-1.000000	1226259.000000	1776578853.122328
14599.935000	-15813.495000	16397.325000	59319.945000	26475.705000	8152.875000	-23720.490000	8190.000000	1.508219	3.933137	2.039663	0.734142	-19.349872	-14.781932	2.615622	0.358729	-10.041080	-1.251320	1.632820	-0.719603	0.262939	0.636717	-1.000000	-1.000000	-1.000000	-1.000000	-1.000000	-1.000000	-1.000000	62.000000	0.000000	-1.000000	-1.000000	1226260.000000	1776578853.126537
14597.505000	-15812.775000	16396.830000	59318.190000	26469.675000	8140.275000	-23716.575000	8190.180000	2.173199	2.054727	2.510403	4.933389	-20.871071	-18.859591	0.322228	0.075548	-10.041080	-1.251320	1.632820	-0.719603	0.262939	0.636717	-1.000000	-1.000000	-1.000000	-1.000000	-1.000000	-1.000000	-1.000000	62.000000	0.000000	-1.000000	-1.000000	1226261.000000	1776578853.126548
14599.350000	-15813.270000	16393.815000	59312.295000	26463.195000	8149.590000	-23712.480000	8191.710000	2.348601	-0.123160	2.382680	7.356865	-15.271749	-17.010647	-2.584234	0.167819	-1.464960	0.274680	1.342880	-0.719481	0.251281	0.635618	-1.000000	-1.000000	-1.000000	-1.000000	-1.000000	-1.000000	-1.000000	62.000000	0.000000	-1.000000	-1.000000	1226262.000000	1776578853.129045
14598.360000	-15812.955000	16391.295000	59308.605000	26468.910000	8153.685000	-23712.210000	8187.840000	1.579938	-1.976614	1.032265	6.039476	-5.491559	-8.977017	-3.679948	0.288282	-1.464960	0.274680	1.342880	-0.719481	0.251281	0.635618	-1.000000	-1.000000	-1.000000	-1.000000	-1.000000	-1.000000	-1.000000	62.000000	0.000000	-1.000000	-1.000000	1226263.000000	1776578853.129054
14594.670000	-15815.520000	16391.565000	59313.420000	26479.845000	8113.680000	-23718.420000	8183.025000	0.158635	-2.987953	-1.089780	1.763062	5.017141	1.703185	-2.525411	0.025715	-1.464960	0.274680	1.342880	-0.719481	0.251281	0.635618	-1.000000	-1.000000	-1.000000	-1.000000	-1.000000	-1.000000	-1.000000	62.000000	0.000000	-1.000000	-1.000000	1226264.000000	1776578853.132983
14594.580000	-15816.420000	16394.445000	59319.900000	26486.685000	8114.985000	-23724.000000	8180.730000	-1.381557	-3.081532	-2.725683	-2.444948	13.456801	8.953005	-0.761389	-0.781886	-1.464960	0.274680	1.342880	-0.719481	0.251281	0.635618	-1.000000	-1.000000	-1.000000	-1.000000	-1.000000	-1.000000	-1.000000	62.000000	0.000000	-1.000000	-1.000000	1226265.000000	1776578853.132993
14596.560000	-15814.890000	16394.535000	59318.010000	26481.240000	8140.905000	-23727.915000	8181.270000	-2.363493	-2.423832	-2.850972	-4.085988	17.329817	10.631206	0.048088	-1.598390	-1.464960	0.274680	1.342880	-0.719481	0.251281	0.635618	-1.000000	-1.000000	-1.000000	-1.000000	-1.000000	-1.000000	-1.000000	62.000000	0.000000	-1.000000	-1.000000	1226266.000000	1776578853.137015
14605.155000	-15809.040000	16396.875000	59314.860000	26458.020000	8136.405000	-23725.710000	8191.305000	-2.056336	-1.081968	-1.541166	-3.295677	14.569899	10.300163	-0.067302	-1.390420	-1.464960	0.274680	1.342880	-0.719481	0.251281	0.635618	-1.000000	-1.000000	-1.000000	-1.000000	-1.000000	-1.000000	-1.000000	62.000000	0.000000	-1.000000	-1.000000	1226267.000000	1776578853.137025
14608.890000	-15805.890000	16401.645000	59319.360000	26433.180000	8109.090000	-23730.255000	8193.870000	-0.280708	0.816866	0.328152	-1.794474	5.085728	9.777293	-0.066365	0.415919	-1.464960	0.274680	1.342880	-0.719481	0.251281	0.635618	-1.000000	-1.000000	-1.000000	-1.000000	-1.000000	-1.000000	-1.000000	62.000000	0.000000	-1.000000	-1.000000	1226268.000000	1776578853.142131
14608.890000	-15806.655000	16403.625000	59327.460000	26459.370000	8125.740000	-23731.470000	8193.375000	1.974509	2.580741	1.885188	-0.496417	-6.822536	7.011798	0.557122	2.896111	-1.464960	0.274680	1.342880	-0.719481	0.251281	0.635618	-1.000000	-1.000000	-1.000000	-1.000000	-1.000000	-1.000000	-1.000000	62.000000	0.000000	-1.000000	-1.000000	1226269.000000	1776578853.142141
14613.210000	-15803.190000	16404.165000	59323.860000	26460.585000	8134.605000	-23718.645000	8198.505000	3.111784	3.194185	2.493301	0.645156	-13.427789	2.260226	1.671241	4.196874	-1.464960	0.274680	1.342880	-0.719481	0.251281	0.635618	-1.000000	-1.000000	-1.000000	-1.000000	-1.000000	-1.000000	-1.000000	62.000000	0.000000	-1.000000	-1.000000	1226270.000000	1776578853.146225
14601.285000	-15810.795000	16392.870000	59308.650000	26466.480000	8149.320000	-23713.605000	8187.930000	2.181885	2.170495	1.633475	0.999942	-10.556507	-1.055502	3.257136	3.216272	-1.464960	0.274680	1.342880	-0.719481	0.251281	0.635618	-1.000000	-1.000000	-1.000000	-1.000000	-1.000000	-1.000000	-1.000000	62.000000	0.000000	-1.000000	-1.000000	1226271.000000	1776578853.146235
14589.765000	-15823.215000	16382.970000	59306.985000	26495.415000	8176.320000	-23711.085000	8180.055000	-0.839012	-0.376286	-0.904407	-0.429056	-1.158235	-0.897722	4.778233	0.034589	5.859840	0.763000	-2.807840	-0.716307	0.247192	0.631590	-1.000000	-1.000000	-1.000000	-1.000000	-1.000000	-1.000000	-1.000000	62.000000	0.000000	-1.000000	-1.000000	1226272.000000	1776578853.149568
14586.480000	-15829.515000	16377.660000	59303.430000	26505.090000	8178.705000	-23705.145000	8183.745000	-4.831731	-3.765493	-4.261665	-2.895984	8.947357	1.629481	4.929487	-3.984961	5.859840	0.763000	-2.807840	-0.716307	0.247192	0.631590	-1.000000	-1.000000	-1.000000	-1.000000	-1.000000	-1.000000	-1.000000	62.000000	0.000000	-1.000000	-1.000000	1226273.000000	1776578853.149575
14595.030000	-15825.285000	16382.295000	59304.420000	26493.390000	8161.785000	-23715.090000	8188.425000	-7.178907	-6.187475	-6.242619	-4.138465	14.273342	2.772457	2.835326	-6.233320	5.859840	0.763000	-2.807840	-0.716307	0.247192	0.631590	-1.000000	-1.000000	-1.000000	-1.000000	-1.000000	-1.000000	-1.000000	62.000000	0.000000	-1.000000	-1.000000	1226274.000000	1776578853.152885
14595.030000	-15820.965000	16390.215000	59314.410000	26504.595000	8147.880000	-23725.890000	8180.730000	-5.509275	-5.442395	-4.715990	-2.587024	11.416133	-1.173540	-1.433035	-5.056660	5.859840	0.763000	-2.807840	-0.716307	0.247192	0.631590	-1.000000	-1.000000	-1.000000	-1.000000	-1.000000	-1.000000	-1.000000	62.000000	0.000000	-1.000000	-1.000000	1226275.000000	1776578853.152901
14595.255000	-15820.605000	16390.575000	59312.115000	26453.160000	8096.085000	-23730.390000	8181.045000	-0.366909	-1.207275	0.238139	1.368210	1.215559	-10.245704	-6.606741	-1.615129	5.859840	0.763000	-2.807840	-0.716307	0.247192	0.631590	-1.000000	-1.000000	-1.000000	-1.000000	-1.000000	-1.000000	-1.000000	62.000000	0.000000	-1.000000	-1.000000	1226276.000000	1776578853.156932
14587.965000	-15830.775000	16380.180000	59302.080000	26443.935000	8095.500000	-23721.975000	8179.785000	4.923659	3.964847	5.608169	5.206389	-12.254425	-20.160882	-9.894262	1.710694	5.859840	0.763000	-2.807840	-0.716307	0.247192	0.631590	-1.000000	-1.000000	-1.000000	-1.000000	-1.000000	-1.000000	-1.000000	62.000000	0.000000	-1.000000	-1.000000	1226277.000000	1776578853.156963
14586.120000	-15836.355000	16375.320000	59296.770000	26480.115000	8172.135000	-23711.040000	8182.035000	7.147646	6.568037	7.631983	5.960780	-21.958077	-22.446990	-8.474579	3.604434	5.859840	0.763000	-2.807840	-0.716307	0.247192	0.631590	-1.000000	-1.000000	-1.000000	-1.000000	-1.000000	-1.000000	-1.000000	62.000000	0.000000	-1.000000	-1.000000	1226278.000000	1776578853.161160
14590.035000	-15830.370000	16382.520000	59305.005000	26488.935000	8178.795000	-23721.120000	8183.070000	5.731191	5.403865	5.378927	3.305778	-19.972379	-9.733452	-2.517651	4.035049	5.859840	0.763000	-2.807840	-0.716307	0.247192	0.631590	-1.000000	-1.000000	-1.000000	-1.000000	-1.000000	-1.000000	-1.000000	62.000000	0.000000	-1.000000	-1.000000	1226279.000000	1776578853.161191
14599.710000	-15819.795000	16393.455000	59314.860000	26493.840000	8157.870000	-23730.165000	8189.595000	2.791438	2.618653	1.606181	0.084526	-5.923857	12.569834	3.919318	3.556962	5.859840	0.763000	-2.807840	-0.716307	0.247192	0.631590	-1.000000	-1.000000	-1.000000	-1.000000	-1.000000	-1.000000	-1.000000	62.000000	0.000000	-1.000000	-1.000000	1226280.000000	1776578853.164906
14613.390000	-15803.865000	16408.125000	59328.180000	26495.685000	8162.775000	-23719.050000	8198.100000	0.982938	1.248888	-0.251483	-0.744550	10.933208	28.172684	6.809308	2.867124	5.859840	0.763000	-2.807840	-0.716307	0.247192	0.631590	-1.000000	-1.000000	-1.000000	-1.000000	-1.000000	-1.000000	-1.000000	62.000000	0.000000	-1.000000	-1.000000	1226281.000000	1776578853.164914
14606.955000	-15808.230000	16402.500000	59320.260000	26468.370000	8141.805000	-23724.360000	8191.530000	1.002483	2.006881	0.478871	0.820683	19.928794	26.694559	5.977181	2.162285	6.729660	2.227960	-4.379620	-0.717283	0.253356	0.626402	-1.000000	-1.000000	-1.000000	-1.000000	-1.000000	-1.000000	-1.000000	62.000000	0.000000	-1.000000	-1.000000	1226282.000000	1776578853.169042
14602.545000	-15814.350000	16392.870000	59305.725000	26465.445000	8139.690000	-23730.255000	8186.940000	0.975663	2.558125	1.204826	1.749324	16.488616	11.193237	3.373971	0.684961	6.729660	2.227960	-4.379620	-0.717283	0.253356	0.626402	-1.000000	-1.000000	-1.000000	-1.000000	-1.000000	-1.000000	-1.000000	62.000000	0.000000	-1.000000	-1.000000	1226283.000000	1776578853.169050
14601.330000	-15815.340000	16390.620000	59302.800000	26459.820000	8112.060000	-23733.945000	8183.295000	-1.014029	0.422427	-0.729764	-0.589374	4.514698	-7.966590	0.314147	-2.075683	6.729660	2.227960	-4.379620	-0.717283	0.253356	0.626402	-1.000000	-1.000000	-1.000000	-1.000000	-1.000000	-1.000000	-1.000000	62.000000	0.000000	-1.000000	-1.000000	1226284.000000	1776578853.173057
14600.160000	-15815.610000	16392.285000	59306.490000	26458.830000	8106.930000	-23737.140000	8180.370000	-4.335463	-3.847167	-4.644338	-4.936153	-7.270322	-21.203850	-2.292774	-5.073166	6.729660	2.227960	-4.379620	-0.717283	0.253356	0.626402	-1.000000	-1.000000	-1.000000	-1.000000	-1.000000	-1.000000	-1.000000	62.000000	0.000000	-1.000000	-1.000000	1226285.000000	1776578853.173070
14597.325000	-15821.685000	16385.895000	59302.620000	26461.485000	8139.690000	-23736.870000	8181.090000	-6.718536	-7.478463	-7.485459	-7.499275	-12.220413	-22.999070	-3.491882	-6.464831	6.729660	2.227960	-4.379620	-0.717283	0.253356	0.626402	-1.000000	-1.000000	-1.000000	-1.000000	-1.000000	-1.000000	-1.000000	62.000000	0.000000	-1.000000	-1.000000	1226286.000000	1776578853.177022
14601.195000	-15818.040000	16392.510000	59314.095000	26493.930000	8189.235000	-23720.130000	8187.030000	-6.543132	-8.310905	-7.144275	-6.005986	-8.682880	-11.717281	-2.521357	-5.086107	6.729660	2.227960	-4.379620	-0.717283	0.253356	0.626402	-1.000000	-1.000000	-1.000000	-1.000000	-1.000000	-1.000000	-1.000000	62.000000	0.000000	-1.000000	-1.000000	1226287.000000	1776578853.177044
14603.940000	-15813.540000	16398.855000	59319.360000	26504.055000	8190.900000	-23725.845000	8187.075000	-3.677166	-5.817860	-3.538062	-1.046010	0.947525	8.055055	0.533388	-1.277570	6.729660	2.227960	-4.379620	-0.717283	0.253356	0.626402	-1.000000	-1.000000	-1.000000	-1.000000	-1.000000	-1.000000	-1.000000	62.000000	0.000000	-1.000000	-1.000000	1226288.000000	1776578853.181082
14599.170000	-15818.400000	16395.300000	59314.140000	26482.095000	8157.285000	-23731.740000	8182.665000	0.537060	-1.089587	1.732253	4.653648	10.502714	23.949749	3.627338	2.974508	6.729660	2.227960	-4.379620	-0.717283	0.253356	0.626402	-1.000000	-1.000000	-1.000000	-1.000000	-1.000000	-1.000000	-1.000000	62.000000	0.000000	-1.000000	-1.000000	1226289.000000	1776578853.181092
14591.655000	-15826.410000	16387.110000	59304.285000	26455.185000	8119.530000	-23736.555000	8176.320000	3.762521	3.309903	5.748990	7.488783	12.278439	23.444385	4.014449	5.159906	6.729660	2.227960	-4.379620	-0.717283	0.253356	0.626402	-1.000000	-1.000000	-1.000000	-1.000000	-1.000000	-1.000000	-1.000000	62.000000	0.000000	-1.000000	-1.000000	1226290.000000	1776578853.185114
14586.615000	-15834.510000	16378.020000	59291.415000	26457.480000	8115.030000	-23738.850000	8174.565000	4.265620	4.927696	6.048142	5.416562	3.964176	5.820875	1.260520	4.223249	6.729660	2.227960	-4.379620	-0.717283	0.253356	0.626402	-1.000000	-1.000000	-1.000000	-1.000000	-1.000000	-1.000000	-1.000000	62.000000	0.000000	-1.000000	-1.000000	1226291.000000	1776578853.185124
14594.400000	-15824.295000	16388.010000	59298.165000	26460.900000	8141.310000	-23737.680000	8178.435000	2.561784	3.696103	3.002560	-0.027717	-7.858161	-15.517501	-2.401435	1.462400	1.495480	3.174080	-2.166920	-0.721678	0.258544	0.624998	-1.000000	-1.000000	-1.000000	-1.000000	-1.000000	-1.000000	-1.000000	62.000000	0.000000	-1.000000	-1.000000	1226292.000000	1776578853.188877
14592.105000	-15826.050000	16388.010000	59303.970000	26466.615000	8161.875000	-23729.040000	8179.290000	0.846392	1.896714	-0.322798	-4.520951	-13.970286	-24.395837	-4.192339	-0.746819	1.495480	3.174080	-2.166920	-0.721678	0.258544	0.624998	-1.000000	-1.000000	-1.000000	-1.000000	-1.000000	-1.000000	-1.000000	62.000000	0.000000	-1.000000	-1.000000	1226293.000000	1776578853.188914
14596.470000	-15822.270000	16392.060000	59312.205000	26501.985000	8183.160000	-23710.680000	8185.320000	0.560878	1.387729	-1.357078	-4.592359	-10.208360	-15.497765	-2.563040	-1.031805	1.495480	3.174080	-2.166920	-0.721678	0.258544	0.624998	-1.000000	-1.000000	-1.000000	-1.000000	-1.000000	-1.000000	-1.000000	62.000000	0.000000	-1.000000	-1.000000	1226294.000000	1776578853.193041
14595.795000	-15822.180000	16390.305000	59305.860000	26479.935000	8153.505000	-23713.200000	8184.600000	1.334580	1.948462	-0.236400	-0.750751	0.488952	2.394402	1.703286	0.219112	1.495480	3.174080	-2.166920	-0.721678	0.258544	0.624998	-1.000000	-1.000000	-1.000000	-1.000000	-1.000000	-1.000000	-1.000000	62.000000	0.000000	-1.000000	-1.000000	1226295.000000	1776578853.193050
14598.675000	-15820.200000	16389.810000	59303.520000	26458.155000	8114.760000	-23719.365000	8187.435000	2.017634	2.362209	1.208403	3.295684	9.663028	14.286207	5.267059	1.580715	1.495480	3.174080	-2.166920	-0.721678	0.258544	0.624998	-1.000000	-1.000000	-1.000000	-1.000000	-1.000000	-1.000000	-1.000000	62.000000	0.000000	-1.000000	-1.000000	1226296.000000	1776578853.197330
14601.780000	-15817.590000	16391.160000	59304.780000	26458.515000	8101.845000	-23721.570000	8189.730000	1.872179	1.849869	1.509698	4.413755	10.077481	11.528245	4.809132	1.881212	1.495480	3.174080	-2.166920	-0.721678	0.258544	0.624998	-1.000000	-1.000000	-1.000000	-1.000000	-1.000000	-1.000000	-1.000000	62.000000	0.000000	-1.000000	-1.000000	1226297.000000	1776578853.197346
14598.585000	-15817.590000	16391.205000	59304.420000	26464.230000	8124.795000	-23727.195000	8183.835000	0.862964	0.492394	0.581704	2.548302	3.092624	-0.650908	0.353023	0.862640	1.495480	3.174080	-2.166920	-0.721678	0.258544	0.624998	-1.000000	-1.000000	-1.000000	-1.000000	-1.000000	-1.000000	-1.000000	62.000000	0.000000	-1.000000	-1.000000	1226298.000000	1776578853.201265
14595.660000	-15818.445000	16389.720000	59302.305000	26475.615000	8163.765000	-23731.965000	8178.210000	-0.788168	-1.190573	-0.789151	-0.372409	-3.812269	-8.724457	-5.095830	-1.201200	1.495480	3.174080	-2.166920	-0.721678	0.258544	0.624998	-1.000000	-1.000000	-1.000000	-1.000000	-1.000000	-1.000000	-1.000000	62.000000	0.000000	-1.000000	-1.000000	1226299.000000	1776578853.201293
14597.505000	-15819.210000	16389.405000	59303.700000	26498.115000	8153.460000	-23733.765000	8175.195000	-2.606383	-2.682312	-1.873703	-2.566788	-4.912234	-4.845095	-8.310477	-3.594038	1.495480	3.174080	-2.166920	-0.721678	0.258544	0.624998	-1.000000	-1.000000	-1.000000	-1.000000	-1.000000	-1.000000	-1.000000	62.000000	0.000000	-1.000000	-1.000000	1226300.000000	1776578853.205098
14601.150000	-15818.985000	16387.110000	59300.640000	26487.990000	8135.415000	-23733.810000	8185.320000	-3.597038	-3.511374	-2.308322	-3.232741	-0.388611	5.496080	-7.670597	-4.833042	1.495480	3.174080	-2.166920	-0.721678	0.258544	0.624998	-1.000000	-1.000000	-1.000000	-1.000000	-1.000000	-1.000000	-1.000000	62.000000	0.000000	-1.000000	-1.000000	1226301.000000	1776578853.205113
14599.305000	-15821.145000	16384.680000	59297.625000	26453.295000	8135.100000	-23726.700000	8188.515000	-3.016610	-3.381353	-2.092275	-2.599204	3.989473	11.131652	-3.523166	-3.457245	-1.480220	2.258480	-2.105880	-0.722410	0.257446	0.629332	-1.000000	-1.000000	-1.000000	-1.000000	-1.000000	-1.000000	-1.000000	62.000000	0.000000	-1.000000	-1.000000	1226302.000000	1776578853.209130
14599.980000	-15817.455000	16392.195000	59310.180000	26488.575000	8156.790000	-23721.750000	8187.885000	-1.293942	-2.327409	-1.295186	-1.203191	3.044968	8.143722	2.349959	0.161037	-1.480220	2.258480	-2.105880	-0.722410	0.257446	0.629332	-1.000000	-1.000000	-1.000000	-1.000000	-1.000000	-1.000000	-1.000000	62.000000	0.000000	-1.000000	-1.000000	1226303.000000	1776578853.209139
14597.775000	-15820.110000	16388.730000	59303.115000	26482.410000	8160.120000	-23725.215000	8184.600000	0.419343	-0.675109	0.087110	0.682417	-1.223331	1.518033	7.350176	3.586364	-1.480220	2.258480	-2.105880	-0.722410	0.257446	0.629332	-1.000000	-1.000000	-1.000000	-1.000000	-1.000000	-1.000000	-1.000000	62.000000	0.000000	-1.000000	-1.000000	1226304.000000	1776578853.213009
14595.165000	-15823.080000	16382.430000	59288.760000	26437.365000	8129.745000	-23729.040000	8182.215000	1.252908	0.896258	1.438097	2.010559	-4.573995	-3.756960	8.952841	4.522245	-1.480220	2.258480	-2.105880	-0.722410	0.257446	0.629332	-1.000000	-1.000000	-1.000000	-1.000000	-1.000000	-1.000000	-1.000000	62.000000	0.000000	-1.000000	-1.000000	1226305.000000	1776578853.213018
14591.835000	-15827.805000	16379.730000	59289.255000	26464.500000	8146.620000	-23722.290000	8181.900000	1.016501	1.578421	1.657181	1.323626	-6.588995	-7.176703	6.511630	2.743324	-1.480220	2.258480	-2.105880	-0.722410	0.257446	0.629332	-1.000000	-1.000000	-1.000000	-1.000000	-1.000000	-1.000000	-1.000000	62.000000	0.000000	-1.000000	-1.000000	1226306.000000	1776578853.217054
14584.545000	-15833.520000	16376.445000	59290.560000	26481.195000	8167.230000	-23726.295000	8173.755000	0.054692	1.086739	0.575646	-0.773359	-6.157490	-8.190731	1.933737	-0.259344	-1.480220	2.258480	-2.105880	-0.722410	0.257446	0.629332	-1.000000	-1.000000	-1.000000	-1.000000	-1.000000	-1.000000	-1.000000	62.000000	0.000000	-1.000000	-1.000000	1226307.000000	1776578853.217062
14584.545000	-15831.135000	16379.100000	59291.730000	26480.655000	8141.355000	-23730.120000	8170.830000	-1.004981	0.012673	-0.720897	-1.957624	-1.055822	-5.488062	-2.336436	-2.861128	-1.480220	2.258480	-2.105880	-0.722410	0.257446	0.629332	-1.000000	-1.000000	-1.000000	-1.000000	-1.000000	-1.000000	-1.000000	62.000000	0.000000	-1.000000	-1.000000	1226308.000000	1776578853.221068
14583.735000	-15831.720000	16375.545000	59282.595000	26449.875000	8102.160000	-23737.005000	8169.210000	-1.360179	-0.512966	-1.064668	-1.191948	5.747803	-2.013495	-5.123805	-4.010475	-1.480220	2.258480	-2.105880	-0.722410	0.257446	0.629332	-1.000000	-1.000000	-1.000000	-1.000000	-1.000000	-1.000000	-1.000000	62.000000	0.000000	-1.000000	-1.000000	1226309.000000	1776578853.221077
14587.830000	-15827.445000	16382.880000	59295.240000	26458.560000	8112.195000	-23743.440000	8171.730000	-0.437558	0.205882	-0.171980	0.634704	8.159457	-2.065394	-6.251888	-3.174813	-1.480220	2.258480	-2.105880	-0.722410	0.257446	0.629332	-1.000000	-1.000000	-1.000000	-1.000000	-1.000000	-1.000000	-1.000000	62.000000	0.000000	-1.000000	-1.000000	1226310.000000	1776578853.225086
14593.815000	-15823.755000	16385.310000	59300.820000	26488.305000	8156.925000	-23735.340000	8177.760000	1.611995	1.851061	1.494088	2.653714	5.465164	-3.209348	-5.580237	-0.516046	-1.480220	2.258480	-2.105880	-0.722410	0.257446	0.629332	-1.000000	-1.000000	-1.000000	-1.000000	-1.000000	-1.000000	-1.000000	62.000000	0.000000	-1.000000	-1.000000	1226311.000000	1776578853.225094
14599.980000	-15816.330000	16392.285000	59306.085000	26503.560000	8193.510000	-23727.285000	8184.960000	3.944995	3.513069	3.153466	4.443944	2.856397	1.396702	-2.686288	3.025581	-3.982860	3.570840	-4.333840	-0.720274	0.250854	0.631224	-1.000000	-1.000000	-1.000000	-1.000000	-1.000000	-1.000000	-1.000000	62.000000	0.000000	-1.000000	-1.000000	1226312.000000	1776578853.228971
14602.095000	-15811.965000	16397.370000	59308.470000	26487.540000	8171.730000	-23727.285000	8185.410000	5.340052	4.316352	3.984874	5.101072	3.036606	11.808664	1.950446	5.894023	-3.982860	3.570840	-4.333840	-0.720274	0.250854	0.631224	-1.000000	-1.000000	-1.000000	-1.000000	-1.000000	-1.000000	-1.000000	62.000000	0.000000	-1.000000	-1.000000	1226313.000000	1776578853.228980
14600.745000	-15815.295000	16393.410000	59303.880000	26469.585000	8145.765000	-23727.465000	8185.230000	4.694502	3.593659	3.353927	3.642969	2.553332	18.233948	6.038484	6.436898	-3.982860	3.570840	-4.333840	-0.720274	0.250854	0.631224	-1.000000	-1.000000	-1.000000	-1.000000	-1.000000	-1.000000	-1.000000	62.000000	0.000000	-1.000000	-1.000000	1226314.000000	1776578853.232968
14604.300000	-15812.595000	16391.295000	59298.075000	26457.480000	8130.645000	-23721.480000	8189.685000	1.857431	1.116463	0.959082	-0.026208	-2.237027	12.056650	7.243243	4.111628	-3.982860	3.570840	-4.333840	-0.720274	0.250854	0.631224	-1.000000	-1.000000	-1.000000	-1.000000	-1.000000	-1.000000	-1.000000	62.000000	0.000000	-1.000000	-1.000000	1226315.000000	1776578853.232975
